onset	duration	trial_type	image_type	Press	ReactionTime	ReactionTime_Interpolated	CorrectOmission	CorrectCommission	CommissionError	OmissionError	response_type	nonsmoothVarianceTimeCourse	VarianceTimeCourse	In_the_Zone
8.421712	0.795796	city	7	1	0.860305	0.860305	0	1	0	0	CorrectCommission	1.789575	1.789575	0
9.217508	0.795797	city	4	1	0.699126	0.699126	0	1	0	0	CorrectCommission	0.367603	1.617745	0
10.013318	0.795822	city	2	1	0.599271	0.599271	0	1	0	0	CorrectCommission	0.513353	1.450661	0
10.809141	0.795824	city	9	1	0.599239	0.599239	0	1	0	0	CorrectCommission	0.513640	1.292574	0
11.604912	0.795717	city	7	1	0.564535	0.564535	0	1	0	0	CorrectCommission	0.819810	1.146918	0
12.400665	0.795791	city	5	1	0.599162	0.599162	0	1	0	0	CorrectCommission	0.514322	1.016064	0
13.196499	0.795876	city	4	1	0.598925	0.598925	0	1	0	0	CorrectCommission	0.516410	0.901243	0
13.992336	0.795800	mountain	6	1	0.550444	0.550444	0	0	1	0	CommissionError	0.944126	0.802587	0
14.788104	0.795734	city	7	1	0.599487	0.599487	0	1	0	0	CorrectCommission	0.511449	0.719285	0
15.583892	0.795841	city	1	1	0.549396	0.549396	0	1	0	0	CorrectCommission	0.953370	0.649900	1
16.379869	0.796113	city	7	1	0.698276	0.698276	0	1	0	0	CorrectCommission	0.360096	0.592568	1
17.175686	0.795521	city	6	1	0.700807	0.700807	0	1	0	0	CorrectCommission	0.382430	0.545334	1
17.971487	0.796082	city	3	1	0.617207	0.617207	0	1	0	0	CorrectCommission	0.355123	0.506305	1
18.767420	0.795782	city	9	1	0.604898	0.604898	0	1	0	0	CorrectCommission	0.463711	0.473833	1
19.563221	0.795821	city	2	1	0.599334	0.599334	0	1	0	0	CorrectCommission	0.512797	0.446514	1
20.358862	0.795461	city	1	1	0.598776	0.598776	0	1	0	0	CorrectCommission	0.517722	0.423289	1
21.154516	0.795846	city	9	1	0.649070	0.649070	0	1	0	0	CorrectCommission	0.074014	0.403354	1
21.950333	0.795790	city	10	1	0.611446	0.611446	0	1	0	0	CorrectCommission	0.405945	0.386174	1
22.746141	0.795827	city	8	1	0.650693	0.650693	0	1	0	0	CorrectCommission	0.059690	0.371347	1
23.541943	0.795774	city	2	1	0.599188	0.599188	0	1	0	0	CorrectCommission	0.514092	0.358648	1
24.337862	0.796067	city	8	1	0.563549	0.563549	0	1	0	0	CorrectCommission	0.828512	0.347928	1
25.133675	0.795557	city	6	1	0.654912	0.654912	0	1	0	0	CorrectCommission	0.022472	0.339108	1
25.929342	0.795777	city	1	1	0.649177	0.649177	0	1	0	0	CorrectCommission	0.073072	0.332252	1
26.725288	0.796114	city	6	1	0.701793	0.701793	0	1	0	0	CorrectCommission	0.391131	0.327519	1
27.521114	0.795540	city	8	1	0.613134	0.613134	0	1	0	0	CorrectCommission	0.391054	0.325097	1
28.316763	0.795756	city	2	1	0.599819	0.599819	0	1	0	0	CorrectCommission	0.508519	0.325260	1
29.112518	0.795753	city	9	1	0.707719	0.707719	0	1	0	0	CorrectCommission	0.443409	0.328270	1
29.908472	0.796157	city	6	1	0.661237	0.661237	0	1	0	0	CorrectCommission	0.033328	0.334433	1
30.704313	0.795524	city	4	1	0.648746	0.648746	0	1	0	0	CorrectCommission	0.076868	0.344073	1
31.500101	0.796052	city	6	1	0.649488	0.649488	0	1	0	0	CorrectCommission	0.070322	0.357456	1
32.295864	0.795476	city	4	1	0.653325	0.653325	0	1	0	0	CorrectCommission	0.036477	0.374861	1
33.091534	0.795860	mountain	10	0	0.000000	0.585560	1	0	0	0	CorrectOmission	0.634317	0.396522	1
33.887512	0.796099	city	8	1	0.549453	0.549453	0	1	0	0	CorrectCommission	0.952865	0.422657	1
34.683327	0.795533	city	6	1	0.648261	0.648261	0	1	0	0	CorrectCommission	0.081150	0.453395	1
35.478962	0.795736	mountain	6	0	0.000000	0.721690	1	0	0	0	CorrectOmission	0.566662	0.488798	1
36.274750	0.795836	city	6	1	0.709157	0.709157	0	1	0	0	CorrectCommission	0.456093	0.528684	1
37.070717	0.796102	city	10	1	0.550081	0.550081	0	1	0	0	CorrectCommission	0.947331	0.572607	1
37.866669	0.795800	city	7	1	0.648417	0.648417	0	1	0	0	CorrectCommission	0.079773	0.619756	1
38.662289	0.795442	city	4	1	0.615008	0.615008	0	1	0	0	CorrectCommission	0.374519	0.668997	1
39.457947	0.795873	city	1	1	0.610662	0.610662	0	1	0	0	CorrectCommission	0.412864	0.718754	0
40.253746	0.795726	city	9	1	0.655195	0.655195	0	1	0	0	CorrectCommission	0.019972	0.767202	0
41.049641	0.796066	city	5	1	0.601303	0.601303	0	1	0	0	CorrectCommission	0.495432	0.812389	0
41.845459	0.795565	city	3	1	0.449497	0.449497	0	1	0	0	CorrectCommission	1.834714	0.852345	0
42.641132	0.795784	city	7	1	0.457052	0.457052	0	1	0	0	CorrectCommission	1.768062	0.885396	0
43.437103	0.796157	mountain	3	1	0.399906	0.399906	0	0	1	0	CommissionError	2.272221	0.910380	0
44.232914	0.795469	city	1	1	0.550307	0.550307	0	1	0	0	CorrectCommission	0.945331	0.926662	0
45.028584	0.795866	city	5	1	0.549319	0.549319	0	1	0	0	CorrectCommission	0.954049	0.934279	0
45.824398	0.795762	city	8	1	0.549921	0.549921	0	1	0	0	CorrectCommission	0.948742	0.933793	0
46.620316	0.796077	mountain	2	0	0.000000	0.639264	1	0	0	0	CorrectOmission	0.160527	0.926209	0
47.416119	0.795530	city	4	1	0.698377	0.698377	0	1	0	0	CorrectCommission	0.360994	0.912843	0
48.211788	0.795805	city	10	1	0.608291	0.608291	0	1	0	0	CorrectCommission	0.433780	0.895088	0
49.007591	0.795802	city	5	1	0.848248	0.848248	0	1	0	0	CorrectCommission	1.683202	0.874362	0
49.803410	0.795834	city	4	1	0.798532	0.798532	0	1	0	0	CorrectCommission	1.244588	0.851950	0
50.599354	0.796059	mountain	4	0	0.000000	0.806444	1	0	0	0	CorrectOmission	1.314391	0.829023	0
51.395142	0.795519	city	6	1	0.797806	0.797806	0	1	0	0	CorrectCommission	1.238188	0.806519	0
52.190796	0.795783	city	3	1	0.698441	0.698441	0	1	0	0	CorrectCommission	0.361556	0.785150	0
52.986576	0.795776	city	6	1	0.698741	0.698741	0	1	0	0	CorrectCommission	0.364198	0.765344	0
53.782379	0.795833	city	4	1	0.698356	0.698356	0	1	0	0	CorrectCommission	0.360808	0.747178	0
54.578201	0.795809	city	2	1	0.656283	0.656283	0	1	0	0	CorrectCommission	0.010373	0.730430	0
55.374008	0.795811	mountain	3	0	0.000000	0.745076	1	0	0	0	CorrectOmission	0.772982	0.714617	0
56.169945	0.796057	city	9	1	0.797991	0.797991	0	1	0	0	CorrectCommission	1.239818	0.699055	0
56.965725	0.795508	city	1	1	0.648287	0.648287	0	1	0	0	CorrectCommission	0.080920	0.683085	1
57.935444	1.143926	city	7	0	0.000000	0.517599	0	0	0	1	OmissionError	1.233897	0.666312	1
58.905483	0.796153	city	4	1	0.470207	0.470207	0	1	0	0	CorrectCommission	1.652007	0.648660	1
59.701340	0.795559	mountain	3	0	0.000000	0.570391	1	0	0	0	CorrectOmission	0.768144	0.630555	1
60.496979	0.795722	city	5	1	0.664762	0.664762	0	1	0	0	CorrectCommission	0.064427	0.613052	1
61.292770	0.795862	city	1	1	0.599928	0.599928	0	1	0	0	CorrectCommission	0.507557	0.597708	1
62.088604	0.795807	city	8	1	0.568365	0.568365	0	1	0	0	CorrectCommission	0.786023	0.586401	1
62.884407	0.795799	city	10	1	0.598916	0.598916	0	1	0	0	CorrectCommission	0.516487	0.581141	1
63.680351	0.796083	city	5	1	0.648554	0.648554	0	1	0	0	CorrectCommission	0.078563	0.583745	1
64.476128	0.795469	city	10	1	0.599196	0.599196	0	1	0	0	CorrectCommission	0.514014	0.595557	1
65.271774	0.795833	city	4	1	0.606043	0.606043	0	1	0	0	CorrectCommission	0.453611	0.617083	1
66.067596	0.795805	city	9	1	0.658382	0.658382	0	1	0	0	CorrectCommission	0.008137	0.647855	1
66.863419	0.795835	city	10	1	0.648902	0.648902	0	1	0	0	CorrectCommission	0.075498	0.686299	1
67.659348	0.796036	city	1	1	0.649313	0.649313	0	1	0	0	CorrectCommission	0.071869	0.729846	0
68.455101	0.795466	city	7	1	0.698345	0.698345	0	1	0	0	CorrectCommission	0.360709	0.775128	0
69.250916	0.796161	city	10	1	0.752087	0.752087	0	1	0	0	CorrectCommission	0.834840	0.818356	0
70.046722	0.795459	city	6	1	0.957345	0.957345	0	1	0	0	CorrectCommission	2.645694	0.855778	0
70.842529	0.796152	city	5	1	0.848057	0.848057	0	1	0	0	CorrectCommission	1.681516	0.884070	0
71.638504	0.795791	city	3	1	0.798286	0.798286	0	1	0	0	CorrectCommission	1.242419	0.900901	0
72.434303	0.795811	city	1	1	0.807584	0.807584	0	1	0	0	CorrectCommission	1.324455	0.905090	0
73.229973	0.795525	city	10	1	0.747963	0.747963	0	1	0	0	CorrectCommission	0.798459	0.896748	0
74.025604	0.795751	city	9	1	0.801210	0.801210	0	1	0	0	CorrectCommission	1.268218	0.877258	0
74.821442	0.795911	city	3	1	0.748932	0.748932	0	1	0	0	CorrectCommission	0.807006	0.849064	0
75.617256	0.795720	city	5	1	0.748459	0.748459	0	1	0	0	CorrectCommission	0.802835	0.815421	0
76.413155	0.796081	city	9	1	0.798435	0.798435	0	1	0	0	CorrectCommission	1.243736	0.779969	0
77.208969	0.795544	city	3	1	0.660549	0.660549	0	1	0	0	CorrectCommission	0.027260	0.746401	0
78.004601	0.795723	city	6	1	0.698660	0.698660	0	1	0	0	CorrectCommission	0.363490	0.718178	0
78.800354	0.795789	city	4	1	0.649232	0.649232	0	1	0	0	CorrectCommission	0.072583	0.698052	0
79.596207	0.795906	city	3	1	0.600591	0.600591	0	1	0	0	CorrectCommission	0.501710	0.688060	1
80.392181	0.796043	city	6	1	0.602644	0.602644	0	1	0	0	CorrectCommission	0.483600	0.689345	1
81.187965	0.795536	city	4	1	0.598682	0.598682	0	1	0	0	CorrectCommission	0.518557	0.702220	0
81.983643	0.795806	city	2	1	0.598826	0.598826	0	1	0	0	CorrectCommission	0.517280	0.726225	0
82.779442	0.795797	city	1	1	0.552916	0.552916	0	1	0	0	CorrectCommission	0.922313	0.760244	0
83.575378	0.796084	city	2	1	0.599671	0.599671	0	1	0	0	CorrectCommission	0.509825	0.802637	0
84.371193	0.795535	city	9	1	0.560545	0.560545	0	1	0	0	CorrectCommission	0.855010	0.851370	0
85.166992	0.796060	city	6	1	0.558988	0.558988	0	1	0	0	CorrectCommission	0.868749	0.904088	0
85.962746	0.795454	city	5	1	0.558941	0.558941	0	1	0	0	CorrectCommission	0.869158	0.958215	0
86.758392	0.795847	city	4	1	0.499823	0.499823	0	1	0	0	CorrectCommission	1.390718	1.011017	0
87.554359	0.796077	city	6	1	0.549139	0.549139	0	1	0	0	CorrectCommission	0.955642	1.059635	0
88.350296	0.795800	mountain	8	1	0.499542	0.499542	0	0	1	0	CommissionError	1.393203	1.101268	0
89.145966	0.795539	city	1	1	0.800663	0.800663	0	1	0	0	CorrectCommission	1.263394	1.133253	0
89.941605	0.795745	city	8	1	0.615341	0.615341	0	1	0	0	CorrectCommission	0.371578	1.153283	0
90.737404	0.795850	city	7	1	0.514523	0.514523	0	1	0	0	CorrectCommission	1.261036	1.159615	0
91.533249	0.795832	city	6	1	0.464531	0.464531	0	1	0	0	CorrectCommission	1.702079	1.151202	0
92.329185	0.796053	city	8	1	0.353649	0.353649	0	1	0	0	CorrectCommission	2.680316	1.127955	0
93.125122	0.795823	mountain	8	1	0.350836	0.350836	0	0	1	0	CommissionError	2.705138	1.090819	0
93.920784	0.795498	mountain	4	1	0.607485	0.607485	0	0	1	0	CommissionError	0.440886	1.041730	0
94.716454	0.795833	city	10	1	0.798556	0.798556	0	1	0	0	CorrectCommission	1.244804	0.983604	0
95.512245	0.795753	city	7	1	0.748820	0.748820	0	1	0	0	CorrectCommission	0.806017	0.919806	0
96.308029	0.795818	city	2	1	0.648827	0.648827	0	1	0	0	CorrectCommission	0.076158	0.854003	0
97.103859	0.795834	city	9	1	0.599218	0.599218	0	1	0	0	CorrectCommission	0.513823	0.789676	0
97.899681	0.795817	city	5	1	0.613465	0.613465	0	1	0	0	CorrectCommission	0.388129	0.729746	0
98.695625	0.796064	city	9	1	0.615026	0.615026	0	1	0	0	CorrectCommission	0.374361	0.676361	1
99.491554	0.795804	city	7	1	0.664514	0.664514	0	1	0	0	CorrectCommission	0.062242	0.630730	1
100.287201	0.795489	city	9	1	0.698118	0.698118	0	1	0	0	CorrectCommission	0.358708	0.593132	1
101.082870	0.795853	mountain	5	0	0.000000	0.734070	1	0	0	0	CorrectOmission	0.675888	0.563017	1
101.878815	0.796039	city	4	1	0.698706	0.698706	0	1	0	0	CorrectCommission	0.363892	0.539245	1
102.674591	0.795511	city	1	1	0.518362	0.518362	0	1	0	0	CorrectCommission	1.227168	0.520397	1
103.470230	0.795756	city	6	1	0.599667	0.599667	0	1	0	0	CorrectCommission	0.509866	0.504986	1
104.266029	0.795849	city	2	1	0.598934	0.598934	0	1	0	0	CorrectCommission	0.516333	0.491769	1
105.061867	0.795820	city	9	1	0.750978	0.750978	0	1	0	0	CorrectCommission	0.825051	0.479873	1
105.857689	0.795837	city	5	1	0.648941	0.648941	0	1	0	0	CorrectCommission	0.075151	0.468903	1
106.653488	0.795748	city	4	1	0.701449	0.701449	0	1	0	0	CorrectCommission	0.388094	0.458961	1
107.449417	0.796114	city	2	1	0.698435	0.698435	0	1	0	0	CorrectCommission	0.361502	0.450539	1
108.245369	0.795797	city	5	1	0.762237	0.762237	0	1	0	0	CorrectCommission	0.924386	0.444440	1
109.041153	0.795762	city	10	1	0.652849	0.652849	0	1	0	0	CorrectCommission	0.040677	0.441592	1
109.836784	0.795508	mountain	5	0	0.000000	0.649864	1	0	0	0	CorrectOmission	0.067010	0.442952	1
110.632484	0.795882	city	6	1	0.652937	0.652937	0	1	0	0	CorrectCommission	0.039893	0.449274	1
111.428268	0.795693	city	5	1	0.561724	0.561724	0	1	0	0	CorrectCommission	0.844609	0.461094	1
112.224052	0.795882	city	3	1	0.605898	0.605898	0	1	0	0	CorrectCommission	0.454889	0.478492	1
113.019890	0.795783	city	4	1	0.712424	0.712424	0	1	0	0	CorrectCommission	0.484920	0.501119	1
113.815651	0.795743	city	10	1	0.700933	0.700933	0	1	0	0	CorrectCommission	0.383545	0.528145	1
114.611458	0.795865	city	7	1	0.699059	0.699059	0	1	0	0	CorrectCommission	0.367008	0.558253	1
115.407310	0.795842	city	9	1	0.716969	0.716969	0	1	0	0	CorrectCommission	0.525018	0.589706	1
116.203094	0.795725	city	7	1	0.649395	0.649395	0	1	0	0	CorrectCommission	0.071148	0.620439	1
116.999016	0.796131	city	2	1	0.605407	0.605407	0	1	0	0	CorrectCommission	0.459220	0.648310	1
117.794991	0.795815	city	7	1	0.548727	0.548727	0	1	0	0	CorrectCommission	0.959269	0.671220	1
118.590645	0.795497	city	6	1	0.499825	0.499825	0	1	0	0	CorrectCommission	1.390703	0.687389	1
119.386299	0.795806	mountain	5	0	0.000000	0.531904	1	0	0	0	CorrectOmission	1.107693	0.695630	1
120.182068	0.795728	city	3	1	0.549971	0.549971	0	1	0	0	CorrectCommission	0.948299	0.695475	1
120.978004	0.796151	city	6	1	0.459034	0.459034	0	1	0	0	CorrectCommission	1.750577	0.687344	1
121.773849	0.795540	city	4	1	0.548743	0.548743	0	1	0	0	CorrectCommission	0.959132	0.672474	1
122.569664	0.796086	city	6	1	0.661062	0.661062	0	1	0	0	CorrectCommission	0.031785	0.652909	1
123.365448	0.795474	city	4	1	0.702649	0.702649	0	1	0	0	CorrectCommission	0.398679	0.631323	1
124.161095	0.795825	city	3	1	0.698705	0.698705	0	1	0	0	CorrectCommission	0.363880	0.610786	1
124.956917	0.795817	city	9	1	0.698316	0.698316	0	1	0	0	CorrectCommission	0.360453	0.594506	1
125.752724	0.795794	city	8	1	0.699148	0.699148	0	1	0	0	CorrectCommission	0.367794	0.585555	1
126.548485	0.795731	mountain	10	0	0.000000	0.712294	1	0	0	0	CorrectOmission	0.483769	0.586752	1
127.344284	0.795880	city	6	1	0.706068	0.706068	0	1	0	0	CorrectCommission	0.428842	0.600453	1
128.140137	0.795809	city	7	1	0.648786	0.648786	0	1	0	0	CorrectCommission	0.076519	0.628412	1
128.935898	0.795718	city	6	1	0.706138	0.706138	0	1	0	0	CorrectCommission	0.429461	0.671590	1
129.731689	0.795883	mountain	8	0	0.000000	0.753716	1	0	0	0	CorrectOmission	0.849210	0.730105	0
130.527664	0.796061	mountain	3	1	0.748876	0.748876	0	0	1	0	CommissionError	0.806514	0.803116	0
131.323456	0.795516	city	10	1	0.648976	0.648976	0	1	0	0	CorrectCommission	0.074845	0.888781	0
132.119141	0.795840	city	3	1	0.748140	0.748140	0	1	0	0	CorrectCommission	0.800021	0.984283	0
132.914932	0.795759	city	4	1	0.717964	0.717964	0	1	0	0	CorrectCommission	0.533794	1.085817	0
133.710709	0.795795	city	5	1	0.749893	0.749893	0	1	0	0	CorrectCommission	0.815480	1.188907	0
134.506653	0.796103	city	1	1	0.847517	0.847517	0	1	0	0	CorrectCommission	1.676752	1.288608	0
135.302475	0.795524	city	7	1	0.798270	0.798270	0	1	0	0	CorrectCommission	1.242281	1.379864	0
136.098129	0.795782	city	8	1	0.897204	0.897204	0	1	0	0	CorrectCommission	2.115108	1.457990	0
136.893906	0.795781	city	9	1	0.897627	0.897627	0	1	0	0	CorrectCommission	2.118845	1.519027	0
137.689728	0.795856	city	8	1	0.897344	0.897344	0	1	0	0	CorrectCommission	2.116345	1.560158	0
138.485535	0.795763	city	9	1	0.897586	0.897586	0	1	0	0	CorrectCommission	2.118478	1.579880	0
139.281296	0.795763	city	2	1	1.145918	1.145918	0	1	0	0	CorrectCommission	4.309351	1.578127	0
140.077118	0.795863	mountain	8	0	0.000000	0.968219	1	0	0	0	CorrectOmission	2.741628	1.556071	0
140.872971	0.795838	city	7	1	0.698285	0.698285	0	1	0	0	CorrectCommission	0.360179	1.516026	0
141.668732	0.795697	mountain	10	0	0.000000	0.669913	1	0	0	0	CorrectOmission	0.109875	1.461001	0
142.464523	0.795892	city	4	1	0.748314	0.748314	0	1	0	0	CorrectCommission	0.801553	1.394174	0
143.260345	0.795749	city	5	1	0.798697	0.798697	0	1	0	0	CorrectCommission	1.246047	1.318639	0
144.056122	0.795805	city	10	1	0.713318	0.713318	0	1	0	0	CorrectCommission	0.492809	1.237189	0
144.851898	0.795760	city	1	1	0.848349	0.848349	0	1	0	0	CorrectCommission	1.684095	1.152294	0
145.647873	0.796166	city	5	1	0.898200	0.898200	0	1	0	0	CorrectCommission	2.123900	1.066049	0
146.443832	0.795771	city	4	1	0.847556	0.847556	0	1	0	0	CorrectCommission	1.677097	0.980363	0
147.239639	0.795831	city	6	1	0.798263	0.798263	0	1	0	0	CorrectCommission	1.242215	0.897178	0
148.035324	0.795544	city	5	1	0.698220	0.698220	0	1	0	0	CorrectCommission	0.359610	0.818530	0
148.830948	0.795694	city	8	1	0.698638	0.698638	0	1	0	0	CorrectCommission	0.363292	0.746586	0
149.626724	0.795858	city	5	1	0.698376	0.698376	0	1	0	0	CorrectCommission	0.360978	0.683486	1
150.422546	0.795796	city	2	1	0.648619	0.648619	0	1	0	0	CorrectCommission	0.077994	0.631242	1
151.218323	0.795771	city	10	1	0.650202	0.650202	0	1	0	0	CorrectCommission	0.064028	0.591530	1
152.014160	0.795880	city	1	1	0.712073	0.712073	0	1	0	0	CorrectCommission	0.481821	0.565392	1
152.809967	0.795753	mountain	10	0	0.000000	0.691762	1	0	0	0	CorrectOmission	0.302627	0.553078	1
153.605759	0.795821	city	10	1	0.662878	0.662878	0	1	0	0	CorrectCommission	0.047806	0.553955	1
154.401566	0.795798	city	7	1	0.699033	0.699033	0	1	0	0	CorrectCommission	0.366777	0.566477	1
155.197510	0.796098	city	6	1	0.701135	0.701135	0	1	0	0	CorrectCommission	0.385320	0.588236	1
155.993286	0.795454	city	2	1	0.610395	0.610395	0	1	0	0	CorrectCommission	0.415213	0.616233	1
156.788956	0.795869	city	8	1	0.752048	0.752048	0	1	0	0	CorrectCommission	0.834492	0.647070	1
157.584763	0.795745	city	7	1	0.699251	0.699251	0	1	0	0	CorrectCommission	0.368700	0.677366	1
158.380554	0.795833	city	4	1	0.798508	0.798508	0	1	0	0	CorrectCommission	1.244384	0.704175	0
159.176346	0.795761	city	3	1	0.797896	0.797896	0	1	0	0	CorrectCommission	1.238981	0.725148	0
159.972122	0.795793	mountain	2	0	0.000000	0.829395	1	0	0	0	CorrectOmission	1.516875	0.738862	0
160.767944	0.795865	city	2	1	0.811256	0.811256	0	1	0	0	CorrectCommission	1.356848	0.744883	0
161.563797	0.795825	city	5	1	0.661731	0.661731	0	1	0	0	CorrectCommission	0.037684	0.743770	0
162.359589	0.795773	city	9	1	0.549501	0.549501	0	1	0	0	CorrectCommission	0.952448	0.736941	0
163.155396	0.795831	city	3	1	0.499752	0.499752	0	1	0	0	CorrectCommission	1.391347	0.726334	0
163.951218	0.795800	city	9	1	0.600463	0.600463	0	1	0	0	CorrectCommission	0.502842	0.714180	0
164.746994	0.795766	city	2	1	0.649509	0.649509	0	1	0	0	CorrectCommission	0.070137	0.702698	0
165.542801	0.795831	city	10	1	0.663246	0.663246	0	1	0	0	CorrectCommission	0.051055	0.693770	1
166.338623	0.795811	city	7	1	0.748315	0.748315	0	1	0	0	CorrectCommission	0.801564	0.688653	1
167.134537	0.796034	city	2	1	0.599416	0.599416	0	1	0	0	CorrectCommission	0.512080	0.687882	1
167.930313	0.795529	city	7	1	0.659710	0.659710	0	1	0	0	CorrectCommission	0.019860	0.691327	1
168.726135	0.796087	mountain	2	0	0.000000	0.746980	1	0	0	0	CorrectOmission	0.789779	0.698243	0
169.522079	0.795814	city	5	1	0.797765	0.797765	0	1	0	0	CorrectCommission	1.237826	0.707372	0
170.317734	0.795506	city	6	1	0.748609	0.748609	0	1	0	0	CorrectCommission	0.804151	0.717273	0
171.113388	0.795796	city	1	1	0.563787	0.563787	0	1	0	0	CorrectCommission	0.826412	0.726540	0
171.909164	0.795762	city	10	1	0.553671	0.553671	0	1	0	0	CorrectCommission	0.915655	0.733967	0
172.704941	0.795791	city	8	1	0.550004	0.550004	0	1	0	0	CorrectCommission	0.948008	0.738728	0
173.500748	0.795829	city	10	1	0.549164	0.549164	0	1	0	0	CorrectCommission	0.955418	0.740468	0
174.296738	0.796135	city	7	1	0.698374	0.698374	0	1	0	0	CorrectCommission	0.360960	0.739319	0
175.092529	0.795457	city	1	1	0.549154	0.549154	0	1	0	0	CorrectCommission	0.955507	0.735918	0
175.888336	0.796146	city	8	1	0.508089	0.508089	0	1	0	0	CorrectCommission	1.317797	0.731199	0
176.684143	0.795466	city	9	1	0.648966	0.648966	0	1	0	0	CorrectCommission	0.074929	0.726342	0
177.479797	0.795833	city	4	1	0.652739	0.652739	0	1	0	0	CorrectCommission	0.041641	0.722652	0
178.275604	0.795799	city	8	1	0.549655	0.549655	0	1	0	0	CorrectCommission	0.951084	0.721303	0
179.071564	0.796114	city	7	1	0.549997	0.549997	0	1	0	0	CorrectCommission	0.948067	0.723260	0
179.867340	0.795448	city	4	1	0.552518	0.552518	0	1	0	0	CorrectCommission	0.925826	0.729163	0
180.663010	0.795869	city	2	1	0.514010	0.514010	0	1	0	0	CorrectCommission	1.265559	0.739239	0
181.458832	0.795781	city	9	1	0.649340	0.649340	0	1	0	0	CorrectCommission	0.071635	0.753254	0
182.254623	0.795803	city	1	1	0.652421	0.652421	0	1	0	0	CorrectCommission	0.044451	0.770624	0
183.050568	0.796097	city	5	1	0.603269	0.603269	0	1	0	0	CorrectCommission	0.478089	0.790328	0
183.846359	0.795492	city	3	1	0.598906	0.598906	0	1	0	0	CorrectCommission	0.516581	0.811033	0
184.642029	0.795849	city	4	1	0.599638	0.599638	0	1	0	0	CorrectCommission	0.510117	0.831290	0
185.437988	0.796062	city	2	1	0.467062	0.467062	0	1	0	0	CorrectCommission	1.679750	0.849704	0
186.233780	0.795516	city	4	1	0.471710	0.471710	0	1	0	0	CorrectCommission	1.638743	0.865012	0
187.029434	0.795793	city	2	1	0.456715	0.456715	0	1	0	0	CorrectCommission	1.771034	0.876248	0
187.825241	0.795813	city	3	1	0.500277	0.500277	0	1	0	0	CorrectCommission	1.386715	0.882779	0
188.621185	0.796094	city	1	1	0.598817	0.598817	0	1	0	0	CorrectCommission	0.517366	0.884287	0
189.416962	0.795437	mountain	10	0	0.000000	0.638384	1	0	0	0	CorrectOmission	0.168292	0.880668	0
190.212616	0.795884	mountain	5	0	0.000000	0.633534	1	0	0	0	CorrectOmission	0.211078	0.871905	0
191.008575	0.796037	city	7	1	0.598823	0.598823	0	1	0	0	CorrectCommission	0.517309	0.857994	0
191.804367	0.795536	city	10	1	0.548807	0.548807	0	1	0	0	CorrectCommission	0.958569	0.838947	0
192.600006	0.795753	city	2	1	0.509510	0.509510	0	1	0	0	CorrectCommission	1.305262	0.814776	0
193.395813	0.795855	city	8	1	0.499872	0.499872	0	1	0	0	CorrectCommission	1.390289	0.785601	0
194.191681	0.795892	city	3	1	0.508808	0.508808	0	1	0	0	CorrectCommission	1.311449	0.751819	0
194.987457	0.795657	city	4	1	0.552964	0.552964	0	1	0	0	CorrectCommission	0.921891	0.714164	0
195.783234	0.795879	mountain	6	1	0.549186	0.549186	0	0	1	0	CommissionError	0.955225	0.673740	1
196.579071	0.795807	mountain	2	0	0.000000	0.656738	1	0	0	0	CorrectOmission	0.006366	0.631975	1
197.374863	0.795764	city	8	1	0.748784	0.748784	0	1	0	0	CorrectCommission	0.805698	0.590576	1
198.170624	0.795752	city	10	1	0.698489	0.698489	0	1	0	0	CorrectCommission	0.361978	0.551231	1
198.966385	0.795796	city	3	1	0.652499	0.652499	0	1	0	0	CorrectCommission	0.043759	0.515594	1
199.762192	0.795805	city	6	1	0.650400	0.650400	0	1	0	0	CorrectCommission	0.062281	0.485019	1
200.558029	0.795868	city	7	1	0.699183	0.699183	0	1	0	0	CorrectCommission	0.368101	0.460389	1
201.353867	0.795806	city	4	1	0.748137	0.748137	0	1	0	0	CorrectCommission	0.799992	0.442059	1
202.149689	0.795828	city	8	1	0.649296	0.649296	0	1	0	0	CorrectCommission	0.072021	0.429912	1
202.945633	0.796073	mountain	4	0	0.000000	0.657520	1	0	0	0	CorrectOmission	0.000537	0.423370	1
203.741562	0.795796	city	1	1	0.698096	0.698096	0	1	0	0	CorrectCommission	0.358508	0.421553	1
204.537216	0.795504	mountain	2	0	0.000000	0.696308	1	0	0	0	CorrectOmission	0.342733	0.423417	1
205.332855	0.795784	city	6	1	0.701952	0.701952	0	1	0	0	CorrectCommission	0.392527	0.427996	1
206.128662	0.795810	mountain	5	0	0.000000	0.764823	1	0	0	0	CorrectOmission	0.947203	0.434552	1
206.924469	0.795812	city	7	1	0.798646	0.798646	0	1	0	0	CorrectCommission	1.245595	0.442612	1
207.720291	0.795820	city	5	1	0.717142	0.717142	0	1	0	0	CorrectCommission	0.526539	0.452011	1
208.516052	0.795721	city	7	1	0.665312	0.665312	0	1	0	0	CorrectCommission	0.069284	0.462878	1
209.311813	0.795800	city	1	1	0.660329	0.660329	0	1	0	0	CorrectCommission	0.025317	0.475495	1
210.107651	0.795852	city	7	1	0.650086	0.650086	0	1	0	0	CorrectCommission	0.065046	0.490131	1
210.903473	0.795800	city	1	1	0.602162	0.602162	0	1	0	0	CorrectCommission	0.487852	0.506931	1
211.699249	0.795746	city	2	1	0.613852	0.613852	0	1	0	0	CorrectCommission	0.384718	0.525806	1
212.495056	0.795884	mountain	4	1	0.598944	0.598944	0	0	1	0	CommissionError	0.516246	0.546415	1
213.291031	0.796071	city	8	1	0.698569	0.698569	0	1	0	0	CorrectCommission	0.362683	0.568129	1
214.086838	0.795523	city	7	1	0.748743	0.748743	0	1	0	0	CorrectCommission	0.805339	0.590135	1
214.882507	0.795826	city	4	1	0.798096	0.798096	0	1	0	0	CorrectCommission	1.240744	0.611472	1
215.678452	0.796071	mountain	3	0	0.000000	0.737552	1	0	0	0	CorrectOmission	0.706603	0.631211	1
216.474258	0.795544	city	3	1	0.698930	0.698930	0	1	0	0	CorrectCommission	0.365869	0.648536	1
217.269928	0.795797	city	5	1	0.814050	0.814050	0	1	0	0	CorrectCommission	1.381498	0.662786	1
218.065872	0.796070	city	7	1	0.698291	0.698291	0	1	0	0	CorrectCommission	0.360234	0.673500	1
218.861618	0.795447	city	8	1	0.698451	0.698451	0	1	0	0	CorrectCommission	0.361646	0.680554	1
219.657425	0.796153	city	10	1	0.648611	0.648611	0	1	0	0	CorrectCommission	0.078066	0.684142	1
220.453262	0.795517	city	7	1	0.751220	0.751220	0	1	0	0	CorrectCommission	0.827186	0.684783	1
221.249039	0.796057	city	2	1	0.847452	0.847452	0	1	0	0	CorrectCommission	1.676183	0.683253	1
222.044861	0.795567	city	7	1	0.797982	0.797982	0	1	0	0	CorrectCommission	1.239737	0.680568	1
222.840500	0.795701	city	10	1	0.707672	0.707672	0	1	0	0	CorrectCommission	0.442997	0.677914	1
223.636429	0.796158	city	3	1	0.698811	0.698811	0	1	0	0	CorrectCommission	0.364815	0.676566	1
224.432236	0.795465	city	6	1	0.748118	0.748118	0	1	0	0	CorrectCommission	0.799824	0.677584	1
225.227890	0.795858	city	3	1	0.704947	0.704947	0	1	0	0	CorrectCommission	0.418957	0.681820	1
226.023727	0.795815	city	5	1	0.698264	0.698264	0	1	0	0	CorrectCommission	0.359993	0.689855	1
226.819550	0.795816	city	1	1	0.698263	0.698263	0	1	0	0	CorrectCommission	0.359988	0.701855	0
227.615311	0.795706	mountain	6	0	0.000000	0.703373	1	0	0	0	CorrectOmission	0.405068	0.717758	0
228.411087	0.795851	mountain	5	0	0.000000	0.693577	1	0	0	0	CorrectOmission	0.318641	0.737410	0
229.206924	0.795826	city	9	1	0.648858	0.648858	0	1	0	0	CorrectCommission	0.075886	0.760815	0
230.002716	0.795742	city	8	1	0.549200	0.549200	0	1	0	0	CorrectCommission	0.955105	0.788288	0
230.798477	0.795787	city	2	1	0.366944	0.366944	0	1	0	0	CorrectCommission	2.563026	0.820598	0
231.594299	0.795870	mountain	9	0	0.000000	0.425518	1	0	0	0	CorrectOmission	2.046265	0.858938	0
232.390137	0.795795	city	10	1	0.558453	0.558453	0	1	0	0	CorrectCommission	0.873468	0.904820	0
233.185928	0.795803	city	2	1	0.599280	0.599280	0	1	0	0	CorrectCommission	0.513281	0.959701	0
233.981720	0.795779	city	8	1	0.648696	0.648696	0	1	0	0	CorrectCommission	0.077309	1.024504	0
234.777527	0.795825	city	3	1	0.602516	0.602516	0	1	0	0	CorrectCommission	0.484733	1.099056	0
235.573334	0.795778	mountain	4	1	0.649195	0.649195	0	0	1	0	CommissionError	0.072909	1.181767	0
236.369095	0.795746	city	5	1	0.649463	0.649463	0	1	0	0	CorrectCommission	0.070548	1.269452	0
237.164886	0.795857	city	7	1	0.615170	0.615170	0	1	0	0	CorrectCommission	0.373094	1.357411	0
237.960739	0.795837	city	1	1	0.698566	0.698566	0	1	0	0	CorrectCommission	0.362658	1.439835	0
238.756561	0.795796	city	4	1	1.048145	1.048145	0	1	0	0	CorrectCommission	3.446765	1.510497	0
239.552353	0.795813	city	8	1	0.948209	0.948209	0	1	0	0	CorrectCommission	2.565096	1.563489	0
240.348129	0.795711	city	3	1	1.117246	1.117246	0	1	0	0	CorrectCommission	4.056394	1.594293	0
241.143890	0.795823	city	7	1	1.196737	1.196737	0	1	0	0	CorrectCommission	4.757699	1.600181	0
241.939865	0.796143	city	5	0	0.000000	0.857669	0	0	0	1	OmissionError	1.766317	1.580677	0
242.735840	0.795801	city	7	1	0.506394	0.506394	0	1	0	0	CorrectCommission	1.332751	1.537683	0
243.531509	0.795515	city	10	1	0.549267	0.549267	0	1	0	0	CorrectCommission	0.954505	1.474902	0
244.327164	0.795802	city	9	1	0.806549	0.806549	0	1	0	0	CorrectCommission	1.315317	1.397354	0
245.122971	0.795811	city	10	1	0.649643	0.649643	0	1	0	0	CorrectCommission	0.068961	1.310582	0
245.918762	0.795780	city	7	1	0.710298	0.710298	0	1	0	0	CorrectCommission	0.466165	1.220023	0
246.714523	0.795742	city	9	1	0.748311	0.748311	0	1	0	0	CorrectCommission	0.801521	1.130325	0
247.510330	0.795872	city	3	1	0.748848	0.748848	0	1	0	0	CorrectCommission	0.806263	1.045088	0
248.306183	0.795819	city	1	1	0.748123	0.748123	0	1	0	0	CorrectCommission	0.799866	0.966744	0
249.101990	0.795808	city	9	1	0.863204	0.863204	0	1	0	0	CorrectCommission	1.815149	0.896706	0
249.897781	0.795773	city	2	1	0.748107	0.748107	0	1	0	0	CorrectCommission	0.799728	0.835575	0
250.693573	0.795815	city	3	1	0.750429	0.750429	0	1	0	0	CorrectCommission	0.820208	0.783580	0
251.489380	0.795795	mountain	2	0	0.000000	0.742267	1	0	0	0	CorrectOmission	0.748202	0.740722	0
252.285324	0.796090	mountain	8	0	0.000000	0.728707	1	0	0	0	CorrectOmission	0.628576	0.706992	0
253.081116	0.795505	mountain	3	0	0.000000	0.714836	1	0	0	0	CorrectOmission	0.506198	0.682423	1
253.876907	0.796082	city	7	1	0.705738	0.705738	0	1	0	0	CorrectCommission	0.425933	0.667010	1
254.672684	0.795449	mountain	2	0	0.000000	0.706499	1	0	0	0	CorrectOmission	0.432648	0.660534	1
255.468338	0.795858	city	2	1	0.698472	0.698472	0	1	0	0	CorrectCommission	0.361828	0.662377	1
256.264313	0.796109	city	8	1	0.663009	0.663009	0	1	0	0	CorrectCommission	0.048960	0.671272	1
257.060089	0.795442	city	1	1	0.648661	0.648661	0	1	0	0	CorrectCommission	0.077621	0.685342	1
257.855743	0.795847	city	5	1	0.617374	0.617374	0	1	0	0	CorrectCommission	0.353646	0.702091	0
258.651550	0.795795	mountain	4	0	0.000000	0.724211	1	0	0	0	CorrectOmission	0.588906	0.718563	0
259.447327	0.795766	city	4	1	0.847574	0.847574	0	1	0	0	CorrectCommission	1.677254	0.731757	0
260.243164	0.795897	mountain	8	0	0.000000	0.865864	1	0	0	0	CorrectOmission	1.838616	0.738915	0
261.039154	0.796068	city	3	1	0.807135	0.807135	0	1	0	0	CorrectCommission	1.320492	0.737953	0
261.835083	0.795785	city	1	1	0.699441	0.699441	0	1	0	0	CorrectCommission	0.370380	0.727699	0
262.630707	0.795497	city	8	1	0.749845	0.749845	0	1	0	0	CorrectCommission	0.815057	0.708136	0
263.426514	0.796078	mountain	6	0	0.000000	0.807030	1	0	0	0	CorrectOmission	1.319568	0.680376	1
264.222473	0.795829	city	6	1	0.798158	0.798158	0	1	0	0	CorrectCommission	1.241291	0.646590	1
265.018127	0.795521	city	9	1	0.650387	0.650387	0	1	0	0	CorrectCommission	0.062398	0.609754	1
265.813782	0.795795	city	10	1	0.598804	0.598804	0	1	0	0	CorrectCommission	0.517477	0.573364	1
266.609589	0.795827	city	7	1	0.653022	0.653022	0	1	0	0	CorrectCommission	0.039146	0.540930	1
267.405426	0.795805	city	1	1	0.698626	0.698626	0	1	0	0	CorrectCommission	0.363184	0.515728	1
268.201233	0.795803	city	5	1	0.656801	0.656801	0	1	0	0	CorrectCommission	0.005805	0.500334	1
268.997162	0.796073	city	2	1	0.648769	0.648769	0	1	0	0	CorrectCommission	0.076667	0.496467	1
269.792908	0.795442	city	4	1	0.699744	0.699744	0	1	0	0	CorrectCommission	0.373050	0.504778	1
270.588593	0.795905	city	1	1	0.648895	0.648895	0	1	0	0	CorrectCommission	0.075555	0.524833	1
271.384430	0.795772	city	5	1	0.698332	0.698332	0	1	0	0	CorrectCommission	0.360592	0.555221	1
272.180359	0.796082	city	8	1	0.648656	0.648656	0	1	0	0	CorrectCommission	0.077663	0.593706	1
272.976166	0.795546	city	5	1	0.549349	0.549349	0	1	0	0	CorrectCommission	0.953790	0.637509	1
273.771820	0.795759	mountain	9	1	0.560813	0.560813	0	0	1	0	CommissionError	0.852648	0.683567	1
274.567596	0.795767	city	4	1	0.599118	0.599118	0	1	0	0	CorrectCommission	0.514711	0.728878	0
275.363373	0.795785	city	1	1	0.499428	0.499428	0	1	0	0	CorrectCommission	1.394204	0.770731	0
276.159180	0.795863	city	7	1	0.453852	0.453852	0	1	0	0	CorrectCommission	1.796295	0.806857	0
276.955017	0.795831	city	10	1	0.549099	0.549099	0	1	0	0	CorrectCommission	0.955995	0.835592	0
277.750824	0.795760	city	3	1	0.648579	0.648579	0	1	0	0	CorrectCommission	0.078341	0.855937	0
278.546631	0.795849	mountain	2	0	0.000000	0.781353	1	0	0	0	CorrectOmission	1.093032	0.867516	0
279.342438	0.795792	city	6	1	0.847838	0.847838	0	1	0	0	CorrectCommission	1.679585	0.870438	0
280.138214	0.795758	city	7	1	0.748453	0.748453	0	1	0	0	CorrectCommission	0.802783	0.865243	0
280.934021	0.795846	city	10	1	0.698575	0.698575	0	1	0	0	CorrectCommission	0.362736	0.852806	0
281.729980	0.796062	mountain	3	0	0.000000	0.771581	1	0	0	0	CorrectOmission	1.006819	0.834199	0
282.525757	0.795514	city	4	1	0.798590	0.798590	0	1	0	0	CorrectCommission	1.245104	0.810607	0
283.321442	0.795832	city	7	1	0.610721	0.610721	0	1	0	0	CorrectCommission	0.412340	0.783279	0
284.117249	0.795773	city	9	1	0.551305	0.551305	0	1	0	0	CorrectCommission	0.936534	0.753524	0
284.913025	0.795804	city	6	1	0.549041	0.549041	0	1	0	0	CorrectCommission	0.956499	0.722562	0
285.708832	0.795772	city	9	1	0.549495	0.549495	0	1	0	0	CorrectCommission	0.952501	0.691588	1
286.504608	0.795772	city	4	1	0.598896	0.598896	0	1	0	0	CorrectCommission	0.516668	0.661725	1
287.300385	0.795834	city	7	1	0.599742	0.599742	0	1	0	0	CorrectCommission	0.509206	0.633958	1
288.096191	0.795763	city	10	1	0.648663	0.648663	0	1	0	0	CorrectCommission	0.077605	0.609100	1
288.892151	0.796127	mountain	1	1	0.617538	0.617538	0	0	1	0	CommissionError	0.352202	0.587764	1
289.687988	0.795550	city	9	1	0.599437	0.599437	0	1	0	0	CorrectCommission	0.511893	0.570361	1
290.483795	0.796081	city	6	1	0.599015	0.599015	0	1	0	0	CorrectCommission	0.515616	0.557063	1
291.279602	0.795501	city	10	1	0.598836	0.598836	0	1	0	0	CorrectCommission	0.517191	0.547861	1
292.075226	0.795749	city	1	1	0.552969	0.552969	0	1	0	0	CorrectCommission	0.921848	0.542587	1
292.871002	0.795847	city	6	1	0.716887	0.716887	0	1	0	0	CorrectCommission	0.524291	0.540927	1
293.666840	0.795825	city	8	1	0.603129	0.603129	0	1	0	0	CorrectCommission	0.479317	0.542464	1
294.462646	0.795784	city	3	1	0.599165	0.599165	0	1	0	0	CorrectCommission	0.514294	0.546664	1
295.258423	0.795783	city	1	1	0.599318	0.599318	0	1	0	0	CorrectCommission	0.512939	0.552912	1
296.054260	0.795852	city	5	1	0.661695	0.661695	0	1	0	0	CorrectCommission	0.037369	0.560490	1
296.850037	0.795736	city	6	1	0.715263	0.715263	0	1	0	0	CorrectCommission	0.509961	0.568662	1
297.645844	0.795829	city	5	1	0.599638	0.599638	0	1	0	0	CorrectCommission	0.510117	0.576714	1
298.441620	0.795758	city	1	1	0.552924	0.552924	0	1	0	0	CorrectCommission	0.922246	0.584045	1
299.237427	0.795842	city	6	1	0.568023	0.568023	0	1	0	0	CorrectCommission	0.789035	0.590237	1
300.033264	0.795843	city	4	1	0.602585	0.602585	0	1	0	0	CorrectCommission	0.484123	0.595083	1
300.829071	0.795791	city	2	1	0.599110	0.599110	0	1	0	0	CorrectCommission	0.514775	0.598721	1
301.624847	0.795748	city	8	1	0.500097	0.500097	0	1	0	0	CorrectCommission	1.388300	0.601561	1
302.420624	0.795814	city	2	1	0.549597	0.549597	0	1	0	0	CorrectCommission	0.951602	0.604220	1
303.216431	0.795791	city	1	1	0.600945	0.600945	0	1	0	0	CorrectCommission	0.498589	0.607475	1
304.012238	0.795811	city	9	1	0.665306	0.665306	0	1	0	0	CorrectCommission	0.069225	0.612171	1
304.808044	0.795801	city	3	1	0.705987	0.705987	0	1	0	0	CorrectCommission	0.428127	0.619025	1
305.604004	0.796133	city	9	1	0.648631	0.648631	0	1	0	0	CorrectCommission	0.077889	0.628555	1
306.399963	0.795801	mountain	6	0	0.000000	0.663796	1	0	0	0	CorrectOmission	0.055908	0.641073	1
307.195618	0.795460	city	1	1	0.648595	0.648595	0	1	0	0	CorrectCommission	0.078203	0.656633	1
307.991241	0.795806	mountain	8	1	0.500138	0.500138	0	0	1	0	CommissionError	1.387940	0.675158	1
308.787201	0.796111	city	8	1	0.866409	0.866409	0	1	0	0	CorrectCommission	1.843425	0.696445	0
309.583008	0.795536	city	9	1	0.807502	0.807502	0	1	0	0	CorrectCommission	1.323726	0.720309	0
310.378693	0.795833	city	4	1	0.711119	0.711119	0	1	0	0	CorrectCommission	0.473408	0.746679	0
311.174652	0.796040	city	3	1	0.652243	0.652243	0	1	0	0	CorrectCommission	0.046017	0.775564	0
311.970428	0.795532	city	1	1	0.614974	0.614974	0	1	0	0	CorrectCommission	0.374820	0.806891	0
312.766083	0.795773	city	10	1	0.549037	0.549037	0	1	0	0	CorrectCommission	0.956535	0.840570	0
313.562042	0.796125	city	1	1	0.610701	0.610701	0	1	0	0	CorrectCommission	0.412516	0.876387	0
314.357819	0.795458	city	6	1	0.499963	0.499963	0	1	0	0	CorrectCommission	1.389485	0.913999	0
315.153473	0.795830	city	4	1	0.649386	0.649386	0	1	0	0	CorrectCommission	0.071227	0.952875	0
315.949432	0.796117	city	1	1	0.563973	0.563973	0	1	0	0	CorrectCommission	0.824772	0.992402	0
316.745239	0.795486	city	10	1	0.458598	0.458598	0	1	0	0	CorrectCommission	1.754420	1.031908	0
317.540863	0.795756	city	9	1	0.449968	0.449968	0	1	0	0	CorrectCommission	1.830558	1.070653	0
318.336639	0.795824	city	2	1	0.549089	0.549089	0	1	0	0	CorrectCommission	0.956077	1.108004	0
319.132507	0.795859	city	10	1	0.452820	0.452820	0	1	0	0	CorrectCommission	1.805397	1.143352	0
319.928284	0.795713	city	1	1	0.549991	0.549991	0	1	0	0	CorrectCommission	0.948124	1.176034	0
320.724030	0.795812	city	2	1	0.552369	0.552369	0	1	0	0	CorrectCommission	0.927138	1.205430	0
321.519867	0.795839	city	3	1	0.549198	0.549198	0	1	0	0	CorrectCommission	0.955117	1.230792	0
322.315674	0.795760	city	9	1	0.617710	0.617710	0	1	0	0	CorrectCommission	0.350678	1.251266	0
323.111481	0.795888	city	3	1	0.518493	0.518493	0	1	0	0	CorrectCommission	1.226010	1.265907	0
323.907318	0.795757	city	6	1	0.506616	0.506616	0	1	0	0	CorrectCommission	1.330793	1.273731	0
324.703064	0.795766	city	8	1	0.461844	0.461844	0	1	0	0	CorrectCommission	1.725782	1.273895	0
325.498901	0.795879	city	1	1	0.350241	0.350241	0	1	0	0	CorrectCommission	2.710387	1.265770	0
326.294861	0.796053	mountain	10	1	0.301802	0.301802	0	0	1	0	CommissionError	3.137729	1.249067	0
327.090637	0.795489	city	5	1	0.649771	0.649771	0	1	0	0	CorrectCommission	0.067825	1.223926	0
327.886292	0.795849	mountain	8	0	0.000000	0.784882	1	0	0	0	CorrectOmission	1.124171	1.191017	0
328.682129	0.795799	city	3	1	0.752770	0.752770	0	1	0	0	CorrectCommission	0.840861	1.151191	0
329.477936	0.795799	city	7	1	0.599067	0.599067	0	1	0	0	CorrectCommission	0.515154	1.105559	0
330.273743	0.795810	mountain	9	0	0.000000	0.551571	1	0	0	0	CorrectOmission	0.934183	1.055338	0
331.069550	0.795799	mountain	1	1	0.653250	0.653250	0	0	1	0	CommissionError	0.037133	1.001756	0
331.865448	0.796049	city	2	1	0.947075	0.947075	0	1	0	0	CorrectCommission	2.555091	0.946040	0
332.661285	0.795582	city	10	1	0.760220	0.760220	0	1	0	0	CorrectCommission	0.906590	0.889364	0
333.457092	0.796027	city	5	1	0.847883	0.847883	0	1	0	0	CorrectCommission	1.679980	0.833008	0
334.252838	0.795477	city	3	1	0.749924	0.749924	0	1	0	0	CorrectCommission	0.815757	0.778166	0
335.048523	0.795900	city	2	1	0.653885	0.653885	0	1	0	0	CorrectCommission	0.031535	0.726053	0
335.844330	0.795712	city	5	1	0.701163	0.701163	0	1	0	0	CorrectCommission	0.385571	0.677834	1
336.640106	0.795854	city	10	1	0.649032	0.649032	0	1	0	0	CorrectCommission	0.074347	0.634436	1
337.435913	0.795742	city	1	1	0.748306	0.748306	0	1	0	0	CorrectCommission	0.801482	0.596625	1
338.231720	0.795860	city	8	1	0.660421	0.660421	0	1	0	0	CorrectCommission	0.026128	0.564784	1
339.027557	0.795830	mountain	5	0	0.000000	0.598415	1	0	0	0	CorrectOmission	0.520909	0.539021	1
339.823486	0.796056	city	1	1	0.598848	0.598848	0	1	0	0	CorrectCommission	0.517092	0.519072	1
340.619293	0.795524	city	5	1	0.698278	0.698278	0	1	0	0	CorrectCommission	0.360117	0.504372	1
341.414948	0.795786	city	10	1	0.559278	0.559278	0	1	0	0	CorrectCommission	0.866190	0.494174	1
342.210724	0.795768	city	8	1	0.718051	0.718051	0	1	0	0	CorrectCommission	0.534563	0.487628	1
343.006531	0.795885	city	7	1	0.698655	0.698655	0	1	0	0	CorrectCommission	0.363445	0.483900	1
343.802368	0.795769	mountain	10	0	0.000000	0.684781	1	0	0	0	CorrectOmission	0.241046	0.482194	1
344.598145	0.795804	city	4	1	0.698511	0.698511	0	1	0	0	CorrectCommission	0.362174	0.481977	1
345.393982	0.795829	city	9	1	0.761926	0.761926	0	1	0	0	CorrectCommission	0.921639	0.482896	1
346.189789	0.795771	city	3	1	0.699163	0.699163	0	1	0	0	CorrectCommission	0.367921	0.484824	1
346.985565	0.795788	city	10	1	0.658317	0.658317	0	1	0	0	CorrectCommission	0.007567	0.487907	1
347.781342	0.795798	city	7	1	0.798642	0.798642	0	1	0	0	CorrectCommission	1.245567	0.492453	1
348.577301	0.796119	city	5	1	0.707563	0.707563	0	1	0	0	CorrectCommission	0.442036	0.498815	1
349.373108	0.795489	city	8	1	0.712849	0.712849	0	1	0	0	CorrectCommission	0.488671	0.507335	1
350.168915	0.796114	mountain	9	0	0.000000	0.680738	1	0	0	0	CorrectOmission	0.205374	0.518258	1
350.964874	0.795792	city	3	1	0.648236	0.648236	0	1	0	0	CorrectCommission	0.081373	0.531610	1
351.760498	0.795487	city	7	1	0.652349	0.652349	0	1	0	0	CorrectCommission	0.045086	0.547135	1
352.556183	0.795849	city	5	1	0.805871	0.805871	0	1	0	0	CorrectCommission	1.309340	0.564334	1
353.352112	0.796050	city	10	1	0.713117	0.713117	0	1	0	0	CorrectCommission	0.491029	0.582364	1
354.147888	0.795471	city	6	1	0.761454	0.761454	0	1	0	0	CorrectCommission	0.917482	0.600258	1
354.943512	0.795803	city	5	1	0.698436	0.698436	0	1	0	0	CorrectCommission	0.361511	0.616883	1
355.739319	0.795794	city	2	1	0.658559	0.658559	0	1	0	0	CorrectCommission	0.009704	0.631173	1
356.535278	0.796141	city	7	1	0.709169	0.709169	0	1	0	0	CorrectCommission	0.456202	0.642156	1
357.331146	0.795561	city	8	1	0.847333	0.847333	0	1	0	0	CorrectCommission	1.675134	0.649089	1
358.126953	0.796052	city	9	1	0.855408	0.855408	0	1	0	0	CorrectCommission	1.746369	0.651557	1
358.922729	0.795526	city	2	1	0.713612	0.713612	0	1	0	0	CorrectCommission	0.495396	0.649541	1
359.718414	0.795812	mountain	3	0	0.000000	0.696171	1	0	0	0	CorrectOmission	0.341524	0.643461	1
360.514313	0.796020	city	10	1	0.698312	0.698312	0	1	0	0	CorrectCommission	0.360413	0.634034	1
361.310242	0.795860	city	1	1	0.615262	0.615262	0	1	0	0	CorrectCommission	0.372279	0.622269	1
362.105927	0.795496	mountain	8	0	0.000000	0.709710	1	0	0	0	CorrectOmission	0.460976	0.609407	1
362.901581	0.795803	city	5	1	0.798525	0.798525	0	1	0	0	CorrectCommission	1.244528	0.596817	1
363.697388	0.795791	city	2	1	0.698574	0.698574	0	1	0	0	CorrectCommission	0.362731	0.585890	1
364.493317	0.796109	city	10	1	0.609294	0.609294	0	1	0	0	CorrectCommission	0.424933	0.578090	1
365.289154	0.795517	city	3	1	0.608840	0.608840	0	1	0	0	CorrectCommission	0.428936	0.574705	1
366.084808	0.795811	city	5	1	0.567316	0.567316	0	1	0	0	CorrectCommission	0.795275	0.576839	1
366.880615	0.795787	city	8	1	0.648865	0.648865	0	1	0	0	CorrectCommission	0.075823	0.585312	1
367.676544	0.796085	city	7	1	0.549564	0.549564	0	1	0	0	CorrectCommission	0.951887	0.600570	1
368.472351	0.795535	city	10	1	0.599031	0.599031	0	1	0	0	CorrectCommission	0.515478	0.622521	1
369.268158	0.796067	city	6	1	0.649512	0.649512	0	1	0	0	CorrectCommission	0.070114	0.650550	1
370.064087	0.795802	city	7	1	0.602808	0.602808	0	1	0	0	CorrectCommission	0.482156	0.683448	1
370.859894	0.795812	city	10	1	0.598933	0.598933	0	1	0	0	CorrectCommission	0.516339	0.719433	0
371.655548	0.795492	city	8	1	0.660125	0.660125	0	1	0	0	CorrectCommission	0.023522	0.756309	0
372.451202	0.795817	city	2	1	0.599088	0.599088	0	1	0	0	CorrectCommission	0.514972	0.791670	0
373.247009	0.795779	city	5	1	0.461580	0.461580	0	1	0	0	CorrectCommission	1.728115	0.823124	0
374.042755	0.795761	city	7	1	0.450444	0.450444	0	1	0	0	CorrectCommission	1.826360	0.848501	0
374.838715	0.796143	city	1	1	0.450542	0.450542	0	1	0	0	CorrectCommission	1.825499	0.866182	0
375.634552	0.795517	city	9	1	0.748199	0.748199	0	1	0	0	CorrectCommission	0.800537	0.875240	0
376.430206	0.795798	city	4	1	0.599095	0.599095	0	1	0	0	CorrectCommission	0.514913	0.875563	0
377.226044	0.795845	city	7	1	0.556510	0.556510	0	1	0	0	CorrectCommission	0.890611	0.867762	0
378.021790	0.795701	city	2	1	0.503408	0.503408	0	1	0	0	CorrectCommission	1.359089	0.853051	0
378.817749	0.796166	city	3	1	0.599238	0.599238	0	1	0	0	CorrectCommission	0.513648	0.833088	0
379.613708	0.795808	city	5	1	0.548803	0.548803	0	1	0	0	CorrectCommission	0.958601	0.809804	0
380.409363	0.795495	city	3	1	0.564395	0.564395	0	1	0	0	CorrectCommission	0.821045	0.785038	0
381.205017	0.795801	city	6	1	0.670346	0.670346	0	1	0	0	CorrectCommission	0.113695	0.760451	0
382.000824	0.795786	city	9	1	0.765145	0.765145	0	1	0	0	CorrectCommission	0.950037	0.737334	0
382.796631	0.795818	city	10	1	0.698599	0.698599	0	1	0	0	CorrectCommission	0.362948	0.716506	0
383.592407	0.795776	city	9	1	0.748742	0.748742	0	1	0	0	CorrectCommission	0.805325	0.698383	0
384.388184	0.795769	city	2	1	0.699076	0.699076	0	1	0	0	CorrectCommission	0.367159	0.683035	1
385.184143	0.796130	city	4	1	0.797794	0.797794	0	1	0	0	CorrectCommission	1.238080	0.670314	1
385.979950	0.795469	city	3	1	0.705189	0.705189	0	1	0	0	CorrectCommission	0.421088	0.660010	1
386.775604	0.795891	city	2	1	0.716649	0.716649	0	1	0	0	CorrectCommission	0.522192	0.652143	1
387.571442	0.795744	city	1	1	0.698330	0.698330	0	1	0	0	CorrectCommission	0.360576	0.647006	1
388.367340	0.796087	city	9	1	0.797964	0.797964	0	1	0	0	CorrectCommission	1.239578	0.645389	1
389.163300	0.795832	city	2	1	0.699577	0.699577	0	1	0	0	CorrectCommission	0.371580	0.648533	1
389.958954	0.795455	city	9	1	0.747771	0.747771	0	1	0	0	CorrectCommission	0.796759	0.658140	1
390.754608	0.795883	city	1	1	0.801770	0.801770	0	1	0	0	CorrectCommission	1.273163	0.676024	1
391.550415	0.795722	city	3	1	0.698666	0.698666	0	1	0	0	CorrectCommission	0.363543	0.703931	0
392.346191	0.795818	city	7	1	0.665639	0.665639	0	1	0	0	CorrectCommission	0.072165	0.743164	0
393.142029	0.795834	city	8	1	0.648855	0.648855	0	1	0	0	CorrectCommission	0.075908	0.794230	0
393.937988	0.796104	city	1	1	0.699262	0.699262	0	1	0	0	CorrectCommission	0.368802	0.856483	0
394.733795	0.795496	city	5	1	0.747744	0.747744	0	1	0	0	CorrectCommission	0.796525	0.927944	0
395.529572	0.796084	mountain	3	0	0.000000	0.748998	1	0	0	0	CorrectOmission	0.807582	1.005261	0
396.325378	0.795538	city	2	1	0.712724	0.712724	0	1	0	0	CorrectCommission	0.487563	1.083961	0
397.121063	0.795822	city	5	1	0.648625	0.648625	0	1	0	0	CorrectCommission	0.077943	1.158804	0
397.916870	0.795776	city	1	1	0.499431	0.499431	0	1	0	0	CorrectCommission	1.394181	1.224362	0
398.712677	0.795812	city	8	1	0.403828	0.403828	0	1	0	0	CorrectCommission	2.237619	1.275552	0
399.508514	0.795880	city	7	1	1.055651	1.055651	0	1	0	0	CorrectCommission	3.512988	1.308381	0
400.304443	0.796009	city	3	1	1.013323	1.013323	0	1	0	0	CorrectCommission	3.139555	1.320459	0
401.100220	0.795546	city	4	1	0.950705	0.950705	0	1	0	0	CorrectCommission	2.587114	1.311363	0
401.895874	0.795723	mountain	9	0	0.000000	0.816750	1	0	0	0	CorrectOmission	1.405315	1.282724	0
402.691620	0.795779	city	6	1	0.665059	0.665059	0	1	0	0	CorrectCommission	0.067046	1.237867	0
403.487427	0.795834	city	2	1	0.549233	0.549233	0	1	0	0	CorrectCommission	0.954807	1.181450	0
404.283234	0.795810	city	1	1	0.549491	0.549491	0	1	0	0	CorrectCommission	0.952537	1.118724	0
405.079041	0.795808	city	4	1	0.549468	0.549468	0	1	0	0	CorrectCommission	0.952733	1.054980	0
405.874847	0.795765	city	9	1	0.611468	0.611468	0	1	0	0	CorrectCommission	0.405753	0.994896	0
406.670624	0.795790	city	1	1	0.549957	0.549957	0	1	0	0	CorrectCommission	0.948420	0.942075	0
407.466400	0.795802	city	9	1	0.649458	0.649458	0	1	0	0	CorrectCommission	0.070589	0.898667	0
408.262268	0.795905	city	5	1	0.565657	0.565657	0	1	0	0	CorrectCommission	0.809911	0.865384	0
409.058105	0.795749	city	7	1	0.698531	0.698531	0	1	0	0	CorrectCommission	0.362346	0.841500	0
409.853882	0.795821	city	3	1	0.599674	0.599674	0	1	0	0	CorrectCommission	0.509805	0.825235	0
410.649689	0.795821	city	1	1	0.599502	0.599502	0	1	0	0	CorrectCommission	0.511321	0.814102	0
411.445496	0.795782	city	2	1	0.550862	0.550862	0	1	0	0	CorrectCommission	0.940438	0.805374	0
412.241272	0.795751	mountain	7	1	0.463558	0.463558	0	0	1	0	CommissionError	1.710666	0.796514	0
413.037048	0.795784	city	6	1	0.947025	0.947025	0	1	0	0	CorrectCommission	2.554650	0.785539	0
413.832855	0.795872	city	3	1	0.707059	0.707059	0	1	0	0	CorrectCommission	0.437583	0.771238	0
414.628693	0.795775	city	6	1	0.698416	0.698416	0	1	0	0	CorrectCommission	0.361337	0.753388	0
415.424469	0.795804	city	5	1	0.653167	0.653167	0	1	0	0	CorrectCommission	0.037872	0.732478	0
416.220306	0.795840	city	1	1	0.619269	0.619269	0	1	0	0	CorrectCommission	0.336928	0.709640	0
417.016113	0.795785	city	9	1	0.898197	0.898197	0	1	0	0	CorrectCommission	2.123869	0.686293	1
417.811890	0.795788	city	8	1	0.698270	0.698270	0	1	0	0	CorrectCommission	0.360048	0.663926	1
418.607697	0.795816	city	6	1	0.660474	0.660474	0	1	0	0	CorrectCommission	0.026594	0.643956	1
419.403503	0.795820	city	3	1	0.659930	0.659930	0	1	0	0	CorrectCommission	0.021802	0.627404	1
420.199280	0.795710	city	7	1	0.660706	0.660706	0	1	0	0	CorrectCommission	0.028646	0.614828	1
420.995026	0.795805	city	5	1	0.801544	0.801544	0	1	0	0	CorrectCommission	1.271170	0.606241	1
421.790833	0.795798	city	7	1	0.750845	0.750845	0	1	0	0	CorrectCommission	0.823884	0.601154	1
422.586670	0.795834	city	2	1	0.698838	0.698838	0	1	0	0	CorrectCommission	0.365057	0.598815	1
423.382629	0.796102	city	6	1	0.748581	0.748581	0	1	0	0	CorrectCommission	0.803904	0.598318	1
424.178589	0.795829	city	4	1	0.698886	0.698886	0	1	0	0	CorrectCommission	0.365478	0.598708	1
424.974274	0.795534	city	1	1	0.698024	0.698024	0	1	0	0	CorrectCommission	0.357878	0.599286	1
425.770081	0.796079	city	5	1	0.556136	0.556136	0	1	0	0	CorrectCommission	0.893905	0.599650	1
426.565857	0.795450	city	9	1	0.556205	0.556205	0	1	0	0	CorrectCommission	0.893298	0.599868	1
427.361481	0.795810	city	10	1	0.555256	0.555256	0	1	0	0	CorrectCommission	0.901673	0.600505	1
428.157318	0.795862	mountain	8	1	0.549211	0.549211	0	0	1	0	CommissionError	0.955001	0.602624	1
428.953278	0.796086	city	8	1	0.651257	0.651257	0	1	0	0	CorrectCommission	0.054721	0.607548	1
429.749084	0.795524	city	5	1	0.649203	0.649203	0	1	0	0	CorrectCommission	0.072837	0.616782	1
430.544708	0.795700	city	2	1	0.598941	0.598941	0	1	0	0	CorrectCommission	0.516271	0.631678	1
431.340485	0.795870	city	4	1	0.798685	0.798685	0	1	0	0	CorrectCommission	1.245944	0.653260	1
432.136322	0.795803	city	2	1	0.648542	0.648542	0	1	0	0	CorrectCommission	0.078674	0.681954	1
432.932281	0.796093	city	6	1	0.748094	0.748094	0	1	0	0	CorrectCommission	0.799611	0.717486	0
433.728088	0.795532	city	4	1	0.652215	0.652215	0	1	0	0	CorrectCommission	0.046265	0.758684	0
434.523743	0.795764	city	1	1	0.600959	0.600959	0	1	0	0	CorrectCommission	0.498466	0.803528	0
435.319519	0.795842	city	6	1	0.605367	0.605367	0	1	0	0	CorrectCommission	0.459574	0.849295	0
436.115509	0.796086	city	5	1	0.713614	0.713614	0	1	0	0	CorrectCommission	0.495412	0.892817	0
436.911438	0.795767	city	8	1	0.564937	0.564937	0	1	0	0	CorrectCommission	0.816264	0.930827	0
437.707214	0.795824	city	2	1	0.418407	0.418407	0	1	0	0	CorrectCommission	2.109001	0.960320	0
438.502869	0.795495	city	5	1	0.366457	0.366457	0	1	0	0	CorrectCommission	2.567322	0.978898	0
439.298553	0.795837	mountain	9	1	0.414788	0.414788	0	0	1	0	CommissionError	2.140930	0.985151	0
440.094330	0.795715	city	6	1	0.517745	0.517745	0	1	0	0	CorrectCommission	1.232604	0.978820	0
440.890076	0.795802	city	10	1	0.648977	0.648977	0	1	0	0	CorrectCommission	0.074837	0.960752	0
441.685883	0.795800	city	3	1	0.598884	0.598884	0	1	0	0	CorrectCommission	0.516771	0.932803	0
442.481689	0.795805	city	10	1	0.601601	0.601601	0	1	0	0	CorrectCommission	0.492803	0.897513	0
443.277527	0.795898	city	6	1	0.913759	0.913759	0	1	0	0	CorrectCommission	2.261162	0.857824	0
444.073517	0.796047	city	10	1	0.699025	0.699025	0	1	0	0	CorrectCommission	0.366709	0.816668	0
444.869263	0.795483	mountain	8	0	0.000000	0.704344	1	0	0	0	CorrectOmission	0.413636	0.776847	0
445.664948	0.795846	city	4	1	0.748095	0.748095	0	1	0	0	CorrectCommission	0.799616	0.740571	0
446.460724	0.795726	city	10	1	0.648655	0.648655	0	1	0	0	CorrectCommission	0.077677	0.709370	0
447.256500	0.795826	city	4	1	0.698722	0.698722	0	1	0	0	CorrectCommission	0.364038	0.684028	1
448.052338	0.795866	city	2	1	0.648851	0.648851	0	1	0	0	CorrectCommission	0.075944	0.664535	1
448.848175	0.795774	city	1	1	0.555901	0.555901	0	1	0	0	CorrectCommission	0.895980	0.650232	1
449.643951	0.795820	city	8	1	0.549449	0.549449	0	1	0	0	CorrectCommission	0.952902	0.639980	1
450.439911	0.796083	city	3	1	0.549420	0.549420	0	1	0	0	CorrectCommission	0.953163	0.632381	1
451.235687	0.795474	city	7	1	0.606203	0.606203	0	1	0	0	CorrectCommission	0.452203	0.625986	1
452.031342	0.795826	city	8	1	0.549389	0.549389	0	1	0	0	CorrectCommission	0.953432	0.619505	1
452.827148	0.795793	mountain	7	0	0.000000	0.628385	1	0	0	0	CorrectOmission	0.256500	0.611882	1
453.622955	0.795810	mountain	4	0	0.000000	0.731859	1	0	0	0	CorrectOmission	0.656379	0.602460	1
454.418762	0.795790	city	7	1	0.748477	0.748477	0	1	0	0	CorrectCommission	0.802990	0.590931	1
455.214569	0.795810	city	9	1	0.566907	0.566907	0	1	0	0	CorrectCommission	0.798881	0.577344	1
456.010498	0.796066	city	5	1	0.606842	0.606842	0	1	0	0	CorrectCommission	0.446562	0.562039	1
456.806305	0.795556	city	9	1	0.598576	0.598576	0	1	0	0	CorrectCommission	0.519489	0.545569	1
457.601990	0.795803	city	2	1	0.549121	0.549121	0	1	0	0	CorrectCommission	0.955794	0.528569	1
458.397766	0.795785	city	4	1	0.614044	0.614044	0	1	0	0	CorrectCommission	0.383027	0.511688	1
459.193542	0.795752	city	9	1	0.667061	0.667061	0	1	0	0	CorrectCommission	0.084710	0.495530	1
459.989502	0.796162	city	5	1	0.648996	0.648996	0	1	0	0	CorrectCommission	0.074665	0.480537	1
460.785339	0.795522	city	3	1	0.608815	0.608815	0	1	0	0	CorrectCommission	0.429161	0.466966	1
461.580994	0.795774	city	10	1	0.567619	0.567619	0	1	0	0	CorrectCommission	0.792600	0.455004	1
462.376740	0.795747	city	6	1	0.698445	0.698445	0	1	0	0	CorrectCommission	0.361594	0.444875	1
463.172516	0.795799	city	7	1	0.616186	0.616186	0	1	0	0	CorrectCommission	0.364125	0.436885	1
463.968353	0.795876	city	5	1	0.599203	0.599203	0	1	0	0	CorrectCommission	0.513953	0.431537	1
464.764160	0.795737	city	9	1	0.600468	0.600468	0	1	0	0	CorrectCommission	0.502794	0.429568	1
465.559967	0.795857	city	2	1	0.561903	0.561903	0	1	0	0	CorrectCommission	0.843027	0.431974	1
466.355804	0.795795	city	5	1	0.648600	0.648600	0	1	0	0	CorrectCommission	0.078160	0.439882	1
467.151733	0.796115	city	1	1	0.603200	0.603200	0	1	0	0	CorrectCommission	0.478693	0.454459	1
467.947571	0.795532	city	8	1	0.698687	0.698687	0	1	0	0	CorrectCommission	0.363729	0.476619	1
468.743195	0.795698	city	4	1	0.659189	0.659189	0	1	0	0	CorrectCommission	0.015262	0.506846	1
469.539093	0.796147	city	2	1	0.648611	0.648611	0	1	0	0	CorrectCommission	0.078063	0.544930	1
470.334900	0.795467	city	8	1	0.710506	0.710506	0	1	0	0	CorrectCommission	0.467996	0.589843	1
471.130585	0.795875	city	6	1	0.611040	0.611040	0	1	0	0	CorrectCommission	0.409527	0.639628	1
471.926422	0.795814	mountain	1	0	0.000000	0.629727	1	0	0	0	CorrectOmission	0.244664	0.691499	1
472.722229	0.795780	city	9	1	0.648856	0.648856	0	1	0	0	CorrectCommission	0.075902	0.742034	0
473.518158	0.796085	city	8	1	0.550716	0.550716	0	1	0	0	CorrectCommission	0.941726	0.787519	0
474.313965	0.795537	city	4	1	0.399626	0.399626	0	1	0	0	CorrectCommission	2.274697	0.824314	0
475.109619	0.795761	city	5	1	0.503897	0.503897	0	1	0	0	CorrectCommission	1.354777	0.849236	0
475.905396	0.795769	city	3	1	0.499500	0.499500	0	1	0	0	CorrectCommission	1.393569	0.860022	0
476.701172	0.795795	city	5	1	0.564123	0.564123	0	1	0	0	CorrectCommission	0.823445	0.855458	0
477.496979	0.795848	mountain	6	1	0.411670	0.411670	0	0	1	0	CommissionError	2.168435	0.835511	0
478.292816	0.795803	city	2	1	0.503211	0.503211	0	1	0	0	CorrectCommission	1.360835	0.801159	0
479.088623	0.795845	city	9	1	0.748930	0.748930	0	1	0	0	CorrectCommission	0.806983	0.754309	0
479.884460	0.795790	city	10	1	0.620466	0.620466	0	1	0	0	CorrectCommission	0.326367	0.697409	0
480.680237	0.795785	city	7	1	0.655489	0.655489	0	1	0	0	CorrectCommission	0.017386	0.633093	1
481.476166	0.796091	city	1	1	0.648867	0.648867	0	1	0	0	CorrectCommission	0.075800	0.563830	1
482.271973	0.795520	city	8	1	0.648591	0.648591	0	1	0	0	CorrectCommission	0.078236	0.491738	1
483.067780	0.796066	city	7	1	0.698967	0.698967	0	1	0	0	CorrectCommission	0.366197	0.418372	1
483.863556	0.795516	mountain	7	0	0.000000	0.625725	1	0	0	0	CorrectOmission	0.279973	0.344758	1
484.659210	0.795774	city	9	1	0.601413	0.601413	0	1	0	0	CorrectCommission	0.494460	0.271411	1
485.455139	0.796101	city	4	1	0.798581	0.798581	0	1	0	0	CorrectCommission	1.245023	0.198503	1
486.250977	0.795521	mountain	7	0	0.000000	0.783998	1	0	0	0	CorrectOmission	1.116367	0.125970	1
487.046631	0.795832	city	10	1	0.663540	0.663540	0	1	0	0	CorrectCommission	0.053642	0.053642	1
