onset	duration	trial_type	image_type	Press	ReactionTime	ReactionTime_Interpolated	CorrectOmission	CorrectCommission	CommissionError	OmissionError	response_type	nonsmoothVarianceTimeCourse	VarianceTimeCourse	In_the_Zone
8.421867	0.795522	city	10	1	0.857462	0.857462	0	1	0	0	CorrectCommission	0.540582	0.540582	1
9.217683	0.796107	city	8	1	0.811867	0.811867	0	1	0	0	CorrectCommission	0.293022	0.620731	1
10.013467	0.795461	city	6	1	0.798516	0.798516	0	1	0	0	CorrectCommission	0.220535	0.703139	1
10.809131	0.795867	city	7	1	0.662116	0.662116	0	1	0	0	CorrectCommission	0.520050	0.789658	0
11.605101	0.796072	city	1	1	0.698364	0.698364	0	1	0	0	CorrectCommission	0.323239	0.881356	0
12.400892	0.795511	city	9	1	0.652480	0.652480	0	1	0	0	CorrectCommission	0.572367	0.978281	0
13.196560	0.795826	city	2	1	0.798639	0.798639	0	1	0	0	CorrectCommission	0.221202	1.079364	0
13.992336	0.795726	city	8	1	0.417848	0.417848	0	1	0	0	CorrectCommission	1.846298	1.182490	0
14.788130	0.795861	city	3	1	0.400672	0.400672	0	1	0	0	CorrectCommission	1.939555	1.284603	0
15.583962	0.795804	city	9	1	0.558770	0.558770	0	1	0	0	CorrectCommission	1.081166	1.382130	0
16.379759	0.795787	city	5	1	0.450437	0.450437	0	1	0	0	CorrectCommission	1.669358	1.471390	0
17.175554	0.795803	city	6	1	0.403062	0.403062	0	1	0	0	CorrectCommission	1.926579	1.548888	0
17.971325	0.795740	city	3	1	0.354360	0.354360	0	1	0	0	CorrectCommission	2.191006	1.611765	0
18.767138	0.795883	city	2	1	0.366993	0.366993	0	1	0	0	CorrectCommission	2.122418	1.658094	0
19.563059	0.795962	city	7	1	0.400447	0.400447	0	1	0	0	CorrectCommission	1.940776	1.687126	0
20.358994	0.795906	city	2	1	0.359695	0.359695	0	1	0	0	CorrectCommission	2.162043	1.699338	0
21.154697	0.795500	city	9	1	0.306633	0.306633	0	1	0	0	CorrectCommission	2.450143	1.696245	0
21.950508	0.796121	city	8	1	0.400209	0.400209	0	1	0	0	CorrectCommission	1.942069	1.680249	0
22.746300	0.795465	city	2	1	0.403309	0.403309	0	1	0	0	CorrectCommission	1.925240	1.654339	0
23.541948	0.795830	city	4	1	0.451029	0.451029	0	1	0	0	CorrectCommission	1.666142	1.621575	0
24.337908	0.796091	city	1	1	0.549500	0.549500	0	1	0	0	CorrectCommission	1.131499	1.584718	0
25.133724	0.795542	city	3	1	0.598829	0.598829	0	1	0	0	CorrectCommission	0.863664	1.545906	0
25.929352	0.795713	city	10	1	0.568871	0.568871	0	1	0	0	CorrectCommission	1.026325	1.506354	0
26.725121	0.795823	city	3	1	0.549553	0.549553	0	1	0	0	CorrectCommission	1.131207	1.466328	0
27.520929	0.795794	city	9	1	0.599323	0.599323	0	1	0	0	CorrectCommission	0.860983	1.425234	0
28.316751	0.795852	city	8	1	0.499827	0.499827	0	1	0	0	CorrectCommission	1.401194	1.381937	0
29.112591	0.795826	city	6	1	0.403572	0.403572	0	1	0	0	CorrectCommission	1.923811	1.335047	0
29.908401	0.795798	city	5	1	0.317978	0.317978	0	1	0	0	CorrectCommission	2.388545	1.283383	0
30.704212	0.795822	city	6	1	0.449993	0.449993	0	1	0	0	CorrectCommission	1.671769	1.226353	0
31.500143	0.796042	city	5	1	0.362090	0.362090	0	1	0	0	CorrectCommission	2.149038	1.164137	0
32.295937	0.795541	mountain	10	1	0.453247	0.453247	0	0	1	0	CommissionError	1.654103	1.097728	0
33.091618	0.795825	city	4	1	0.851910	0.851910	0	1	0	0	CorrectCommission	0.510436	1.028926	0
33.887383	0.795707	city	5	1	0.806785	0.806785	0	1	0	0	CorrectCommission	0.265432	0.960041	0
34.683163	0.795847	city	4	1	0.802496	0.802496	0	1	0	0	CorrectCommission	0.242145	0.893500	0
35.478958	0.795745	city	6	1	0.847612	0.847612	0	1	0	0	CorrectCommission	0.487100	0.831505	0
36.274776	0.795891	city	1	1	0.762182	0.762182	0	1	0	0	CorrectCommission	0.023261	0.775765	0
37.070621	0.795807	city	2	1	0.748867	0.748867	0	1	0	0	CorrectCommission	0.049037	0.727520	1
37.866386	0.795718	city	9	1	1.046785	1.046785	0	1	0	0	CorrectCommission	1.568510	0.687297	1
38.662193	0.795898	city	7	1	0.897398	0.897398	0	1	0	0	CorrectCommission	0.757414	0.655022	1
39.458164	0.796046	city	2	1	0.851334	0.851334	0	1	0	0	CorrectCommission	0.507308	0.630458	1
40.253956	0.795533	city	9	1	0.996779	0.996779	0	1	0	0	CorrectCommission	1.297000	0.613260	1
41.049580	0.795719	city	3	1	0.798094	0.798094	0	1	0	0	CorrectCommission	0.218243	0.603167	1
41.845367	0.795850	city	4	1	0.848164	0.848164	0	1	0	0	CorrectCommission	0.490099	0.600255	1
42.641171	0.795759	city	2	1	0.764548	0.764548	0	1	0	0	CorrectCommission	0.036103	0.604830	1
43.437134	0.796166	city	4	1	0.947051	0.947051	0	1	0	0	CorrectCommission	1.027002	0.617419	1
44.233009	0.795586	city	2	1	0.798728	0.798728	0	1	0	0	CorrectCommission	0.221686	0.638595	1
45.028629	0.795652	mountain	1	0	0.000000	0.649280	1	0	0	0	CorrectOmission	0.589741	0.668863	1
45.824387	0.795869	city	9	1	0.598944	0.598944	0	1	0	0	CorrectCommission	0.863039	0.708269	1
46.620361	0.796074	city	3	1	0.747958	0.747958	0	1	0	0	CorrectCommission	0.053969	0.756314	0
47.416153	0.795515	city	6	1	0.749244	0.749244	0	1	0	0	CorrectCommission	0.046990	0.811819	0
48.211807	0.795789	city	9	1	0.658031	0.658031	0	1	0	0	CorrectCommission	0.542231	0.872854	0
49.007618	0.795833	mountain	3	0	0.000000	0.505329	1	0	0	0	CorrectOmission	1.371321	0.936777	0
49.803398	0.795733	city	10	1	0.499384	0.499384	0	1	0	0	CorrectCommission	1.403602	1.000431	0
50.599186	0.795838	city	7	1	0.848438	0.848438	0	1	0	0	CorrectCommission	0.491584	1.060407	0
51.395035	0.795862	city	1	1	0.748062	0.748062	0	1	0	0	CorrectCommission	0.053408	1.113343	0
52.381657	1.177380	city	3	1	1.527303	1.527303	0	1	0	0	CorrectCommission	4.177476	1.156158	0
53.368252	0.795808	city	9	1	1.149142	1.149142	0	1	0	0	CorrectCommission	2.124255	1.186151	0
54.163876	0.795442	city	5	0	0.000000	0.769371	0	0	0	1	OmissionError	0.062289	1.201589	0
54.959538	0.795883	city	6	1	0.501866	0.501866	0	1	0	0	CorrectCommission	1.390123	1.201595	0
55.755516	0.796076	mountain	6	0	0.000000	0.460507	1	0	0	0	CorrectOmission	1.614683	1.185999	0
56.551319	0.795531	city	2	1	0.499071	0.499071	0	1	0	0	CorrectCommission	1.405300	1.155519	0
57.346966	0.795763	mountain	7	1	0.471337	0.471337	0	0	1	0	CommissionError	1.555881	1.111644	0
58.142902	0.796106	city	6	1	0.960401	0.960401	0	1	0	0	CorrectCommission	1.099488	1.056416	0
58.938709	0.795505	city	7	0	0.000000	0.802356	0	0	0	1	OmissionError	0.241381	0.992394	0
59.734371	0.795818	city	5	1	0.463951	0.463951	0	1	0	0	CorrectCommission	1.595987	0.922467	0
60.530151	0.795749	city	8	1	0.411936	0.411936	0	1	0	0	CorrectCommission	1.878398	0.849684	0
61.325954	0.795856	city	9	1	0.800093	0.800093	0	1	0	0	CorrectCommission	0.229094	0.777114	0
62.121792	0.795814	city	5	1	0.698299	0.698299	0	1	0	0	CorrectCommission	0.323593	0.707822	1
62.917561	0.795726	city	1	1	0.698700	0.698700	0	1	0	0	CorrectCommission	0.321415	0.644581	1
63.713329	0.795813	city	6	1	0.764322	0.764322	0	1	0	0	CorrectCommission	0.034878	0.589754	1
64.509148	0.795826	city	4	1	0.798084	0.798084	0	1	0	0	CorrectCommission	0.218186	0.545236	1
65.304962	0.795801	city	9	1	0.900713	0.900713	0	1	0	0	CorrectCommission	0.775412	0.512312	1
66.100769	0.795813	city	1	1	0.798598	0.798598	0	1	0	0	CorrectCommission	0.220980	0.491601	1
66.896561	0.795768	city	7	1	0.814659	0.814659	0	1	0	0	CorrectCommission	0.308182	0.483015	1
67.692375	0.795865	city	5	1	0.751837	0.751837	0	1	0	0	CorrectCommission	0.032909	0.485813	1
68.488213	0.795812	mountain	1	0	0.000000	0.722864	1	0	0	0	CorrectOmission	0.190217	0.498658	1
69.283997	0.795750	city	10	1	0.698241	0.698241	0	1	0	0	CorrectCommission	0.323907	0.519724	1
70.079796	0.795843	mountain	7	0	0.000000	0.648469	1	0	0	0	CorrectOmission	0.594147	0.546771	1
70.875580	0.795736	city	1	1	0.667147	0.667147	0	1	0	0	CorrectCommission	0.492736	0.577436	1
71.671379	0.795854	city	8	1	0.847876	0.847876	0	1	0	0	CorrectCommission	0.488530	0.609451	1
72.467194	0.795782	city	1	1	0.963515	0.963515	0	1	0	0	CorrectCommission	1.116396	0.640746	1
73.263000	0.795824	mountain	6	0	0.000000	0.948268	1	0	0	0	CorrectOmission	1.033608	0.669618	1
74.058922	0.796021	mountain	7	0	0.000000	0.895095	1	0	0	0	CorrectOmission	0.744909	0.694887	1
74.854706	0.795544	city	2	1	0.896961	0.896961	0	1	0	0	CorrectCommission	0.755038	0.715875	1
75.650391	0.795829	city	10	1	1.046827	1.046827	0	1	0	0	CorrectCommission	1.568736	0.732349	1
76.446335	0.796062	mountain	1	0	0.000000	0.861735	1	0	0	0	CorrectOmission	0.563779	0.744426	1
77.242126	0.795522	city	4	1	0.707415	0.707415	0	1	0	0	CorrectCommission	0.274098	0.752441	1
78.037766	0.795748	city	2	1	0.949599	0.949599	0	1	0	0	CorrectCommission	1.040838	0.756711	0
78.833557	0.795848	city	3	0	0.000000	0.834141	0	0	0	1	OmissionError	0.413956	0.757458	0
79.629364	0.795759	city	10	1	0.702886	0.702886	0	1	0	0	CorrectCommission	0.298687	0.754739	0
80.425140	0.795800	city	6	1	0.897684	0.897684	0	1	0	0	CorrectCommission	0.758966	0.748399	1
81.221115	0.796139	city	8	1	1.000418	1.000418	0	1	0	0	CorrectCommission	1.316758	0.738128	1
82.016945	0.795522	city	3	0	0.000000	0.726009	0	0	0	1	OmissionError	0.173142	0.723635	1
82.812622	0.795840	city	4	1	0.449974	0.449974	0	1	0	0	CorrectCommission	1.671873	0.704810	1
83.608582	0.796076	mountain	8	0	0.000000	0.547828	1	0	0	0	CorrectOmission	1.140574	0.681756	1
84.404503	0.795773	mountain	4	0	0.000000	0.802600	1	0	0	0	CorrectOmission	0.242708	0.655057	1
85.200165	0.795545	city	7	1	0.997318	0.997318	0	1	0	0	CorrectCommission	1.299927	0.625786	1
85.995827	0.795774	city	4	0	0.000000	0.915010	0	0	0	1	OmissionError	0.853036	0.595366	1
86.791595	0.795768	city	7	1	0.762967	0.762967	0	1	0	0	CorrectCommission	0.027523	0.565599	1
87.587410	0.795857	city	8	1	0.748482	0.748482	0	1	0	0	CorrectCommission	0.051125	0.538413	1
88.383369	0.796063	city	6	1	0.798510	0.798510	0	1	0	0	CorrectCommission	0.220501	0.515653	1
89.179176	0.795555	city	5	1	0.847633	0.847633	0	1	0	0	CorrectCommission	0.487214	0.498841	1
89.974838	0.795765	city	9	1	0.699015	0.699015	0	1	0	0	CorrectCommission	0.319706	0.489038	1
90.770638	0.795835	city	10	1	0.797838	0.797838	0	1	0	0	CorrectCommission	0.216854	0.486698	1
91.566406	0.795711	city	8	1	0.847649	0.847649	0	1	0	0	CorrectCommission	0.487298	0.491655	1
92.362198	0.795861	city	6	1	0.849202	0.849202	0	1	0	0	CorrectCommission	0.495731	0.503098	1
93.158180	0.796111	city	5	1	0.698866	0.698866	0	1	0	0	CorrectCommission	0.320518	0.519663	1
93.953987	0.795504	city	4	1	0.847212	0.847212	0	1	0	0	CorrectCommission	0.484930	0.539625	1
94.749657	0.795825	city	9	1	0.748723	0.748723	0	1	0	0	CorrectCommission	0.049816	0.561087	1
95.545601	0.796065	city	10	1	0.652263	0.652263	0	1	0	0	CorrectCommission	0.573545	0.582165	1
96.341385	0.795515	city	9	1	0.847980	0.847980	0	1	0	0	CorrectCommission	0.489097	0.601208	1
97.137047	0.795809	city	8	1	1.097110	1.097110	0	1	0	0	CorrectCommission	1.841744	0.617005	1
97.932846	0.795783	mountain	4	0	0.000000	1.049892	1	0	0	0	CorrectOmission	1.585376	0.628832	1
98.728775	0.796073	city	8	0	0.000000	0.864431	0	0	0	1	OmissionError	0.578417	0.636562	1
99.524590	0.795552	city	3	1	0.698831	0.698831	0	1	0	0	CorrectCommission	0.320706	0.640709	1
100.320221	0.795723	city	7	1	0.711196	0.711196	0	1	0	0	CorrectCommission	0.253569	0.642062	1
101.115982	0.795795	city	2	1	0.798298	0.798298	0	1	0	0	CorrectCommission	0.219352	0.641718	1
101.911812	0.795858	city	10	1	0.901711	0.901711	0	1	0	0	CorrectCommission	0.780830	0.640862	1
102.707619	0.795754	city	9	1	0.859679	0.859679	0	1	0	0	CorrectCommission	0.552616	0.640564	1
103.503441	0.795897	city	8	1	0.957883	0.957883	0	1	0	0	CorrectCommission	1.085817	0.641736	1
104.299286	0.795784	city	9	0	0.000000	0.761698	0	0	0	1	OmissionError	0.020629	0.645075	1
105.095200	0.796052	city	4	1	0.599029	0.599029	0	1	0	0	CorrectCommission	0.862582	0.651087	1
105.890999	0.795541	city	2	1	0.797782	0.797782	0	1	0	0	CorrectCommission	0.216548	0.659994	1
106.686638	0.795744	city	6	1	0.947042	0.947042	0	1	0	0	CorrectCommission	1.026953	0.671887	1
107.482430	0.795833	city	8	1	0.897623	0.897623	0	1	0	0	CorrectCommission	0.758633	0.686657	1
108.278267	0.795847	city	2	1	0.897982	0.897982	0	1	0	0	CorrectCommission	0.760583	0.704167	1
109.074059	0.795741	city	8	0	0.000000	0.671722	0	0	0	1	OmissionError	0.467895	0.724195	1
109.869843	0.795818	city	10	1	0.549015	0.549015	0	1	0	0	CorrectCommission	1.134129	0.746461	1
110.665810	0.796121	city	6	1	0.860035	0.860035	0	1	0	0	CorrectCommission	0.554552	0.770599	0
111.461617	0.795488	city	7	1	0.648257	0.648257	0	1	0	0	CorrectCommission	0.595294	0.796178	0
112.257263	0.795807	city	9	1	0.698288	0.698288	0	1	0	0	CorrectCommission	0.323655	0.822640	0
113.053215	0.796092	city	2	1	0.665344	0.665344	0	1	0	0	CorrectCommission	0.502522	0.849304	0
113.849014	0.795511	city	9	1	0.897244	0.897244	0	1	0	0	CorrectCommission	0.756578	0.875400	0
114.644829	0.796111	city	2	1	1.204227	1.204227	0	1	0	0	CorrectCommission	2.423340	0.900108	0
115.440643	0.795520	city	9	0	0.000000	0.853274	0	0	0	1	OmissionError	0.517844	0.922581	0
116.236290	0.795783	city	7	1	0.449874	0.449874	0	1	0	0	CorrectCommission	1.672417	0.942163	0
117.032104	0.795835	city	9	1	0.599513	0.599513	0	1	0	0	CorrectCommission	0.859950	0.958235	0
117.827911	0.795781	city	4	1	0.649222	0.649222	0	1	0	0	CorrectCommission	0.590059	0.970398	0
118.623688	0.795781	city	8	1	0.755780	0.755780	0	1	0	0	CorrectCommission	0.011504	0.978433	0
119.419487	0.795815	city	2	1	0.946901	0.946901	0	1	0	0	CorrectCommission	1.026186	0.982312	0
120.215332	0.795879	city	8	1	1.046742	1.046742	0	1	0	0	CorrectCommission	1.568273	0.982172	0
121.011108	0.795665	mountain	8	0	0.000000	1.095868	1	0	0	0	CorrectOmission	1.835005	0.978364	0
121.806870	0.795857	city	5	1	1.046520	1.046520	0	1	0	0	CorrectCommission	1.567069	0.971455	0
122.602692	0.795785	city	8	1	0.850937	0.850937	0	1	0	0	CorrectCommission	0.505152	0.962147	0
123.398453	0.795744	city	4	1	0.897299	0.897299	0	1	0	0	CorrectCommission	0.756877	0.951296	0
124.194244	0.795836	city	8	1	0.897610	0.897610	0	1	0	0	CorrectCommission	0.758564	0.939654	0
124.990074	0.795829	city	2	1	0.857441	0.857441	0	1	0	0	CorrectCommission	0.540468	0.927864	0
125.786041	0.796105	city	4	1	0.947716	0.947716	0	1	0	0	CorrectCommission	1.030615	0.916365	0
126.581841	0.795484	city	9	1	0.947162	0.947162	0	1	0	0	CorrectCommission	1.027603	0.905358	0
127.377495	0.795828	city	4	1	0.901750	0.901750	0	1	0	0	CorrectCommission	0.781043	0.894817	0
128.173325	0.795826	city	9	1	0.848605	0.848605	0	1	0	0	CorrectCommission	0.492492	0.884569	0
128.969254	0.796051	city	1	1	0.865089	0.865089	0	1	0	0	CorrectCommission	0.581988	0.874325	0
129.765045	0.795522	city	4	1	1.047043	1.047043	0	1	0	0	CorrectCommission	1.569907	0.863804	0
130.560715	0.795804	city	1	1	1.053150	1.053150	0	1	0	0	CorrectCommission	1.603065	0.852754	0
131.356476	0.795732	city	6	0	0.000000	0.826636	0	0	0	1	OmissionError	0.373210	0.841059	0
132.152252	0.795825	city	4	1	0.598873	0.598873	0	1	0	0	CorrectCommission	0.863426	0.828717	0
132.948059	0.795785	city	1	1	0.601233	0.601233	0	1	0	0	CorrectCommission	0.850612	0.815819	0
133.743881	0.795850	city	10	1	0.549291	0.549291	0	1	0	0	CorrectCommission	1.132630	0.802428	0
134.539841	0.796085	city	3	1	0.617314	0.617314	0	1	0	0	CorrectCommission	0.763302	0.788556	0
135.335632	0.795484	city	9	1	0.797871	0.797871	0	1	0	0	CorrectCommission	0.217029	0.774070	0
136.131287	0.795828	city	10	1	0.808238	0.808238	0	1	0	0	CorrectCommission	0.273319	0.758685	0
136.927078	0.795766	city	2	1	0.763413	0.763413	0	1	0	0	CorrectCommission	0.029940	0.741907	1
137.722885	0.795826	city	9	1	0.860278	0.860278	0	1	0	0	CorrectCommission	0.555868	0.723169	1
138.518692	0.795788	city	7	1	1.145977	1.145977	0	1	0	0	CorrectCommission	2.107067	0.701937	1
139.314499	0.795840	city	2	0	0.000000	1.112695	0	0	0	1	OmissionError	1.926366	0.677780	1
140.110336	0.795818	mountain	5	0	0.000000	0.925337	1	0	0	0	CorrectOmission	0.909108	0.650652	1
140.906128	0.795794	city	10	1	0.748806	0.748806	0	1	0	0	CorrectCommission	0.049368	0.620836	1
141.701920	0.795788	city	2	1	0.748004	0.748004	0	1	0	0	CorrectCommission	0.053721	0.588958	1
142.497879	0.796104	mountain	9	0	0.000000	0.685703	1	0	0	0	CorrectOmission	0.391986	0.555880	1
143.293671	0.795506	city	5	1	0.661552	0.661552	0	1	0	0	CorrectCommission	0.523111	0.522599	1
144.089493	0.796110	mountain	7	0	0.000000	0.775203	1	0	0	0	CorrectOmission	0.093956	0.490157	1
144.885284	0.795499	city	9	1	0.897194	0.897194	0	1	0	0	CorrectCommission	0.756305	0.459555	1
145.680939	0.795790	city	8	1	0.898064	0.898064	0	1	0	0	CorrectCommission	0.761028	0.431610	1
146.476730	0.795792	city	5	1	0.748140	0.748140	0	1	0	0	CorrectCommission	0.052982	0.406941	1
147.272507	0.795755	city	3	1	0.797882	0.797882	0	1	0	0	CorrectCommission	0.217090	0.385939	1
148.068451	0.796137	city	7	1	0.866428	0.866428	0	1	0	0	CorrectCommission	0.589259	0.368737	1
148.864288	0.795536	city	9	1	0.766805	0.766805	0	1	0	0	CorrectCommission	0.048360	0.355289	1
149.660095	0.796090	city	3	1	0.848382	0.848382	0	1	0	0	CorrectCommission	0.491281	0.345439	1
150.456024	0.795767	city	5	1	0.767158	0.767158	0	1	0	0	CorrectCommission	0.050277	0.338902	1
151.251831	0.795848	city	7	1	0.797928	0.797928	0	1	0	0	CorrectCommission	0.217340	0.335429	1
152.047516	0.795524	city	2	1	0.797491	0.797491	0	1	0	0	CorrectCommission	0.214967	0.334808	1
152.843307	0.796063	city	7	1	0.804927	0.804927	0	1	0	0	CorrectCommission	0.255340	0.336992	1
153.639252	0.795820	city	9	1	0.947041	0.947041	0	1	0	0	CorrectCommission	1.026946	0.342157	1
154.434906	0.795480	city	6	1	0.754433	0.754433	0	1	0	0	CorrectCommission	0.018814	0.350711	1
155.230698	0.796118	city	1	1	0.648853	0.648853	0	1	0	0	CorrectCommission	0.592063	0.363406	1
156.026520	0.795534	city	7	1	0.754415	0.754415	0	1	0	0	CorrectCommission	0.018913	0.381136	1
156.822159	0.795717	city	2	1	0.857169	0.857169	0	1	0	0	CorrectCommission	0.538987	0.405006	1
157.618073	0.796123	city	7	1	0.803467	0.803467	0	1	0	0	CorrectCommission	0.247416	0.436139	1
158.413895	0.795529	city	9	1	0.747844	0.747844	0	1	0	0	CorrectCommission	0.054588	0.475575	1
159.209564	0.795795	city	7	1	0.756901	0.756901	0	1	0	0	CorrectCommission	0.005413	0.524018	1
160.005508	0.796118	mountain	1	0	0.000000	0.875898	1	0	0	0	CorrectOmission	0.640681	0.581724	1
160.801468	0.795796	city	3	1	0.955960	0.955960	0	1	0	0	CorrectCommission	1.075374	0.648294	1
161.597122	0.795499	city	5	1	0.848211	0.848211	0	1	0	0	CorrectCommission	0.490349	0.722664	1
162.392914	0.796103	city	4	1	0.716523	0.716523	0	1	0	0	CorrectCommission	0.224647	0.802989	0
163.188705	0.795454	city	9	1	0.712014	0.712014	0	1	0	0	CorrectCommission	0.249130	0.886741	0
163.984360	0.795858	city	6	1	0.698748	0.698748	0	1	0	0	CorrectCommission	0.321156	0.970812	0
164.780182	0.795803	city	7	1	0.503937	0.503937	0	1	0	0	CorrectCommission	1.378881	1.051759	0
165.576126	0.796079	city	3	1	0.451559	0.451559	0	1	0	0	CorrectCommission	1.663266	1.126038	0
166.371948	0.795555	city	9	1	0.314790	0.314790	0	1	0	0	CorrectCommission	2.405855	1.190449	0
167.167618	0.795793	city	5	1	0.402981	0.402981	0	1	0	0	CorrectCommission	1.927019	1.242349	0
167.963547	0.796050	city	6	1	0.500222	0.500222	0	1	0	0	CorrectCommission	1.399049	1.279997	0
168.759338	0.795554	city	2	1	0.449627	0.449627	0	1	0	0	CorrectCommission	1.673757	1.302679	0
169.555023	0.795807	city	3	1	0.999507	0.999507	0	1	0	0	CorrectCommission	1.311813	1.310715	0
170.350800	0.795739	city	9	1	1.004556	1.004556	0	1	0	0	CorrectCommission	1.339225	1.305477	0
171.146591	0.795856	city	4	1	0.996831	0.996831	0	1	0	0	CorrectCommission	1.297283	1.289115	0
171.942413	0.795793	city	7	1	1.046755	1.046755	0	1	0	0	CorrectCommission	1.568346	1.264371	0
172.738174	0.795710	city	5	1	1.096577	1.096577	0	1	0	0	CorrectCommission	1.838855	1.234207	0
173.533966	0.795881	city	6	1	1.047454	1.047454	0	1	0	0	CorrectCommission	1.572142	1.201601	0
174.329803	0.795798	mountain	6	0	0.000000	0.786777	1	0	0	0	CorrectOmission	0.156795	1.169223	0
175.125748	0.796077	city	10	1	0.618657	0.618657	0	1	0	0	CorrectCommission	0.756012	1.139251	0
175.921509	0.795457	city	3	1	0.847207	0.847207	0	1	0	0	CorrectCommission	0.484899	1.113090	0
176.717133	0.795798	city	7	1	0.997605	0.997605	0	1	0	0	CorrectCommission	1.301487	1.091453	0
177.512939	0.795801	city	8	0	0.000000	0.774626	0	0	0	1	OmissionError	0.090824	1.074285	0
178.308746	0.795820	city	1	1	0.502856	0.502856	0	1	0	0	CorrectCommission	1.384751	1.061059	0
179.104553	0.795792	city	3	1	0.506880	0.506880	0	1	0	0	CorrectCommission	1.362901	1.050831	0
179.900345	0.795792	city	9	1	0.450419	0.450419	0	1	0	0	CorrectCommission	1.669457	1.042541	0
180.696167	0.795860	city	7	1	0.501327	0.501327	0	1	0	0	CorrectCommission	1.393050	1.035189	0
181.492004	0.795797	city	10	1	0.466313	0.466313	0	1	0	0	CorrectCommission	1.583160	1.028024	0
182.287796	0.795800	city	6	1	0.599785	0.599785	0	1	0	0	CorrectCommission	0.858472	1.020548	0
183.083572	0.795764	city	2	1	0.748861	0.748861	0	1	0	0	CorrectCommission	0.049068	1.012623	0
183.879532	0.796131	city	10	1	0.698434	0.698434	0	1	0	0	CorrectCommission	0.322860	1.004417	0
184.675354	0.795525	city	5	1	0.847128	0.847128	0	1	0	0	CorrectCommission	0.484473	0.996312	0
185.470978	0.795736	city	6	1	1.102737	1.102737	0	1	0	0	CorrectCommission	1.872296	0.988872	0
186.266754	0.795811	city	5	1	1.146055	1.146055	0	1	0	0	CorrectCommission	2.107492	0.982678	0
187.062592	0.795847	city	4	0	0.000000	0.979681	0	0	0	1	OmissionError	1.204165	0.978318	0
187.858414	0.795802	city	10	1	0.748880	0.748880	0	1	0	0	CorrectCommission	0.048966	0.976243	0
188.654190	0.795764	city	7	1	0.598919	0.598919	0	1	0	0	CorrectCommission	0.863179	0.976624	0
189.449997	0.795841	city	3	1	0.549376	0.549376	0	1	0	0	CorrectCommission	1.132173	0.979127	0
190.245956	0.796076	city	6	1	0.947037	0.947037	0	1	0	0	CorrectCommission	1.026924	0.982930	0
191.041763	0.795526	city	1	1	0.699700	0.699700	0	1	0	0	CorrectCommission	0.315987	0.986704	0
191.837402	0.795780	city	6	1	0.847938	0.847938	0	1	0	0	CorrectCommission	0.488871	0.988704	0
192.633224	0.795848	city	8	1	0.798649	0.798649	0	1	0	0	CorrectCommission	0.221258	0.986850	0
193.429062	0.795821	mountain	8	0	0.000000	1.013031	1	0	0	0	CorrectOmission	1.385242	0.979057	0
194.224854	0.795770	city	9	1	1.195623	1.195623	0	1	0	0	CorrectCommission	2.376622	0.963419	0
195.020599	0.795734	city	10	1	1.050964	1.050964	0	1	0	0	CorrectCommission	1.591196	0.938620	0
195.816406	0.795874	city	2	1	1.053288	1.053288	0	1	0	0	CorrectCommission	1.603817	0.904155	0
196.612213	0.795742	city	8	1	1.046474	1.046474	0	1	0	0	CorrectCommission	1.566819	0.860388	0
197.408005	0.795838	city	1	1	0.898036	0.898036	0	1	0	0	CorrectCommission	0.760879	0.808539	0
198.203842	0.795845	city	9	1	0.717129	0.717129	0	1	0	0	CorrectCommission	0.221356	0.750610	1
198.999649	0.795769	city	6	1	0.659726	0.659726	0	1	0	0	CorrectCommission	0.533028	0.689087	1
199.795441	0.795802	city	7	1	0.712855	0.712855	0	1	0	0	CorrectCommission	0.244563	0.626669	1
200.591263	0.795845	city	1	1	0.748904	0.748904	0	1	0	0	CorrectCommission	0.048835	0.566043	1
201.387207	0.796048	city	9	1	0.797679	0.797679	0	1	0	0	CorrectCommission	0.215989	0.509639	1
202.182983	0.795504	city	7	1	0.662056	0.662056	0	1	0	0	CorrectCommission	0.520374	0.459483	1
202.978622	0.795757	city	2	1	0.664006	0.664006	0	1	0	0	CorrectCommission	0.509785	0.417130	1
203.774399	0.795791	mountain	10	1	0.648704	0.648704	0	0	1	0	CommissionError	0.592871	0.383748	1
204.570206	0.795848	city	4	1	0.748181	0.748181	0	1	0	0	CorrectCommission	0.052761	0.360182	1
205.366043	0.795825	city	7	1	0.748526	0.748526	0	1	0	0	CorrectCommission	0.050887	0.347034	1
206.161880	0.795823	city	10	1	0.649439	0.649439	0	1	0	0	CorrectCommission	0.588879	0.344641	1
206.957825	0.796082	city	8	1	0.748427	0.748427	0	1	0	0	CorrectCommission	0.051426	0.353094	1
207.753616	0.795489	city	10	1	0.716840	0.716840	0	1	0	0	CorrectCommission	0.222927	0.372239	1
208.549240	0.795779	city	1	1	0.750387	0.750387	0	1	0	0	CorrectCommission	0.040785	0.401563	1
209.345062	0.795841	city	3	1	0.764116	0.764116	0	1	0	0	CorrectCommission	0.033757	0.440111	1
210.140854	0.795752	city	7	1	0.748587	0.748587	0	1	0	0	CorrectCommission	0.050555	0.486411	1
210.936661	0.795854	city	3	1	0.658562	0.658562	0	1	0	0	CorrectCommission	0.539347	0.538409	1
211.732468	0.795769	city	7	1	0.599106	0.599106	0	1	0	0	CorrectCommission	0.862160	0.593494	1
212.528229	0.795759	city	6	1	0.699059	0.699059	0	1	0	0	CorrectCommission	0.319467	0.648667	1
213.324036	0.795838	city	5	1	0.648836	0.648836	0	1	0	0	CorrectCommission	0.592150	0.700744	1
214.119873	0.795855	city	8	1	0.599162	0.599162	0	1	0	0	CorrectCommission	0.861859	0.746508	1
214.915695	0.795788	city	4	1	0.499666	0.499666	0	1	0	0	CorrectCommission	1.402069	0.783045	0
215.711487	0.795793	city	3	1	0.499768	0.499768	0	1	0	0	CorrectCommission	1.401514	0.807999	0
216.507431	0.796088	city	2	1	0.450638	0.450638	0	1	0	0	CorrectCommission	1.668269	0.819773	0
217.303223	0.795499	city	1	1	0.548867	0.548867	0	1	0	0	CorrectCommission	1.134932	0.817661	0
218.099014	0.796091	city	7	1	0.656430	0.656430	0	1	0	0	CorrectCommission	0.550919	0.801958	0
218.894836	0.795544	city	1	1	0.598571	0.598571	0	1	0	0	CorrectCommission	0.865068	0.773881	0
219.690506	0.795798	city	3	1	0.500405	0.500405	0	1	0	0	CorrectCommission	1.398058	0.735406	1
220.486298	0.795801	city	7	1	0.651673	0.651673	0	1	0	0	CorrectCommission	0.576750	0.689111	1
221.282074	0.795754	city	6	1	0.651662	0.651662	0	1	0	0	CorrectCommission	0.576808	0.637978	1
222.077866	0.795828	city	7	1	0.655042	0.655042	0	1	0	0	CorrectCommission	0.558456	0.585115	1
222.873688	0.795812	city	8	1	0.718235	0.718235	0	1	0	0	CorrectCommission	0.215354	0.533543	1
223.669510	0.795815	city	5	1	0.797796	0.797796	0	1	0	0	CorrectCommission	0.216623	0.486001	1
224.465317	0.795800	city	7	1	0.847473	0.847473	0	1	0	0	CorrectCommission	0.486346	0.444769	1
225.261093	0.795768	city	4	1	0.800332	0.800332	0	1	0	0	CorrectCommission	0.230395	0.411570	1
226.056900	0.795828	city	6	1	0.764250	0.764250	0	1	0	0	CorrectCommission	0.034488	0.387513	1
226.852707	0.795803	mountain	4	0	0.000000	0.766901	1	0	0	0	CorrectOmission	0.048880	0.373073	1
227.648514	0.795814	city	10	1	0.748519	0.748519	0	1	0	0	CorrectCommission	0.050925	0.368129	1
228.444321	0.795797	city	2	1	0.649339	0.649339	0	1	0	0	CorrectCommission	0.589419	0.372046	1
229.240128	0.795802	city	8	1	0.797851	0.797851	0	1	0	0	CorrectCommission	0.216921	0.383752	1
230.036057	0.796063	city	6	1	0.798424	0.798424	0	1	0	0	CorrectCommission	0.220031	0.401949	1
230.831848	0.795512	city	3	1	0.652433	0.652433	0	1	0	0	CorrectCommission	0.572625	0.425198	1
231.627533	0.795853	city	8	1	0.698261	0.698261	0	1	0	0	CorrectCommission	0.323800	0.452028	1
232.423477	0.796039	city	9	1	0.757524	0.757524	0	1	0	0	CorrectCommission	0.002035	0.481059	1
233.219269	0.795558	city	2	1	0.648714	0.648714	0	1	0	0	CorrectCommission	0.592813	0.511085	1
234.014938	0.795785	city	5	1	0.558345	0.558345	0	1	0	0	CorrectCommission	1.083475	0.541068	1
234.810730	0.795802	city	10	1	0.549148	0.549148	0	1	0	0	CorrectCommission	1.133405	0.570175	1
235.606537	0.795812	city	5	1	0.564115	0.564115	0	1	0	0	CorrectCommission	1.052145	0.597776	1
236.402359	0.795814	city	7	1	0.698306	0.698306	0	1	0	0	CorrectCommission	0.323558	0.623342	1
237.198151	0.795764	city	8	1	0.751691	0.751691	0	1	0	0	CorrectCommission	0.033701	0.646390	1
237.993896	0.795731	city	2	1	0.748740	0.748740	0	1	0	0	CorrectCommission	0.049723	0.666451	1
238.789795	0.796063	city	6	1	0.897416	0.897416	0	1	0	0	CorrectCommission	0.757510	0.683053	1
239.585632	0.795611	city	9	1	0.660116	0.660116	0	1	0	0	CorrectCommission	0.530911	0.695788	1
240.381348	0.795831	city	1	1	0.512374	0.512374	0	1	0	0	CorrectCommission	1.333070	0.704453	1
241.177155	0.795787	city	5	1	0.521019	0.521019	0	1	0	0	CorrectCommission	1.286133	0.709146	1
241.972961	0.795821	city	7	1	0.552842	0.552842	0	1	0	0	CorrectCommission	1.113350	0.710409	1
242.768723	0.795707	mountain	4	0	0.000000	0.566108	1	0	0	0	CorrectOmission	1.041325	0.709283	1
243.564651	0.796147	city	3	1	0.603211	0.603211	0	1	0	0	CorrectCommission	0.839873	0.707232	1
244.360626	0.795786	mountain	6	0	0.000000	0.706548	1	0	0	0	CorrectOmission	0.278807	0.706035	1
245.156265	0.795511	city	8	1	0.747846	0.747846	0	1	0	0	CorrectCommission	0.054580	0.707504	1
245.951950	0.795844	city	3	1	0.598833	0.598833	0	1	0	0	CorrectCommission	0.863641	0.713185	1
246.747742	0.795739	city	7	1	0.601995	0.601995	0	1	0	0	CorrectCommission	0.846477	0.724058	1
247.543518	0.795821	city	8	1	0.702143	0.702143	0	1	0	0	CorrectCommission	0.302724	0.740373	1
248.339355	0.795857	mountain	7	0	0.000000	0.715484	1	0	0	0	CorrectOmission	0.230287	0.761463	0
249.135162	0.795758	city	10	1	0.698612	0.698612	0	1	0	0	CorrectCommission	0.321896	0.785738	0
249.930939	0.795784	mountain	6	1	0.708118	0.708118	0	0	1	0	CommissionError	0.270281	0.810814	0
250.726730	0.795817	city	5	1	0.911775	0.911775	0	1	0	0	CorrectCommission	0.835472	0.833879	0
251.522537	0.795794	city	10	1	0.996860	0.996860	0	1	0	0	CorrectCommission	1.297440	0.852027	0
252.318329	0.795783	city	2	1	1.047168	1.047168	0	1	0	0	CorrectCommission	1.570587	0.862718	0
253.114151	0.795850	city	8	1	1.100158	1.100158	0	1	0	0	CorrectCommission	1.858297	0.864212	0
253.910110	0.796062	city	2	1	1.052238	1.052238	0	1	0	0	CorrectCommission	1.598114	0.855865	0
254.705902	0.795532	city	7	1	1.097514	1.097514	0	1	0	0	CorrectCommission	1.843942	0.838279	0
255.501709	0.796079	mountain	5	0	0.000000	0.864149	1	0	0	0	CorrectOmission	0.576887	0.813147	0
256.297485	0.795509	city	2	1	0.648996	0.648996	0	1	0	0	CorrectCommission	0.591282	0.783073	0
257.093170	0.795834	city	10	1	0.748912	0.748912	0	1	0	0	CorrectCommission	0.048793	0.751125	1
257.888977	0.795760	city	5	1	0.798620	0.798620	0	1	0	0	CorrectCommission	0.221097	0.720380	1
258.684753	0.795826	city	9	1	0.748526	0.748526	0	1	0	0	CorrectCommission	0.050889	0.693465	1
259.480713	0.796085	city	4	1	0.947434	0.947434	0	1	0	0	CorrectCommission	1.029085	0.672291	1
260.276520	0.795492	city	1	1	0.797497	0.797497	0	1	0	0	CorrectCommission	0.215000	0.657828	1
261.072174	0.795842	city	5	1	0.747980	0.747980	0	1	0	0	CorrectCommission	0.053849	0.650171	1
261.868134	0.796085	city	7	1	0.798586	0.798586	0	1	0	0	CorrectCommission	0.220913	0.648612	1
262.663910	0.795462	city	10	1	0.958887	0.958887	0	1	0	0	CorrectCommission	1.091267	0.651952	1
263.459717	0.796139	city	5	1	0.965394	0.965394	0	1	0	0	CorrectCommission	1.126595	0.658793	1
264.255493	0.795444	city	1	1	0.996474	0.996474	0	1	0	0	CorrectCommission	1.295347	0.667902	1
265.051117	0.795798	city	9	0	0.000000	0.758093	0	0	0	1	OmissionError	0.001056	0.678434	1
265.846954	0.795884	city	2	1	0.499872	0.499872	0	1	0	0	CorrectCommission	1.400949	0.690091	1
266.642822	0.795809	city	7	1	0.471437	0.471437	0	1	0	0	CorrectCommission	1.555337	0.702963	1
267.438599	0.795789	city	3	1	0.698990	0.698990	0	1	0	0	CorrectCommission	0.319844	0.717554	1
268.234406	0.795793	mountain	4	0	0.000000	0.783329	1	0	0	0	CorrectOmission	0.138075	0.734528	1
269.030182	0.795774	city	9	1	0.756028	0.756028	0	1	0	0	CorrectCommission	0.010157	0.754372	0
269.825958	0.795751	city	5	1	0.648659	0.648659	0	1	0	0	CorrectCommission	0.593115	0.777170	0
270.621735	0.795808	city	2	1	0.751978	0.751978	0	1	0	0	CorrectCommission	0.032144	0.802421	0
271.417542	0.795802	city	10	1	0.847714	0.847714	0	1	0	0	CorrectCommission	0.487652	0.829087	0
272.213379	0.795871	city	3	1	1.055929	1.055929	0	1	0	0	CorrectCommission	1.618152	0.855540	0
273.009338	0.796078	city	6	1	1.053365	1.053365	0	1	0	0	CorrectCommission	1.604233	0.879783	0
273.805145	0.795515	city	10	1	0.946999	0.946999	0	1	0	0	CorrectCommission	1.026723	0.899745	0
274.600800	0.795803	city	3	1	0.955188	0.955188	0	1	0	0	CorrectCommission	1.071182	0.913499	0
275.396606	0.795811	city	5	1	1.096981	1.096981	0	1	0	0	CorrectCommission	1.841044	0.919505	0
276.192413	0.795831	mountain	3	0	0.000000	0.957118	1	0	0	0	CorrectOmission	1.081659	0.916717	0
276.988190	0.795714	mountain	4	0	0.000000	0.752098	1	0	0	0	CorrectOmission	0.031495	0.904799	0
277.783997	0.795880	city	5	1	0.698420	0.698420	0	1	0	0	CorrectCommission	0.322936	0.884117	0
278.579834	0.795801	city	10	1	1.012584	1.012584	0	1	0	0	CorrectCommission	1.382814	0.855704	0
279.375580	0.795714	city	7	1	1.061522	1.061522	0	1	0	0	CorrectCommission	1.648520	0.821144	0
280.171387	0.795893	city	3	1	1.046740	1.046740	0	1	0	0	CorrectCommission	1.568262	0.782509	0
280.967255	0.795798	city	8	1	0.911593	0.911593	0	1	0	0	CorrectCommission	0.834485	0.742165	1
281.763031	0.795803	mountain	5	0	0.000000	0.766076	1	0	0	0	CorrectOmission	0.044403	0.702543	1
282.558807	0.795755	city	8	1	0.698731	0.698731	0	1	0	0	CorrectCommission	0.321247	0.665949	1
283.354614	0.795841	city	6	1	0.798100	0.798100	0	1	0	0	CorrectCommission	0.218276	0.634208	1
284.150421	0.795748	city	2	1	0.650189	0.650189	0	1	0	0	CorrectCommission	0.584805	0.608533	1
284.946198	0.795825	city	10	1	0.748154	0.748154	0	1	0	0	CorrectCommission	0.052909	0.589407	1
285.742035	0.795841	city	7	1	0.748450	0.748450	0	1	0	0	CorrectCommission	0.051297	0.576559	1
286.537842	0.795780	city	4	1	0.897168	0.897168	0	1	0	0	CorrectCommission	0.756161	0.569012	1
287.333618	0.795779	mountain	3	0	0.000000	0.905401	1	0	0	0	CorrectOmission	0.800865	0.565168	1
288.129425	0.795796	city	3	1	0.797773	0.797773	0	1	0	0	CorrectCommission	0.216499	0.563123	1
288.925232	0.795849	mountain	4	1	0.598905	0.598905	0	0	1	0	CommissionError	0.863251	0.560924	1
289.721008	0.795709	city	2	1	0.799081	0.799081	0	1	0	0	CorrectCommission	0.223602	0.556741	1
290.516937	0.796142	city	10	1	1.097101	1.097101	0	1	0	0	CorrectCommission	1.841697	0.549215	1
291.312744	0.795473	city	1	0	0.000000	0.841847	0	0	0	1	OmissionError	0.455801	0.537504	1
292.108398	0.795844	city	3	1	0.553175	0.553175	0	1	0	0	CorrectCommission	1.111543	0.521572	1
292.904388	0.796112	city	7	1	0.750937	0.750937	0	1	0	0	CorrectCommission	0.037796	0.501925	1
293.700348	0.795790	city	3	1	0.602623	0.602623	0	1	0	0	CorrectCommission	0.843067	0.479691	1
294.495941	0.795441	city	6	1	0.748614	0.748614	0	1	0	0	CorrectCommission	0.050409	0.456385	1
295.291595	0.795864	mountain	5	0	0.000000	0.805611	1	0	0	0	CorrectOmission	0.259054	0.433762	1
296.087402	0.795753	mountain	1	0	0.000000	0.797808	1	0	0	0	CorrectOmission	0.216687	0.413507	1
296.883240	0.795885	city	10	1	0.749399	0.749399	0	1	0	0	CorrectCommission	0.046147	0.397158	1
297.679199	0.796063	mountain	5	0	0.000000	0.684580	1	0	0	0	CorrectOmission	0.398084	0.385961	1
298.475128	0.795770	city	2	1	0.652535	0.652535	0	1	0	0	CorrectCommission	0.572069	0.380763	1
299.270782	0.795568	city	4	1	0.702451	0.702451	0	1	0	0	CorrectCommission	0.301052	0.382043	1
300.066437	0.795713	city	9	1	0.754629	0.754629	0	1	0	0	CorrectCommission	0.017750	0.389865	1
300.862183	0.795801	city	3	1	0.751491	0.751491	0	1	0	0	CorrectCommission	0.034789	0.403907	1
301.658051	0.795897	city	2	1	0.606213	0.606213	0	1	0	0	CorrectCommission	0.823571	0.423507	1
302.454010	0.796061	city	9	1	0.648954	0.648954	0	1	0	0	CorrectCommission	0.591510	0.447683	1
303.249817	0.795534	city	8	1	0.748721	0.748721	0	1	0	0	CorrectCommission	0.049828	0.475254	1
304.045624	0.796073	city	5	1	0.705090	0.705090	0	1	0	0	CorrectCommission	0.286720	0.504866	1
304.841400	0.795498	city	9	1	0.660153	0.660153	0	1	0	0	CorrectCommission	0.530708	0.535049	1
305.637054	0.795828	city	10	1	0.648831	0.648831	0	1	0	0	CorrectCommission	0.592180	0.564349	1
306.433014	0.796055	city	9	1	0.847482	0.847482	0	1	0	0	CorrectCommission	0.486396	0.591416	1
307.228821	0.795567	city	8	1	0.996975	0.996975	0	1	0	0	CorrectCommission	1.298067	0.615129	1
308.024445	0.795696	city	1	0	0.000000	0.907088	0	0	0	1	OmissionError	0.810023	0.634681	1
308.820221	0.795875	city	8	1	0.704946	0.704946	0	1	0	0	CorrectCommission	0.287502	0.649790	1
309.616089	0.795814	city	1	1	0.517678	0.517678	0	1	0	0	CorrectCommission	1.304274	0.660715	1
310.411896	0.795792	city	7	1	0.560950	0.560950	0	1	0	0	CorrectCommission	1.069327	0.668254	1
311.207703	0.795834	city	8	1	0.710304	0.710304	0	1	0	0	CorrectCommission	0.258411	0.673720	1
312.003510	0.795772	city	7	1	0.857771	0.857771	0	1	0	0	CorrectCommission	0.542260	0.678859	1
312.799255	0.795747	city	10	1	0.897514	0.897514	0	1	0	0	CorrectCommission	0.758040	0.685540	1
313.595062	0.795877	city	2	1	0.848320	0.848320	0	1	0	0	CorrectCommission	0.490941	0.695637	1
314.390900	0.795776	city	8	1	0.947285	0.947285	0	1	0	0	CorrectCommission	1.028271	0.710781	1
315.186707	0.795820	city	9	1	0.899803	0.899803	0	1	0	0	CorrectCommission	0.770471	0.732128	1
315.982513	0.795805	city	7	1	0.760202	0.760202	0	1	0	0	CorrectCommission	0.012508	0.760140	0
316.778320	0.795800	city	5	1	0.847441	0.847441	0	1	0	0	CorrectCommission	0.486169	0.794561	0
317.574097	0.795810	city	1	1	0.748306	0.748306	0	1	0	0	CorrectCommission	0.052083	0.834295	0
318.369873	0.795709	mountain	8	0	0.000000	0.780574	1	0	0	0	CorrectOmission	0.123118	0.877552	0
319.165619	0.795803	city	8	1	0.911410	0.911410	0	1	0	0	CorrectCommission	0.833490	0.922002	0
319.961487	0.795900	city	10	1	1.107978	1.107978	0	1	0	0	CorrectCommission	1.900755	0.965033	0
320.757324	0.795794	city	7	1	1.153010	1.153010	0	1	0	0	CorrectCommission	2.145257	1.004062	0
321.553131	0.795801	city	5	1	1.196499	1.196499	0	1	0	0	CorrectCommission	2.381380	1.036860	0
322.348877	0.795702	city	2	0	0.000000	0.847649	0	0	0	1	OmissionError	0.487299	1.061714	0
323.144684	0.795893	city	1	1	0.550264	0.550264	0	1	0	0	CorrectCommission	1.127347	1.077620	0
323.940491	0.795754	city	5	1	0.748152	0.748152	0	1	0	0	CorrectCommission	0.052918	1.084202	0
324.736298	0.795824	city	7	1	0.947753	0.947753	0	1	0	0	CorrectCommission	1.030816	1.081760	0
325.532257	0.796105	city	5	1	1.046733	1.046733	0	1	0	0	CorrectCommission	1.568223	1.071081	0
326.328064	0.795528	city	4	1	1.095905	1.095905	0	1	0	0	CorrectCommission	1.835203	1.053438	0
327.123718	0.795753	city	5	1	1.105722	1.105722	0	1	0	0	CorrectCommission	1.888508	1.030363	0
327.919495	0.795819	mountain	2	0	0.000000	0.852803	1	0	0	0	CorrectOmission	0.515283	1.003531	0
328.715271	0.795770	city	2	1	0.649068	0.649068	0	1	0	0	CorrectCommission	0.590892	0.974691	0
329.511230	0.796130	city	10	1	0.806441	0.806441	0	1	0	0	CorrectCommission	0.263560	0.945419	0
330.307037	0.795443	city	2	1	1.046439	1.046439	0	1	0	0	CorrectCommission	1.566628	0.917059	0
331.102661	0.795832	city	8	0	0.000000	0.763246	0	0	0	1	OmissionError	0.029033	0.890585	0
331.898499	0.795823	city	6	1	0.549343	0.549343	0	1	0	0	CorrectCommission	1.132349	0.866690	0
332.694305	0.795783	city	1	1	0.997213	0.997213	0	1	0	0	CorrectCommission	1.299354	0.845667	0
333.490082	0.795781	city	9	0	0.000000	0.864367	0	0	0	1	OmissionError	0.578068	0.827593	0
334.285889	0.795842	city	2	1	0.599655	0.599655	0	1	0	0	CorrectCommission	0.859183	0.812379	0
335.081726	0.795839	city	8	1	0.651926	0.651926	0	1	0	0	CorrectCommission	0.575373	0.799792	0
335.877502	0.795726	city	1	1	0.748130	0.748130	0	1	0	0	CorrectCommission	0.053038	0.789621	0
336.673248	0.795787	city	6	1	0.947826	0.947826	0	1	0	0	CorrectCommission	1.031212	0.781737	0
337.469086	0.795854	city	3	1	0.996812	0.996812	0	1	0	0	CorrectCommission	1.297177	0.776094	0
338.265076	0.796101	city	1	1	0.900720	0.900720	0	1	0	0	CorrectCommission	0.775447	0.772875	0
339.061005	0.795778	city	2	1	1.000758	1.000758	0	1	0	0	CorrectCommission	1.318602	0.772468	0
339.856659	0.795523	mountain	8	0	0.000000	0.899518	1	0	0	0	CorrectOmission	0.768924	0.775405	0
340.652344	0.795833	city	2	1	0.798223	0.798223	0	1	0	0	CorrectCommission	0.218941	0.782325	0
341.448120	0.795730	city	6	1	0.898092	0.898092	0	1	0	0	CorrectCommission	0.761182	0.793875	0
342.243896	0.795839	city	10	1	0.714810	0.714810	0	1	0	0	CorrectCommission	0.233950	0.810517	0
343.039734	0.795807	city	4	1	0.748743	0.748743	0	1	0	0	CorrectCommission	0.049708	0.832493	0
343.835510	0.795758	city	6	1	0.847856	0.847856	0	1	0	0	CorrectCommission	0.488424	0.859735	0
344.631470	0.796163	city	10	1	1.046552	1.046552	0	1	0	0	CorrectCommission	1.567244	0.891789	0
345.427277	0.795475	city	1	1	1.112834	1.112834	0	1	0	0	CorrectCommission	1.927119	0.927847	0
346.222931	0.795830	city	10	0	0.000000	0.991177	0	0	0	1	OmissionError	1.266584	0.966704	0
347.018890	0.796092	city	7	1	0.797724	0.797724	0	1	0	0	CorrectCommission	0.216233	1.006936	0
347.814697	0.795531	city	4	1	0.648617	0.648617	0	1	0	0	CorrectCommission	0.593341	1.046832	0
348.610352	0.795790	city	3	1	0.598713	0.598713	0	1	0	0	CorrectCommission	0.864293	1.084515	0
349.406158	0.795783	city	5	1	0.499603	0.499603	0	1	0	0	CorrectCommission	1.402411	1.118063	0
350.202087	0.796111	city	9	1	0.599295	0.599295	0	1	0	0	CorrectCommission	0.861138	1.145697	0
350.997925	0.795521	city	2	1	0.551121	0.551121	0	1	0	0	CorrectCommission	1.122695	1.166029	0
351.793549	0.795771	city	8	1	0.468125	0.468125	0	1	0	0	CorrectCommission	1.573324	1.178136	0
352.589355	0.795841	city	6	1	0.400551	0.400551	0	1	0	0	CorrectCommission	1.940213	1.181746	0
353.385162	0.795749	city	4	1	0.301313	0.301313	0	1	0	0	CorrectCommission	2.479027	1.177295	0
354.180939	0.795817	mountain	3	1	0.350418	0.350418	0	0	1	0	CommissionError	2.212410	1.165825	0
354.976746	0.795785	city	2	1	0.649482	0.649482	0	1	0	0	CorrectCommission	0.588648	1.148843	0
355.772552	0.795846	city	5	1	0.648618	0.648618	0	1	0	0	CorrectCommission	0.593338	1.128143	0
356.568359	0.795782	city	8	1	0.798442	0.798442	0	1	0	0	CorrectCommission	0.220132	1.105292	0
357.364319	0.796100	city	7	1	0.857118	0.857118	0	1	0	0	CorrectCommission	0.538715	1.081543	0
358.160095	0.795478	city	5	1	0.797439	0.797439	0	1	0	0	CorrectCommission	0.214687	1.057565	0
358.955750	0.795819	city	3	1	0.947902	0.947902	0	1	0	0	CorrectCommission	1.031626	1.033434	0
359.751526	0.795751	city	10	1	1.058815	1.058815	0	1	0	0	CorrectCommission	1.633822	1.008702	0
360.547363	0.795872	city	1	1	1.146222	1.146222	0	1	0	0	CorrectCommission	2.108400	0.982607	0
361.343170	0.795793	city	10	0	0.000000	0.811140	0	0	0	1	OmissionError	0.289077	0.954350	0
362.138977	0.795801	city	4	1	0.450388	0.450388	0	1	0	0	CorrectCommission	1.669623	0.923408	0
362.934784	0.795784	mountain	2	1	0.460785	0.460785	0	0	1	0	CommissionError	1.613177	0.889574	0
363.730530	0.795748	city	4	1	0.898911	0.898911	0	1	0	0	CorrectCommission	0.765628	0.853211	0
364.526367	0.795893	city	1	1	0.799442	0.799442	0	1	0	0	CorrectCommission	0.225564	0.815244	0
365.322144	0.795708	city	4	1	0.897373	0.897373	0	1	0	0	CorrectCommission	0.757279	0.776995	0
366.117950	0.795885	city	9	1	0.904443	0.904443	0	1	0	0	CorrectCommission	0.795661	0.739981	1
366.913757	0.795735	city	3	1	0.847580	0.847580	0	1	0	0	CorrectCommission	0.486926	0.705738	1
367.709564	0.795846	city	1	1	0.857537	0.857537	0	1	0	0	CorrectCommission	0.540987	0.675656	1
368.505402	0.795849	mountain	5	0	0.000000	0.781772	1	0	0	0	CorrectOmission	0.129623	0.650828	1
369.301178	0.795706	city	1	1	0.705420	0.705420	0	1	0	0	CorrectCommission	0.284929	0.631933	1
370.096954	0.795869	city	9	1	0.713615	0.713615	0	1	0	0	CorrectCommission	0.240434	0.619242	1
370.892761	0.795748	city	3	1	0.503552	0.503552	0	1	0	0	CorrectCommission	1.380974	0.612699	1
371.688568	0.795857	city	4	1	0.718244	0.718244	0	1	0	0	CorrectCommission	0.215301	0.611945	1
372.484406	0.795774	city	7	1	0.552798	0.552798	0	1	0	0	CorrectCommission	1.113589	0.616581	1
373.280334	0.796110	city	5	1	0.648920	0.648920	0	1	0	0	CorrectCommission	0.591694	0.626030	1
374.076141	0.795522	city	7	1	0.657570	0.657570	0	1	0	0	CorrectCommission	0.544730	0.639715	1
374.871796	0.795775	city	2	1	0.598888	0.598888	0	1	0	0	CorrectCommission	0.863344	0.656933	1
375.667572	0.795764	city	10	1	0.798143	0.798143	0	1	0	0	CorrectCommission	0.218508	0.676857	1
376.463379	0.795857	city	1	1	0.807348	0.807348	0	1	0	0	CorrectCommission	0.268488	0.698492	1
377.259216	0.795836	city	5	1	0.797848	0.797848	0	1	0	0	CorrectCommission	0.216906	0.720635	1
378.055023	0.795782	city	4	1	0.950547	0.950547	0	1	0	0	CorrectCommission	1.045985	0.741938	1
378.850800	0.795726	city	6	1	0.906574	0.906574	0	1	0	0	CorrectCommission	0.807234	0.761046	0
379.646545	0.795803	city	5	1	0.897887	0.897887	0	1	0	0	CorrectCommission	0.760066	0.776742	0
380.442383	0.795847	city	1	1	1.010749	1.010749	0	1	0	0	CorrectCommission	1.372853	0.788146	0
381.238190	0.795781	city	3	1	1.015232	1.015232	0	1	0	0	CorrectCommission	1.397192	0.794881	0
382.034149	0.796123	city	4	1	0.947334	0.947334	0	1	0	0	CorrectCommission	1.028537	0.797196	0
382.829956	0.795501	mountain	6	0	0.000000	0.655544	1	0	0	0	CorrectOmission	0.555733	0.795922	0
383.625763	0.796103	city	10	1	0.452072	0.452072	0	1	0	0	CorrectCommission	1.660480	0.792368	0
384.421539	0.795481	city	3	1	0.649128	0.649128	0	1	0	0	CorrectCommission	0.590568	0.788024	0
385.217163	0.795764	city	8	1	0.804569	0.804569	0	1	0	0	CorrectCommission	0.253398	0.784389	0
386.013000	0.795875	city	10	1	0.648717	0.648717	0	1	0	0	CorrectCommission	0.592797	0.782594	0
386.808838	0.795810	city	3	1	0.698244	0.698244	0	1	0	0	CorrectCommission	0.323892	0.783109	0
387.604614	0.795742	city	10	1	0.798508	0.798508	0	1	0	0	CorrectCommission	0.220491	0.785638	0
388.400421	0.795858	mountain	6	0	0.000000	0.716803	1	0	0	0	CorrectOmission	0.223125	0.789032	0
389.196350	0.796042	city	10	1	0.601000	0.601000	0	1	0	0	CorrectCommission	0.851878	0.791533	0
389.992157	0.795535	city	2	1	0.598969	0.598969	0	1	0	0	CorrectCommission	0.862907	0.790984	0
390.787811	0.795783	city	6	1	0.499360	0.499360	0	1	0	0	CorrectCommission	1.403731	0.785267	0
391.583618	0.795836	city	3	1	0.511642	0.511642	0	1	0	0	CorrectCommission	1.337049	0.772653	0
392.379456	0.795813	city	9	1	1.060699	1.060699	0	1	0	0	CorrectCommission	1.644055	0.752186	1
393.175232	0.795746	city	6	1	1.096579	1.096579	0	1	0	0	CorrectCommission	1.838864	0.723888	1
393.971008	0.795828	mountain	7	0	0.000000	0.928458	1	0	0	0	CorrectOmission	0.926050	0.688802	1
394.766968	0.796117	city	2	1	0.748383	0.748383	0	1	0	0	CorrectCommission	0.051663	0.648924	1
395.562775	0.795486	city	1	1	0.748404	0.748404	0	1	0	0	CorrectCommission	0.051549	0.606826	1
396.358429	0.795806	mountain	5	1	0.699009	0.699009	0	0	1	0	CommissionError	0.319738	0.565327	1
397.154205	0.795754	city	8	1	0.805394	0.805394	0	1	0	0	CorrectCommission	0.257876	0.527088	1
397.949982	0.795806	city	10	1	0.760197	0.760197	0	1	0	0	CorrectCommission	0.012482	0.494278	1
398.745789	0.795794	city	9	1	0.707775	0.707775	0	1	0	0	CorrectCommission	0.272146	0.468351	1
399.541626	0.795853	city	3	1	0.748137	0.748137	0	1	0	0	CorrectCommission	0.052997	0.449926	1
400.337402	0.795757	city	1	1	0.768861	0.768861	0	1	0	0	CorrectCommission	0.059524	0.438875	1
401.133209	0.795798	city	4	1	0.897445	0.897445	0	1	0	0	CorrectCommission	0.757665	0.434361	1
401.929169	0.796147	city	7	1	0.947945	0.947945	0	1	0	0	CorrectCommission	1.031857	0.435108	1
402.724976	0.795450	city	4	1	0.847453	0.847453	0	1	0	0	CorrectCommission	0.486234	0.439686	1
403.520599	0.795831	city	9	1	0.748746	0.748746	0	1	0	0	CorrectCommission	0.049690	0.446730	1
404.316467	0.795869	city	10	1	0.698536	0.698536	0	1	0	0	CorrectCommission	0.322309	0.455146	1
405.112305	0.795810	city	2	1	0.549885	0.549885	0	1	0	0	CorrectCommission	1.129407	0.464182	1
405.908234	0.796067	city	5	1	0.617185	0.617185	0	1	0	0	CorrectCommission	0.763999	0.473485	1
406.704041	0.795536	city	4	1	0.755375	0.755375	0	1	0	0	CorrectCommission	0.013701	0.483128	1
407.499847	0.796064	city	8	1	0.797713	0.797713	0	1	0	0	CorrectCommission	0.216175	0.493506	1
408.295624	0.795535	city	9	1	0.797499	0.797499	0	1	0	0	CorrectCommission	0.215010	0.505203	1
409.091278	0.795742	city	1	1	0.847796	0.847796	0	1	0	0	CorrectCommission	0.488099	0.518953	1
409.887024	0.795770	city	10	1	0.947839	0.947839	0	1	0	0	CorrectCommission	1.031279	0.535550	1
410.682831	0.795846	city	1	1	0.847500	0.847500	0	1	0	0	CorrectCommission	0.486493	0.555742	1
411.478668	0.795839	city	9	1	0.897588	0.897588	0	1	0	0	CorrectCommission	0.758444	0.580211	1
412.274475	0.795770	city	8	1	0.812157	0.812157	0	1	0	0	CorrectCommission	0.294596	0.609462	1
413.070435	0.796103	mountain	2	0	0.000000	0.757573	1	0	0	0	CorrectOmission	0.001768	0.643772	1
413.866211	0.795497	city	2	1	0.698407	0.698407	0	1	0	0	CorrectCommission	0.323010	0.683129	1
414.661896	0.795842	city	7	1	0.599230	0.599230	0	1	0	0	CorrectCommission	0.861490	0.727120	1
415.457703	0.795762	city	9	1	1.046381	1.046381	0	1	0	0	CorrectCommission	1.566315	0.774929	0
416.253448	0.795773	city	1	1	0.947981	0.947981	0	1	0	0	CorrectCommission	1.032050	0.825342	0
417.049408	0.796101	mountain	9	0	0.000000	0.806157	1	0	0	0	CorrectOmission	0.262020	0.876776	0
417.845215	0.795552	city	7	1	0.698512	0.698512	0	1	0	0	CorrectCommission	0.322435	0.927381	0
418.640900	0.795791	city	9	1	0.702649	0.702649	0	1	0	0	CorrectCommission	0.299977	0.975143	0
419.436737	0.795882	city	4	1	0.513620	0.513620	0	1	0	0	CorrectCommission	1.326307	1.018084	0
420.232513	0.795696	city	9	1	0.461736	0.461736	0	1	0	0	CorrectCommission	1.608012	1.054475	0
421.028290	0.795817	city	3	1	0.409316	0.409316	0	1	0	0	CorrectCommission	1.892626	1.083107	0
421.824097	0.795839	city	4	1	0.362353	0.362353	0	1	0	0	CorrectCommission	2.147612	1.103390	0
422.619904	0.795759	city	2	1	1.014334	1.014334	0	1	0	0	CorrectCommission	1.392315	1.115387	0
423.415649	0.795753	city	6	1	0.947358	0.947358	0	1	0	0	CorrectCommission	1.028672	1.119806	0
424.211456	0.795815	city	5	1	0.898101	0.898101	0	1	0	0	CorrectCommission	0.761231	1.117809	0
425.007416	0.796132	city	3	1	1.010976	1.010976	0	1	0	0	CorrectCommission	1.374080	1.110712	0
425.803375	0.795808	city	2	1	0.996915	0.996915	0	1	0	0	CorrectCommission	1.297741	1.099724	0
426.599213	0.795816	city	1	0	0.000000	0.827020	0	0	0	1	OmissionError	0.375298	1.085710	0
427.394989	0.795785	city	2	1	0.698750	0.698750	0	1	0	0	CorrectCommission	0.321148	1.069028	0
428.190643	0.795500	city	3	1	0.809561	0.809561	0	1	0	0	CorrectCommission	0.280504	1.049479	0
428.986298	0.795781	city	8	1	1.046954	1.046954	0	1	0	0	CorrectCommission	1.569424	1.026409	0
429.782104	0.795833	city	4	1	0.996696	0.996696	0	1	0	0	CorrectCommission	1.296551	0.998914	0
430.577911	0.795797	city	1	1	1.012120	1.012120	0	1	0	0	CorrectCommission	1.380292	0.966240	0
431.373688	0.795797	city	6	1	1.207470	1.207470	0	1	0	0	CorrectCommission	2.440943	0.927953	0
432.169495	0.795756	city	10	0	0.000000	0.944182	0	0	0	1	OmissionError	1.011426	0.884204	0
432.965302	0.795871	city	8	1	0.599160	0.599160	0	1	0	0	CorrectCommission	0.861870	0.835907	0
433.761078	0.795723	city	6	1	0.549304	0.549304	0	1	0	0	CorrectCommission	1.132560	0.784657	0
434.557037	0.796143	city	1	1	0.712211	0.712211	0	1	0	0	CorrectCommission	0.248058	0.732601	1
435.352875	0.795549	city	8	1	0.748118	0.748118	0	1	0	0	CorrectCommission	0.053102	0.682183	1
436.148560	0.795810	city	7	1	0.704342	0.704342	0	1	0	0	CorrectCommission	0.290784	0.635847	1
436.944305	0.795711	mountain	5	0	0.000000	0.686347	1	0	0	0	CorrectOmission	0.388487	0.595689	1
437.740082	0.795859	city	5	1	0.699213	0.699213	0	1	0	0	CorrectCommission	0.318629	0.563319	1
438.535950	0.795833	city	2	1	0.748021	0.748021	0	1	0	0	CorrectCommission	0.053626	0.539716	1
439.331726	0.795764	city	9	1	0.848340	0.848340	0	1	0	0	CorrectCommission	0.491055	0.525234	1
440.127533	0.795800	city	2	1	0.797904	0.797904	0	1	0	0	CorrectCommission	0.217208	0.519633	1
440.923340	0.795841	city	8	1	0.946936	0.946936	0	1	0	0	CorrectCommission	1.026376	0.522245	1
441.719147	0.795756	city	7	1	0.897485	0.897485	0	1	0	0	CorrectCommission	0.757885	0.532078	1
442.514923	0.795787	city	2	1	0.851809	0.851809	0	1	0	0	CorrectCommission	0.509886	0.548018	1
443.310730	0.795820	city	7	1	0.819510	0.819510	0	1	0	0	CorrectCommission	0.334519	0.568932	1
444.106506	0.795756	city	10	1	0.808635	0.808635	0	1	0	0	CorrectCommission	0.275476	0.593752	1
444.902466	0.796154	city	2	1	0.847849	0.847849	0	1	0	0	CorrectCommission	0.488388	0.621476	1
445.698273	0.795455	city	1	1	0.962918	0.962918	0	1	0	0	CorrectCommission	1.113151	0.651156	1
446.494049	0.796115	mountain	4	0	0.000000	0.784857	1	0	0	0	CorrectOmission	0.146372	0.681826	1
447.289856	0.795479	city	10	1	0.605530	0.605530	0	1	0	0	CorrectCommission	0.827282	0.712611	1
448.085510	0.795853	city	4	1	0.716799	0.716799	0	1	0	0	CorrectCommission	0.223147	0.742625	1
448.881348	0.795816	city	9	1	0.555569	0.555569	0	1	0	0	CorrectCommission	1.098544	0.771034	0
449.677124	0.795729	city	4	1	0.449718	0.449718	0	1	0	0	CorrectCommission	1.673260	0.797098	0
450.472900	0.795865	city	10	1	0.599320	0.599320	0	1	0	0	CorrectCommission	0.860999	0.820316	0
451.268890	0.796100	city	9	1	0.549187	0.549187	0	1	0	0	CorrectCommission	1.133198	0.840470	0
452.064697	0.795497	city	6	1	0.814213	0.814213	0	1	0	0	CorrectCommission	0.305761	0.857674	0
452.860474	0.796088	city	7	1	0.855048	0.855048	0	1	0	0	CorrectCommission	0.527471	0.872424	0
453.656311	0.795538	city	10	0	0.000000	0.659067	0	0	0	1	OmissionError	0.536602	0.885551	0
454.451965	0.795797	city	6	1	0.449572	0.449572	0	1	0	0	CorrectCommission	1.674054	0.898226	0
455.247772	0.795793	mountain	2	1	0.449861	0.449861	0	0	1	0	CommissionError	1.672484	0.911800	0
456.043579	0.795814	city	6	1	0.947831	0.947831	0	1	0	0	CorrectCommission	1.031240	0.927755	0
456.839355	0.795768	city	9	1	0.847480	0.847480	0	1	0	0	CorrectCommission	0.486381	0.947411	0
457.635162	0.795838	city	10	1	0.701869	0.701869	0	1	0	0	CorrectCommission	0.304212	0.971731	0
458.431122	0.796081	city	8	1	0.648566	0.648566	0	1	0	0	CorrectCommission	0.593618	1.001031	0
459.226898	0.795489	mountain	8	0	0.000000	0.593964	1	0	0	0	CorrectOmission	0.890078	1.034838	0
460.022552	0.795813	city	3	1	0.567662	0.567662	0	1	0	0	CorrectCommission	1.032885	1.071827	0
460.818329	0.795743	city	4	1	0.599259	0.599259	0	1	0	0	CorrectCommission	0.861333	1.109807	0
461.614258	0.796113	city	7	1	0.599341	0.599341	0	1	0	0	CorrectCommission	0.860887	1.145953	0
462.410095	0.795552	city	5	1	0.548932	0.548932	0	1	0	0	CorrectCommission	1.134579	1.177033	0
463.205750	0.795742	city	3	1	0.399807	0.399807	0	1	0	0	CorrectCommission	1.944255	1.199801	0
464.001556	0.795863	city	1	1	0.500012	0.500012	0	1	0	0	CorrectCommission	1.400194	1.211452	0
464.797516	0.796081	city	6	1	0.549775	0.549775	0	1	0	0	CorrectCommission	1.130005	1.210004	0
465.593323	0.795552	city	10	1	0.300345	0.300345	0	1	0	0	CorrectCommission	2.484284	1.194601	0
466.389008	0.795776	city	4	1	0.354201	0.354201	0	1	0	0	CorrectCommission	2.191870	1.165567	0
467.184784	0.795794	mountain	7	1	0.300359	0.300359	0	0	1	0	CommissionError	2.484206	1.124517	0
467.980591	0.795830	city	4	1	0.599277	0.599277	0	1	0	0	CorrectCommission	0.861231	1.074074	0
468.776398	0.795765	city	7	1	0.710250	0.710250	0	1	0	0	CorrectCommission	0.258705	1.017575	0
469.572174	0.795826	city	8	1	0.714958	0.714958	0	1	0	0	CorrectCommission	0.233147	0.958535	0
470.367981	0.795744	city	4	1	0.748866	0.748866	0	1	0	0	CorrectCommission	0.049039	0.900181	0
471.163910	0.796142	city	2	1	0.897671	0.897671	0	1	0	0	CorrectCommission	0.758894	0.845096	0
471.959747	0.795499	mountain	6	0	0.000000	0.797685	1	0	0	0	CorrectOmission	0.216023	0.794917	0
472.755371	0.795788	city	2	1	0.650319	0.650319	0	1	0	0	CorrectCommission	0.584101	0.750362	1
473.551178	0.795812	city	9	1	0.656981	0.656981	0	1	0	0	CorrectCommission	0.547928	0.711259	1
474.346985	0.795798	city	10	1	0.556228	0.556228	0	1	0	0	CorrectCommission	1.094968	0.676845	1
475.142822	0.795848	city	7	1	0.453562	0.453562	0	1	0	0	CorrectCommission	1.652389	0.646051	1
475.938629	0.795809	city	4	1	0.659624	0.659624	0	1	0	0	CorrectCommission	0.533580	0.617876	1
476.734406	0.795743	city	10	1	0.609007	0.609007	0	1	0	0	CorrectCommission	0.808404	0.591726	1
477.530151	0.795764	city	1	1	0.754662	0.754662	0	1	0	0	CorrectCommission	0.017570	0.567551	1
478.325958	0.795820	city	5	1	0.816524	0.816524	0	1	0	0	CorrectCommission	0.318309	0.546005	1
479.121796	0.795841	city	4	1	0.908193	0.908193	0	1	0	0	CorrectCommission	0.816022	0.528347	1
479.917633	0.795830	city	9	1	0.857020	0.857020	0	1	0	0	CorrectCommission	0.538178	0.516315	1
480.713562	0.796026	city	5	1	0.847770	0.847770	0	1	0	0	CorrectCommission	0.487957	0.511919	1
481.509338	0.795542	city	2	1	0.750285	0.750285	0	1	0	0	CorrectCommission	0.041338	0.517150	1
482.304993	0.795742	city	8	1	0.858284	0.858284	0	1	0	0	CorrectCommission	0.545042	0.533667	1
483.100769	0.795849	city	5	1	0.748179	0.748179	0	1	0	0	CorrectCommission	0.052771	0.562458	1
483.896606	0.795810	city	2	1	0.698577	0.698577	0	1	0	0	CorrectCommission	0.322083	0.603683	1
484.692444	0.795842	city	5	1	0.748294	0.748294	0	1	0	0	CorrectCommission	0.052148	0.656494	1
485.488373	0.796064	city	10	1	0.798483	0.798483	0	1	0	0	CorrectCommission	0.220353	0.719103	1
486.284180	0.795501	mountain	7	0	0.000000	0.728762	1	0	0	0	CorrectOmission	0.158195	0.788811	0
487.079956	0.796094	city	5	1	0.599087	0.599087	0	1	0	0	CorrectCommission	0.862266	0.862266	0
