onset	duration	trial_type	image_type	Press	ReactionTime	ReactionTime_Interpolated	CorrectOmission	CorrectCommission	CommissionError	OmissionError	response_type	nonsmoothVarianceTimeCourse	VarianceTimeCourse	In_the_Zone
8.421740	0.795492	mountain	10	0	0.000000	0.948683	1	0	0	0	CorrectOmission	0.076084	0.076084	1
9.217392	0.795812	city	10	1	0.948226	0.948226	0	1	0	0	CorrectCommission	0.072939	0.132539	1
10.013201	0.795806	city	8	1	0.947769	0.947769	0	1	0	0	CorrectCommission	0.069794	0.188701	1
10.808998	0.795790	city	1	1	0.847750	0.847750	0	1	0	0	CorrectCommission	0.618372	0.244221	1
11.604789	0.795790	city	7	1	0.996755	0.996755	0	1	0	0	CorrectCommission	0.406839	0.298627	1
12.400599	0.795829	city	4	1	0.949013	0.949013	0	1	0	0	CorrectCommission	0.078353	0.351345	1
13.196387	0.795749	city	7	1	0.909910	0.909910	0	1	0	0	CorrectCommission	0.190689	0.401672	1
13.992174	0.795824	city	10	1	0.847904	0.847904	0	1	0	0	CorrectCommission	0.617315	0.448751	1
14.787995	0.795819	city	3	1	0.909732	0.909732	0	1	0	0	CorrectCommission	0.191915	0.491650	1
15.583778	0.795748	city	2	1	1.046533	1.046533	0	1	0	0	CorrectCommission	0.749328	0.529439	1
16.379568	0.795830	mountain	5	0	0.000000	1.119039	1	0	0	0	CorrectOmission	1.248200	0.561201	1
17.175369	0.795772	city	6	1	1.097300	1.097300	0	1	0	0	CorrectCommission	1.098624	0.586216	1
17.971167	0.795822	city	7	1	0.951363	0.951363	0	1	0	0	CorrectCommission	0.094524	0.604045	1
18.767006	0.795858	mountain	9	1	0.997144	0.997144	0	0	1	0	CommissionError	0.409511	0.614580	1
19.562979	0.796089	city	8	1	1.104425	1.104425	0	1	0	0	CorrectCommission	1.147645	0.618013	1
20.358761	0.795473	city	2	1	1.060300	1.060300	0	1	0	0	CorrectCommission	0.844049	0.614925	1
21.154430	0.795867	city	7	1	1.097592	1.097592	0	1	0	0	CorrectCommission	1.100635	0.606274	1
21.950256	0.795783	city	10	1	0.996840	0.996840	0	1	0	0	CorrectCommission	0.407423	0.593242	1
22.746054	0.795811	city	3	1	1.005911	1.005911	0	1	0	0	CorrectCommission	0.469837	0.577244	1
23.541836	0.795754	city	5	1	0.998094	0.998094	0	1	0	0	CorrectCommission	0.416050	0.559761	1
24.337641	0.795857	city	1	1	0.997002	0.997002	0	1	0	0	CorrectCommission	0.408540	0.542246	1
25.133425	0.795710	city	4	1	1.046767	1.046767	0	1	0	0	CorrectCommission	0.750937	0.526025	1
25.929222	0.795885	city	6	1	0.996885	0.996885	0	1	0	0	CorrectCommission	0.407734	0.512192	1
26.725056	0.795780	city	8	1	0.947886	0.947886	0	1	0	0	CorrectCommission	0.070603	0.501582	1
27.520809	0.795729	city	4	1	0.997575	0.997575	0	1	0	0	CorrectCommission	0.412481	0.494724	1
28.316607	0.795864	city	1	1	0.898101	0.898101	0	1	0	0	CorrectCommission	0.271937	0.491799	1
29.112415	0.795754	city	3	1	0.864270	0.864270	0	1	0	0	CorrectCommission	0.504709	0.492728	1
29.908220	0.795855	city	6	1	1.046861	1.046861	0	1	0	0	CorrectCommission	0.751588	0.497202	1
30.704035	0.795776	city	8	1	0.811689	0.811689	0	1	0	0	CorrectCommission	0.866484	0.504768	1
31.499819	0.795793	city	7	1	0.964155	0.964155	0	1	0	0	CorrectCommission	0.182539	0.514873	1
32.295616	0.795800	city	3	1	0.897387	0.897387	0	1	0	0	CorrectCommission	0.276849	0.526999	1
33.091450	0.795865	city	9	1	0.860789	0.860789	0	1	0	0	CorrectCommission	0.528662	0.540644	1
33.887276	0.795789	city	6	1	0.907117	0.907117	0	1	0	0	CorrectCommission	0.209904	0.555390	1
34.683071	0.795805	city	2	1	0.897363	0.897363	0	1	0	0	CorrectCommission	0.277014	0.570962	1
35.478840	0.795731	mountain	1	0	0.000000	0.773856	1	0	0	0	CorrectOmission	1.126789	0.587261	1
36.274647	0.795880	city	10	1	0.702248	0.702248	0	1	0	0	CorrectCommission	1.619485	0.604265	1
37.070477	0.795784	city	8	1	0.848189	0.848189	0	1	0	0	CorrectCommission	0.615356	0.622012	1
37.866253	0.795768	city	4	1	0.897347	0.897347	0	1	0	0	CorrectCommission	0.277125	0.640588	1
38.662056	0.795835	city	2	1	0.948232	0.948232	0	1	0	0	CorrectCommission	0.072980	0.659921	0
39.457840	0.795735	city	1	1	0.997161	0.997161	0	1	0	0	CorrectCommission	0.409631	0.679754	0
40.253620	0.795824	city	3	1	1.011029	1.011029	0	1	0	0	CorrectCommission	0.505046	0.699520	0
41.049423	0.795778	city	6	1	1.046654	1.046654	0	1	0	0	CorrectCommission	0.750160	0.718363	0
41.845230	0.795837	city	3	1	1.046586	1.046586	0	1	0	0	CorrectCommission	0.749696	0.735184	0
42.641201	0.796105	city	8	1	1.096348	1.096348	0	1	0	0	CorrectCommission	1.092073	0.748754	0
43.437145	0.795781	city	4	1	1.100806	1.100806	0	1	0	0	CorrectCommission	1.122749	0.757839	0
44.232796	0.795522	city	2	1	1.058276	1.058276	0	1	0	0	CorrectCommission	0.830124	0.761399	0
45.028439	0.795768	city	5	1	1.060558	1.060558	0	1	0	0	CorrectCommission	0.845827	0.758752	0
45.824261	0.795873	city	4	1	1.114964	1.114964	0	1	0	0	CorrectCommission	1.220160	0.749664	0
46.620079	0.795763	city	9	1	1.061318	1.061318	0	1	0	0	CorrectCommission	0.851055	0.734442	0
47.416016	0.796111	city	8	1	1.059537	1.059537	0	1	0	0	CorrectCommission	0.838800	0.713983	0
48.211842	0.795541	city	7	1	1.046234	1.046234	0	1	0	0	CorrectCommission	0.747273	0.689663	0
49.007481	0.795738	city	8	1	1.009067	1.009067	0	1	0	0	CorrectCommission	0.491550	0.663250	0
49.803261	0.795823	mountain	10	0	0.000000	0.891067	1	0	0	0	CorrectOmission	0.320333	0.636726	1
50.599228	0.796112	city	5	1	0.802591	0.802591	0	1	0	0	CorrectCommission	0.929085	0.612039	1
51.395035	0.795503	city	6	1	0.853994	0.853994	0	1	0	0	CorrectCommission	0.575412	0.590880	1
52.190681	0.795789	mountain	1	0	0.000000	0.876312	1	0	0	0	CorrectOmission	0.421858	0.574534	1
52.986462	0.795775	city	9	1	0.898287	0.898287	0	1	0	0	CorrectCommission	0.270658	0.563650	1
53.782269	0.795834	city	6	1	0.948664	0.948664	0	1	0	0	CorrectCommission	0.075956	0.558144	1
54.578064	0.795758	city	4	1	1.006305	1.006305	0	1	0	0	CorrectCommission	0.472548	0.557247	1
55.373886	0.795884	city	6	1	0.964434	0.964434	0	1	0	0	CorrectCommission	0.184456	0.559540	1
56.169712	0.795771	city	8	1	0.950784	0.950784	0	1	0	0	CorrectCommission	0.090539	0.563164	1
56.965485	0.795775	mountain	6	0	0.000000	0.848835	1	0	0	0	CorrectOmission	0.610911	0.566026	1
57.761253	0.795762	city	4	1	0.752379	0.752379	0	1	0	0	CorrectCommission	1.274563	0.566111	1
58.557034	0.795794	city	9	1	0.755210	0.755210	0	1	0	0	CorrectCommission	1.255084	0.561794	1
59.352859	0.795860	city	8	1	0.797970	0.797970	0	1	0	0	CorrectCommission	0.960876	0.552089	1
60.148685	0.795794	city	5	1	0.757271	0.757271	0	1	0	0	CorrectCommission	1.240902	0.536785	1
60.944504	0.795842	city	7	1	0.897602	0.897602	0	1	0	0	CorrectCommission	0.275375	0.516438	1
61.740303	0.795756	city	1	1	0.897932	0.897932	0	1	0	0	CorrectCommission	0.273104	0.492341	1
62.536114	0.795865	mountain	9	1	0.996843	0.996843	0	0	1	0	CommissionError	0.407446	0.466252	1
63.331940	0.795783	mountain	8	0	0.000000	0.980070	1	0	0	0	CorrectOmission	0.292037	0.440127	1
64.127693	0.795722	city	5	1	0.947053	0.947053	0	1	0	0	CorrectCommission	0.064871	0.415888	1
64.923492	0.795876	city	1	1	0.997236	0.997236	0	1	0	0	CorrectCommission	0.410148	0.395138	1
65.719330	0.795811	city	6	1	0.915962	0.915962	0	1	0	0	CorrectCommission	0.149049	0.378926	1
66.515114	0.795757	mountain	6	0	0.000000	0.927655	1	0	0	0	CorrectOmission	0.068598	0.367713	1
67.310898	0.795803	city	6	1	0.961614	0.961614	0	1	0	0	CorrectCommission	0.165053	0.361328	1
68.106682	0.795769	city	1	1	0.947138	0.947138	0	1	0	0	CorrectCommission	0.065455	0.359044	1
68.902489	0.795843	city	10	1	0.947780	0.947780	0	1	0	0	CorrectCommission	0.069870	0.359784	1
69.698448	0.796078	mountain	1	0	0.000000	0.841549	1	0	0	0	CorrectOmission	0.661039	0.362291	1
70.494270	0.795569	city	10	1	0.755086	0.755086	0	1	0	0	CorrectCommission	1.255935	0.365323	1
71.289932	0.795754	mountain	9	1	0.815033	0.815033	0	0	1	0	CommissionError	0.843481	0.367848	1
72.085724	0.795819	city	4	1	0.947489	0.947489	0	1	0	0	CorrectCommission	0.067871	0.369170	1
72.881683	0.796100	city	6	1	0.947551	0.947551	0	1	0	0	CorrectCommission	0.068293	0.368959	1
73.677475	0.795491	city	8	1	0.853508	0.853508	0	1	0	0	CorrectCommission	0.578755	0.367191	1
74.473114	0.795784	city	2	1	0.904976	0.904976	0	1	0	0	CorrectCommission	0.224637	0.364058	1
75.269066	0.796121	city	1	1	0.898387	0.898387	0	1	0	0	CorrectCommission	0.269969	0.359930	1
76.064888	0.795518	city	10	1	0.896992	0.896992	0	1	0	0	CorrectCommission	0.279569	0.355228	1
76.860512	0.795730	city	1	1	0.947241	0.947241	0	1	0	0	CorrectCommission	0.066159	0.350385	1
77.656296	0.795846	city	10	1	0.997576	0.997576	0	1	0	0	CorrectCommission	0.412484	0.345835	1
78.452133	0.795825	city	5	1	0.966619	0.966619	0	1	0	0	CorrectCommission	0.199491	0.341990	1
79.247955	0.795821	city	2	1	1.046379	1.046379	0	1	0	0	CorrectCommission	0.748270	0.339299	1
80.043724	0.795708	city	4	1	1.053419	1.053419	0	1	0	0	CorrectCommission	0.796710	0.338207	1
80.839478	0.795809	city	3	1	0.908253	0.908253	0	1	0	0	CorrectCommission	0.202088	0.339199	1
81.635292	0.795819	city	2	1	0.897919	0.897919	0	1	0	0	CorrectCommission	0.273189	0.342775	1
82.431267	0.796127	city	9	1	0.949444	0.949444	0	1	0	0	CorrectCommission	0.081321	0.349307	1
83.227074	0.795494	city	8	1	0.949172	0.949172	0	1	0	0	CorrectCommission	0.079452	0.359008	1
84.022705	0.795763	city	3	1	0.997478	0.997478	0	1	0	0	CorrectCommission	0.411815	0.371840	1
84.818665	0.796155	city	1	1	0.951368	0.951368	0	1	0	0	CorrectCommission	0.094556	0.387428	1
85.614456	0.795439	mountain	4	0	0.000000	0.924362	1	0	0	0	CorrectOmission	0.091253	0.405107	1
86.410088	0.795818	city	3	1	0.897488	0.897488	0	1	0	0	CorrectCommission	0.276155	0.423944	1
87.205894	0.795794	city	7	1	0.851773	0.851773	0	1	0	0	CorrectCommission	0.590691	0.442842	1
88.001694	0.795800	city	6	1	0.847938	0.847938	0	1	0	0	CorrectCommission	0.617081	0.460694	1
88.797516	0.795850	city	8	1	0.798111	0.798111	0	1	0	0	CorrectCommission	0.959911	0.476556	1
89.593338	0.795799	city	7	1	0.847869	0.847869	0	1	0	0	CorrectCommission	0.617551	0.489777	1
90.389130	0.795782	city	1	1	0.806558	0.806558	0	1	0	0	CorrectCommission	0.901790	0.500131	1
91.184929	0.795810	city	7	1	0.848317	0.848317	0	1	0	0	CorrectCommission	0.614473	0.507750	1
91.980728	0.795786	city	6	1	0.901766	0.901766	0	1	0	0	CorrectCommission	0.246724	0.513154	1
92.776520	0.795796	city	10	1	0.810948	0.810948	0	1	0	0	CorrectCommission	0.871583	0.517118	1
93.572319	0.795804	city	3	1	0.957154	0.957154	0	1	0	0	CorrectCommission	0.134368	0.520465	1
94.368149	0.795851	city	10	1	0.897458	0.897458	0	1	0	0	CorrectCommission	0.276361	0.523973	1
95.163948	0.795751	mountain	5	0	0.000000	0.962632	1	0	0	0	CorrectOmission	0.172057	0.528146	1
95.959717	0.795791	city	7	1	0.997762	0.997762	0	1	0	0	CorrectCommission	0.413769	0.533202	1
96.755547	0.795872	city	10	1	0.847939	0.847939	0	1	0	0	CorrectCommission	0.617076	0.538961	1
97.551353	0.795733	city	3	1	0.847546	0.847546	0	1	0	0	CorrectCommission	0.619777	0.544940	1
98.347160	0.795885	city	7	1	0.848238	0.848238	0	1	0	0	CorrectCommission	0.615017	0.550440	1
99.143013	0.795817	city	4	1	0.798098	0.798098	0	1	0	0	CorrectCommission	0.960001	0.554671	1
99.938805	0.795764	city	6	1	0.854088	0.854088	0	1	0	0	CorrectCommission	0.574767	0.556882	1
100.734581	0.795800	mountain	4	0	0.000000	0.866451	1	0	0	0	CorrectOmission	0.489702	0.556553	1
101.530373	0.795777	city	2	1	0.857080	0.857080	0	1	0	0	CorrectCommission	0.554179	0.553402	1
102.326271	0.796021	city	5	1	0.847867	0.847867	0	1	0	0	CorrectCommission	0.617569	0.547477	1
103.122063	0.795562	city	10	1	0.798385	0.798385	0	1	0	0	CorrectCommission	0.958020	0.539124	1
103.917755	0.795826	mountain	9	1	0.847528	0.847528	0	0	1	0	CommissionError	0.619898	0.528927	1
104.713585	0.795824	city	3	1	0.897349	0.897349	0	1	0	0	CorrectCommission	0.277111	0.517642	1
105.509521	0.796063	city	9	1	0.848650	0.848650	0	1	0	0	CorrectCommission	0.612182	0.506071	1
106.305336	0.795565	city	8	1	0.899274	0.899274	0	1	0	0	CorrectCommission	0.263868	0.494890	1
107.101006	0.795770	city	5	1	0.947099	0.947099	0	1	0	0	CorrectCommission	0.065188	0.484646	1
107.896805	0.795827	city	10	1	0.848361	0.848361	0	1	0	0	CorrectCommission	0.614171	0.475633	1
108.692749	0.796062	city	3	1	0.849351	0.849351	0	1	0	0	CorrectCommission	0.607359	0.467867	1
109.488556	0.795549	city	1	1	0.911992	0.911992	0	1	0	0	CorrectCommission	0.176366	0.461208	1
110.284210	0.795769	city	9	1	0.947191	0.947191	0	1	0	0	CorrectCommission	0.065816	0.455369	1
111.079987	0.795783	city	10	1	0.798885	0.798885	0	1	0	0	CorrectCommission	0.954586	0.450047	1
111.875793	0.795818	city	7	1	0.847809	0.847809	0	1	0	0	CorrectCommission	0.617970	0.444983	1
112.671753	0.796104	city	2	1	0.797799	0.797799	0	1	0	0	CorrectCommission	0.962057	0.440141	1
113.467567	0.795523	city	3	1	0.896983	0.896983	0	1	0	0	CorrectCommission	0.279634	0.435652	1
114.263222	0.795787	city	8	1	0.914203	0.914203	0	1	0	0	CorrectCommission	0.161152	0.431919	1
115.059013	0.795796	city	4	1	0.947054	0.947054	0	1	0	0	CorrectCommission	0.064876	0.429535	1
115.854790	0.795757	city	7	1	1.046802	1.046802	0	1	0	0	CorrectCommission	0.751177	0.429208	1
116.650597	0.795862	city	6	1	0.996805	0.996805	0	1	0	0	CorrectCommission	0.407179	0.431615	1
117.446411	0.795766	city	5	1	0.997049	0.997049	0	1	0	0	CorrectCommission	0.408858	0.437365	1
118.242203	0.795810	city	1	1	0.951038	0.951038	0	1	0	0	CorrectCommission	0.092287	0.446822	1
119.038017	0.795823	city	5	1	0.962279	0.962279	0	1	0	0	CorrectCommission	0.169626	0.460006	1
119.833794	0.795733	city	7	1	0.996804	0.996804	0	1	0	0	CorrectCommission	0.407177	0.476523	1
120.629593	0.795868	city	9	1	1.046678	1.046678	0	1	0	0	CorrectCommission	0.750328	0.495535	1
121.425415	0.795774	city	10	1	0.996850	0.996850	0	1	0	0	CorrectCommission	0.407490	0.515798	1
122.221230	0.795845	city	3	1	0.851612	0.851612	0	1	0	0	CorrectCommission	0.591799	0.535775	1
123.017044	0.795790	city	4	1	0.997021	0.997021	0	1	0	0	CorrectCommission	0.408668	0.553715	1
123.812805	0.795726	city	9	1	0.910627	0.910627	0	1	0	0	CorrectCommission	0.185756	0.567860	1
124.608597	0.795865	city	1	1	0.804258	0.804258	0	1	0	0	CorrectCommission	0.917618	0.576644	1
125.404404	0.795744	city	10	1	0.804618	0.804618	0	1	0	0	CorrectCommission	0.915137	0.578798	1
126.200203	0.795861	city	8	1	0.801814	0.801814	0	1	0	0	CorrectCommission	0.934434	0.573602	1
126.996033	0.795789	city	10	1	0.764232	0.764232	0	1	0	0	CorrectCommission	1.193011	0.560990	1
127.791817	0.795784	city	4	1	0.748263	0.748263	0	1	0	0	CorrectCommission	1.302880	0.541554	1
128.587616	0.795810	city	7	1	0.898343	0.898343	0	1	0	0	CorrectCommission	0.270274	0.516510	1
129.383392	0.795755	city	6	1	0.947037	0.947037	0	1	0	0	CorrectCommission	0.064758	0.487660	1
130.179199	0.795861	city	7	1	1.006245	1.006245	0	1	0	0	CorrectCommission	0.472135	0.457084	1
130.975174	0.796091	city	9	1	0.906909	0.906909	0	1	0	0	CorrectCommission	0.211339	0.426994	1
131.771088	0.795717	city	8	1	0.946925	0.946925	0	1	0	0	CorrectCommission	0.063989	0.399591	1
132.566757	0.795636	city	3	1	0.962024	0.962024	0	1	0	0	CorrectCommission	0.167877	0.376868	1
133.362457	0.795748	city	10	1	1.006282	1.006282	0	1	0	0	CorrectCommission	0.472388	0.360441	1
134.158249	0.795848	city	9	1	0.947281	0.947281	0	1	0	0	CorrectCommission	0.066437	0.351504	1
134.954041	0.795739	city	6	1	0.898247	0.898247	0	1	0	0	CorrectCommission	0.270936	0.350805	1
135.749802	0.795788	city	9	1	0.897403	0.897403	0	1	0	0	CorrectCommission	0.276743	0.358590	1
136.545593	0.795786	city	10	1	0.897388	0.897388	0	1	0	0	CorrectCommission	0.276845	0.374611	1
137.341431	0.795870	mountain	3	1	0.947122	0.947122	0	0	1	0	CommissionError	0.065347	0.398142	1
138.137283	0.795837	city	2	1	1.010260	1.010260	0	1	0	0	CorrectCommission	0.499756	0.428010	1
138.933228	0.796065	city	3	1	0.996903	0.996903	0	1	0	0	CorrectCommission	0.407857	0.462600	1
139.729019	0.795524	city	7	1	1.047388	1.047388	0	1	0	0	CorrectCommission	0.755211	0.499930	1
140.524658	0.795740	city	1	1	0.947869	0.947869	0	1	0	0	CorrectCommission	0.070480	0.537736	1
141.320450	0.795840	city	9	1	0.948527	0.948527	0	1	0	0	CorrectCommission	0.075008	0.573657	1
142.116226	0.795736	city	6	1	0.847644	0.847644	0	1	0	0	CorrectCommission	0.619104	0.605330	1
142.912018	0.795836	city	3	1	0.848582	0.848582	0	1	0	0	CorrectCommission	0.612648	0.630599	1
143.707840	0.795813	mountain	9	0	0.000000	0.728888	1	0	0	0	CorrectOmission	1.436187	0.647775	1
144.503677	0.795862	city	8	1	0.648667	0.648667	0	1	0	0	CorrectCommission	1.988141	0.655766	0
145.299500	0.795778	mountain	6	0	0.000000	0.768022	1	0	0	0	CorrectOmission	1.166934	0.654203	1
146.095291	0.795792	city	3	1	0.897564	0.897564	0	1	0	0	CorrectCommission	0.275632	0.643552	1
146.891205	0.796060	city	4	1	0.847906	0.847906	0	1	0	0	CorrectCommission	0.617303	0.624989	1
147.687149	0.795808	city	3	1	0.811374	0.811374	0	1	0	0	CorrectCommission	0.868657	0.600172	1
148.482834	0.795570	city	4	1	0.997091	0.997091	0	1	0	0	CorrectCommission	0.409148	0.571079	1
149.278503	0.795773	city	7	1	0.964788	0.964788	0	1	0	0	CorrectCommission	0.186893	0.539782	1
150.074249	0.795724	city	4	1	0.904022	0.904022	0	1	0	0	CorrectCommission	0.231200	0.508174	1
150.870056	0.795889	city	9	1	0.897508	0.897508	0	1	0	0	CorrectCommission	0.276021	0.477783	1
151.665894	0.795766	city	4	1	0.951309	0.951309	0	1	0	0	CorrectCommission	0.094154	0.449678	1
152.461823	0.796114	mountain	9	0	0.000000	0.875076	1	0	0	0	CorrectOmission	0.430361	0.424442	1
153.257660	0.795539	city	2	1	0.797542	0.797542	0	1	0	0	CorrectCommission	0.963821	0.402207	1
154.053314	0.795787	city	9	1	0.847444	0.847444	0	1	0	0	CorrectCommission	0.620482	0.382769	1
154.849091	0.795761	city	2	1	0.947632	0.947632	0	1	0	0	CorrectCommission	0.068849	0.365757	1
155.644867	0.795794	city	9	1	0.947320	0.947320	0	1	0	0	CorrectCommission	0.066708	0.350736	1
156.440674	0.795825	city	4	1	0.897587	0.897587	0	1	0	0	CorrectCommission	0.275475	0.337346	1
157.236481	0.795776	city	3	1	0.848562	0.848562	0	1	0	0	CorrectCommission	0.612789	0.325393	1
158.032272	0.795812	city	4	1	0.911963	0.911963	0	1	0	0	CorrectCommission	0.176565	0.314943	1
158.828064	0.795777	city	10	1	0.897346	0.897346	0	1	0	0	CorrectCommission	0.277134	0.306373	1
159.623901	0.795880	city	5	1	0.857311	0.857311	0	1	0	0	CorrectCommission	0.552588	0.300271	1
160.419739	0.795806	city	2	1	0.898108	0.898108	0	1	0	0	CorrectCommission	0.271892	0.297397	1
161.215530	0.795782	city	4	1	0.954223	0.954223	0	1	0	0	CorrectCommission	0.114202	0.298574	1
162.011307	0.795755	city	10	1	0.898255	0.898255	0	1	0	0	CorrectCommission	0.270880	0.304494	1
162.807068	0.795777	city	7	1	0.908152	0.908152	0	1	0	0	CorrectCommission	0.202785	0.315622	1
163.602859	0.795817	city	6	1	0.947410	0.947410	0	1	0	0	CorrectCommission	0.067323	0.332041	1
164.398697	0.795847	city	7	1	0.947106	0.947106	0	1	0	0	CorrectCommission	0.065233	0.353371	1
165.194534	0.795827	city	2	1	0.909491	0.909491	0	1	0	0	CorrectCommission	0.193572	0.378682	1
165.990341	0.795788	city	3	1	0.997541	0.997541	0	1	0	0	CorrectCommission	0.412246	0.406587	1
166.786133	0.795803	city	10	1	0.913186	0.913186	0	1	0	0	CorrectCommission	0.168151	0.435361	1
167.581909	0.795747	city	3	1	0.957675	0.957675	0	1	0	0	CorrectCommission	0.137951	0.463115	1
168.377701	0.795821	mountain	9	0	0.000000	0.859232	1	0	0	0	CorrectOmission	0.539374	0.488042	1
169.173508	0.795800	city	8	1	0.747957	0.747957	0	1	0	0	CorrectCommission	1.304985	0.508637	1
169.969284	0.795769	city	2	1	0.753952	0.753952	0	1	0	0	CorrectCommission	1.263739	0.523890	1
170.765091	0.795826	city	5	1	0.799799	0.799799	0	1	0	0	CorrectCommission	0.948291	0.533482	1
171.560913	0.795816	mountain	5	1	0.815280	0.815280	0	0	1	0	CommissionError	0.841778	0.537758	1
172.356735	0.795829	city	4	1	0.849255	0.849255	0	1	0	0	CorrectCommission	0.608019	0.537680	1
173.152527	0.795768	city	5	1	0.947348	0.947348	0	1	0	0	CorrectCommission	0.066900	0.534654	1
173.948334	0.795833	mountain	6	1	0.897899	0.897899	0	0	1	0	CommissionError	0.273332	0.530277	1
174.744125	0.795772	city	3	1	0.898735	0.898735	0	1	0	0	CorrectCommission	0.267580	0.526068	1
175.539917	0.795802	city	5	1	0.965973	0.965973	0	1	0	0	CorrectCommission	0.195046	0.523323	1
176.335739	0.795835	city	6	1	1.008935	1.008935	0	1	0	0	CorrectCommission	0.490642	0.522938	1
177.131561	0.795806	city	10	1	0.956588	0.956588	0	1	0	0	CorrectCommission	0.130473	0.525338	1
177.927322	0.795725	city	7	1	1.046660	1.046660	0	1	0	0	CorrectCommission	0.750206	0.530566	1
178.723114	0.795851	mountain	2	0	0.000000	0.896973	1	0	0	0	CorrectOmission	0.279701	0.538296	1
179.518951	0.795834	city	2	1	0.749903	0.749903	0	1	0	0	CorrectCommission	1.291601	0.548057	1
180.314774	0.795811	city	9	1	0.847826	0.847826	0	1	0	0	CorrectCommission	0.617847	0.559232	1
181.110565	0.795766	city	10	1	0.847607	0.847607	0	1	0	0	CorrectCommission	0.619357	0.571310	1
181.906326	0.795748	city	9	1	0.798121	0.798121	0	1	0	0	CorrectCommission	0.959843	0.583866	1
182.702103	0.795799	city	4	1	0.915093	0.915093	0	1	0	0	CorrectCommission	0.155031	0.596586	1
183.497910	0.795842	city	1	1	0.865522	0.865522	0	1	0	0	CorrectCommission	0.496097	0.609324	1
184.293716	0.795769	city	10	1	0.897609	0.897609	0	1	0	0	CorrectCommission	0.275323	0.621959	1
185.089676	0.796132	city	5	1	0.950930	0.950930	0	1	0	0	CorrectCommission	0.091544	0.634422	1
185.885498	0.795529	city	6	1	1.096326	1.096326	0	1	0	0	CorrectCommission	1.091921	0.646623	1
186.681168	0.795788	city	3	1	1.010285	1.010285	0	1	0	0	CorrectCommission	0.499931	0.658390	0
187.476974	0.795825	mountain	1	0	0.000000	0.785989	1	0	0	0	CorrectOmission	1.043313	0.669573	0
188.272751	0.795756	city	8	1	0.706482	0.706482	0	1	0	0	CorrectCommission	1.590347	0.679938	0
189.068527	0.795779	city	7	1	1.054812	1.054812	0	1	0	0	CorrectCommission	0.806291	0.689209	0
189.864319	0.795818	city	6	1	0.997041	0.997041	0	1	0	0	CorrectCommission	0.408803	0.697078	0
190.660172	0.795866	city	8	1	0.996833	0.996833	0	1	0	0	CorrectCommission	0.407374	0.703178	0
191.455978	0.795745	mountain	3	0	0.000000	0.930206	1	0	0	0	CorrectOmission	0.051045	0.707040	0
192.251740	0.795780	city	3	1	0.910420	0.910420	0	1	0	0	CorrectCommission	0.187179	0.708151	0
193.047531	0.795812	city	2	1	1.050736	1.050736	0	1	0	0	CorrectCommission	0.778250	0.706002	0
193.843353	0.795842	city	3	1	1.096469	1.096469	0	1	0	0	CorrectCommission	1.092906	0.700162	0
194.639191	0.795810	city	1	1	1.210146	1.210146	0	1	0	0	CorrectCommission	1.875051	0.690413	0
195.434952	0.795736	city	9	1	1.104381	1.104381	0	1	0	0	CorrectCommission	1.147347	0.676772	0
196.230759	0.795876	city	4	1	1.046522	1.046522	0	1	0	0	CorrectCommission	0.749250	0.659626	0
197.026733	0.796073	mountain	7	0	0.000000	1.012561	1	0	0	0	CorrectOmission	0.515591	0.639593	1
197.822540	0.795521	city	4	1	0.961941	0.961941	0	1	0	0	CorrectCommission	0.167302	0.617486	1
198.618210	0.795824	city	1	1	0.854099	0.854099	0	1	0	0	CorrectCommission	0.574687	0.594173	1
199.413971	0.795694	city	7	1	0.897163	0.897163	0	1	0	0	CorrectCommission	0.278391	0.570415	1
200.209732	0.795832	mountain	1	0	0.000000	0.912781	1	0	0	0	CorrectOmission	0.170938	0.546814	1
201.005569	0.795850	city	4	1	0.897489	0.897489	0	1	0	0	CorrectCommission	0.276151	0.523732	1
201.801407	0.795813	city	1	1	0.847825	0.847825	0	1	0	0	CorrectCommission	0.617856	0.501266	1
202.597168	0.795718	mountain	1	0	0.000000	0.806311	1	0	0	0	CorrectOmission	0.903493	0.479349	1
203.392929	0.795817	mountain	9	1	0.847877	0.847877	0	0	1	0	CommissionError	0.617497	0.457818	1
204.188751	0.795829	city	2	1	1.047458	1.047458	0	1	0	0	CorrectCommission	0.755694	0.436589	1
204.984589	0.795826	mountain	10	0	0.000000	0.955845	1	0	0	0	CorrectOmission	0.125361	0.415720	1
205.780548	0.796099	city	8	1	0.847612	0.847612	0	1	0	0	CorrectCommission	0.619322	0.395509	1
206.576355	0.795504	city	6	1	0.997334	0.997334	0	1	0	0	CorrectCommission	0.410820	0.376453	1
207.371994	0.795794	city	4	1	0.947756	0.947756	0	1	0	0	CorrectCommission	0.069703	0.359283	1
208.167801	0.795827	city	6	1	0.907591	0.907591	0	1	0	0	CorrectCommission	0.206647	0.344839	1
208.963623	0.795808	city	8	1	0.897217	0.897217	0	1	0	0	CorrectCommission	0.278023	0.333961	1
209.759567	0.796067	city	3	1	0.897269	0.897269	0	1	0	0	CorrectCommission	0.277665	0.327382	1
210.555328	0.795471	city	10	1	0.897539	0.897539	0	1	0	0	CorrectCommission	0.275803	0.325556	1
211.350967	0.795794	city	3	1	0.947137	0.947137	0	1	0	0	CorrectCommission	0.065448	0.328624	1
212.146927	0.796131	city	7	1	0.898609	0.898609	0	1	0	0	CorrectCommission	0.268445	0.336322	1
212.942749	0.795507	city	5	1	0.947731	0.947731	0	1	0	0	CorrectCommission	0.069533	0.348001	1
213.738403	0.795819	city	9	1	0.946982	0.946982	0	1	0	0	CorrectCommission	0.064383	0.362703	1
214.534241	0.795828	city	4	1	0.849803	0.849803	0	1	0	0	CorrectCommission	0.604249	0.379215	1
215.330017	0.795754	city	5	1	0.897207	0.897207	0	1	0	0	CorrectCommission	0.278091	0.396217	1
216.125778	0.795764	city	6	1	1.096653	1.096653	0	1	0	0	CorrectCommission	1.094171	0.412434	1
216.921600	0.795885	city	5	1	1.002215	1.002215	0	1	0	0	CorrectCommission	0.444402	0.426700	1
217.717575	0.796060	city	8	1	1.004218	1.004218	0	1	0	0	CorrectCommission	0.458188	0.438166	1
218.513382	0.795535	city	4	1	1.009992	1.009992	0	1	0	0	CorrectCommission	0.497914	0.446255	1
219.309006	0.795722	city	9	1	0.955957	0.955957	0	1	0	0	CorrectCommission	0.126131	0.450731	1
220.104813	0.795887	city	6	1	1.046535	1.046535	0	1	0	0	CorrectCommission	0.749343	0.451669	1
220.900604	0.795712	city	9	1	1.096217	1.096217	0	1	0	0	CorrectCommission	1.091170	0.449373	1
221.696548	0.796151	city	3	1	0.997410	0.997410	0	1	0	0	CorrectCommission	0.411343	0.444327	1
222.492355	0.795477	city	8	1	0.957109	0.957109	0	1	0	0	CorrectCommission	0.134057	0.437166	1
223.287994	0.795816	mountain	4	0	0.000000	0.937397	1	0	0	0	CorrectOmission	0.001569	0.428527	1
224.083817	0.795803	city	6	1	0.898067	0.898067	0	1	0	0	CorrectCommission	0.272170	0.418992	1
224.879608	0.795790	mountain	4	1	0.798915	0.798915	0	0	1	0	CommissionError	0.954380	0.409070	1
225.675400	0.795805	city	1	1	0.947066	0.947066	0	1	0	0	CorrectCommission	0.064962	0.399176	1
226.471237	0.795854	city	5	1	0.848421	0.848421	0	1	0	0	CorrectCommission	0.613756	0.389698	1
227.267059	0.795779	city	9	1	0.997333	0.997333	0	1	0	0	CorrectCommission	0.410816	0.380939	1
228.062988	0.796082	city	2	1	0.998821	0.998821	0	1	0	0	CorrectCommission	0.421050	0.373188	1
228.858749	0.795451	city	3	1	0.996622	0.996622	0	1	0	0	CorrectCommission	0.405920	0.366746	1
229.654404	0.795874	city	1	1	0.947094	0.947094	0	1	0	0	CorrectCommission	0.065154	0.361904	1
230.450394	0.796095	city	9	1	1.002729	1.002729	0	1	0	0	CorrectCommission	0.447943	0.358972	1
231.246170	0.795460	city	8	1	0.996484	0.996484	0	1	0	0	CorrectCommission	0.404969	0.358219	1
232.041824	0.795852	city	10	1	0.951541	0.951541	0	1	0	0	CorrectCommission	0.095749	0.359873	1
232.837646	0.795772	city	7	1	0.997508	0.997508	0	1	0	0	CorrectCommission	0.412018	0.364106	1
233.633438	0.795830	city	2	1	0.947454	0.947454	0	1	0	0	CorrectCommission	0.067629	0.370931	1
234.429230	0.795733	city	6	1	1.012480	1.012480	0	1	0	0	CorrectCommission	0.515032	0.380262	1
235.225037	0.795895	city	1	1	0.997136	0.997136	0	1	0	0	CorrectCommission	0.409457	0.391805	1
236.021011	0.796067	city	6	1	0.996706	0.996706	0	1	0	0	CorrectCommission	0.406498	0.405101	1
236.816818	0.795536	city	10	1	0.996959	0.996959	0	1	0	0	CorrectCommission	0.408240	0.419522	1
237.612488	0.795785	city	5	1	0.997078	0.997078	0	1	0	0	CorrectCommission	0.409062	0.434253	1
238.408279	0.795818	city	6	1	1.046759	1.046759	0	1	0	0	CorrectCommission	0.750884	0.448342	1
239.204056	0.795734	city	4	1	0.947427	0.947427	0	1	0	0	CorrectCommission	0.067445	0.460778	1
239.999847	0.795839	city	8	1	0.915725	0.915725	0	1	0	0	CorrectCommission	0.150683	0.470581	1
240.795639	0.795751	city	3	1	0.848848	0.848848	0	1	0	0	CorrectCommission	0.610817	0.476880	1
241.591446	0.795873	city	6	1	0.859751	0.859751	0	1	0	0	CorrectCommission	0.535806	0.479014	1
242.387283	0.795803	city	9	1	0.757439	0.757439	0	1	0	0	CorrectCommission	1.239747	0.476678	1
243.183228	0.796076	city	3	1	0.848516	0.848516	0	1	0	0	CorrectCommission	0.613100	0.470009	1
243.978989	0.795454	city	10	1	0.806408	0.806408	0	1	0	0	CorrectCommission	0.902823	0.459607	1
244.774628	0.795820	city	8	1	0.859077	0.859077	0	1	0	0	CorrectCommission	0.540442	0.446493	1
245.570435	0.795773	city	6	1	0.898378	0.898378	0	1	0	0	CorrectCommission	0.270035	0.432075	1
246.366257	0.795884	city	7	1	0.947502	0.947502	0	1	0	0	CorrectCommission	0.067959	0.417977	1
247.162064	0.795727	city	1	1	0.905956	0.905956	0	1	0	0	CorrectCommission	0.217894	0.405884	1
247.957870	0.795881	city	8	1	0.906642	0.906642	0	1	0	0	CorrectCommission	0.213174	0.397338	1
248.753693	0.795755	city	5	1	0.904753	0.904753	0	1	0	0	CorrectCommission	0.226168	0.393598	1
249.549469	0.795796	city	1	1	0.897561	0.897561	0	1	0	0	CorrectCommission	0.275653	0.395488	1
250.345261	0.795817	city	9	1	0.958915	0.958915	0	1	0	0	CorrectCommission	0.146482	0.403316	1
251.141083	0.795808	city	4	1	0.897483	0.897483	0	1	0	0	CorrectCommission	0.276189	0.416841	1
251.936874	0.795777	city	1	1	0.847812	0.847812	0	1	0	0	CorrectCommission	0.617946	0.435300	1
252.732651	0.795778	city	2	1	0.997467	0.997467	0	1	0	0	CorrectCommission	0.411737	0.457504	1
253.528595	0.796123	city	10	1	0.997055	0.997055	0	1	0	0	CorrectCommission	0.408898	0.481941	1
254.324432	0.795546	city	6	1	1.046518	1.046518	0	1	0	0	CorrectCommission	0.749224	0.506936	1
255.120102	0.795787	city	3	1	0.947335	0.947335	0	1	0	0	CorrectCommission	0.066809	0.530825	1
255.915878	0.795765	city	9	1	0.997507	0.997507	0	1	0	0	CorrectCommission	0.412013	0.552145	1
256.711639	0.795775	city	7	1	1.009000	1.009000	0	1	0	0	CorrectCommission	0.491090	0.569783	1
257.507446	0.795826	mountain	7	0	0.000000	0.775465	1	0	0	0	CorrectOmission	1.115722	0.583114	1
258.303253	0.795781	mountain	2	1	0.665310	0.665310	0	0	1	0	CommissionError	1.873631	0.592031	1
259.099060	0.795837	city	6	1	1.046944	1.046944	0	1	0	0	CorrectCommission	0.752157	0.596983	1
259.894867	0.795755	city	9	1	0.997459	0.997459	0	1	0	0	CorrectCommission	0.411680	0.598942	1
260.690674	0.795853	city	6	1	0.996857	0.996857	0	1	0	0	CorrectCommission	0.407542	0.599170	1
261.486633	0.796122	city	8	1	0.898463	0.898463	0	1	0	0	CorrectCommission	0.269448	0.599010	1
262.282623	0.795802	mountain	8	0	0.000000	0.922943	1	0	0	0	CorrectOmission	0.101017	0.599701	1
263.078278	0.795523	city	5	1	0.997056	0.997056	0	1	0	0	CorrectCommission	0.408908	0.602158	1
263.873932	0.795806	city	2	1	1.047560	1.047560	0	1	0	0	CorrectCommission	0.756398	0.606834	1
264.669739	0.795773	city	8	1	0.997507	0.997507	0	1	0	0	CorrectCommission	0.412012	0.613643	1
265.465515	0.795801	city	4	1	1.046796	1.046796	0	1	0	0	CorrectCommission	0.751140	0.622028	1
266.261322	0.795805	city	10	1	0.956047	0.956047	0	1	0	0	CorrectCommission	0.126751	0.631023	1
267.057098	0.795776	city	1	1	1.047341	1.047341	0	1	0	0	CorrectCommission	0.754887	0.639420	1
267.853058	0.796123	city	5	1	1.158624	1.158624	0	1	0	0	CorrectCommission	1.520554	0.645928	1
268.648834	0.795460	mountain	6	0	0.000000	1.029200	1	0	0	0	CorrectOmission	0.630070	0.649372	1
269.444519	0.795871	city	5	1	0.847916	0.847916	0	1	0	0	CorrectCommission	0.617232	0.648904	1
270.240326	0.795775	city	1	1	0.803618	0.803618	0	1	0	0	CorrectCommission	0.922018	0.644055	1
271.036102	0.795768	city	7	1	0.847747	0.847747	0	1	0	0	CorrectCommission	0.618396	0.634797	1
271.831909	0.795813	city	5	1	0.803558	0.803558	0	1	0	0	CorrectCommission	0.922430	0.621555	1
272.627686	0.795782	city	1	1	0.847819	0.847819	0	1	0	0	CorrectCommission	0.617899	0.605126	1
273.423492	0.795819	city	4	1	0.897599	0.897599	0	1	0	0	CorrectCommission	0.275395	0.586589	1
274.219299	0.795811	city	1	1	0.898007	0.898007	0	1	0	0	CorrectCommission	0.272584	0.567160	1
275.015106	0.795794	city	9	1	0.809991	0.809991	0	1	0	0	CorrectCommission	0.878168	0.548021	1
275.810944	0.795854	city	10	1	0.847670	0.847670	0	1	0	0	CorrectCommission	0.618927	0.530186	1
276.606781	0.795807	city	8	1	0.857386	0.857386	0	1	0	0	CorrectCommission	0.552071	0.514491	1
277.402710	0.796068	city	1	1	0.996707	0.996707	0	1	0	0	CorrectCommission	0.406506	0.501457	1
278.198456	0.795445	city	3	1	0.947093	0.947093	0	1	0	0	CorrectCommission	0.065144	0.491254	1
278.994110	0.795859	mountain	7	1	0.898904	0.898904	0	0	1	0	CommissionError	0.266417	0.483738	1
279.789948	0.795826	city	3	1	0.918749	0.918749	0	1	0	0	CorrectCommission	0.129872	0.478482	1
280.585785	0.795798	city	8	1	0.997966	0.997966	0	1	0	0	CorrectCommission	0.415168	0.474883	1
281.381561	0.795780	city	5	1	1.096526	1.096526	0	1	0	0	CorrectCommission	1.093301	0.472228	1
282.177368	0.795813	city	1	1	0.996773	0.996773	0	1	0	0	CorrectCommission	0.406960	0.469830	1
282.973114	0.795718	city	2	1	1.046892	1.046892	0	1	0	0	CorrectCommission	0.751800	0.467182	1
283.768921	0.795902	city	1	1	1.047302	1.047302	0	1	0	0	CorrectCommission	0.754618	0.463934	1
284.564789	0.795799	city	10	1	0.998617	0.998617	0	1	0	0	CorrectCommission	0.419651	0.459978	1
285.360535	0.795719	city	6	1	1.000785	1.000785	0	1	0	0	CorrectCommission	0.434568	0.455392	1
286.156342	0.795881	mountain	8	0	0.000000	0.953861	1	0	0	0	CorrectOmission	0.111713	0.450464	1
286.952179	0.795774	city	10	1	0.904002	0.904002	0	1	0	0	CorrectCommission	0.231341	0.445598	1
287.747925	0.795743	city	1	1	0.897363	0.897363	0	1	0	0	CorrectCommission	0.277019	0.441270	1
288.543701	0.795803	city	8	1	0.847903	0.847903	0	1	0	0	CorrectCommission	0.617321	0.438009	1
289.339539	0.795887	city	3	1	0.847588	0.847588	0	1	0	0	CorrectCommission	0.619489	0.436413	1
290.135376	0.795765	city	4	1	0.906989	0.906989	0	1	0	0	CorrectCommission	0.210788	0.437131	1
290.931183	0.795844	city	9	1	0.854893	0.854893	0	1	0	0	CorrectCommission	0.569224	0.440909	1
291.726990	0.795768	city	4	1	0.848512	0.848512	0	1	0	0	CorrectCommission	0.613132	0.448467	1
292.522766	0.795831	city	3	1	0.849986	0.849986	0	1	0	0	CorrectCommission	0.602988	0.460499	1
293.318573	0.795752	city	6	1	0.947385	0.947385	0	1	0	0	CorrectCommission	0.067155	0.477577	1
294.114349	0.795786	city	4	1	0.910357	0.910357	0	1	0	0	CorrectCommission	0.187617	0.500085	1
294.910156	0.795829	city	8	1	0.860037	0.860037	0	1	0	0	CorrectCommission	0.533837	0.528033	1
295.705963	0.795789	mountain	3	0	0.000000	0.861968	1	0	0	0	CorrectOmission	0.520551	0.561005	1
296.501770	0.795844	city	2	1	0.897330	0.897330	0	1	0	0	CorrectCommission	0.277242	0.598160	1
297.297577	0.795784	city	4	1	0.947305	0.947305	0	1	0	0	CorrectCommission	0.066604	0.638216	1
298.093536	0.796099	city	9	1	1.054680	1.054680	0	1	0	0	CorrectCommission	0.805384	0.679571	0
298.889465	0.795796	city	2	1	1.001850	1.001850	0	1	0	0	CorrectCommission	0.441896	0.720398	0
299.685120	0.795490	city	6	1	1.095843	1.095843	0	1	0	0	CorrectCommission	1.088601	0.759066	0
300.480774	0.795784	city	5	1	1.096497	1.096497	0	1	0	0	CorrectCommission	1.093098	0.794242	0
301.276581	0.795871	city	7	1	1.215035	1.215035	0	1	0	0	CorrectCommission	1.908688	0.825190	0
302.072418	0.795787	city	6	1	1.096205	1.096205	0	1	0	0	CorrectCommission	1.091091	0.851846	0
302.868195	0.795740	city	5	1	1.101056	1.101056	0	1	0	0	CorrectCommission	1.124468	0.874905	0
303.663940	0.795780	city	8	1	0.961835	0.961835	0	1	0	0	CorrectCommission	0.166574	0.895632	0
304.459747	0.795853	city	9	1	1.096990	1.096990	0	1	0	0	CorrectCommission	1.096491	0.915613	0
305.255554	0.795752	city	4	1	1.059938	1.059938	0	1	0	0	CorrectCommission	0.841558	0.936381	0
306.051361	0.795824	city	7	1	1.146031	1.146031	0	1	0	0	CorrectCommission	1.433914	0.959141	0
306.847198	0.795853	city	3	1	1.001252	1.001252	0	1	0	0	CorrectCommission	0.437781	0.984376	0
307.643005	0.795815	city	9	1	0.996841	0.996841	0	1	0	0	CorrectCommission	0.407427	1.011748	0
308.438782	0.795722	city	1	1	0.947332	0.947332	0	1	0	0	CorrectCommission	0.066786	1.039906	0
309.234589	0.795852	city	9	1	1.046663	1.046663	0	1	0	0	CorrectCommission	0.750223	1.066637	0
310.030396	0.795769	city	8	1	1.046760	1.046760	0	1	0	0	CorrectCommission	0.750890	1.089156	0
310.826202	0.795862	city	5	0	0.000000	0.764943	0	0	0	1	OmissionError	1.188114	1.104532	0
311.622040	0.795800	city	10	1	0.499614	0.499614	0	1	0	0	CorrectCommission	3.013681	1.110121	0
312.417816	0.795773	city	6	1	0.549172	0.549172	0	1	0	0	CorrectCommission	2.672704	1.104017	0
313.213593	0.795798	mountain	5	1	0.599578	0.599578	0	0	1	0	CommissionError	2.325888	1.085504	0
314.009369	0.795742	city	2	1	0.847683	0.847683	0	1	0	0	CorrectCommission	0.618834	1.055195	0
314.805206	0.795894	city	5	1	0.812848	0.812848	0	1	0	0	CorrectCommission	0.858511	1.014989	0
315.601044	0.795805	city	6	1	0.997009	0.997009	0	1	0	0	CorrectCommission	0.408588	0.967720	0
316.396790	0.795710	city	4	1	0.997725	0.997725	0	1	0	0	CorrectCommission	0.413513	0.916914	0
317.192566	0.795823	city	8	1	0.997744	0.997744	0	1	0	0	CorrectCommission	0.413643	0.866295	0
317.988373	0.795774	mountain	3	0	0.000000	0.826143	1	0	0	0	CorrectOmission	0.767038	0.819401	0
318.784210	0.795897	mountain	5	1	0.715215	0.715215	0	0	1	0	CommissionError	1.530268	0.779162	0
319.579987	0.795705	city	3	1	0.897252	0.897252	0	1	0	0	CorrectCommission	0.277782	0.747779	0
320.375793	0.795850	city	1	1	0.897675	0.897675	0	1	0	0	CorrectCommission	0.274870	0.726617	0
321.171600	0.795775	city	4	1	0.909943	0.909943	0	1	0	0	CorrectCommission	0.190462	0.716028	0
321.967407	0.795865	city	3	1	0.947761	0.947761	0	1	0	0	CorrectCommission	0.069737	0.715621	0
322.763245	0.795802	mountain	7	1	0.864128	0.864128	0	0	1	0	CommissionError	0.505687	0.724532	0
323.559021	0.795765	city	8	1	1.060142	1.060142	0	1	0	0	CorrectCommission	0.842962	0.741580	0
324.354797	0.795760	city	9	0	0.000000	0.845531	0	0	0	1	OmissionError	0.633642	0.765672	0
325.150574	0.795805	city	10	1	0.611259	0.611259	0	1	0	0	CorrectCommission	2.245523	0.796030	0
325.946411	0.795853	city	9	1	0.748289	0.748289	0	1	0	0	CorrectCommission	1.302706	0.832269	0
326.742249	0.795832	city	4	1	0.953932	0.953932	0	1	0	0	CorrectCommission	0.112202	0.874547	0
327.538025	0.795753	city	2	1	0.897513	0.897513	0	1	0	0	CorrectCommission	0.275988	0.923451	0
328.333832	0.795819	city	8	1	0.897419	0.897419	0	1	0	0	CorrectCommission	0.276630	0.979754	0
329.129608	0.795744	city	3	1	1.199563	1.199563	0	1	0	0	CorrectCommission	1.802235	1.044161	0
329.925415	0.795851	city	4	1	1.102051	1.102051	0	1	0	0	CorrectCommission	1.131315	1.116984	0
330.721222	0.795793	city	8	1	1.063203	1.063203	0	1	0	0	CorrectCommission	0.864026	1.197912	0
331.516998	0.795771	city	5	1	1.003437	1.003437	0	1	0	0	CorrectCommission	0.452811	1.285759	0
332.312958	0.796117	city	7	1	1.047699	1.047699	0	1	0	0	CorrectCommission	0.757350	1.378282	0
333.108795	0.795571	city	1	1	1.100031	1.100031	0	1	0	0	CorrectCommission	1.117418	1.472177	0
333.904419	0.795701	city	7	0	0.000000	0.800887	0	0	0	1	OmissionError	0.940809	1.563271	0
334.700378	0.796176	city	1	1	0.450888	0.450888	0	1	0	0	CorrectCommission	3.348936	1.646805	0
335.496185	0.795453	city	3	1	0.350656	0.350656	0	1	0	0	CorrectCommission	4.038565	1.717750	0
336.291840	0.795878	city	9	1	0.947251	0.947251	0	1	0	0	CorrectCommission	0.066231	1.771401	0
337.087677	0.795776	mountain	10	0	0.000000	0.820214	1	0	0	0	CorrectOmission	0.807831	1.804003	0
337.883453	0.795793	city	2	1	0.499758	0.499758	0	1	0	0	CorrectCommission	3.012687	1.812851	0
338.679260	0.795814	city	6	1	0.516097	0.516097	0	1	0	0	CorrectCommission	2.900274	1.796738	0
339.475067	0.795774	city	10	1	0.461288	0.461288	0	1	0	0	CorrectCommission	3.277380	1.756267	0
340.270874	0.795847	city	8	1	0.450660	0.450660	0	1	0	0	CorrectCommission	3.350500	1.693695	0
341.066833	0.796062	city	2	1	0.566732	0.566732	0	1	0	0	CorrectCommission	2.551882	1.612736	0
341.862579	0.795461	city	3	1	0.797532	0.797532	0	1	0	0	CorrectCommission	0.963895	1.518231	0
342.658264	0.795880	city	4	1	0.910708	0.910708	0	1	0	0	CorrectCommission	0.185196	1.415543	0
343.454102	0.795805	city	8	1	0.947318	0.947318	0	1	0	0	CorrectCommission	0.066690	1.309999	0
344.249878	0.795724	mountain	2	0	0.000000	1.045470	1	0	0	0	CorrectOmission	0.742015	1.206401	0
345.045624	0.795796	city	9	1	1.101112	1.101112	0	1	0	0	CorrectCommission	1.124854	1.108611	0
345.841461	0.795872	city	7	1	1.010192	1.010192	0	1	0	0	CorrectCommission	0.499287	1.019458	0
346.637299	0.795782	city	5	1	1.048735	1.048735	0	1	0	0	CorrectCommission	0.764477	0.940693	0
347.433044	0.795764	city	8	1	1.096245	1.096245	0	1	0	0	CorrectCommission	1.091367	0.873165	0
348.228821	0.795795	city	1	1	1.046840	1.046840	0	1	0	0	CorrectCommission	0.751440	0.817055	0
349.024658	0.795877	city	5	1	1.148261	1.148261	0	1	0	0	CorrectCommission	1.449258	0.772171	0
349.820465	0.795714	mountain	3	0	0.000000	1.021089	1	0	0	0	CorrectOmission	0.574264	0.738064	0
350.616394	0.796141	city	7	1	0.848085	0.848085	0	1	0	0	CorrectCommission	0.616065	0.714239	0
351.412231	0.795508	city	5	1	0.812013	0.812013	0	1	0	0	CorrectCommission	0.864255	0.700129	0
352.207855	0.795780	city	9	1	0.947344	0.947344	0	1	0	0	CorrectCommission	0.066871	0.694984	0
353.003815	0.796129	city	3	1	0.947082	0.947082	0	1	0	0	CorrectCommission	0.065072	0.697809	0
353.799591	0.795440	city	4	1	0.915665	0.915665	0	1	0	0	CorrectCommission	0.151091	0.707336	0
354.595276	0.795904	city	5	1	0.996898	0.996898	0	1	0	0	CorrectCommission	0.407819	0.721885	0
355.391144	0.795855	city	8	1	1.011785	1.011785	0	1	0	0	CorrectCommission	0.510247	0.739364	0
356.186951	0.795740	mountain	2	0	0.000000	0.873157	1	0	0	0	CorrectOmission	0.443567	0.757463	0
356.982697	0.795775	city	10	1	0.709307	0.709307	0	1	0	0	CorrectCommission	1.570911	0.773884	0
357.778503	0.795835	city	1	1	0.648531	0.648531	0	1	0	0	CorrectCommission	1.989076	0.786529	0
358.574310	0.795779	mountain	10	1	0.699769	0.699769	0	0	1	0	CommissionError	1.636539	0.793819	0
359.370087	0.795735	city	4	1	0.798545	0.798545	0	1	0	0	CorrectCommission	0.956921	0.794879	0
360.165863	0.795844	city	5	1	0.906395	0.906395	0	1	0	0	CorrectCommission	0.214877	0.789576	0
360.961700	0.795841	mountain	4	0	0.000000	1.003003	1	0	0	0	CorrectOmission	0.449826	0.778452	0
361.757507	0.795732	city	7	1	0.997459	0.997459	0	1	0	0	CorrectCommission	0.411682	0.762574	0
362.553284	0.795828	city	8	1	0.798851	0.798851	0	1	0	0	CorrectCommission	0.954817	0.743377	0
363.349060	0.795756	city	10	1	0.799859	0.799859	0	1	0	0	CorrectCommission	0.947882	0.722463	0
364.144867	0.795840	city	5	1	1.097359	1.097359	0	1	0	0	CorrectCommission	1.099031	0.701409	0
364.940857	0.796117	city	9	1	1.047551	1.047551	0	1	0	0	CorrectCommission	0.756333	0.681577	0
365.736633	0.795444	city	10	1	0.903727	0.903727	0	1	0	0	CorrectCommission	0.233228	0.664070	0
366.532410	0.796150	city	4	1	0.957179	0.957179	0	1	0	0	CorrectCommission	0.134541	0.649616	1
367.328247	0.795506	city	1	1	0.904205	0.904205	0	1	0	0	CorrectCommission	0.229941	0.638628	1
368.123901	0.795798	city	5	1	0.996770	0.996770	0	1	0	0	CorrectCommission	0.406943	0.631214	1
368.919861	0.796116	city	1	1	1.046744	1.046744	0	1	0	0	CorrectCommission	0.750779	0.627272	1
369.715698	0.795536	city	10	1	1.096705	1.096705	0	1	0	0	CorrectCommission	1.094534	0.626632	1
370.511322	0.795710	city	4	1	1.146256	1.146256	0	1	0	0	CorrectCommission	1.435459	0.629115	1
371.307098	0.795898	city	8	1	1.006264	1.006264	0	1	0	0	CorrectCommission	0.472264	0.634620	1
372.103088	0.796024	city	3	1	1.001288	1.001288	0	1	0	0	CorrectCommission	0.438024	0.643219	1
372.898865	0.795546	city	10	1	0.912887	0.912887	0	1	0	0	CorrectCommission	0.170207	0.655058	0
373.694672	0.796081	city	9	1	0.897620	0.897620	0	1	0	0	CorrectCommission	0.275251	0.670398	0
374.490448	0.795462	city	5	1	1.005771	1.005771	0	1	0	0	CorrectCommission	0.468869	0.689520	0
375.286102	0.795880	city	4	1	1.060786	1.060786	0	1	0	0	CorrectCommission	0.847393	0.712845	0
376.081940	0.795768	city	3	1	0.996924	0.996924	0	1	0	0	CorrectCommission	0.407998	0.740944	0
376.877686	0.795744	city	4	1	1.096531	1.096531	0	1	0	0	CorrectCommission	1.093332	0.774645	0
377.673492	0.795879	city	1	1	1.096883	1.096883	0	1	0	0	CorrectCommission	1.095758	0.815005	0
378.469360	0.795816	city	2	1	1.096176	1.096176	0	1	0	0	CorrectCommission	1.090892	0.863313	0
379.265106	0.795717	city	10	1	1.055196	1.055196	0	1	0	0	CorrectCommission	0.808932	0.920935	0
380.060913	0.795848	city	8	1	0.997884	0.997884	0	1	0	0	CorrectCommission	0.414607	0.989117	0
380.856750	0.795838	city	6	1	1.046761	1.046761	0	1	0	0	CorrectCommission	0.750898	1.068645	0
381.652710	0.796065	city	1	1	1.047466	1.047466	0	1	0	0	CorrectCommission	0.755746	1.159555	0
382.448486	0.795500	city	6	1	1.160897	1.160897	0	1	0	0	CorrectCommission	1.536197	1.260787	0
383.244141	0.795832	city	2	1	1.101109	1.101109	0	1	0	0	CorrectCommission	1.124830	1.369917	0
384.039948	0.795755	city	6	1	1.046823	1.046823	0	1	0	0	CorrectCommission	0.751324	1.483163	0
384.835724	0.795815	mountain	9	0	0.000000	1.063435	1	0	0	0	CorrectOmission	0.865624	1.595448	0
385.631683	0.796124	city	8	1	1.009933	1.009933	0	1	0	0	CorrectCommission	0.497510	1.700743	0
386.427643	0.795797	city	2	0	0.000000	0.745305	0	0	0	1	OmissionError	1.323234	1.792628	0
387.223267	0.795446	city	8	1	0.451336	0.451336	0	1	0	0	CorrectCommission	3.345855	1.864930	0
388.018890	0.795807	city	2	1	0.309811	0.309811	0	1	0	0	CorrectCommission	4.319599	1.912439	0
388.814697	0.795799	city	7	1	0.300825	0.300825	0	1	0	0	CorrectCommission	4.381426	1.931655	0
389.610535	0.795889	city	10	1	0.549546	0.549546	0	1	0	0	CorrectCommission	2.670128	1.921248	0
390.406403	0.795790	city	7	1	0.499354	0.499354	0	1	0	0	CorrectCommission	3.015472	1.882211	0
391.202179	0.795785	city	10	1	0.648649	0.648649	0	1	0	0	CorrectCommission	1.988267	1.817593	0
391.997955	0.795768	city	3	1	0.749072	0.749072	0	1	0	0	CorrectCommission	1.297314	1.732262	0
392.793762	0.795861	city	7	1	0.798379	0.798379	0	1	0	0	CorrectCommission	0.958065	1.632215	0
393.589752	0.796078	city	2	1	0.810319	0.810319	0	1	0	0	CorrectCommission	0.875912	1.523954	0
394.385498	0.795426	city	10	1	0.898978	0.898978	0	1	0	0	CorrectCommission	0.265903	1.413819	0
395.181122	0.795848	city	4	1	1.096912	1.096912	0	1	0	0	CorrectCommission	1.095958	1.307512	0
395.976959	0.795816	city	8	0	0.000000	0.872527	0	0	0	1	OmissionError	0.447901	1.209661	0
396.772736	0.795758	city	7	1	0.598817	0.598817	0	1	0	0	CorrectCommission	2.331129	1.123752	0
397.568542	0.795835	city	2	1	0.648778	0.648778	0	1	0	0	CorrectCommission	1.987375	1.051908	0
398.364380	0.795827	city	3	1	0.848173	0.848173	0	1	0	0	CorrectCommission	0.615465	0.995065	0
399.160187	0.795799	city	7	1	0.996887	0.996887	0	1	0	0	CorrectCommission	0.407745	0.953009	0
399.955994	0.795827	city	1	1	0.947323	0.947323	0	1	0	0	CorrectCommission	0.066726	0.924440	0
400.751770	0.795742	city	4	1	0.996768	0.996768	0	1	0	0	CorrectCommission	0.406925	0.907134	0
401.547577	0.795817	city	9	1	0.953219	0.953219	0	1	0	0	CorrectCommission	0.107296	0.898153	0
402.343506	0.796101	city	7	1	0.947191	0.947191	0	1	0	0	CorrectCommission	0.065817	0.894111	0
403.139343	0.795546	city	9	1	1.046300	1.046300	0	1	0	0	CorrectCommission	0.747726	0.891632	0
403.935028	0.795810	city	8	0	0.000000	0.772827	0	0	0	1	OmissionError	1.133872	0.887663	0
404.730774	0.795704	city	7	1	0.500126	0.500126	0	1	0	0	CorrectCommission	3.010160	0.879895	0
405.526550	0.795810	mountain	2	0	0.000000	0.601550	1	0	0	0	CorrectOmission	2.312319	0.867136	0
406.322388	0.795870	city	10	1	0.797927	0.797927	0	1	0	0	CorrectCommission	0.961175	0.849698	0
407.118195	0.795797	mountain	1	1	0.810081	0.810081	0	0	1	0	CommissionError	0.877552	0.829394	0
407.913971	0.795749	city	6	1	0.996706	0.996706	0	1	0	0	CorrectCommission	0.406502	0.809231	0
408.709747	0.795775	city	9	1	0.897318	0.897318	0	1	0	0	CorrectCommission	0.277329	0.793109	0
409.505554	0.795850	city	3	1	0.996745	0.996745	0	1	0	0	CorrectCommission	0.406769	0.785256	0
410.301392	0.795813	city	10	1	0.897570	0.897570	0	1	0	0	CorrectCommission	0.275591	0.789572	0
411.097198	0.795789	city	8	1	0.947161	0.947161	0	1	0	0	CorrectCommission	0.065610	0.809042	0
411.892975	0.795758	city	3	1	0.996674	0.996674	0	1	0	0	CorrectCommission	0.406282	0.845282	0
412.688782	0.795900	city	1	1	0.996782	0.996782	0	1	0	0	CorrectCommission	0.407026	0.898130	0
413.484619	0.795749	city	7	1	1.011556	1.011556	0	1	0	0	CorrectCommission	0.508676	0.965661	0
414.280365	0.795747	city	3	1	0.947375	0.947375	0	1	0	0	CorrectCommission	0.067084	1.044229	0
415.076141	0.795807	city	4	1	1.159859	1.159859	0	1	0	0	CorrectCommission	1.529055	1.128965	0
415.872009	0.795906	city	7	1	1.096624	1.096624	0	1	0	0	CorrectCommission	1.093975	1.214342	0
416.667816	0.795741	city	6	1	1.147102	1.147102	0	1	0	0	CorrectCommission	1.441279	1.294932	0
417.463623	0.795837	mountain	10	0	0.000000	0.781941	1	0	0	0	CorrectOmission	1.071167	1.366036	0
418.259430	0.795830	city	6	1	0.400016	0.400016	0	1	0	0	CorrectCommission	3.698955	1.424313	0
419.055389	0.796029	city	3	1	0.400201	0.400201	0	1	0	0	CorrectCommission	3.697679	1.467972	0
419.851288	0.795828	city	6	1	0.698834	0.698834	0	1	0	0	CorrectCommission	1.642970	1.497079	0
420.646942	0.795447	city	1	1	0.764702	0.764702	0	1	0	0	CorrectCommission	1.189776	1.513291	0
421.442596	0.795891	mountain	10	0	0.000000	0.709486	1	0	0	0	CorrectOmission	1.569680	1.519274	0
422.238434	0.795757	city	8	1	0.748416	0.748416	0	1	0	0	CorrectCommission	1.301828	1.518060	0
423.034210	0.795822	city	3	1	1.096720	1.096720	0	1	0	0	CorrectCommission	1.094638	1.512485	0
423.830017	0.795791	city	1	1	0.999195	0.999195	0	1	0	0	CorrectCommission	0.423626	1.504547	0
424.625854	0.795840	city	3	1	1.046648	1.046648	0	1	0	0	CorrectCommission	0.750121	1.495041	0
425.421631	0.795734	city	8	1	0.997505	0.997505	0	1	0	0	CorrectCommission	0.411995	1.483411	0
426.217438	0.795867	city	5	0	0.000000	0.813530	0	0	0	1	OmissionError	0.853818	1.467995	0
427.013275	0.795804	city	1	1	0.598914	0.598914	0	1	0	0	CorrectCommission	2.330460	1.446419	0
427.809204	0.796050	city	6	0	0.000000	0.457845	0	0	0	1	OmissionError	3.301070	1.416174	0
428.604980	0.795545	city	1	1	0.450106	0.450106	0	1	0	0	CorrectCommission	3.354314	1.375315	0
429.400635	0.795745	mountain	8	0	0.000000	0.635482	1	0	0	0	CorrectOmission	2.078856	1.323000	0
430.196442	0.795863	city	8	1	0.805068	0.805068	0	1	0	0	CorrectCommission	0.912044	1.259748	0
430.992279	0.795787	city	10	1	0.749957	0.749957	0	1	0	0	CorrectCommission	1.291225	1.187528	0
431.788208	0.796081	city	4	1	0.848521	0.848521	0	1	0	0	CorrectCommission	0.613070	1.109511	0
432.583984	0.795507	city	2	1	0.867258	0.867258	0	1	0	0	CorrectCommission	0.484154	1.029711	0
433.379639	0.795791	city	6	1	1.096230	1.096230	0	1	0	0	CorrectCommission	1.091265	0.952493	0
434.175446	0.795817	city	1	1	0.947232	0.947232	0	1	0	0	CorrectCommission	0.066103	0.881919	0
434.971283	0.795838	city	8	1	0.897435	0.897435	0	1	0	0	CorrectCommission	0.276523	0.821441	0
435.767059	0.795726	city	10	1	0.860614	0.860614	0	1	0	0	CorrectCommission	0.529865	0.773316	0
436.562805	0.795785	city	5	1	0.897301	0.897301	0	1	0	0	CorrectCommission	0.277441	0.738561	0
437.358795	0.796155	city	3	1	0.847833	0.847833	0	1	0	0	CorrectCommission	0.617803	0.716941	0
438.154602	0.795486	city	9	1	1.096608	1.096608	0	1	0	0	CorrectCommission	1.093864	0.707068	0
438.950256	0.795799	city	2	1	0.961995	0.961995	0	1	0	0	CorrectCommission	0.167674	0.706644	0
439.746033	0.795759	city	1	1	0.997709	0.997709	0	1	0	0	CorrectCommission	0.413404	0.712900	0
440.541840	0.795880	city	5	1	1.047282	1.047282	0	1	0	0	CorrectCommission	0.754481	0.722870	0
441.337677	0.795778	city	4	1	1.055871	1.055871	0	1	0	0	CorrectCommission	0.813578	0.733822	0
442.133453	0.795811	city	9	1	1.096940	1.096940	0	1	0	0	CorrectCommission	1.096147	0.743579	0
442.929291	0.795831	city	1	1	1.064150	1.064150	0	1	0	0	CorrectCommission	0.870537	0.750754	0
443.725098	0.795788	city	5	1	1.108680	1.108680	0	1	0	0	CorrectCommission	1.176924	0.754920	0
444.520844	0.795728	mountain	1	1	0.599592	0.599592	0	0	1	0	CommissionError	2.325793	0.756535	0
445.316650	0.795889	city	4	1	0.909739	0.909739	0	1	0	0	CorrectCommission	0.191865	0.756839	0
446.112488	0.795775	city	8	1	0.904116	0.904116	0	1	0	0	CorrectCommission	0.230554	0.757771	0
446.908264	0.795734	city	6	1	0.947295	0.947295	0	1	0	0	CorrectCommission	0.066534	0.761519	0
447.704193	0.796167	city	8	1	0.963389	0.963389	0	1	0	0	CorrectCommission	0.177266	0.770270	0
448.500000	0.795429	city	9	1	1.146332	1.146332	0	1	0	0	CorrectCommission	1.435985	0.785846	0
449.295654	0.795853	city	6	0	0.000000	1.008938	0	0	0	1	OmissionError	0.490659	0.809470	0
450.091614	0.796122	city	10	1	0.847686	0.847686	0	1	0	0	CorrectCommission	0.618812	0.841708	0
450.887421	0.795487	mountain	6	0	0.000000	0.959058	1	0	0	0	CorrectOmission	0.147470	0.882250	0
451.683044	0.795760	city	3	1	1.096326	1.096326	0	1	0	0	CorrectCommission	1.091921	0.930083	0
452.478821	0.795783	city	1	1	1.012760	1.012760	0	1	0	0	CorrectCommission	0.516955	0.983475	0
453.274628	0.795841	city	4	1	1.061617	1.061617	0	1	0	0	CorrectCommission	0.853113	1.040367	0
454.070435	0.795762	city	1	1	1.114863	1.114863	0	1	0	0	CorrectCommission	1.219462	1.098465	0
454.866272	0.795900	city	5	1	1.209824	1.209824	0	1	0	0	CorrectCommission	1.872833	1.155525	0
455.662079	0.795720	city	7	1	1.196056	1.196056	0	1	0	0	CorrectCommission	1.778105	1.209526	0
456.457855	0.795857	city	6	1	1.154656	1.154656	0	1	0	0	CorrectCommission	1.493258	1.258910	0
457.253723	0.795818	city	3	1	1.146310	1.146310	0	1	0	0	CorrectCommission	1.435834	1.302560	0
458.049530	0.795815	city	4	1	1.096674	1.096674	0	1	0	0	CorrectCommission	1.094318	1.339764	0
458.845337	0.795800	city	8	1	1.145968	1.145968	0	1	0	0	CorrectCommission	1.433478	1.370160	0
459.641083	0.795724	city	3	1	1.107354	1.107354	0	1	0	0	CorrectCommission	1.167801	1.393509	0
460.436859	0.795779	city	2	1	1.148698	1.148698	0	1	0	0	CorrectCommission	1.452263	1.409690	0
461.232635	0.795819	city	3	1	1.146135	1.146135	0	1	0	0	CorrectCommission	1.434625	1.418475	0
462.028442	0.795785	city	5	1	1.204805	1.204805	0	1	0	0	CorrectCommission	1.838303	1.419510	0
462.824280	0.795852	city	1	1	1.146302	1.146302	0	1	0	0	CorrectCommission	1.435779	1.412401	0
463.620117	0.795844	city	10	1	1.146357	1.146357	0	1	0	0	CorrectCommission	1.436159	1.396749	0
464.415894	0.795733	city	3	1	1.164227	1.164227	0	1	0	0	CorrectCommission	1.559105	1.372249	0
465.211823	0.796133	city	9	1	1.196048	1.196048	0	1	0	0	CorrectCommission	1.778049	1.338830	0
466.007751	0.795712	city	10	1	1.146987	1.146987	0	1	0	0	CorrectCommission	1.440490	1.296712	0
466.803375	0.795545	city	6	1	1.151406	1.151406	0	1	0	0	CorrectCommission	1.470898	1.246586	0
467.599091	0.795892	city	10	0	0.000000	0.863686	0	0	0	1	OmissionError	0.508726	1.189580	0
468.394897	0.795708	city	1	1	0.605550	0.605550	0	1	0	0	CorrectCommission	2.284799	1.127359	0
469.190704	0.795880	city	2	1	0.698722	0.698722	0	1	0	0	CorrectCommission	1.643740	1.061816	0
469.986542	0.795805	city	5	1	0.798844	0.798844	0	1	0	0	CorrectCommission	0.954866	0.995192	0
470.782349	0.795797	city	2	1	0.961894	0.961894	0	1	0	0	CorrectCommission	0.166978	0.929797	0
471.578125	0.795797	city	10	1	0.996862	0.996862	0	1	0	0	CorrectCommission	0.407572	0.867896	0
472.373901	0.795740	city	5	1	0.947128	0.947128	0	1	0	0	CorrectCommission	0.065387	0.811442	0
473.169830	0.796115	city	1	1	0.997522	0.997522	0	1	0	0	CorrectCommission	0.412113	0.762117	0
473.965637	0.795490	city	2	1	1.096137	1.096137	0	1	0	0	CorrectCommission	1.090622	0.721240	0
474.761322	0.795865	mountain	9	0	0.000000	0.863770	1	0	0	0	CorrectOmission	0.508153	0.689687	0
475.557159	0.795813	city	1	1	0.698376	0.698376	0	1	0	0	CorrectCommission	1.646121	0.668022	0
476.352936	0.795747	city	2	1	0.997914	0.997914	0	1	0	0	CorrectCommission	0.414814	0.656375	0
477.148712	0.795821	city	3	1	0.947229	0.947229	0	1	0	0	CorrectCommission	0.066079	0.654635	0
477.944672	0.796111	city	6	1	0.898840	0.898840	0	1	0	0	CorrectCommission	0.266858	0.662311	0
478.740479	0.795489	city	5	1	0.947343	0.947343	0	1	0	0	CorrectCommission	0.066866	0.678572	0
479.536285	0.796121	mountain	7	0	0.000000	1.014507	1	0	0	0	CorrectOmission	0.528978	0.702181	0
480.332245	0.795794	city	7	1	1.060759	1.060759	0	1	0	0	CorrectCommission	0.847210	0.731559	0
481.127869	0.795471	city	6	1	1.046528	1.046528	0	1	0	0	CorrectCommission	0.749294	0.764824	0
481.923523	0.795807	city	9	1	1.013482	1.013482	0	1	0	0	CorrectCommission	0.521928	0.799909	0
482.719330	0.795820	city	7	1	1.047007	1.047007	0	1	0	0	CorrectCommission	0.752591	0.834694	0
483.515167	0.795833	city	3	1	1.205482	1.205482	0	1	0	0	CorrectCommission	1.842958	0.867115	0
484.310944	0.795751	city	6	1	1.145966	1.145966	0	1	0	0	CorrectCommission	1.433463	0.895303	0
485.106720	0.795807	city	10	1	1.061894	1.061894	0	1	0	0	CorrectCommission	0.855021	0.917817	0
485.902557	0.795845	mountain	7	0	0.000000	0.864520	1	0	0	0	CorrectOmission	0.502988	0.933749	0
486.698395	0.795806	city	9	1	0.748005	0.748005	0	1	0	0	CorrectCommission	1.304654	0.942798	0
487.494171	0.795788	city	4	1	0.906512	0.906512	0	1	0	0	CorrectCommission	0.214068	0.945337	0
488.289978	0.795798	city	5	1	1.099034	1.099034	0	1	0	0	CorrectCommission	1.110559	0.942552	0
489.085754	0.795778	city	6	1	1.307818	1.307818	0	1	0	0	CorrectCommission	2.547066	0.936253	0
489.881561	0.795821	mountain	9	0	0.000000	1.104465	1	0	0	0	CorrectOmission	1.147922	0.928852	0
490.677368	0.795813	city	5	1	0.848750	0.848750	0	1	0	0	CorrectCommission	0.611497	0.923293	0
491.473175	0.795780	city	9	1	0.900445	0.900445	0	1	0	0	CorrectCommission	0.255809	0.922625	0
492.268921	0.795747	city	2	1	0.997301	0.997301	0	1	0	0	CorrectCommission	0.410591	0.929773	0
493.064728	0.795819	mountain	2	0	0.000000	0.822402	1	0	0	0	CorrectOmission	0.792778	0.947065	0
493.860687	0.796131	city	9	1	0.698353	0.698353	0	1	0	0	CorrectCommission	1.646282	0.975958	0
494.656494	0.795497	city	2	1	0.947757	0.947757	0	1	0	0	CorrectCommission	0.069713	1.016714	0
495.452301	0.796102	mountain	6	0	0.000000	0.973404	1	0	0	0	CorrectOmission	0.246171	1.068337	0
496.248108	0.795494	city	4	1	0.948753	0.948753	0	1	0	0	CorrectCommission	0.076564	1.128435	0
497.043762	0.795825	city	9	1	1.047264	1.047264	0	1	0	0	CorrectCommission	0.754361	1.193458	0
497.839539	0.795747	city	8	1	1.210390	1.210390	0	1	0	0	CorrectCommission	1.876726	1.259025	0
498.635345	0.795817	city	4	1	1.196435	1.196435	0	1	0	0	CorrectCommission	1.780714	1.320392	0
499.431183	0.795861	city	8	1	1.205024	1.205024	0	1	0	0	CorrectCommission	1.839808	1.373055	0
500.226990	0.795774	city	7	0	0.000000	0.819777	0	0	0	1	OmissionError	0.810838	1.413220	0
501.022766	0.795795	city	1	1	0.449708	0.449708	0	1	0	0	CorrectCommission	3.357054	1.438223	0
501.818542	0.795771	city	7	1	0.503831	0.503831	0	1	0	0	CorrectCommission	2.984669	1.446686	0
502.614349	0.795829	city	5	1	0.558015	0.558015	0	1	0	0	CorrectCommission	2.611859	1.438728	0
503.410156	0.795785	city	9	1	0.703197	0.703197	0	1	0	0	CorrectCommission	1.612953	1.415728	0
504.205963	0.795817	city	1	1	0.848249	0.848249	0	1	0	0	CorrectCommission	0.614943	1.379947	0
505.001801	0.795829	city	7	1	0.911641	0.911641	0	1	0	0	CorrectCommission	0.178777	1.334197	0
505.797607	0.795784	city	3	1	0.897478	0.897478	0	1	0	0	CorrectCommission	0.276223	1.281343	0
506.593384	0.795821	city	6	1	1.015740	1.015740	0	1	0	0	CorrectCommission	0.537460	1.223999	0
507.389191	0.795798	city	5	1	1.155133	1.155133	0	1	0	0	CorrectCommission	1.496539	1.164440	0
508.184967	0.795743	city	8	1	1.200371	1.200371	0	1	0	0	CorrectCommission	1.807794	1.104526	0
508.980774	0.795880	city	10	1	1.196093	1.196093	0	1	0	0	CorrectCommission	1.778355	1.045862	0
509.776642	0.795809	city	4	1	1.153066	1.153066	0	1	0	0	CorrectCommission	1.482318	0.989925	0
510.572388	0.795711	city	2	1	1.151005	1.151005	0	1	0	0	CorrectCommission	1.468134	0.938190	0
511.368134	0.795793	mountain	5	0	0.000000	1.057215	1	0	0	0	CorrectOmission	0.822828	0.892092	0
512.164124	0.796154	city	4	1	0.947324	0.947324	0	1	0	0	CorrectCommission	0.066735	0.853053	0
512.960083	0.795795	city	8	1	0.896957	0.896957	0	1	0	0	CorrectCommission	0.279810	0.822295	0
513.755737	0.795516	city	9	1	0.956063	0.956063	0	1	0	0	CorrectCommission	0.126861	0.800588	0
514.551392	0.795786	city	4	1	0.947901	0.947901	0	1	0	0	CorrectCommission	0.070705	0.788021	0
515.347229	0.795824	city	2	1	0.861821	0.861821	0	1	0	0	CorrectCommission	0.521559	0.783948	0
516.143005	0.795793	city	6	1	0.997287	0.997287	0	1	0	0	CorrectCommission	0.410495	0.786993	0
516.938843	0.795840	city	4	1	1.147234	1.147234	0	1	0	0	CorrectCommission	1.442190	0.795206	0
517.734619	0.795719	city	1	1	1.047423	1.047423	0	1	0	0	CorrectCommission	0.755453	0.806313	0
518.530396	0.795863	city	4	1	1.097547	1.097547	0	1	0	0	CorrectCommission	1.100328	0.818030	0
519.326233	0.795790	city	10	1	1.050381	1.050381	0	1	0	0	CorrectCommission	0.775804	0.828364	0
520.122009	0.795829	city	8	1	1.145927	1.145927	0	1	0	0	CorrectCommission	1.433197	0.835919	0
520.917786	0.795715	city	9	1	1.096381	1.096381	0	1	0	0	CorrectCommission	1.092303	0.839990	0
521.713562	0.795800	city	3	1	1.146058	1.146058	0	1	0	0	CorrectCommission	1.434096	0.840692	0
522.509399	0.795854	city	1	1	1.146078	1.146078	0	1	0	0	CorrectCommission	1.434238	0.838774	0
523.305237	0.795792	mountain	3	0	0.000000	1.016898	1	0	0	0	CorrectOmission	0.545432	0.835411	0
524.101013	0.795784	city	2	1	0.903131	0.903131	0	1	0	0	CorrectCommission	0.237328	0.831946	0
524.896790	0.795844	city	4	1	0.949391	0.949391	0	1	0	0	CorrectCommission	0.080953	0.829530	0
525.692627	0.795735	city	9	1	0.901552	0.901552	0	1	0	0	CorrectCommission	0.248197	0.828940	0
526.488403	0.795882	city	1	1	0.947432	0.947432	0	1	0	0	CorrectCommission	0.067476	0.830470	0
527.284424	0.796089	city	2	1	0.947657	0.947657	0	1	0	0	CorrectCommission	0.069026	0.833954	0
528.080200	0.795524	city	3	0	0.000000	0.632252	0	0	0	1	OmissionError	2.101078	0.838843	0
528.875854	0.795725	city	4	1	0.499426	0.499426	0	1	0	0	CorrectCommission	3.014972	0.844400	0
529.671631	0.795847	city	2	1	1.047387	1.047387	0	1	0	0	CorrectCommission	0.755205	0.849956	0
530.467468	0.795802	mountain	6	0	0.000000	1.030997	1	0	0	0	CorrectOmission	0.642438	0.855141	0
531.263245	0.795801	city	7	1	0.848367	0.848367	0	1	0	0	CorrectCommission	0.614131	0.859776	0
532.059021	0.795738	city	1	1	0.897604	0.897604	0	1	0	0	CorrectCommission	0.275360	0.863939	0
532.854980	0.796177	city	5	1	0.898180	0.898180	0	1	0	0	CorrectCommission	0.271394	0.867887	0
533.650940	0.795800	city	2	1	1.046248	1.046248	0	1	0	0	CorrectCommission	0.747371	0.871984	0
534.446594	0.795428	city	7	1	1.098524	1.098524	0	1	0	0	CorrectCommission	1.107044	0.876517	0
535.242249	0.795870	city	6	1	1.111219	1.111219	0	1	0	0	CorrectCommission	1.194396	0.881713	0
536.038086	0.795810	city	8	1	1.013432	1.013432	0	1	0	0	CorrectCommission	0.521583	0.887674	0
536.833862	0.795801	city	2	1	1.097138	1.097138	0	1	0	0	CorrectCommission	1.097508	0.894400	0
537.629639	0.795738	city	6	1	1.155961	1.155961	0	1	0	0	CorrectCommission	1.502233	0.901670	0
538.425598	0.796160	city	10	1	1.114024	1.114024	0	1	0	0	CorrectCommission	1.213693	0.909134	0
539.221558	0.795795	city	5	1	1.046286	1.046286	0	1	0	0	CorrectCommission	0.747627	0.916322	0
540.017212	0.795486	city	8	1	0.897771	0.897771	0	1	0	0	CorrectCommission	0.274212	0.922639	0
540.812805	0.795759	city	3	1	1.003482	1.003482	0	1	0	0	CorrectCommission	0.453123	0.927379	0
541.608765	0.796122	city	2	1	1.111529	1.111529	0	1	0	0	CorrectCommission	1.196529	0.929721	0
542.404602	0.795565	city	5	1	1.099887	1.099887	0	1	0	0	CorrectCommission	1.116423	0.928784	0
543.200256	0.795776	mountain	2	0	0.000000	0.888998	1	0	0	0	CorrectOmission	0.334572	0.923738	0
543.996094	0.795840	city	2	1	0.698515	0.698515	0	1	0	0	CorrectCommission	1.645167	0.913893	0
544.791931	0.795788	city	8	1	0.748090	0.748090	0	1	0	0	CorrectCommission	1.304075	0.898713	0
545.587646	0.795723	city	6	1	0.712055	0.712055	0	1	0	0	CorrectCommission	1.552009	0.877949	0
546.383606	0.796153	city	1	1	0.749170	0.749170	0	1	0	0	CorrectCommission	1.296639	0.851630	0
547.179443	0.795523	city	9	1	1.052917	1.052917	0	1	0	0	CorrectCommission	0.793251	0.820136	0
547.975220	0.796083	city	4	1	0.948211	0.948211	0	1	0	0	CorrectCommission	0.072833	0.784122	0
548.770996	0.795490	city	5	1	0.854114	0.854114	0	1	0	0	CorrectCommission	0.574584	0.744453	0
549.566711	0.795837	mountain	1	1	0.898024	0.898024	0	0	1	0	CommissionError	0.272468	0.702126	0
550.362488	0.795803	city	2	1	0.996855	0.996855	0	1	0	0	CorrectCommission	0.407523	0.658294	0
551.158325	0.795795	city	6	1	1.096391	1.096391	0	1	0	0	CorrectCommission	1.092373	0.614250	1
551.954102	0.795797	city	7	1	1.148084	1.148084	0	1	0	0	CorrectCommission	1.448038	0.571431	1
552.749939	0.795831	city	6	1	1.046772	1.046772	0	1	0	0	CorrectCommission	0.750976	0.531408	1
553.545715	0.795716	city	1	1	0.948225	0.948225	0	1	0	0	CorrectCommission	0.072930	0.495999	1
554.341431	0.795796	city	7	1	0.947406	0.947406	0	1	0	0	CorrectCommission	0.067294	0.467095	1
555.137268	0.795847	city	3	1	0.996881	0.996881	0	1	0	0	CorrectCommission	0.407707	0.446529	1
555.933105	0.795837	city	4	1	0.966128	0.966128	0	1	0	0	CorrectCommission	0.196113	0.435957	1
556.728943	0.795782	city	9	1	0.949382	0.949382	0	1	0	0	CorrectCommission	0.080891	0.436680	1
557.524719	0.795806	mountain	7	0	0.000000	0.922291	1	0	0	0	CorrectOmission	0.105501	0.449475	1
558.320496	0.795813	city	1	1	0.912616	0.912616	0	1	0	0	CorrectCommission	0.172070	0.474423	1
559.116333	0.795772	city	9	1	0.948115	0.948115	0	1	0	0	CorrectCommission	0.072178	0.510801	1
559.912109	0.795784	city	10	1	0.897548	0.897548	0	1	0	0	CorrectCommission	0.275746	0.557105	1
560.707886	0.795830	city	2	1	0.959510	0.959510	0	1	0	0	CorrectCommission	0.150577	0.611139	1
561.503723	0.795780	city	4	1	1.096429	1.096429	0	1	0	0	CorrectCommission	1.092630	0.670145	0
562.299500	0.795805	city	10	1	1.012947	1.012947	0	1	0	0	CorrectCommission	0.518247	0.731042	0
563.095276	0.795736	city	6	1	1.096155	1.096155	0	1	0	0	CorrectCommission	1.090748	0.790777	0
563.891052	0.795886	city	2	1	1.112772	1.112772	0	1	0	0	CorrectCommission	1.205078	0.846557	0
564.686951	0.795801	city	10	1	1.145957	1.145957	0	1	0	0	CorrectCommission	1.433405	0.896162	0
565.482666	0.795734	city	5	1	1.061676	1.061676	0	1	0	0	CorrectCommission	0.853515	0.938116	0
566.278442	0.795812	city	10	1	1.146040	1.146040	0	1	0	0	CorrectCommission	1.433972	0.971752	0
567.074280	0.795823	city	5	1	1.196024	1.196024	0	1	0	0	CorrectCommission	1.777880	0.997221	0
567.870239	0.796108	city	6	0	0.000000	0.980613	0	0	0	1	OmissionError	0.295773	1.015372	0
568.666016	0.795494	city	4	1	0.748663	0.748663	0	1	0	0	CorrectCommission	1.300129	1.027626	0
569.461731	0.795830	city	7	1	0.749030	0.749030	0	1	0	0	CorrectCommission	1.297602	1.035552	0
570.257507	0.795748	city	4	1	0.797826	0.797826	0	1	0	0	CorrectCommission	0.961868	1.040788	0
571.053467	0.796162	city	10	1	0.798080	0.798080	0	1	0	0	CorrectCommission	0.960125	1.044791	0
571.849304	0.795522	mountain	9	1	0.903666	0.903666	0	0	1	0	CommissionError	0.233651	1.048614	0
572.644897	0.795730	city	4	1	1.047876	1.047876	0	1	0	0	CorrectCommission	0.758567	1.052844	0
573.440735	0.795883	city	3	1	1.096319	1.096319	0	1	0	0	CorrectCommission	1.091877	1.057577	0
574.236511	0.795699	city	7	1	1.100135	1.100135	0	1	0	0	CorrectCommission	1.118129	1.062555	0
575.032288	0.795858	city	2	1	1.146084	1.146084	0	1	0	0	CorrectCommission	1.434276	1.067290	0
575.828125	0.795816	city	6	1	1.146280	1.146280	0	1	0	0	CorrectCommission	1.435625	1.071220	0
576.623962	0.795800	city	7	1	1.146411	1.146411	0	1	0	0	CorrectCommission	1.436526	1.073868	0
577.419739	0.795835	city	10	1	1.096541	1.096541	0	1	0	0	CorrectCommission	1.093406	1.074905	0
578.215576	0.795763	city	2	1	1.047700	1.047700	0	1	0	0	CorrectCommission	0.757355	1.074220	0
579.011353	0.795786	city	4	1	1.097350	1.097350	0	1	0	0	CorrectCommission	1.098967	1.071821	0
579.807129	0.795806	city	5	1	1.146037	1.146037	0	1	0	0	CorrectCommission	1.433952	1.067783	0
580.602966	0.795832	city	4	1	1.097088	1.097088	0	1	0	0	CorrectCommission	1.097167	1.062113	0
581.398743	0.795789	city	10	1	0.947420	0.947420	0	1	0	0	CorrectCommission	0.067394	1.054703	0
582.194580	0.795808	city	4	1	1.097538	1.097538	0	1	0	0	CorrectCommission	1.100262	1.045266	0
582.990356	0.795788	city	10	1	1.096442	1.096442	0	1	0	0	CorrectCommission	1.092723	1.033254	0
583.786133	0.795768	city	2	1	1.146176	1.146176	0	1	0	0	CorrectCommission	1.434908	1.017994	0
584.581909	0.795818	city	5	1	1.046500	1.046500	0	1	0	0	CorrectCommission	0.749100	0.998757	0
585.377747	0.795822	city	6	1	1.096589	1.096589	0	1	0	0	CorrectCommission	1.093735	0.975035	0
586.173584	0.795796	city	4	1	1.195714	1.195714	0	1	0	0	CorrectCommission	1.775751	0.946534	0
586.969482	0.796106	city	2	1	1.154988	1.154988	0	1	0	0	CorrectCommission	1.495541	0.913369	0
587.765320	0.795536	city	8	1	1.046162	1.046162	0	1	0	0	CorrectCommission	0.746779	0.876171	0
588.561096	0.796032	city	10	1	1.003159	1.003159	0	1	0	0	CorrectCommission	0.450896	0.836063	0
589.356934	0.795577	city	5	1	1.047609	1.047609	0	1	0	0	CorrectCommission	0.756731	0.794558	0
590.152588	0.795735	city	9	1	1.007630	1.007630	0	1	0	0	CorrectCommission	0.481661	0.753372	0
590.948303	0.795783	city	6	1	1.055136	1.055136	0	1	0	0	CorrectCommission	0.808523	0.714282	0
591.744141	0.795854	city	4	1	1.065107	1.065107	0	1	0	0	CorrectCommission	0.877126	0.678880	0
592.540039	0.795883	city	8	1	1.013623	1.013623	0	1	0	0	CorrectCommission	0.522894	0.648395	1
593.335754	0.795647	city	7	1	1.008393	1.008393	0	1	0	0	CorrectCommission	0.486911	0.623547	1
594.131531	0.795794	city	4	1	0.956796	0.956796	0	1	0	0	CorrectCommission	0.131907	0.604422	1
594.927307	0.795871	city	1	1	0.964231	0.964231	0	1	0	0	CorrectCommission	0.183062	0.590495	1
595.723206	0.795820	city	8	1	0.947124	0.947124	0	1	0	0	CorrectCommission	0.065354	0.580704	1
596.518982	0.795743	city	5	1	0.898028	0.898028	0	1	0	0	CorrectCommission	0.272439	0.573610	1
597.314758	0.795803	city	4	1	1.098006	1.098006	0	1	0	0	CorrectCommission	1.103481	0.567622	1
598.110535	0.795824	city	6	1	1.096484	1.096484	0	1	0	0	CorrectCommission	1.093008	0.561230	1
598.906372	0.795826	city	1	1	1.063008	1.063008	0	1	0	0	CorrectCommission	0.862683	0.553348	1
599.702209	0.795794	city	6	1	1.047158	1.047158	0	1	0	0	CorrectCommission	0.753632	0.543378	1
600.497986	0.795796	city	7	1	1.096199	1.096199	0	1	0	0	CorrectCommission	1.091050	0.531292	1
601.293762	0.795766	city	1	1	1.010944	1.010944	0	1	0	0	CorrectCommission	0.504465	0.517556	1
602.089539	0.795798	city	2	1	0.997616	0.997616	0	1	0	0	CorrectCommission	0.412759	0.503071	1
602.885376	0.795866	city	9	1	0.947131	0.947131	0	1	0	0	CorrectCommission	0.065404	0.488860	1
603.681335	0.796081	city	5	1	0.904306	0.904306	0	1	0	0	CorrectCommission	0.229244	0.475831	1
604.477295	0.795799	city	3	1	0.956784	0.956784	0	1	0	0	CorrectCommission	0.131819	0.464578	1
605.272949	0.795484	city	10	1	0.946858	0.946858	0	1	0	0	CorrectCommission	0.063526	0.455266	1
606.068542	0.795766	mountain	7	0	0.000000	0.966809	1	0	0	0	CorrectOmission	0.200798	0.447595	1
606.864380	0.795904	city	9	1	1.001699	1.001699	0	1	0	0	CorrectCommission	0.440851	0.440851	1
