onset	duration	trial_type	image_type	Press	ReactionTime	ReactionTime_Interpolated	CorrectOmission	CorrectCommission	CommissionError	OmissionError	response_type	nonsmoothVarianceTimeCourse	VarianceTimeCourse	In_the_Zone
8.421808	0.795515	city	9	1	0.812819	0.812819	0	1	0	0	CorrectCommission	0.980363	0.980363	0
9.217464	0.795797	city	10	1	0.612417	0.612417	0	1	0	0	CorrectCommission	1.085977	0.960778	0
10.013394	0.796062	city	2	1	0.649295	0.649295	0	1	0	0	CorrectCommission	0.705728	0.941198	0
10.809327	0.795803	city	5	1	0.649120	0.649120	0	1	0	0	CorrectCommission	0.707539	0.921645	0
11.605019	0.795580	city	2	1	0.748144	0.748144	0	1	0	0	CorrectCommission	0.313498	0.902069	0
12.400686	0.795755	city	9	1	0.797801	0.797801	0	1	0	0	CorrectCommission	0.825514	0.882373	0
13.196468	0.795809	mountain	8	0	0.000000	0.846629	1	0	0	0	CorrectOmission	1.328979	0.862437	0
13.992292	0.795841	city	3	1	0.865940	0.865940	0	1	0	0	CorrectCommission	1.528093	0.842155	0
14.788228	0.796030	mountain	2	0	0.000000	0.827046	1	0	0	0	CorrectOmission	1.127058	0.821522	0
15.583980	0.795474	city	4	1	0.748652	0.748652	0	1	0	0	CorrectCommission	0.318744	0.800592	0
16.379627	0.795821	city	1	1	0.649465	0.649465	0	1	0	0	CorrectCommission	0.703976	0.779513	0
17.175457	0.795839	city	7	1	0.804939	0.804939	0	1	0	0	CorrectCommission	0.899111	0.758481	1
17.971273	0.795791	city	5	1	0.699801	0.699801	0	1	0	0	CorrectCommission	0.184962	0.737750	1
18.767071	0.795805	city	8	1	0.698254	0.698254	0	1	0	0	CorrectCommission	0.200911	0.717632	1
19.562881	0.795818	city	2	1	0.863336	0.863336	0	1	0	0	CorrectCommission	1.501243	0.698402	1
20.358704	0.795824	city	7	1	0.649068	0.649068	0	1	0	0	CorrectCommission	0.708073	0.680289	1
21.154631	0.796033	mountain	3	0	0.000000	0.625878	1	0	0	0	CorrectOmission	0.947187	0.663610	1
21.950434	0.795573	city	9	1	0.705236	0.705236	0	1	0	0	CorrectCommission	0.128926	0.648573	1
22.746105	0.795767	city	2	1	0.798613	0.798613	0	1	0	0	CorrectCommission	0.833884	0.635406	1
23.541861	0.795745	city	5	1	0.648643	0.648643	0	1	0	0	CorrectCommission	0.712451	0.624263	1
24.337688	0.795910	city	4	1	0.714498	0.714498	0	1	0	0	CorrectCommission	0.033424	0.615254	1
25.133526	0.795766	city	7	1	0.665420	0.665420	0	1	0	0	CorrectCommission	0.539461	0.608464	1
25.929323	0.795826	city	6	1	0.610230	0.610230	0	1	0	0	CorrectCommission	1.108527	0.603863	1
26.725115	0.795758	mountain	6	0	0.000000	0.670313	1	0	0	0	CorrectOmission	0.489014	0.601324	1
27.521049	0.796113	city	1	1	0.748537	0.748537	0	1	0	0	CorrectCommission	0.317548	0.600686	1
28.316854	0.795494	city	3	1	0.747768	0.747768	0	1	0	0	CorrectCommission	0.309629	0.601727	1
29.112480	0.795757	city	8	1	0.798157	0.798157	0	1	0	0	CorrectCommission	0.829189	0.604161	1
29.908291	0.795865	mountain	6	0	0.000000	0.808668	1	0	0	0	CorrectOmission	0.937563	0.607694	1
30.704113	0.795780	mountain	4	0	0.000000	0.789040	1	0	0	0	CorrectOmission	0.735178	0.612072	1
31.500057	0.796106	city	6	1	0.749013	0.749013	0	1	0	0	CorrectCommission	0.322460	0.617054	1
32.295998	0.795781	city	9	1	0.698327	0.698327	0	1	0	0	CorrectCommission	0.200163	0.622549	1
33.091656	0.795530	city	1	1	0.654962	0.654962	0	1	0	0	CorrectCommission	0.647295	0.628587	1
33.887321	0.795801	city	8	1	0.851284	0.851284	0	1	0	0	CorrectCommission	1.376976	0.635347	1
34.683262	0.796084	city	10	1	0.748143	0.748143	0	1	0	0	CorrectCommission	0.313495	0.643162	1
35.479034	0.795457	city	8	1	0.747744	0.747744	0	1	0	0	CorrectCommission	0.309376	0.652576	1
36.274696	0.795871	city	9	1	0.858994	0.858994	0	1	0	0	CorrectCommission	1.456478	0.664147	1
37.070553	0.795837	city	6	1	0.699024	0.699024	0	1	0	0	CorrectCommission	0.192972	0.678356	1
37.866356	0.795772	city	10	1	0.663757	0.663757	0	1	0	0	CorrectCommission	0.556610	0.695720	1
38.662132	0.795784	city	4	1	0.804592	0.804592	0	1	0	0	CorrectCommission	0.895531	0.716442	1
39.457939	0.795826	city	6	1	0.698622	0.698622	0	1	0	0	CorrectCommission	0.197123	0.740449	1
40.253887	0.796075	city	8	1	0.648836	0.648836	0	1	0	0	CorrectCommission	0.710466	0.767334	1
41.049664	0.795477	city	1	1	0.800279	0.800279	0	1	0	0	CorrectCommission	0.851065	0.796232	0
41.845303	0.795797	city	10	1	0.769477	0.769477	0	1	0	0	CorrectCommission	0.533470	0.825948	0
42.641270	0.796141	city	2	1	0.748433	0.748433	0	1	0	0	CorrectCommission	0.316477	0.855000	0
43.437069	0.795459	city	9	1	0.848072	0.848072	0	1	0	0	CorrectCommission	1.343859	0.881709	0
44.232704	0.795807	city	4	1	0.798340	0.798340	0	1	0	0	CorrectCommission	0.831076	0.904337	0
45.028675	0.796138	mountain	6	0	0.000000	0.905094	1	0	0	0	CorrectOmission	1.931815	0.921349	0
45.824512	0.795534	city	4	1	0.946800	0.946800	0	1	0	0	CorrectCommission	2.361847	0.931393	0
46.620174	0.795793	city	7	1	0.701926	0.701926	0	1	0	0	CorrectCommission	0.163056	0.933465	0
47.416100	0.796058	city	5	1	0.652897	0.652897	0	1	0	0	CorrectCommission	0.668586	0.927081	0
48.212036	0.795813	city	3	1	0.714810	0.714810	0	1	0	0	CorrectCommission	0.030203	0.912084	0
49.007710	0.795533	city	4	1	0.801100	0.801100	0	1	0	0	CorrectCommission	0.859534	0.888816	0
49.803513	0.796073	mountain	8	0	0.000000	0.901510	1	0	0	0	CorrectOmission	1.894858	0.858026	0
50.599270	0.795441	city	4	1	0.897642	0.897642	0	1	0	0	CorrectCommission	1.854970	0.820852	0
51.394939	0.795902	city	1	1	0.671097	0.671097	0	1	0	0	CorrectCommission	0.480926	0.778817	0
52.190769	0.795758	city	6	1	0.748103	0.748103	0	1	0	0	CorrectCommission	0.313080	0.733814	1
52.986565	0.795835	city	5	1	0.847755	0.847755	0	1	0	0	CorrectCommission	1.340594	0.687920	1
53.782387	0.795806	city	8	1	0.748281	0.748281	0	1	0	0	CorrectCommission	0.314916	0.643187	1
54.578156	0.795734	city	1	1	0.712792	0.712792	0	1	0	0	CorrectCommission	0.051012	0.601685	1
55.374081	0.796114	city	5	1	0.652485	0.652485	0	1	0	0	CorrectCommission	0.672841	0.565181	1
56.169876	0.795478	city	7	1	0.699534	0.699534	0	1	0	0	CorrectCommission	0.187720	0.534979	1
56.965538	0.795844	city	1	1	0.698465	0.698465	0	1	0	0	CorrectCommission	0.198737	0.511933	1
57.761509	0.796095	city	9	1	0.748369	0.748369	0	1	0	0	CorrectCommission	0.315821	0.496270	1
58.557327	0.795546	city	6	1	0.698536	0.698536	0	1	0	0	CorrectCommission	0.198008	0.487623	1
59.353123	0.796046	city	7	1	0.710614	0.710614	0	1	0	0	CorrectCommission	0.073474	0.485143	1
60.148907	0.795516	city	2	1	0.617798	0.617798	0	1	0	0	CorrectCommission	1.030491	0.487612	1
60.944580	0.795835	city	5	1	0.648593	0.648593	0	1	0	0	CorrectCommission	0.712972	0.493553	1
61.740387	0.795781	city	3	1	0.703211	0.703211	0	1	0	0	CorrectCommission	0.149806	0.501514	1
62.536179	0.795800	city	5	1	0.798073	0.798073	0	1	0	0	CorrectCommission	0.828318	0.510201	1
63.331974	0.795792	city	1	1	0.748077	0.748077	0	1	0	0	CorrectCommission	0.312809	0.518573	1
64.127769	0.795801	mountain	10	0	0.000000	0.667484	1	0	0	0	CorrectOmission	0.518186	0.526106	1
64.923576	0.795802	city	8	1	0.615071	0.615071	0	1	0	0	CorrectCommission	1.058614	0.532676	1
65.719391	0.795840	city	5	1	0.649616	0.649616	0	1	0	0	CorrectCommission	0.702423	0.538601	1
66.515335	0.796048	city	4	1	0.655278	0.655278	0	1	0	0	CorrectCommission	0.644037	0.544575	1
67.311127	0.795536	city	7	1	0.697983	0.697983	0	1	0	0	CorrectCommission	0.203714	0.551437	1
68.106804	0.795818	city	2	1	0.659847	0.659847	0	1	0	0	CorrectCommission	0.596924	0.560067	1
68.902756	0.796076	city	6	1	0.748213	0.748213	0	1	0	0	CorrectCommission	0.314217	0.571193	1
69.698547	0.795503	city	9	1	0.748153	0.748153	0	1	0	0	CorrectCommission	0.313595	0.585237	1
70.494171	0.795746	city	2	1	0.748717	0.748717	0	1	0	0	CorrectCommission	0.319413	0.602172	1
71.289963	0.795843	city	5	1	0.748160	0.748160	0	1	0	0	CorrectCommission	0.313667	0.621531	1
72.085808	0.795842	city	3	1	0.816768	0.816768	0	1	0	0	CorrectCommission	1.021081	0.642456	1
72.881584	0.795714	city	8	1	0.798694	0.798694	0	1	0	0	CorrectCommission	0.834718	0.663759	1
73.677338	0.795798	city	2	1	0.748900	0.748900	0	1	0	0	CorrectCommission	0.321294	0.684169	1
74.473167	0.795859	city	6	1	0.798150	0.798150	0	1	0	0	CorrectCommission	0.829109	0.702496	1
75.269020	0.795845	city	1	1	0.797886	0.797886	0	1	0	0	CorrectCommission	0.826394	0.717743	1
76.064842	0.795798	city	10	1	0.862260	0.862260	0	1	0	0	CorrectCommission	1.490147	0.729334	1
76.860748	0.796010	city	8	1	0.797891	0.797891	0	1	0	0	CorrectCommission	0.826439	0.737144	1
77.656509	0.795520	mountain	4	0	0.000000	0.797920	1	0	0	0	CorrectOmission	0.826741	0.741530	1
78.452202	0.795856	city	1	1	0.814184	0.814184	0	1	0	0	CorrectCommission	0.994435	0.743218	1
79.248169	0.796078	city	8	1	0.798518	0.798518	0	1	0	0	CorrectCommission	0.832906	0.743192	1
80.044113	0.795812	city	5	1	0.748084	0.748084	0	1	0	0	CorrectCommission	0.312882	0.742446	1
80.839767	0.795501	city	3	1	0.698438	0.698438	0	1	0	0	CorrectCommission	0.199017	0.741886	1
81.635422	0.795810	city	9	1	0.798773	0.798773	0	1	0	0	CorrectCommission	0.835541	0.742109	1
82.431229	0.795806	city	7	1	0.698571	0.698571	0	1	0	0	CorrectCommission	0.197647	0.743288	1
83.227005	0.795746	city	5	1	0.650377	0.650377	0	1	0	0	CorrectCommission	0.694569	0.745248	1
84.022774	0.795784	city	1	1	0.598873	0.598873	0	1	0	0	CorrectCommission	1.225635	0.747439	1
84.818565	0.795803	city	6	1	0.648890	0.648890	0	1	0	0	CorrectCommission	0.709904	0.749117	1
85.614372	0.795805	city	9	1	0.606279	0.606279	0	1	0	0	CorrectCommission	1.149264	0.749493	1
86.410202	0.795863	city	1	1	0.649061	0.649061	0	1	0	0	CorrectCommission	0.708143	0.747836	1
87.206032	0.795802	city	2	1	0.797816	0.797816	0	1	0	0	CorrectCommission	0.825669	0.743656	1
88.001839	0.795800	mountain	7	0	0.000000	0.822269	1	0	0	0	CorrectOmission	1.077806	0.736708	1
88.797630	0.795793	city	1	1	0.797829	0.797829	0	1	0	0	CorrectCommission	0.825805	0.727045	1
89.593559	0.796056	city	4	1	0.799905	0.799905	0	1	0	0	CorrectCommission	0.847208	0.715024	1
90.389359	0.795539	city	1	1	0.698386	0.698386	0	1	0	0	CorrectCommission	0.199555	0.701132	1
91.185028	0.795809	city	9	1	0.665085	0.665085	0	1	0	0	CorrectCommission	0.542915	0.686030	1
91.980965	0.796062	mountain	6	0	0.000000	0.657310	1	0	0	0	CorrectOmission	0.623088	0.670329	1
92.776772	0.795550	city	5	1	0.657712	0.657712	0	1	0	0	CorrectCommission	0.618940	0.654617	1
93.572487	0.795880	city	8	1	0.648945	0.648945	0	1	0	0	CorrectCommission	0.709337	0.639376	1
94.368431	0.796011	city	6	1	0.611197	0.611197	0	1	0	0	CorrectCommission	1.098560	0.624979	1
95.164200	0.795520	city	4	1	0.697983	0.697983	0	1	0	0	CorrectCommission	0.203710	0.611712	1
95.959862	0.795814	city	6	1	0.655749	0.655749	0	1	0	0	CorrectCommission	0.639182	0.599826	1
96.755676	0.795812	city	9	1	0.797832	0.797832	0	1	0	0	CorrectCommission	0.825838	0.589443	1
97.551460	0.795758	city	10	1	0.667196	0.667196	0	1	0	0	CorrectCommission	0.521153	0.580660	1
98.347267	0.795849	city	1	1	0.698347	0.698347	0	1	0	0	CorrectCommission	0.199955	0.573572	1
99.143066	0.795758	city	4	1	0.749135	0.749135	0	1	0	0	CorrectCommission	0.323717	0.568244	1
99.938866	0.795838	city	8	1	0.648584	0.648584	0	1	0	0	CorrectCommission	0.713063	0.564721	1
100.734688	0.795800	city	10	1	0.651679	0.651679	0	1	0	0	CorrectCommission	0.681149	0.563016	1
101.530449	0.795719	mountain	6	0	0.000000	0.649999	1	0	0	0	CorrectOmission	0.698469	0.563129	1
102.326363	0.796118	city	1	1	0.660954	0.660954	0	1	0	0	CorrectCommission	0.585516	0.565057	1
103.122208	0.795566	city	3	1	0.701952	0.701952	0	1	0	0	CorrectCommission	0.162785	0.568744	1
103.918022	0.796064	city	4	1	0.702985	0.702985	0	1	0	0	CorrectCommission	0.152133	0.574126	1
104.713776	0.795447	city	3	1	0.552149	0.552149	0	1	0	0	CorrectCommission	1.707401	0.581048	1
105.509430	0.795858	city	2	1	0.702907	0.702907	0	1	0	0	CorrectCommission	0.152939	0.589179	1
106.305267	0.795824	city	10	1	0.648895	0.648895	0	1	0	0	CorrectCommission	0.709857	0.598165	1
107.101059	0.795759	city	5	1	0.698603	0.698603	0	1	0	0	CorrectCommission	0.197313	0.607455	1
107.896835	0.795790	mountain	1	0	0.000000	0.675345	1	0	0	0	CorrectOmission	0.437130	0.616407	1
108.692665	0.795862	city	3	1	0.651426	0.651426	0	1	0	0	CorrectCommission	0.683755	0.624280	1
109.488495	0.795798	city	9	1	0.699154	0.699154	0	1	0	0	CorrectCommission	0.191636	0.630317	1
110.284302	0.795823	city	1	1	0.616053	0.616053	0	1	0	0	CorrectCommission	1.048493	0.633856	1
111.080101	0.795781	city	5	1	0.563722	0.563722	0	1	0	0	CorrectCommission	1.588068	0.634353	1
111.876030	0.796075	mountain	2	0	0.000000	0.665607	1	0	0	0	CorrectOmission	0.537536	0.631477	1
112.671921	0.795706	city	2	1	0.754360	0.754360	0	1	0	0	CorrectCommission	0.377594	0.625251	1
113.467545	0.795539	city	7	1	0.662634	0.662634	0	1	0	0	CorrectCommission	0.568190	0.615920	1
114.263260	0.795888	city	10	1	0.599187	0.599187	0	1	0	0	CorrectCommission	1.222397	0.603916	1
115.059090	0.795774	city	2	1	0.650174	0.650174	0	1	0	0	CorrectCommission	0.696666	0.589795	1
115.854851	0.795750	city	6	1	0.748620	0.748620	0	1	0	0	CorrectCommission	0.318414	0.574199	1
116.650665	0.795878	city	5	1	0.698731	0.698731	0	1	0	0	CorrectCommission	0.195996	0.557687	1
117.446503	0.795801	city	7	1	0.705544	0.705544	0	1	0	0	CorrectCommission	0.125742	0.540748	1
118.242317	0.795826	city	8	1	0.712565	0.712565	0	1	0	0	CorrectCommission	0.053356	0.523676	1
119.038116	0.795771	city	3	1	0.798906	0.798906	0	1	0	0	CorrectCommission	0.836907	0.506713	1
119.833893	0.795776	mountain	8	0	0.000000	0.829681	1	0	0	0	CorrectOmission	1.154231	0.490075	1
120.629654	0.795757	city	2	1	0.798724	0.798724	0	1	0	0	CorrectCommission	0.835035	0.474098	1
121.425606	0.796146	city	5	1	0.699869	0.699869	0	1	0	0	CorrectCommission	0.184260	0.459326	1
122.221420	0.795487	city	3	1	0.648405	0.648405	0	1	0	0	CorrectCommission	0.714905	0.446490	1
123.017067	0.795799	city	2	1	0.717614	0.717614	0	1	0	0	CorrectCommission	0.001297	0.436496	1
123.812859	0.795786	city	1	1	0.757614	0.757614	0	1	0	0	CorrectCommission	0.411146	0.430405	1
124.608696	0.795881	city	6	1	0.762272	0.762272	0	1	0	0	CorrectCommission	0.459177	0.429189	1
125.404518	0.795774	city	1	1	0.698606	0.698606	0	1	0	0	CorrectCommission	0.197280	0.433606	1
126.200279	0.795741	city	7	1	0.748057	0.748057	0	1	0	0	CorrectCommission	0.312606	0.444059	1
126.996056	0.795815	city	10	1	0.712389	0.712389	0	1	0	0	CorrectCommission	0.055170	0.460445	1
127.791901	0.795868	city	7	1	0.748483	0.748483	0	1	0	0	CorrectCommission	0.317000	0.482148	1
128.587692	0.795735	city	6	1	0.749725	0.749725	0	1	0	0	CorrectCommission	0.329808	0.507971	1
129.383484	0.795837	city	4	1	0.716107	0.716107	0	1	0	0	CorrectCommission	0.016834	0.536354	1
130.179306	0.795811	city	6	1	0.748786	0.748786	0	1	0	0	CorrectCommission	0.320123	0.565522	1
130.975113	0.795796	city	4	1	0.812114	0.812114	0	1	0	0	CorrectCommission	0.973100	0.593714	1
131.770920	0.795810	city	7	1	0.798544	0.798544	0	1	0	0	CorrectCommission	0.833181	0.619427	1
132.566864	0.796091	city	4	1	0.997953	0.997953	0	1	0	0	CorrectCommission	2.889281	0.641672	1
133.362640	0.795447	city	7	1	0.751678	0.751678	0	1	0	0	CorrectCommission	0.349945	0.659973	1
134.158264	0.795797	city	9	1	0.748213	0.748213	0	1	0	0	CorrectCommission	0.314211	0.674603	1
134.954102	0.795892	city	10	1	0.761562	0.761562	0	1	0	0	CorrectCommission	0.451859	0.686228	1
135.749908	0.795714	city	3	1	0.748943	0.748943	0	1	0	0	CorrectCommission	0.321738	0.695848	1
136.545670	0.795800	city	10	1	0.748489	0.748489	0	1	0	0	CorrectCommission	0.317059	0.704538	1
137.341461	0.795808	city	3	1	0.798621	0.798621	0	1	0	0	CorrectCommission	0.833970	0.713203	1
138.137268	0.795805	city	1	1	0.748948	0.748948	0	1	0	0	CorrectCommission	0.321795	0.722432	1
138.933105	0.795874	city	7	1	0.851456	0.851456	0	1	0	0	CorrectCommission	1.378749	0.732550	1
139.729080	0.796075	mountain	6	0	0.000000	0.801814	1	0	0	0	CorrectOmission	0.866893	0.743386	1
140.524857	0.795457	city	9	1	0.700879	0.700879	0	1	0	0	CorrectCommission	0.173843	0.754546	1
141.320663	0.796162	city	1	1	0.649508	0.649508	0	1	0	0	CorrectCommission	0.703534	0.765467	1
142.116516	0.795537	city	4	1	0.748461	0.748461	0	1	0	0	CorrectCommission	0.316766	0.775566	0
142.912170	0.795768	city	3	1	0.550957	0.550957	0	1	0	0	CorrectCommission	1.719697	0.784438	0
143.707916	0.795725	city	4	1	0.598916	0.598916	0	1	0	0	CorrectCommission	1.225188	0.791864	0
144.503708	0.795879	city	2	1	0.599674	0.599674	0	1	0	0	CorrectCommission	1.217368	0.797994	0
145.299561	0.795829	city	7	1	0.664155	0.664155	0	1	0	0	CorrectCommission	0.552508	0.803234	0
146.095505	0.796047	mountain	9	0	0.000000	0.766618	1	0	0	0	CorrectOmission	0.503991	0.808185	0
146.891266	0.795463	city	7	1	0.797892	0.797892	0	1	0	0	CorrectCommission	0.826452	0.813456	0
147.686890	0.795808	city	3	1	0.648803	0.648803	0	1	0	0	CorrectCommission	0.710803	0.819476	0
148.482727	0.795845	mountain	2	0	0.000000	0.673384	1	0	0	0	CorrectOmission	0.457347	0.826368	0
149.278564	0.795833	city	3	1	0.748194	0.748194	0	1	0	0	CorrectCommission	0.314019	0.833863	0
150.074356	0.795763	city	9	1	0.749792	0.749792	0	1	0	0	CorrectCommission	0.330495	0.841170	0
150.870148	0.795830	city	7	1	0.565845	0.565845	0	1	0	0	CorrectCommission	1.566179	0.847206	0
151.665970	0.795796	city	1	1	0.552119	0.552119	0	1	0	0	CorrectCommission	1.707707	0.850576	0
152.461761	0.795801	mountain	5	0	0.000000	0.655922	1	0	0	0	CorrectOmission	0.637398	0.849893	0
153.257568	0.795799	city	4	1	0.698743	0.698743	0	1	0	0	CorrectCommission	0.195868	0.843987	0
154.053375	0.795832	mountain	6	1	0.502073	0.502073	0	0	1	0	CommissionError	2.223732	0.832038	0
154.849182	0.795780	mountain	1	1	0.617359	0.617359	0	0	1	0	CommissionError	1.035023	0.813608	0
155.644974	0.795783	city	5	1	0.748210	0.748210	0	1	0	0	CorrectCommission	0.314186	0.789028	0
156.440918	0.796109	city	4	1	0.748191	0.748191	0	1	0	0	CorrectCommission	0.313986	0.759213	1
157.236862	0.795781	city	9	1	0.854062	0.854062	0	1	0	0	CorrectCommission	1.405617	0.725631	1
158.032471	0.795453	city	10	1	0.599294	0.599294	0	1	0	0	CorrectCommission	1.221296	0.690195	1
158.828110	0.795803	city	4	1	0.648774	0.648774	0	1	0	0	CorrectCommission	0.711102	0.655094	1
159.623947	0.795872	city	10	1	0.698474	0.698474	0	1	0	0	CorrectCommission	0.198651	0.622614	1
160.419922	0.796102	city	5	1	0.701109	0.701109	0	1	0	0	CorrectCommission	0.171475	0.594836	1
161.215851	0.795744	mountain	3	0	0.000000	0.735905	1	0	0	0	CorrectOmission	0.187306	0.573444	1
162.011490	0.795549	city	7	1	0.752142	0.752142	0	1	0	0	CorrectCommission	0.354728	0.559563	1
162.807190	0.795836	city	6	1	0.699102	0.699102	0	1	0	0	CorrectCommission	0.192173	0.553656	1
163.602997	0.795763	mountain	4	0	0.000000	0.664934	1	0	0	0	CorrectOmission	0.544477	0.555500	1
164.398926	0.796105	city	8	1	0.660923	0.660923	0	1	0	0	CorrectCommission	0.585831	0.564237	1
165.194870	0.795803	city	10	1	0.698354	0.698354	0	1	0	0	CorrectCommission	0.199882	0.578543	1
165.990524	0.795497	city	3	1	0.648348	0.648348	0	1	0	0	CorrectCommission	0.715497	0.596801	1
166.786194	0.795835	city	6	1	0.698468	0.698468	0	1	0	0	CorrectCommission	0.198704	0.617306	1
167.582138	0.796058	city	7	1	0.797742	0.797742	0	1	0	0	CorrectCommission	0.824908	0.638565	1
168.377930	0.795535	mountain	7	0	0.000000	0.863721	1	0	0	0	CorrectOmission	1.505217	0.659337	1
169.173599	0.795776	city	7	1	0.851036	0.851036	0	1	0	0	CorrectCommission	1.374420	0.678861	1
169.969406	0.795847	city	6	1	0.714317	0.714317	0	1	0	0	CorrectCommission	0.035285	0.696835	1
170.765335	0.796024	city	4	1	0.648583	0.648583	0	1	0	0	CorrectCommission	0.713077	0.713483	1
171.561127	0.795535	city	8	1	0.617197	0.617197	0	1	0	0	CorrectCommission	1.036697	0.729238	1
172.356766	0.795771	city	2	1	0.650296	0.650296	0	1	0	0	CorrectCommission	0.695407	0.744738	1
173.152603	0.795877	city	5	1	0.649833	0.649833	0	1	0	0	CorrectCommission	0.700181	0.760628	1
173.948425	0.795795	city	6	1	0.710972	0.710972	0	1	0	0	CorrectCommission	0.069779	0.777448	0
174.744217	0.795784	city	7	1	0.748330	0.748330	0	1	0	0	CorrectCommission	0.315415	0.795505	0
175.540161	0.796084	city	10	1	0.798501	0.798501	0	1	0	0	CorrectCommission	0.832734	0.814827	0
176.335968	0.795538	city	5	1	0.807525	0.807525	0	1	0	0	CorrectCommission	0.925779	0.835247	0
177.131775	0.796070	mountain	7	0	0.000000	0.838007	1	0	0	0	CorrectOmission	1.240084	0.856486	0
177.927567	0.795522	city	2	1	0.850323	0.850323	0	1	0	0	CorrectCommission	1.367065	0.878186	0
178.723190	0.795723	city	3	1	0.804845	0.804845	0	1	0	0	CorrectCommission	0.898142	0.900000	0
179.519119	0.796131	mountain	7	0	0.000000	0.843572	1	0	0	0	CorrectOmission	1.297457	0.921603	0
180.314926	0.795488	city	2	1	0.847958	0.847958	0	1	0	0	CorrectCommission	1.342685	0.942609	0
181.110580	0.795809	city	10	1	0.699458	0.699458	0	1	0	0	CorrectCommission	0.188497	0.962547	0
181.906403	0.795843	city	8	1	0.705641	0.705641	0	1	0	0	CorrectCommission	0.124746	0.980814	0
182.702209	0.795789	city	1	1	0.797837	0.797837	0	1	0	0	CorrectCommission	0.825885	0.996532	0
183.498001	0.795771	city	3	1	0.800094	0.800094	0	1	0	0	CorrectCommission	0.849161	1.008555	0
184.293777	0.795787	city	7	1	0.947489	0.947489	0	1	0	0	CorrectCommission	2.368948	1.015661	0
185.089600	0.795851	city	1	1	0.756225	0.756225	0	1	0	0	CorrectCommission	0.396825	1.016599	0
185.885559	0.796068	city	5	1	0.814999	0.814999	0	1	0	0	CorrectCommission	1.002839	1.010503	0
186.681473	0.795780	city	6	1	0.908522	0.908522	0	1	0	0	CorrectCommission	1.967161	0.996964	0
187.477158	0.795570	city	2	1	0.897411	0.897411	0	1	0	0	CorrectCommission	1.852594	0.976232	0
188.272827	0.795776	city	9	1	0.755259	0.755259	0	1	0	0	CorrectCommission	0.386861	0.949405	0
189.068619	0.795803	city	3	1	0.848284	0.848284	0	1	0	0	CorrectCommission	1.346047	0.918482	0
189.864578	0.796110	mountain	4	0	0.000000	0.833896	1	0	0	0	CorrectOmission	1.197685	0.886136	0
190.660522	0.795798	city	9	1	0.755222	0.755222	0	1	0	0	CorrectCommission	0.386486	0.855611	0
191.456177	0.795505	city	1	1	0.655395	0.655395	0	1	0	0	CorrectCommission	0.642838	0.830380	0
192.251801	0.795752	city	5	1	0.652740	0.652740	0	1	0	0	CorrectCommission	0.670213	0.813687	0
193.047745	0.796119	city	1	1	0.698427	0.698427	0	1	0	0	CorrectCommission	0.199127	0.808165	0
193.843582	0.795553	city	7	1	0.750531	0.750531	0	1	0	0	CorrectCommission	0.338110	0.815504	0
194.639221	0.795733	city	3	1	0.748266	0.748266	0	1	0	0	CorrectCommission	0.314762	0.836120	0
195.435028	0.795867	city	1	1	0.705991	0.705991	0	1	0	0	CorrectCommission	0.121143	0.869060	0
196.230850	0.795784	city	7	1	0.805177	0.805177	0	1	0	0	CorrectCommission	0.901573	0.912073	0
197.026657	0.795824	city	1	1	0.857652	0.857652	0	1	0	0	CorrectCommission	1.442642	0.961805	0
197.822433	0.795733	mountain	10	0	0.000000	0.803372	1	0	0	0	CorrectOmission	0.882955	1.014165	0
198.618210	0.795838	city	6	1	0.748388	0.748388	0	1	0	0	CorrectCommission	0.316012	1.064820	0
199.414017	0.795779	city	7	1	0.798751	0.798751	0	1	0	0	CorrectCommission	0.835313	1.109708	0
200.209961	0.796102	city	1	1	0.847570	0.847570	0	1	0	0	CorrectCommission	1.338681	1.145450	0
201.005783	0.795529	city	6	1	0.946821	0.946821	0	1	0	0	CorrectCommission	2.362064	1.169841	0
201.801468	0.795846	city	8	1	1.162838	1.162838	0	1	0	0	CorrectCommission	4.589413	1.181948	0
202.597260	0.795736	city	9	1	0.897280	0.897280	0	1	0	0	CorrectCommission	1.851242	1.182251	0
203.393143	0.796034	city	3	1	0.762865	0.762865	0	1	0	0	CorrectCommission	0.465287	1.172551	0
204.188934	0.795537	city	7	1	0.698393	0.698393	0	1	0	0	CorrectCommission	0.199478	1.155351	0
204.984604	0.795818	city	10	1	0.710179	0.710179	0	1	0	0	CorrectCommission	0.077958	1.133457	0
205.780426	0.795828	city	9	1	0.748161	0.748161	0	1	0	0	CorrectCommission	0.313677	1.109584	0
206.576401	0.796131	city	8	1	0.759128	0.759128	0	1	0	0	CorrectCommission	0.426757	1.085890	0
207.372375	0.795803	city	10	1	0.813743	0.813743	0	1	0	0	CorrectCommission	0.989896	1.063818	0
208.168167	0.795775	city	2	1	0.859368	0.859368	0	1	0	0	CorrectCommission	1.460334	1.044046	0
208.963959	0.795811	city	6	1	0.904421	0.904421	0	1	0	0	CorrectCommission	1.924875	1.026595	0
209.759598	0.795480	mountain	5	0	0.000000	0.865358	1	0	0	0	CorrectOmission	1.522097	1.011058	0
210.555267	0.795865	city	2	1	0.798584	0.798584	0	1	0	0	CorrectCommission	0.833586	0.996881	0
211.351105	0.795787	city	7	1	0.760502	0.760502	0	1	0	0	CorrectCommission	0.440928	0.983539	0
212.147034	0.796079	city	3	1	0.551541	0.551541	0	1	0	0	CorrectCommission	1.713675	0.970610	0
212.942841	0.795526	city	1	1	0.549064	0.549064	0	1	0	0	CorrectCommission	1.739216	0.957836	0
213.738495	0.795799	city	10	1	0.716431	0.716431	0	1	0	0	CorrectCommission	0.013496	0.945117	0
214.534317	0.795826	city	3	1	0.698562	0.698562	0	1	0	0	CorrectCommission	0.197734	0.932493	0
215.330215	0.796000	city	9	1	0.698344	0.698344	0	1	0	0	CorrectCommission	0.199981	0.919918	0
216.126144	0.795830	city	5	1	0.615505	0.615505	0	1	0	0	CorrectCommission	1.054138	0.907315	0
216.921814	0.795538	city	10	1	0.648509	0.648509	0	1	0	0	CorrectCommission	0.713840	0.894510	0
217.717484	0.795801	city	2	1	0.899429	0.899429	0	1	0	0	CorrectCommission	1.873405	0.881343	0
218.513306	0.795837	mountain	6	0	0.000000	0.895636	1	0	0	0	CorrectOmission	1.834292	0.867628	0
219.309113	0.795774	city	6	1	0.768492	0.768492	0	1	0	0	CorrectCommission	0.523305	0.853296	0
220.105026	0.796062	city	10	1	0.649359	0.649359	0	1	0	0	CorrectCommission	0.705074	0.838577	0
220.900970	0.795824	mountain	3	0	0.000000	0.633273	1	0	0	0	CorrectOmission	0.870937	0.823891	0
221.696777	0.795774	city	6	1	0.654828	0.654828	0	1	0	0	CorrectCommission	0.648676	0.809829	0
222.492401	0.795477	city	5	1	0.648621	0.648621	0	1	0	0	CorrectCommission	0.712681	0.797079	0
223.288040	0.795809	city	4	1	0.748176	0.748176	0	1	0	0	CorrectCommission	0.313834	0.786313	0
224.083893	0.795884	city	10	1	0.698330	0.698330	0	1	0	0	CorrectCommission	0.200129	0.778118	0
224.879868	0.796061	city	9	1	0.648592	0.648592	0	1	0	0	CorrectCommission	0.712984	0.772890	0
225.675797	0.795815	city	7	1	0.599341	0.599341	0	1	0	0	CorrectCommission	1.220804	0.770724	1
226.471466	0.795520	city	5	1	0.552935	0.552935	0	1	0	0	CorrectCommission	1.699297	0.771445	1
227.267105	0.795740	mountain	2	0	0.000000	0.683819	1	0	0	0	CorrectOmission	0.349754	0.774624	0
228.062881	0.795833	city	6	1	0.798123	0.798123	0	1	0	0	CorrectCommission	0.828832	0.779660	0
228.858856	0.796116	city	5	1	0.701977	0.701977	0	1	0	0	CorrectCommission	0.162531	0.785715	0
229.654678	0.795511	city	1	1	0.648532	0.648532	0	1	0	0	CorrectCommission	0.713596	0.791839	0
230.450470	0.796091	city	9	1	0.698633	0.698633	0	1	0	0	CorrectCommission	0.197008	0.797030	0
231.246246	0.795461	city	7	1	0.648629	0.648629	0	1	0	0	CorrectCommission	0.712600	0.800473	0
232.041870	0.795777	city	8	1	0.550405	0.550405	0	1	0	0	CorrectCommission	1.725385	0.801501	0
232.837692	0.795868	city	10	1	0.549224	0.549224	0	1	0	0	CorrectCommission	1.737558	0.799797	0
233.633667	0.796074	city	3	1	0.648531	0.648531	0	1	0	0	CorrectCommission	0.713605	0.795471	0
234.429428	0.795459	city	8	1	0.648305	0.648305	0	1	0	0	CorrectCommission	0.715936	0.789154	0
235.225067	0.795818	city	3	1	0.669928	0.669928	0	1	0	0	CorrectCommission	0.492984	0.781825	0
236.020905	0.795840	city	8	1	0.807855	0.807855	0	1	0	0	CorrectCommission	0.929185	0.774761	0
236.816711	0.795800	city	9	1	0.801718	0.801718	0	1	0	0	CorrectCommission	0.865907	0.769416	1
237.612518	0.795803	city	2	1	0.698674	0.698674	0	1	0	0	CorrectCommission	0.196586	0.767223	1
238.408295	0.795762	city	4	1	0.748346	0.748346	0	1	0	0	CorrectCommission	0.315588	0.769401	1
239.204102	0.795834	city	1	1	0.648923	0.648923	0	1	0	0	CorrectCommission	0.709561	0.776757	0
239.999893	0.795768	city	10	1	0.851869	0.851869	0	1	0	0	CorrectCommission	1.383006	0.789544	0
240.795731	0.795894	city	1	1	0.752736	0.752736	0	1	0	0	CorrectCommission	0.360851	0.807385	0
241.591568	0.795783	city	5	1	0.748913	0.748913	0	1	0	0	CorrectCommission	0.321431	0.829338	0
242.387497	0.796070	city	7	1	0.807212	0.807212	0	1	0	0	CorrectCommission	0.922554	0.853844	0
243.183289	0.795527	city	2	1	0.798207	0.798207	0	1	0	0	CorrectCommission	0.829701	0.878821	0
243.978912	0.795718	city	6	1	0.804923	0.804923	0	1	0	0	CorrectCommission	0.898947	0.901946	0
244.774734	0.795904	city	1	1	0.648993	0.648993	0	1	0	0	CorrectCommission	0.708844	0.920869	0
245.570572	0.795771	city	8	1	0.567663	0.567663	0	1	0	0	CorrectCommission	1.547440	0.933456	0
246.366486	0.796057	city	10	1	0.549994	0.549994	0	1	0	0	CorrectCommission	1.729618	0.938023	0
247.162277	0.795521	city	6	1	0.649451	0.649451	0	1	0	0	CorrectCommission	0.704124	0.933535	0
247.957916	0.795771	city	8	1	0.599370	0.599370	0	1	0	0	CorrectCommission	1.220511	0.919816	0
248.753876	0.796151	city	10	1	0.600462	0.600462	0	1	0	0	CorrectCommission	1.209249	0.897509	0
249.549667	0.795442	city	1	1	0.565497	0.565497	0	1	0	0	CorrectCommission	1.569775	0.868021	0
250.345474	0.796155	city	4	1	0.600761	0.600761	0	1	0	0	CorrectCommission	1.206164	0.833365	0
251.141296	0.795504	city	5	1	0.698375	0.698375	0	1	0	0	CorrectCommission	0.199664	0.796028	0
251.936966	0.795813	city	4	1	0.755086	0.755086	0	1	0	0	CorrectCommission	0.385083	0.758666	1
252.732788	0.795834	city	9	1	0.765563	0.765563	0	1	0	0	CorrectCommission	0.493106	0.723782	1
253.528564	0.795728	city	1	1	0.748440	0.748440	0	1	0	0	CorrectCommission	0.316551	0.693474	1
254.324326	0.795774	city	7	1	0.766468	0.766468	0	1	0	0	CorrectCommission	0.502443	0.669273	1
255.120132	0.795850	city	9	1	0.751006	0.751006	0	1	0	0	CorrectCommission	0.343013	0.652076	1
255.916107	0.796106	city	10	1	0.698418	0.698418	0	1	0	0	CorrectCommission	0.199223	0.642073	1
256.712067	0.795782	mountain	4	0	0.000000	0.796700	1	0	0	0	CorrectOmission	0.814160	0.638801	1
257.507721	0.795529	city	2	1	0.859209	0.859209	0	1	0	0	CorrectCommission	1.458688	0.641299	1
258.303375	0.795802	city	8	1	0.699301	0.699301	0	1	0	0	CorrectCommission	0.190116	0.648326	1
259.099152	0.795746	city	10	1	0.648856	0.648856	0	1	0	0	CorrectCommission	0.710259	0.658630	1
259.895081	0.796150	city	1	1	0.698357	0.698357	0	1	0	0	CorrectCommission	0.199854	0.671024	1
260.690918	0.795511	city	6	1	0.657214	0.657214	0	1	0	0	CorrectCommission	0.624073	0.684708	1
261.486542	0.795747	city	7	1	0.811874	0.811874	0	1	0	0	CorrectCommission	0.970616	0.699279	1
262.282349	0.795872	city	10	1	0.665758	0.665758	0	1	0	0	CorrectCommission	0.535981	0.714862	1
263.078339	0.796077	city	8	1	0.653514	0.653514	0	1	0	0	CorrectCommission	0.662228	0.732085	1
263.874115	0.795503	city	3	1	0.513730	0.513730	0	1	0	0	CorrectCommission	2.103545	0.751897	1
264.669922	0.796100	city	5	1	0.599079	0.599079	0	1	0	0	CorrectCommission	1.223507	0.775380	0
265.465729	0.795518	city	7	1	0.704901	0.704901	0	1	0	0	CorrectCommission	0.132375	0.803513	0
266.261383	0.795781	city	6	1	0.716793	0.716793	0	1	0	0	CorrectCommission	0.009758	0.836815	0
267.057190	0.795825	mountain	2	0	0.000000	0.684670	1	0	0	0	CorrectOmission	0.340981	0.875052	0
267.852997	0.795776	city	7	1	0.665952	0.665952	0	1	0	0	CorrectCommission	0.533984	0.917007	0
268.648804	0.795832	city	4	1	0.718059	0.718059	0	1	0	0	CorrectCommission	0.003291	0.960533	0
269.444580	0.795728	city	7	1	0.699003	0.699003	0	1	0	0	CorrectCommission	0.193190	1.002671	0
270.240509	0.796112	city	5	1	0.499705	0.499705	0	1	0	0	CorrectCommission	2.248156	1.039928	0
271.036346	0.795575	city	9	1	0.499446	0.499446	0	1	0	0	CorrectCommission	2.250818	1.068682	0
271.831970	0.795708	city	6	1	0.599519	0.599519	0	1	0	0	CorrectCommission	1.218968	1.085792	0
272.627777	0.795877	city	2	1	0.504684	0.504684	0	1	0	0	CorrectCommission	2.196811	1.089018	0
273.423615	0.795785	city	5	1	0.549161	0.549161	0	1	0	0	CorrectCommission	1.738213	1.077239	0
274.219421	0.795827	city	10	1	0.608699	0.608699	0	1	0	0	CorrectCommission	1.124314	1.050730	0
275.015350	0.796053	city	9	1	0.598862	0.598862	0	1	0	0	CorrectCommission	1.225744	1.011034	0
275.811279	0.795797	city	7	1	0.549822	0.549822	0	1	0	0	CorrectCommission	1.731400	0.960791	0
276.606903	0.795471	mountain	6	0	0.000000	0.649341	1	0	0	0	CorrectOmission	0.705261	0.903313	0
277.402588	0.795875	city	4	1	0.748579	0.748579	0	1	0	0	CorrectCommission	0.317983	0.842232	0
278.198425	0.795779	city	8	1	0.698696	0.698696	0	1	0	0	CorrectCommission	0.196357	0.780980	0
278.994202	0.795777	mountain	7	0	0.000000	0.722322	1	0	0	0	CorrectOmission	0.047253	0.722439	1
279.790131	0.796130	city	2	1	0.748116	0.748116	0	1	0	0	CorrectCommission	0.313208	0.668738	1
280.585938	0.795453	city	1	1	0.704734	0.704734	0	1	0	0	CorrectCommission	0.134100	0.621143	1
281.381561	0.795798	city	8	1	0.698743	0.698743	0	1	0	0	CorrectCommission	0.195877	0.580097	1
282.177368	0.795822	city	9	1	0.897533	0.897533	0	1	0	0	CorrectCommission	1.853851	0.545455	1
282.973358	0.796148	city	4	1	0.798124	0.798124	0	1	0	0	CorrectCommission	0.828846	0.516657	1
283.769165	0.795476	city	7	1	0.648998	0.648998	0	1	0	0	CorrectCommission	0.708795	0.493095	1
284.564941	0.796087	city	8	1	0.748748	0.748748	0	1	0	0	CorrectCommission	0.319725	0.474139	1
285.360779	0.795549	city	7	1	0.707341	0.707341	0	1	0	0	CorrectCommission	0.107214	0.459280	1
286.156403	0.795734	city	5	1	0.710273	0.710273	0	1	0	0	CorrectCommission	0.076984	0.448144	1
286.952209	0.795858	mountain	2	0	0.000000	0.729824	1	0	0	0	CorrectOmission	0.124601	0.440448	1
287.748047	0.795825	city	8	1	0.748381	0.748381	0	1	0	0	CorrectCommission	0.315941	0.435829	1
288.543823	0.795723	city	2	1	0.748331	0.748331	0	1	0	0	CorrectCommission	0.315434	0.433839	1
289.339600	0.795849	city	1	1	0.650158	0.650158	0	1	0	0	CorrectCommission	0.696831	0.433940	1
290.135406	0.795752	city	6	1	0.748102	0.748102	0	1	0	0	CorrectCommission	0.313067	0.435459	1
290.931213	0.795870	city	1	1	0.655325	0.655325	0	1	0	0	CorrectCommission	0.643559	0.437640	1
291.727020	0.795743	mountain	10	0	0.000000	0.653461	1	0	0	0	CorrectOmission	0.662773	0.439788	1
292.522827	0.795866	city	3	1	0.698935	0.698935	0	1	0	0	CorrectCommission	0.193892	0.441369	1
293.318787	0.796027	city	7	1	0.748170	0.748170	0	1	0	0	CorrectCommission	0.313769	0.442226	1
294.114563	0.795582	city	5	1	0.660121	0.660121	0	1	0	0	CorrectCommission	0.594104	0.442568	1
294.910217	0.795723	city	4	1	0.804828	0.804828	0	1	0	0	CorrectCommission	0.897969	0.443052	1
295.706177	0.796161	city	10	1	0.648960	0.648960	0	1	0	0	CorrectCommission	0.709180	0.444866	1
296.502014	0.795515	city	3	1	0.702614	0.702614	0	1	0	0	CorrectCommission	0.155963	0.449645	1
297.297791	0.796067	city	5	1	0.751077	0.751077	0	1	0	0	CorrectCommission	0.343739	0.459316	1
298.093597	0.795499	city	2	1	0.748542	0.748542	0	1	0	0	CorrectCommission	0.317604	0.475895	1
298.889252	0.795827	city	10	1	0.751359	0.751359	0	1	0	0	CorrectCommission	0.346655	0.501261	1
299.685089	0.795831	city	4	1	0.698927	0.698927	0	1	0	0	CorrectCommission	0.193979	0.536765	1
300.480865	0.795759	city	8	1	0.713637	0.713637	0	1	0	0	CorrectCommission	0.042296	0.583110	1
301.276672	0.795831	city	3	1	0.701581	0.701581	0	1	0	0	CorrectCommission	0.166606	0.640040	1
302.072479	0.795781	city	6	1	0.802330	0.802330	0	1	0	0	CorrectCommission	0.872215	0.706254	1
302.868256	0.795779	city	8	1	0.748717	0.748717	0	1	0	0	CorrectCommission	0.319414	0.779349	0
303.664062	0.795852	city	10	1	0.655709	0.655709	0	1	0	0	CorrectCommission	0.639597	0.856008	0
304.459839	0.795718	mountain	8	0	0.000000	0.794569	1	0	0	0	CorrectOmission	0.792185	0.932142	0
305.255646	0.795886	city	6	1	0.898567	0.898567	0	1	0	0	CorrectCommission	1.864512	1.003236	0
306.051483	0.795765	city	9	1	0.700974	0.700974	0	1	0	0	CorrectCommission	0.172867	1.064772	0
306.847260	0.795773	city	8	1	0.608642	0.608642	0	1	0	0	CorrectCommission	1.124903	1.112752	0
307.643036	0.795776	city	9	1	0.848603	0.848603	0	1	0	0	CorrectCommission	1.349332	1.143975	0
308.438812	0.795805	city	3	1	1.146352	1.146352	0	1	0	0	CorrectCommission	4.419425	1.156553	0
309.234802	0.796146	city	8	0	0.000000	0.987208	0	0	0	1	OmissionError	2.778494	1.149966	0
310.030640	0.795552	city	4	1	0.747956	0.747956	0	1	0	0	CorrectCommission	0.311559	1.125329	0
310.826294	0.795761	city	7	1	0.805378	0.805378	0	1	0	0	CorrectCommission	0.903640	1.085198	0
311.622223	0.796076	mountain	10	0	0.000000	0.776796	1	0	0	0	CorrectOmission	0.608928	1.033189	0
312.418030	0.795564	city	5	1	0.747916	0.747916	0	1	0	0	CorrectCommission	0.311150	0.973672	0
313.213684	0.795744	city	8	1	0.804446	0.804446	0	1	0	0	CorrectCommission	0.894030	0.911391	0
314.009613	0.796103	city	4	1	0.848360	0.848360	0	1	0	0	CorrectCommission	1.346828	0.851025	0
314.805573	0.795816	city	2	1	0.748024	0.748024	0	1	0	0	CorrectCommission	0.312265	0.796849	0
315.601227	0.795493	city	6	1	0.797486	0.797486	0	1	0	0	CorrectCommission	0.822269	0.752450	1
316.396881	0.795797	city	3	1	0.703550	0.703550	0	1	0	0	CorrectCommission	0.146302	0.720403	1
317.192688	0.795845	city	6	1	0.751965	0.751965	0	1	0	0	CorrectCommission	0.352899	0.702254	1
317.988464	0.795720	city	3	1	0.698305	0.698305	0	1	0	0	CorrectCommission	0.200392	0.698284	1
318.784271	0.795870	city	10	1	0.655430	0.655430	0	1	0	0	CorrectCommission	0.642475	0.707607	1
319.580109	0.795787	city	6	1	0.798514	0.798514	0	1	0	0	CorrectCommission	0.832869	0.728160	1
320.375916	0.795837	city	8	1	0.708402	0.708402	0	1	0	0	CorrectCommission	0.096281	0.756955	1
321.171875	0.796067	city	3	1	0.649410	0.649410	0	1	0	0	CorrectCommission	0.704546	0.790313	0
321.967621	0.795445	mountain	1	0	0.000000	0.705947	1	0	0	0	CorrectOmission	0.121591	0.824140	0
322.763275	0.795842	city	6	1	0.715557	0.715557	0	1	0	0	CorrectCommission	0.022506	0.854377	0
323.559113	0.795840	city	9	1	0.515782	0.515782	0	1	0	0	CorrectCommission	2.082385	0.877456	0
324.355072	0.796073	city	1	1	0.416678	0.416678	0	1	0	0	CorrectCommission	3.104244	0.890521	0
325.150848	0.795495	city	7	1	0.608852	0.608852	0	1	0	0	CorrectCommission	1.122742	0.891905	0
325.946503	0.795812	city	2	1	0.608300	0.608300	0	1	0	0	CorrectCommission	1.128428	0.881299	0
326.742310	0.795831	mountain	3	1	0.508259	0.508259	0	0	1	0	CommissionError	2.159956	0.859668	0
327.538269	0.796062	city	3	1	0.698286	0.698286	0	1	0	0	CorrectCommission	0.200589	0.829127	0
328.334076	0.795545	city	9	1	0.709470	0.709470	0	1	0	0	CorrectCommission	0.085266	0.792731	0
329.129700	0.795721	city	3	1	0.705032	0.705032	0	1	0	0	CorrectCommission	0.131027	0.753888	1
329.925629	0.796153	city	10	1	0.798130	0.798130	0	1	0	0	CorrectCommission	0.828905	0.715999	1
330.721436	0.795439	city	9	1	0.748572	0.748572	0	1	0	0	CorrectCommission	0.317910	0.682063	1
331.517090	0.795860	city	3	1	0.703311	0.703311	0	1	0	0	CorrectCommission	0.148771	0.654403	1
332.312927	0.795843	city	7	1	0.847499	0.847499	0	1	0	0	CorrectCommission	1.337955	0.634484	1
333.108734	0.795765	city	8	1	0.703638	0.703638	0	1	0	0	CorrectCommission	0.145395	0.622792	1
333.904510	0.795799	city	5	1	0.748369	0.748369	0	1	0	0	CorrectCommission	0.315823	0.619065	1
334.700317	0.795816	mountain	1	0	0.000000	0.702865	1	0	0	0	CorrectOmission	0.153374	0.622240	1
335.496124	0.795781	city	5	1	0.648575	0.648575	0	1	0	0	CorrectCommission	0.713152	0.630783	1
336.292053	0.796079	city	4	1	0.666951	0.666951	0	1	0	0	CorrectCommission	0.523675	0.642941	1
337.087860	0.795540	city	8	1	0.648835	0.648835	0	1	0	0	CorrectCommission	0.710470	0.657037	1
337.883545	0.795804	city	4	1	0.610570	0.610570	0	1	0	0	CorrectCommission	1.105028	0.671755	1
338.679352	0.795836	city	1	1	0.563303	0.563303	0	1	0	0	CorrectCommission	1.592396	0.686166	1
339.475128	0.795700	city	7	1	0.650228	0.650228	0	1	0	0	CorrectCommission	0.696115	0.700013	1
340.271027	0.796129	city	5	1	0.707917	0.707917	0	1	0	0	CorrectCommission	0.101278	0.713725	1
341.066895	0.795561	city	8	1	0.648794	0.648794	0	1	0	0	CorrectCommission	0.710895	0.728262	1
341.862549	0.795740	city	5	1	0.649426	0.649426	0	1	0	0	CorrectCommission	0.704376	0.744960	1
342.658325	0.795848	city	2	1	0.699240	0.699240	0	1	0	0	CorrectCommission	0.190749	0.765405	1
343.454254	0.796021	city	7	1	0.850664	0.850664	0	1	0	0	CorrectCommission	1.370589	0.791161	0
344.250061	0.795552	mountain	4	0	0.000000	0.819772	1	0	0	0	CorrectOmission	1.052060	0.823374	0
345.045715	0.795770	city	5	1	0.753374	0.753374	0	1	0	0	CorrectCommission	0.367432	0.862715	0
345.841522	0.795865	city	7	1	0.798282	0.798282	0	1	0	0	CorrectCommission	0.830471	0.909074	0
346.637329	0.795764	city	2	1	0.748171	0.748171	0	1	0	0	CorrectCommission	0.313784	0.961471	0
347.433136	0.795813	city	6	1	0.710153	0.710153	0	1	0	0	CorrectCommission	0.078220	1.017999	0
348.229095	0.796106	mountain	2	0	0.000000	0.812617	1	0	0	0	CorrectOmission	0.978280	1.075927	0
349.024902	0.795518	city	7	1	0.897795	0.897795	0	1	0	0	CorrectCommission	1.856554	1.131960	0
349.820557	0.795779	city	3	1	0.807922	0.807922	0	1	0	0	CorrectCommission	0.929868	1.182526	0
350.616333	0.795762	city	9	1	0.649811	0.649811	0	1	0	0	CorrectCommission	0.700409	1.224347	0
351.412109	0.795842	city	3	1	0.499908	0.499908	0	1	0	0	CorrectCommission	2.246060	1.254686	0
352.207977	0.795849	city	5	1	0.450004	0.450004	0	1	0	0	CorrectCommission	2.760615	1.271687	0
353.003937	0.796067	mountain	8	1	0.350778	0.350778	0	0	1	0	CommissionError	3.783739	1.274644	0
353.799713	0.795527	city	2	1	0.749132	0.749132	0	1	0	0	CorrectCommission	0.323685	1.263982	0
354.595367	0.795761	city	4	1	0.798607	0.798607	0	1	0	0	CorrectCommission	0.833827	1.241322	0
355.391296	0.796113	city	2	1	0.760412	0.760412	0	1	0	0	CorrectCommission	0.439995	1.208865	0
356.187134	0.795531	city	7	1	0.798358	0.798358	0	1	0	0	CorrectCommission	0.831260	1.169245	0
356.982758	0.795743	city	9	1	0.898119	0.898119	0	1	0	0	CorrectCommission	1.859893	1.125140	0
357.778564	0.795868	city	1	1	0.805456	0.805456	0	1	0	0	CorrectCommission	0.904448	1.078878	0
358.574402	0.795779	city	8	1	0.653089	0.653089	0	1	0	0	CorrectCommission	0.666614	1.032355	0
359.370178	0.795800	city	1	1	0.648612	0.648612	0	1	0	0	CorrectCommission	0.712771	0.986878	0
360.165955	0.795731	city	10	1	0.768229	0.768229	0	1	0	0	CorrectCommission	0.520602	0.943258	0
360.961884	0.796161	city	3	1	0.698656	0.698656	0	1	0	0	CorrectCommission	0.196772	0.901894	0
361.757721	0.795470	city	4	1	0.954197	0.954197	0	1	0	0	CorrectCommission	2.438114	0.863063	0
362.553497	0.796115	mountain	7	0	0.000000	0.885167	1	0	0	0	CorrectOmission	1.726350	0.827059	0
363.349304	0.795506	city	8	1	0.710384	0.710384	0	1	0	0	CorrectCommission	0.075843	0.794457	0
364.144958	0.795817	city	2	1	0.648663	0.648663	0	1	0	0	CorrectCommission	0.712245	0.766200	1
364.940918	0.796076	city	6	1	0.762492	0.762492	0	1	0	0	CorrectCommission	0.461441	0.743452	1
365.736725	0.795519	city	3	1	0.797807	0.797807	0	1	0	0	CorrectCommission	0.825579	0.727585	1
366.532349	0.795774	city	8	1	0.748441	0.748441	0	1	0	0	CorrectCommission	0.316560	0.719856	1
367.328156	0.795840	mountain	8	0	0.000000	0.755948	1	0	0	0	CorrectOmission	0.393969	0.721275	1
368.123993	0.795782	city	5	1	0.759186	0.759186	0	1	0	0	CorrectCommission	0.427356	0.732316	1
368.919922	0.796096	mountain	3	0	0.000000	0.697011	1	0	0	0	CorrectOmission	0.213731	0.752769	1
369.715881	0.795797	city	1	1	0.649829	0.649829	0	1	0	0	CorrectCommission	0.700220	0.781726	0
370.511536	0.795517	mountain	2	0	0.000000	0.698048	1	0	0	0	CorrectOmission	0.203043	0.817507	0
371.307190	0.795814	city	2	1	0.800557	0.800557	0	1	0	0	CorrectCommission	0.853929	0.858098	0
372.103027	0.795841	city	4	1	0.916248	0.916248	0	1	0	0	CorrectCommission	2.046826	0.901150	0
372.898834	0.795780	city	6	1	0.748359	0.748359	0	1	0	0	CorrectCommission	0.315714	0.944377	0
373.694611	0.795800	city	4	1	0.661164	0.661164	0	1	0	0	CorrectCommission	0.583350	0.985931	0
374.490417	0.795782	city	9	1	0.551864	0.551864	0	1	0	0	CorrectCommission	1.710339	1.024465	0
375.286194	0.795795	city	6	1	0.500136	0.500136	0	1	0	0	CorrectCommission	2.243708	1.059276	0
376.082031	0.795854	city	7	1	0.605912	0.605912	0	1	0	0	CorrectCommission	1.153056	1.090365	0
376.877808	0.795742	city	2	1	0.599318	0.599318	0	1	0	0	CorrectCommission	1.221046	1.118288	0
377.673615	0.795845	city	1	1	0.549094	0.549094	0	1	0	0	CorrectCommission	1.738901	1.143828	0
378.469421	0.795781	city	6	1	0.698404	0.698404	0	1	0	0	CorrectCommission	0.199372	1.167731	0
379.265228	0.795806	city	10	1	0.698336	0.698336	0	1	0	0	CorrectCommission	0.200073	1.190387	0
380.061035	0.795802	city	4	1	0.757535	0.757535	0	1	0	0	CorrectCommission	0.410328	1.211569	0
380.856964	0.796078	city	5	1	0.553561	0.553561	0	1	0	0	CorrectCommission	1.692841	1.230396	0
381.652771	0.795554	city	10	1	0.568056	0.568056	0	1	0	0	CorrectCommission	1.543383	1.245269	0
382.448456	0.795799	city	3	1	0.598832	0.598832	0	1	0	0	CorrectCommission	1.226058	1.254214	0
383.244263	0.795793	city	4	1	0.610551	0.610551	0	1	0	0	CorrectCommission	1.105221	1.255122	0
384.040039	0.795810	city	1	1	0.510775	0.510775	0	1	0	0	CorrectCommission	2.134013	1.246122	0
384.835815	0.795720	city	9	1	0.449842	0.449842	0	1	0	0	CorrectCommission	2.762290	1.225906	0
385.631561	0.795795	city	7	1	0.601287	0.601287	0	1	0	0	CorrectCommission	1.200741	1.194045	0
386.427399	0.795869	city	2	1	0.549141	0.549141	0	1	0	0	CorrectCommission	1.738415	1.151117	0
387.223236	0.795813	city	5	1	0.648684	0.648684	0	1	0	0	CorrectCommission	0.712031	1.098642	0
388.019073	0.795809	city	4	1	0.798777	0.798777	0	1	0	0	CorrectCommission	0.835581	1.039063	0
388.814880	0.795800	city	9	1	0.648730	0.648730	0	1	0	0	CorrectCommission	0.711557	0.975356	0
389.610626	0.795716	city	10	1	0.551554	0.551554	0	1	0	0	CorrectCommission	1.713541	0.910785	0
390.406403	0.795854	city	4	1	0.698219	0.698219	0	1	0	0	CorrectCommission	0.201276	0.848612	0
391.202393	0.796090	city	2	1	0.748311	0.748311	0	1	0	0	CorrectCommission	0.315228	0.791895	0
391.998199	0.795528	mountain	2	0	0.000000	0.720331	1	0	0	0	CorrectOmission	0.026719	0.743054	1
392.793854	0.795775	city	2	1	0.665486	0.665486	0	1	0	0	CorrectCommission	0.538789	0.703873	1
393.589783	0.796094	mountain	4	0	0.000000	0.634985	1	0	0	0	CorrectOmission	0.853283	0.675337	1
394.385590	0.795563	city	3	1	0.666533	0.666533	0	1	0	0	CorrectCommission	0.527989	0.657731	1
395.181274	0.795791	city	8	1	0.797835	0.797835	0	1	0	0	CorrectCommission	0.825866	0.650709	1
395.977051	0.795779	city	9	1	0.649253	0.649253	0	1	0	0	CorrectCommission	0.706165	0.653342	1
396.772858	0.795786	city	5	1	0.701405	0.701405	0	1	0	0	CorrectCommission	0.168427	0.664289	1
397.568604	0.795751	city	4	1	0.698587	0.698587	0	1	0	0	CorrectCommission	0.197476	0.681933	1
398.364441	0.795902	city	2	1	0.749006	0.749006	0	1	0	0	CorrectCommission	0.322392	0.704464	1
399.160278	0.795797	city	7	1	0.748345	0.748345	0	1	0	0	CorrectCommission	0.315576	0.730064	1
399.956085	0.795803	city	10	1	0.598914	0.598914	0	1	0	0	CorrectCommission	1.225206	0.757009	1
400.751862	0.795753	mountain	4	1	0.499364	0.499364	0	0	1	0	CommissionError	2.251669	0.783773	0
401.547668	0.795851	city	2	1	0.712006	0.712006	0	1	0	0	CorrectCommission	0.059121	0.809043	0
402.343445	0.795716	mountain	9	0	0.000000	0.851161	1	0	0	0	CorrectOmission	1.375712	0.831862	0
403.139221	0.795835	city	6	1	0.864370	0.864370	0	1	0	0	CorrectCommission	1.511905	0.851430	0
403.935059	0.795807	city	9	1	0.699170	0.699170	0	1	0	0	CorrectCommission	0.191465	0.867164	0
404.731018	0.796102	city	3	1	0.701849	0.701849	0	1	0	0	CorrectCommission	0.163841	0.878661	0
405.526825	0.795551	city	1	1	0.652823	0.652823	0	1	0	0	CorrectCommission	0.669354	0.885517	0
406.322479	0.795770	city	6	1	0.848848	0.848848	0	1	0	0	CorrectCommission	1.351863	0.887359	0
407.118286	0.795821	city	1	1	0.649362	0.649362	0	1	0	0	CorrectCommission	0.705035	0.883820	0
407.914062	0.795740	city	4	1	0.909527	0.909527	0	1	0	0	CorrectCommission	1.977524	0.874761	0
408.709869	0.795839	city	1	1	0.698756	0.698756	0	1	0	0	CorrectCommission	0.195741	0.860204	0
409.505798	0.796031	city	10	1	0.798408	0.798408	0	1	0	0	CorrectCommission	0.831774	0.840539	0
410.301605	0.795594	city	7	1	0.948580	0.948580	0	1	0	0	CorrectCommission	2.380200	0.816428	0
411.097260	0.795713	city	5	1	0.813743	0.813743	0	1	0	0	CorrectCommission	0.989889	0.788856	0
411.893005	0.795805	city	10	1	0.748219	0.748219	0	1	0	0	CorrectCommission	0.314276	0.759218	1
412.688812	0.795804	mountain	3	0	0.000000	0.720853	1	0	0	0	CorrectOmission	0.032103	0.729063	1
413.484680	0.795894	city	7	1	0.698826	0.698826	0	1	0	0	CorrectCommission	0.195020	0.699991	1
414.280518	0.795799	city	5	1	0.649319	0.649319	0	1	0	0	CorrectCommission	0.705481	0.673514	1
415.076447	0.796058	city	3	1	0.748057	0.748057	0	1	0	0	CorrectCommission	0.312599	0.650893	1
415.872192	0.795456	city	1	1	0.598551	0.598551	0	1	0	0	CorrectCommission	1.228955	0.633058	1
416.667847	0.795832	city	9	1	0.797917	0.797917	0	1	0	0	CorrectCommission	0.826708	0.620538	1
417.463684	0.795817	city	4	1	0.748536	0.748536	0	1	0	0	CorrectCommission	0.317543	0.613466	1
418.259491	0.795799	city	9	1	0.714230	0.714230	0	1	0	0	CorrectCommission	0.036186	0.611539	1
419.055298	0.795824	city	5	1	0.648904	0.648904	0	1	0	0	CorrectCommission	0.709758	0.614210	1
419.851105	0.795825	city	1	1	0.648864	0.648864	0	1	0	0	CorrectCommission	0.710171	0.620597	1
420.646912	0.795761	city	6	1	0.748280	0.748280	0	1	0	0	CorrectCommission	0.314904	0.629724	1
421.442688	0.795804	mountain	9	0	0.000000	0.755138	1	0	0	0	CorrectOmission	0.385620	0.640643	1
422.238464	0.795755	city	5	1	0.698753	0.698753	0	1	0	0	CorrectCommission	0.195766	0.652484	1
423.034424	0.796145	city	2	1	0.608439	0.608439	0	1	0	0	CorrectCommission	1.126999	0.664622	1
423.830261	0.795540	city	4	1	0.947435	0.947435	0	1	0	0	CorrectCommission	2.368387	0.676673	1
424.625916	0.795744	city	5	1	0.665218	0.665218	0	1	0	0	CorrectCommission	0.541553	0.688604	1
425.421692	0.795837	city	4	1	0.748076	0.748076	0	1	0	0	CorrectCommission	0.312801	0.700725	1
426.217499	0.795737	city	1	1	0.748632	0.748632	0	1	0	0	CorrectCommission	0.318534	0.713516	1
427.013275	0.795845	city	7	1	0.748906	0.748906	0	1	0	0	CorrectCommission	0.321356	0.727557	1
427.809113	0.795839	city	1	1	0.705026	0.705026	0	1	0	0	CorrectCommission	0.131083	0.743258	1
428.604889	0.795713	city	3	1	0.798645	0.798645	0	1	0	0	CorrectCommission	0.834218	0.760881	1
429.400696	0.795867	city	2	1	0.848550	0.848550	0	1	0	0	CorrectCommission	1.348789	0.780393	0
430.196503	0.795794	mountain	5	0	0.000000	0.831646	1	0	0	0	CorrectOmission	1.174486	0.801471	0
430.992310	0.795800	city	7	1	0.748365	0.748365	0	1	0	0	CorrectCommission	0.315782	0.823450	0
431.788269	0.796087	city	3	1	0.599143	0.599143	0	1	0	0	CorrectCommission	1.222851	0.845452	0
432.584198	0.795816	city	2	1	0.648330	0.648330	0	1	0	0	CorrectCommission	0.715685	0.866344	0
433.379883	0.795549	city	3	1	0.698044	0.698044	0	1	0	0	CorrectCommission	0.203075	0.884961	0
434.175537	0.795751	city	1	1	0.809333	0.809333	0	1	0	0	CorrectCommission	0.944421	0.900215	0
434.971466	0.796101	city	9	1	0.797838	0.797838	0	1	0	0	CorrectCommission	0.825896	0.911211	0
435.767273	0.795532	city	3	1	0.897650	0.897650	0	1	0	0	CorrectCommission	1.855056	0.917394	0
436.562897	0.795729	city	6	1	0.897238	0.897238	0	1	0	0	CorrectCommission	1.850813	0.918546	0
437.358704	0.795834	city	1	1	0.805173	0.805173	0	1	0	0	CorrectCommission	0.901529	0.914944	0
438.154663	0.796129	city	3	1	0.797842	0.797842	0	1	0	0	CorrectCommission	0.825934	0.907303	0
438.950500	0.795535	city	10	1	0.660761	0.660761	0	1	0	0	CorrectCommission	0.587504	0.896615	0
439.746185	0.795795	city	9	1	0.649567	0.649567	0	1	0	0	CorrectCommission	0.702928	0.884085	0
440.542114	0.796068	city	8	1	0.648887	0.648887	0	1	0	0	CorrectCommission	0.709938	0.870948	0
441.337891	0.795534	city	7	1	0.748003	0.748003	0	1	0	0	CorrectCommission	0.312047	0.858261	0
442.133514	0.795710	city	10	1	0.897254	0.897254	0	1	0	0	CorrectCommission	1.850979	0.846969	0
442.929291	0.795845	city	4	1	0.748986	0.748986	0	1	0	0	CorrectCommission	0.322181	0.837704	0
443.725128	0.795805	mountain	4	0	0.000000	0.730741	1	0	0	0	CorrectOmission	0.134058	0.830959	0
444.520935	0.795837	city	1	1	0.798217	0.798217	0	1	0	0	CorrectCommission	0.829803	0.826939	0
445.316803	0.795868	city	10	1	0.907111	0.907111	0	1	0	0	CorrectCommission	1.952608	0.825685	0
446.112579	0.795698	city	5	1	0.748002	0.748002	0	1	0	0	CorrectCommission	0.312039	0.827078	0
446.908325	0.795784	city	2	1	0.847484	0.847484	0	1	0	0	CorrectCommission	1.337791	0.830963	0
447.704132	0.795832	city	5	1	0.698627	0.698627	0	1	0	0	CorrectCommission	0.197067	0.836988	0
448.499939	0.795791	city	2	1	0.748487	0.748487	0	1	0	0	CorrectCommission	0.317036	0.844807	0
449.295898	0.796109	city	10	1	0.797791	0.797791	0	1	0	0	CorrectCommission	0.825413	0.853887	0
450.091675	0.795467	city	1	1	0.896989	0.896989	0	1	0	0	CorrectCommission	1.848244	0.863547	0
450.887360	0.795864	city	6	1	0.801425	0.801425	0	1	0	0	CorrectCommission	0.862881	0.872958	0
451.683167	0.795752	city	2	1	0.708530	0.708530	0	1	0	0	CorrectCommission	0.094954	0.881220	0
452.478912	0.795761	city	5	1	0.649084	0.649084	0	1	0	0	CorrectCommission	0.707907	0.887404	0
453.274750	0.795889	city	9	1	0.650408	0.650408	0	1	0	0	CorrectCommission	0.694259	0.890554	0
454.070557	0.795757	city	8	1	0.616307	0.616307	0	1	0	0	CorrectCommission	1.045870	0.889894	0
454.866364	0.795834	city	6	1	0.553528	0.553528	0	1	0	0	CorrectCommission	1.693182	0.884932	0
455.662170	0.795816	city	1	1	0.499994	0.499994	0	1	0	0	CorrectCommission	2.245174	0.875531	0
456.457977	0.795798	city	7	1	0.748255	0.748255	0	1	0	0	CorrectCommission	0.314648	0.861910	0
457.253784	0.795799	city	2	1	0.660313	0.660313	0	1	0	0	CorrectCommission	0.592128	0.844784	0
458.049591	0.795784	city	1	1	0.649428	0.649428	0	1	0	0	CorrectCommission	0.704361	0.825074	0
458.845398	0.795828	city	6	1	0.798654	0.798654	0	1	0	0	CorrectCommission	0.834311	0.803895	0
459.641205	0.795814	city	1	1	0.705121	0.705121	0	1	0	0	CorrectCommission	0.130111	0.782385	0
460.437012	0.795774	mountain	2	0	0.000000	0.619272	1	0	0	0	CorrectOmission	1.015295	0.761696	1
461.232788	0.795774	city	10	1	0.611119	0.611119	0	1	0	0	CorrectCommission	1.099366	0.742788	1
462.028564	0.795779	city	3	1	0.750670	0.750670	0	1	0	0	CorrectCommission	0.339550	0.726460	1
462.824371	0.795830	mountain	9	1	0.698653	0.698653	0	0	1	0	CommissionError	0.196803	0.713323	1
463.620178	0.795843	city	5	1	0.655309	0.655309	0	1	0	0	CorrectCommission	0.643722	0.703829	1
464.416016	0.795778	city	1	1	0.599180	0.599180	0	1	0	0	CorrectCommission	1.222466	0.698237	1
465.211792	0.795813	city	6	1	0.616033	0.616033	0	1	0	0	CorrectCommission	1.048699	0.696669	1
466.007599	0.795776	city	1	1	0.649332	0.649332	0	1	0	0	CorrectCommission	0.705350	0.699140	1
466.803528	0.796104	city	2	1	0.748037	0.748037	0	1	0	0	CorrectCommission	0.312399	0.705482	1
467.599335	0.795514	city	3	1	0.660716	0.660716	0	1	0	0	CorrectCommission	0.587965	0.715276	1
468.395020	0.795837	mountain	1	0	0.000000	0.670827	1	0	0	0	CorrectOmission	0.483719	0.727832	1
469.190948	0.796033	city	8	1	0.698795	0.698795	0	1	0	0	CorrectCommission	0.195337	0.742242	1
469.986877	0.795807	city	9	1	0.665048	0.665048	0	1	0	0	CorrectCommission	0.543296	0.757335	1
470.782532	0.795521	city	10	1	0.598818	0.598818	0	1	0	0	CorrectCommission	1.226200	0.771735	0
471.578339	0.796086	city	5	1	0.698393	0.698393	0	1	0	0	CorrectCommission	0.199485	0.784055	0
472.374146	0.795533	city	6	1	0.548848	0.548848	0	1	0	0	CorrectCommission	1.741437	0.793130	0
473.169800	0.795772	city	3	1	0.552475	0.552475	0	1	0	0	CorrectCommission	1.704037	0.797964	0
473.965607	0.795845	city	2	1	0.648935	0.648935	0	1	0	0	CorrectCommission	0.709445	0.798133	0
474.761414	0.795763	city	7	1	0.649535	0.649535	0	1	0	0	CorrectCommission	0.703256	0.793808	0
475.557190	0.795805	city	4	1	0.797857	0.797857	0	1	0	0	CorrectCommission	0.826095	0.785670	0
476.352997	0.795799	city	3	1	0.648920	0.648920	0	1	0	0	CorrectCommission	0.709595	0.774903	0
477.148834	0.795848	city	1	1	0.649622	0.649622	0	1	0	0	CorrectCommission	0.702354	0.763119	1
477.944641	0.795770	city	2	1	0.809491	0.809491	0	1	0	0	CorrectCommission	0.946052	0.752160	1
478.740417	0.795794	city	5	1	0.748073	0.748073	0	1	0	0	CorrectCommission	0.312773	0.743891	1
479.536224	0.795844	city	4	1	0.797875	0.797875	0	1	0	0	CorrectCommission	0.826280	0.740130	1
480.332184	0.796054	city	6	1	0.698313	0.698313	0	1	0	0	CorrectCommission	0.200310	0.742365	1
481.127991	0.795536	mountain	1	0	0.000000	0.637525	1	0	0	0	CorrectOmission	0.827090	0.751731	1
481.923615	0.795761	city	2	1	0.649322	0.649322	0	1	0	0	CorrectCommission	0.705452	0.768829	1
482.719421	0.795814	city	9	1	0.767513	0.767513	0	1	0	0	CorrectCommission	0.513212	0.793771	0
483.515350	0.796078	city	7	1	0.698810	0.698810	0	1	0	0	CorrectCommission	0.195186	0.826169	0
484.311310	0.795794	city	4	1	0.599047	0.599047	0	1	0	0	CorrectCommission	1.223841	0.865182	0
485.106964	0.795571	city	9	1	0.598857	0.598857	0	1	0	0	CorrectCommission	1.225794	0.909485	0
485.902802	0.796072	city	3	1	0.705317	0.705317	0	1	0	0	CorrectCommission	0.128085	0.957475	0
486.698547	0.795432	city	2	1	0.620036	0.620036	0	1	0	0	CorrectCommission	1.007420	1.007420	0
