onset	duration	trial_type	image_type	Press	ReactionTime	ReactionTime_Interpolated	CorrectOmission	CorrectCommission	CommissionError	OmissionError	response_type	nonsmoothVarianceTimeCourse	VarianceTimeCourse	In_the_Zone
8.421955	0.795573	city	5	1	0.859584	0.859584	0	1	0	0	CorrectCommission	0.184114	0.184114	1
9.217777	0.796072	city	4	1	0.698733	0.698733	0	1	0	0	CorrectCommission	0.772928	0.221596	1
10.013542	0.795458	mountain	4	1	0.854920	0.854920	0	0	1	0	CommissionError	0.156366	0.257901	1
10.809200	0.795857	city	4	1	0.946967	0.946967	0	1	0	0	CorrectCommission	0.704031	0.292028	1
11.605153	0.796049	city	9	1	0.748035	0.748035	0	1	0	0	CorrectCommission	0.479586	0.323267	1
12.401100	0.795845	city	7	1	0.664619	0.664619	0	1	0	0	CorrectCommission	0.975906	0.351280	1
13.196907	0.795770	city	3	1	0.797434	0.797434	0	1	0	0	CorrectCommission	0.185671	0.376061	1
13.992580	0.795577	city	10	1	0.847904	0.847904	0	1	0	0	CorrectCommission	0.114621	0.397964	1
14.788407	0.796077	city	1	1	0.798655	0.798655	0	1	0	0	CorrectCommission	0.178403	0.417503	1
15.584296	0.795700	city	2	1	0.811912	0.811912	0	1	0	0	CorrectCommission	0.099528	0.435231	1
16.380035	0.795777	city	8	1	1.046090	1.046090	0	1	0	0	CorrectCommission	1.293800	0.451641	1
17.175879	0.795912	city	2	1	0.748746	0.748746	0	1	0	0	CorrectCommission	0.475360	0.467006	1
17.971724	0.795775	city	5	1	0.797707	0.797707	0	1	0	0	CorrectCommission	0.184048	0.481458	1
18.767517	0.795814	mountain	2	0	0.000000	0.822513	1	0	0	0	CorrectOmission	0.036453	0.494817	1
19.563301	0.795751	city	6	1	0.797827	0.797827	0	1	0	0	CorrectCommission	0.183331	0.506709	1
20.359102	0.795855	city	1	1	0.698311	0.698311	0	1	0	0	CorrectCommission	0.775442	0.516626	1
21.154917	0.795775	city	5	1	0.713373	0.713373	0	1	0	0	CorrectCommission	0.685821	0.524025	1
21.950706	0.795804	mountain	2	0	0.000000	0.631848	1	0	0	0	CorrectOmission	1.170890	0.528516	1
22.746386	0.795553	city	9	1	0.608481	0.608481	0	1	0	0	CorrectCommission	1.309920	0.529838	1
23.542147	0.795973	city	3	1	0.798021	0.798021	0	1	0	0	CorrectCommission	0.182181	0.527963	1
24.337914	0.795561	city	2	1	0.798476	0.798476	0	1	0	0	CorrectCommission	0.179468	0.523115	1
25.133730	0.796070	city	10	1	0.698602	0.698602	0	1	0	0	CorrectCommission	0.773707	0.515676	1
25.929537	0.795544	city	4	1	0.847841	0.847841	0	1	0	0	CorrectCommission	0.114243	0.506092	1
26.725338	0.796060	city	2	1	0.748715	0.748715	0	1	0	0	CorrectCommission	0.475543	0.494870	1
27.521282	0.795827	mountain	4	0	0.000000	0.847511	1	0	0	0	CorrectOmission	0.112279	0.482493	1
28.317131	0.795872	city	4	1	0.909038	0.909038	0	1	0	0	CorrectCommission	0.478361	0.469435	1
29.112970	0.795806	city	9	1	0.698108	0.698108	0	1	0	0	CorrectCommission	0.776647	0.456157	1
29.908764	0.795780	city	5	1	0.664261	0.664261	0	1	0	0	CorrectCommission	0.978032	0.443104	1
30.704557	0.795809	city	10	1	0.762176	0.762176	0	1	0	0	CorrectCommission	0.395450	0.430817	1
31.500303	0.795683	city	3	1	0.797369	0.797369	0	1	0	0	CorrectCommission	0.186055	0.419967	1
32.295952	0.795610	city	9	1	0.748193	0.748193	0	1	0	0	CorrectCommission	0.478648	0.411257	1
33.091671	0.795828	city	2	1	0.752483	0.752483	0	1	0	0	CorrectCommission	0.453126	0.405469	1
33.887566	0.795967	city	9	1	0.847447	0.847447	0	1	0	0	CorrectCommission	0.111904	0.403309	1
34.683453	0.795804	city	4	1	0.854050	0.854050	0	1	0	0	CorrectCommission	0.151185	0.405401	1
35.479321	0.795932	city	6	1	0.797929	0.797929	0	1	0	0	CorrectCommission	0.182723	0.412158	1
36.275009	0.795442	city	8	1	0.847495	0.847495	0	1	0	0	CorrectCommission	0.112185	0.423724	1
37.070744	0.796030	city	3	1	0.698830	0.698830	0	1	0	0	CorrectCommission	0.772352	0.439949	1
37.866711	0.795904	city	6	1	0.748119	0.748119	0	1	0	0	CorrectCommission	0.479089	0.460335	1
38.662529	0.795735	city	8	1	0.847305	0.847305	0	1	0	0	CorrectCommission	0.111055	0.484165	1
39.458202	0.795611	city	10	1	0.748599	0.748599	0	1	0	0	CorrectCommission	0.476233	0.510560	1
40.253998	0.795980	city	7	1	0.698799	0.698799	0	1	0	0	CorrectCommission	0.772539	0.538419	1
41.049885	0.795797	mountain	8	1	0.752794	0.752794	0	0	1	0	CommissionError	0.451274	0.566749	1
41.845600	0.795632	city	5	1	0.748386	0.748386	0	1	0	0	CorrectCommission	0.477498	0.594677	1
42.641407	0.795982	mountain	3	0	0.000000	0.705884	1	0	0	0	CorrectOmission	0.730384	0.621527	1
43.437283	0.795772	city	7	1	0.648334	0.648334	0	1	0	0	CorrectCommission	1.072795	0.646971	1
44.233093	0.795845	city	6	1	0.598787	0.598787	0	1	0	0	CorrectCommission	1.367598	0.670994	1
45.028915	0.795803	city	5	1	0.797497	0.797497	0	1	0	0	CorrectCommission	0.185294	0.693913	1
45.824734	0.795830	city	4	1	0.798097	0.798097	0	1	0	0	CorrectCommission	0.181726	0.716336	1
46.620522	0.795750	city	9	1	0.664635	0.664635	0	1	0	0	CorrectCommission	0.975808	0.738989	1
47.416218	0.795639	city	8	1	0.798189	0.798189	0	1	0	0	CorrectCommission	0.181176	0.762582	0
48.212017	0.795965	city	1	1	0.558659	0.558659	0	1	0	0	CorrectCommission	1.606355	0.787752	0
49.007946	0.795888	city	4	1	0.648609	0.648609	0	1	0	0	CorrectCommission	1.071162	0.814797	0
49.803776	0.795772	mountain	1	1	0.703235	0.703235	0	0	1	0	CommissionError	0.746146	0.843677	0
50.599583	0.795840	city	6	1	0.897363	0.897363	0	1	0	0	CorrectCommission	0.408893	0.873897	0
51.395370	0.795736	city	4	1	0.797841	0.797841	0	1	0	0	CorrectCommission	0.183249	0.904509	0
52.191040	0.795603	mountain	1	0	0.000000	0.748227	1	0	0	0	CorrectOmission	0.478447	0.934190	0
52.986820	0.795959	city	6	1	0.698727	0.698727	0	1	0	0	CorrectCommission	0.772967	0.961348	0
53.782761	0.795924	city	9	1	0.599547	0.599547	0	1	0	0	CorrectCommission	1.363073	0.984354	0
54.578487	0.795523	mountain	3	1	1.344453	1.344453	0	0	1	0	CommissionError	3.069027	1.001723	0
55.374214	0.795931	city	5	1	0.797937	0.797937	0	1	0	0	CorrectCommission	0.182675	1.012278	0
56.170128	0.795899	city	7	1	0.507751	0.507751	0	1	0	0	CorrectCommission	1.909249	1.015507	0
56.965847	0.795540	city	9	1	0.648801	0.648801	0	1	0	0	CorrectCommission	1.070016	1.011261	0
57.761600	0.795964	city	7	1	0.698779	0.698779	0	1	0	0	CorrectCommission	0.772658	1.000026	0
58.557541	0.795922	city	8	1	0.612772	0.612772	0	1	0	0	CorrectCommission	1.284388	0.982619	0
59.353352	0.795701	city	6	1	0.658841	0.658841	0	1	0	0	CorrectCommission	1.010283	0.960073	0
60.149120	0.795835	city	1	1	0.748234	0.748234	0	1	0	0	CorrectCommission	0.478407	0.933503	0
60.944958	0.795840	city	2	1	0.797446	0.797446	0	1	0	0	CorrectCommission	0.185600	0.903974	0
61.740780	0.795800	mountain	4	0	0.000000	0.706193	1	0	0	0	CorrectOmission	0.728540	0.872420	0
62.536449	0.795543	city	9	1	0.611133	0.611133	0	1	0	0	CorrectCommission	1.294141	0.839670	0
63.332146	0.795849	city	3	1	0.648920	0.648920	0	1	0	0	CorrectCommission	1.069312	0.806481	0
64.128098	0.796049	city	8	1	0.611289	0.611289	0	1	0	0	CorrectCommission	1.293213	0.773620	0
64.923988	0.795733	city	3	1	0.699122	0.699122	0	1	0	0	CorrectCommission	0.770615	0.741963	1
65.719650	0.795593	city	7	1	0.698400	0.698400	0	1	0	0	CorrectCommission	0.774911	0.712481	1
66.515358	0.795821	city	8	1	0.748319	0.748319	0	1	0	0	CorrectCommission	0.477898	0.686255	1
67.311172	0.795810	city	10	1	0.716549	0.716549	0	1	0	0	CorrectCommission	0.666926	0.664401	1
68.107101	0.796043	city	2	1	0.766733	0.766733	0	1	0	0	CorrectCommission	0.368338	0.647903	1
68.902901	0.795558	city	5	1	0.797957	0.797957	0	1	0	0	CorrectCommission	0.182561	0.637485	1
69.698662	0.795963	city	1	1	0.897701	0.897701	0	1	0	0	CorrectCommission	0.410904	0.633524	1
70.494583	0.795887	city	8	1	0.848635	0.848635	0	1	0	0	CorrectCommission	0.118970	0.635782	1
71.290398	0.795735	city	3	1	0.858424	0.858424	0	1	0	0	CorrectCommission	0.177215	0.643610	1
72.086205	0.795886	mountain	6	1	0.896909	0.896909	0	0	1	0	CommissionError	0.406196	0.655760	1
72.882034	0.795771	city	4	1	1.195207	1.195207	0	1	0	0	CorrectCommission	2.181030	0.670798	1
73.677826	0.795809	city	7	1	0.946856	0.946856	0	1	0	0	CorrectCommission	0.703373	0.687021	1
74.473625	0.795792	city	5	1	0.961196	0.961196	0	1	0	0	CorrectCommission	0.788695	0.702982	1
75.269279	0.795525	city	3	1	0.854124	0.854124	0	1	0	0	CorrectCommission	0.151626	0.717410	1
76.065056	0.796024	mountain	4	0	0.000000	0.783239	1	0	0	0	CorrectOmission	0.270127	0.729500	1
76.860962	0.795791	city	10	1	0.698592	0.698592	0	1	0	0	CorrectCommission	0.773771	0.738913	1
77.656639	0.795564	city	5	1	0.550229	0.550229	0	1	0	0	CorrectCommission	1.656511	0.745837	1
78.452484	0.796117	city	10	1	0.598778	0.598778	0	1	0	0	CorrectCommission	1.367652	0.750875	0
79.248428	0.795784	city	8	1	0.648312	0.648312	0	1	0	0	CorrectCommission	1.072929	0.754952	0
80.044212	0.795783	city	10	1	0.698682	0.698682	0	1	0	0	CorrectCommission	0.773235	0.759056	0
80.840012	0.795815	city	6	1	0.847350	0.847350	0	1	0	0	CorrectCommission	0.111324	0.764010	0
81.635696	0.795555	city	2	1	0.807316	0.807316	0	1	0	0	CorrectCommission	0.126877	0.770269	0
82.431381	0.795804	city	8	1	0.806362	0.806362	0	1	0	0	CorrectCommission	0.132552	0.777735	0
83.227287	0.796008	city	9	1	0.797716	0.797716	0	1	0	0	CorrectCommission	0.183994	0.785718	0
84.023209	0.795838	city	6	1	0.859019	0.859019	0	1	0	0	CorrectCommission	0.180751	0.793030	0
84.818985	0.795719	mountain	8	1	1.345228	1.345228	0	0	1	0	CommissionError	3.073638	0.798186	0
85.614792	0.795892	city	1	1	0.797961	0.797961	0	1	0	0	CorrectCommission	0.182536	0.799521	0
86.410507	0.795547	city	6	1	0.449615	0.449615	0	1	0	0	CorrectCommission	2.255151	0.795784	0
87.206284	0.795993	city	5	1	0.797984	0.797984	0	1	0	0	CorrectCommission	0.182396	0.786021	0
88.002167	0.795784	city	7	1	0.648866	0.648866	0	1	0	0	CorrectCommission	1.069634	0.770030	0
88.797867	0.795610	city	1	1	0.748147	0.748147	0	1	0	0	CorrectCommission	0.478922	0.748199	1
89.593681	0.796018	city	8	1	0.548933	0.548933	0	1	0	0	CorrectCommission	1.664220	0.721613	1
90.389633	0.795889	city	1	1	0.797537	0.797537	0	1	0	0	CorrectCommission	0.185057	0.691725	1
91.185349	0.795546	city	10	1	0.699220	0.699220	0	1	0	0	CorrectCommission	0.770033	0.660428	1
91.980980	0.795709	city	2	1	0.798719	0.798719	0	1	0	0	CorrectCommission	0.178026	0.629569	1
92.776909	0.796146	city	3	1	0.908957	0.908957	0	1	0	0	CorrectCommission	0.477875	0.600866	1
93.572716	0.795480	city	2	1	0.849320	0.849320	0	1	0	0	CorrectCommission	0.123047	0.575653	1
94.368370	0.795825	city	3	1	0.897545	0.897545	0	1	0	0	CorrectCommission	0.409975	0.554786	1
95.164345	0.796119	city	4	1	0.946985	0.946985	0	1	0	0	CorrectCommission	0.704140	0.538560	1
95.960289	0.795775	city	2	1	0.747930	0.747930	0	1	0	0	CorrectCommission	0.480214	0.526774	1
96.756065	0.795784	mountain	5	0	0.000000	0.708234	1	0	0	0	CorrectOmission	0.716399	0.518833	1
97.551750	0.795585	city	8	1	0.754787	0.754787	0	1	0	0	CorrectCommission	0.439413	0.513844	1
98.347557	0.796027	mountain	2	0	0.000000	0.814479	1	0	0	0	CorrectOmission	0.084256	0.510809	1
99.143433	0.795713	city	4	1	0.797766	0.797766	0	1	0	0	CorrectCommission	0.183697	0.508741	1
99.939224	0.795880	city	3	1	0.615105	0.615105	0	1	0	0	CorrectCommission	1.270509	0.506822	1
100.734947	0.795558	city	10	1	0.698368	0.698368	0	1	0	0	CorrectCommission	0.775104	0.504449	1
101.530632	0.795822	city	8	1	0.798096	0.798096	0	1	0	0	CorrectCommission	0.181732	0.501433	1
102.326538	0.795988	city	2	1	0.660288	0.660288	0	1	0	0	CorrectCommission	1.001670	0.497834	1
103.122452	0.795844	city	1	1	0.797847	0.797847	0	1	0	0	CorrectCommission	0.183215	0.494055	1
103.918114	0.795474	city	7	1	0.747796	0.747796	0	1	0	0	CorrectCommission	0.481011	0.490733	1
104.713882	0.796056	city	3	1	0.748498	0.748498	0	1	0	0	CorrectCommission	0.476836	0.488671	1
105.509705	0.795597	city	5	1	0.855689	0.855689	0	1	0	0	CorrectCommission	0.160940	0.488676	1
106.305550	0.796090	city	10	1	0.948873	0.948873	0	1	0	0	CorrectCommission	0.715370	0.491505	1
107.101509	0.795834	city	7	1	0.900781	0.900781	0	1	0	0	CorrectCommission	0.429232	0.497644	1
107.897278	0.795693	city	8	1	0.852425	0.852425	0	1	0	0	CorrectCommission	0.141521	0.507402	1
108.692940	0.795641	city	4	1	0.748392	0.748392	0	1	0	0	CorrectCommission	0.477466	0.520790	1
109.488777	0.796023	city	10	1	0.798623	0.798623	0	1	0	0	CorrectCommission	0.178596	0.537498	1
110.284645	0.795715	city	1	1	0.711379	0.711379	0	1	0	0	CorrectCommission	0.697689	0.556989	1
111.080338	0.795671	city	3	1	0.698864	0.698864	0	1	0	0	CorrectCommission	0.772149	0.578596	1
111.876183	0.796020	city	1	1	0.710737	0.710737	0	1	0	0	CorrectCommission	0.701510	0.601634	1
112.672066	0.795741	city	9	1	0.709230	0.709230	0	1	0	0	CorrectCommission	0.710472	0.625538	1
113.467834	0.795805	city	7	1	0.748117	0.748117	0	1	0	0	CorrectCommission	0.479103	0.649987	1
114.263680	0.795887	city	1	1	0.847321	0.847321	0	1	0	0	CorrectCommission	0.111149	0.674986	1
115.059471	0.795693	city	8	1	0.655339	0.655339	0	1	0	0	CorrectCommission	1.031115	0.700877	1
115.855232	0.795827	mountain	6	1	0.648528	0.648528	0	0	1	0	CommissionError	1.071644	0.728243	1
116.650963	0.795640	mountain	1	1	0.598971	0.598971	0	0	1	0	CommissionError	1.366503	0.757830	0
117.446770	0.795963	city	6	1	0.648667	0.648667	0	1	0	0	CorrectCommission	1.070818	0.790267	0
118.242676	0.795855	mountain	3	0	0.000000	0.781596	1	0	0	0	CorrectOmission	0.279903	0.825892	0
119.038513	0.795820	city	4	1	0.899565	0.899565	0	1	0	0	CorrectCommission	0.421997	0.864501	0
119.834320	0.795794	city	10	1	0.904378	0.904378	0	1	0	0	CorrectCommission	0.450634	0.905069	0
120.629974	0.795514	city	3	1	0.900903	0.900903	0	1	0	0	CorrectCommission	0.429955	0.945791	0
121.425774	0.796079	city	7	1	0.897240	0.897240	0	1	0	0	CorrectCommission	0.408165	0.984078	0
122.221550	0.795487	city	2	1	0.897040	0.897040	0	1	0	0	CorrectCommission	0.406971	1.016825	0
123.017380	0.796161	mountain	7	0	0.000000	0.604204	1	0	0	0	CorrectOmission	1.335366	1.040795	0
123.813354	0.795802	city	4	1	0.350168	0.350168	0	1	0	0	CorrectCommission	2.846846	1.053001	0
124.609138	0.795755	city	9	1	0.466369	0.466369	0	1	0	0	CorrectCommission	2.155468	1.051199	0
125.404900	0.795778	city	7	1	0.549309	0.549309	0	1	0	0	CorrectCommission	1.661986	1.034346	0
126.200676	0.795773	city	1	1	0.465670	0.465670	0	1	0	0	CorrectCommission	2.159628	1.002710	0
126.996460	0.795782	city	7	1	0.616443	0.616443	0	1	0	0	CorrectCommission	1.262547	0.957831	0
127.792282	0.795863	city	6	1	0.747811	0.747811	0	1	0	0	CorrectCommission	0.480924	0.902451	0
128.588089	0.795754	city	5	1	0.797717	0.797717	0	1	0	0	CorrectCommission	0.183988	0.840103	0
129.383850	0.795777	city	4	1	0.866502	0.866502	0	1	0	0	CorrectCommission	0.225275	0.774686	0
130.179565	0.795639	city	6	1	0.847446	0.847446	0	1	0	0	CorrectCommission	0.111895	0.710094	1
130.975433	0.796093	city	5	1	0.897659	0.897659	0	1	0	0	CorrectCommission	0.410657	0.649863	1
131.771317	0.795700	city	4	1	0.751480	0.751480	0	1	0	0	CorrectCommission	0.459092	0.596897	1
132.567093	0.795847	city	3	1	0.717965	0.717965	0	1	0	0	CorrectCommission	0.658500	0.553336	1
133.362900	0.795752	city	10	1	0.702923	0.702923	0	1	0	0	CorrectCommission	0.747999	0.520580	1
134.158554	0.795554	city	5	1	0.764389	0.764389	0	1	0	0	CorrectCommission	0.382281	0.499321	1
134.954376	0.796090	city	6	1	0.863918	0.863918	0	1	0	0	CorrectCommission	0.209904	0.489620	1
135.750290	0.795752	city	7	1	0.946654	0.946654	0	1	0	0	CorrectCommission	0.702173	0.491036	1
136.545975	0.795614	city	2	1	0.816434	0.816434	0	1	0	0	CorrectCommission	0.072621	0.502625	1
137.341782	0.795990	city	6	1	0.848040	0.848040	0	1	0	0	CorrectCommission	0.115427	0.523119	1
138.137573	0.795611	city	10	1	0.847560	0.847560	0	1	0	0	CorrectCommission	0.112574	0.550912	1
138.933395	0.796030	city	2	1	0.847712	0.847712	0	1	0	0	CorrectCommission	0.113480	0.584141	1
139.729340	0.795848	city	8	1	0.897292	0.897292	0	1	0	0	CorrectCommission	0.408472	0.620798	1
140.525146	0.795776	city	9	1	0.996938	0.996938	0	1	0	0	CorrectCommission	1.001356	0.658817	1
141.320969	0.795863	city	4	1	1.096358	1.096358	0	1	0	0	CorrectCommission	1.592889	0.696193	1
142.116638	0.795479	city	6	1	0.965087	0.965087	0	1	0	0	CorrectCommission	0.811845	0.731160	1
142.912430	0.796092	city	7	1	1.046625	1.046625	0	1	0	0	CorrectCommission	1.296985	0.762372	0
143.708221	0.795508	mountain	1	0	0.000000	0.961528	1	0	0	0	CorrectOmission	0.790670	0.788813	0
144.503876	0.795803	mountain	3	0	0.000000	0.799048	1	0	0	0	CorrectOmission	0.176067	0.809954	0
145.299820	0.796088	city	1	1	0.648436	0.648436	0	1	0	0	CorrectCommission	1.072192	0.825655	0
146.095749	0.795746	city	4	1	0.598943	0.598943	0	1	0	0	CorrectCommission	1.366670	0.836021	0
146.891495	0.795755	city	3	1	0.710411	0.710411	0	1	0	0	CorrectCommission	0.703444	0.841367	0
147.687210	0.795670	mountain	6	0	0.000000	0.864398	1	0	0	0	CorrectOmission	0.212757	0.842128	0
148.482925	0.795765	city	4	1	1.010136	1.010136	0	1	0	0	CorrectCommission	1.079879	0.838717	0
149.278854	0.796103	city	8	1	1.096859	1.096859	0	1	0	0	CorrectCommission	1.595872	0.831494	0
150.074646	0.795484	city	6	1	0.947252	0.947252	0	1	0	0	CorrectCommission	0.705731	0.820735	0
150.870300	0.795804	city	1	1	0.967391	0.967391	0	1	0	0	CorrectCommission	0.825550	0.806752	0
151.666199	0.796009	city	5	1	0.847992	0.847992	0	1	0	0	CorrectCommission	0.115140	0.789859	0
152.462158	0.795917	city	1	1	0.946703	0.946703	0	1	0	0	CorrectCommission	0.702462	0.770505	0
153.257874	0.795487	city	8	1	1.051595	1.051595	0	1	0	0	CorrectCommission	1.326555	0.749310	0
154.053635	0.796042	city	4	1	0.996861	0.996861	0	1	0	0	CorrectCommission	1.000895	0.727181	1
154.849518	0.795742	city	5	1	0.996726	0.996726	0	1	0	0	CorrectCommission	1.000093	0.705315	1
155.645218	0.795651	city	4	1	0.946975	0.946975	0	1	0	0	CorrectCommission	0.704078	0.685147	1
156.441055	0.796025	city	6	1	0.947613	0.947613	0	1	0	0	CorrectCommission	0.707878	0.668247	1
157.236938	0.795734	city	2	1	0.797745	0.797745	0	1	0	0	CorrectCommission	0.183818	0.656175	1
158.032761	0.795925	city	6	1	0.897094	0.897094	0	1	0	0	CorrectCommission	0.407296	0.650326	1
158.828491	0.795522	city	7	1	0.847147	0.847147	0	1	0	0	CorrectCommission	0.110118	0.651655	1
159.624283	0.796052	city	2	1	0.750112	0.750112	0	1	0	0	CorrectCommission	0.467232	0.660635	1
160.420212	0.795836	mountain	5	0	0.000000	0.750606	1	0	0	0	CorrectOmission	0.464289	0.677092	1
161.215881	0.795499	city	4	1	0.762291	0.762291	0	1	0	0	CorrectCommission	0.394770	0.700224	1
162.011520	0.795776	city	3	1	0.698823	0.698823	0	1	0	0	CorrectCommission	0.772394	0.728658	1
162.807419	0.796008	city	6	1	0.698684	0.698684	0	1	0	0	CorrectCommission	0.773222	0.760525	0
163.603363	0.795885	city	8	1	0.747963	0.747963	0	1	0	0	CorrectCommission	0.480014	0.793677	0
164.399185	0.795750	city	6	1	1.146051	1.146051	0	1	0	0	CorrectCommission	1.888555	0.825918	0
165.194855	0.795585	city	5	1	0.961999	0.961999	0	1	0	0	CorrectCommission	0.793473	0.855125	0
165.990677	0.796084	city	7	1	1.011371	1.011371	0	1	0	0	CorrectCommission	1.087228	0.879585	0
166.786591	0.795746	city	5	1	0.999029	0.999029	0	1	0	0	CorrectCommission	1.013794	0.897996	0
167.582367	0.795790	mountain	5	0	0.000000	0.812623	1	0	0	0	CorrectOmission	0.095301	0.909710	0
168.378143	0.795762	city	8	1	0.601672	0.601672	0	1	0	0	CorrectCommission	1.350432	0.914783	0
169.173981	0.795925	city	2	1	0.515696	0.515696	0	1	0	0	CorrectCommission	1.861979	0.913962	0
169.969818	0.795752	city	8	1	0.648392	0.648392	0	1	0	0	CorrectCommission	1.072453	0.908660	0
170.765579	0.795755	city	10	1	0.648391	0.648391	0	1	0	0	CorrectCommission	1.072459	0.900877	0
171.561371	0.795818	city	5	1	0.897367	0.897367	0	1	0	0	CorrectCommission	0.408916	0.893033	0
172.357208	0.795858	mountain	7	1	0.960289	0.960289	0	0	1	0	CommissionError	0.783297	0.887711	0
173.153030	0.795805	city	5	1	1.046582	1.046582	0	1	0	0	CorrectCommission	1.296727	0.887347	0
173.948685	0.795512	city	4	1	0.898298	0.898298	0	1	0	0	CorrectCommission	0.414455	0.893974	0
174.744492	0.796083	city	1	1	0.797692	0.797692	0	1	0	0	CorrectCommission	0.184136	0.909044	0
175.540421	0.795767	city	5	1	0.946697	0.946697	0	1	0	0	CorrectCommission	0.702428	0.933089	0
176.336197	0.795794	city	3	1	0.947065	0.947065	0	1	0	0	CorrectCommission	0.704613	0.965641	0
177.131989	0.795801	city	7	1	0.909707	0.909707	0	1	0	0	CorrectCommission	0.482342	1.005219	0
177.927673	0.795569	mountain	10	1	0.947011	0.947011	0	0	1	0	CommissionError	0.704296	1.049477	0
178.723465	0.796020	city	5	1	0.996936	0.996936	0	1	0	0	CorrectCommission	1.001342	1.095402	0
179.519394	0.795818	city	2	1	1.095913	1.095913	0	1	0	0	CorrectCommission	1.590242	1.139582	0
180.315201	0.795797	city	9	1	1.096937	1.096937	0	1	0	0	CorrectCommission	1.596334	1.178620	0
181.110870	0.795556	city	3	1	1.195337	1.195337	0	1	0	0	CorrectCommission	2.181803	1.209574	0
181.906570	0.795837	city	8	1	1.096698	1.096698	0	1	0	0	CorrectCommission	1.594915	1.230225	0
182.702347	0.795719	city	3	1	1.060291	1.060291	0	1	0	0	CorrectCommission	1.378299	1.239448	0
183.498291	0.796153	city	10	1	0.996656	0.996656	0	1	0	0	CorrectCommission	0.999678	1.237228	0
184.294205	0.795686	city	5	1	1.145549	1.145549	0	1	0	0	CorrectCommission	1.885574	1.224682	0
185.090012	0.795938	city	10	1	1.046880	1.046880	0	1	0	0	CorrectCommission	1.298503	1.203896	0
185.885818	0.795675	city	2	0	0.000000	0.706964	0	0	0	1	OmissionError	0.723955	1.177719	0
186.681595	0.795878	city	1	1	0.449652	0.449652	0	1	0	0	CorrectCommission	2.254928	1.149343	0
187.477417	0.795766	mountain	10	1	0.598795	0.598795	0	0	1	0	CommissionError	1.367546	1.121902	0
188.273178	0.795759	mountain	4	0	0.000000	0.764446	1	0	0	0	CorrectOmission	0.381943	1.098196	0
189.069016	0.795906	city	3	1	0.847298	0.847298	0	1	0	0	CorrectCommission	0.111015	1.080296	0
189.864731	0.795535	city	5	1	0.748043	0.748043	0	1	0	0	CorrectCommission	0.479541	1.069234	0
190.660507	0.796019	mountain	9	1	0.848019	0.848019	0	0	1	0	CommissionError	0.115305	1.064913	0
191.456421	0.795784	city	8	1	0.946729	0.946729	0	1	0	0	CorrectCommission	0.702616	1.066196	0
192.252197	0.795770	city	9	1	0.947227	0.947227	0	1	0	0	CorrectCommission	0.705582	1.071053	0
193.047882	0.795608	city	4	1	0.449846	0.449846	0	1	0	0	CorrectCommission	2.253775	1.076907	0
193.843750	0.796121	mountain	7	1	0.300791	0.300791	0	0	1	0	CommissionError	3.140635	1.080903	0
194.639526	0.795433	city	4	1	0.603165	0.603165	0	1	0	0	CorrectCommission	1.341550	1.080366	0
195.435272	0.796058	city	9	1	0.897729	0.897729	0	1	0	0	CorrectCommission	0.411070	1.073142	0
196.231094	0.795607	mountain	9	0	0.000000	0.843148	1	0	0	0	CorrectOmission	0.086324	1.057720	0
197.026947	0.796089	city	5	1	0.655078	0.655078	0	1	0	0	CorrectCommission	1.032674	1.033379	0
197.822891	0.795797	city	1	1	0.549171	0.549171	0	1	0	0	CorrectCommission	1.662807	1.000211	0
198.618683	0.795786	city	2	1	0.599050	0.599050	0	1	0	0	CorrectCommission	1.366034	0.959122	0
199.414444	0.795743	city	5	1	0.614606	0.614606	0	1	0	0	CorrectCommission	1.273477	0.911803	0
200.210251	0.795860	city	2	1	0.648591	0.648591	0	1	0	0	CorrectCommission	1.071268	0.860515	0
201.006073	0.795792	city	1	1	0.599286	0.599286	0	1	0	0	CorrectCommission	1.364624	0.807946	0
201.801834	0.795730	city	8	1	0.898408	0.898408	0	1	0	0	CorrectCommission	0.415113	0.756869	0
202.597519	0.795636	city	7	1	0.797658	0.797658	0	1	0	0	CorrectCommission	0.184336	0.709980	1
203.393219	0.795756	city	1	1	0.801855	0.801855	0	1	0	0	CorrectCommission	0.159366	0.669591	1
204.189102	0.796013	city	7	1	0.797755	0.797755	0	1	0	0	CorrectCommission	0.183760	0.637381	1
204.984940	0.795657	city	5	1	0.847170	0.847170	0	1	0	0	CorrectCommission	0.110255	0.614216	1
205.780762	0.796009	city	10	1	0.946876	0.946876	0	1	0	0	CorrectCommission	0.703493	0.600240	1
206.576553	0.795566	city	7	1	0.801313	0.801313	0	1	0	0	CorrectCommission	0.162591	0.594814	1
207.372360	0.796043	city	10	1	0.897779	0.897779	0	1	0	0	CorrectCommission	0.411371	0.596718	1
208.168167	0.795566	city	5	1	0.996593	0.996593	0	1	0	0	CorrectCommission	0.999300	0.604383	1
208.963974	0.796061	city	8	1	0.950631	0.950631	0	1	0	0	CorrectCommission	0.725834	0.616116	1
209.759918	0.795812	city	5	1	0.965168	0.965168	0	1	0	0	CorrectCommission	0.812325	0.630441	1
210.555710	0.795777	city	3	1	0.898585	0.898585	0	1	0	0	CorrectCommission	0.416166	0.646238	1
211.351379	0.795562	mountain	5	0	0.000000	0.733155	1	0	0	0	CorrectOmission	0.568121	0.662884	1
212.147156	0.795979	city	6	1	0.604539	0.604539	0	1	0	0	CorrectCommission	1.333374	0.680340	1
212.943069	0.795859	city	9	1	0.648395	0.648395	0	1	0	0	CorrectCommission	1.072437	0.699002	1
213.738861	0.795740	city	7	1	0.698322	0.698322	0	1	0	0	CorrectCommission	0.775374	0.719554	1
214.534637	0.795806	city	2	1	0.747678	0.747678	0	1	0	0	CorrectCommission	0.481710	0.742657	1
215.330353	0.795612	city	5	1	0.847522	0.847522	0	1	0	0	CorrectCommission	0.112348	0.768700	0
216.126175	0.796026	city	2	1	0.707529	0.707529	0	1	0	0	CorrectCommission	0.720591	0.797538	0
216.922058	0.795746	city	3	1	0.797616	0.797616	0	1	0	0	CorrectCommission	0.184589	0.828310	0
217.717834	0.795816	city	10	1	0.847527	0.847527	0	1	0	0	CorrectCommission	0.112375	0.859501	0
218.513550	0.795615	city	7	1	0.946677	0.946677	0	1	0	0	CorrectCommission	0.702308	0.888951	0
219.309341	0.795958	city	1	1	1.195823	1.195823	0	1	0	0	CorrectCommission	2.184697	0.914134	0
220.105240	0.795850	city	2	0	0.000000	0.862174	0	0	0	1	OmissionError	0.199523	0.932471	0
220.901047	0.795758	city	6	1	0.449254	0.449254	0	1	0	0	CorrectCommission	2.257297	0.941840	0
221.696884	0.795924	city	5	1	0.460591	0.460591	0	1	0	0	CorrectCommission	2.189846	0.940611	0
222.492706	0.795702	city	4	1	0.649648	0.649648	0	1	0	0	CorrectCommission	1.064978	0.928124	0
223.288498	0.795889	city	1	1	0.598947	0.598947	0	1	0	0	CorrectCommission	1.366647	0.904692	0
224.084351	0.795811	city	6	1	0.698975	0.698975	0	1	0	0	CorrectCommission	0.771490	0.871477	0
224.880112	0.795713	city	2	1	0.762611	0.762611	0	1	0	0	CorrectCommission	0.392862	0.830387	0
225.675919	0.795893	city	9	1	0.912939	0.912939	0	1	0	0	CorrectCommission	0.501570	0.783759	0
226.471741	0.795762	city	2	1	0.847369	0.847369	0	1	0	0	CorrectCommission	0.111434	0.734084	1
227.267487	0.795742	city	1	1	1.007178	1.007178	0	1	0	0	CorrectCommission	1.062279	0.683754	1
228.063263	0.795803	mountain	6	0	0.000000	0.986702	1	0	0	0	CorrectOmission	0.940452	0.634808	1
228.859070	0.795814	city	1	1	0.897412	0.897412	0	1	0	0	CorrectCommission	0.409189	0.588859	1
229.654877	0.795780	city	2	1	0.850779	0.850779	0	1	0	0	CorrectCommission	0.131727	0.546995	1
230.450699	0.795874	city	6	1	0.959218	0.959218	0	1	0	0	CorrectCommission	0.776925	0.509784	1
231.246521	0.795763	city	7	1	0.847461	0.847461	0	1	0	0	CorrectCommission	0.111983	0.477335	1
232.042297	0.795787	city	5	1	0.797446	0.797446	0	1	0	0	CorrectCommission	0.185598	0.449450	1
232.838074	0.795778	city	3	1	0.707965	0.707965	0	1	0	0	CorrectCommission	0.718000	0.425688	1
233.633896	0.795877	city	10	1	0.749109	0.749109	0	1	0	0	CorrectCommission	0.473199	0.405444	1
234.429611	0.795545	city	5	1	0.847694	0.847694	0	1	0	0	CorrectCommission	0.113371	0.388151	1
235.225388	0.796008	city	6	1	0.897601	0.897601	0	1	0	0	CorrectCommission	0.410308	0.373288	1
236.021271	0.795761	mountain	2	0	0.000000	0.899220	1	0	0	0	CorrectOmission	0.419941	0.360441	1
236.817123	0.795931	city	1	1	0.850156	0.850156	0	1	0	0	CorrectCommission	0.128018	0.349307	1
237.612930	0.795710	city	10	1	0.748014	0.748014	0	1	0	0	CorrectCommission	0.479713	0.339855	1
238.408676	0.795766	city	6	1	0.947095	0.947095	0	1	0	0	CorrectCommission	0.704794	0.332084	1
239.204391	0.795672	city	4	1	0.860941	0.860941	0	1	0	0	CorrectCommission	0.192189	0.326143	1
240.000214	0.795976	city	7	1	0.805702	0.805702	0	1	0	0	CorrectCommission	0.136476	0.322336	1
240.795975	0.795524	city	3	1	0.865611	0.865611	0	1	0	0	CorrectCommission	0.219972	0.321039	1
241.591660	0.795850	city	10	1	0.848183	0.848183	0	1	0	0	CorrectCommission	0.116281	0.322670	1
242.387589	0.796033	city	1	1	0.854228	0.854228	0	1	0	0	CorrectCommission	0.152247	0.327642	1
243.183502	0.795779	city	10	1	0.748294	0.748294	0	1	0	0	CorrectCommission	0.478049	0.336305	1
243.979218	0.795646	city	2	1	0.897522	0.897522	0	1	0	0	CorrectCommission	0.409842	0.348955	1
244.775040	0.796008	city	7	1	0.897649	0.897649	0	1	0	0	CorrectCommission	0.410594	0.365856	1
245.570831	0.795571	city	9	1	0.847720	0.847720	0	1	0	0	CorrectCommission	0.113528	0.387184	1
246.366608	0.795985	city	5	1	0.897200	0.897200	0	1	0	0	CorrectCommission	0.407926	0.413005	1
247.162399	0.795604	city	9	1	0.898299	0.898299	0	1	0	0	CorrectCommission	0.414465	0.443273	1
247.958221	0.796018	city	1	1	0.767111	0.767111	0	1	0	0	CorrectCommission	0.366086	0.477833	1
248.754150	0.795866	city	3	1	0.847684	0.847684	0	1	0	0	CorrectCommission	0.113309	0.516465	1
249.549988	0.795784	city	6	1	0.947118	0.947118	0	1	0	0	CorrectCommission	0.704930	0.558845	1
250.345749	0.795752	mountain	1	0	0.000000	0.798350	1	0	0	0	CorrectOmission	0.180221	0.604517	1
251.141510	0.795763	city	10	1	0.711520	0.711520	0	1	0	0	CorrectCommission	0.696847	0.652972	1
251.937317	0.795842	city	4	1	0.996769	0.996769	0	1	0	0	CorrectCommission	1.000347	0.703524	1
252.733154	0.795843	city	1	1	0.499402	0.499402	0	1	0	0	CorrectCommission	1.958924	0.755305	0
253.528931	0.795699	city	8	1	0.797279	0.797279	0	1	0	0	CorrectCommission	0.186593	0.807213	0
254.324677	0.795794	city	7	1	0.813671	0.813671	0	1	0	0	CorrectCommission	0.089064	0.858010	0
255.120514	0.795893	city	1	1	0.847486	0.847486	0	1	0	0	CorrectCommission	0.112133	0.906124	0
255.916351	0.795798	city	4	1	1.097972	1.097972	0	1	0	0	CorrectCommission	1.602496	0.949752	0
256.712189	0.795840	city	2	1	1.161816	1.161816	0	1	0	0	CorrectCommission	1.982360	0.986928	0
257.507996	0.795792	city	10	1	0.648613	0.648613	0	1	0	0	CorrectCommission	1.071139	1.015731	0
258.303772	0.795777	city	7	1	0.847766	0.847766	0	1	0	0	CorrectCommission	0.113800	1.034486	0
259.099457	0.795582	city	4	1	0.864105	0.864105	0	1	0	0	CorrectCommission	0.211016	1.041950	0
259.895264	0.796040	city	1	1	0.350623	0.350623	0	1	0	0	CorrectCommission	2.844142	1.037448	0
260.691162	0.795736	mountain	3	1	0.302555	0.302555	0	0	1	0	CommissionError	3.130139	1.020956	0
261.486969	0.795890	city	4	1	0.599121	0.599121	0	1	0	0	CorrectCommission	1.365607	0.993299	0
262.282776	0.795735	mountain	7	0	0.000000	0.764997	1	0	0	0	CorrectOmission	0.378665	0.956071	0
263.078583	0.795865	city	1	1	0.798586	0.798586	0	1	0	0	CorrectCommission	0.178817	0.911409	0
263.874237	0.795474	city	7	1	0.698290	0.698290	0	1	0	0	CorrectCommission	0.775565	0.861720	0
264.670013	0.796056	city	8	1	0.897509	0.897509	0	1	0	0	CorrectCommission	0.409762	0.809457	0
265.465851	0.795617	city	2	1	0.946940	0.946940	0	1	0	0	CorrectCommission	0.703873	0.756917	0
266.261536	0.795723	city	3	1	0.997212	0.997212	0	1	0	0	CorrectCommission	1.002987	0.706075	1
267.057465	0.796155	city	2	1	0.897807	0.897807	0	1	0	0	CorrectCommission	0.411536	0.658440	1
267.853302	0.795544	mountain	5	0	0.000000	0.823149	1	0	0	0	CorrectOmission	0.032669	0.615150	1
268.648987	0.795777	city	3	1	0.748424	0.748424	0	1	0	0	CorrectCommission	0.477275	0.576956	1
269.444763	0.795820	city	5	1	0.648815	0.648815	0	1	0	0	CorrectCommission	1.069934	0.544305	1
270.240692	0.795997	city	7	1	0.699199	0.699199	0	1	0	0	CorrectCommission	0.770159	0.517423	1
271.036560	0.795766	city	10	1	0.747995	0.747995	0	1	0	0	CorrectCommission	0.479829	0.496479	1
271.832245	0.795624	city	8	1	0.764850	0.764850	0	1	0	0	CorrectCommission	0.379542	0.481539	1
272.628052	0.795975	city	3	1	0.797655	0.797655	0	1	0	0	CorrectCommission	0.184357	0.472595	1
273.423950	0.795835	city	1	1	0.847272	0.847272	0	1	0	0	CorrectCommission	0.110857	0.469457	1
274.219788	0.795803	city	2	1	0.761329	0.761329	0	1	0	0	CorrectCommission	0.400493	0.471745	1
275.015564	0.795740	city	5	1	0.806054	0.806054	0	1	0	0	CorrectCommission	0.134384	0.478912	1
275.811249	0.795626	city	3	1	0.797741	0.797741	0	1	0	0	CorrectCommission	0.183843	0.490268	1
276.606964	0.795835	mountain	1	0	0.000000	0.795328	1	0	0	0	CorrectOmission	0.198199	0.505044	1
277.402802	0.795816	city	2	1	0.748546	0.748546	0	1	0	0	CorrectCommission	0.476545	0.522451	1
278.198700	0.796034	city	8	1	0.607127	0.607127	0	1	0	0	CorrectCommission	1.317973	0.541843	1
278.994598	0.795725	city	10	1	0.655149	0.655149	0	1	0	0	CorrectCommission	1.032249	0.562882	1
279.790253	0.795621	city	1	1	0.648807	0.648807	0	1	0	0	CorrectCommission	1.069983	0.585602	1
280.585968	0.795804	city	4	1	0.798235	0.798235	0	1	0	0	CorrectCommission	0.180903	0.610324	1
281.381927	0.796075	city	9	1	0.698212	0.698212	0	1	0	0	CorrectCommission	0.776027	0.637590	1
282.177795	0.795697	city	6	1	0.797968	0.797968	0	1	0	0	CorrectCommission	0.182494	0.667930	1
282.973572	0.795848	city	7	1	0.765078	0.765078	0	1	0	0	CorrectCommission	0.378183	0.701766	1
283.769409	0.795822	city	1	1	0.760277	0.760277	0	1	0	0	CorrectCommission	0.406749	0.739060	1
284.565247	0.795864	city	6	1	0.897139	0.897139	0	1	0	0	CorrectCommission	0.407562	0.779375	0
285.361023	0.795672	city	9	1	0.947794	0.947794	0	1	0	0	CorrectCommission	0.708951	0.821717	0
286.156799	0.795902	city	1	1	0.947101	0.947101	0	1	0	0	CorrectCommission	0.704828	0.864622	0
286.952606	0.795711	city	3	1	0.961283	0.961283	0	1	0	0	CorrectCommission	0.789214	0.906323	0
287.748291	0.795611	city	8	1	1.146557	1.146557	0	1	0	0	CorrectCommission	1.891570	0.944986	0
288.544006	0.795840	city	3	1	1.051674	1.051674	0	1	0	0	CorrectCommission	1.327025	0.978853	0
289.339935	0.795996	city	1	1	1.005975	1.005975	0	1	0	0	CorrectCommission	1.055124	1.006573	0
290.135803	0.795760	city	6	1	1.096030	1.096030	0	1	0	0	CorrectCommission	1.590939	1.027236	0
290.931610	0.795878	city	9	1	1.046264	1.046264	0	1	0	0	CorrectCommission	1.294838	1.040406	0
291.727478	0.795836	city	4	1	1.011885	1.011885	0	1	0	0	CorrectCommission	1.090284	1.046125	0
292.523224	0.795673	city	6	1	0.996572	0.996572	0	1	0	0	CorrectCommission	0.999179	1.044779	0
293.318970	0.795828	city	1	1	0.947121	0.947121	0	1	0	0	CorrectCommission	0.704949	1.036956	0
294.114838	0.795885	city	7	1	0.996925	0.996925	0	1	0	0	CorrectCommission	1.001275	1.023307	0
294.910522	0.795464	city	1	1	0.964900	0.964900	0	1	0	0	CorrectCommission	0.810734	1.004426	0
295.706299	0.796087	city	10	1	0.948295	0.948295	0	1	0	0	CorrectCommission	0.711931	0.980826	0
296.502136	0.795586	city	5	1	0.996363	0.996363	0	1	0	0	CorrectCommission	0.997930	0.952959	0
297.297821	0.795823	city	10	1	1.046520	1.046520	0	1	0	0	CorrectCommission	1.296361	0.921240	0
298.093719	0.795978	city	6	1	1.196213	1.196213	0	1	0	0	CorrectCommission	2.187018	0.886198	0
298.889648	0.795861	city	9	0	0.000000	0.831556	0	0	0	1	OmissionError	0.017354	0.848442	0
299.685486	0.795792	city	6	1	0.499808	0.499808	0	1	0	0	CorrectCommission	1.956509	0.808872	0
300.481232	0.795714	city	1	1	0.748227	0.748227	0	1	0	0	CorrectCommission	0.478446	0.768385	0
301.276886	0.795571	city	6	1	0.816117	0.816117	0	1	0	0	CorrectCommission	0.074508	0.728092	1
302.072723	0.796119	city	3	1	0.847441	0.847441	0	1	0	0	CorrectCommission	0.111865	0.689069	1
302.868652	0.795771	city	5	1	0.946733	0.946733	0	1	0	0	CorrectCommission	0.702641	0.652247	1
303.664490	0.795872	mountain	6	0	0.000000	0.838990	1	0	0	0	CorrectOmission	0.061583	0.618385	1
304.460297	0.795732	city	7	1	0.698182	0.698182	0	1	0	0	CorrectCommission	0.776210	0.588147	1
305.256042	0.795806	city	8	1	0.698277	0.698277	0	1	0	0	CorrectCommission	0.775644	0.561960	1
306.051880	0.795860	mountain	1	0	0.000000	0.696362	1	0	0	0	CorrectOmission	0.787038	0.540216	1
306.847656	0.795706	city	10	1	0.707842	0.707842	0	1	0	0	CorrectCommission	0.718734	0.523285	1
307.643311	0.795599	city	9	1	0.748121	0.748121	0	1	0	0	CorrectCommission	0.479075	0.511474	1
308.439148	0.796025	city	5	1	0.754675	0.754675	0	1	0	0	CorrectCommission	0.440081	0.505159	1
309.235046	0.795783	city	6	1	0.847195	0.847195	0	1	0	0	CorrectCommission	0.110399	0.504648	1
310.030853	0.795864	city	5	1	0.804382	0.804382	0	1	0	0	CorrectCommission	0.144332	0.510148	1
310.826660	0.795717	city	1	1	0.897469	0.897469	0	1	0	0	CorrectCommission	0.409526	0.521691	1
311.622467	0.795906	city	6	1	0.897541	0.897541	0	1	0	0	CorrectCommission	0.409952	0.539052	1
312.418152	0.795502	mountain	8	0	0.000000	0.788239	1	0	0	0	CorrectOmission	0.240378	0.561741	1
313.213928	0.796003	city	5	1	0.698387	0.698387	0	1	0	0	CorrectCommission	0.774989	0.589017	1
314.009735	0.795651	city	2	1	0.756805	0.756805	0	1	0	0	CorrectCommission	0.427406	0.619911	1
314.805603	0.796046	city	1	1	0.897597	0.897597	0	1	0	0	CorrectCommission	0.410285	0.653283	1
315.601501	0.795781	city	8	1	0.953449	0.953449	0	1	0	0	CorrectCommission	0.742602	0.687945	1
316.397308	0.795819	city	9	1	1.046313	1.046313	0	1	0	0	CorrectCommission	1.295127	0.722873	1
317.193115	0.795796	city	10	1	0.549347	0.549347	0	1	0	0	CorrectCommission	1.661760	0.757152	0
317.988800	0.795554	city	8	1	0.764768	0.764768	0	1	0	0	CorrectCommission	0.380032	0.790124	0
318.784454	0.795768	city	4	1	0.847736	0.847736	0	1	0	0	CorrectCommission	0.113618	0.821437	0
319.580322	0.795986	city	9	1	0.965576	0.965576	0	1	0	0	CorrectCommission	0.814755	0.850879	0
320.376221	0.795826	city	1	1	0.964284	0.964284	0	1	0	0	CorrectCommission	0.807065	0.878377	0
321.172058	0.795815	city	9	1	1.046618	1.046618	0	1	0	0	CorrectCommission	1.296942	0.903880	0
321.967926	0.795902	city	3	1	1.096441	1.096441	0	1	0	0	CorrectCommission	1.593387	0.927305	0
322.763733	0.795738	city	5	0	0.000000	0.814427	0	0	0	1	OmissionError	0.084566	0.948463	0
323.559357	0.795502	city	3	1	0.549188	0.549188	0	1	0	0	CorrectCommission	1.662704	0.967154	0
324.355042	0.795879	city	7	1	0.649339	0.649339	0	1	0	0	CorrectCommission	1.066815	0.982982	0
325.151031	0.796093	city	9	1	0.754642	0.754642	0	1	0	0	CorrectCommission	0.440275	0.995634	0
325.946930	0.795718	city	4	1	0.910771	0.910771	0	1	0	0	CorrectCommission	0.488669	1.004872	0
326.742584	0.795560	city	2	1	0.956483	0.956483	0	1	0	0	CorrectCommission	0.760654	1.010634	0
327.538391	0.796094	city	9	1	1.047215	1.047215	0	1	0	0	CorrectCommission	1.300497	1.013154	0
328.334290	0.795709	city	8	1	1.195388	1.195388	0	1	0	0	CorrectCommission	2.182108	1.013006	0
329.130066	0.795832	city	6	1	1.312519	1.312519	0	1	0	0	CorrectCommission	2.879023	1.011085	0
329.925751	0.795523	city	2	1	0.797622	0.797622	0	1	0	0	CorrectCommission	0.184551	1.008538	0
330.721436	0.795873	city	5	1	0.798283	0.798283	0	1	0	0	CorrectCommission	0.180619	1.006727	0
331.517273	0.795796	city	9	1	0.702397	0.702397	0	1	0	0	CorrectCommission	0.751132	1.006714	0
332.313171	0.795974	city	4	1	0.698880	0.698880	0	1	0	0	CorrectCommission	0.772055	1.009210	0
333.109070	0.795832	city	10	1	0.849316	0.849316	0	1	0	0	CorrectCommission	0.123019	1.014442	0
333.904785	0.795597	city	7	1	0.749554	0.749554	0	1	0	0	CorrectCommission	0.470549	1.022079	0
334.700500	0.795814	city	8	1	0.862572	0.862572	0	1	0	0	CorrectCommission	0.201895	1.031233	0
335.496399	0.796020	city	6	1	0.350508	0.350508	0	1	0	0	CorrectCommission	2.844828	1.040744	0
336.292175	0.795514	city	9	1	0.996985	0.996985	0	1	0	0	CorrectCommission	1.001635	1.049197	0
337.087952	0.796020	city	5	1	0.499745	0.499745	0	1	0	0	CorrectCommission	1.956882	1.055415	0
337.883850	0.795811	city	3	1	0.648323	0.648323	0	1	0	0	CorrectCommission	1.072863	1.058377	0
338.679718	0.795904	city	9	1	0.550920	0.550920	0	1	0	0	CorrectCommission	1.652399	1.057461	0
339.475525	0.795717	city	6	1	0.648507	0.648507	0	1	0	0	CorrectCommission	1.071766	1.052309	0
340.271301	0.795824	mountain	4	1	0.662123	0.662123	0	0	1	0	CommissionError	0.990754	1.042881	0
341.067108	0.795827	city	1	1	0.751483	0.751483	0	1	0	0	CorrectCommission	0.459076	1.029185	0
341.862823	0.795599	city	7	1	0.851020	0.851020	0	1	0	0	CorrectCommission	0.133160	1.011223	0
342.658661	0.796056	city	8	1	0.912054	0.912054	0	1	0	0	CorrectCommission	0.496307	0.988890	0
343.454559	0.795727	city	7	1	0.996911	0.996911	0	1	0	0	CorrectCommission	1.001191	0.961998	0
344.250336	0.795814	city	9	1	1.046701	1.046701	0	1	0	0	CorrectCommission	1.297436	0.930370	0
345.046051	0.795615	city	2	1	0.549284	0.549284	0	1	0	0	CorrectCommission	1.662130	0.894036	0
345.841858	0.796019	mountain	1	1	0.300424	0.300424	0	0	1	0	CommissionError	3.142820	0.853378	0
346.637726	0.795733	city	7	1	0.897386	0.897386	0	1	0	0	CorrectCommission	0.409031	0.809151	0
347.433411	0.795610	city	2	1	0.847532	0.847532	0	1	0	0	CorrectCommission	0.112405	0.762806	0
348.229187	0.795946	city	10	1	0.748225	0.748225	0	1	0	0	CorrectCommission	0.478459	0.716094	1
349.025116	0.795908	city	1	1	0.853758	0.853758	0	1	0	0	CorrectCommission	0.149449	0.670976	1
349.820862	0.795579	city	2	1	0.809314	0.809314	0	1	0	0	CorrectCommission	0.114988	0.629485	1
350.616638	0.796002	city	9	1	0.996834	0.996834	0	1	0	0	CorrectCommission	1.000733	0.593392	1
351.412537	0.795762	city	6	1	0.861746	0.861746	0	1	0	0	CorrectCommission	0.196977	0.564091	1
352.208221	0.795605	city	2	1	0.761715	0.761715	0	1	0	0	CorrectCommission	0.398196	0.542547	1
353.003937	0.795840	city	3	1	0.798696	0.798696	0	1	0	0	CorrectCommission	0.178165	0.529054	1
353.799835	0.795990	city	2	1	0.847515	0.847515	0	1	0	0	CorrectCommission	0.112305	0.523582	1
354.595642	0.795615	city	3	1	0.897454	0.897454	0	1	0	0	CorrectCommission	0.409433	0.525706	1
355.391418	0.795942	mountain	6	0	0.000000	0.747643	1	0	0	0	CorrectOmission	0.481923	0.534856	1
356.187317	0.795860	city	5	1	0.599005	0.599005	0	1	0	0	CorrectCommission	1.366297	0.550445	1
356.983154	0.795794	city	9	1	0.652465	0.652465	0	1	0	0	CorrectCommission	1.048220	0.571963	1
357.778839	0.795558	city	1	1	0.806886	0.806886	0	1	0	0	CorrectCommission	0.129434	0.599097	1
358.574677	0.796130	city	3	1	0.903232	0.903232	0	1	0	0	CorrectCommission	0.443814	0.631675	1
359.370483	0.795487	city	8	1	0.847629	0.847629	0	1	0	0	CorrectCommission	0.112985	0.669491	1
360.166260	0.796062	city	1	1	0.897709	0.897709	0	1	0	0	CorrectCommission	0.410953	0.712219	1
360.962158	0.795762	city	3	1	1.002881	1.002881	0	1	0	0	CorrectCommission	1.036714	0.759164	0
361.757996	0.795874	city	8	1	0.951729	0.951729	0	1	0	0	CorrectCommission	0.732366	0.809159	0
362.553772	0.795701	city	3	1	0.913721	0.913721	0	1	0	0	CorrectCommission	0.506224	0.860574	0
363.349426	0.795621	city	7	1	0.897707	0.897707	0	1	0	0	CorrectCommission	0.410943	0.911242	0
364.145233	0.795982	city	8	1	0.996856	0.996856	0	1	0	0	CorrectCommission	1.000863	0.958745	0
364.941132	0.795825	city	4	1	1.200818	1.200818	0	1	0	0	CorrectCommission	2.214417	1.000537	0
365.736847	0.795621	city	6	0	0.000000	0.875667	0	0	0	1	OmissionError	0.279804	1.034223	0
366.532684	0.796023	city	2	1	0.499572	0.499572	0	1	0	0	CorrectCommission	1.957913	1.058019	0
367.328583	0.795759	mountain	4	1	0.550706	0.550706	0	0	1	0	CommissionError	1.653675	1.070751	0
368.124359	0.795791	mountain	5	1	0.748022	0.748022	0	0	1	0	CommissionError	0.479666	1.072240	0
368.920074	0.795646	city	8	1	1.195703	1.195703	0	1	0	0	CorrectCommission	2.183982	1.063374	0
369.715912	0.796034	city	10	1	1.111035	1.111035	0	1	0	0	CorrectCommission	1.680217	1.045868	0
370.511810	0.795761	mountain	10	0	0.000000	1.072725	1	0	0	0	CorrectOmission	1.452277	1.022248	0
371.307587	0.795782	city	4	1	0.996431	0.996431	0	1	0	0	CorrectCommission	0.998339	0.995427	0
372.103363	0.795764	city	2	1	0.797812	0.797812	0	1	0	0	CorrectCommission	0.183419	0.968332	0
372.899017	0.795564	city	9	1	0.848033	0.848033	0	1	0	0	CorrectCommission	0.115387	0.943510	0
373.694733	0.795852	city	3	1	0.862014	0.862014	0	1	0	0	CorrectCommission	0.198571	0.922712	0
374.490692	0.796078	city	6	1	0.761574	0.761574	0	1	0	0	CorrectCommission	0.399032	0.906719	0
375.286621	0.795761	city	8	1	1.046466	1.046466	0	1	0	0	CorrectCommission	1.296042	0.895286	0
376.082275	0.795589	city	4	1	0.997004	0.997004	0	1	0	0	CorrectCommission	1.001745	0.887225	0
376.878113	0.796094	city	9	1	0.955533	0.955533	0	1	0	0	CorrectCommission	0.755000	0.880665	0
377.674042	0.795746	city	7	1	0.996659	0.996659	0	1	0	0	CorrectCommission	0.999695	0.873366	0
378.469696	0.795549	city	10	1	0.996437	0.996437	0	1	0	0	CorrectCommission	0.998374	0.863085	0
379.265381	0.795846	city	3	1	1.048996	1.048996	0	1	0	0	CorrectCommission	1.311092	0.847985	0
380.061340	0.796043	city	8	1	1.046706	1.046706	0	1	0	0	CorrectCommission	1.297469	0.826917	0
380.857178	0.795664	city	1	1	1.046327	1.046327	0	1	0	0	CorrectCommission	1.295213	0.799612	0
381.652954	0.795848	city	10	1	1.046767	1.046767	0	1	0	0	CorrectCommission	1.297833	0.766699	0
382.448761	0.795793	mountain	6	0	0.000000	0.896528	1	0	0	0	CorrectOmission	0.403925	0.729584	1
383.244629	0.795922	city	4	1	0.748277	0.748277	0	1	0	0	CorrectCommission	0.478150	0.690330	1
384.040436	0.795715	city	8	1	0.754683	0.754683	0	1	0	0	CorrectCommission	0.440036	0.651264	1
384.836243	0.795861	city	3	1	0.750762	0.750762	0	1	0	0	CorrectCommission	0.463363	0.614685	1
385.632050	0.795804	city	1	1	0.797808	0.797808	0	1	0	0	CorrectCommission	0.183444	0.582728	1
386.427826	0.795746	city	10	1	0.861969	0.861969	0	1	0	0	CorrectCommission	0.198307	0.557005	1
387.223511	0.795605	city	6	1	0.914382	0.914382	0	1	0	0	CorrectCommission	0.510155	0.538554	1
388.019287	0.795955	city	1	1	0.748219	0.748219	0	1	0	0	CorrectCommission	0.478495	0.527825	1
388.815247	0.795929	city	7	1	0.860126	0.860126	0	1	0	0	CorrectCommission	0.187336	0.524814	1
389.610931	0.795447	city	1	1	0.847805	0.847805	0	1	0	0	CorrectCommission	0.114031	0.529186	1
390.406708	0.796137	city	5	1	0.847747	0.847747	0	1	0	0	CorrectCommission	0.113688	0.540435	1
391.202637	0.795721	city	9	1	1.145603	1.145603	0	1	0	0	CorrectCommission	1.885894	0.558067	1
391.998444	0.795887	mountain	6	0	0.000000	0.987962	1	0	0	0	CorrectOmission	0.947949	0.581541	1
392.794250	0.795735	city	3	1	0.748132	0.748132	0	1	0	0	CorrectCommission	0.479012	0.610560	1
393.590057	0.795860	city	4	1	0.799420	0.799420	0	1	0	0	CorrectCommission	0.173856	0.644810	1
394.385864	0.795775	city	8	1	0.847460	0.847460	0	1	0	0	CorrectCommission	0.111978	0.683932	1
395.181641	0.795761	city	5	1	0.897603	0.897603	0	1	0	0	CorrectCommission	0.410323	0.727344	1
395.977417	0.795802	city	2	1	0.946668	0.946668	0	1	0	0	CorrectCommission	0.702256	0.774148	0
396.773224	0.795784	city	6	1	0.947093	0.947093	0	1	0	0	CorrectCommission	0.704783	0.823051	0
397.569031	0.795864	city	10	1	1.046825	1.046825	0	1	0	0	CorrectCommission	1.298175	0.872345	0
398.364838	0.795709	mountain	2	0	0.000000	0.798865	1	0	0	0	CorrectOmission	0.177155	0.919992	0
399.160645	0.795930	city	4	1	0.612594	0.612594	0	1	0	0	CorrectCommission	1.285446	0.963828	0
399.956482	0.795774	city	2	1	0.897391	0.897391	0	1	0	0	CorrectCommission	0.409059	1.001649	0
400.752258	0.795778	city	5	1	0.399538	0.399538	0	1	0	0	CorrectCommission	2.553104	1.031575	0
401.548096	0.795849	city	7	1	0.449701	0.449701	0	1	0	0	CorrectCommission	2.254639	1.052089	0
402.343781	0.795513	city	8	1	1.046856	1.046856	0	1	0	0	CorrectCommission	1.298358	1.062334	0
403.139435	0.795798	city	9	0	0.000000	0.912404	0	0	0	1	OmissionError	0.498387	1.062158	0
403.935333	0.796052	city	7	1	0.661921	0.661921	0	1	0	0	CorrectCommission	0.991956	1.052100	0
404.731262	0.795754	city	4	1	0.910982	0.910982	0	1	0	0	CorrectCommission	0.489925	1.033284	0
405.527039	0.795834	city	8	1	0.996377	0.996377	0	1	0	0	CorrectCommission	0.998017	1.007379	0
406.322906	0.795860	city	4	1	1.195704	1.195704	0	1	0	0	CorrectCommission	2.183989	0.976403	0
407.118591	0.795531	city	10	0	0.000000	0.806962	0	0	0	1	OmissionError	0.128978	0.942559	0
407.914337	0.795945	city	8	1	0.450829	0.450829	0	1	0	0	CorrectCommission	2.247926	0.908162	0
408.710205	0.795825	city	4	1	0.747983	0.747983	0	1	0	0	CorrectCommission	0.479897	0.875170	0
409.505920	0.795618	city	6	1	0.756690	0.756690	0	1	0	0	CorrectCommission	0.428092	0.845330	0
410.301788	0.796091	city	8	1	0.812259	0.812259	0	1	0	0	CorrectCommission	0.097463	0.819813	0
411.097595	0.795525	city	3	1	0.897267	0.897267	0	1	0	0	CorrectCommission	0.408324	0.799177	0
411.893341	0.795971	city	2	1	0.997187	0.997187	0	1	0	0	CorrectCommission	1.002833	0.783288	0
412.689270	0.795905	mountain	7	0	0.000000	0.864494	1	0	0	0	CorrectOmission	0.213326	0.771364	0
413.485107	0.795735	city	8	1	0.698481	0.698481	0	1	0	0	CorrectCommission	0.774428	0.762162	0
414.280884	0.795834	city	6	1	0.698442	0.698442	0	1	0	0	CorrectCommission	0.774658	0.754100	0
415.076569	0.795545	city	3	1	0.947044	0.947044	0	1	0	0	CorrectCommission	0.704491	0.745500	1
415.872375	0.796035	city	5	1	0.996845	0.996845	0	1	0	0	CorrectCommission	1.000802	0.734884	1
416.668304	0.795852	mountain	2	1	0.499295	0.499295	0	0	1	0	CommissionError	1.959560	0.721065	1
417.464020	0.795554	city	10	1	0.653805	0.653805	0	1	0	0	CorrectCommission	1.040245	0.703360	1
418.259796	0.795993	mountain	3	0	0.000000	0.735867	1	0	0	0	CorrectOmission	0.551985	0.681602	1
419.055695	0.795809	city	3	1	0.762683	0.762683	0	1	0	0	CorrectCommission	0.392436	0.656100	1
419.851349	0.795507	city	1	1	0.751453	0.751453	0	1	0	0	CorrectCommission	0.459254	0.627523	1
420.647034	0.795861	city	10	1	0.847944	0.847944	0	1	0	0	CorrectCommission	0.114860	0.596778	1
421.442993	0.796054	city	1	1	0.897657	0.897657	0	1	0	0	CorrectCommission	0.410644	0.564828	1
422.238861	0.795711	city	6	1	0.997073	0.997073	0	1	0	0	CorrectCommission	1.002155	0.532573	1
423.034515	0.795618	mountain	3	0	0.000000	0.853851	1	0	0	0	CorrectOmission	0.150003	0.500770	1
423.830414	0.796122	city	10	1	0.698210	0.698210	0	1	0	0	CorrectCommission	0.776039	0.470018	1
424.626373	0.795795	city	1	1	0.760370	0.760370	0	1	0	0	CorrectCommission	0.406199	0.440782	1
425.422089	0.795682	mountain	5	0	0.000000	0.761900	1	0	0	0	CorrectOmission	0.397092	0.413360	1
426.217712	0.795565	city	10	1	0.748276	0.748276	0	1	0	0	CorrectCommission	0.478157	0.388077	1
427.013428	0.795879	city	1	1	0.764969	0.764969	0	1	0	0	CorrectCommission	0.378830	0.365189	1
427.809387	0.796026	city	9	1	0.847592	0.847592	0	1	0	0	CorrectCommission	0.112763	0.345012	1
428.605225	0.795654	city	5	1	0.797612	0.797612	0	1	0	0	CorrectCommission	0.184610	0.327933	1
429.401031	0.795922	city	3	1	0.748177	0.748177	0	1	0	0	CorrectCommission	0.478741	0.314351	1
430.196869	0.795780	city	10	1	0.808679	0.808679	0	1	0	0	CorrectCommission	0.118764	0.304771	1
430.992584	0.795614	city	4	1	0.847225	0.847225	0	1	0	0	CorrectCommission	0.110578	0.299734	1
431.788361	0.795983	city	9	1	0.847832	0.847832	0	1	0	0	CorrectCommission	0.114192	0.299788	1
432.584320	0.795912	city	1	1	0.897255	0.897255	0	1	0	0	CorrectCommission	0.408251	0.305457	1
433.380035	0.795514	city	5	1	0.797836	0.797836	0	1	0	0	CorrectCommission	0.183279	0.317211	1
434.175690	0.795833	city	8	1	0.917371	0.917371	0	1	0	0	CorrectCommission	0.527939	0.335336	1
434.971497	0.795753	mountain	1	0	0.000000	0.844237	1	0	0	0	CorrectOmission	0.092803	0.359952	1
435.767365	0.796002	city	10	1	0.747941	0.747941	0	1	0	0	CorrectCommission	0.480149	0.390970	1
436.563263	0.795808	city	5	1	0.797987	0.797987	0	1	0	0	CorrectCommission	0.182381	0.427949	1
437.359131	0.795900	city	2	1	0.848299	0.848299	0	1	0	0	CorrectCommission	0.116971	0.470180	1
438.154846	0.795542	city	9	1	0.797847	0.797847	0	1	0	0	CorrectCommission	0.183215	0.516648	1
438.950623	0.795975	mountain	4	0	0.000000	0.756375	1	0	0	0	CorrectOmission	0.429969	0.566064	1
439.746399	0.795615	city	10	1	0.748222	0.748222	0	1	0	0	CorrectCommission	0.478475	0.616927	1
440.542236	0.796050	mountain	6	1	0.797728	0.797728	0	0	1	0	CommissionError	0.183922	0.667706	1
441.338043	0.795533	city	1	1	1.196167	1.196167	0	1	0	0	CorrectCommission	2.186745	0.716883	1
442.133850	0.796109	city	5	1	0.996688	0.996688	0	1	0	0	CorrectCommission	0.999867	0.763017	0
442.929749	0.795672	city	2	1	0.996771	0.996771	0	1	0	0	CorrectCommission	1.000361	0.804972	0
443.725403	0.795640	mountain	10	1	1.048201	1.048201	0	0	1	0	CommissionError	1.306362	0.841784	0
444.521118	0.795777	mountain	9	0	0.000000	0.873827	1	0	0	0	CorrectOmission	0.268859	0.872661	0
445.316986	0.796001	city	1	1	0.698753	0.698753	0	1	0	0	CorrectCommission	0.772808	0.897039	0
446.112946	0.795877	city	7	1	0.748084	0.748084	0	1	0	0	CorrectCommission	0.479299	0.914416	0
446.908661	0.795551	city	1	1	0.947260	0.947260	0	1	0	0	CorrectCommission	0.705777	0.924411	0
447.704315	0.795813	city	2	0	0.000000	0.645760	0	0	0	1	OmissionError	1.088113	0.926786	0
448.500214	0.795979	city	6	1	0.457578	0.457578	0	1	0	0	CorrectCommission	2.207774	0.921528	0
449.296112	0.795767	city	2	1	0.996708	0.996708	0	1	0	0	CorrectCommission	0.999986	0.908900	0
450.091919	0.795872	city	8	1	1.046435	1.046435	0	1	0	0	CorrectCommission	1.295857	0.889645	0
450.887726	0.795773	city	10	1	1.047808	1.047808	0	1	0	0	CorrectCommission	1.304027	0.864923	0
451.683563	0.795861	mountain	2	0	0.000000	0.823419	1	0	0	0	CorrectOmission	0.031061	0.836343	0
452.479340	0.795700	city	8	1	0.698102	0.698102	0	1	0	0	CorrectCommission	0.776681	0.805940	0
453.275024	0.795665	city	4	1	0.996692	0.996692	0	1	0	0	CorrectCommission	0.999891	0.775906	0
454.070831	0.795952	city	1	1	0.947614	0.947614	0	1	0	0	CorrectCommission	0.707880	0.748523	0
454.866577	0.795561	city	2	1	0.911591	0.911591	0	1	0	0	CorrectCommission	0.493548	0.725949	1
455.662384	0.796043	city	7	1	0.947515	0.947515	0	1	0	0	CorrectCommission	0.707294	0.709983	1
456.458221	0.795619	mountain	9	0	0.000000	0.852184	1	0	0	0	CorrectOmission	0.140083	0.701867	1
457.253937	0.795793	city	7	1	0.748598	0.748598	0	1	0	0	CorrectCommission	0.476241	0.702206	1
458.049805	0.795959	city	9	1	0.759759	0.759759	0	1	0	0	CorrectCommission	0.409833	0.710872	1
458.845612	0.795663	city	2	1	0.748748	0.748748	0	1	0	0	CorrectCommission	0.475349	0.726956	1
459.641479	0.796082	city	1	1	0.853475	0.853475	0	1	0	0	CorrectCommission	0.147767	0.748945	0
460.437256	0.795445	city	4	1	0.996735	0.996735	0	1	0	0	CorrectCommission	1.000145	0.774835	0
461.233002	0.796091	city	2	1	1.046751	1.046751	0	1	0	0	CorrectCommission	1.297733	0.802242	0
462.028931	0.795764	city	3	1	1.006332	1.006332	0	1	0	0	CorrectCommission	1.057245	0.828745	0
462.824646	0.795648	city	1	1	1.006028	1.006028	0	1	0	0	CorrectCommission	1.055437	0.852055	0
463.620331	0.795749	city	7	1	1.046395	1.046395	0	1	0	0	CorrectCommission	1.295614	0.870179	0
464.416138	0.795821	city	3	1	0.946899	0.946899	0	1	0	0	CorrectCommission	0.703627	0.881545	0
465.212036	0.795977	city	8	1	0.947545	0.947545	0	1	0	0	CorrectCommission	0.707473	0.885134	0
466.007843	0.795662	city	3	1	0.998567	0.998567	0	1	0	0	CorrectCommission	1.011049	0.880437	0
466.803650	0.795941	city	8	1	1.046857	1.046857	0	1	0	0	CorrectCommission	1.298366	0.867546	0
467.599457	0.795646	city	5	1	0.997520	0.997520	0	1	0	0	CorrectCommission	1.004814	0.847093	0
468.395294	0.796077	city	4	1	0.997301	0.997301	0	1	0	0	CorrectCommission	1.003511	0.820190	0
469.191193	0.795700	mountain	4	0	0.000000	1.010166	1	0	0	0	CorrectOmission	1.080058	0.788387	0
469.986938	0.795795	mountain	2	0	0.000000	1.004101	1	0	0	0	CorrectOmission	1.043975	0.753559	0
470.782654	0.795649	city	9	1	0.947093	0.947093	0	1	0	0	CorrectCommission	0.704784	0.717854	1
471.578339	0.795704	city	3	1	0.807127	0.807127	0	1	0	0	CorrectCommission	0.127996	0.683662	1
472.374268	0.796129	city	7	1	0.848005	0.848005	0	1	0	0	CorrectCommission	0.115224	0.653612	1
473.170197	0.795774	city	5	1	0.903685	0.903685	0	1	0	0	CorrectCommission	0.446509	0.630570	1
473.966034	0.795873	city	9	1	0.900748	0.900748	0	1	0	0	CorrectCommission	0.429038	0.617778	1
474.761688	0.795432	city	2	1	0.997608	0.997608	0	1	0	0	CorrectCommission	1.005343	0.618950	1
475.557465	0.796152	city	9	1	0.947506	0.947506	0	1	0	0	CorrectCommission	0.707240	0.638368	1
476.353333	0.795529	city	10	1	0.847183	0.847183	0	1	0	0	CorrectCommission	0.110327	0.681024	1
477.149078	0.795998	city	5	1	0.861932	0.861932	0	1	0	0	CorrectCommission	0.198086	0.752597	0
477.944855	0.795575	city	7	1	0.953137	0.953137	0	1	0	0	CorrectCommission	0.740742	0.859242	0
478.740662	0.796003	city	9	1	0.947574	0.947574	0	1	0	0	CorrectCommission	0.707644	1.007322	0
479.536560	0.795786	city	6	1	0.897334	0.897334	0	1	0	0	CorrectCommission	0.408725	1.203020	0
480.332275	0.795648	mountain	2	0	0.000000	0.814646	1	0	0	0	CorrectOmission	0.083263	1.451782	0
481.128082	0.795977	city	6	1	0.798291	0.798291	0	1	0	0	CorrectCommission	0.180572	1.757687	0
481.923950	0.795790	city	10	1	0.947053	0.947053	0	1	0	0	CorrectCommission	0.704545	2.122841	0
482.719757	0.795796	city	7	1	1.101405	1.101405	0	1	0	0	CorrectCommission	1.622918	2.546812	0
483.515503	0.795670	city	9	1	1.096246	1.096246	0	1	0	0	CorrectCommission	1.592225	3.026260	0
484.311310	0.795953	city	3	1	1.155405	1.155405	0	1	0	0	CorrectCommission	1.944214	3.554854	0
485.107208	0.795844	city	1	1	1.345156	1.345156	0	1	0	0	CorrectCommission	3.073207	4.123350	0
485.903046	0.795845	mountain	7	0	0.000000	1.534906	1	0	0	0	CorrectOmission	4.202200	4.719991	0
486.698761	0.795561	mountain	5	0	0.000000	1.724657	1	0	0	0	CorrectOmission	5.331193	5.331193	0
