onset	duration	trial_type	image_type	Press	ReactionTime	ReactionTime_Interpolated	CorrectOmission	CorrectCommission	CommissionError	OmissionError	response_type	nonsmoothVarianceTimeCourse	VarianceTimeCourse	In_the_Zone
8.421732	0.795821	city	9	1	0.798499	0.798499	0	1	0	0	CorrectCommission	0.943449	0.943449	0
9.217546	0.795808	city	3	1	0.506974	0.506974	0	1	0	0	CorrectCommission	0.665064	0.871996	0
10.013311	0.795722	city	4	1	0.464171	0.464171	0	1	0	0	CorrectCommission	0.901233	0.801810	1
10.809090	0.795836	mountain	6	1	0.367206	0.367206	0	0	1	0	CommissionError	1.436245	0.734135	1
11.604893	0.795771	mountain	4	1	0.550230	0.550230	0	0	1	0	CommissionError	0.426392	0.670165	1
12.400722	0.795887	city	9	1	0.698396	0.698396	0	1	0	0	CorrectCommission	0.391123	0.611070	1
13.196545	0.795760	city	1	1	0.549795	0.549795	0	1	0	0	CorrectCommission	0.428793	0.557843	1
13.992308	0.795766	city	2	1	0.648995	0.648995	0	1	0	0	CorrectCommission	0.118551	0.511250	1
14.788085	0.795789	mountain	5	0	0.000000	0.648084	1	0	0	0	CorrectOmission	0.113522	0.471781	1
15.583896	0.795833	city	7	1	0.600198	0.600198	0	1	0	0	CorrectCommission	0.150690	0.439586	1
16.379719	0.795813	mountain	6	0	0.000000	0.558476	1	0	0	0	CorrectOmission	0.380895	0.414452	1
17.175516	0.795780	city	1	1	0.566822	0.566822	0	1	0	0	CorrectCommission	0.334843	0.395825	1
17.971342	0.795873	mountain	6	0	0.000000	0.669142	1	0	0	0	CorrectOmission	0.229715	0.382881	1
18.767138	0.795715	city	4	1	0.751459	0.751459	0	1	0	0	CorrectCommission	0.683905	0.374625	1
19.562901	0.795813	city	9	1	0.699796	0.699796	0	1	0	0	CorrectCommission	0.398850	0.369940	1
20.358704	0.795791	city	4	1	0.599664	0.599664	0	1	0	0	CorrectCommission	0.153638	0.367767	1
21.154516	0.795836	city	8	1	0.563640	0.563640	0	1	0	0	CorrectCommission	0.352401	0.367152	1
21.950443	0.796018	city	10	1	0.502337	0.502337	0	1	0	0	CorrectCommission	0.690648	0.367300	1
22.746246	0.795587	city	4	1	0.549107	0.549107	0	1	0	0	CorrectCommission	0.432590	0.367623	1
23.541965	0.795853	city	9	1	0.600733	0.600733	0	1	0	0	CorrectCommission	0.147739	0.367827	1
24.337748	0.795710	city	4	1	0.652865	0.652865	0	1	0	0	CorrectCommission	0.139902	0.367823	1
25.133524	0.795844	city	6	1	0.550199	0.550199	0	1	0	0	CorrectCommission	0.426566	0.367685	1
25.929371	0.795853	city	1	1	0.499446	0.499446	0	1	0	0	CorrectCommission	0.706596	0.367659	1
26.725185	0.795775	city	7	1	0.549713	0.549713	0	1	0	0	CorrectCommission	0.429245	0.368108	1
27.520967	0.795786	city	6	1	0.599255	0.599255	0	1	0	0	CorrectCommission	0.155894	0.369457	1
28.316753	0.795789	city	5	1	0.549188	0.549188	0	1	0	0	CorrectCommission	0.432144	0.372097	1
29.112535	0.795772	city	4	1	0.550323	0.550323	0	1	0	0	CorrectCommission	0.425882	0.376411	1
29.908337	0.795831	city	10	1	0.658098	0.658098	0	1	0	0	CorrectCommission	0.168779	0.382740	1
30.704178	0.795852	city	2	1	0.605910	0.605910	0	1	0	0	CorrectCommission	0.119176	0.391321	1
31.499977	0.795747	city	10	1	0.549466	0.549466	0	1	0	0	CorrectCommission	0.430607	0.402301	1
32.295773	0.795840	mountain	3	0	0.000000	0.565054	1	0	0	0	CorrectOmission	0.344602	0.415713	1
33.091721	0.796060	city	5	1	0.649335	0.649335	0	1	0	0	CorrectCommission	0.120424	0.431491	1
33.887524	0.795544	city	4	1	0.798971	0.798971	0	1	0	0	CorrectCommission	0.946057	0.449467	1
34.683197	0.795805	city	8	1	0.550323	0.550323	0	1	0	0	CorrectCommission	0.425878	0.469310	1
35.478992	0.795785	mountain	9	1	0.468209	0.468209	0	0	1	0	CommissionError	0.878949	0.490612	1
36.274780	0.795793	city	10	1	0.550426	0.550426	0	1	0	0	CorrectCommission	0.425314	0.512743	1
37.070580	0.795799	city	8	1	0.650611	0.650611	0	1	0	0	CorrectCommission	0.127464	0.534969	1
37.866398	0.795838	city	9	1	0.661001	0.661001	0	1	0	0	CorrectCommission	0.184796	0.556410	1
38.662186	0.795742	mountain	4	0	0.000000	0.730786	1	0	0	0	CorrectOmission	0.569840	0.576054	1
39.457985	0.795855	city	4	1	0.748056	0.748056	0	1	0	0	CorrectCommission	0.665127	0.592843	1
40.253788	0.795752	city	2	1	0.600901	0.600901	0	1	0	0	CorrectCommission	0.146812	0.605832	1
41.049568	0.795811	city	6	1	0.847843	0.847843	0	1	0	0	CorrectCommission	1.215712	0.614309	1
41.845371	0.795796	city	10	0	0.000000	0.929755	0	0	0	1	OmissionError	1.667668	0.617850	1
42.641182	0.795820	city	8	1	0.847932	0.847932	0	1	0	0	CorrectCommission	1.216199	0.616430	1
43.437145	0.796107	city	5	1	0.603667	0.603667	0	1	0	0	CorrectCommission	0.131552	0.610484	1
44.233093	0.795794	city	7	1	0.549502	0.549502	0	1	0	0	CorrectCommission	0.430408	0.600829	1
45.028744	0.795504	city	8	1	0.449819	0.449819	0	1	0	0	CorrectCommission	0.980420	0.588501	1
45.824368	0.795747	city	9	1	0.599095	0.599095	0	1	0	0	CorrectCommission	0.156777	0.574619	1
46.620174	0.795860	mountain	10	0	0.000000	0.601380	1	0	0	0	CorrectOmission	0.144171	0.560309	1
47.415993	0.795778	city	1	1	0.556330	0.556330	0	1	0	0	CorrectCommission	0.392737	0.546506	1
48.211800	0.795839	city	8	1	0.563603	0.563603	0	1	0	0	CorrectCommission	0.352609	0.533903	1
49.007584	0.795731	city	10	1	0.503809	0.503809	0	1	0	0	CorrectCommission	0.682528	0.522939	1
49.803371	0.795841	city	1	1	0.499531	0.499531	0	1	0	0	CorrectCommission	0.706132	0.513851	1
50.599186	0.795793	city	10	1	0.511278	0.511278	0	1	0	0	CorrectCommission	0.641313	0.506730	1
51.395016	0.795861	city	6	1	0.599183	0.599183	0	1	0	0	CorrectCommission	0.156293	0.501629	1
52.190842	0.795792	city	9	1	0.503840	0.503840	0	1	0	0	CorrectCommission	0.682355	0.498681	1
52.986637	0.795799	city	1	1	0.450261	0.450261	0	1	0	0	CorrectCommission	0.977982	0.498074	1
53.782433	0.795790	city	5	1	0.553701	0.553701	0	1	0	0	CorrectCommission	0.407241	0.500136	1
54.578213	0.795773	city	4	1	0.649192	0.649192	0	1	0	0	CorrectCommission	0.119639	0.505318	1
55.374023	0.795850	city	5	1	0.552649	0.552649	0	1	0	0	CorrectCommission	0.413048	0.514051	1
56.169834	0.795776	mountain	6	0	0.000000	0.658955	1	0	0	0	CorrectOmission	0.173506	0.526609	1
56.965645	0.795845	city	7	1	0.748042	0.748042	0	1	0	0	CorrectCommission	0.665051	0.543077	1
57.761414	0.795694	city	9	1	0.599840	0.599840	0	1	0	0	CorrectCommission	0.152664	0.563249	1
58.557205	0.795886	city	10	1	0.500072	0.500072	0	1	0	0	CorrectCommission	0.703144	0.586583	1
59.353016	0.795732	city	3	1	0.500012	0.500012	0	1	0	0	CorrectCommission	0.703477	0.612165	1
60.148785	0.795806	city	10	1	0.506492	0.506492	0	1	0	0	CorrectCommission	0.667721	0.638810	1
60.944611	0.795847	city	3	1	0.550135	0.550135	0	1	0	0	CorrectCommission	0.426917	0.665172	1
61.740414	0.795757	city	9	1	0.513665	0.513665	0	1	0	0	CorrectCommission	0.628143	0.689858	1
62.536186	0.795791	city	8	1	0.499468	0.499468	0	1	0	0	CorrectCommission	0.706475	0.711483	1
63.332005	0.795846	city	3	1	0.449703	0.449703	0	1	0	0	CorrectCommission	0.981061	0.728913	1
64.127846	0.795840	city	9	1	0.414385	0.414385	0	1	0	0	CorrectCommission	1.175928	0.741375	1
64.923676	0.795809	mountain	4	1	0.301583	0.301583	0	0	1	0	CommissionError	1.798325	0.748502	1
65.719482	0.795804	city	9	1	0.549284	0.549284	0	1	0	0	CorrectCommission	0.431613	0.750334	1
66.515411	0.796062	city	5	1	0.519993	0.519993	0	1	0	0	CorrectCommission	0.593229	0.747402	1
67.311203	0.795524	city	8	1	0.564228	0.564228	0	1	0	0	CorrectCommission	0.349157	0.740525	1
68.106857	0.795774	city	1	1	0.549127	0.549127	0	1	0	0	CorrectCommission	0.432482	0.730780	1
68.902649	0.795810	mountain	8	1	0.499757	0.499757	0	0	1	0	CommissionError	0.704884	0.719342	1
69.698471	0.795840	city	7	1	0.898271	0.898271	0	1	0	0	CorrectCommission	1.493954	0.707381	1
70.494293	0.795801	mountain	10	0	0.000000	0.835493	1	0	0	0	CorrectOmission	1.147568	0.695902	1
71.290092	0.795795	city	1	1	0.648953	0.648953	0	1	0	0	CorrectCommission	0.118319	0.685745	1
72.086021	0.796069	city	2	0	0.000000	0.676184	0	0	0	1	OmissionError	0.268569	0.677484	1
72.881813	0.795516	city	8	1	0.712522	0.712522	0	1	0	0	CorrectCommission	0.469067	0.671298	1
73.677612	0.796078	city	10	1	0.553304	0.553304	0	1	0	0	CorrectCommission	0.409435	0.667014	1
74.473412	0.795525	city	5	1	0.506767	0.506767	0	1	0	0	CorrectCommission	0.666207	0.664125	1
75.269035	0.795727	city	10	1	0.513686	0.513686	0	1	0	0	CorrectCommission	0.628028	0.661860	1
76.064796	0.795792	city	8	1	0.463446	0.463446	0	1	0	0	CorrectCommission	0.905232	0.659277	1
76.860619	0.795854	city	5	1	0.898181	0.898181	0	1	0	0	CorrectCommission	1.493454	0.655360	1
77.656471	0.795842	city	2	1	0.599633	0.599633	0	1	0	0	CorrectCommission	0.153808	0.649138	1
78.452248	0.795718	city	7	1	0.648751	0.648751	0	1	0	0	CorrectCommission	0.117201	0.639855	1
79.248024	0.795832	city	5	1	0.400571	0.400571	0	1	0	0	CorrectCommission	1.252151	0.626925	1
80.043861	0.795840	city	1	1	0.404849	0.404849	0	1	0	0	CorrectCommission	1.228544	0.610000	1
80.839676	0.795782	city	7	1	0.662960	0.662960	0	1	0	0	CorrectCommission	0.195606	0.589037	1
81.635475	0.795824	city	3	1	0.699460	0.699460	0	1	0	0	CorrectCommission	0.396998	0.564310	1
82.431282	0.795784	city	1	1	0.503298	0.503298	0	1	0	0	CorrectCommission	0.685347	0.536274	1
83.227226	0.796114	city	6	1	0.797797	0.797797	0	1	0	0	CorrectCommission	0.939579	0.505639	1
84.022995	0.795424	city	1	1	0.608561	0.608561	0	1	0	0	CorrectCommission	0.104548	0.473236	1
84.818665	0.795905	city	4	1	0.749166	0.749166	0	1	0	0	CorrectCommission	0.671254	0.440063	1
85.614517	0.795805	city	7	1	0.655542	0.655542	0	1	0	0	CorrectCommission	0.154675	0.407114	1
86.410271	0.795707	city	8	1	0.568901	0.568901	0	1	0	0	CorrectCommission	0.323372	0.375423	1
87.206047	0.795835	city	5	1	0.549475	0.549475	0	1	0	0	CorrectCommission	0.430558	0.345951	1
88.001877	0.795824	mountain	6	1	0.565946	0.565946	0	0	1	0	CommissionError	0.339681	0.319585	1
88.797829	0.796080	city	10	1	0.599483	0.599483	0	1	0	0	CorrectCommission	0.154637	0.297138	1
89.593628	0.795530	city	8	1	0.598981	0.598981	0	1	0	0	CorrectCommission	0.157408	0.279307	1
90.389290	0.795791	mountain	5	0	0.000000	0.630848	1	0	0	0	CorrectOmission	0.018425	0.266627	1
91.185104	0.795842	city	5	1	0.659326	0.659326	0	1	0	0	CorrectCommission	0.175553	0.259529	1
91.980911	0.795763	city	9	1	0.648654	0.648654	0	1	0	0	CorrectCommission	0.116667	0.258289	1
92.776695	0.795803	city	1	1	0.698596	0.698596	0	1	0	0	CorrectCommission	0.392226	0.263065	1
93.572472	0.795755	city	2	1	0.609805	0.609805	0	1	0	0	CorrectCommission	0.097685	0.273920	1
94.368248	0.795796	city	7	1	0.648932	0.648932	0	1	0	0	CorrectCommission	0.118204	0.290856	1
95.164070	0.795854	city	10	1	0.552668	0.552668	0	1	0	0	CorrectCommission	0.412944	0.313871	1
95.959885	0.795772	city	8	1	0.651962	0.651962	0	1	0	0	CorrectCommission	0.134923	0.342944	1
96.755669	0.795785	city	6	1	0.649209	0.649209	0	1	0	0	CorrectCommission	0.119729	0.378029	1
97.551453	0.795782	city	4	1	0.699408	0.699408	0	1	0	0	CorrectCommission	0.396709	0.418968	1
98.347267	0.795856	city	1	1	0.762928	0.762928	0	1	0	0	CorrectCommission	0.747185	0.465552	1
99.143112	0.795836	city	6	1	0.649029	0.649029	0	1	0	0	CorrectCommission	0.118740	0.517369	1
99.938904	0.795750	city	3	1	0.500423	0.500423	0	1	0	0	CorrectCommission	0.701209	0.573783	1
100.734840	0.796119	city	8	1	0.499472	0.499472	0	1	0	0	CorrectCommission	0.706453	0.633801	1
101.530670	0.795535	city	6	1	0.548871	0.548871	0	1	0	0	CorrectCommission	0.433894	0.696109	1
102.326309	0.795748	city	1	1	0.513978	0.513978	0	1	0	0	CorrectCommission	0.626415	0.759014	1
103.122063	0.795765	city	4	1	0.549347	0.549347	0	1	0	0	CorrectCommission	0.431264	0.820504	1
103.917900	0.795902	city	9	1	0.550172	0.550172	0	1	0	0	CorrectCommission	0.426714	0.878338	0
104.713707	0.795712	city	6	1	0.402986	0.402986	0	1	0	0	CorrectCommission	1.238824	0.930226	0
105.509483	0.795844	city	10	1	0.400972	0.400972	0	1	0	0	CorrectCommission	1.249939	0.974032	0
106.305283	0.795755	city	3	1	1.046694	1.046694	0	1	0	0	CorrectCommission	2.312885	1.008006	0
107.101059	0.795799	city	6	1	1.007243	1.007243	0	1	0	0	CorrectCommission	2.095211	1.030979	0
107.897018	0.796119	city	5	1	0.798092	0.798092	0	1	0	0	CorrectCommission	0.941203	1.042583	0
108.692863	0.795563	city	3	1	0.748351	0.748351	0	1	0	0	CorrectCommission	0.666757	1.043275	0
109.488541	0.795797	city	2	1	0.511871	0.511871	0	1	0	0	CorrectCommission	0.638042	1.034283	0
110.284340	0.795802	city	4	1	0.450536	0.450536	0	1	0	0	CorrectCommission	0.976466	1.017524	0
111.080292	0.796096	city	8	1	0.350456	0.350456	0	1	0	0	CorrectCommission	1.528664	0.995467	0
111.876076	0.795477	mountain	1	1	0.300482	0.300482	0	0	1	0	CommissionError	1.804397	0.970904	0
112.671875	0.796126	mountain	8	0	0.000000	0.584579	1	0	0	0	CorrectOmission	0.236872	0.946705	0
113.467682	0.795486	city	3	1	0.851171	0.851171	0	1	0	0	CorrectCommission	1.234070	0.925584	0
114.263329	0.795809	city	4	1	0.748683	0.748683	0	1	0	0	CorrectCommission	0.668587	0.909704	0
115.059120	0.795763	city	8	1	0.609532	0.609532	0	1	0	0	CorrectCommission	0.099188	0.900605	0
115.854897	0.795789	city	3	1	0.549247	0.549247	0	1	0	0	CorrectCommission	0.431816	0.898984	0
116.650726	0.795875	city	2	1	0.550356	0.550356	0	1	0	0	CorrectCommission	0.425701	0.904631	0
117.446548	0.795766	city	4	1	0.499871	0.499871	0	1	0	0	CorrectCommission	0.704255	0.916463	0
118.242310	0.795757	city	2	1	0.399929	0.399929	0	1	0	0	CorrectCommission	1.255694	0.932667	0
119.038094	0.795813	city	10	1	0.500146	0.500146	0	1	0	0	CorrectCommission	0.702739	0.950952	0
119.833923	0.795851	city	9	1	0.417645	0.417645	0	1	0	0	CorrectCommission	1.157945	0.968843	0
120.629738	0.795778	city	1	1	0.305215	0.305215	0	1	0	0	CorrectCommission	1.778284	0.983892	0
121.425674	0.796096	city	9	1	0.500139	0.500139	0	1	0	0	CorrectCommission	0.702777	0.994001	0
122.221497	0.795550	city	6	1	0.362256	0.362256	0	1	0	0	CorrectCommission	1.463555	0.997627	0
123.017159	0.795773	city	9	1	0.997862	0.997862	0	1	0	0	CorrectCommission	2.043452	0.993832	0
123.812965	0.795838	city	4	1	0.847986	0.847986	0	1	0	0	CorrectCommission	1.216498	0.982321	0
124.608780	0.795792	city	10	1	0.702124	0.702124	0	1	0	0	CorrectCommission	0.411692	0.963512	0
125.404564	0.795767	city	4	1	0.648634	0.648634	0	1	0	0	CorrectCommission	0.116560	0.938374	0
126.200356	0.795828	city	8	1	0.499417	0.499417	0	1	0	0	CorrectCommission	0.706758	0.908286	0
126.996162	0.795775	city	2	1	0.362153	0.362153	0	1	0	0	CorrectCommission	1.464125	0.874897	0
127.791962	0.795820	city	1	1	0.948159	0.948159	0	1	0	0	CorrectCommission	1.769210	0.840071	1
128.587738	0.795748	city	4	1	0.762282	0.762282	0	1	0	0	CorrectCommission	0.743622	0.805772	1
129.383530	0.795833	city	2	1	0.599699	0.599699	0	1	0	0	CorrectCommission	0.153444	0.774010	1
130.179352	0.795812	city	8	1	0.549033	0.549033	0	1	0	0	CorrectCommission	0.432996	0.746760	1
130.975174	0.795810	city	4	1	0.499694	0.499694	0	1	0	0	CorrectCommission	0.705232	0.725718	1
131.770996	0.795835	city	10	1	0.456133	0.456133	0	1	0	0	CorrectCommission	0.945584	0.712241	1
132.566772	0.795719	city	2	1	0.554226	0.554226	0	1	0	0	CorrectCommission	0.404343	0.707231	1
133.362549	0.795857	city	1	1	0.598919	0.598919	0	1	0	0	CorrectCommission	0.157750	0.711015	1
134.158524	0.796092	city	10	1	0.504597	0.504597	0	1	0	0	CorrectCommission	0.678180	0.723240	1
134.954330	0.795502	city	3	1	0.499060	0.499060	0	1	0	0	CorrectCommission	0.708729	0.742831	1
135.749985	0.795816	city	4	1	0.601087	0.601087	0	1	0	0	CorrectCommission	0.145788	0.768040	1
136.545792	0.795811	city	5	1	0.499278	0.499278	0	1	0	0	CorrectCommission	0.707525	0.796628	1
137.341614	0.795821	city	4	1	0.560969	0.560969	0	1	0	0	CorrectCommission	0.367142	0.825957	1
138.137405	0.795761	city	9	1	0.449650	0.449650	0	1	0	0	CorrectCommission	0.981354	0.853341	0
138.933151	0.795744	city	1	1	0.462902	0.462902	0	1	0	0	CorrectCommission	0.908235	0.876307	0
139.729111	0.796153	city	2	1	1.046899	1.046899	0	1	0	0	CorrectCommission	2.314017	0.892902	0
140.524933	0.795509	city	7	1	0.996577	0.996577	0	1	0	0	CorrectCommission	2.036365	0.901839	0
141.320602	0.795833	mountain	4	0	0.000000	0.871663	1	0	0	0	CorrectOmission	1.347137	0.902758	0
142.116394	0.795747	city	6	1	0.698365	0.698365	0	1	0	0	CorrectCommission	0.390951	0.896147	0
142.912155	0.795783	city	10	1	0.502894	0.502894	0	1	0	0	CorrectCommission	0.687576	0.883299	0
143.707977	0.795848	city	4	1	0.611257	0.611257	0	1	0	0	CorrectCommission	0.089673	0.865964	0
144.503784	0.795753	city	8	1	0.549489	0.549489	0	1	0	0	CorrectCommission	0.430484	0.846246	1
145.299545	0.795780	city	10	1	0.897975	0.897975	0	1	0	0	CorrectCommission	1.492320	0.826290	1
146.095367	0.795873	city	2	1	0.847650	0.847650	0	1	0	0	CorrectCommission	1.214644	0.808129	1
146.891190	0.795752	city	9	1	0.720264	0.720264	0	1	0	0	CorrectCommission	0.511783	0.793521	1
147.686981	0.795834	city	1	1	0.549824	0.549824	0	1	0	0	CorrectCommission	0.428632	0.783803	1
148.482758	0.795743	city	10	1	0.549090	0.549090	0	1	0	0	CorrectCommission	0.432685	0.779850	1
149.278564	0.795848	city	8	1	0.511227	0.511227	0	1	0	0	CorrectCommission	0.641598	0.782044	1
150.074371	0.795778	mountain	1	1	0.452018	0.452018	0	0	1	0	CommissionError	0.968287	0.790298	1
150.870163	0.795793	city	6	1	0.514227	0.514227	0	1	0	0	CorrectCommission	0.625042	0.804134	1
151.666122	0.796125	city	2	1	0.468288	0.468288	0	1	0	0	CorrectCommission	0.878513	0.822797	1
152.461945	0.795522	city	8	1	0.548871	0.548871	0	1	0	0	CorrectCommission	0.433893	0.845264	1
153.257584	0.795777	city	10	1	0.454151	0.454151	0	1	0	0	CorrectCommission	0.956517	0.870404	0
154.053421	0.795874	city	6	1	0.499805	0.499805	0	1	0	0	CorrectCommission	0.704616	0.897026	0
154.849197	0.795701	city	8	1	0.453805	0.453805	0	1	0	0	CorrectCommission	0.958427	0.924014	0
155.644974	0.795856	city	5	1	0.400078	0.400078	0	1	0	0	CorrectCommission	1.254871	0.950310	0
156.440842	0.795858	city	9	1	0.351712	0.351712	0	1	0	0	CorrectCommission	1.521735	0.975006	0
157.236618	0.795715	city	6	1	0.500030	0.500030	0	1	0	0	CorrectCommission	0.703376	0.997296	0
158.032410	0.795856	mountain	3	1	0.300404	0.300404	0	0	1	0	CommissionError	1.804831	1.016540	0
158.828232	0.795797	city	4	1	0.699099	0.699099	0	1	0	0	CorrectCommission	0.395005	1.032091	0
159.624008	0.795736	city	2	1	0.549001	0.549001	0	1	0	0	CorrectCommission	0.433174	1.043479	0
160.419815	0.795893	city	10	1	0.450693	0.450693	0	1	0	0	CorrectCommission	0.975598	1.050118	0
161.215652	0.795789	city	7	1	0.997297	0.997297	0	1	0	0	CorrectCommission	2.040333	1.051437	0
162.011444	0.795790	city	3	1	0.848250	0.848250	0	1	0	0	CorrectCommission	1.217955	1.046894	0
162.807388	0.796079	city	6	1	0.549177	0.549177	0	1	0	0	CorrectCommission	0.432206	1.036085	0
163.603149	0.795460	city	8	1	0.364134	0.364134	0	1	0	0	CorrectCommission	1.453195	1.018827	0
164.398804	0.795834	city	2	1	0.911493	0.911493	0	1	0	0	CorrectCommission	1.566905	0.995217	0
165.194641	0.795857	city	8	1	0.748499	0.748499	0	1	0	0	CorrectCommission	0.667571	0.965821	0
165.990616	0.796080	city	1	1	0.499428	0.499428	0	1	0	0	CorrectCommission	0.706697	0.931749	0
166.786377	0.795438	city	2	1	0.947812	0.947812	0	1	0	0	CorrectCommission	1.767299	0.894569	0
167.582001	0.795834	mountain	5	0	0.000000	0.872569	1	0	0	0	CorrectOmission	1.352138	0.856278	0
168.377838	0.795835	city	3	1	0.602135	0.602135	0	1	0	0	CorrectCommission	0.140003	0.819394	1
169.173645	0.795778	city	2	1	0.464947	0.464947	0	1	0	0	CorrectCommission	0.896947	0.786635	1
169.969452	0.795828	mountain	7	1	0.499524	0.499524	0	0	1	0	CommissionError	0.706169	0.760681	1
170.765259	0.795789	city	9	1	0.648492	0.648492	0	1	0	0	CorrectCommission	0.115774	0.743990	1
171.561066	0.795830	city	7	1	0.605398	0.605398	0	1	0	0	CorrectCommission	0.121998	0.738562	1
172.356857	0.795759	city	4	1	0.599458	0.599458	0	1	0	0	CorrectCommission	0.154777	0.745643	1
173.152649	0.795818	city	9	1	0.514970	0.514970	0	1	0	0	CorrectCommission	0.620944	0.765590	1
173.948441	0.795757	city	2	1	0.549875	0.549875	0	1	0	0	CorrectCommission	0.428354	0.797749	1
174.744232	0.795838	city	9	1	0.951248	0.951248	0	1	0	0	CorrectCommission	1.786258	0.840552	1
175.540070	0.795820	city	7	1	0.698582	0.698582	0	1	0	0	CorrectCommission	0.392150	0.891409	0
176.335876	0.795789	city	3	1	0.698943	0.698943	0	1	0	0	CorrectCommission	0.394142	0.947123	0
177.131668	0.795812	city	4	1	0.801927	0.801927	0	1	0	0	CorrectCommission	0.962363	1.004006	0
177.927444	0.795731	city	3	1	0.751999	0.751999	0	1	0	0	CorrectCommission	0.686884	1.058179	0
178.723236	0.795846	city	5	1	0.459432	0.459432	0	1	0	0	CorrectCommission	0.927377	1.106009	0
179.519058	0.795823	city	9	1	0.350224	0.350224	0	1	0	0	CorrectCommission	1.529945	1.144463	0
180.314880	0.795821	city	10	1	1.064589	1.064589	0	1	0	0	CorrectCommission	2.411626	1.171439	0
181.110657	0.795718	mountain	7	0	0.000000	1.156179	1	0	0	0	CorrectOmission	2.916980	1.185937	0
181.906464	0.795884	city	9	1	0.897571	0.897571	0	1	0	0	CorrectCommission	1.490091	1.188187	0
182.702271	0.795746	city	4	1	0.561345	0.561345	0	1	0	0	CorrectCommission	0.365065	1.179689	0
183.498062	0.795826	city	8	1	1.046502	1.046502	0	1	0	0	CorrectCommission	2.311826	1.162860	0
184.293869	0.795792	city	6	1	0.799018	0.799018	0	1	0	0	CorrectCommission	0.946315	1.140547	0
185.089676	0.795823	mountain	5	0	0.000000	0.674089	1	0	0	0	CorrectOmission	0.257009	1.115874	0
185.885635	0.796102	city	1	1	0.599166	0.599166	0	1	0	0	CorrectCommission	0.156386	1.091703	0
186.681564	0.795759	city	4	1	0.501700	0.501700	0	1	0	0	CorrectCommission	0.694164	1.070215	0
187.477203	0.795505	city	7	1	0.505963	0.505963	0	1	0	0	CorrectCommission	0.670642	1.052718	0
188.272888	0.795867	city	9	1	0.449951	0.449951	0	1	0	0	CorrectCommission	0.979690	1.039596	0
189.068665	0.795702	city	6	1	0.399794	0.399794	0	1	0	0	CorrectCommission	1.256435	1.030311	0
189.864471	0.795883	city	7	1	0.998564	0.998564	0	1	0	0	CorrectCommission	2.047325	1.023666	0
190.660446	0.796067	city	9	1	0.847450	0.847450	0	1	0	0	CorrectCommission	1.213542	1.017955	0
191.456223	0.795499	city	1	1	0.549435	0.549435	0	1	0	0	CorrectCommission	0.430779	1.011355	0
192.252045	0.796134	mountain	6	1	0.404457	0.404457	0	0	1	0	CommissionError	1.230707	1.002112	0
193.047852	0.795505	city	5	1	0.549132	0.549132	0	1	0	0	CorrectCommission	0.432454	0.988819	0
193.843475	0.795730	city	1	1	0.449600	0.449600	0	1	0	0	CorrectCommission	0.981626	0.970676	0
194.639236	0.795806	city	8	1	0.350237	0.350237	0	1	0	0	CorrectCommission	1.529871	0.947549	0
195.435089	0.795884	city	6	1	0.350280	0.350280	0	1	0	0	CorrectCommission	1.529635	0.919970	0
196.230911	0.795770	city	4	1	0.406459	0.406459	0	1	0	0	CorrectCommission	1.219662	0.889153	0
197.026703	0.795817	city	7	1	0.500172	0.500172	0	1	0	0	CorrectCommission	0.702592	0.856839	0
197.822510	0.795781	city	10	1	0.416818	0.416818	0	1	0	0	CorrectCommission	1.162503	0.825044	1
198.618271	0.795755	city	4	1	0.500438	0.500438	0	1	0	0	CorrectCommission	0.701123	0.795770	1
199.414078	0.795848	city	9	1	0.608163	0.608163	0	1	0	0	CorrectCommission	0.106746	0.770781	1
200.209915	0.795836	city	4	1	0.599410	0.599410	0	1	0	0	CorrectCommission	0.155041	0.751403	1
201.005875	0.796084	city	10	1	0.552946	0.552946	0	1	0	0	CorrectCommission	0.411406	0.738171	1
201.801666	0.795493	mountain	4	0	0.000000	0.675863	1	0	0	0	CorrectOmission	0.266797	0.730907	1
202.597290	0.795747	city	2	1	0.748002	0.748002	0	1	0	0	CorrectCommission	0.664832	0.728737	1
203.393097	0.795863	mountain	6	1	0.549208	0.549208	0	0	1	0	CommissionError	0.432035	0.730246	1
204.188919	0.795786	city	10	1	0.598970	0.598970	0	1	0	0	CorrectCommission	0.157469	0.733740	1
204.984726	0.795821	city	7	1	1.046793	1.046793	0	1	0	0	CorrectCommission	2.313436	0.737528	1
205.780518	0.795772	city	9	1	0.996665	0.996665	0	1	0	0	CorrectCommission	2.036847	0.740084	1
206.576309	0.795804	city	3	1	0.767019	0.767019	0	1	0	0	CorrectCommission	0.769755	0.740398	1
207.372131	0.795841	city	10	1	0.599497	0.599497	0	1	0	0	CorrectCommission	0.154558	0.737971	1
208.167953	0.795822	city	9	1	0.653228	0.653228	0	1	0	0	CorrectCommission	0.141906	0.732777	1
208.963715	0.795695	city	3	1	0.599572	0.599572	0	1	0	0	CorrectCommission	0.154144	0.725160	1
209.759521	0.795911	city	7	1	0.997450	0.997450	0	1	0	0	CorrectCommission	2.041178	0.715626	1
210.555328	0.795700	city	3	1	0.707171	0.707171	0	1	0	0	CorrectCommission	0.439543	0.704629	1
211.351074	0.795789	city	4	1	0.599682	0.599682	0	1	0	0	CorrectCommission	0.153539	0.692575	1
212.146881	0.795824	city	3	1	0.516238	0.516238	0	1	0	0	CorrectCommission	0.613947	0.679546	1
212.942703	0.795838	city	2	1	0.549932	0.549932	0	1	0	0	CorrectCommission	0.428041	0.665302	1
213.738525	0.795789	city	8	1	0.449943	0.449943	0	1	0	0	CorrectCommission	0.979735	0.649384	1
214.534470	0.796098	city	5	1	0.649622	0.649622	0	1	0	0	CorrectCommission	0.122012	0.631229	1
215.330292	0.795544	city	6	1	0.851247	0.851247	0	1	0	0	CorrectCommission	1.234491	0.610350	1
216.125931	0.795757	city	1	1	0.798801	0.798801	0	1	0	0	CorrectCommission	0.945117	0.586410	1
216.921753	0.795866	mountain	3	1	0.407011	0.407011	0	0	1	0	CommissionError	1.216617	0.559495	1
217.717575	0.795783	city	5	1	0.550100	0.550100	0	1	0	0	CorrectCommission	0.427113	0.530141	1
218.513489	0.796063	city	9	1	0.549043	0.549043	0	1	0	0	CorrectCommission	0.432946	0.499396	1
219.309296	0.795543	mountain	9	0	0.000000	0.578780	1	0	0	0	CorrectOmission	0.268869	0.468708	1
220.104935	0.795724	city	7	1	0.598841	0.598841	0	1	0	0	CorrectCommission	0.158177	0.439802	1
220.900726	0.795858	mountain	5	0	0.000000	0.568758	1	0	0	0	CorrectOmission	0.324162	0.414511	1
221.696548	0.795782	city	8	1	0.549826	0.549826	0	1	0	0	CorrectCommission	0.428620	0.394559	1
222.492355	0.795858	city	7	1	0.603342	0.603342	0	1	0	0	CorrectCommission	0.133346	0.381302	1
223.288147	0.795696	city	1	1	0.648796	0.648796	0	1	0	0	CorrectCommission	0.117454	0.375652	1
224.083923	0.795876	city	8	1	0.599319	0.599319	0	1	0	0	CorrectCommission	0.155540	0.377912	1
224.879761	0.795791	city	4	1	0.698985	0.698985	0	1	0	0	CorrectCommission	0.394376	0.387713	1
225.675568	0.795832	city	2	1	0.648881	0.648881	0	1	0	0	CorrectCommission	0.117922	0.404023	1
226.471344	0.795714	city	1	1	0.599918	0.599918	0	1	0	0	CorrectCommission	0.152237	0.425269	1
227.267136	0.795870	city	7	1	0.549343	0.549343	0	1	0	0	CorrectCommission	0.431290	0.449391	1
228.062973	0.795793	mountain	2	0	0.000000	0.604429	1	0	0	0	CorrectOmission	0.127346	0.474139	1
228.858780	0.795835	city	3	1	0.599200	0.599200	0	1	0	0	CorrectCommission	0.156197	0.497340	1
229.654602	0.795798	city	5	1	0.367678	0.367678	0	1	0	0	CorrectCommission	1.433637	0.517103	1
230.450378	0.795759	city	3	1	0.900876	0.900876	0	1	0	0	CorrectCommission	1.508325	0.531986	1
231.246307	0.796101	mountain	4	0	0.000000	0.822310	1	0	0	0	CorrectOmission	1.074828	0.541218	1
232.042084	0.795451	city	5	1	0.562078	0.562078	0	1	0	0	CorrectCommission	0.361023	0.544812	1
232.837708	0.795812	city	3	1	0.550279	0.550279	0	1	0	0	CorrectCommission	0.426124	0.543482	1
233.633545	0.795859	city	5	1	0.549338	0.549338	0	1	0	0	CorrectCommission	0.431314	0.538570	1
234.429352	0.795739	city	4	1	0.561167	0.561167	0	1	0	0	CorrectCommission	0.366050	0.531849	1
235.225143	0.795841	city	3	1	0.559486	0.559486	0	1	0	0	CorrectCommission	0.375320	0.525334	1
236.020950	0.795792	city	10	1	0.513682	0.513682	0	1	0	0	CorrectCommission	0.628052	0.521059	1
236.816757	0.795813	city	7	1	0.598968	0.598968	0	1	0	0	CorrectCommission	0.157477	0.520863	1
237.612595	0.795859	city	1	1	0.649639	0.649639	0	1	0	0	CorrectCommission	0.122106	0.526224	1
238.408554	0.796067	city	9	1	0.797748	0.797748	0	1	0	0	CorrectCommission	0.939309	0.538129	1
239.204346	0.795510	city	7	1	0.748708	0.748708	0	1	0	0	CorrectCommission	0.668723	0.556954	1
239.999969	0.795752	city	1	1	0.649653	0.649653	0	1	0	0	CorrectCommission	0.122181	0.582459	1
240.795776	0.795858	city	10	1	0.699328	0.699328	0	1	0	0	CorrectCommission	0.396265	0.613822	1
241.591614	0.795810	city	2	1	0.558584	0.558584	0	1	0	0	CorrectCommission	0.380302	0.649666	1
242.387558	0.796085	city	3	1	0.698431	0.698431	0	1	0	0	CorrectCommission	0.391315	0.688207	1
243.183319	0.795432	city	4	1	0.648731	0.648731	0	1	0	0	CorrectCommission	0.117092	0.727445	1
243.978943	0.795797	city	1	1	0.464922	0.464922	0	1	0	0	CorrectCommission	0.897085	0.765358	1
244.774734	0.795804	city	9	1	1.046884	1.046884	0	1	0	0	CorrectCommission	2.313937	0.800056	1
245.570541	0.795810	city	6	1	0.900510	0.900510	0	1	0	0	CorrectCommission	1.506305	0.829983	1
246.366516	0.796149	city	2	1	0.753287	0.753287	0	1	0	0	CorrectCommission	0.693992	0.854165	0
247.162506	0.795813	city	3	1	0.548799	0.548799	0	1	0	0	CorrectCommission	0.434288	0.872135	0
247.958160	0.795496	city	5	1	0.499137	0.499137	0	1	0	0	CorrectCommission	0.708302	0.883978	0
248.753784	0.795764	city	9	1	0.350096	0.350096	0	1	0	0	CorrectCommission	1.530651	0.890217	0
249.549728	0.796130	city	7	1	0.864595	0.864595	0	1	0	0	CorrectCommission	1.308140	0.891712	0
250.345535	0.795466	city	4	1	0.697962	0.697962	0	1	0	0	CorrectCommission	0.388732	0.889516	0
251.141174	0.795829	mountain	8	0	0.000000	0.736782	1	0	0	0	CorrectOmission	0.602922	0.884733	0
251.937042	0.795910	city	2	1	0.798177	0.798177	0	1	0	0	CorrectCommission	0.941674	0.878326	0
252.732849	0.795695	city	6	1	0.699271	0.699271	0	1	0	0	CorrectCommission	0.395954	0.871056	0
253.528595	0.795779	city	8	1	0.403400	0.403400	0	1	0	0	CorrectCommission	1.236542	0.863454	0
254.324539	0.796126	mountain	4	1	0.305421	0.305421	0	0	1	0	CommissionError	1.777146	0.855787	0
255.120331	0.795451	city	3	1	0.662955	0.662955	0	1	0	0	CorrectCommission	0.195574	0.848157	1
255.916000	0.795898	city	4	1	0.549470	0.549470	0	1	0	0	CorrectCommission	0.430590	0.840645	1
256.711853	0.795780	city	9	1	0.504411	0.504411	0	1	0	0	CorrectCommission	0.679204	0.833278	1
257.507629	0.795812	city	7	1	0.467627	0.467627	0	1	0	0	CorrectCommission	0.882162	0.826193	1
258.303436	0.795780	city	4	1	0.406820	0.406820	0	1	0	0	CorrectCommission	1.217671	0.819698	1
259.099243	0.795817	city	6	1	0.412135	0.412135	0	1	0	0	CorrectCommission	1.188342	0.814277	1
259.895050	0.795825	city	10	1	0.450527	0.450527	0	1	0	0	CorrectCommission	0.976511	0.810569	1
260.690857	0.795750	city	7	1	0.499703	0.499703	0	1	0	0	CorrectCommission	0.705183	0.809308	1
261.486603	0.795796	city	1	1	0.499338	0.499338	0	1	0	0	CorrectCommission	0.707195	0.811134	1
262.282410	0.795773	city	4	1	0.599922	0.599922	0	1	0	0	CorrectCommission	0.152217	0.816388	1
263.078217	0.795881	mountain	1	1	0.465431	0.465431	0	0	1	0	CommissionError	0.894281	0.825090	1
263.874023	0.795725	city	3	1	0.549799	0.549799	0	1	0	0	CorrectCommission	0.428773	0.836717	1
264.669800	0.795782	city	5	1	0.509309	0.509309	0	1	0	0	CorrectCommission	0.652177	0.850297	0
265.465576	0.795813	city	7	1	0.550307	0.550307	0	1	0	0	CorrectCommission	0.425969	0.864387	0
266.261383	0.795815	city	3	1	0.450787	0.450787	0	1	0	0	CorrectCommission	0.975081	0.877295	0
267.057190	0.795787	city	1	1	0.350260	0.350260	0	1	0	0	CorrectCommission	1.529744	0.887246	0
267.852997	0.795839	city	9	1	0.350539	0.350539	0	1	0	0	CorrectCommission	1.528206	0.892695	0
268.648834	0.795805	city	2	1	0.449597	0.449597	0	1	0	0	CorrectCommission	0.981647	0.892558	0
269.444641	0.795824	mountain	2	1	0.450711	0.450711	0	0	1	0	CommissionError	0.975500	0.886370	0
270.240479	0.795828	city	5	1	0.454663	0.454663	0	1	0	0	CorrectCommission	0.953691	0.874372	0
271.036224	0.795698	city	3	1	0.354689	0.354689	0	1	0	0	CorrectCommission	1.505307	0.857502	0
271.832001	0.795812	city	5	1	0.406663	0.406663	0	1	0	0	CorrectCommission	1.218536	0.837246	1
272.627838	0.795876	city	6	1	0.549535	0.549535	0	1	0	0	CorrectCommission	0.430229	0.815559	1
273.423645	0.795770	city	7	1	0.549147	0.549147	0	1	0	0	CorrectCommission	0.432367	0.794507	1
274.219452	0.795825	city	6	1	0.603004	0.603004	0	1	0	0	CorrectCommission	0.135206	0.776025	1
275.015259	0.795808	city	3	1	0.599663	0.599663	0	1	0	0	CorrectCommission	0.153645	0.761691	1
275.811035	0.795741	city	6	1	0.459573	0.459573	0	1	0	0	CorrectCommission	0.926603	0.752565	1
276.606812	0.795815	city	2	1	0.450260	0.450260	0	1	0	0	CorrectCommission	0.977986	0.749091	1
277.402802	0.796137	city	4	1	0.549526	0.549526	0	1	0	0	CorrectCommission	0.430276	0.751135	1
278.198578	0.795442	mountain	6	1	0.399899	0.399899	0	0	1	0	CommissionError	1.255856	0.758069	1
278.994202	0.795808	city	2	1	0.549363	0.549363	0	1	0	0	CorrectCommission	0.431176	0.768818	1
279.790039	0.795866	city	3	1	0.499870	0.499870	0	1	0	0	CorrectCommission	0.704259	0.782112	1
280.585876	0.795784	city	1	1	0.562826	0.562826	0	1	0	0	CorrectCommission	0.356896	0.796530	1
281.381805	0.796099	city	10	1	0.410028	0.410028	0	1	0	0	CorrectCommission	1.199968	0.810745	1
282.177612	0.795501	city	8	1	0.449946	0.449946	0	1	0	0	CorrectCommission	0.979719	0.823539	1
282.973267	0.795804	city	1	1	0.449587	0.449587	0	1	0	0	CorrectCommission	0.981700	0.834004	1
283.769104	0.795841	city	7	1	0.404586	0.404586	0	1	0	0	CorrectCommission	1.229996	0.841526	1
284.564880	0.795723	city	5	1	0.450466	0.450466	0	1	0	0	CorrectCommission	0.976847	0.845783	1
285.360687	0.795877	city	4	1	0.549247	0.549247	0	1	0	0	CorrectCommission	0.431815	0.846770	1
286.156464	0.795714	city	10	1	0.499378	0.499378	0	1	0	0	CorrectCommission	0.706973	0.844763	1
286.952240	0.795817	city	5	1	0.450002	0.450002	0	1	0	0	CorrectCommission	0.979408	0.840190	1
287.748047	0.795829	mountain	10	1	0.350791	0.350791	0	0	1	0	CommissionError	1.526816	0.833580	1
288.543884	0.795853	city	5	1	0.551380	0.551380	0	1	0	0	CorrectCommission	0.420051	0.825455	1
289.339722	0.795765	mountain	4	1	0.458691	0.458691	0	0	1	0	CommissionError	0.931470	0.816358	1
290.135498	0.795793	city	8	1	0.549870	0.549870	0	1	0	0	CorrectCommission	0.428382	0.806702	1
290.931274	0.795788	city	7	1	0.500369	0.500369	0	1	0	0	CorrectCommission	0.701505	0.796866	1
291.727081	0.795807	city	8	1	0.454523	0.454523	0	1	0	0	CorrectCommission	0.954462	0.787098	1
292.523041	0.796109	city	9	1	0.500064	0.500064	0	1	0	0	CorrectCommission	0.703191	0.777614	1
293.319000	0.795822	city	6	1	0.504099	0.504099	0	1	0	0	CorrectCommission	0.680927	0.768619	1
294.114807	0.795801	city	10	1	0.399531	0.399531	0	1	0	0	CorrectCommission	1.257887	0.760378	1
294.910431	0.795431	city	4	1	0.549578	0.549578	0	1	0	0	CorrectCommission	0.429990	0.753326	1
295.706055	0.795804	city	9	1	0.503407	0.503407	0	1	0	0	CorrectCommission	0.684743	0.748147	1
296.501862	0.795864	city	5	1	0.449895	0.449895	0	1	0	0	CorrectCommission	0.979998	0.745779	1
297.297668	0.795744	city	9	1	0.500479	0.500479	0	1	0	0	CorrectCommission	0.700897	0.747282	1
298.093445	0.795801	city	8	1	0.500454	0.500454	0	1	0	0	CorrectCommission	0.701036	0.753935	1
298.889313	0.795897	city	5	1	0.499754	0.499754	0	1	0	0	CorrectCommission	0.704897	0.766873	1
299.685150	0.795787	city	4	1	0.553854	0.553854	0	1	0	0	CorrectCommission	0.406400	0.787020	1
300.480927	0.795751	city	7	1	0.549923	0.549923	0	1	0	0	CorrectCommission	0.428086	0.814936	1
301.276703	0.795817	city	1	1	0.466171	0.466171	0	1	0	0	CorrectCommission	0.890194	0.850552	0
302.072479	0.795769	city	9	1	0.418939	0.418939	0	1	0	0	CorrectCommission	1.150803	0.893046	0
302.868286	0.795822	city	3	1	0.499609	0.499609	0	1	0	0	CorrectCommission	0.705699	0.940847	0
303.664124	0.795858	city	2	1	0.598825	0.598825	0	1	0	0	CorrectCommission	0.158268	0.991667	0
304.460083	0.796065	city	9	1	0.651415	0.651415	0	1	0	0	CorrectCommission	0.131901	1.042714	0
305.255859	0.795477	city	4	1	0.560038	0.560038	0	1	0	0	CorrectCommission	0.372278	1.090818	0
306.051514	0.795819	city	8	1	1.057100	1.057100	0	1	0	0	CorrectCommission	2.370303	1.132865	0
306.847290	0.795751	city	1	1	1.096995	1.096995	0	1	0	0	CorrectCommission	2.590427	1.166054	0
307.643097	0.795879	city	8	1	1.146394	1.146394	0	1	0	0	CorrectCommission	2.862992	1.188415	0
308.438934	0.795791	city	5	1	0.947640	0.947640	0	1	0	0	CorrectCommission	1.766348	1.198865	0
309.234894	0.796086	mountain	1	0	0.000000	0.739329	1	0	0	0	CorrectOmission	0.616976	1.197384	0
310.030701	0.795540	city	7	1	0.564988	0.564988	0	1	0	0	CorrectCommission	0.344965	1.184935	0
310.826324	0.795711	city	2	1	0.468143	0.468143	0	1	0	0	CorrectCommission	0.879315	1.163316	0
311.622253	0.796154	city	6	1	0.997888	0.997888	0	1	0	0	CorrectCommission	2.043597	1.134824	0
312.418091	0.795542	city	7	1	0.652889	0.652889	0	1	0	0	CorrectCommission	0.140034	1.102034	0
313.213745	0.795763	city	8	1	1.047491	1.047491	0	1	0	0	CorrectCommission	2.317287	1.067651	0
314.009552	0.795828	city	10	1	0.702818	0.702818	0	1	0	0	CorrectCommission	0.415524	1.033995	0
314.805359	0.795797	city	2	1	0.599063	0.599063	0	1	0	0	CorrectCommission	0.156954	1.003185	0
315.601135	0.795780	city	3	1	0.950082	0.950082	0	1	0	0	CorrectCommission	1.779821	0.976716	0
316.396912	0.795747	mountain	4	0	0.000000	0.860687	1	0	0	0	CorrectOmission	1.286576	0.955403	0
317.192688	0.795799	city	8	1	0.653070	0.653070	0	1	0	0	CorrectCommission	0.141033	0.939554	0
317.988495	0.795824	city	6	1	0.649424	0.649424	0	1	0	0	CorrectCommission	0.120916	0.928926	0
318.784332	0.795855	city	9	1	0.599106	0.599106	0	1	0	0	CorrectCommission	0.156717	0.922778	0
319.580170	0.795814	city	2	1	1.051103	1.051103	0	1	0	0	CorrectCommission	2.337214	0.920032	0
320.375946	0.795713	city	1	1	0.854402	0.854402	0	1	0	0	CorrectCommission	1.251902	0.919362	0
321.171722	0.795884	city	9	1	0.664134	0.664134	0	1	0	0	CorrectCommission	0.202080	0.919647	0
321.967590	0.795812	city	2	1	0.549984	0.549984	0	1	0	0	CorrectCommission	0.427752	0.919887	0
322.763458	0.795975	city	8	1	1.003275	1.003275	0	1	0	0	CorrectCommission	2.073317	0.919347	0
323.559418	0.795894	city	1	1	0.847360	0.847360	0	1	0	0	CorrectCommission	1.213043	0.917567	0
324.355255	0.795817	city	5	1	0.747942	0.747942	0	1	0	0	CorrectCommission	0.664499	0.914586	0
325.151062	0.795783	city	9	1	0.552134	0.552134	0	1	0	0	CorrectCommission	0.415888	0.910745	0
325.946716	0.795541	city	1	1	0.948113	0.948113	0	1	0	0	CorrectCommission	1.768956	0.906633	0
326.742371	0.795751	city	7	1	0.797917	0.797917	0	1	0	0	CorrectCommission	0.940241	0.902899	0
327.538116	0.795756	mountain	6	0	0.000000	0.651329	1	0	0	0	CorrectOmission	0.131429	0.900240	0
328.333923	0.795865	city	10	1	0.553462	0.553462	0	1	0	0	CorrectCommission	0.408561	0.899214	0
329.129761	0.795812	city	5	1	0.549431	0.549431	0	1	0	0	CorrectCommission	0.430804	0.900031	0
329.925568	0.795757	city	1	1	0.996752	0.996752	0	1	0	0	CorrectCommission	2.037328	0.902700	0
330.721344	0.795839	city	8	1	0.810959	0.810959	0	1	0	0	CorrectCommission	1.012199	0.906836	0
331.517181	0.795795	city	7	1	0.649683	0.649683	0	1	0	0	CorrectCommission	0.122344	0.912023	0
332.312958	0.795800	mountain	3	1	0.454469	0.454469	0	0	1	0	CommissionError	0.954762	0.917749	0
333.108795	0.795837	city	8	1	0.450374	0.450374	0	1	0	0	CorrectCommission	0.977357	0.923419	0
333.904602	0.795795	city	10	1	0.898372	0.898372	0	1	0	0	CorrectCommission	1.494509	0.928556	0
334.700378	0.795744	city	6	1	0.798810	0.798810	0	1	0	0	CorrectCommission	0.945166	0.932924	0
335.496185	0.795853	city	10	1	0.598958	0.598958	0	1	0	0	CorrectCommission	0.157532	0.936482	0
336.291992	0.795759	city	3	1	1.058591	1.058591	0	1	0	0	CorrectCommission	2.378528	0.939413	0
337.087738	0.795778	city	1	1	0.814618	0.814618	0	1	0	0	CorrectCommission	1.032390	0.941903	0
337.883728	0.796163	mountain	2	0	0.000000	0.700274	1	0	0	0	CorrectOmission	0.401484	0.944296	0
338.679504	0.795433	city	6	1	0.615199	0.615199	0	1	0	0	CorrectCommission	0.067920	0.946878	0
339.475311	0.796155	city	2	1	0.459039	0.459039	0	1	0	0	CorrectCommission	0.929549	0.949825	0
340.271118	0.795457	city	7	1	0.449432	0.449432	0	1	0	0	CorrectCommission	0.982555	0.953099	0
341.066772	0.795864	city	9	1	0.454063	0.454063	0	1	0	0	CorrectCommission	0.957006	0.956537	0
341.862610	0.795824	city	5	1	0.463777	0.463777	0	1	0	0	CorrectCommission	0.903403	0.959877	0
342.658569	0.796067	city	4	1	0.404844	0.404844	0	1	0	0	CorrectCommission	1.228575	0.962863	0
343.454346	0.795462	city	7	1	1.013007	1.013007	0	1	0	0	CorrectCommission	2.127014	0.965226	0
344.249969	0.795818	city	3	1	0.804814	0.804814	0	1	0	0	CorrectCommission	0.978292	0.966817	0
345.045807	0.795856	city	1	1	0.699665	0.699665	0	1	0	0	CorrectCommission	0.398127	0.967673	0
345.841766	0.796071	city	7	1	0.599247	0.599247	0	1	0	0	CorrectCommission	0.155938	0.967884	0
346.637573	0.795526	city	10	1	0.409361	0.409361	0	1	0	0	CorrectCommission	1.203650	0.967582	0
347.433228	0.795811	city	5	1	0.406803	0.406803	0	1	0	0	CorrectCommission	1.217765	0.966765	0
348.229004	0.795751	city	3	1	0.850195	0.850195	0	1	0	0	CorrectCommission	1.228689	0.965391	0
349.024780	0.795794	city	5	1	0.599341	0.599341	0	1	0	0	CorrectCommission	0.155417	0.963306	0
349.820618	0.795845	city	1	1	0.953998	0.953998	0	1	0	0	CorrectCommission	1.801431	0.960236	0
350.616425	0.795769	city	8	1	0.752374	0.752374	0	1	0	0	CorrectCommission	0.688952	0.955740	0
351.412354	0.796111	city	3	1	0.500878	0.500878	0	1	0	0	CorrectCommission	0.698699	0.949482	0
352.208160	0.795486	city	6	1	0.958682	0.958682	0	1	0	0	CorrectCommission	1.827272	0.941164	0
353.003967	0.796114	city	1	1	0.715106	0.715106	0	1	0	0	CorrectCommission	0.483321	0.930662	0
353.799774	0.795531	city	6	1	0.600271	0.600271	0	1	0	0	CorrectCommission	0.150289	0.918168	0
354.595459	0.795820	city	2	1	0.459406	0.459406	0	1	0	0	CorrectCommission	0.927522	0.904230	0
355.391388	0.796063	city	6	1	1.046775	1.046775	0	1	0	0	CorrectCommission	2.313335	0.889688	0
356.187195	0.795525	mountain	3	0	0.000000	0.897589	1	0	0	0	CorrectOmission	1.490188	0.875655	0
356.982971	0.796049	city	6	1	0.549144	0.549144	0	1	0	0	CorrectCommission	0.432383	0.863423	0
357.778778	0.795545	mountain	5	0	0.000000	0.538738	1	0	0	0	CorrectOmission	0.489803	0.854237	0
358.574402	0.795733	city	10	1	0.608383	0.608383	0	1	0	0	CorrectCommission	0.105529	0.849051	0
359.370361	0.796137	mountain	4	1	0.500095	0.500095	0	0	1	0	CommissionError	0.703020	0.848405	0
360.166138	0.795448	city	4	1	0.699114	0.699114	0	1	0	0	CorrectCommission	0.395088	0.852224	0
360.961792	0.795848	city	2	1	0.549637	0.549637	0	1	0	0	CorrectCommission	0.429667	0.859838	0
361.757782	0.796125	city	1	1	0.451049	0.451049	0	1	0	0	CorrectCommission	0.973633	0.870131	0
362.553589	0.795490	city	9	1	0.453595	0.453595	0	1	0	0	CorrectCommission	0.959585	0.881681	0
363.349243	0.795823	city	3	1	0.409351	0.409351	0	1	0	0	CorrectCommission	1.203704	0.893053	0
364.145050	0.795815	city	1	1	0.400129	0.400129	0	1	0	0	CorrectCommission	1.254591	0.903015	0
364.940857	0.795762	city	6	1	0.450331	0.450331	0	1	0	0	CorrectCommission	0.977594	0.910810	0
365.736603	0.795752	city	3	1	0.414843	0.414843	0	1	0	0	CorrectCommission	1.173400	0.916196	0
366.532379	0.795808	city	2	1	1.015571	1.015571	0	1	0	0	CorrectCommission	2.141162	0.919515	0
367.328217	0.795861	city	6	1	0.847884	0.847884	0	1	0	0	CorrectCommission	1.215937	0.921462	0
368.124054	0.795819	city	10	1	0.611238	0.611238	0	1	0	0	CorrectCommission	0.089776	0.923044	0
368.919830	0.795731	city	4	1	0.599664	0.599664	0	1	0	0	CorrectCommission	0.153635	0.925207	0
369.715607	0.795804	city	5	1	0.499499	0.499499	0	1	0	0	CorrectCommission	0.706304	0.928529	0
370.511444	0.795865	city	1	1	0.599951	0.599951	0	1	0	0	CorrectCommission	0.152056	0.933105	0
371.307281	0.795805	city	10	1	0.516298	0.516298	0	1	0	0	CorrectCommission	0.613617	0.938530	0
372.103058	0.795793	city	7	1	0.503455	0.503455	0	1	0	0	CorrectCommission	0.684479	0.943897	0
372.898834	0.795760	city	2	1	0.412372	0.412372	0	1	0	0	CorrectCommission	1.187035	0.947963	0
373.694641	0.795835	city	6	1	1.000982	1.000982	0	1	0	0	CorrectCommission	2.060669	0.949451	0
374.490479	0.795824	mountain	10	0	0.000000	1.091627	1	0	0	0	CorrectOmission	2.560810	0.947348	0
375.286285	0.795782	mountain	9	0	0.000000	0.901705	1	0	0	0	CorrectOmission	1.512896	0.941105	0
376.082062	0.795793	city	8	1	0.648611	0.648611	0	1	0	0	CorrectCommission	0.116434	0.930763	0
376.877899	0.795845	city	9	1	0.549745	0.549745	0	1	0	0	CorrectCommission	0.429069	0.916897	0
377.673706	0.795776	city	4	1	0.558856	0.558856	0	1	0	0	CorrectCommission	0.378802	0.900497	0
378.469452	0.795733	city	8	1	0.599436	0.599436	0	1	0	0	CorrectCommission	0.154894	0.882880	0
379.265228	0.795853	city	1	1	0.450676	0.450676	0	1	0	0	CorrectCommission	0.975691	0.865457	0
380.061066	0.795802	city	6	1	0.997824	0.997824	0	1	0	0	CorrectCommission	2.043241	0.849532	0
380.856873	0.795790	city	9	1	0.765510	0.765510	0	1	0	0	CorrectCommission	0.761431	0.836214	1
381.652679	0.795842	mountain	7	0	0.000000	0.710357	1	0	0	0	CorrectOmission	0.457121	0.826436	1
382.448486	0.795765	city	2	1	0.749065	0.749065	0	1	0	0	CorrectCommission	0.670695	0.820790	1
383.244293	0.795842	city	4	1	0.798333	0.798333	0	1	0	0	CorrectCommission	0.942535	0.819507	1
384.040100	0.795796	city	7	1	0.653646	0.653646	0	1	0	0	CorrectCommission	0.144214	0.822448	1
384.835876	0.795762	city	1	1	0.500410	0.500410	0	1	0	0	CorrectCommission	0.701280	0.829227	1
385.631683	0.795845	city	8	1	0.500459	0.500459	0	1	0	0	CorrectCommission	0.701011	0.839164	1
386.427460	0.795714	city	1	1	0.450610	0.450610	0	1	0	0	CorrectCommission	0.976053	0.851382	0
387.223267	0.795887	city	7	1	0.947929	0.947929	0	1	0	0	CorrectCommission	1.767944	0.864846	0
388.019104	0.795807	city	5	1	0.761181	0.761181	0	1	0	0	CorrectCommission	0.737545	0.878455	0
388.814911	0.795768	city	7	1	0.648732	0.648732	0	1	0	0	CorrectCommission	0.117101	0.891184	0
389.610687	0.795827	city	2	1	0.500040	0.500040	0	1	0	0	CorrectCommission	0.703323	0.902074	0
390.406494	0.795730	city	3	1	0.947273	0.947273	0	1	0	0	CorrectCommission	1.764322	0.910324	0
391.202271	0.795880	city	5	1	0.797956	0.797956	0	1	0	0	CorrectCommission	0.940457	0.915334	0
391.998138	0.795809	city	8	1	0.561595	0.561595	0	1	0	0	CorrectCommission	0.363684	0.916885	0
392.793915	0.795745	city	3	1	0.453337	0.453337	0	1	0	0	CorrectCommission	0.961007	0.915184	0
393.589691	0.795830	city	8	1	1.000752	1.000752	0	1	0	0	CorrectCommission	2.059398	0.910806	0
394.385498	0.795762	city	10	1	0.901785	0.901785	0	1	0	0	CorrectCommission	1.513339	0.904620	0
395.181274	0.795813	city	3	1	0.699394	0.699394	0	1	0	0	CorrectCommission	0.396630	0.897790	0
395.977081	0.795807	city	2	1	0.648995	0.648995	0	1	0	0	CorrectCommission	0.118550	0.891715	0
396.772919	0.795838	city	3	1	0.499626	0.499626	0	1	0	0	CorrectCommission	0.705605	0.887714	0
397.568726	0.795762	mountain	8	1	0.415212	0.415212	0	0	1	0	CommissionError	1.171367	0.886892	0
398.364471	0.795770	city	4	1	0.748792	0.748792	0	1	0	0	CorrectCommission	0.669186	0.890116	0
399.160278	0.795854	city	2	1	0.549875	0.549875	0	1	0	0	CorrectCommission	0.428355	0.897933	0
399.956116	0.795821	city	10	1	0.499631	0.499631	0	1	0	0	CorrectCommission	0.705576	0.910504	0
400.751953	0.795821	city	3	1	0.450294	0.450294	0	1	0	0	CorrectCommission	0.977797	0.927522	0
401.547729	0.795770	city	8	1	0.466685	0.466685	0	1	0	0	CorrectCommission	0.887363	0.948368	0
402.343658	0.796085	city	6	1	0.406767	0.406767	0	1	0	0	CorrectCommission	1.217961	0.972147	0
403.139465	0.795508	city	1	1	0.400099	0.400099	0	1	0	0	CorrectCommission	1.254756	0.997741	0
403.935150	0.795836	city	10	1	0.351174	0.351174	0	1	0	0	CorrectCommission	1.524701	1.023906	0
404.730896	0.795706	city	9	1	0.500258	0.500258	0	1	0	0	CorrectCommission	0.702121	1.049258	0
405.526703	0.795871	city	10	1	0.449930	0.449930	0	1	0	0	CorrectCommission	0.979810	1.072468	0
406.322540	0.795802	city	4	1	0.599423	0.599423	0	1	0	0	CorrectCommission	0.154966	1.092257	0
407.118347	0.795837	city	8	1	0.553267	0.553267	0	1	0	0	CorrectCommission	0.409639	1.107558	0
407.914124	0.795719	city	3	1	1.047230	1.047230	0	1	0	0	CorrectCommission	2.315844	1.117475	0
408.709930	0.795865	mountain	3	0	0.000000	1.076095	1	0	0	0	CorrectOmission	2.475109	1.121425	0
409.505737	0.795793	city	6	1	0.854990	0.854990	0	1	0	0	CorrectCommission	1.255143	1.119365	0
410.301514	0.795717	city	9	1	0.599042	0.599042	0	1	0	0	CorrectCommission	0.157071	1.111747	0
411.097321	0.795891	city	1	1	1.060953	1.060953	0	1	0	0	CorrectCommission	2.391564	1.099447	0
411.893158	0.795817	city	8	1	0.851685	0.851685	0	1	0	0	CorrectCommission	1.236910	1.083627	0
412.688965	0.795757	city	1	1	0.710745	0.710745	0	1	0	0	CorrectCommission	0.459262	1.065741	0
413.484741	0.795838	city	10	1	0.559969	0.559969	0	1	0	0	CorrectCommission	0.372659	1.047237	0
414.280548	0.795755	city	3	1	0.500383	0.500383	0	1	0	0	CorrectCommission	0.701428	1.029375	0
415.076294	0.795756	city	9	1	0.947606	0.947606	0	1	0	0	CorrectCommission	1.766162	1.013103	0
415.872101	0.795833	city	8	1	0.698699	0.698699	0	1	0	0	CorrectCommission	0.392796	0.998937	0
416.667938	0.795862	city	2	1	0.549643	0.549643	0	1	0	0	CorrectCommission	0.429632	0.987074	0
417.463776	0.795805	city	9	1	0.401278	0.401278	0	1	0	0	CorrectCommission	1.248249	0.977306	0
418.259552	0.795735	city	1	1	0.898277	0.898277	0	1	0	0	CorrectCommission	1.493983	0.969143	0
419.055298	0.795785	city	4	1	0.898116	0.898116	0	1	0	0	CorrectCommission	1.493097	0.961963	0
419.851135	0.795889	city	2	1	0.698650	0.698650	0	1	0	0	CorrectCommission	0.392527	0.955098	0
420.646942	0.795707	city	3	1	0.553360	0.553360	0	1	0	0	CorrectCommission	0.409122	0.947981	0
421.442719	0.795848	city	2	1	0.411954	0.411954	0	1	0	0	CorrectCommission	1.189345	0.940178	0
422.238556	0.795839	city	4	1	0.997386	0.997386	0	1	0	0	CorrectCommission	2.040825	0.931379	0
423.034332	0.795729	city	2	1	0.798110	0.798110	0	1	0	0	CorrectCommission	0.941304	0.921410	0
423.830139	0.795883	city	7	1	0.648992	0.648992	0	1	0	0	CorrectCommission	0.118534	0.910301	0
424.625977	0.795779	mountain	2	1	0.500092	0.500092	0	0	1	0	CommissionError	0.703033	0.898174	0
425.421753	0.795740	city	2	1	0.551477	0.551477	0	1	0	0	CorrectCommission	0.419516	0.885215	0
426.217499	0.795792	city	3	1	0.507505	0.507505	0	1	0	0	CorrectCommission	0.662132	0.871685	0
427.013336	0.795843	city	4	1	1.046867	1.046867	0	1	0	0	CorrectCommission	2.313839	0.857952	0
427.809174	0.795840	city	1	1	0.797973	0.797973	0	1	0	0	CorrectCommission	0.940549	0.844547	1
428.604950	0.795740	city	5	1	0.599851	0.599851	0	1	0	0	CorrectCommission	0.152607	0.832113	1
429.400757	0.795858	city	6	1	0.500484	0.500484	0	1	0	0	CorrectCommission	0.700870	0.821409	1
430.196564	0.795731	city	8	1	0.913865	0.913865	0	1	0	0	CorrectCommission	1.579990	0.813210	1
430.992371	0.795882	city	7	1	0.757733	0.757733	0	1	0	0	CorrectCommission	0.718520	0.808182	1
431.788208	0.795797	mountain	4	0	0.000000	0.645371	1	0	0	0	CorrectOmission	0.098553	0.806878	1
432.583984	0.795773	city	10	1	0.551382	0.551382	0	1	0	0	CorrectCommission	0.420036	0.809506	1
433.379791	0.795839	city	3	1	0.450371	0.450371	0	1	0	0	CorrectCommission	0.977374	0.815884	1
434.175751	0.796057	city	5	1	0.749151	0.749151	0	1	0	0	CorrectCommission	0.671171	0.825445	1
434.971527	0.795523	city	8	1	0.651680	0.651680	0	1	0	0	CorrectCommission	0.133363	0.837288	1
435.767212	0.795829	city	1	1	0.599926	0.599926	0	1	0	0	CorrectCommission	0.152193	0.850287	0
436.563171	0.796078	city	3	1	1.046494	1.046494	0	1	0	0	CorrectCommission	2.311782	0.863240	0
437.358948	0.795531	city	4	1	0.911274	0.911274	0	1	0	0	CorrectCommission	1.565694	0.875074	0
438.154602	0.795737	city	1	1	0.852688	0.852688	0	1	0	0	CorrectCommission	1.242442	0.885158	0
438.950409	0.795868	city	2	1	0.703408	0.703408	0	1	0	0	CorrectCommission	0.418778	0.893347	0
439.746216	0.795768	city	3	1	0.651022	0.651022	0	1	0	0	CorrectCommission	0.129735	0.899973	0
440.541992	0.795811	city	8	1	0.996679	0.996679	0	1	0	0	CorrectCommission	2.036924	0.905840	0
441.337830	0.795817	city	2	1	0.757962	0.757962	0	1	0	0	CorrectCommission	0.719782	0.912005	0
442.133606	0.795787	city	7	1	0.599509	0.599509	0	1	0	0	CorrectCommission	0.154493	0.919771	0
442.929413	0.795825	city	4	1	0.965907	0.965907	0	1	0	0	CorrectCommission	1.867139	0.930355	0
443.725220	0.795770	city	2	1	0.712916	0.712916	0	1	0	0	CorrectCommission	0.471240	0.944584	0
444.521027	0.795836	city	10	1	0.550187	0.550187	0	1	0	0	CorrectCommission	0.426633	0.962845	0
445.316803	0.795707	city	5	1	0.802237	0.802237	0	1	0	0	CorrectCommission	0.964074	0.984951	0
446.112579	0.795843	city	10	1	0.599024	0.599024	0	1	0	0	CorrectCommission	0.157168	1.010099	0
446.908417	0.795829	city	2	1	0.499599	0.499599	0	1	0	0	CorrectCommission	0.705756	1.037074	0
447.704193	0.795767	city	8	1	0.401061	0.401061	0	1	0	0	CorrectCommission	1.249446	1.064243	0
448.500000	0.795812	city	4	1	0.399927	0.399927	0	1	0	0	CorrectCommission	1.255704	1.089898	0
449.295776	0.795753	city	9	1	1.046922	1.046922	0	1	0	0	CorrectCommission	2.314144	1.112535	0
450.091583	0.795836	city	10	1	1.051752	1.051752	0	1	0	0	CorrectCommission	2.340795	1.131014	0
450.887390	0.795770	city	6	1	0.861091	0.861091	0	1	0	0	CorrectCommission	1.288810	1.144699	0
451.683167	0.795794	city	3	1	0.664666	0.664666	0	1	0	0	CorrectCommission	0.205017	1.153496	0
452.479126	0.796167	city	7	1	0.552454	0.552454	0	1	0	0	CorrectCommission	0.414123	1.157803	0
453.274963	0.795505	city	9	1	0.499408	0.499408	0	1	0	0	CorrectCommission	0.706806	1.158328	0
454.070618	0.795796	city	8	1	1.067344	1.067344	0	1	0	0	CorrectCommission	2.426828	1.155903	0
454.866425	0.795803	city	1	1	0.897640	0.897640	0	1	0	0	CorrectCommission	1.490469	1.151327	0
455.662201	0.795763	city	2	1	0.798217	0.798217	0	1	0	0	CorrectCommission	0.941897	1.145325	0
456.458038	0.795873	city	7	1	0.605901	0.605901	0	1	0	0	CorrectCommission	0.119224	1.138388	0
457.253815	0.795707	city	3	1	0.449874	0.449874	0	1	0	0	CorrectCommission	0.980117	1.130734	0
458.049622	0.795894	city	10	1	0.997785	0.997785	0	1	0	0	CorrectCommission	2.043028	1.122183	0
458.845459	0.795810	city	4	1	0.897369	0.897369	0	1	0	0	CorrectCommission	1.488972	1.112351	0
459.641235	0.795731	city	1	1	0.698201	0.698201	0	1	0	0	CorrectCommission	0.390051	1.100786	0
460.437012	0.795830	city	3	1	0.798618	0.798618	0	1	0	0	CorrectCommission	0.944106	1.086929	0
461.232819	0.795770	city	4	1	0.500417	0.500417	0	1	0	0	CorrectCommission	0.701239	1.070283	0
462.028625	0.795812	city	7	1	1.046843	1.046843	0	1	0	0	CorrectCommission	2.313709	1.050512	0
462.824432	0.795819	city	9	1	0.897683	0.897683	0	1	0	0	CorrectCommission	1.490706	1.027376	0
463.620209	0.795757	city	5	1	0.699091	0.699091	0	1	0	0	CorrectCommission	0.394961	1.000962	0
464.415985	0.795803	city	8	1	0.551553	0.551553	0	1	0	0	CorrectCommission	0.419094	0.971560	0
465.211823	0.795882	city	10	1	0.960531	0.960531	0	1	0	0	CorrectCommission	1.837475	0.939588	0
466.007660	0.795756	mountain	1	0	0.000000	0.880815	1	0	0	0	CorrectOmission	1.397636	0.905526	0
466.803436	0.795798	city	4	1	0.648568	0.648568	0	1	0	0	CorrectCommission	0.116196	0.869936	0
467.599243	0.795805	city	9	1	0.599954	0.599954	0	1	0	0	CorrectCommission	0.152035	0.833384	1
468.395050	0.795854	city	4	1	0.516338	0.516338	0	1	0	0	CorrectCommission	0.613394	0.796417	1
469.190887	0.795800	city	7	1	0.401323	0.401323	0	1	0	0	CorrectCommission	1.247998	0.759505	1
469.986664	0.795722	mountain	5	1	0.400236	0.400236	0	0	1	0	CommissionError	1.253999	0.723070	1
470.782532	0.796043	city	8	1	0.500142	0.500142	0	1	0	0	CorrectCommission	0.702757	0.687569	1
471.578308	0.795531	city	2	1	0.449518	0.449518	0	1	0	0	CorrectCommission	0.982081	0.653475	1
472.374023	0.795903	city	4	1	0.549493	0.549493	0	1	0	0	CorrectCommission	0.430462	0.621313	1
473.169891	0.795805	city	6	1	0.613598	0.613598	0	1	0	0	CorrectCommission	0.076754	0.591701	1
473.965668	0.795723	city	7	1	0.599644	0.599644	0	1	0	0	CorrectCommission	0.153747	0.565309	1
474.761444	0.795871	mountain	3	1	0.549943	0.549943	0	0	1	0	CommissionError	0.427977	0.542785	1
475.557251	0.795718	city	2	1	0.650164	0.650164	0	1	0	0	CorrectCommission	0.125002	0.524834	1
476.353058	0.795904	city	5	1	0.848264	0.848264	0	1	0	0	CorrectCommission	1.218034	0.512191	1
477.148865	0.795705	city	1	1	0.798477	0.798477	0	1	0	0	CorrectCommission	0.943327	0.505572	1
477.944641	0.795871	city	2	1	0.559294	0.559294	0	1	0	0	CorrectCommission	0.376385	0.505684	1
478.740479	0.795791	city	3	1	0.648761	0.648761	0	1	0	0	CorrectCommission	0.117262	0.513198	1
479.536255	0.795741	city	1	1	0.648722	0.648722	0	1	0	0	CorrectCommission	0.117043	0.528594	1
480.332031	0.795795	city	5	1	0.707334	0.707334	0	1	0	0	CorrectCommission	0.440443	0.552160	1
481.127808	0.795811	city	1	1	0.653867	0.653867	0	1	0	0	CorrectCommission	0.145432	0.583922	1
481.923645	0.795838	city	5	1	0.648659	0.648659	0	1	0	0	CorrectCommission	0.116694	0.623638	1
482.719452	0.795789	city	2	1	0.609143	0.609143	0	1	0	0	CorrectCommission	0.101339	0.670754	1
483.515289	0.795852	city	1	1	1.003585	1.003585	0	1	0	0	CorrectCommission	2.075028	0.724434	1
484.311096	0.795808	city	10	1	0.798166	0.798166	0	1	0	0	CorrectCommission	0.941615	0.783578	1
485.106903	0.795804	city	3	1	0.667220	0.667220	0	1	0	0	CorrectCommission	0.219110	0.847009	1
485.902710	0.795806	city	10	1	0.549509	0.549509	0	1	0	0	CorrectCommission	0.430373	0.913398	0
486.698486	0.795737	city	2	1	0.449663	0.449663	0	1	0	0	CorrectCommission	0.981281	0.981281	0
