onset	duration	trial_type	image_type	Press	ReactionTime	ReactionTime_Interpolated	CorrectOmission	CorrectCommission	CommissionError	OmissionError	response_type	nonsmoothVarianceTimeCourse	VarianceTimeCourse	In_the_Zone
8.421689	0.795840	city	1	1	0.816395	0.816395	0	1	0	0	CorrectCommission	0.501924	0.501924	1
9.217495	0.795772	city	3	1	0.848009	0.848009	0	1	0	0	CorrectCommission	0.787381	0.519489	1
10.013300	0.795838	city	4	1	0.753038	0.753038	0	1	0	0	CorrectCommission	0.070154	0.534993	1
10.809114	0.795790	city	7	1	0.747973	0.747973	0	1	0	0	CorrectCommission	0.115887	0.546599	1
11.604890	0.795763	city	9	1	0.648758	0.648758	0	1	0	0	CorrectCommission	1.011737	0.552791	1
12.400827	0.796112	city	7	1	0.600130	0.600130	0	1	0	0	CorrectCommission	1.450822	0.552544	1
13.196609	0.795452	city	10	1	0.667396	0.667396	0	1	0	0	CorrectCommission	0.843451	0.545466	1
13.992264	0.795858	city	3	1	0.648937	0.648937	0	1	0	0	CorrectCommission	1.010124	0.531829	1
14.788066	0.795747	city	6	1	0.754148	0.754148	0	1	0	0	CorrectCommission	0.060132	0.512560	1
15.584016	0.796152	city	8	1	0.698418	0.698418	0	1	0	0	CorrectCommission	0.563343	0.489168	1
16.379816	0.795447	city	7	1	0.698946	0.698946	0	1	0	0	CorrectCommission	0.558578	0.463549	1
17.175617	0.796157	city	2	1	0.798544	0.798544	0	1	0	0	CorrectCommission	0.340737	0.437871	1
17.971596	0.795798	city	7	1	0.811865	0.811865	0	1	0	0	CorrectCommission	0.461014	0.414318	1
18.767363	0.795738	city	5	1	0.749871	0.749871	0	1	0	0	CorrectCommission	0.098755	0.394886	1
19.563023	0.795581	city	8	1	0.747899	0.747899	0	1	0	0	CorrectCommission	0.116553	0.381178	1
20.358702	0.795777	city	2	1	0.748721	0.748721	0	1	0	0	CorrectCommission	0.109137	0.374273	1
21.154510	0.795837	city	6	1	0.749482	0.749482	0	1	0	0	CorrectCommission	0.102262	0.374605	1
21.950335	0.795814	city	2	1	0.747928	0.747928	0	1	0	0	CorrectCommission	0.116295	0.382011	1
22.746122	0.795761	city	5	1	0.749508	0.749508	0	1	0	0	CorrectCommission	0.102033	0.395726	1
23.541903	0.795797	city	6	1	0.850849	0.850849	0	1	0	0	CorrectCommission	0.813022	0.414479	1
24.337845	0.796091	city	8	1	0.798451	0.798451	0	1	0	0	CorrectCommission	0.339893	0.436670	1
25.133657	0.795534	city	3	1	0.704764	0.704764	0	1	0	0	CorrectCommission	0.506042	0.460669	1
25.929327	0.795805	city	8	1	0.748069	0.748069	0	1	0	0	CorrectCommission	0.115023	0.484877	1
26.725126	0.795793	city	10	1	0.698549	0.698549	0	1	0	0	CorrectCommission	0.562162	0.508002	1
27.520937	0.795827	city	6	1	0.897463	0.897463	0	1	0	0	CorrectCommission	1.233918	0.529147	1
28.316750	0.795801	city	10	1	0.598869	0.598869	0	1	0	0	CorrectCommission	1.462205	0.547867	1
29.112543	0.795786	city	2	1	0.757362	0.757362	0	1	0	0	CorrectCommission	0.031110	0.564210	1
29.908337	0.795798	city	8	1	0.847763	0.847763	0	1	0	0	CorrectCommission	0.785155	0.578699	1
30.704126	0.795783	city	10	1	0.751061	0.751061	0	1	0	0	CorrectCommission	0.088002	0.592073	1
31.499924	0.795812	city	4	1	0.748312	0.748312	0	1	0	0	CorrectCommission	0.112828	0.605245	1
32.295731	0.795803	city	8	1	0.648789	0.648789	0	1	0	0	CorrectCommission	1.011459	0.619102	1
33.091526	0.795786	city	2	1	0.700034	0.700034	0	1	0	0	CorrectCommission	0.548748	0.634306	1
33.887318	0.795794	city	9	1	0.848380	0.848380	0	1	0	0	CorrectCommission	0.790731	0.651219	1
34.683094	0.795762	city	1	1	0.698269	0.698269	0	1	0	0	CorrectCommission	0.564684	0.669810	1
35.479057	0.796164	city	3	1	0.710341	0.710341	0	1	0	0	CorrectCommission	0.455684	0.689653	1
36.274853	0.795429	city	2	1	0.747843	0.747843	0	1	0	0	CorrectCommission	0.117061	0.709973	0
37.070488	0.795838	mountain	10	1	0.897666	0.897666	0	0	1	0	CommissionError	1.235747	0.729688	0
37.866333	0.795857	city	4	1	0.897521	0.897521	0	1	0	0	CorrectCommission	1.234444	0.747538	0
38.662128	0.795733	city	2	1	0.712776	0.712776	0	1	0	0	CorrectCommission	0.433699	0.762279	0
39.457935	0.795883	city	1	1	0.698986	0.698986	0	1	0	0	CorrectCommission	0.558212	0.772870	0
40.253899	0.796041	city	5	1	0.607764	0.607764	0	1	0	0	CorrectCommission	1.381892	0.778551	0
41.049831	0.795821	city	6	1	0.698084	0.698084	0	1	0	0	CorrectCommission	0.566354	0.778929	0
41.845467	0.795451	city	2	1	0.601782	0.601782	0	1	0	0	CorrectCommission	1.435906	0.774171	0
42.641098	0.795810	city	1	1	0.601575	0.601575	0	1	0	0	CorrectCommission	1.437777	0.764873	0
43.436920	0.795835	city	6	1	0.798683	0.798683	0	1	0	0	CorrectCommission	0.341991	0.752078	0
44.232735	0.795796	city	7	1	0.698343	0.698343	0	1	0	0	CorrectCommission	0.564016	0.737106	0
45.028683	0.796098	city	5	1	0.648901	0.648901	0	1	0	0	CorrectCommission	1.010446	0.721451	0
45.824467	0.795468	city	4	1	0.797844	0.797844	0	1	0	0	CorrectCommission	0.334419	0.706591	0
46.620106	0.795816	city	5	1	0.748841	0.748841	0	1	0	0	CorrectCommission	0.108052	0.693957	1
47.415928	0.795825	city	7	1	0.698614	0.698614	0	1	0	0	CorrectCommission	0.561570	0.684746	1
48.211903	0.796125	city	5	1	0.649378	0.649378	0	1	0	0	CorrectCommission	1.006142	0.679942	1
49.007706	0.795485	city	6	1	0.749165	0.749165	0	1	0	0	CorrectCommission	0.105125	0.680322	1
49.803329	0.795759	city	5	1	0.707172	0.707172	0	1	0	0	CorrectCommission	0.484299	0.686462	1
50.599136	0.795856	city	9	1	0.861979	0.861979	0	1	0	0	CorrectCommission	0.913516	0.698723	1
51.394974	0.795819	city	8	1	0.947023	0.947023	0	1	0	0	CorrectCommission	1.681417	0.717287	0
52.190788	0.795809	mountain	3	0	0.000000	0.803595	1	0	0	0	CorrectOmission	0.386347	0.742130	0
52.986561	0.795737	city	1	1	0.660872	0.660872	0	1	0	0	CorrectCommission	0.902355	0.772991	0
53.782326	0.795789	city	5	1	0.748032	0.748032	0	1	0	0	CorrectCommission	0.115355	0.809182	0
54.578144	0.795849	city	4	1	0.811985	0.811985	0	1	0	0	CorrectCommission	0.462106	0.849565	0
55.373970	0.795800	city	8	1	0.798436	0.798436	0	1	0	0	CorrectCommission	0.339764	0.892449	0
56.169781	0.795824	city	5	1	0.798029	0.798029	0	1	0	0	CorrectCommission	0.336088	0.935705	0
56.965553	0.795719	city	2	1	0.848281	0.848281	0	1	0	0	CorrectCommission	0.789837	0.976858	0
57.761337	0.795852	city	9	1	0.998220	0.998220	0	1	0	0	CorrectCommission	2.143696	1.013254	0
58.557320	0.796108	city	6	1	0.997058	0.997058	0	1	0	0	CorrectCommission	2.133201	1.042362	0
59.353146	0.795549	city	2	0	0.000000	0.744982	0	0	0	1	OmissionError	0.142899	1.062084	0
60.148792	0.795744	city	3	1	0.499560	0.499560	0	1	0	0	CorrectCommission	2.358907	1.071000	0
60.944569	0.795803	city	1	1	0.518364	0.518364	0	1	0	0	CorrectCommission	2.189124	1.068338	0
61.740372	0.795805	city	6	1	0.848226	0.848226	0	1	0	0	CorrectCommission	0.789336	1.054215	0
62.536324	0.796096	city	10	1	0.798455	0.798455	0	1	0	0	CorrectCommission	0.339929	1.029506	0
63.332279	0.795822	mountain	4	0	0.000000	0.882014	1	0	0	0	CorrectOmission	1.094420	0.995631	0
64.128090	0.795790	city	9	1	0.948901	0.948901	0	1	0	0	CorrectCommission	1.698371	0.954356	0
64.923706	0.795446	city	8	1	0.849113	0.849113	0	1	0	0	CorrectCommission	0.797348	0.907592	0
65.719353	0.795853	city	2	1	0.766803	0.766803	0	1	0	0	CorrectCommission	0.054134	0.857245	0
66.515236	0.795906	city	3	1	0.798056	0.798056	0	1	0	0	CorrectCommission	0.336334	0.805060	0
67.311035	0.795698	city	4	1	0.897269	0.897269	0	1	0	0	CorrectCommission	1.232164	0.752526	0
68.106773	0.795776	city	6	1	0.861237	0.861237	0	1	0	0	CorrectCommission	0.906814	0.700906	1
68.902588	0.795857	city	1	1	0.847494	0.847494	0	1	0	0	CorrectCommission	0.782725	0.651326	1
69.698418	0.795802	city	2	1	0.847740	0.847740	0	1	0	0	CorrectCommission	0.784948	0.604842	1
70.494225	0.795812	city	7	1	0.814029	0.814029	0	1	0	0	CorrectCommission	0.480559	0.562519	1
71.289993	0.795730	city	8	1	0.799165	0.799165	0	1	0	0	CorrectCommission	0.346346	0.525454	1
72.085785	0.795841	city	2	1	0.801429	0.801429	0	1	0	0	CorrectCommission	0.366790	0.494753	1
72.881615	0.795821	mountain	10	0	0.000000	0.785576	1	0	0	0	CorrectOmission	0.223642	0.471509	1
73.677406	0.795769	city	10	1	0.751414	0.751414	0	1	0	0	CorrectCommission	0.084816	0.456633	1
74.473183	0.795786	city	7	1	0.698755	0.698755	0	1	0	0	CorrectCommission	0.560299	0.450769	1
75.268990	0.795824	city	2	1	0.752876	0.752876	0	1	0	0	CorrectCommission	0.071621	0.454111	1
76.064827	0.795854	city	1	1	0.748921	0.748921	0	1	0	0	CorrectCommission	0.107328	0.466361	1
76.860786	0.796056	mountain	3	0	0.000000	0.716976	1	0	0	0	CorrectOmission	0.395770	0.486716	1
77.656708	0.795787	city	8	1	0.701745	0.701745	0	1	0	0	CorrectCommission	0.533302	0.513770	1
78.452362	0.795519	city	4	1	0.747930	0.747930	0	1	0	0	CorrectCommission	0.116277	0.545622	1
79.248039	0.795839	city	3	1	0.698260	0.698260	0	1	0	0	CorrectCommission	0.564770	0.580061	1
80.043861	0.795797	mountain	5	0	0.000000	0.669701	1	0	0	0	CorrectOmission	0.822641	0.614651	1
80.839775	0.796043	city	8	1	0.668089	0.668089	0	1	0	0	CorrectCommission	0.837193	0.646958	1
81.635559	0.795517	city	4	1	0.699261	0.699261	0	1	0	0	CorrectCommission	0.555728	0.674767	1
82.431190	0.795753	city	3	1	0.655215	0.655215	0	1	0	0	CorrectCommission	0.953434	0.696296	1
83.226990	0.795844	mountain	9	0	0.000000	0.595306	1	0	0	0	CorrectOmission	1.494384	0.710309	0
84.022835	0.795836	city	2	1	0.599668	0.599668	0	1	0	0	CorrectCommission	1.454992	0.716214	0
84.818619	0.795735	city	1	1	0.748440	0.748440	0	1	0	0	CorrectCommission	0.111673	0.714106	0
85.614418	0.795864	city	10	1	0.897282	0.897282	0	1	0	0	CorrectCommission	1.232278	0.704795	0
86.410217	0.795731	city	1	1	0.748045	0.748045	0	1	0	0	CorrectCommission	0.115240	0.689562	1
87.205978	0.795790	city	3	1	0.797845	0.797845	0	1	0	0	CorrectCommission	0.334428	0.670177	1
88.001961	0.796176	city	4	1	0.947151	0.947151	0	1	0	0	CorrectCommission	1.682573	0.648598	1
88.797935	0.795772	city	5	1	0.808346	0.808346	0	1	0	0	CorrectCommission	0.429245	0.626786	1
89.593567	0.795491	city	2	1	0.714313	0.714313	0	1	0	0	CorrectCommission	0.419818	0.606618	1
90.389198	0.795778	city	1	1	0.699299	0.699299	0	1	0	0	CorrectCommission	0.555382	0.589608	1
91.185036	0.795896	city	5	1	0.748159	0.748159	0	1	0	0	CorrectCommission	0.114207	0.576808	1
91.980843	0.795722	city	7	1	0.748713	0.748713	0	1	0	0	CorrectCommission	0.109209	0.568703	1
92.776619	0.795823	city	9	1	0.848202	0.848202	0	1	0	0	CorrectCommission	0.789121	0.565221	1
93.572418	0.795781	city	5	1	0.712844	0.712844	0	1	0	0	CorrectCommission	0.433083	0.565736	1
94.368217	0.795822	city	6	1	0.799084	0.799084	0	1	0	0	CorrectCommission	0.345613	0.569240	1
95.164009	0.795761	city	2	1	0.748085	0.748085	0	1	0	0	CorrectCommission	0.114877	0.574495	1
95.959976	0.796168	mountain	8	0	0.000000	0.817451	1	0	0	0	CorrectOmission	0.511460	0.580223	1
96.755959	0.795800	city	10	1	0.905756	0.905756	0	1	0	0	CorrectCommission	1.308799	0.585301	1
97.551758	0.795793	city	8	1	0.911572	0.911572	0	1	0	0	CorrectCommission	1.361313	0.588880	1
98.347420	0.795525	mountain	6	0	0.000000	0.867051	1	0	0	0	CorrectOmission	0.959311	0.590523	1
99.143066	0.795779	city	5	1	0.815262	0.815262	0	1	0	0	CorrectCommission	0.491689	0.590249	1
99.938873	0.795823	mountain	10	0	0.000000	0.799276	1	0	0	0	CorrectOmission	0.347343	0.588413	1
100.734802	0.796040	city	6	1	0.800358	0.800358	0	1	0	0	CorrectCommission	0.357117	0.585561	1
101.530563	0.795482	mountain	8	0	0.000000	0.799776	1	0	0	0	CorrectOmission	0.351858	0.582316	1
102.326233	0.795853	city	1	1	0.798649	0.798649	0	1	0	0	CorrectCommission	0.341686	0.579281	1
103.122040	0.795768	city	2	1	0.798099	0.798099	0	1	0	0	CorrectCommission	0.336723	0.576847	1
103.917870	0.795885	city	5	1	0.698600	0.698600	0	1	0	0	CorrectCommission	0.561695	0.575224	1
104.713707	0.795792	city	10	1	0.714240	0.714240	0	1	0	0	CorrectCommission	0.420476	0.574436	1
105.509499	0.795798	city	6	1	0.864900	0.864900	0	1	0	0	CorrectCommission	0.939893	0.574355	1
106.305435	0.796065	city	9	1	0.898041	0.898041	0	1	0	0	CorrectCommission	1.239134	0.574821	1
107.101219	0.795514	city	10	1	0.713517	0.713517	0	1	0	0	CorrectCommission	0.427003	0.575689	1
107.896851	0.795740	city	4	1	0.847561	0.847561	0	1	0	0	CorrectCommission	0.783332	0.576886	1
108.692642	0.795853	city	1	1	0.712725	0.712725	0	1	0	0	CorrectCommission	0.434157	0.578350	1
109.488472	0.795797	city	7	1	0.766953	0.766953	0	1	0	0	CorrectCommission	0.055490	0.580054	1
110.284271	0.795802	city	1	1	0.847778	0.847778	0	1	0	0	CorrectCommission	0.785290	0.581872	1
111.080063	0.795778	city	7	1	0.748093	0.748093	0	1	0	0	CorrectCommission	0.114807	0.583526	1
111.875862	0.795821	city	5	1	0.648679	0.648679	0	1	0	0	CorrectCommission	1.012458	0.584600	1
112.671700	0.795854	mountain	8	0	0.000000	0.706930	1	0	0	0	CorrectOmission	0.486479	0.584461	1
113.467514	0.795771	mountain	10	1	0.762524	0.762524	0	0	1	0	CommissionError	0.015495	0.582397	1
114.263290	0.795785	city	10	1	0.655134	0.655134	0	1	0	0	CorrectCommission	0.954170	0.577655	1
115.059059	0.795757	city	7	1	0.652401	0.652401	0	1	0	0	CorrectCommission	0.978845	0.569541	1
115.854843	0.795805	city	6	1	0.703274	0.703274	0	1	0	0	CorrectCommission	0.519492	0.557666	1
116.650650	0.795816	city	9	1	0.648546	0.648546	0	1	0	0	CorrectCommission	1.013656	0.542056	1
117.446495	0.795878	city	10	1	0.648870	0.648870	0	1	0	0	CorrectCommission	1.010733	0.523203	1
118.242470	0.796069	city	8	1	0.701007	0.701007	0	1	0	0	CorrectCommission	0.539961	0.502092	1
119.038261	0.795505	city	5	1	0.747742	0.747742	0	1	0	0	CorrectCommission	0.117976	0.480282	1
119.834053	0.796090	city	10	1	0.748035	0.748035	0	1	0	0	CorrectCommission	0.115330	0.459738	1
120.630005	0.795809	city	1	1	0.801660	0.801660	0	1	0	0	CorrectCommission	0.368869	0.442679	1
121.425629	0.795436	city	9	1	0.817919	0.817919	0	1	0	0	CorrectCommission	0.515684	0.431406	1
122.271019	0.895343	city	10	1	0.802261	0.802261	0	1	0	0	CorrectCommission	0.374296	0.428168	1
123.116577	0.795780	city	8	1	0.747960	0.747960	0	1	0	0	CorrectCommission	0.116005	0.434927	1
123.912369	0.795804	city	4	1	0.759596	0.759596	0	1	0	0	CorrectCommission	0.010938	0.453178	1
124.708321	0.796093	city	5	1	0.707901	0.707901	0	1	0	0	CorrectCommission	0.477719	0.483828	1
125.504143	0.795549	city	10	1	0.763887	0.763887	0	1	0	0	CorrectCommission	0.027802	0.526971	1
126.299789	0.795755	city	9	1	0.802443	0.802443	0	1	0	0	CorrectCommission	0.375940	0.581877	1
127.095596	0.795858	city	6	1	0.748178	0.748178	0	1	0	0	CorrectCommission	0.114040	0.646918	1
127.891426	0.795798	mountain	6	0	0.000000	0.696704	1	0	0	0	CorrectOmission	0.578818	0.719579	0
128.687363	0.796073	city	4	1	0.664177	0.664177	0	1	0	0	CorrectCommission	0.872516	0.796583	0
129.483154	0.795503	city	1	1	0.666753	0.666753	0	1	0	0	CorrectCommission	0.849253	0.874040	0
130.278793	0.795771	city	6	1	0.655297	0.655297	0	1	0	0	CorrectCommission	0.952695	0.947758	0
131.074585	0.795830	city	7	1	0.617188	0.617188	0	1	0	0	CorrectCommission	1.296796	1.013582	0
131.870392	0.795790	city	2	1	0.608786	0.608786	0	1	0	0	CorrectCommission	1.372665	1.067691	0
132.666351	0.796111	city	10	1	0.550271	0.550271	0	1	0	0	CorrectCommission	1.901016	1.106997	0
133.462173	0.795531	city	9	1	0.797492	0.797492	0	1	0	0	CorrectCommission	0.331239	1.129469	0
134.257797	0.795721	city	1	1	0.499383	0.499383	0	1	0	0	CorrectCommission	2.360509	1.134396	0
135.053574	0.795834	city	4	1	0.470338	0.470338	0	1	0	0	CorrectCommission	2.622767	1.122344	0
135.849411	0.795833	city	3	1	0.559120	0.559120	0	1	0	0	CorrectCommission	1.821116	1.095295	0
136.645233	0.795833	city	4	1	0.649440	0.649440	0	1	0	0	CorrectCommission	1.005579	1.056438	0
137.441177	0.796055	city	2	1	0.649305	0.649305	0	1	0	0	CorrectCommission	1.006802	1.009723	0
138.236969	0.795520	mountain	2	0	0.000000	0.707265	1	0	0	0	CorrectOmission	0.483457	0.959439	0
139.032639	0.795809	city	10	1	0.748691	0.748691	0	1	0	0	CorrectCommission	0.109405	0.909708	0
139.828445	0.795802	city	8	1	0.698953	0.698953	0	1	0	0	CorrectCommission	0.558507	0.864039	0
140.624191	0.795715	city	3	1	0.748004	0.748004	0	1	0	0	CorrectCommission	0.115609	0.824945	0
141.419983	0.795851	city	2	1	0.752284	0.752284	0	1	0	0	CorrectCommission	0.076962	0.793794	0
142.215805	0.795806	city	9	1	0.648740	0.648740	0	1	0	0	CorrectCommission	1.011903	0.770733	0
143.011765	0.796106	city	8	1	0.648612	0.648612	0	1	0	0	CorrectCommission	1.013057	0.754842	0
143.807571	0.795516	city	9	1	0.654860	0.654860	0	1	0	0	CorrectCommission	0.956645	0.744463	0
144.603226	0.795772	city	8	1	0.698662	0.698662	0	1	0	0	CorrectCommission	0.561136	0.737488	0
145.399017	0.795814	city	4	1	0.797905	0.797905	0	1	0	0	CorrectCommission	0.334971	0.731750	0
146.194794	0.795752	city	2	1	0.652919	0.652919	0	1	0	0	CorrectCommission	0.974169	0.725351	0
146.990601	0.795843	city	3	1	0.599698	0.599698	0	1	0	0	CorrectCommission	1.454720	0.716930	0
147.786453	0.795861	city	8	1	0.897576	0.897576	0	1	0	0	CorrectCommission	1.234933	0.705820	0
148.582245	0.795738	city	1	1	0.599121	0.599121	0	1	0	0	CorrectCommission	1.459934	0.692103	1
149.377991	0.795766	city	3	1	0.748846	0.748846	0	1	0	0	CorrectCommission	0.108004	0.676483	1
150.173813	0.795866	city	4	1	0.752005	0.752005	0	1	0	0	CorrectCommission	0.079484	0.660168	1
150.969635	0.795788	city	8	1	0.757757	0.757757	0	1	0	0	CorrectCommission	0.027543	0.644621	1
151.765594	0.796109	city	7	1	0.847468	0.847468	0	1	0	0	CorrectCommission	0.782491	0.631308	1
152.561386	0.795488	city	3	1	0.748543	0.748543	0	1	0	0	CorrectCommission	0.110745	0.621511	1
153.357040	0.795803	city	7	1	0.897915	0.897915	0	1	0	0	CorrectCommission	1.237996	0.616313	1
154.152863	0.795850	mountain	1	0	0.000000	0.823721	1	0	0	0	CorrectOmission	0.568073	0.616421	1
154.948669	0.795772	city	5	1	0.699357	0.699357	0	1	0	0	CorrectCommission	0.554860	0.622237	1
155.744461	0.795801	city	9	1	0.698218	0.698218	0	1	0	0	CorrectCommission	0.565147	0.633813	1
156.540268	0.795809	city	10	1	0.748505	0.748505	0	1	0	0	CorrectCommission	0.111088	0.650868	1
157.336075	0.795804	city	6	1	0.797764	0.797764	0	1	0	0	CorrectCommission	0.333691	0.672883	1
158.131866	0.795777	city	3	1	0.848271	0.848271	0	1	0	0	CorrectCommission	0.789746	0.699069	1
158.927658	0.795813	city	7	1	0.947495	0.947495	0	1	0	0	CorrectCommission	1.685680	0.728409	0
159.723618	0.796102	city	2	1	0.847770	0.847770	0	1	0	0	CorrectCommission	0.785222	0.759668	0
160.519409	0.795482	city	4	1	0.751885	0.751885	0	1	0	0	CorrectCommission	0.080569	0.791510	0
161.315033	0.795771	city	7	1	0.748135	0.748135	0	1	0	0	CorrectCommission	0.114429	0.822482	0
162.110825	0.795806	city	3	1	0.655268	0.655268	0	1	0	0	CorrectCommission	0.952956	0.851068	0
162.906631	0.795832	city	6	1	0.648852	0.648852	0	1	0	0	CorrectCommission	1.010896	0.875785	0
163.702606	0.796095	city	8	1	0.599382	0.599382	0	1	0	0	CorrectCommission	1.457574	0.895344	0
164.498383	0.795466	city	3	1	0.598759	0.598759	0	1	0	0	CorrectCommission	1.463204	0.908696	0
165.294144	0.796052	city	10	1	0.599667	0.599667	0	1	0	0	CorrectCommission	1.455001	0.915180	0
166.090088	0.795850	city	3	1	0.649124	0.649124	0	1	0	0	CorrectCommission	1.008439	0.914600	0
166.885925	0.795831	city	8	1	0.648421	0.648421	0	1	0	0	CorrectCommission	1.014786	0.907226	0
167.681610	0.795535	city	7	1	0.701684	0.701684	0	1	0	0	CorrectCommission	0.533847	0.893748	0
168.477249	0.795729	city	4	1	0.698479	0.698479	0	1	0	0	CorrectCommission	0.562792	0.875213	0
169.273178	0.796146	city	7	1	0.648905	0.648905	0	1	0	0	CorrectCommission	1.010411	0.852868	0
170.069016	0.795508	city	3	1	0.657014	0.657014	0	1	0	0	CorrectCommission	0.937197	0.828139	0
170.864655	0.795776	city	10	1	0.619146	0.619146	0	1	0	0	CorrectCommission	1.279120	0.802493	0
171.660583	0.796088	mountain	4	0	0.000000	0.759620	1	0	0	0	CorrectOmission	0.010725	0.777359	0
172.456421	0.795568	city	2	1	0.897338	0.897338	0	1	0	0	CorrectCommission	1.232792	0.754124	0
173.252106	0.795801	city	4	1	0.851205	0.851205	0	1	0	0	CorrectCommission	0.816237	0.733841	0
174.048035	0.796078	city	5	1	0.797989	0.797989	0	1	0	0	CorrectCommission	0.335730	0.717383	0
174.843842	0.795523	city	3	1	0.698749	0.698749	0	1	0	0	CorrectCommission	0.560353	0.705297	0
175.639511	0.795808	city	7	1	0.698542	0.698542	0	1	0	0	CorrectCommission	0.562225	0.697689	1
176.435318	0.795815	city	1	1	0.698343	0.698343	0	1	0	0	CorrectCommission	0.564019	0.694264	1
177.231110	0.795783	city	2	1	0.709709	0.709709	0	1	0	0	CorrectCommission	0.461390	0.694364	1
178.027054	0.796094	mountain	10	1	0.700425	0.700425	0	0	1	0	CommissionError	0.545214	0.697043	1
178.822830	0.795457	city	10	1	0.648927	0.648927	0	1	0	0	CorrectCommission	1.010217	0.701097	1
179.618484	0.795852	city	9	1	0.707207	0.707207	0	1	0	0	CorrectCommission	0.483978	0.705235	0
180.414444	0.796086	city	10	1	0.753172	0.753172	0	1	0	0	CorrectCommission	0.068940	0.708309	0
181.210251	0.795521	city	1	1	0.946641	0.946641	0	1	0	0	CorrectCommission	1.677965	0.709329	0
182.005920	0.795820	city	8	1	0.648778	0.648778	0	1	0	0	CorrectCommission	1.011563	0.707615	0
182.801727	0.795784	city	3	1	0.598973	0.598973	0	1	0	0	CorrectCommission	1.461269	0.703019	0
183.597519	0.795794	mountain	7	0	0.000000	0.667489	1	0	0	0	CorrectOmission	0.842610	0.695857	1
184.393326	0.795815	city	10	1	0.748032	0.748032	0	1	0	0	CorrectCommission	0.115357	0.686903	1
185.189087	0.795728	mountain	1	0	0.000000	0.734308	1	0	0	0	CorrectOmission	0.239278	0.677281	1
185.984894	0.795874	city	8	1	0.699122	0.699122	0	1	0	0	CorrectCommission	0.556986	0.668261	1
186.780716	0.795760	city	5	1	0.715280	0.715280	0	1	0	0	CorrectCommission	0.411089	0.661071	1
187.576508	0.795839	city	4	1	0.898020	0.898020	0	1	0	0	CorrectCommission	1.238947	0.656752	1
188.372299	0.795755	city	2	1	0.764881	0.764881	0	1	0	0	CorrectCommission	0.036784	0.655904	1
189.168243	0.796125	mountain	8	0	0.000000	0.847957	1	0	0	0	CorrectOmission	0.786906	0.658745	1
189.964050	0.795494	city	3	1	0.919603	0.919603	0	1	0	0	CorrectCommission	1.433830	0.664819	1
190.759674	0.795755	city	4	1	0.752177	0.752177	0	1	0	0	CorrectCommission	0.077927	0.673125	1
191.555634	0.796161	city	9	1	0.749511	0.749511	0	1	0	0	CorrectCommission	0.102001	0.682246	1
192.351471	0.795520	city	2	1	0.747992	0.747992	0	1	0	0	CorrectCommission	0.115719	0.690348	1
193.147110	0.795760	city	6	1	0.847559	0.847559	0	1	0	0	CorrectCommission	0.783310	0.695473	1
193.943039	0.796098	city	10	1	0.748403	0.748403	0	1	0	0	CorrectCommission	0.112010	0.695786	1
194.738861	0.795517	mountain	6	0	0.000000	0.945212	1	0	0	0	CorrectOmission	1.665062	0.689924	1
195.534531	0.795836	city	9	1	1.096173	1.096173	0	1	0	0	CorrectCommission	3.028154	0.677064	1
196.330338	0.795766	city	2	1	0.859473	0.859473	0	1	0	0	CorrectCommission	0.890891	0.657162	1
197.126114	0.795802	city	1	1	0.802396	0.802396	0	1	0	0	CorrectCommission	0.375521	0.631101	1
197.921890	0.795757	city	5	1	0.748930	0.748930	0	1	0	0	CorrectCommission	0.107252	0.600429	1
198.717667	0.795799	city	7	1	0.810292	0.810292	0	1	0	0	CorrectCommission	0.446817	0.567114	1
199.513474	0.795812	city	3	1	0.757666	0.757666	0	1	0	0	CorrectCommission	0.028364	0.533355	1
200.309464	0.796148	city	10	1	0.748372	0.748372	0	1	0	0	CorrectCommission	0.112288	0.501247	1
201.105255	0.795452	city	3	1	0.810287	0.810287	0	1	0	0	CorrectCommission	0.446771	0.472549	1
201.900894	0.795804	city	2	1	0.802869	0.802869	0	1	0	0	CorrectCommission	0.379786	0.448498	1
202.696686	0.795803	city	1	1	0.710566	0.710566	0	1	0	0	CorrectCommission	0.453654	0.429759	1
203.492676	0.796151	city	8	1	0.767192	0.767192	0	1	0	0	CorrectCommission	0.057651	0.416400	1
204.288513	0.795527	city	2	1	0.797583	0.797583	0	1	0	0	CorrectCommission	0.332061	0.408049	1
205.084137	0.795726	city	5	1	0.803087	0.803087	0	1	0	0	CorrectCommission	0.381756	0.403943	1
205.879929	0.795862	mountain	6	0	0.000000	0.842668	1	0	0	0	CorrectOmission	0.739151	0.403170	1
206.675766	0.795811	city	7	1	0.848239	0.848239	0	1	0	0	CorrectCommission	0.789452	0.404756	1
207.471573	0.795793	city	1	1	0.751712	0.751712	0	1	0	0	CorrectCommission	0.082131	0.407788	1
208.267365	0.795817	city	2	1	0.748068	0.748068	0	1	0	0	CorrectCommission	0.115028	0.411579	1
209.063171	0.795795	city	1	1	0.698249	0.698249	0	1	0	0	CorrectCommission	0.564863	0.415599	1
209.858948	0.795741	city	7	1	0.652121	0.652121	0	1	0	0	CorrectCommission	0.981375	0.419468	1
210.654739	0.795859	city	4	1	0.750199	0.750199	0	1	0	0	CorrectCommission	0.095787	0.422941	1
211.450714	0.796071	mountain	10	0	0.000000	0.773576	1	0	0	0	CorrectOmission	0.115293	0.425919	1
212.246475	0.795467	city	2	1	0.747834	0.747834	0	1	0	0	CorrectCommission	0.117140	0.428303	1
213.042114	0.795791	mountain	4	1	0.698556	0.698556	0	0	1	0	CommissionError	0.562090	0.430020	1
213.837952	0.795896	mountain	8	0	0.000000	0.808426	1	0	0	0	CorrectOmission	0.429961	0.431070	1
214.633804	0.795806	city	7	1	0.901470	0.901470	0	1	0	0	CorrectCommission	1.270094	0.431525	1
215.429565	0.795705	city	6	1	0.801717	0.801717	0	1	0	0	CorrectCommission	0.369387	0.431523	1
216.225311	0.795801	city	5	1	0.698493	0.698493	0	1	0	0	CorrectCommission	0.562663	0.431354	1
217.021118	0.795822	city	10	1	0.753051	0.753051	0	1	0	0	CorrectCommission	0.070037	0.431359	1
217.816940	0.795823	city	4	1	0.748947	0.748947	0	1	0	0	CorrectCommission	0.107092	0.431954	1
218.612778	0.795827	city	2	1	0.748020	0.748020	0	1	0	0	CorrectCommission	0.115462	0.433525	1
219.408585	0.795791	city	5	1	0.698702	0.698702	0	1	0	0	CorrectCommission	0.560779	0.436402	1
220.204391	0.795819	city	3	1	0.657399	0.657399	0	1	0	0	CorrectCommission	0.933721	0.440738	1
221.000153	0.795720	city	5	1	0.703037	0.703037	0	1	0	0	CorrectCommission	0.521635	0.446533	1
221.796097	0.796161	city	6	1	0.798492	0.798492	0	1	0	0	CorrectCommission	0.340272	0.453583	1
222.591904	0.795467	city	1	1	0.748474	0.748474	0	1	0	0	CorrectCommission	0.111364	0.461446	1
223.387558	0.795844	city	5	1	0.802565	0.802565	0	1	0	0	CorrectCommission	0.377049	0.469467	1
224.183380	0.795802	city	3	1	0.709634	0.709634	0	1	0	0	CorrectCommission	0.462070	0.476874	1
224.979187	0.795782	city	1	1	0.748113	0.748113	0	1	0	0	CorrectCommission	0.114629	0.482884	1
225.774979	0.795813	city	3	1	0.654700	0.654700	0	1	0	0	CorrectCommission	0.958085	0.486855	1
226.570801	0.795825	city	8	1	0.803100	0.803100	0	1	0	0	CorrectCommission	0.381876	0.488376	1
227.366623	0.795823	city	7	1	0.698541	0.698541	0	1	0	0	CorrectCommission	0.562226	0.487508	1
228.162430	0.795788	city	3	1	0.602790	0.602790	0	1	0	0	CorrectCommission	1.426806	0.484751	1
228.958344	0.796044	city	2	1	0.649222	0.649222	0	1	0	0	CorrectCommission	1.007553	0.481091	1
229.754105	0.795478	city	7	1	0.749282	0.749282	0	1	0	0	CorrectCommission	0.104071	0.477974	1
230.549911	0.796126	city	10	1	0.753553	0.753553	0	1	0	0	CorrectCommission	0.065503	0.477107	1
231.345871	0.795817	city	8	1	0.714828	0.714828	0	1	0	0	CorrectCommission	0.415172	0.480217	1
232.141525	0.795470	city	1	1	0.747791	0.747791	0	1	0	0	CorrectCommission	0.117532	0.488748	1
232.937149	0.795783	city	7	1	0.770693	0.770693	0	1	0	0	CorrectCommission	0.089258	0.503705	1
233.732986	0.795893	city	2	1	0.748367	0.748367	0	1	0	0	CorrectCommission	0.112329	0.525358	1
234.528839	0.795814	city	1	1	0.811714	0.811714	0	1	0	0	CorrectCommission	0.459656	0.553179	1
235.324768	0.796059	city	6	1	0.762441	0.762441	0	1	0	0	CorrectCommission	0.014747	0.585793	1
236.120560	0.795515	city	5	1	0.861551	0.861551	0	1	0	0	CorrectCommission	0.909650	0.621106	1
236.916351	0.796058	mountain	3	0	0.000000	0.888645	1	0	0	0	CorrectOmission	1.154295	0.656465	1
237.712143	0.795542	city	4	1	0.861454	0.861454	0	1	0	0	CorrectCommission	0.908778	0.688933	1
238.507950	0.796065	city	2	1	0.797709	0.797709	0	1	0	0	CorrectCommission	0.333194	0.715647	0
239.303726	0.795470	city	1	1	0.897111	0.897111	0	1	0	0	CorrectCommission	1.230743	0.734122	0
240.099533	0.796159	city	6	1	0.847660	0.847660	0	1	0	0	CorrectCommission	0.784222	0.742459	0
240.895370	0.795510	city	8	1	0.662671	0.662671	0	1	0	0	CorrectCommission	0.886117	0.739689	0
241.691025	0.795797	city	3	1	0.610082	0.610082	0	1	0	0	CorrectCommission	1.360962	0.725787	0
242.486832	0.795832	city	8	1	0.503099	0.503099	0	1	0	0	CorrectCommission	2.326957	0.701751	0
243.282654	0.795794	city	7	1	0.698282	0.698282	0	1	0	0	CorrectCommission	0.564572	0.669462	1
244.078430	0.795767	city	1	1	0.797769	0.797769	0	1	0	0	CorrectCommission	0.333740	0.631642	1
244.874222	0.795826	city	3	1	0.758244	0.758244	0	1	0	0	CorrectCommission	0.023147	0.591400	1
245.670181	0.796096	city	8	1	0.761024	0.761024	0	1	0	0	CorrectCommission	0.001952	0.552017	1
246.465988	0.795511	city	9	1	0.804140	0.804140	0	1	0	0	CorrectCommission	0.391263	0.516672	1
247.261612	0.795729	city	6	1	0.797853	0.797853	0	1	0	0	CorrectCommission	0.334501	0.488185	1
248.057388	0.795843	city	1	1	0.716854	0.716854	0	1	0	0	CorrectCommission	0.396876	0.468844	1
248.853195	0.795769	mountain	7	0	0.000000	0.761290	1	0	0	0	CorrectOmission	0.004355	0.460257	1
249.649017	0.795864	city	4	1	0.799121	0.799121	0	1	0	0	CorrectCommission	0.345944	0.463380	1
250.444977	0.796069	city	6	1	0.698305	0.698305	0	1	0	0	CorrectCommission	0.564360	0.478456	1
251.240799	0.795546	city	8	1	0.757295	0.757295	0	1	0	0	CorrectCommission	0.031713	0.505093	1
252.036453	0.795767	city	5	1	0.650869	0.650869	0	1	0	0	CorrectCommission	0.992678	0.542302	1
252.832382	0.796113	city	7	1	0.767394	0.767394	0	1	0	0	CorrectCommission	0.059474	0.588493	1
253.628204	0.795525	city	8	1	0.747913	0.747913	0	1	0	0	CorrectCommission	0.116432	0.641600	1
254.423874	0.795794	city	6	1	0.698723	0.698723	0	1	0	0	CorrectCommission	0.560583	0.699118	1
255.219681	0.795829	city	10	1	0.699560	0.699560	0	1	0	0	CorrectCommission	0.553031	0.758209	0
256.015472	0.795745	city	4	1	0.599918	0.599918	0	1	0	0	CorrectCommission	1.452737	0.815934	0
256.811249	0.795814	city	7	1	0.664733	0.664733	0	1	0	0	CorrectCommission	0.867495	0.869278	0
257.607208	0.796101	city	6	1	0.650036	0.650036	0	1	0	0	CorrectCommission	1.000201	0.915512	0
258.402985	0.795452	city	2	1	0.599270	0.599270	0	1	0	0	CorrectCommission	1.458586	0.952351	0
259.198639	0.795843	city	9	1	0.599610	0.599610	0	1	0	0	CorrectCommission	1.455521	0.978147	0
259.994415	0.795748	city	8	1	0.699235	0.699235	0	1	0	0	CorrectCommission	0.555966	0.992016	0
260.790222	0.795853	city	9	1	0.897363	0.897363	0	1	0	0	CorrectCommission	1.233011	0.994086	0
261.586060	0.795804	mountain	9	0	0.000000	0.986637	1	0	0	0	CorrectOmission	2.039106	0.985323	0
262.381836	0.795750	mountain	6	0	0.000000	0.981737	1	0	0	0	CorrectOmission	1.994858	0.967530	0
263.177734	0.796061	city	8	1	0.897340	0.897340	0	1	0	0	CorrectCommission	1.232808	0.943161	0
263.973572	0.795625	city	5	1	0.748126	0.748126	0	1	0	0	CorrectCommission	0.114505	0.915043	0
264.769440	0.796077	city	6	1	0.750088	0.750088	0	1	0	0	CorrectCommission	0.096795	0.886063	0
265.565186	0.795464	mountain	8	0	0.000000	0.790033	1	0	0	0	CorrectOmission	0.263885	0.858827	0
266.360870	0.795855	mountain	9	0	0.000000	0.838922	1	0	0	0	CorrectOmission	0.705325	0.835455	0
267.156799	0.796057	mountain	7	0	0.000000	0.867716	1	0	0	0	CorrectOmission	0.965316	0.817352	0
267.952637	0.795567	city	6	1	0.847375	0.847375	0	1	0	0	CorrectCommission	0.781649	0.805195	0
268.748322	0.795810	city	2	1	0.748859	0.748859	0	1	0	0	CorrectCommission	0.107886	0.799007	0
269.544098	0.795726	city	5	1	0.656124	0.656124	0	1	0	0	CorrectCommission	0.945228	0.798214	0
270.339996	0.796104	city	3	1	0.657395	0.657395	0	1	0	0	CorrectCommission	0.933757	0.801831	0
271.135803	0.795496	city	8	1	0.558096	0.558096	0	1	0	0	CorrectCommission	1.830363	0.808815	0
271.931458	0.795831	city	9	1	0.698592	0.698592	0	1	0	0	CorrectCommission	0.561774	0.818111	0
272.727264	0.795776	city	1	1	0.766680	0.766680	0	1	0	0	CorrectCommission	0.053026	0.828943	0
273.523224	0.796123	city	5	1	0.859313	0.859313	0	1	0	0	CorrectCommission	0.889443	0.840826	0
274.319031	0.795509	city	9	1	0.897199	0.897199	0	1	0	0	CorrectCommission	1.231537	0.853615	0
275.114655	0.795742	city	7	1	0.803187	0.803187	0	1	0	0	CorrectCommission	0.382656	0.867591	0
275.910461	0.795876	city	4	1	0.897261	0.897261	0	1	0	0	CorrectCommission	1.232096	0.883329	0
276.706299	0.795799	city	1	1	0.652311	0.652311	0	1	0	0	CorrectCommission	0.979661	0.901485	0
277.502106	0.795828	mountain	10	0	0.000000	0.603903	1	0	0	0	CorrectOmission	1.416753	0.922835	0
278.297913	0.795740	city	4	1	0.652535	0.652535	0	1	0	0	CorrectCommission	0.977639	0.947937	0
279.093689	0.795856	city	3	1	0.698702	0.698702	0	1	0	0	CorrectCommission	0.560778	0.977016	0
279.889496	0.795729	city	9	1	0.764448	0.764448	0	1	0	0	CorrectCommission	0.032872	1.009856	0
280.685425	0.796140	city	1	1	0.714042	0.714042	0	1	0	0	CorrectCommission	0.422268	1.045728	0
281.481262	0.795545	city	6	1	0.897081	0.897081	0	1	0	0	CorrectCommission	1.230469	1.083440	0
282.276917	0.795748	mountain	8	1	0.650405	0.650405	0	0	1	0	CommissionError	0.996870	1.121323	0
283.072693	0.795805	city	6	1	0.950645	0.950645	0	1	0	0	CorrectCommission	1.714116	1.157503	0
283.868652	0.796110	mountain	5	0	0.000000	0.988590	1	0	0	0	CorrectOmission	2.056743	1.190015	0
284.664459	0.795490	city	6	1	0.897653	0.897653	0	1	0	0	CorrectCommission	1.235633	1.217003	0
285.460266	0.796122	city	7	1	0.811243	0.811243	0	1	0	0	CorrectCommission	0.455406	1.236941	0
286.256042	0.795441	city	3	1	1.056087	1.056087	0	1	0	0	CorrectCommission	2.666196	1.248688	0
287.051697	0.795898	mountain	8	0	0.000000	1.007222	1	0	0	0	CorrectOmission	2.224973	1.251394	0
287.847534	0.795778	mountain	9	0	0.000000	0.834601	1	0	0	0	CorrectOmission	0.666315	1.244659	0
288.643311	0.795774	city	10	1	0.708179	0.708179	0	1	0	0	CorrectCommission	0.475204	1.228452	0
289.439117	0.795800	city	1	1	0.797908	0.797908	0	1	0	0	CorrectCommission	0.334993	1.202992	0
290.234894	0.795802	city	6	1	0.997038	0.997038	0	1	0	0	CorrectCommission	2.133021	1.168773	0
291.030731	0.795824	mountain	2	0	0.000000	0.929963	1	0	0	0	CorrectOmission	1.527373	1.126455	0
291.826691	0.796095	city	6	1	0.847579	0.847579	0	1	0	0	CorrectCommission	0.783498	1.077068	0
292.622498	0.795536	city	2	1	1.000784	1.000784	0	1	0	0	CorrectCommission	2.166841	1.022041	0
293.418152	0.795806	city	10	1	0.947147	0.947147	0	1	0	0	CorrectCommission	1.682538	0.963073	0
294.213959	0.795764	city	2	1	0.802208	0.802208	0	1	0	0	CorrectCommission	0.373819	0.902277	0
295.009888	0.796104	city	3	1	0.717166	0.717166	0	1	0	0	CorrectCommission	0.394054	0.842056	0
295.805817	0.795783	city	2	1	0.747933	0.747933	0	1	0	0	CorrectCommission	0.116254	0.784901	0
296.601501	0.795540	city	6	1	0.947073	0.947073	0	1	0	0	CorrectCommission	1.681862	0.733204	0
297.397156	0.795809	city	1	1	0.755373	0.755373	0	1	0	0	CorrectCommission	0.049073	0.689002	1
298.192963	0.795791	city	9	1	0.748050	0.748050	0	1	0	0	CorrectCommission	0.115190	0.653940	1
298.988708	0.795719	city	3	1	0.699039	0.699039	0	1	0	0	CorrectCommission	0.557732	0.628970	1
299.784485	0.795807	city	10	1	0.757477	0.757477	0	1	0	0	CorrectCommission	0.030074	0.614337	1
300.580292	0.795800	city	4	1	0.798185	0.798185	0	1	0	0	CorrectCommission	0.337491	0.609681	1
301.376251	0.796158	city	3	1	0.748785	0.748785	0	1	0	0	CorrectCommission	0.108556	0.614038	1
302.172089	0.795462	city	9	1	0.859736	0.859736	0	1	0	0	CorrectCommission	0.893268	0.626097	1
302.967865	0.796143	city	6	1	0.764290	0.764290	0	1	0	0	CorrectCommission	0.031442	0.644387	1
303.763855	0.795801	city	9	1	0.598598	0.598598	0	1	0	0	CorrectCommission	1.464660	0.667486	1
304.559631	0.795767	city	6	1	0.598567	0.598567	0	1	0	0	CorrectCommission	1.464938	0.694077	1
305.355286	0.795567	city	7	1	0.602506	0.602506	0	1	0	0	CorrectCommission	1.429367	0.723163	0
306.150970	0.795768	city	6	1	0.702968	0.702968	0	1	0	0	CorrectCommission	0.522257	0.753985	0
306.946747	0.795788	mountain	7	0	0.000000	0.766982	1	0	0	0	CorrectOmission	0.055754	0.785952	0
307.742554	0.795797	city	9	1	0.797772	0.797772	0	1	0	0	CorrectCommission	0.333769	0.818350	0
308.538361	0.795849	city	10	1	0.798561	0.798561	0	1	0	0	CorrectCommission	0.340889	0.850303	0
309.334167	0.795756	city	3	1	0.748889	0.748889	0	1	0	0	CorrectCommission	0.107616	0.880740	0
310.129944	0.795813	city	5	1	0.648600	0.648600	0	1	0	0	CorrectCommission	1.013163	0.908297	0
310.925720	0.795756	city	3	1	0.510187	0.510187	0	1	0	0	CorrectCommission	2.262952	0.931453	0
311.721527	0.795845	city	9	1	0.604314	0.604314	0	1	0	0	CorrectCommission	1.413044	0.948690	0
312.517517	0.796104	city	6	1	0.617666	0.617666	0	1	0	0	CorrectCommission	1.292484	0.958770	0
313.313293	0.795450	city	7	1	0.660264	0.660264	0	1	0	0	CorrectCommission	0.907845	0.960848	0
314.108948	0.795848	city	5	1	0.602552	0.602552	0	1	0	0	CorrectCommission	1.428954	0.954549	0
314.904755	0.795812	city	7	1	0.698268	0.698268	0	1	0	0	CorrectCommission	0.564700	0.940075	0
315.700562	0.795763	city	8	1	0.598859	0.598859	0	1	0	0	CorrectCommission	1.462302	0.918236	0
316.496368	0.795855	city	1	1	0.648896	0.648896	0	1	0	0	CorrectCommission	1.010498	0.890219	0
317.292328	0.796091	city	3	1	0.698313	0.698313	0	1	0	0	CorrectCommission	0.564291	0.857618	0
318.088287	0.795804	city	4	1	0.698253	0.698253	0	1	0	0	CorrectCommission	0.564828	0.822176	0
318.883942	0.795503	city	10	1	0.657794	0.657794	0	1	0	0	CorrectCommission	0.930155	0.785655	0
319.679565	0.795777	mountain	2	0	0.000000	0.677368	1	0	0	0	CorrectOmission	0.753408	0.749636	0
320.475525	0.796121	city	1	1	0.749459	0.749459	0	1	0	0	CorrectCommission	0.102467	0.715491	0
321.271332	0.795520	mountain	8	0	0.000000	0.866549	1	0	0	0	CorrectOmission	0.954786	0.684251	1
322.067139	0.796076	city	4	1	0.906731	0.906731	0	1	0	0	CorrectCommission	1.317599	0.656519	1
322.862946	0.795537	city	6	1	0.748096	0.748096	0	1	0	0	CorrectCommission	0.114778	0.632518	1
323.658630	0.795805	mountain	2	0	0.000000	0.787816	1	0	0	0	CorrectOmission	0.243872	0.612183	1
324.454437	0.795807	city	6	1	0.847499	0.847499	0	1	0	0	CorrectCommission	0.782772	0.595091	1
325.250366	0.796053	city	8	1	0.748753	0.748753	0	1	0	0	CorrectCommission	0.108850	0.580605	1
326.046112	0.795492	city	1	1	0.847302	0.847302	0	1	0	0	CorrectCommission	0.780990	0.567955	1
326.841766	0.795818	mountain	6	0	0.000000	0.765155	1	0	0	0	CorrectOmission	0.039255	0.556320	1
327.637726	0.796098	city	8	1	0.712910	0.712910	0	1	0	0	CorrectCommission	0.432490	0.545050	1
328.433563	0.795541	city	3	1	0.901162	0.901162	0	1	0	0	CorrectCommission	1.267320	0.533663	1
329.229218	0.795801	city	4	1	0.897324	0.897324	0	1	0	0	CorrectCommission	1.232659	0.522062	1
330.025177	0.796065	city	10	1	0.702513	0.702513	0	1	0	0	CorrectCommission	0.526361	0.510523	1
330.820953	0.795515	city	5	1	0.809453	0.809453	0	1	0	0	CorrectCommission	0.439240	0.499730	1
331.616760	0.796100	city	1	1	0.748339	0.748339	0	1	0	0	CorrectCommission	0.112585	0.490583	1
332.412720	0.795798	city	4	1	0.797837	0.797837	0	1	0	0	CorrectCommission	0.334350	0.484141	1
333.208496	0.795794	city	3	1	0.747864	0.747864	0	1	0	0	CorrectCommission	0.116876	0.481377	1
334.004181	0.795538	city	10	1	0.707095	0.707095	0	1	0	0	CorrectCommission	0.484997	0.483037	1
334.799805	0.795709	city	8	1	0.815738	0.815738	0	1	0	0	CorrectCommission	0.495987	0.489482	1
335.595581	0.795855	city	5	1	0.748110	0.748110	0	1	0	0	CorrectCommission	0.114656	0.500640	1
336.391388	0.795792	mountain	7	1	0.699192	0.699192	0	0	1	0	CommissionError	0.556352	0.516000	1
337.187195	0.795776	city	2	1	0.810915	0.810915	0	1	0	0	CorrectCommission	0.452437	0.534688	1
337.983002	0.795858	city	3	1	0.748161	0.748161	0	1	0	0	CorrectCommission	0.114194	0.555627	1
338.778809	0.795748	city	4	1	0.798124	0.798124	0	1	0	0	CorrectCommission	0.336946	0.577784	1
339.574585	0.795803	city	8	1	0.703499	0.703499	0	1	0	0	CorrectCommission	0.517466	0.600339	1
340.370392	0.795834	city	2	1	0.515797	0.515797	0	1	0	0	CorrectCommission	2.212300	0.622886	1
341.166229	0.795848	city	7	1	0.651704	0.651704	0	1	0	0	CorrectCommission	0.985144	0.645480	1
341.962036	0.795743	city	8	1	0.714022	0.714022	0	1	0	0	CorrectCommission	0.422445	0.668749	1
342.757843	0.795846	city	1	1	0.698491	0.698491	0	1	0	0	CorrectCommission	0.562679	0.693634	1
343.553619	0.795748	city	2	1	0.714410	0.714410	0	1	0	0	CorrectCommission	0.418941	0.721140	0
344.349396	0.795767	city	8	1	0.898499	0.898499	0	1	0	0	CorrectCommission	1.243271	0.752087	0
345.145325	0.796137	city	5	1	0.757959	0.757959	0	1	0	0	CorrectCommission	0.025721	0.786725	0
345.941132	0.795485	city	3	1	0.747780	0.747780	0	1	0	0	CorrectCommission	0.117634	0.824592	0
346.736786	0.795806	city	8	1	0.767533	0.767533	0	1	0	0	CorrectCommission	0.060723	0.864294	0
347.532593	0.795823	city	2	1	0.711257	0.711257	0	1	0	0	CorrectCommission	0.447411	0.903613	0
348.328430	0.795827	city	1	1	0.600343	0.600343	0	1	0	0	CorrectCommission	1.448904	0.939686	0
349.124298	0.795883	city	8	1	0.603126	0.603126	0	1	0	0	CorrectCommission	1.423772	0.969352	0
349.920074	0.795697	city	10	1	0.599574	0.599574	0	1	0	0	CorrectCommission	1.455846	0.989623	0
350.715820	0.795807	city	3	1	0.549830	0.549830	0	1	0	0	CorrectCommission	1.905000	0.998080	0
351.511627	0.795819	city	8	1	0.549163	0.549163	0	1	0	0	CorrectCommission	1.911027	0.993191	0
352.307434	0.795774	city	10	1	0.499913	0.499913	0	1	0	0	CorrectCommission	2.355722	0.974550	0
353.103210	0.795781	city	4	1	0.748420	0.748420	0	1	0	0	CorrectCommission	0.111852	0.942915	0
353.899170	0.796101	city	5	1	0.847619	0.847619	0	1	0	0	CorrectCommission	0.783858	0.900160	0
354.695129	0.795845	city	6	1	0.897213	0.897213	0	1	0	0	CorrectCommission	1.231658	0.848845	0
355.490784	0.795448	city	9	1	0.748432	0.748432	0	1	0	0	CorrectCommission	0.111742	0.791982	0
356.286407	0.795843	city	7	1	0.806931	0.806931	0	1	0	0	CorrectCommission	0.416467	0.732772	0
357.082397	0.796110	city	6	1	0.851405	0.851405	0	1	0	0	CorrectCommission	0.818041	0.674159	1
357.878204	0.795489	city	4	1	0.759562	0.759562	0	1	0	0	CorrectCommission	0.011250	0.618675	1
358.673981	0.796094	city	7	1	0.698308	0.698308	0	1	0	0	CorrectCommission	0.564332	0.568423	1
359.469818	0.795559	city	4	1	0.698384	0.698384	0	1	0	0	CorrectCommission	0.563643	0.524963	1
360.265472	0.795754	city	10	1	0.699045	0.699045	0	1	0	0	CorrectCommission	0.557676	0.489398	1
361.061249	0.795785	city	8	1	0.699737	0.699737	0	1	0	0	CorrectCommission	0.551429	0.462451	1
361.857056	0.795819	city	4	1	0.699189	0.699189	0	1	0	0	CorrectCommission	0.556382	0.444496	1
362.653015	0.796113	city	2	1	0.748308	0.748308	0	1	0	0	CorrectCommission	0.112868	0.435634	1
363.448822	0.795503	city	9	1	0.765352	0.765352	0	1	0	0	CorrectCommission	0.041036	0.435649	1
364.244629	0.796104	city	3	1	0.747983	0.747983	0	1	0	0	CorrectCommission	0.115802	0.443956	1
365.040405	0.795449	mountain	10	0	0.000000	0.717972	1	0	0	0	CorrectOmission	0.386777	0.459546	1
365.836029	0.795830	city	4	1	0.719773	0.719773	0	1	0	0	CorrectCommission	0.370518	0.480952	1
366.631836	0.795786	city	9	1	0.797836	0.797836	0	1	0	0	CorrectCommission	0.334345	0.506268	1
367.427673	0.795865	city	1	1	0.754726	0.754726	0	1	0	0	CorrectCommission	0.054916	0.533241	1
368.223633	0.796078	city	2	1	0.816614	0.816614	0	1	0	0	CorrectCommission	0.503903	0.559435	1
369.019592	0.795792	city	8	1	0.847253	0.847253	0	1	0	0	CorrectCommission	0.780555	0.582396	1
369.815216	0.795510	city	9	1	0.897727	0.897727	0	1	0	0	CorrectCommission	1.236299	0.599938	1
370.610870	0.795784	city	7	1	0.847725	0.847725	0	1	0	0	CorrectCommission	0.784817	0.610437	1
371.406799	0.796079	city	8	1	0.958304	0.958304	0	1	0	0	CorrectCommission	1.783278	0.613063	1
372.202606	0.795540	city	1	1	0.700728	0.700728	0	1	0	0	CorrectCommission	0.542485	0.607858	1
372.998322	0.795840	city	5	1	0.661322	0.661322	0	1	0	0	CorrectCommission	0.898295	0.595850	1
373.794098	0.795768	city	2	1	0.698968	0.698968	0	1	0	0	CorrectCommission	0.558375	0.578810	1
374.589905	0.795794	city	9	1	0.811560	0.811560	0	1	0	0	CorrectCommission	0.458264	0.559244	1
375.385834	0.796105	city	2	1	0.748710	0.748710	0	1	0	0	CorrectCommission	0.109233	0.540133	1
376.181793	0.795789	city	1	1	0.747768	0.747768	0	1	0	0	CorrectCommission	0.117743	0.524639	1
376.977448	0.795501	city	7	1	0.698755	0.698755	0	1	0	0	CorrectCommission	0.560296	0.515824	1
377.773102	0.795808	city	4	1	0.704851	0.704851	0	1	0	0	CorrectCommission	0.505254	0.516333	1
378.568909	0.795824	city	5	1	0.748291	0.748291	0	1	0	0	CorrectCommission	0.113018	0.528204	1
379.364716	0.795778	city	7	1	0.755748	0.755748	0	1	0	0	CorrectCommission	0.045684	0.552649	1
380.160461	0.795758	city	2	1	0.748067	0.748067	0	1	0	0	CorrectCommission	0.115039	0.589892	1
380.956268	0.795822	city	8	1	0.658242	0.658242	0	1	0	0	CorrectCommission	0.926107	0.639159	1
381.752075	0.795822	city	6	1	0.698708	0.698708	0	1	0	0	CorrectCommission	0.560724	0.698549	1
382.547913	0.795827	city	10	1	0.699187	0.699187	0	1	0	0	CorrectCommission	0.556400	0.765298	0
383.343719	0.795783	city	2	1	0.654220	0.654220	0	1	0	0	CorrectCommission	0.962426	0.835851	0
384.139526	0.795825	city	4	1	0.748567	0.748567	0	1	0	0	CorrectCommission	0.110526	0.906195	0
384.935486	0.796087	city	6	1	0.797724	0.797724	0	1	0	0	CorrectCommission	0.333336	0.972244	0
385.731262	0.795461	city	7	1	0.764608	0.764608	0	1	0	0	CorrectCommission	0.034317	1.030191	0
386.526886	0.795834	city	5	1	0.996841	0.996841	0	1	0	0	CorrectCommission	2.131240	1.077008	0
387.322693	0.795743	city	9	1	1.295159	1.295159	0	1	0	0	CorrectCommission	4.824879	1.110606	0
388.118652	0.796168	mountain	4	0	0.000000	1.091116	1	0	0	0	CorrectOmission	2.982492	1.130184	0
388.914612	0.795778	city	8	1	0.766740	0.766740	0	1	0	0	CorrectCommission	0.053570	1.136387	0
389.710419	0.795821	city	1	1	0.704060	0.704060	0	1	0	0	CorrectCommission	0.512397	1.131101	0
390.506073	0.795519	city	3	1	0.698312	0.698312	0	1	0	0	CorrectCommission	0.564302	1.116933	0
391.301727	0.795772	city	2	1	0.850318	0.850318	0	1	0	0	CorrectCommission	0.808228	1.096932	0
392.097504	0.795765	city	1	1	0.897541	0.897541	0	1	0	0	CorrectCommission	1.234619	1.074143	0
392.893311	0.795838	city	8	1	0.798626	0.798626	0	1	0	0	CorrectCommission	0.341474	1.051257	0
393.689117	0.795786	city	10	1	0.702245	0.702245	0	1	0	0	CorrectCommission	0.528787	1.030358	0
394.484924	0.795863	city	9	1	0.848415	0.848415	0	1	0	0	CorrectCommission	0.791047	1.012783	0
395.280914	0.796072	city	8	1	0.854387	0.854387	0	1	0	0	CorrectCommission	0.844966	0.999148	0
396.076691	0.795517	city	9	1	1.050417	1.050417	0	1	0	0	CorrectCommission	2.614996	0.989507	0
396.872345	0.795768	city	10	0	0.000000	0.829572	0	0	0	1	OmissionError	0.620900	0.983434	0
397.668121	0.795797	city	3	1	0.611115	0.611115	0	1	0	0	CorrectCommission	1.351639	0.980412	0
398.463928	0.795839	mountain	10	1	0.814306	0.814306	0	0	1	0	CommissionError	0.483063	0.979677	0
399.259735	0.795778	city	5	1	0.648787	0.648787	0	1	0	0	CorrectCommission	1.011478	0.980540	0
400.055542	0.795804	city	4	1	0.799760	0.799760	0	1	0	0	CorrectCommission	0.351720	0.982235	0
400.851471	0.796080	city	5	1	0.847470	0.847470	0	1	0	0	CorrectCommission	0.782514	0.984031	0
401.647278	0.795521	city	6	1	0.958512	0.958512	0	1	0	0	CorrectCommission	1.785157	0.985138	0
402.442963	0.795842	city	2	0	0.000000	0.823324	0	0	0	1	OmissionError	0.564490	0.984783	0
403.238770	0.795793	city	3	1	0.712753	0.712753	0	1	0	0	CorrectCommission	0.433905	0.982222	0
404.034698	0.796074	city	7	1	0.897644	0.897644	0	1	0	0	CorrectCommission	1.235555	0.976847	0
404.830475	0.795441	city	9	1	0.947421	0.947421	0	1	0	0	CorrectCommission	1.685010	0.968065	0
405.626129	0.795854	city	10	1	0.947718	0.947718	0	1	0	0	CorrectCommission	1.687691	0.955714	0
406.422089	0.796091	city	1	0	0.000000	0.837883	0	0	0	1	OmissionError	0.695948	0.940049	0
407.217865	0.795479	city	9	1	0.698059	0.698059	0	1	0	0	CorrectCommission	0.566580	0.921806	0
408.013519	0.795821	city	3	1	0.608388	0.608388	0	1	0	0	CorrectCommission	1.376255	0.902078	0
408.809357	0.795816	city	5	1	0.712099	0.712099	0	1	0	0	CorrectCommission	0.439807	0.882265	0
409.605164	0.795797	city	7	1	0.897970	0.897970	0	1	0	0	CorrectCommission	1.238494	0.864014	0
410.400909	0.795753	city	10	1	0.847835	0.847835	0	1	0	0	CorrectCommission	0.785802	0.848884	0
411.196716	0.795840	city	3	1	0.802769	0.802769	0	1	0	0	CorrectCommission	0.378885	0.838243	0
411.992523	0.795761	city	1	1	0.798008	0.798008	0	1	0	0	CorrectCommission	0.335902	0.832999	0
412.788330	0.795873	city	4	1	0.847598	0.847598	0	1	0	0	CorrectCommission	0.783662	0.833448	0
413.584320	0.796071	city	5	1	0.703042	0.703042	0	1	0	0	CorrectCommission	0.521588	0.839102	0
414.380096	0.795488	city	7	1	0.602922	0.602922	0	1	0	0	CorrectCommission	1.425611	0.848848	0
415.175720	0.795799	city	9	1	0.798695	0.798695	0	1	0	0	CorrectCommission	0.342097	0.860865	0
415.971558	0.795856	city	2	1	0.699379	0.699379	0	1	0	0	CorrectCommission	0.554665	0.872989	0
416.767365	0.795725	city	8	1	0.748261	0.748261	0	1	0	0	CorrectCommission	0.113284	0.882789	0
417.563141	0.795850	city	9	1	1.047395	1.047395	0	1	0	0	CorrectCommission	2.587715	0.887973	0
418.358978	0.795826	city	2	0	0.000000	0.754993	0	0	0	1	OmissionError	0.052505	0.886548	0
419.154816	0.795828	city	6	1	0.459178	0.459178	0	1	0	0	CorrectCommission	2.723538	0.877354	0
419.950745	0.796038	city	1	1	0.748074	0.748074	0	1	0	0	CorrectCommission	0.114977	0.859886	0
420.746674	0.795828	city	8	1	0.996436	0.996436	0	1	0	0	CorrectCommission	2.127587	0.834768	0
421.542328	0.795468	city	7	1	0.816478	0.816478	0	1	0	0	CorrectCommission	0.502673	0.803298	0
422.337952	0.795773	city	9	1	0.897768	0.897768	0	1	0	0	CorrectCommission	1.236675	0.767678	0
423.133881	0.796143	city	1	1	0.753637	0.753637	0	1	0	0	CorrectCommission	0.064748	0.730383	0
423.929871	0.795820	city	7	1	0.749391	0.749391	0	1	0	0	CorrectCommission	0.103081	0.694232	1
424.725555	0.795521	city	4	1	0.847931	0.847931	0	1	0	0	CorrectCommission	0.786672	0.661876	1
425.521179	0.795724	city	1	1	0.748089	0.748089	0	1	0	0	CorrectCommission	0.114842	0.635513	1
426.316956	0.795879	city	8	1	0.801843	0.801843	0	1	0	0	CorrectCommission	0.370527	0.616965	1
427.112793	0.795749	city	10	1	0.699027	0.699027	0	1	0	0	CorrectCommission	0.557845	0.607380	1
427.908600	0.795875	city	4	1	0.711972	0.711972	0	1	0	0	CorrectCommission	0.440953	0.607358	1
428.704559	0.796044	city	5	1	0.797737	0.797737	0	1	0	0	CorrectCommission	0.333446	0.616986	1
429.500488	0.795805	city	7	1	0.698014	0.698014	0	1	0	0	CorrectCommission	0.566989	0.635943	1
430.296143	0.795529	city	1	1	0.698567	0.698567	0	1	0	0	CorrectCommission	0.562000	0.663569	1
431.091797	0.795783	city	3	1	0.648541	0.648541	0	1	0	0	CorrectCommission	1.013702	0.698917	1
431.887604	0.795838	mountain	3	1	0.648797	0.648797	0	0	1	0	CommissionError	1.011390	0.740778	0
432.683563	0.796067	city	4	1	0.708229	0.708229	0	1	0	0	CorrectCommission	0.474752	0.787734	0
433.479370	0.795515	city	3	1	0.698275	0.698275	0	1	0	0	CorrectCommission	0.564629	0.838062	0
434.275024	0.795805	city	5	1	0.899794	0.899794	0	1	0	0	CorrectCommission	1.254961	0.889770	0
435.070953	0.796089	city	10	1	0.748608	0.748608	0	1	0	0	CorrectCommission	0.110156	0.940582	0
435.866791	0.795543	city	5	1	0.797520	0.797520	0	1	0	0	CorrectCommission	0.331491	0.988265	0
436.662598	0.796064	city	2	1	0.798375	0.798375	0	1	0	0	CorrectCommission	0.339213	1.030466	0
437.458344	0.795437	city	8	1	1.096638	1.096638	0	1	0	0	CorrectCommission	3.032349	1.065266	0
438.253998	0.795863	city	4	0	0.000000	0.820461	0	0	0	1	OmissionError	0.538632	1.091221	0
439.049774	0.795740	city	6	1	0.449983	0.449983	0	1	0	0	CorrectCommission	2.806557	1.107974	0
439.845581	0.795846	city	10	1	0.465347	0.465347	0	1	0	0	CorrectCommission	2.667834	1.115979	0
440.641388	0.795781	city	6	1	0.798700	0.798700	0	1	0	0	CorrectCommission	0.342142	1.116776	0
441.437164	0.795778	city	4	1	0.599783	0.599783	0	1	0	0	CorrectCommission	1.453951	1.112787	0
442.233124	0.796153	city	2	1	0.709561	0.709561	0	1	0	0	CorrectCommission	0.462726	1.106761	0
443.028961	0.795470	city	6	1	0.698336	0.698336	0	1	0	0	CorrectCommission	0.564079	1.101573	0
443.824585	0.795782	city	2	1	0.748726	0.748726	0	1	0	0	CorrectCommission	0.109090	1.099627	0
444.620392	0.795875	city	6	1	0.847611	0.847611	0	1	0	0	CorrectCommission	0.783784	1.102517	0
445.416229	0.795806	city	2	1	0.947913	0.947913	0	1	0	0	CorrectCommission	1.689451	1.110735	0
446.212067	0.795816	city	5	1	0.698373	0.698373	0	1	0	0	CorrectCommission	0.563749	1.123631	0
447.007843	0.795737	city	2	1	0.615449	0.615449	0	1	0	0	CorrectCommission	1.312499	1.139592	0
447.803650	0.795871	city	4	1	0.897295	0.897295	0	1	0	0	CorrectCommission	1.232398	1.156139	0
448.599457	0.795760	city	5	1	0.760605	0.760605	0	1	0	0	CorrectCommission	0.001833	1.170439	0
449.395233	0.795775	city	4	1	0.797967	0.797967	0	1	0	0	CorrectCommission	0.335525	1.179775	0
450.191010	0.795787	city	2	1	1.111460	1.111460	0	1	0	0	CorrectCommission	3.166180	1.181872	0
450.986938	0.796120	city	1	1	1.195917	1.195917	0	1	0	0	CorrectCommission	3.928781	1.175190	0
451.782806	0.795567	city	2	0	0.000000	0.940953	0	0	0	1	OmissionError	1.626604	1.159324	0
452.578613	0.796073	city	7	1	0.707670	0.707670	0	1	0	0	CorrectCommission	0.479804	1.135163	0
453.374420	0.795505	city	4	1	0.857171	0.857171	0	1	0	0	CorrectCommission	0.870102	1.104360	0
454.170074	0.795813	city	9	1	0.804536	0.804536	0	1	0	0	CorrectCommission	0.394839	1.069301	0
454.965851	0.795736	city	4	1	0.698525	0.698525	0	1	0	0	CorrectCommission	0.562377	1.032653	0
455.761597	0.795784	city	10	1	0.748952	0.748952	0	1	0	0	CorrectCommission	0.107048	0.997273	0
456.557404	0.795849	city	9	1	0.810664	0.810664	0	1	0	0	CorrectCommission	0.450172	0.965721	0
457.353241	0.795811	city	6	1	0.901991	0.901991	0	1	0	0	CorrectCommission	1.274803	0.940187	0
458.149200	0.796101	mountain	10	0	0.000000	0.956139	1	0	0	0	CorrectOmission	1.763722	0.922451	0
458.945007	0.795507	city	7	1	0.946929	0.946929	0	1	0	0	CorrectCommission	1.680564	0.913743	0
459.740662	0.795800	city	8	1	0.848185	0.848185	0	1	0	0	CorrectCommission	0.788966	0.914796	0
460.536591	0.796051	city	1	1	0.748149	0.748149	0	1	0	0	CorrectCommission	0.114299	0.925775	0
461.332397	0.795567	city	9	1	0.809501	0.809501	0	1	0	0	CorrectCommission	0.439676	0.946201	0
462.128082	0.795825	city	7	1	0.854153	0.854153	0	1	0	0	CorrectCommission	0.842854	0.974825	0
462.923889	0.795777	city	10	1	0.748016	0.748016	0	1	0	0	CorrectCommission	0.115496	1.009624	0
463.719635	0.795728	mountain	5	1	0.698366	0.698366	0	0	1	0	CommissionError	0.563806	1.047993	0
464.515411	0.795834	city	5	1	0.603976	0.603976	0	1	0	0	CorrectCommission	1.416092	1.086778	0
465.311249	0.795827	mountain	9	0	0.000000	0.652002	1	0	0	0	CorrectOmission	0.982446	1.122537	0
466.107086	0.795845	city	3	1	0.797846	0.797846	0	1	0	0	CorrectCommission	0.334432	1.151984	0
466.902893	0.795762	city	4	1	0.996908	0.996908	0	1	0	0	CorrectCommission	2.131843	1.172418	0
467.698822	0.796075	mountain	2	1	1.345327	1.345327	0	0	1	0	CommissionError	5.277860	1.181802	0
468.494629	0.795536	city	7	1	0.798195	0.798195	0	1	0	0	CorrectCommission	0.337586	1.179110	0
469.290283	0.795776	city	9	0	0.000000	0.643989	0	0	0	1	OmissionError	1.054805	1.164840	0
470.086212	0.796114	city	2	1	0.753422	0.753422	0	1	0	0	CorrectCommission	0.066691	1.140413	0
470.882050	0.795546	city	6	1	0.997207	0.997207	0	1	0	0	CorrectCommission	2.134547	1.108170	0
471.677704	0.795747	city	5	1	0.797713	0.797713	0	1	0	0	CorrectCommission	0.333229	1.070894	0
472.473480	0.795839	city	4	1	0.654193	0.654193	0	1	0	0	CorrectCommission	0.962664	1.031621	0
473.269318	0.795814	city	9	1	0.649033	0.649033	0	1	0	0	CorrectCommission	1.009258	0.993032	0
474.065247	0.796049	city	1	1	0.698698	0.698698	0	1	0	0	CorrectCommission	0.560808	0.957224	0
474.861023	0.795477	city	2	1	0.698294	0.698294	0	1	0	0	CorrectCommission	0.564456	0.925480	0
475.656647	0.795803	city	8	1	0.652402	0.652402	0	1	0	0	CorrectCommission	0.978839	0.898129	0
476.452484	0.795855	city	5	1	0.651138	0.651138	0	1	0	0	CorrectCommission	0.990247	0.874566	0
477.248291	0.795787	city	9	1	0.698397	0.698397	0	1	0	0	CorrectCommission	0.563529	0.853549	0
478.044098	0.795806	mountain	8	0	0.000000	0.756564	1	0	0	0	CorrectOmission	0.038320	0.833327	0
478.839905	0.795814	city	2	1	0.848617	0.848617	0	1	0	0	CorrectCommission	0.792866	0.811920	0
479.635712	0.795810	city	4	1	0.997536	0.997536	0	1	0	0	CorrectCommission	2.137517	0.787412	0
480.431519	0.795775	city	3	1	0.902337	0.902337	0	1	0	0	CorrectCommission	1.277925	0.758229	0
481.227295	0.795793	city	1	1	0.763686	0.763686	0	1	0	0	CorrectCommission	0.025989	0.723357	0
482.023102	0.795821	city	6	1	0.996724	0.996724	0	1	0	0	CorrectCommission	2.130186	0.682355	1
482.818909	0.795782	city	2	1	0.847862	0.847862	0	1	0	0	CorrectCommission	0.786053	0.635237	1
483.614685	0.795775	mountain	2	0	0.000000	0.773666	1	0	0	0	CorrectOmission	0.116105	0.582648	1
484.410492	0.795834	city	6	1	0.748400	0.748400	0	1	0	0	CorrectCommission	0.112037	0.525527	1
485.206451	0.796101	mountain	9	0	0.000000	0.746327	1	0	0	0	CorrectOmission	0.130752	0.464861	1
486.002258	0.795530	city	10	1	0.764059	0.764059	0	1	0	0	CorrectCommission	0.029362	0.401858	1
486.797943	0.795823	city	7	1	0.798209	0.798209	0	1	0	0	CorrectCommission	0.337708	0.337708	1
