onset	duration	trial_type	image_type	Press	ReactionTime	ReactionTime_Interpolated	CorrectOmission	CorrectCommission	CommissionError	OmissionError	response_type	nonsmoothVarianceTimeCourse	VarianceTimeCourse	In_the_Zone
8.421652	0.795811	city	2	1	0.699095	0.699095	0	1	0	0	CorrectCommission	0.051773	0.051773	1
9.217463	0.795812	city	1	1	0.513717	0.513717	0	1	0	0	CorrectCommission	1.758271	0.349572	1
10.013410	0.796082	city	7	1	0.499394	0.499394	0	1	0	0	CorrectCommission	1.898124	0.634149	1
10.809208	0.795516	city	9	1	0.450069	0.450069	0	1	0	0	CorrectCommission	2.379741	0.893433	0
11.604847	0.795761	city	10	1	0.454367	0.454367	0	1	0	0	CorrectCommission	2.337776	1.117464	0
12.400635	0.795815	city	8	1	0.450398	0.450398	0	1	0	0	CorrectCommission	2.376526	1.299094	0
13.196616	0.796148	city	10	1	0.406774	0.406774	0	1	0	0	CorrectCommission	2.802474	1.434453	0
13.992412	0.795444	city	7	1	0.399659	0.399659	0	1	0	0	CorrectCommission	2.871943	1.523001	0
14.788218	0.796166	mountain	1	1	0.451232	0.451232	0	0	1	0	CommissionError	2.368387	1.567221	0
15.584057	0.795513	city	7	1	0.516449	0.516449	0	1	0	0	CorrectCommission	1.731598	1.572183	0
16.379713	0.795800	city	3	1	0.499708	0.499708	0	1	0	0	CorrectCommission	1.895061	1.544746	0
17.175522	0.795818	city	5	1	0.550003	0.550003	0	1	0	0	CorrectCommission	1.403974	1.492712	0
17.971289	0.795714	city	3	1	0.798640	0.798640	0	1	0	0	CorrectCommission	1.023740	1.424117	0
18.767073	0.795855	city	2	1	0.563776	0.563776	0	1	0	0	CorrectCommission	1.269495	1.346433	0
19.562897	0.795793	city	6	1	0.751611	0.751611	0	1	0	0	CorrectCommission	0.564547	1.266061	0
20.358696	0.795807	city	8	1	0.599233	0.599233	0	1	0	0	CorrectCommission	0.923282	1.188041	0
21.154514	0.795830	city	2	1	0.561597	0.561597	0	1	0	0	CorrectCommission	1.290770	1.115870	0
21.950291	0.795724	city	4	1	0.713326	0.713326	0	1	0	0	CorrectCommission	0.190729	1.051574	0
22.746077	0.795846	city	8	1	0.606078	0.606078	0	1	0	0	CorrectCommission	0.856446	0.995978	0
23.541904	0.795812	city	9	1	0.599886	0.599886	0	1	0	0	CorrectCommission	0.916914	0.948871	0
24.337860	0.796099	city	6	1	0.599233	0.599233	0	1	0	0	CorrectCommission	0.923281	0.909435	0
25.133677	0.795535	city	1	1	0.549681	0.549681	0	1	0	0	CorrectCommission	1.407120	0.876584	0
25.929342	0.795798	city	7	1	0.599668	0.599668	0	1	0	0	CorrectCommission	0.919040	0.849156	0
26.725134	0.795784	city	5	1	0.565920	0.565920	0	1	0	0	CorrectCommission	1.248560	0.826143	0
27.520926	0.795798	mountain	6	0	0.000000	0.643662	1	0	0	0	CorrectOmission	0.489476	0.806784	0
28.316874	0.796099	city	3	1	0.699153	0.699153	0	1	0	0	CorrectCommission	0.052342	0.790615	0
29.112656	0.795464	city	10	1	0.598650	0.598650	0	1	0	0	CorrectCommission	0.928979	0.777389	0
29.908325	0.795876	city	4	1	0.699060	0.699060	0	1	0	0	CorrectCommission	0.051438	0.767020	0
30.704123	0.795722	city	3	1	0.598929	0.598929	0	1	0	0	CorrectCommission	0.926253	0.759591	0
31.499924	0.795881	city	4	1	0.560197	0.560197	0	1	0	0	CorrectCommission	1.304433	0.755189	0
32.295715	0.795701	city	6	1	0.610905	0.610905	0	1	0	0	CorrectCommission	0.809320	0.753954	0
33.091518	0.795905	city	2	1	0.556597	0.556597	0	1	0	0	CorrectCommission	1.339585	0.756073	0
33.887360	0.795780	city	3	1	0.648816	0.648816	0	1	0	0	CorrectCommission	0.439151	0.761619	0
34.683151	0.795803	city	1	1	0.698356	0.698356	0	1	0	0	CorrectCommission	0.044558	0.770635	0
35.478989	0.795868	city	6	1	0.698605	0.698605	0	1	0	0	CorrectCommission	0.046996	0.783012	0
36.274796	0.795747	city	5	1	0.598803	0.598803	0	1	0	0	CorrectCommission	0.927485	0.798417	0
37.070530	0.795725	city	4	1	0.550408	0.550408	0	1	0	0	CorrectCommission	1.400022	0.816279	0
37.866459	0.796131	city	9	1	0.549173	0.549173	0	1	0	0	CorrectCommission	1.412076	0.835800	0
38.662266	0.795482	city	10	1	0.747734	0.747734	0	1	0	0	CorrectCommission	0.526690	0.855972	0
39.457893	0.795769	city	3	1	0.668368	0.668368	0	1	0	0	CorrectCommission	0.248243	0.875677	0
40.253685	0.795817	city	2	1	0.598853	0.598853	0	1	0	0	CorrectCommission	0.927000	0.893652	0
41.049522	0.795856	city	1	1	0.599290	0.599290	0	1	0	0	CorrectCommission	0.922730	0.908556	0
41.845364	0.795830	city	7	1	0.598870	0.598870	0	1	0	0	CorrectCommission	0.926835	0.919158	0
42.641178	0.795797	city	8	1	0.551940	0.551940	0	1	0	0	CorrectCommission	1.385060	0.924382	0
43.437111	0.796069	city	4	1	0.549529	0.549529	0	1	0	0	CorrectCommission	1.408601	0.923425	0
44.232872	0.795457	city	2	1	0.598561	0.598561	0	1	0	0	CorrectCommission	0.929851	0.915817	0
45.028675	0.796150	city	8	1	0.549907	0.549907	0	1	0	0	CorrectCommission	1.404909	0.901526	0
45.824486	0.795470	mountain	10	0	0.000000	0.575351	1	0	0	0	CorrectOmission	1.156472	0.880879	0
46.620132	0.795820	mountain	4	0	0.000000	0.626812	1	0	0	0	CorrectOmission	0.654006	0.854554	0
47.415958	0.795831	city	7	1	0.656208	0.656208	0	1	0	0	CorrectCommission	0.366972	0.823578	0
48.211761	0.795778	city	9	1	0.615461	0.615461	0	1	0	0	CorrectCommission	0.764835	0.789165	0
49.007710	0.796116	city	2	1	0.653061	0.653061	0	1	0	0	CorrectCommission	0.397704	0.752607	0
49.803482	0.795431	city	1	1	0.598571	0.598571	0	1	0	0	CorrectCommission	0.929752	0.715322	1
50.599281	0.796167	city	8	1	0.556378	0.556378	0	1	0	0	CorrectCommission	1.341727	0.678696	1
51.395134	0.795535	mountain	8	0	0.000000	0.591697	1	0	0	0	CorrectOmission	0.996867	0.644057	1
52.190777	0.795755	mountain	1	0	0.000000	0.655476	1	0	0	0	CorrectOmission	0.374122	0.612627	1
52.986530	0.795748	city	6	1	0.698663	0.698663	0	1	0	0	CorrectCommission	0.047560	0.585433	1
53.782307	0.795809	mountain	10	0	0.000000	0.672206	1	0	0	0	CorrectOmission	0.210773	0.563232	1
54.578110	0.795797	city	5	1	0.660545	0.660545	0	1	0	0	CorrectCommission	0.324630	0.546414	1
55.373947	0.795871	city	4	1	0.748122	0.748122	0	1	0	0	CorrectCommission	0.530480	0.535029	1
56.169754	0.795749	city	3	1	0.699478	0.699478	0	1	0	0	CorrectCommission	0.055521	0.528798	1
56.965553	0.795850	city	10	1	0.648872	0.648872	0	1	0	0	CorrectCommission	0.438604	0.527181	1
57.761353	0.795748	city	5	1	0.614030	0.614030	0	1	0	0	CorrectCommission	0.778802	0.529389	1
58.557152	0.795850	city	7	1	0.599159	0.599159	0	1	0	0	CorrectCommission	0.924008	0.534563	1
59.353134	0.796110	city	4	1	0.748962	0.748962	0	1	0	0	CorrectCommission	0.538683	0.541880	1
60.148956	0.795538	city	9	1	0.618197	0.618197	0	1	0	0	CorrectCommission	0.738123	0.550646	1
60.944576	0.795702	mountain	6	0	0.000000	0.661827	1	0	0	0	CorrectOmission	0.312110	0.560331	1
61.740368	0.795875	city	7	1	0.712511	0.712511	0	1	0	0	CorrectCommission	0.182777	0.570672	1
62.536179	0.795752	city	5	1	0.602907	0.602907	0	1	0	0	CorrectCommission	0.887410	0.581604	1
63.331989	0.795868	city	1	1	0.599029	0.599029	0	1	0	0	CorrectCommission	0.925273	0.593221	1
64.127800	0.795753	city	7	1	0.698651	0.698651	0	1	0	0	CorrectCommission	0.047444	0.605728	1
64.923714	0.796071	city	10	1	0.655511	0.655511	0	1	0	0	CorrectCommission	0.373781	0.619378	1
65.719513	0.795529	city	3	1	0.555380	0.555380	0	1	0	0	CorrectCommission	1.351467	0.634293	1
66.515182	0.795812	city	2	1	0.609200	0.609200	0	1	0	0	CorrectCommission	0.825968	0.650336	1
67.310959	0.795748	city	9	1	0.661616	0.661616	0	1	0	0	CorrectCommission	0.314173	0.667148	1
68.106918	0.796161	city	7	1	0.698648	0.698648	0	1	0	0	CorrectCommission	0.047411	0.684028	1
68.902718	0.795444	city	1	1	0.601859	0.601859	0	1	0	0	CorrectCommission	0.897650	0.699977	1
69.698380	0.795871	city	9	1	0.649131	0.649131	0	1	0	0	CorrectCommission	0.436080	0.713735	1
70.494362	0.796098	city	2	1	0.606144	0.606144	0	1	0	0	CorrectCommission	0.855806	0.723984	1
71.290161	0.795497	mountain	9	1	0.598603	0.598603	0	0	1	0	CommissionError	0.929434	0.729451	1
72.085815	0.795821	city	10	1	0.599769	0.599769	0	1	0	0	CorrectCommission	0.918050	0.729109	1
72.881630	0.795799	city	4	1	0.599283	0.599283	0	1	0	0	CorrectCommission	0.922802	0.722372	1
73.677414	0.795776	city	6	1	0.549857	0.549857	0	1	0	0	CorrectCommission	1.405399	0.709216	1
74.473213	0.795820	city	3	1	0.549670	0.549670	0	1	0	0	CorrectCommission	1.407226	0.690176	1
75.269157	0.796065	city	10	1	0.599129	0.599129	0	1	0	0	CorrectCommission	0.924297	0.666355	1
76.065102	0.795822	city	1	1	0.662413	0.662413	0	1	0	0	CorrectCommission	0.306386	0.639369	1
76.860756	0.795492	city	6	1	0.698893	0.698893	0	1	0	0	CorrectCommission	0.049805	0.611046	1
77.656563	0.796123	city	4	1	0.698583	0.698583	0	1	0	0	CorrectCommission	0.046776	0.583255	1
78.452347	0.795450	city	6	1	0.748014	0.748014	0	1	0	0	CorrectCommission	0.529423	0.557731	1
79.247993	0.795836	city	5	1	0.698390	0.698390	0	1	0	0	CorrectCommission	0.044892	0.535932	1
80.043839	0.795854	city	10	1	0.649774	0.649774	0	1	0	0	CorrectCommission	0.429799	0.518993	1
80.839638	0.795742	city	4	1	0.847766	0.847766	0	1	0	0	CorrectCommission	1.503412	0.507683	1
81.635429	0.795842	city	3	1	0.705961	0.705961	0	1	0	0	CorrectCommission	0.118819	0.502374	1
82.431259	0.795819	city	1	1	0.660162	0.660162	0	1	0	0	CorrectCommission	0.328372	0.503258	1
83.227203	0.796069	mountain	6	0	0.000000	0.700891	1	0	0	0	CorrectOmission	0.069309	0.510212	1
84.023003	0.795534	city	3	1	0.757715	0.757715	0	1	0	0	CorrectCommission	0.624146	0.522968	1
84.818665	0.795787	city	4	1	0.760201	0.760201	0	1	0	0	CorrectCommission	0.648424	0.541085	1
85.614433	0.795751	city	6	1	0.648556	0.648556	0	1	0	0	CorrectCommission	0.441695	0.564024	1
86.410217	0.795808	city	5	1	0.606077	0.606077	0	1	0	0	CorrectCommission	0.856458	0.591074	1
87.206001	0.795763	city	10	1	0.700133	0.700133	0	1	0	0	CorrectCommission	0.061914	0.621396	1
88.001823	0.795890	mountain	6	0	0.000000	0.746930	1	0	0	0	CorrectOmission	0.518839	0.654054	1
88.797676	0.795803	city	7	1	0.748102	0.748102	0	1	0	0	CorrectCommission	0.530289	0.687988	1
89.593430	0.795708	mountain	9	0	0.000000	0.705287	1	0	0	0	CorrectOmission	0.112238	0.722191	1
90.389206	0.795854	city	5	1	0.748154	0.748154	0	1	0	0	CorrectCommission	0.530796	0.755807	0
91.185059	0.795842	city	9	1	1.006373	1.006373	0	1	0	0	CorrectCommission	3.052072	0.788146	0
91.980835	0.795707	city	2	1	0.798053	0.798053	0	1	0	0	CorrectCommission	1.018012	0.818747	0
92.776619	0.795863	city	7	1	0.750839	0.750839	0	1	0	0	CorrectCommission	0.557009	0.847630	0
93.572548	0.796001	city	6	1	0.698448	0.698448	0	1	0	0	CorrectCommission	0.045462	0.875066	0
94.368355	0.795612	city	2	1	0.650050	0.650050	0	1	0	0	CorrectCommission	0.427107	0.901526	0
95.164078	0.795827	city	10	1	0.798811	0.798811	0	1	0	0	CorrectCommission	1.025412	0.927474	0
95.959869	0.795763	city	7	1	0.452489	0.452489	0	1	0	0	CorrectCommission	2.356106	0.953234	0
96.755630	0.795756	city	2	1	0.649870	0.649870	0	1	0	0	CorrectCommission	0.428865	0.978831	0
97.551437	0.795864	mountain	3	0	0.000000	0.754326	1	0	0	0	CorrectOmission	0.591063	1.003985	0
98.347260	0.795784	city	7	1	0.748156	0.748156	0	1	0	0	CorrectCommission	0.530811	1.027799	0
99.143211	0.796115	city	9	1	0.613653	0.613653	0	1	0	0	CorrectCommission	0.782489	1.049014	0
99.939163	0.795793	city	7	1	0.599417	0.599417	0	1	0	0	CorrectCommission	0.921489	1.066064	0
100.734818	0.795508	city	5	1	0.515846	0.515846	0	1	0	0	CorrectCommission	1.737484	1.077324	0
101.530487	0.795837	city	2	1	0.549074	0.549074	0	1	0	0	CorrectCommission	1.413041	1.081320	0
102.326294	0.795778	city	1	1	0.509062	0.509062	0	1	0	0	CorrectCommission	1.803724	1.077057	0
103.122101	0.795828	mountain	10	1	0.549393	0.549393	0	0	1	0	CommissionError	1.409933	1.064237	0
103.918037	0.796043	city	3	1	0.616467	0.616467	0	1	0	0	CorrectCommission	0.755011	1.043421	0
104.713829	0.795544	city	1	1	0.549077	0.549077	0	1	0	0	CorrectCommission	1.413010	1.016073	0
105.509499	0.795791	city	3	1	0.500902	0.500902	0	1	0	0	CorrectCommission	1.883398	0.984374	0
106.305267	0.795756	city	5	1	0.599244	0.599244	0	1	0	0	CorrectCommission	0.923176	0.951044	0
107.101212	0.796123	city	7	1	0.748144	0.748144	0	1	0	0	CorrectCommission	0.530692	0.919081	0
107.897034	0.795519	city	5	1	0.698240	0.698240	0	1	0	0	CorrectCommission	0.043432	0.891273	0
108.692673	0.795768	city	3	1	0.648929	0.648929	0	1	0	0	CorrectCommission	0.438046	0.869837	0
109.488480	0.795845	city	2	1	0.749025	0.749025	0	1	0	0	CorrectCommission	0.539297	0.856181	0
110.284264	0.795716	city	1	1	0.698357	0.698357	0	1	0	0	CorrectCommission	0.044571	0.850691	0
111.080055	0.795875	mountain	1	0	0.000000	0.760243	1	0	0	0	CorrectOmission	0.648831	0.852742	0
111.876030	0.796075	mountain	3	0	0.000000	0.842414	1	0	0	0	CorrectOmission	1.451154	0.860737	0
112.671806	0.795469	city	7	1	0.852600	0.852600	0	1	0	0	CorrectCommission	1.550620	0.872340	0
113.467606	0.796127	city	5	1	0.698535	0.698535	0	1	0	0	CorrectCommission	0.046308	0.884805	0
114.263420	0.795506	city	8	1	0.649030	0.649030	0	1	0	0	CorrectCommission	0.437062	0.895452	0
115.059052	0.795755	city	9	1	0.553587	0.553587	0	1	0	0	CorrectCommission	1.368977	0.901845	0
115.854881	0.795908	city	5	1	0.508753	0.508753	0	1	0	0	CorrectCommission	1.806737	0.902082	0
116.650856	0.796045	city	2	1	0.499869	0.499869	0	1	0	0	CorrectCommission	1.893488	0.895052	0
117.446609	0.795458	city	10	1	0.598566	0.598566	0	1	0	0	CorrectCommission	0.929797	0.880528	0
118.242264	0.795860	city	9	1	0.600200	0.600200	0	1	0	0	CorrectCommission	0.913844	0.859132	0
119.038116	0.795835	city	3	1	0.606403	0.606403	0	1	0	0	CorrectCommission	0.853281	0.832192	0
119.834061	0.796056	city	4	1	0.658186	0.658186	0	1	0	0	CorrectCommission	0.347664	0.801474	0
120.629997	0.795823	city	10	1	0.665177	0.665177	0	1	0	0	CorrectCommission	0.279404	0.769011	0
121.425629	0.795443	city	9	1	0.748533	0.748533	0	1	0	0	CorrectCommission	0.534494	0.736847	0
122.221329	0.795944	city	10	1	0.798549	0.798549	0	1	0	0	CorrectCommission	1.022856	0.706780	1
123.017151	0.795705	city	5	1	0.710953	0.710953	0	1	0	0	CorrectCommission	0.167558	0.680257	1
123.813049	0.796089	city	3	1	0.814436	0.814436	0	1	0	0	CorrectCommission	1.177974	0.658354	1
124.608856	0.795530	city	6	1	0.809674	0.809674	0	1	0	0	CorrectCommission	1.131483	0.641626	1
125.404526	0.795803	city	8	1	0.701995	0.701995	0	1	0	0	CorrectCommission	0.080089	0.630219	1
126.200470	0.796084	city	7	1	0.699044	0.699044	0	1	0	0	CorrectCommission	0.051282	0.623881	1
126.996407	0.795801	city	8	1	0.748046	0.748046	0	1	0	0	CorrectCommission	0.529736	0.621948	1
127.792076	0.795536	city	4	1	0.698323	0.698323	0	1	0	0	CorrectCommission	0.044240	0.623475	1
128.587708	0.795716	city	9	1	0.748073	0.748073	0	1	0	0	CorrectCommission	0.530002	0.627348	1
129.383453	0.795793	city	7	1	0.800353	0.800353	0	1	0	0	CorrectCommission	1.040469	0.632290	1
130.179260	0.795806	city	4	1	0.897657	0.897657	0	1	0	0	CorrectCommission	1.990556	0.637029	1
130.975250	0.796163	city	2	1	0.748623	0.748623	0	1	0	0	CorrectCommission	0.535372	0.640489	1
131.771225	0.795799	city	7	1	0.700559	0.700559	0	1	0	0	CorrectCommission	0.066068	0.641899	1
132.566864	0.795482	mountain	3	0	0.000000	0.701849	1	0	0	0	CorrectOmission	0.078665	0.640753	1
133.362503	0.795782	city	1	1	0.752039	0.752039	0	1	0	0	CorrectCommission	0.568731	0.636927	1
134.158279	0.795795	city	6	1	0.850676	0.850676	0	1	0	0	CorrectCommission	1.531833	0.630729	1
134.954269	0.796156	city	1	1	0.749529	0.749529	0	1	0	0	CorrectCommission	0.544224	0.623014	1
135.750092	0.795503	city	8	1	0.748565	0.748565	0	1	0	0	CorrectCommission	0.534810	0.615097	1
136.545883	0.796077	city	4	1	0.797797	0.797797	0	1	0	0	CorrectCommission	1.015510	0.608687	1
137.341675	0.795502	city	3	1	0.649108	0.649108	0	1	0	0	CorrectCommission	0.436297	0.605704	1
138.137482	0.796124	city	1	1	0.601305	0.601305	0	1	0	0	CorrectCommission	0.903054	0.608113	1
138.933289	0.795477	city	10	1	0.657762	0.657762	0	1	0	0	CorrectCommission	0.351799	0.617638	1
139.728943	0.795828	city	8	1	0.711118	0.711118	0	1	0	0	CorrectCommission	0.169166	0.635521	1
140.524719	0.795744	city	7	1	0.701806	0.701806	0	1	0	0	CorrectCommission	0.078252	0.662247	1
141.320496	0.795797	city	6	1	0.698475	0.698475	0	1	0	0	CorrectCommission	0.045727	0.697389	1
142.116287	0.795796	city	9	1	0.710557	0.710557	0	1	0	0	CorrectCommission	0.163693	0.739551	0
142.912094	0.795809	mountain	5	0	0.000000	0.776592	1	0	0	0	CorrectOmission	0.808469	0.786506	0
143.707932	0.795863	city	9	1	0.816035	0.816035	0	1	0	0	CorrectCommission	1.193591	0.835390	0
144.503754	0.795774	city	3	1	0.748339	0.748339	0	1	0	0	CorrectCommission	0.532596	0.882987	0
145.299683	0.796082	city	1	1	0.748344	0.748344	0	1	0	0	CorrectCommission	0.532646	0.926232	0
146.095459	0.795474	city	2	1	0.947018	0.947018	0	1	0	0	CorrectCommission	2.472523	0.962500	0
146.891266	0.796155	mountain	10	0	0.000000	0.954414	1	0	0	0	CorrectOmission	2.544742	0.989881	0
147.687073	0.795466	city	2	1	0.859352	0.859352	0	1	0	0	CorrectCommission	1.616544	1.007532	0
148.482758	0.795885	city	3	1	0.750651	0.750651	0	1	0	0	CorrectCommission	0.555172	1.015748	0
149.278549	0.795697	city	5	1	0.698632	0.698632	0	1	0	0	CorrectCommission	0.047251	1.015819	0
150.074341	0.795893	city	10	1	0.897746	0.897746	0	1	0	0	CorrectCommission	1.991428	1.009798	0
150.870331	0.796081	city	2	1	0.698574	0.698574	0	1	0	0	CorrectCommission	0.046686	1.000128	0
151.666138	0.795536	city	6	1	0.561040	0.561040	0	1	0	0	CorrectCommission	1.296204	0.989520	0
152.461792	0.795784	city	1	1	0.605575	0.605575	0	1	0	0	CorrectCommission	0.861362	0.980427	0
153.257568	0.795761	city	4	1	0.698370	0.698370	0	1	0	0	CorrectCommission	0.044700	0.974917	0
154.053375	0.795841	mountain	5	0	0.000000	0.833641	1	0	0	0	CorrectOmission	1.365502	0.974429	0
154.849197	0.795809	city	4	1	0.866474	0.866474	0	1	0	0	CorrectCommission	1.686082	0.979545	0
155.645004	0.795805	city	6	1	0.651953	0.651953	0	1	0	0	CorrectCommission	0.408525	0.990079	0
156.440933	0.796068	mountain	4	0	0.000000	0.627717	1	0	0	0	CorrectOmission	0.645161	1.005136	0
157.236740	0.795525	city	8	1	0.656153	0.656153	0	1	0	0	CorrectCommission	0.367513	1.023093	0
158.032532	0.796059	city	6	1	0.599644	0.599644	0	1	0	0	CorrectCommission	0.919270	1.041862	0
158.828323	0.795543	city	4	1	0.499818	0.499818	0	1	0	0	CorrectCommission	1.893982	1.059044	0
159.623962	0.795720	city	9	1	0.601131	0.601131	0	1	0	0	CorrectCommission	0.904755	1.072218	0
160.419769	0.795903	city	3	1	0.550645	0.550645	0	1	0	0	CorrectCommission	1.397700	1.079246	0
161.215607	0.795755	city	2	1	0.555955	0.555955	0	1	0	0	CorrectCommission	1.345858	1.078382	0
162.011353	0.795746	city	8	1	0.599569	0.599569	0	1	0	0	CorrectCommission	0.920003	1.068543	0
162.807175	0.795895	city	7	1	0.516627	0.516627	0	1	0	0	CorrectCommission	1.729859	1.049448	0
163.602982	0.795722	mountain	2	0	0.000000	0.507907	1	0	0	0	CorrectOmission	1.815004	1.021457	0
164.398773	0.795864	mountain	5	0	0.000000	0.545581	1	0	0	0	CorrectOmission	1.447147	0.985645	0
165.194611	0.795800	mountain	4	0	0.000000	0.601823	1	0	0	0	CorrectOmission	0.897995	0.943642	0
165.990372	0.795749	city	8	1	0.648805	0.648805	0	1	0	0	CorrectCommission	0.439255	0.897390	0
166.786179	0.795856	city	4	1	0.658701	0.658701	0	1	0	0	CorrectCommission	0.342636	0.848910	0
167.581970	0.795726	city	5	1	0.653227	0.653227	0	1	0	0	CorrectCommission	0.396084	0.800005	0
168.377747	0.795827	city	3	1	0.648811	0.648811	0	1	0	0	CorrectCommission	0.439203	0.752207	0
169.173553	0.795798	city	4	1	0.815277	0.815277	0	1	0	0	CorrectCommission	1.186189	0.706566	1
169.969376	0.795828	city	2	1	0.707534	0.707534	0	1	0	0	CorrectCommission	0.134174	0.663682	1
170.765335	0.796100	city	5	1	0.599201	0.599201	0	1	0	0	CorrectCommission	0.923598	0.623874	1
171.561172	0.795555	city	3	1	0.801818	0.801818	0	1	0	0	CorrectCommission	1.054772	0.587096	1
172.356827	0.795779	city	5	1	0.749603	0.749603	0	1	0	0	CorrectCommission	0.544938	0.553163	1
173.152618	0.795802	city	9	1	0.748318	0.748318	0	1	0	0	CorrectCommission	0.532399	0.521902	1
173.948395	0.795725	city	3	1	0.698978	0.698978	0	1	0	0	CorrectCommission	0.050632	0.493166	1
174.744156	0.795798	city	6	1	0.650290	0.650290	0	1	0	0	CorrectCommission	0.424759	0.466928	1
175.539948	0.795799	city	5	1	0.648735	0.648735	0	1	0	0	CorrectCommission	0.439947	0.443211	1
176.335754	0.795803	city	4	1	0.661231	0.661231	0	1	0	0	CorrectCommission	0.317929	0.422119	1
177.131592	0.795887	city	3	1	0.708460	0.708460	0	1	0	0	CorrectCommission	0.143221	0.403857	1
177.927429	0.795774	city	2	1	0.801547	0.801547	0	1	0	0	CorrectCommission	1.052126	0.388616	1
178.723206	0.795793	city	6	1	0.706083	0.706083	0	1	0	0	CorrectCommission	0.120005	0.376533	1
179.519028	0.795841	city	1	1	0.705224	0.705224	0	1	0	0	CorrectCommission	0.111617	0.367746	1
180.314850	0.795819	city	4	1	0.661074	0.661074	0	1	0	0	CorrectCommission	0.319462	0.362286	1
181.110794	0.796048	city	7	1	0.698364	0.698364	0	1	0	0	CorrectCommission	0.044644	0.360058	1
181.906570	0.795530	city	8	1	0.698090	0.698090	0	1	0	0	CorrectCommission	0.041962	0.360929	1
182.702377	0.796064	city	10	1	0.603866	0.603866	0	1	0	0	CorrectCommission	0.878049	0.364725	1
183.498138	0.795463	city	7	1	0.610318	0.610318	0	1	0	0	CorrectCommission	0.815052	0.371221	1
184.293777	0.795807	city	3	1	0.702719	0.702719	0	1	0	0	CorrectCommission	0.087160	0.380245	1
185.089752	0.796149	city	8	1	0.698726	0.698726	0	1	0	0	CorrectCommission	0.048178	0.391746	1
185.885574	0.795505	city	7	1	0.665579	0.665579	0	1	0	0	CorrectCommission	0.275477	0.405728	1
186.681259	0.795845	city	9	1	0.649110	0.649110	0	1	0	0	CorrectCommission	0.436284	0.422296	1
187.477066	0.795786	city	4	1	0.649081	0.649081	0	1	0	0	CorrectCommission	0.436563	0.441653	1
188.272980	0.796048	city	8	1	0.715157	0.715157	0	1	0	0	CorrectCommission	0.208604	0.464013	1
189.068802	0.795569	mountain	4	0	0.000000	0.781681	1	0	0	0	CorrectOmission	0.858155	0.489579	1
189.864441	0.795708	city	7	1	0.798123	0.798123	0	1	0	0	CorrectCommission	1.018701	0.518383	1
190.660187	0.795792	city	6	1	0.713954	0.713954	0	1	0	0	CorrectCommission	0.196857	0.550217	1
191.456146	0.796140	mountain	2	0	0.000000	0.726884	1	0	0	0	CorrectOmission	0.323114	0.584626	1
192.251953	0.795468	city	9	1	0.750479	0.750479	0	1	0	0	CorrectCommission	0.553500	0.620661	1
193.047607	0.795842	city	2	1	0.698303	0.698303	0	1	0	0	CorrectCommission	0.044043	0.656976	1
193.843445	0.795829	city	3	1	0.748442	0.748442	0	1	0	0	CorrectCommission	0.533606	0.691931	1
194.639252	0.795781	city	8	1	0.705116	0.705116	0	1	0	0	CorrectCommission	0.110564	0.723631	1
195.435043	0.795804	city	4	1	0.848467	0.848467	0	1	0	0	CorrectCommission	1.510261	0.750202	0
196.230820	0.795751	city	5	1	0.797916	0.797916	0	1	0	0	CorrectCommission	1.016674	0.769993	0
197.026779	0.796162	city	6	1	0.864170	0.864170	0	1	0	0	CorrectCommission	1.663582	0.781917	0
197.822617	0.795517	city	1	1	0.897121	0.897121	0	1	0	0	CorrectCommission	1.985325	0.785524	0
198.618408	0.796085	city	6	1	0.804789	0.804789	0	1	0	0	CorrectCommission	1.083782	0.781162	0
199.414352	0.795791	city	4	1	0.713146	0.713146	0	1	0	0	CorrectCommission	0.188977	0.769932	0
200.210007	0.795528	city	10	1	0.610462	0.610462	0	1	0	0	CorrectCommission	0.813643	0.753506	0
201.005646	0.795738	city	3	1	0.700966	0.700966	0	1	0	0	CorrectCommission	0.070049	0.733865	1
201.801468	0.795894	city	6	1	0.599196	0.599196	0	1	0	0	CorrectCommission	0.923645	0.713159	1
202.597305	0.795782	city	10	1	0.651827	0.651827	0	1	0	0	CorrectCommission	0.409753	0.693373	1
203.393082	0.795772	city	1	1	0.699011	0.699011	0	1	0	0	CorrectCommission	0.050957	0.676243	1
204.188889	0.795842	city	4	1	0.798065	0.798065	0	1	0	0	CorrectCommission	1.018129	0.663068	1
204.984818	0.796038	city	8	1	0.748341	0.748341	0	1	0	0	CorrectCommission	0.532618	0.654640	1
205.780762	0.795841	city	9	1	0.701871	0.701871	0	1	0	0	CorrectCommission	0.078886	0.651365	1
206.576416	0.795477	city	7	1	0.849956	0.849956	0	1	0	0	CorrectCommission	1.524802	0.653238	1
207.372070	0.795834	city	8	1	0.716248	0.716248	0	1	0	0	CorrectCommission	0.219257	0.659855	1
208.167892	0.795808	city	4	1	0.748174	0.748174	0	1	0	0	CorrectCommission	0.530992	0.670648	1
208.963837	0.796071	city	3	1	0.864474	0.864474	0	1	0	0	CorrectCommission	1.666554	0.684745	1
209.759766	0.795782	city	8	1	0.748641	0.748641	0	1	0	0	CorrectCommission	0.535546	0.701001	1
210.555420	0.795537	city	10	1	0.701551	0.701551	0	1	0	0	CorrectCommission	0.075756	0.718135	1
211.351105	0.795836	city	8	1	0.698347	0.698347	0	1	0	0	CorrectCommission	0.044469	0.734621	0
212.146927	0.795800	city	1	1	0.698288	0.698288	0	1	0	0	CorrectCommission	0.043901	0.748807	0
212.942703	0.795749	city	2	1	0.767109	0.767109	0	1	0	0	CorrectCommission	0.715877	0.758964	0
213.738495	0.795835	city	1	1	0.897346	0.897346	0	1	0	0	CorrectCommission	1.987524	0.763491	0
214.534302	0.795786	city	5	1	0.857548	0.857548	0	1	0	0	CorrectCommission	1.598924	0.761081	0
215.330063	0.795747	mountain	1	0	0.000000	0.843405	1	0	0	0	CorrectOmission	1.460830	0.750957	0
216.125839	0.795795	city	4	1	0.798223	0.798223	0	1	0	0	CorrectCommission	1.019677	0.732981	1
216.921661	0.795845	city	8	1	0.665311	0.665311	0	1	0	0	CorrectCommission	0.278097	0.707716	1
217.717636	0.796111	city	10	1	0.649157	0.649157	0	1	0	0	CorrectCommission	0.435825	0.676366	1
218.513443	0.795506	city	1	1	0.598840	0.598840	0	1	0	0	CorrectCommission	0.927119	0.640669	1
219.309082	0.795775	city	6	1	0.649108	0.649108	0	1	0	0	CorrectCommission	0.436299	0.602663	1
220.104904	0.795867	city	5	1	0.648899	0.648899	0	1	0	0	CorrectCommission	0.438344	0.564646	1
220.900742	0.795795	city	2	1	0.658283	0.658283	0	1	0	0	CorrectCommission	0.346715	0.528910	1
221.696518	0.795767	mountain	5	0	0.000000	0.721711	1	0	0	0	CorrectOmission	0.272604	0.497531	1
222.492310	0.795822	city	10	1	0.750546	0.750546	0	1	0	0	CorrectCommission	0.554154	0.472312	1
223.288116	0.795786	city	3	1	0.656152	0.656152	0	1	0	0	CorrectCommission	0.367522	0.454674	1
224.084061	0.796091	mountain	8	0	0.000000	0.667751	1	0	0	0	CorrectOmission	0.254266	0.445628	1
224.879852	0.795491	city	8	1	0.707876	0.707876	0	1	0	0	CorrectCommission	0.137518	0.445668	1
225.675491	0.795805	city	4	1	0.699059	0.699059	0	1	0	0	CorrectCommission	0.051422	0.454845	1
226.471298	0.795802	city	7	1	0.649569	0.649569	0	1	0	0	CorrectCommission	0.431803	0.472746	1
227.267120	0.795828	city	4	1	0.609182	0.609182	0	1	0	0	CorrectCommission	0.826141	0.498573	1
228.062927	0.795799	city	5	1	0.648942	0.648942	0	1	0	0	CorrectCommission	0.437921	0.531237	1
228.858749	0.795829	city	7	1	0.698290	0.698290	0	1	0	0	CorrectCommission	0.043917	0.569390	1
229.654541	0.795774	city	9	1	0.652388	0.652388	0	1	0	0	CorrectCommission	0.404278	0.611481	1
230.450333	0.795806	mountain	1	0	0.000000	0.717579	1	0	0	0	CorrectOmission	0.232260	0.655836	1
231.246124	0.795784	city	2	1	0.798074	0.798074	0	1	0	0	CorrectCommission	1.018214	0.700765	1
232.041916	0.795787	city	7	1	0.798080	0.798080	0	1	0	0	CorrectCommission	1.018272	0.744663	0
232.837723	0.795826	mountain	8	0	0.000000	0.846041	1	0	0	0	CorrectOmission	1.486572	0.786113	0
233.633514	0.795751	city	9	1	0.848242	0.848242	0	1	0	0	CorrectCommission	1.508060	0.823884	0
234.429306	0.795832	city	8	1	0.710965	0.710965	0	1	0	0	CorrectCommission	0.167681	0.857025	0
235.225128	0.795814	city	4	1	0.801304	0.801304	0	1	0	0	CorrectCommission	1.049760	0.884865	0
236.020950	0.795826	city	7	1	0.797880	0.797880	0	1	0	0	CorrectCommission	1.016319	0.906861	0
236.816757	0.795794	city	9	1	0.710877	0.710877	0	1	0	0	CorrectCommission	0.166815	0.922718	0
237.612549	0.795804	city	5	1	0.748339	0.748339	0	1	0	0	CorrectCommission	0.532602	0.932323	0
238.408371	0.795825	city	10	1	0.798142	0.798142	0	1	0	0	CorrectCommission	1.018880	0.935706	0
239.204163	0.795772	city	7	1	1.047182	1.047182	0	1	0	0	CorrectCommission	3.450535	0.933038	0
239.999969	0.795826	city	8	1	0.767369	0.767369	0	1	0	0	CorrectCommission	0.718410	0.924559	0
240.795898	0.796049	mountain	2	0	0.000000	0.727517	1	0	0	0	CorrectOmission	0.329289	0.910831	0
241.591843	0.795830	city	4	1	0.747790	0.747790	0	1	0	0	CorrectCommission	0.527244	0.892440	0
242.387497	0.795485	city	8	1	0.648355	0.648355	0	1	0	0	CorrectCommission	0.443649	0.870045	0
243.183151	0.795809	city	1	1	0.520157	0.520157	0	1	0	0	CorrectCommission	1.695396	0.844284	0
243.978958	0.795819	city	10	1	0.812482	0.812482	0	1	0	0	CorrectCommission	1.158896	0.815773	0
244.774765	0.795806	city	2	1	0.707848	0.707848	0	1	0	0	CorrectCommission	0.137243	0.785160	0
245.570572	0.795796	city	10	1	0.705752	0.705752	0	1	0	0	CorrectCommission	0.116777	0.753125	0
246.366516	0.796085	city	1	1	0.748724	0.748724	0	1	0	0	CorrectCommission	0.536361	0.720377	1
247.162323	0.795530	city	10	1	0.848114	0.848114	0	1	0	0	CorrectCommission	1.506811	0.687757	1
247.957962	0.795748	city	1	1	0.847621	0.847621	0	1	0	0	CorrectCommission	1.501996	0.656278	1
248.753738	0.795811	city	10	1	0.749013	0.749013	0	1	0	0	CorrectCommission	0.539181	0.627101	1
249.549561	0.795839	city	9	1	0.748159	0.748159	0	1	0	0	CorrectCommission	0.530845	0.601570	1
250.345520	0.796075	city	1	1	0.699004	0.699004	0	1	0	0	CorrectCommission	0.050890	0.581027	1
251.141312	0.795504	city	6	1	0.710728	0.710728	0	1	0	0	CorrectCommission	0.165360	0.566732	1
251.937119	0.796106	city	8	1	0.649431	0.649431	0	1	0	0	CorrectCommission	0.433145	0.559727	1
252.732925	0.795507	city	4	1	0.698783	0.698783	0	1	0	0	CorrectCommission	0.048733	0.560647	1
253.528717	0.796094	city	5	1	0.611689	0.611689	0	1	0	0	CorrectCommission	0.801665	0.569653	1
254.324493	0.795446	city	3	1	0.710065	0.710065	0	1	0	0	CorrectCommission	0.158886	0.586332	1
255.120117	0.795795	city	9	1	0.699294	0.699294	0	1	0	0	CorrectCommission	0.053716	0.609769	1
255.915939	0.795856	city	7	1	0.648705	0.648705	0	1	0	0	CorrectCommission	0.440233	0.638583	1
256.711761	0.795798	mountain	2	0	0.000000	0.797904	1	0	0	0	CorrectOmission	1.016556	0.670878	1
257.507568	0.795812	city	2	1	0.897648	0.897648	0	1	0	0	CorrectCommission	1.990469	0.704594	1
258.303528	0.796100	city	6	1	0.698697	0.698697	0	1	0	0	CorrectCommission	0.047893	0.737620	0
259.099335	0.795506	city	9	1	0.599001	0.599001	0	1	0	0	CorrectCommission	0.925548	0.767979	0
259.894958	0.795760	city	2	1	0.599215	0.599215	0	1	0	0	CorrectCommission	0.923463	0.793799	0
260.690918	0.796126	mountain	3	1	0.750317	0.750317	0	0	1	0	CommissionError	0.551910	0.813576	0
261.486877	0.795827	city	3	1	0.699064	0.699064	0	1	0	0	CorrectCommission	0.051474	0.826280	0
262.282532	0.795492	city	9	1	0.549252	0.549252	0	1	0	0	CorrectCommission	1.411300	0.831515	0
263.078156	0.795768	city	10	1	0.468372	0.468372	0	1	0	0	CorrectCommission	2.201026	0.829388	0
263.873932	0.795773	city	2	1	0.599246	0.599246	0	1	0	0	CorrectCommission	0.923160	0.820667	0
264.669739	0.795802	city	7	1	0.599797	0.599797	0	1	0	0	CorrectCommission	0.917780	0.806785	0
265.465576	0.795881	city	8	1	0.599274	0.599274	0	1	0	0	CorrectCommission	0.922887	0.789637	0
266.261414	0.795797	city	1	1	0.613349	0.613349	0	1	0	0	CorrectCommission	0.785457	0.771500	0
267.057159	0.795735	city	9	1	0.649322	0.649322	0	1	0	0	CorrectCommission	0.434214	0.754741	0
267.852997	0.795886	city	10	1	0.649398	0.649398	0	1	0	0	CorrectCommission	0.433472	0.741647	0
268.648804	0.795779	mountain	3	0	0.000000	0.667092	1	0	0	0	CorrectOmission	0.260700	0.734147	0
269.444733	0.796060	city	5	1	0.700651	0.700651	0	1	0	0	CorrectCommission	0.066966	0.733644	1
270.240540	0.795526	city	1	1	0.748317	0.748317	0	1	0	0	CorrectCommission	0.532390	0.740896	0
271.036194	0.795811	city	4	1	0.847848	0.847848	0	1	0	0	CorrectCommission	1.504213	0.755860	0
271.832031	0.795826	city	3	1	0.698365	0.698365	0	1	0	0	CorrectCommission	0.044653	0.777758	0
272.627808	0.795774	city	7	1	0.698278	0.698278	0	1	0	0	CorrectCommission	0.043802	0.805227	0
273.423615	0.795809	city	5	1	0.467339	0.467339	0	1	0	0	CorrectCommission	2.211116	0.836262	0
274.219421	0.795806	mountain	3	0	0.000000	0.552497	1	0	0	0	CorrectOmission	1.379616	0.868353	0
275.015350	0.796076	city	8	1	0.698400	0.698400	0	1	0	0	CorrectCommission	0.044993	0.898783	0
275.811157	0.795505	city	6	1	0.649692	0.649692	0	1	0	0	CorrectCommission	0.430599	0.924843	0
276.606812	0.795826	city	1	1	0.748433	0.748433	0	1	0	0	CorrectCommission	0.533516	0.943871	0
277.402771	0.796094	city	5	1	0.947289	0.947289	0	1	0	0	CorrectCommission	2.475171	0.953545	0
278.198578	0.795496	city	6	1	0.797784	0.797784	0	1	0	0	CorrectCommission	1.015386	0.952016	0
278.994202	0.795748	city	4	1	0.608596	0.608596	0	1	0	0	CorrectCommission	0.831869	0.938355	0
279.790009	0.795899	city	6	1	0.561976	0.561976	0	1	0	0	CorrectCommission	1.287066	0.912447	0
280.585846	0.795759	city	1	1	0.514860	0.514860	0	1	0	0	CorrectCommission	1.747117	0.875121	0
281.381744	0.796075	city	3	1	0.899729	0.899729	0	1	0	0	CorrectCommission	2.010790	0.828207	0
282.177551	0.795485	city	4	1	0.748541	0.748541	0	1	0	0	CorrectCommission	0.534574	0.774374	0
282.973206	0.795875	city	9	1	0.665926	0.665926	0	1	0	0	CorrectCommission	0.272086	0.716982	1
283.769043	0.795762	city	4	1	0.698651	0.698651	0	1	0	0	CorrectCommission	0.047441	0.659621	1
284.564789	0.795758	city	3	1	0.648572	0.648572	0	1	0	0	CorrectCommission	0.441538	0.605878	1
285.360565	0.795794	city	6	1	0.748468	0.748468	0	1	0	0	CorrectCommission	0.533858	0.558958	1
286.156403	0.795887	city	8	1	0.698774	0.698774	0	1	0	0	CorrectCommission	0.048641	0.521425	1
286.952240	0.795789	city	7	1	0.699163	0.699163	0	1	0	0	CorrectCommission	0.052440	0.495000	1
287.748047	0.795822	city	8	1	0.659133	0.659133	0	1	0	0	CorrectCommission	0.338411	0.480462	1
288.543823	0.795708	city	3	1	0.699132	0.699132	0	1	0	0	CorrectCommission	0.052138	0.477641	1
289.339600	0.795850	city	6	1	0.698598	0.698598	0	1	0	0	CorrectCommission	0.046929	0.485582	1
290.135437	0.795825	city	1	1	0.699214	0.699214	0	1	0	0	CorrectCommission	0.052940	0.502790	1
290.931274	0.795829	city	9	1	0.608997	0.608997	0	1	0	0	CorrectCommission	0.827948	0.527301	1
291.727203	0.796066	city	10	1	0.549450	0.549450	0	1	0	0	CorrectCommission	1.409367	0.557047	1
292.522980	0.795484	city	3	1	0.599403	0.599403	0	1	0	0	CorrectCommission	0.921624	0.590059	1
293.318634	0.795835	city	2	1	0.705772	0.705772	0	1	0	0	CorrectCommission	0.116974	0.624604	1
294.114441	0.795728	city	9	1	0.798273	0.798273	0	1	0	0	CorrectCommission	1.020165	0.659234	1
294.910187	0.795814	city	4	1	0.748178	0.748178	0	1	0	0	CorrectCommission	0.531025	0.692621	1
295.706024	0.795839	city	3	1	0.748202	0.748202	0	1	0	0	CorrectCommission	0.531265	0.723695	1
296.501984	0.796094	city	7	1	0.748076	0.748076	0	1	0	0	CorrectCommission	0.530029	0.751445	0
297.297821	0.795557	city	4	1	0.754413	0.754413	0	1	0	0	CorrectCommission	0.591904	0.774885	0
298.093475	0.795759	mountain	10	1	0.847868	0.847868	0	0	1	0	CommissionError	1.504414	0.793049	0
298.889252	0.795792	city	4	1	0.649322	0.649322	0	1	0	0	CorrectCommission	0.434210	0.804985	0
299.685059	0.795833	city	9	1	0.605528	0.605528	0	1	0	0	CorrectCommission	0.861820	0.810010	0
300.480896	0.795801	city	8	1	0.549949	0.549949	0	1	0	0	CorrectCommission	1.404501	0.807689	0
301.276672	0.795772	city	3	1	0.549358	0.549358	0	1	0	0	CorrectCommission	1.410268	0.798095	0
302.072601	0.796088	city	8	1	0.648592	0.648592	0	1	0	0	CorrectCommission	0.441341	0.782041	0
302.868378	0.795466	city	5	1	0.598583	0.598583	0	1	0	0	CorrectCommission	0.929637	0.761014	0
303.664032	0.795865	city	7	1	0.848664	0.848664	0	1	0	0	CorrectCommission	1.512180	0.737235	0
304.459869	0.795787	city	8	1	0.698301	0.698301	0	1	0	0	CorrectCommission	0.044024	0.713516	1
305.255676	0.795820	city	9	1	0.847625	0.847625	0	1	0	0	CorrectCommission	1.502036	0.693069	1
306.051483	0.795785	city	8	1	0.698397	0.698397	0	1	0	0	CorrectCommission	0.044959	0.679029	1
306.847260	0.795798	city	5	1	0.656078	0.656078	0	1	0	0	CorrectCommission	0.368244	0.674258	1
307.643097	0.795850	city	2	1	0.701983	0.701983	0	1	0	0	CorrectCommission	0.079977	0.680763	1
308.439056	0.796073	city	5	1	0.652699	0.652699	0	1	0	0	CorrectCommission	0.401242	0.699459	1
309.234802	0.795431	mountain	4	0	0.000000	0.667904	1	0	0	0	CorrectOmission	0.252773	0.729858	1
310.030457	0.795903	city	5	1	0.699817	0.699817	0	1	0	0	CorrectCommission	0.058827	0.770088	0
310.826324	0.795777	city	4	1	0.700654	0.700654	0	1	0	0	CorrectCommission	0.067001	0.817017	0
311.622253	0.796091	city	10	1	0.698715	0.698715	0	1	0	0	CorrectCommission	0.048069	0.866498	0
312.418030	0.795483	mountain	7	0	0.000000	0.816705	1	0	0	0	CorrectOmission	1.200130	0.913934	0
313.213837	0.796126	mountain	1	1	0.947870	0.947870	0	0	1	0	CommissionError	2.480844	0.954745	0
314.009644	0.795466	city	5	0	0.000000	0.985460	0	0	0	1	OmissionError	2.847872	0.984985	0
314.805298	0.795866	city	7	1	0.898254	0.898254	0	1	0	0	CorrectCommission	1.996381	1.001887	0
315.601105	0.795763	city	3	1	0.655032	0.655032	0	1	0	0	CorrectCommission	0.378462	1.004140	0
316.396881	0.795791	city	5	1	0.663611	0.663611	0	1	0	0	CorrectCommission	0.294697	0.992012	0
317.192657	0.795762	city	4	1	0.996789	0.996789	0	1	0	0	CorrectCommission	2.958488	0.967239	0
317.988464	0.795852	city	3	1	0.700891	0.700891	0	1	0	0	CorrectCommission	0.069311	0.932647	0
318.784271	0.795741	city	2	1	0.602318	0.602318	0	1	0	0	CorrectCommission	0.893168	0.892054	0
319.580078	0.795873	city	8	1	0.598930	0.598930	0	1	0	0	CorrectCommission	0.926249	0.849557	0
320.376068	0.796090	city	9	1	0.719174	0.719174	0	1	0	0	CorrectCommission	0.247835	0.809156	0
321.171844	0.795488	city	10	1	0.663076	0.663076	0	1	0	0	CorrectCommission	0.299912	0.774377	0
321.967529	0.795855	city	4	1	0.748156	0.748156	0	1	0	0	CorrectCommission	0.530809	0.747902	0
322.763306	0.795716	city	7	1	0.698796	0.698796	0	1	0	0	CorrectCommission	0.048855	0.731415	1
323.559235	0.796150	city	9	1	0.608977	0.608977	0	1	0	0	CorrectCommission	0.828149	0.725555	1
324.355072	0.795524	city	7	1	0.648684	0.648684	0	1	0	0	CorrectCommission	0.440445	0.730013	1
325.150726	0.795804	city	8	1	0.609192	0.609192	0	1	0	0	CorrectCommission	0.826043	0.743658	0
325.946533	0.795791	city	6	1	0.599492	0.599492	0	1	0	0	CorrectCommission	0.920756	0.764817	0
326.742340	0.795828	city	10	1	0.649560	0.649560	0	1	0	0	CorrectCommission	0.431890	0.791494	0
327.538147	0.795757	city	4	1	0.800384	0.800384	0	1	0	0	CorrectCommission	1.040778	0.821694	0
328.333923	0.795815	city	3	1	0.748198	0.748198	0	1	0	0	CorrectCommission	0.531223	0.853616	0
329.129730	0.795818	city	4	1	0.751511	0.751511	0	1	0	0	CorrectCommission	0.563576	0.885766	0
329.925568	0.795816	mountain	8	0	0.000000	0.865899	1	0	0	0	CorrectOmission	1.680465	0.917100	0
330.721497	0.796032	city	7	1	0.897289	0.897289	0	1	0	0	CorrectCommission	1.986964	0.946907	0
331.517273	0.795540	city	6	1	0.651612	0.651612	0	1	0	0	CorrectCommission	0.411855	0.974868	0
332.312927	0.795788	city	8	1	0.549514	0.549514	0	1	0	0	CorrectCommission	1.408747	1.000971	0
333.108734	0.795786	city	7	1	0.599360	0.599360	0	1	0	0	CorrectCommission	0.922045	1.025202	0
333.904510	0.795784	city	2	1	0.699383	0.699383	0	1	0	0	CorrectCommission	0.054586	1.047586	0
334.700287	0.795779	city	4	1	0.604163	0.604163	0	1	0	0	CorrectCommission	0.875149	1.067812	0
335.496246	0.796170	mountain	9	0	0.000000	0.775948	1	0	0	0	CorrectOmission	0.802182	1.085328	0
336.292236	0.795778	city	6	1	0.897261	0.897261	0	1	0	0	CorrectCommission	1.986687	1.099331	0
337.087860	0.795462	city	3	1	0.650621	0.650621	0	1	0	0	CorrectCommission	0.421529	1.108820	0
337.883514	0.795844	mountain	7	1	0.464542	0.464542	0	0	1	0	CommissionError	2.238424	1.112850	0
338.679321	0.795802	mountain	3	0	0.000000	0.741506	1	0	0	0	CorrectOmission	0.465883	1.110533	0
339.475128	0.795804	city	5	1	0.997473	0.997473	0	1	0	0	CorrectCommission	2.965169	1.101378	0
340.270966	0.795834	city	10	1	0.748402	0.748402	0	1	0	0	CorrectCommission	0.533212	1.085161	0
341.066742	0.795760	city	4	1	0.847513	0.847513	0	1	0	0	CorrectCommission	1.500941	1.062265	0
341.862549	0.795825	city	5	1	0.698492	0.698492	0	1	0	0	CorrectCommission	0.045894	1.033401	0
342.658356	0.795790	city	1	1	0.649528	0.649528	0	1	0	0	CorrectCommission	0.432198	0.999690	0
343.454163	0.795841	city	6	1	0.960903	0.960903	0	1	0	0	CorrectCommission	2.608096	0.962431	0
344.249939	0.795714	city	5	1	0.665223	0.665223	0	1	0	0	CorrectCommission	0.278948	0.922994	0
345.045746	0.795898	city	4	1	0.848304	0.848304	0	1	0	0	CorrectCommission	1.508672	0.882850	0
345.841583	0.795747	city	5	1	0.649348	0.649348	0	1	0	0	CorrectCommission	0.433961	0.843229	0
346.637512	0.796107	city	7	1	0.665825	0.665825	0	1	0	0	CorrectCommission	0.273070	0.805254	0
347.433289	0.795503	city	10	1	0.649004	0.649004	0	1	0	0	CorrectCommission	0.437320	0.769838	0
348.228943	0.795798	city	7	1	0.710384	0.710384	0	1	0	0	CorrectCommission	0.162005	0.737593	0
349.024902	0.796104	city	9	1	0.897588	0.897588	0	1	0	0	CorrectCommission	1.989878	0.709043	1
349.820862	0.795801	city	8	1	0.748498	0.748498	0	1	0	0	CorrectCommission	0.534154	0.684525	1
350.616669	0.795817	city	7	1	0.666256	0.666256	0	1	0	0	CorrectCommission	0.268867	0.664459	1
351.412292	0.795460	city	10	1	0.651092	0.651092	0	1	0	0	CorrectCommission	0.416932	0.649295	1
352.207977	0.795867	city	2	1	0.563961	0.563961	0	1	0	0	CorrectCommission	1.267684	0.639443	1
353.003815	0.795813	city	6	1	0.702857	0.702857	0	1	0	0	CorrectCommission	0.088511	0.635293	1
353.799622	0.795793	city	2	1	0.598768	0.598768	0	1	0	0	CorrectCommission	0.927827	0.637142	1
354.595520	0.796032	city	1	1	0.714639	0.714639	0	1	0	0	CorrectCommission	0.203551	0.645037	1
355.391296	0.795523	city	2	1	0.699212	0.699212	0	1	0	0	CorrectCommission	0.052919	0.658667	1
356.186981	0.795841	city	3	1	0.752176	0.752176	0	1	0	0	CorrectCommission	0.570063	0.677352	1
356.982788	0.795781	city	4	1	0.798336	0.798336	0	1	0	0	CorrectCommission	1.020778	0.699845	1
357.778717	0.796085	city	10	1	0.748351	0.748351	0	1	0	0	CorrectCommission	0.532722	0.724541	1
358.574524	0.795523	city	9	1	0.748237	0.748237	0	1	0	0	CorrectCommission	0.531601	0.749466	0
359.370178	0.795771	city	5	1	0.797777	0.797777	0	1	0	0	CorrectCommission	1.015317	0.772454	0
360.166107	0.796106	city	9	1	0.748079	0.748079	0	1	0	0	CorrectCommission	0.530061	0.791316	0
360.961914	0.795509	city	10	1	0.748470	0.748470	0	1	0	0	CorrectCommission	0.533884	0.804006	0
361.757599	0.795824	city	5	1	0.798055	0.798055	0	1	0	0	CorrectCommission	1.018031	0.808920	0
362.553406	0.795827	city	4	1	1.047407	1.047407	0	1	0	0	CorrectCommission	3.452726	0.804952	0
363.349182	0.795724	city	7	1	0.798584	0.798584	0	1	0	0	CorrectCommission	1.023197	0.791641	0
364.144989	0.795878	city	6	1	0.698460	0.698460	0	1	0	0	CorrectCommission	0.045576	0.769338	0
364.940796	0.795710	mountain	2	0	0.000000	0.664807	1	0	0	0	CorrectOmission	0.283013	0.738957	0
365.736725	0.796164	city	3	1	0.699046	0.699046	0	1	0	0	CorrectCommission	0.051301	0.701975	1
366.532562	0.795499	city	7	1	0.802598	0.802598	0	1	0	0	CorrectCommission	1.062392	0.660240	1
367.328186	0.795775	city	6	1	0.748269	0.748269	0	1	0	0	CorrectCommission	0.531919	0.615873	1
368.123993	0.795839	city	4	1	0.798534	0.798534	0	1	0	0	CorrectCommission	1.022712	0.571235	1
368.919769	0.795720	mountain	1	0	0.000000	0.790033	1	0	0	0	CorrectOmission	0.939709	0.528671	1
369.715576	0.795890	city	6	1	0.748180	0.748180	0	1	0	0	CorrectCommission	0.531049	0.490407	1
370.511414	0.795799	city	1	1	0.698387	0.698387	0	1	0	0	CorrectCommission	0.044868	0.458520	1
371.307220	0.795785	mountain	9	0	0.000000	0.689828	1	0	0	0	CorrectOmission	0.038708	0.434648	1
372.102997	0.795802	city	3	1	0.698728	0.698728	0	1	0	0	CorrectCommission	0.048192	0.419925	1
372.898804	0.795764	mountain	6	0	0.000000	0.701314	1	0	0	0	CorrectOmission	0.073440	0.414910	1
373.694580	0.795788	city	2	1	0.701004	0.701004	0	1	0	0	CorrectCommission	0.070417	0.419444	1
374.490387	0.795862	city	10	1	0.701218	0.701218	0	1	0	0	CorrectCommission	0.072502	0.432674	1
375.286224	0.795768	city	9	1	0.748682	0.748682	0	1	0	0	CorrectCommission	0.535945	0.453161	1
376.082001	0.795817	city	10	1	0.658946	0.658946	0	1	0	0	CorrectCommission	0.340240	0.478976	1
376.877869	0.795897	city	7	1	0.700969	0.700969	0	1	0	0	CorrectCommission	0.070076	0.507922	1
377.673676	0.795712	city	5	1	0.748030	0.748030	0	1	0	0	CorrectCommission	0.529582	0.537760	1
378.469543	0.796073	city	3	1	0.899925	0.899925	0	1	0	0	CorrectCommission	2.012702	0.566399	1
379.265350	0.795516	city	2	1	0.797804	0.797804	0	1	0	0	CorrectCommission	1.015583	0.592033	1
380.061035	0.795839	city	5	1	0.698646	0.698646	0	1	0	0	CorrectCommission	0.047392	0.613351	1
380.856873	0.795821	city	4	1	0.800609	0.800609	0	1	0	0	CorrectCommission	1.042969	0.629608	1
381.652649	0.795757	city	8	1	0.749131	0.749131	0	1	0	0	CorrectCommission	0.540331	0.640541	1
382.448425	0.795815	city	6	1	0.711248	0.711248	0	1	0	0	CorrectCommission	0.170445	0.646379	1
383.244232	0.795799	city	10	1	0.598866	0.598866	0	1	0	0	CorrectCommission	0.926870	0.647725	1
384.040070	0.795833	city	8	1	0.610797	0.610797	0	1	0	0	CorrectCommission	0.810376	0.645381	1
384.835846	0.795749	mountain	1	1	0.650023	0.650023	0	0	1	0	CommissionError	0.427363	0.640316	1
385.631775	0.796124	city	2	1	0.556310	0.556310	0	1	0	0	CorrectCommission	1.342391	0.633517	1
386.427582	0.795500	city	9	1	0.715414	0.715414	0	1	0	0	CorrectCommission	0.211117	0.625866	1
387.223206	0.795736	city	5	1	0.698792	0.698792	0	1	0	0	CorrectCommission	0.048819	0.618176	1
388.019012	0.795858	city	4	1	0.847633	0.847633	0	1	0	0	CorrectCommission	1.502118	0.611045	1
388.814850	0.795816	city	5	1	0.764917	0.764917	0	1	0	0	CorrectCommission	0.694473	0.604782	1
389.610779	0.796072	city	9	1	0.713337	0.713337	0	1	0	0	CorrectCommission	0.190836	0.599537	1
390.406586	0.795491	city	4	1	0.712660	0.712660	0	1	0	0	CorrectCommission	0.184223	0.595258	1
391.202393	0.796125	city	6	1	0.699333	0.699333	0	1	0	0	CorrectCommission	0.054097	0.591745	1
391.998199	0.795525	city	1	1	0.648335	0.648335	0	1	0	0	CorrectCommission	0.443849	0.588702	1
392.793854	0.795775	mountain	5	0	0.000000	0.782568	1	0	0	0	CorrectOmission	0.866815	0.585857	1
393.589600	0.795747	city	5	1	0.854792	0.854792	0	1	0	0	CorrectCommission	1.572021	0.583012	1
394.385406	0.795863	city	8	1	0.617769	0.617769	0	1	0	0	CorrectCommission	0.742302	0.580147	1
395.181396	0.796113	city	9	1	0.599124	0.599124	0	1	0	0	CorrectCommission	0.924346	0.577500	1
395.977234	0.795510	city	6	1	0.715110	0.715110	0	1	0	0	CorrectCommission	0.208149	0.575408	1
396.772919	0.795874	city	9	1	0.649076	0.649076	0	1	0	0	CorrectCommission	0.436609	0.574356	1
397.568695	0.795664	city	6	1	0.698185	0.698185	0	1	0	0	CorrectCommission	0.042895	0.574854	1
398.364410	0.795789	city	3	1	0.702942	0.702942	0	1	0	0	CorrectCommission	0.089343	0.577394	1
399.160248	0.795878	city	8	1	0.615158	0.615158	0	1	0	0	CorrectCommission	0.767795	0.582364	1
399.956085	0.795791	mountain	6	0	0.000000	0.659201	1	0	0	0	CorrectOmission	0.337751	0.590053	1
400.751862	0.795805	city	4	1	0.748861	0.748861	0	1	0	0	CorrectCommission	0.537698	0.600706	1
401.547668	0.795809	city	5	1	0.797926	0.797926	0	1	0	0	CorrectCommission	1.016773	0.614492	1
402.343475	0.795779	mountain	7	0	0.000000	0.807574	1	0	0	0	CorrectOmission	1.110976	0.631533	1
403.139282	0.795840	mountain	8	0	0.000000	0.787662	1	0	0	0	CorrectOmission	0.916555	0.651860	1
403.935089	0.795771	mountain	1	0	0.000000	0.748048	1	0	0	0	CorrectOmission	0.529759	0.675390	1
404.730865	0.795760	city	3	1	0.698589	0.698589	0	1	0	0	CorrectCommission	0.046836	0.701874	1
405.526672	0.795861	city	1	1	0.649142	0.649142	0	1	0	0	CorrectCommission	0.435966	0.730656	1
406.322479	0.795794	city	5	1	0.810391	0.810391	0	1	0	0	CorrectCommission	1.138478	0.760647	0
407.118256	0.795760	city	10	1	0.699032	0.699032	0	1	0	0	CorrectCommission	0.051159	0.790351	0
407.914032	0.795777	city	1	1	0.600718	0.600718	0	1	0	0	CorrectCommission	0.908781	0.817963	0
408.709869	0.795871	city	6	1	0.700924	0.700924	0	1	0	0	CorrectCommission	0.069633	0.841438	0
409.505676	0.795764	city	8	1	0.601091	0.601091	0	1	0	0	CorrectCommission	0.905142	0.858842	0
410.301453	0.795808	city	10	1	0.499688	0.499688	0	1	0	0	CorrectCommission	1.895249	0.868503	0
411.097290	0.795812	city	8	1	0.449891	0.449891	0	1	0	0	CorrectCommission	2.381472	0.869364	0
411.893219	0.796103	city	2	1	0.550227	0.550227	0	1	0	0	CorrectCommission	1.401780	0.861199	0
412.689026	0.795493	mountain	1	1	0.617376	0.617376	0	0	1	0	CommissionError	0.746132	0.844696	0
413.484650	0.795756	city	7	1	0.565958	0.565958	0	1	0	0	CorrectCommission	1.248187	0.821394	0
414.280457	0.795855	city	1	1	0.649143	0.649143	0	1	0	0	CorrectCommission	0.435964	0.793441	0
415.076294	0.795795	city	9	1	0.710428	0.710428	0	1	0	0	CorrectCommission	0.162437	0.763417	0
415.872101	0.795839	city	4	1	0.749280	0.749280	0	1	0	0	CorrectCommission	0.541787	0.733915	1
416.667877	0.795725	city	7	1	0.748156	0.748156	0	1	0	0	CorrectCommission	0.530813	0.707238	1
417.463837	0.796155	city	1	1	0.698433	0.698433	0	1	0	0	CorrectCommission	0.045310	0.685241	1
418.259644	0.795498	city	4	1	0.667570	0.667570	0	1	0	0	CorrectCommission	0.256033	0.669257	1
419.055298	0.795794	city	1	1	0.704976	0.704976	0	1	0	0	CorrectCommission	0.109197	0.659965	1
419.851227	0.796093	city	6	1	0.897376	0.897376	0	1	0	0	CorrectCommission	1.987817	0.657617	1
420.647034	0.795515	city	3	1	0.797976	0.797976	0	1	0	0	CorrectCommission	1.017258	0.662096	1
421.442688	0.795777	city	4	1	0.698381	0.698381	0	1	0	0	CorrectCommission	0.044802	0.673205	1
422.238495	0.795832	city	2	1	0.748387	0.748387	0	1	0	0	CorrectCommission	0.533069	0.690728	1
423.034302	0.795794	city	8	1	0.748112	0.748112	0	1	0	0	CorrectCommission	0.530388	0.714440	1
423.830109	0.795802	mountain	5	0	0.000000	0.790032	1	0	0	0	CorrectOmission	0.939695	0.744078	0
424.625885	0.795753	city	10	1	0.802162	0.802162	0	1	0	0	CorrectCommission	1.058132	0.779312	0
425.421692	0.795878	city	5	1	0.712518	0.712518	0	1	0	0	CorrectCommission	0.182840	0.819566	0
426.217499	0.795724	city	6	1	0.797843	0.797843	0	1	0	0	CorrectCommission	1.015964	0.863956	0
427.013306	0.795872	city	3	1	0.749298	0.749298	0	1	0	0	CorrectCommission	0.541964	0.911060	0
427.809143	0.795819	city	10	1	0.699155	0.699155	0	1	0	0	CorrectCommission	0.052364	0.959018	0
428.605072	0.796054	city	5	1	0.748048	0.748048	0	1	0	0	CorrectCommission	0.529756	1.005531	0
429.400848	0.795512	city	2	1	0.858830	0.858830	0	1	0	0	CorrectCommission	1.611447	1.048049	0
430.196533	0.795850	city	4	1	0.912107	0.912107	0	1	0	0	CorrectCommission	2.131646	1.084050	0
430.992340	0.795734	city	6	1	0.850417	0.850417	0	1	0	0	CorrectCommission	1.529296	1.111293	0
431.788086	0.795793	city	7	1	0.848356	0.848356	0	1	0	0	CorrectCommission	1.509179	1.128151	0
432.583893	0.795821	city	3	1	0.813000	0.813000	0	1	0	0	CorrectCommission	1.163962	1.133722	0
433.379730	0.795806	city	2	1	0.947409	0.947409	0	1	0	0	CorrectCommission	2.476336	1.127952	0
434.175537	0.795812	city	9	1	0.748531	0.748531	0	1	0	0	CorrectCommission	0.534473	1.111528	0
434.971344	0.795831	city	5	1	0.598996	0.598996	0	1	0	0	CorrectCommission	0.925604	1.085933	0
435.767151	0.795766	city	2	1	0.549341	0.549341	0	1	0	0	CorrectCommission	1.410434	1.053011	0
436.563080	0.796104	mountain	9	0	0.000000	0.632238	1	0	0	0	CorrectOmission	0.601018	1.014834	0
437.359039	0.795814	city	8	1	0.760579	0.760579	0	1	0	0	CorrectCommission	0.652114	0.973435	0
438.154694	0.795474	city	4	1	0.847256	0.847256	0	1	0	0	CorrectCommission	1.498432	0.930610	0
438.950348	0.795846	city	10	1	0.649441	0.649441	0	1	0	0	CorrectCommission	0.433046	0.887786	0
439.746307	0.796084	city	8	1	0.649002	0.649002	0	1	0	0	CorrectCommission	0.437340	0.846017	0
440.542084	0.795490	city	7	1	0.613023	0.613023	0	1	0	0	CorrectCommission	0.788643	0.805992	0
441.337769	0.795840	city	3	1	0.599675	0.599675	0	1	0	0	CorrectCommission	0.918970	0.768060	0
442.133575	0.795802	city	9	1	0.605510	0.605510	0	1	0	0	CorrectCommission	0.861993	0.732372	1
442.929352	0.795714	city	3	1	0.553218	0.553218	0	1	0	0	CorrectCommission	1.372582	0.699067	1
443.725098	0.795805	city	6	1	0.748835	0.748835	0	1	0	0	CorrectCommission	0.537443	0.668275	1
444.520935	0.795843	city	2	1	0.699262	0.699262	0	1	0	0	CorrectCommission	0.053407	0.640280	1
445.316711	0.795748	city	8	1	0.755417	0.755417	0	1	0	0	CorrectCommission	0.601711	0.615463	1
446.112518	0.795858	city	3	1	0.749404	0.749404	0	1	0	0	CorrectCommission	0.543002	0.594240	1
446.908356	0.795790	city	1	1	0.752665	0.752665	0	1	0	0	CorrectCommission	0.574836	0.577039	1
447.704132	0.795762	city	5	1	0.718778	0.718778	0	1	0	0	CorrectCommission	0.243960	0.564157	1
448.499908	0.795834	city	1	1	0.750857	0.750857	0	1	0	0	CorrectCommission	0.557187	0.555783	1
449.295715	0.795779	city	9	1	0.748228	0.748228	0	1	0	0	CorrectCommission	0.531518	0.551894	1
450.091553	0.795856	city	8	1	0.752036	0.752036	0	1	0	0	CorrectCommission	0.568699	0.552255	1
450.887329	0.795733	city	6	1	0.749565	0.749565	0	1	0	0	CorrectCommission	0.544576	0.556353	1
451.683289	0.796150	city	8	1	0.655525	0.655525	0	1	0	0	CorrectCommission	0.373649	0.563569	1
452.479126	0.795531	city	5	1	0.651445	0.651445	0	1	0	0	CorrectCommission	0.413482	0.573120	1
453.274780	0.795793	city	2	1	0.649394	0.649394	0	1	0	0	CorrectCommission	0.433506	0.584174	1
454.070587	0.795789	mountain	2	0	0.000000	0.650609	1	0	0	0	CorrectOmission	0.421647	0.595902	1
454.866333	0.795739	city	1	1	0.716882	0.716882	0	1	0	0	CorrectCommission	0.225448	0.607588	1
455.662140	0.795874	city	3	1	0.910006	0.910006	0	1	0	0	CorrectCommission	2.111136	0.618642	1
456.457977	0.795781	mountain	6	0	0.000000	0.836662	1	0	0	0	CorrectOmission	1.394994	0.628577	1
457.253937	0.796116	city	8	1	0.698774	0.698774	0	1	0	0	CorrectCommission	0.048638	0.637153	1
458.049713	0.795444	city	6	1	0.698266	0.698266	0	1	0	0	CorrectCommission	0.043681	0.644258	1
458.845490	0.796123	city	2	1	0.711333	0.711333	0	1	0	0	CorrectCommission	0.171274	0.649790	1
459.641327	0.795557	city	6	1	0.748131	0.748131	0	1	0	0	CorrectCommission	0.530573	0.653685	1
460.437134	0.796067	city	3	1	0.749790	0.749790	0	1	0	0	CorrectCommission	0.546765	0.655900	1
461.232941	0.795551	city	5	1	0.810639	0.810639	0	1	0	0	CorrectCommission	1.140908	0.656462	1
462.028748	0.796038	city	7	1	0.848287	0.848287	0	1	0	0	CorrectCommission	1.508501	0.655488	1
462.824677	0.795828	city	9	1	0.662456	0.662456	0	1	0	0	CorrectCommission	0.305966	0.653205	1
463.620361	0.795524	city	3	1	0.649264	0.649264	0	1	0	0	CorrectCommission	0.434774	0.650042	1
464.416016	0.795794	city	9	1	0.556661	0.556661	0	1	0	0	CorrectCommission	1.338962	0.646549	1
465.211792	0.795777	city	3	1	0.748311	0.748311	0	1	0	0	CorrectCommission	0.532324	0.643356	1
466.007568	0.795756	city	7	1	0.698312	0.698312	0	1	0	0	CorrectCommission	0.044128	0.641184	1
466.803497	0.796144	city	5	1	0.615729	0.615729	0	1	0	0	CorrectCommission	0.762215	0.640710	1
467.599335	0.795489	city	3	1	0.698342	0.698342	0	1	0	0	CorrectCommission	0.044428	0.642407	1
468.394989	0.795828	city	4	1	0.812559	0.812559	0	1	0	0	CorrectCommission	1.159655	0.646623	1
469.190796	0.795801	city	3	1	0.705447	0.705447	0	1	0	0	CorrectCommission	0.113794	0.653419	1
469.986755	0.796104	mountain	4	0	0.000000	0.739052	1	0	0	0	CorrectOmission	0.441925	0.662720	1
470.782562	0.795523	city	7	1	0.797567	0.797567	0	1	0	0	CorrectCommission	1.013266	0.674284	1
471.578186	0.795731	city	8	1	0.765180	0.765180	0	1	0	0	CorrectCommission	0.697038	0.687804	1
472.373962	0.795838	city	2	1	0.797992	0.797992	0	1	0	0	CorrectCommission	1.017418	0.703053	1
473.169800	0.795803	city	4	1	0.798647	0.798647	0	1	0	0	CorrectCommission	1.023817	0.719827	1
473.965607	0.795832	city	3	1	0.748171	0.748171	0	1	0	0	CorrectCommission	0.530964	0.738020	0
474.761414	0.795793	city	4	1	0.698311	0.698311	0	1	0	0	CorrectCommission	0.044120	0.757633	0
475.557220	0.795795	city	2	1	0.600018	0.600018	0	1	0	0	CorrectCommission	0.915623	0.778665	0
476.353027	0.795813	city	5	1	0.599307	0.599307	0	1	0	0	CorrectCommission	0.922565	0.800925	0
477.148834	0.795818	city	7	1	0.549798	0.549798	0	1	0	0	CorrectCommission	1.405974	0.824043	0
477.944611	0.795738	city	8	1	0.601989	0.601989	0	1	0	0	CorrectCommission	0.896375	0.847297	0
478.740417	0.795834	mountain	8	0	0.000000	0.704774	1	0	0	0	CorrectOmission	0.107229	0.869597	0
479.536255	0.795836	city	8	1	0.754769	0.754769	0	1	0	0	CorrectCommission	0.595380	0.889490	0
480.332062	0.795777	city	1	1	0.648588	0.648588	0	1	0	0	CorrectCommission	0.441381	0.905216	0
481.127838	0.795832	city	5	1	0.610871	0.610871	0	1	0	0	CorrectCommission	0.809655	0.914948	0
481.923645	0.795777	city	2	1	0.499593	0.499593	0	1	0	0	CorrectCommission	1.896184	0.916990	0
482.719452	0.795831	city	10	1	0.550505	0.550505	0	1	0	0	CorrectCommission	1.399072	0.910068	0
483.515259	0.795756	city	3	1	0.499424	0.499424	0	1	0	0	CorrectCommission	1.897827	0.893689	0
484.311035	0.795792	city	8	1	0.549133	0.549133	0	1	0	0	CorrectCommission	1.412463	0.868142	0
485.106842	0.795819	city	7	1	0.649451	0.649451	0	1	0	0	CorrectCommission	0.432951	0.834693	0
485.902649	0.795825	city	2	1	0.614003	0.614003	0	1	0	0	CorrectCommission	0.779066	0.795433	0
486.698456	0.795804	city	1	1	0.616663	0.616663	0	1	0	0	CorrectCommission	0.753096	0.753096	0
