onset	duration	trial_type	image_type	Press	ReactionTime	ReactionTime_Interpolated	CorrectOmission	CorrectCommission	CommissionError	OmissionError	response_type	nonsmoothVarianceTimeCourse	VarianceTimeCourse	In_the_Zone
8.421519	0.795801	city	1	1	1.097575	1.097575	0	1	0	0	CorrectCommission	3.246751	3.246751	0
9.217351	0.795862	city	8	1	0.706993	0.706993	0	1	0	0	CorrectCommission	0.209782	2.964784	0
10.013170	0.795777	city	7	1	0.617292	0.617292	0	1	0	0	CorrectCommission	1.003614	2.688988	0
10.808969	0.795819	city	2	1	0.500446	0.500446	0	1	0	0	CorrectCommission	2.037663	2.424925	0
11.604760	0.795766	city	9	1	0.399914	0.399914	0	1	0	0	CorrectCommission	2.927342	2.177308	0
12.400563	0.795839	mountain	8	1	0.451117	0.451117	0	0	1	0	CommissionError	2.474208	1.949684	0
13.196399	0.795831	city	4	1	0.847574	0.847574	0	1	0	0	CorrectCommission	1.034313	1.744305	0
13.992199	0.795770	city	9	1	0.748622	0.748622	0	1	0	0	CorrectCommission	0.158623	1.562063	0
14.787965	0.795762	city	10	1	0.648832	0.648832	0	1	0	0	CorrectCommission	0.724492	1.402633	0
15.583774	0.795857	city	5	1	0.649613	0.649613	0	1	0	0	CorrectCommission	0.717579	1.264516	0
16.379581	0.795759	city	10	1	0.847740	0.847740	0	1	0	0	CorrectCommission	1.035784	1.145518	0
17.175364	0.795803	city	1	1	0.798337	0.798337	0	1	0	0	CorrectCommission	0.598578	1.042964	0
17.971159	0.795790	city	4	1	0.948105	0.948105	0	1	0	0	CorrectCommission	1.923981	0.954138	0
18.766937	0.795768	city	9	1	0.649463	0.649463	0	1	0	0	CorrectCommission	0.718903	0.876467	0
19.562727	0.795809	city	5	1	0.549457	0.549457	0	1	0	0	CorrectCommission	1.603932	0.807919	0
20.358555	0.795849	city	8	1	0.700263	0.700263	0	1	0	0	CorrectCommission	0.269344	0.746917	1
21.154369	0.795777	city	3	1	0.698682	0.698682	0	1	0	0	CorrectCommission	0.283337	0.692570	1
21.950186	0.795859	city	5	1	0.798661	0.798661	0	1	0	0	CorrectCommission	0.601449	0.644391	1
22.746019	0.795805	city	4	1	0.800253	0.800253	0	1	0	0	CorrectCommission	0.615540	0.602212	1
23.541809	0.795776	city	6	1	0.713277	0.713277	0	1	0	0	CorrectCommission	0.154173	0.566018	1
24.337749	0.796104	city	10	1	0.698535	0.698535	0	1	0	0	CorrectCommission	0.284637	0.535740	1
25.133549	0.795495	city	6	1	0.809201	0.809201	0	1	0	0	CorrectCommission	0.694725	0.511114	1
25.929190	0.795787	city	9	1	0.748406	0.748406	0	1	0	0	CorrectCommission	0.156712	0.491707	1
26.724993	0.795818	city	7	1	0.749013	0.749013	0	1	0	0	CorrectCommission	0.162076	0.476960	1
27.520788	0.795771	city	5	1	0.698945	0.698945	0	1	0	0	CorrectCommission	0.281010	0.466105	1
28.316576	0.795807	city	4	1	0.802466	0.802466	0	1	0	0	CorrectCommission	0.635121	0.458297	1
29.112537	0.796115	city	2	1	0.799051	0.799051	0	1	0	0	CorrectCommission	0.604902	0.452716	1
29.908337	0.795484	city	9	1	0.897415	0.897415	0	1	0	0	CorrectCommission	1.475396	0.448689	1
30.703974	0.795789	city	4	1	0.699613	0.699613	0	1	0	0	CorrectCommission	0.275094	0.445772	1
31.499758	0.795780	city	9	1	0.755383	0.755383	0	1	0	0	CorrectCommission	0.218457	0.443780	1
32.295582	0.795868	city	8	1	0.749244	0.749244	0	1	0	0	CorrectCommission	0.164121	0.442654	1
33.091564	0.796095	city	6	1	0.709810	0.709810	0	1	0	0	CorrectCommission	0.184850	0.442485	1
33.887383	0.795544	city	5	1	0.747771	0.747771	0	1	0	0	CorrectCommission	0.151091	0.443454	1
34.683044	0.795778	mountain	5	0	0.000000	0.696365	1	0	0	0	CorrectOmission	0.303835	0.445796	1
35.478794	0.795725	city	5	1	0.698648	0.698648	0	1	0	0	CorrectCommission	0.283633	0.449723	1
36.274586	0.795855	city	10	1	0.897675	0.897675	0	1	0	0	CorrectCommission	1.477690	0.455494	1
37.070393	0.795760	city	8	1	0.702773	0.702773	0	1	0	0	CorrectCommission	0.247129	0.463269	1
37.866352	0.796156	city	7	1	0.749159	0.749159	0	1	0	0	CorrectCommission	0.163372	0.473279	1
38.662167	0.795479	city	10	1	0.610731	0.610731	0	1	0	0	CorrectCommission	1.061670	0.485636	1
39.457790	0.795763	city	7	1	0.748353	0.748353	0	1	0	0	CorrectCommission	0.156238	0.500294	1
40.253605	0.795868	city	8	1	0.699393	0.699393	0	1	0	0	CorrectCommission	0.277045	0.517004	1
41.049435	0.795792	city	7	1	0.798070	0.798070	0	1	0	0	CorrectCommission	0.596219	0.535290	1
41.845207	0.795751	city	1	1	0.700035	0.700035	0	1	0	0	CorrectCommission	0.271359	0.554344	1
42.641155	0.796151	city	2	1	0.704480	0.704480	0	1	0	0	CorrectCommission	0.232026	0.573174	1
43.436993	0.795519	city	7	1	0.748135	0.748135	0	1	0	0	CorrectCommission	0.154313	0.590643	1
44.232647	0.795792	city	3	1	0.798174	0.798174	0	1	0	0	CorrectCommission	0.597135	0.605673	1
45.028427	0.795769	city	5	1	0.810599	0.810599	0	1	0	0	CorrectCommission	0.707098	0.617389	1
45.824219	0.795811	city	6	1	0.998078	0.998078	0	1	0	0	CorrectCommission	2.366233	0.625339	1
46.620026	0.795806	mountain	4	0	0.000000	0.857214	1	0	0	0	CorrectOmission	1.119629	0.629530	1
47.415852	0.795842	city	10	1	0.665098	0.665098	0	1	0	0	CorrectCommission	0.580539	0.630616	1
48.211647	0.795753	city	5	1	0.698822	0.698822	0	1	0	0	CorrectCommission	0.282098	0.629754	1
49.007401	0.795749	city	10	1	0.648992	0.648992	0	1	0	0	CorrectCommission	0.723077	0.628413	1
49.803204	0.795861	city	8	1	0.710021	0.710021	0	1	0	0	CorrectCommission	0.182984	0.628186	1
50.599052	0.795836	city	7	1	0.698934	0.698934	0	1	0	0	CorrectCommission	0.281103	0.630452	1
51.394859	0.795777	mountain	5	0	0.000000	0.703325	1	0	0	0	CorrectOmission	0.242243	0.636192	1
52.190647	0.795801	city	3	1	0.710343	0.710343	0	1	0	0	CorrectCommission	0.180138	0.645845	1
52.986446	0.795791	city	8	1	0.707135	0.707135	0	1	0	0	CorrectCommission	0.208524	0.659292	1
53.782261	0.795841	city	2	1	0.648898	0.648898	0	1	0	0	CorrectCommission	0.723906	0.675842	1
54.578045	0.795728	city	8	1	0.947265	0.947265	0	1	0	0	CorrectCommission	1.916548	0.694434	1
55.373985	0.796152	city	10	1	0.752841	0.752841	0	1	0	0	CorrectCommission	0.195957	0.713857	1
56.169788	0.795454	city	4	1	0.911058	0.911058	0	1	0	0	CorrectCommission	1.596131	0.732987	1
56.965401	0.795771	city	2	1	0.751958	0.751958	0	1	0	0	CorrectCommission	0.188143	0.750864	1
57.761238	0.795901	city	6	1	0.847885	0.847885	0	1	0	0	CorrectCommission	1.037065	0.767001	1
58.557091	0.795807	city	3	1	0.797894	0.797894	0	1	0	0	CorrectCommission	0.594658	0.781219	0
59.352879	0.795772	city	4	1	0.848274	0.848274	0	1	0	0	CorrectCommission	1.040505	0.793748	0
60.148674	0.795815	city	9	1	0.848331	0.848331	0	1	0	0	CorrectCommission	1.041015	0.805022	0
60.944481	0.795804	city	5	1	0.606166	0.606166	0	1	0	0	CorrectCommission	1.102077	0.815595	0
61.740246	0.795720	city	3	1	0.748033	0.748033	0	1	0	0	CorrectCommission	0.153405	0.825957	0
62.536037	0.795863	city	4	1	0.751198	0.751198	0	1	0	0	CorrectCommission	0.181415	0.836472	0
63.331860	0.795786	city	3	1	0.802024	0.802024	0	1	0	0	CorrectCommission	0.631208	0.847107	0
64.127663	0.795816	city	5	1	0.814741	0.814741	0	1	0	0	CorrectCommission	0.743755	0.857568	0
64.923439	0.795743	city	3	1	1.046404	1.046404	0	1	0	0	CorrectCommission	2.793902	0.867295	0
65.719246	0.795869	city	1	1	0.711285	0.711285	0	1	0	0	CorrectCommission	0.171800	0.875493	0
66.515068	0.795768	city	7	1	0.715682	0.715682	0	1	0	0	CorrectCommission	0.132885	0.881427	0
67.310852	0.795798	city	8	1	0.648963	0.648963	0	1	0	0	CorrectCommission	0.723333	0.884359	0
68.106812	0.796127	mountain	2	0	0.000000	0.549013	1	0	0	0	CorrectOmission	1.607859	0.883676	0
68.902634	0.795519	city	1	1	0.554752	0.554752	0	1	0	0	CorrectCommission	1.557074	0.878987	0
69.698288	0.795787	city	10	1	0.805098	0.805098	0	1	0	0	CorrectCommission	0.658414	0.870184	0
70.494057	0.795747	city	7	1	0.897753	0.897753	0	1	0	0	CorrectCommission	1.478385	0.857422	0
71.289879	0.795898	city	2	1	0.748179	0.748179	0	1	0	0	CorrectCommission	0.154700	0.840980	0
72.085724	0.795799	mountain	8	0	0.000000	0.773154	1	0	0	0	CorrectOmission	0.375716	0.821277	0
72.881485	0.795715	city	9	1	0.852185	0.852185	0	1	0	0	CorrectCommission	1.075120	0.798772	0
73.677254	0.795832	city	6	1	0.864782	0.864782	0	1	0	0	CorrectCommission	1.186600	0.773922	1
74.473091	0.795832	mountain	5	0	0.000000	0.822535	1	0	0	0	CorrectOmission	0.812724	0.747140	1
75.268913	0.795814	city	4	1	0.756884	0.756884	0	1	0	0	CorrectCommission	0.231739	0.718853	1
76.064690	0.795738	city	2	1	0.699272	0.699272	0	1	0	0	CorrectCommission	0.278112	0.689586	1
76.860451	0.795795	city	9	1	0.847812	0.847812	0	1	0	0	CorrectCommission	1.036425	0.659982	1
77.656288	0.795870	city	10	1	0.550472	0.550472	0	1	0	0	CorrectCommission	1.594951	0.630874	1
78.452110	0.795771	city	4	1	0.698779	0.698779	0	1	0	0	CorrectCommission	0.282479	0.603357	1
79.247910	0.795837	city	5	1	0.665017	0.665017	0	1	0	0	CorrectCommission	0.581256	0.578878	1
80.043686	0.795705	city	2	1	0.709821	0.709821	0	1	0	0	CorrectCommission	0.184758	0.559004	1
80.839485	0.795908	city	5	1	0.797992	0.797992	0	1	0	0	CorrectCommission	0.595532	0.545354	1
81.635345	0.795801	city	10	1	0.751172	0.751172	0	1	0	0	CorrectCommission	0.181187	0.539423	1
82.431145	0.795802	city	4	1	0.807809	0.807809	0	1	0	0	CorrectCommission	0.682406	0.542327	1
83.226944	0.795802	city	8	1	0.706616	0.706616	0	1	0	0	CorrectCommission	0.213117	0.554700	1
84.022743	0.795797	city	3	1	0.710580	0.710580	0	1	0	0	CorrectCommission	0.178040	0.576519	1
84.818497	0.795711	mountain	9	0	0.000000	0.740383	1	0	0	0	CorrectOmission	0.085705	0.606966	1
85.614288	0.795858	city	8	1	0.748089	0.748089	0	1	0	0	CorrectCommission	0.153902	0.644466	1
86.410088	0.795753	mountain	5	0	0.000000	0.685762	1	0	0	0	CorrectOmission	0.397669	0.686729	1
87.205910	0.795885	city	7	1	0.666924	0.666924	0	1	0	0	CorrectCommission	0.564380	0.731023	1
88.001755	0.795808	city	5	1	0.805096	0.805096	0	1	0	0	CorrectCommission	0.658394	0.774359	0
88.797516	0.795709	city	6	1	1.107990	1.107990	0	1	0	0	CorrectCommission	3.338916	0.813847	0
89.593285	0.795834	city	7	1	0.800703	0.800703	0	1	0	0	CorrectCommission	0.619519	0.846838	0
90.389130	0.795852	city	2	1	0.660394	0.660394	0	1	0	0	CorrectCommission	0.622167	0.871406	0
91.184959	0.795807	city	3	1	0.847965	0.847965	0	1	0	0	CorrectCommission	1.037778	0.886218	0
91.980743	0.795760	city	8	1	0.848584	0.848584	0	1	0	0	CorrectCommission	1.043253	0.890696	0
92.776672	0.796105	city	5	1	0.652741	0.652741	0	1	0	0	CorrectCommission	0.689897	0.884999	0
93.572495	0.795538	city	2	1	0.648369	0.648369	0	1	0	0	CorrectCommission	0.728593	0.869974	0
94.368141	0.795749	city	1	1	0.559291	0.559291	0	1	0	0	CorrectCommission	1.516902	0.846989	0
95.163902	0.795783	city	7	1	0.897536	0.897536	0	1	0	0	CorrectCommission	1.476460	0.817767	0
95.959694	0.795790	city	1	1	0.814735	0.814735	0	1	0	0	CorrectCommission	0.743702	0.784343	0
96.755516	0.795862	city	5	1	0.648885	0.648885	0	1	0	0	CorrectCommission	0.724025	0.748825	1
97.551346	0.795792	city	1	1	0.754493	0.754493	0	1	0	0	CorrectCommission	0.210573	0.713191	1
98.347153	0.795832	city	5	1	0.698717	0.698717	0	1	0	0	CorrectCommission	0.283021	0.679173	1
99.142975	0.795803	city	7	1	0.700710	0.700710	0	1	0	0	CorrectCommission	0.265389	0.648108	1
99.938889	0.796030	city	1	1	0.660272	0.660272	0	1	0	0	CorrectCommission	0.623249	0.620880	1
100.734695	0.795585	city	4	1	0.898052	0.898052	0	1	0	0	CorrectCommission	1.481030	0.597886	1
101.530357	0.795738	city	10	1	0.707811	0.707811	0	1	0	0	CorrectCommission	0.202547	0.579068	1
102.326111	0.795773	city	8	1	0.748427	0.748427	0	1	0	0	CorrectCommission	0.156890	0.564059	1
103.121941	0.795888	city	5	1	0.748133	0.748133	0	1	0	0	CorrectCommission	0.154291	0.552202	1
103.917770	0.795767	city	1	1	0.751791	0.751791	0	1	0	0	CorrectCommission	0.186665	0.542739	1
104.713570	0.795835	city	9	1	0.648751	0.648751	0	1	0	0	CorrectCommission	0.725209	0.534945	1
105.509377	0.795768	city	2	1	0.619371	0.619371	0	1	0	0	CorrectCommission	0.985209	0.528290	1
106.305161	0.795807	city	8	1	0.613948	0.613948	0	1	0	0	CorrectCommission	1.033204	0.522445	1
107.100975	0.795814	city	3	1	0.599876	0.599876	0	1	0	0	CorrectCommission	1.157733	0.517477	1
107.896759	0.795757	city	4	1	0.749108	0.749108	0	1	0	0	CorrectCommission	0.162923	0.513748	1
108.692566	0.795858	city	5	1	0.751148	0.751148	0	1	0	0	CorrectCommission	0.180975	0.511860	1
109.488350	0.795717	city	2	1	0.748858	0.748858	0	1	0	0	CorrectCommission	0.160705	0.512486	1
110.284119	0.795810	mountain	2	0	0.000000	0.718089	1	0	0	0	CorrectOmission	0.111591	0.516238	1
111.080101	0.796154	mountain	4	0	0.000000	0.683219	1	0	0	0	CorrectOmission	0.420175	0.523538	1
111.875916	0.795477	mountain	2	0	0.000000	0.668628	1	0	0	0	CorrectOmission	0.549305	0.534582	1
112.671562	0.795817	city	6	1	0.698693	0.698693	0	1	0	0	CorrectCommission	0.283241	0.549181	1
113.467522	0.796111	city	9	1	0.797792	0.797792	0	1	0	0	CorrectCommission	0.593756	0.566974	1
114.263351	0.795537	city	6	1	0.664656	0.664656	0	1	0	0	CorrectCommission	0.584456	0.587329	1
115.059143	0.796053	city	2	1	0.611472	0.611472	0	1	0	0	CorrectCommission	1.055112	0.609563	1
115.855064	0.795782	city	1	1	0.648300	0.648300	0	1	0	0	CorrectCommission	0.729202	0.632936	1
116.650726	0.795551	city	7	1	0.847417	0.847417	0	1	0	0	CorrectCommission	1.032922	0.656806	1
117.446411	0.795810	city	6	1	0.760393	0.760393	0	1	0	0	CorrectCommission	0.262794	0.680637	1
118.242172	0.795716	city	7	1	0.698253	0.698253	0	1	0	0	CorrectCommission	0.287133	0.704017	1
119.037949	0.795841	city	4	1	0.648937	0.648937	0	1	0	0	CorrectCommission	0.723564	0.726626	1
119.833778	0.795815	city	9	1	0.648872	0.648872	0	1	0	0	CorrectCommission	0.724133	0.748169	1
120.629578	0.795781	city	6	1	0.598832	0.598832	0	1	0	0	CorrectCommission	1.166975	0.768459	1
121.425354	0.795773	city	8	1	0.613743	0.613743	0	1	0	0	CorrectCommission	1.035017	0.787279	0
122.221161	0.795849	city	4	1	0.648578	0.648578	0	1	0	0	CorrectCommission	0.726742	0.804468	0
123.016968	0.795756	city	7	1	0.652660	0.652660	0	1	0	0	CorrectCommission	0.690619	0.819911	0
123.812920	0.796152	city	2	1	0.798572	0.798572	0	1	0	0	CorrectCommission	0.600658	0.833572	0
124.608894	0.795799	city	7	1	0.862156	0.862156	0	1	0	0	CorrectCommission	1.163360	0.845472	0
125.404564	0.795532	city	5	1	0.798434	0.798434	0	1	0	0	CorrectCommission	0.599444	0.855769	0
126.200203	0.795760	city	2	1	0.750897	0.750897	0	1	0	0	CorrectCommission	0.178750	0.864768	0
126.996140	0.796113	city	9	1	1.048997	1.048997	0	1	0	0	CorrectCommission	2.816846	0.872908	0
127.791924	0.795457	city	3	1	0.710401	0.710401	0	1	0	0	CorrectCommission	0.179621	0.880612	0
128.587570	0.795816	city	1	1	0.549496	0.549496	0	1	0	0	CorrectCommission	1.603581	0.888504	0
129.383377	0.795811	city	3	1	0.754406	0.754406	0	1	0	0	CorrectCommission	0.209804	0.896967	0
130.179199	0.795823	city	9	1	0.809970	0.809970	0	1	0	0	CorrectCommission	0.701530	0.906321	0
130.975006	0.795807	mountain	9	0	0.000000	0.729694	1	0	0	0	CorrectOmission	0.008886	0.916483	0
131.770813	0.795788	city	10	1	0.699407	0.699407	0	1	0	0	CorrectCommission	0.276919	0.927087	0
132.566605	0.795798	city	9	1	0.904937	0.904937	0	1	0	0	CorrectCommission	1.541961	0.937388	0
133.362411	0.795838	mountain	3	0	0.000000	0.960210	1	0	0	0	CorrectOmission	2.031110	0.946336	0
134.158249	0.795812	city	4	1	0.897249	0.897249	0	1	0	0	CorrectCommission	1.473919	0.952743	0
134.954025	0.795756	city	1	1	0.748075	0.748075	0	1	0	0	CorrectCommission	0.153776	0.955461	0
135.749832	0.795847	city	9	1	0.904008	0.904008	0	1	0	0	CorrectCommission	1.533736	0.953494	0
136.545654	0.795801	city	8	1	0.698544	0.698544	0	1	0	0	CorrectCommission	0.284558	0.945962	0
137.341431	0.795757	city	6	1	0.648799	0.648799	0	1	0	0	CorrectCommission	0.724787	0.932505	0
138.137222	0.795833	city	8	1	0.598968	0.598968	0	1	0	0	CorrectCommission	1.165776	0.913106	0
138.933029	0.795781	city	5	1	0.499363	0.499363	0	1	0	0	CorrectCommission	2.047247	0.888285	0
139.728806	0.795774	city	10	1	0.598905	0.598905	0	1	0	0	CorrectCommission	1.166329	0.859046	0
140.524750	0.796098	mountain	6	1	0.599965	0.599965	0	0	1	0	CommissionError	1.156948	0.826877	0
141.320572	0.795568	city	4	1	0.698096	0.698096	0	1	0	0	CorrectCommission	0.288517	0.793585	0
142.116226	0.795719	city	6	1	0.705248	0.705248	0	1	0	0	CorrectCommission	0.225224	0.761150	1
142.912033	0.795890	city	2	1	0.757791	0.757791	0	1	0	0	CorrectCommission	0.239760	0.731551	1
143.707855	0.795781	city	8	1	0.798475	0.798475	0	1	0	0	CorrectCommission	0.599801	0.706647	1
144.503662	0.795820	city	5	1	0.798516	0.798516	0	1	0	0	CorrectCommission	0.600166	0.687844	1
145.299438	0.795733	city	8	1	0.897304	0.897304	0	1	0	0	CorrectCommission	1.474412	0.676262	1
146.095245	0.795871	city	5	1	0.698822	0.698822	0	1	0	0	CorrectCommission	0.282096	0.672432	1
146.891205	0.796060	city	8	1	0.755691	0.755691	0	1	0	0	CorrectCommission	0.221178	0.676510	1
147.687012	0.795540	city	5	1	0.698268	0.698268	0	1	0	0	CorrectCommission	0.287002	0.688103	1
148.482681	0.795802	mountain	7	0	0.000000	0.724584	1	0	0	0	CorrectOmission	0.054113	0.706385	1
149.278427	0.795709	city	5	1	0.798484	0.798484	0	1	0	0	CorrectCommission	0.599882	0.730154	1
150.074188	0.795799	mountain	6	0	0.000000	0.883813	1	0	0	0	CorrectOmission	1.355018	0.757879	1
150.870026	0.795866	city	9	1	0.898185	0.898185	0	1	0	0	CorrectCommission	1.482204	0.787823	0
151.665848	0.795777	city	5	1	0.759213	0.759213	0	1	0	0	CorrectCommission	0.252349	0.818191	0
152.461624	0.795806	city	8	1	0.897652	0.897652	0	1	0	0	CorrectCommission	1.477491	0.847268	0
153.257584	0.796100	city	6	1	0.704326	0.704326	0	1	0	0	CorrectCommission	0.233386	0.873265	0
154.053375	0.795468	city	4	1	0.611360	0.611360	0	1	0	0	CorrectCommission	1.056111	0.894643	0
154.849014	0.795811	city	7	1	0.613795	0.613795	0	1	0	0	CorrectCommission	1.034560	0.909959	0
155.644821	0.795822	city	8	1	0.648942	0.648942	0	1	0	0	CorrectCommission	0.723518	0.918028	0
156.440628	0.795776	city	7	1	0.599265	0.599265	0	1	0	0	CorrectCommission	1.163143	0.917947	0
157.236435	0.795850	city	10	1	0.847817	0.847817	0	1	0	0	CorrectCommission	1.036468	0.909171	0
158.032272	0.795814	mountain	8	1	0.549705	0.549705	0	0	1	0	CommissionError	1.601739	0.891627	0
158.828064	0.795773	city	2	1	0.961318	0.961318	0	1	0	0	CorrectCommission	2.040917	0.865687	0
159.623856	0.795804	city	5	1	0.702754	0.702754	0	1	0	0	CorrectCommission	0.247301	0.832206	0
160.419678	0.795844	city	8	1	0.648631	0.648631	0	1	0	0	CorrectCommission	0.726271	0.792572	0
161.215469	0.795759	city	9	1	0.711364	0.711364	0	1	0	0	CorrectCommission	0.171105	0.748437	1
162.011246	0.795772	city	2	1	0.657935	0.657935	0	1	0	0	CorrectCommission	0.643929	0.701752	1
162.807022	0.795780	city	6	1	0.854455	0.854455	0	1	0	0	CorrectCommission	1.095207	0.654525	1
163.602814	0.795805	mountain	7	0	0.000000	0.849680	1	0	0	0	CorrectOmission	1.052949	0.608745	1
164.398651	0.795884	city	8	1	0.761780	0.761780	0	1	0	0	CorrectCommission	0.275066	0.566241	1
165.194458	0.795718	city	3	1	0.708927	0.708927	0	1	0	0	CorrectCommission	0.192669	0.528537	1
165.990234	0.795843	city	6	1	0.748673	0.748673	0	1	0	0	CorrectCommission	0.159072	0.496709	1
166.786072	0.795823	city	10	1	0.698625	0.698625	0	1	0	0	CorrectCommission	0.283839	0.471339	1
167.581879	0.795805	city	9	1	0.749889	0.749889	0	1	0	0	CorrectCommission	0.169833	0.452454	1
168.377655	0.795751	city	4	1	0.748334	0.748334	0	1	0	0	CorrectCommission	0.156066	0.439620	1
169.173477	0.795870	mountain	1	0	0.000000	0.704623	1	0	0	0	CorrectOmission	0.230754	0.432050	1
169.969284	0.795747	city	2	1	0.661253	0.661253	0	1	0	0	CorrectCommission	0.614566	0.428632	1
170.765045	0.795769	city	5	1	0.660718	0.660718	0	1	0	0	CorrectCommission	0.619306	0.428199	1
171.560837	0.795838	city	1	1	0.652753	0.652753	0	1	0	0	CorrectCommission	0.689790	0.429629	1
172.356812	0.796097	city	9	1	0.748387	0.748387	0	1	0	0	CorrectCommission	0.156541	0.432044	1
173.152634	0.795555	city	10	1	0.606191	0.606191	0	1	0	0	CorrectCommission	1.101852	0.434898	1
173.948318	0.795816	city	5	1	0.764721	0.764721	0	1	0	0	CorrectCommission	0.301089	0.437898	1
174.744080	0.795696	city	2	1	0.748598	0.748598	0	1	0	0	CorrectCommission	0.158409	0.441179	1
175.539871	0.795891	city	6	1	0.801763	0.801763	0	1	0	0	CorrectCommission	0.628901	0.445116	1
176.335861	0.796090	city	9	1	0.699080	0.699080	0	1	0	0	CorrectCommission	0.279814	0.450250	1
177.131622	0.795429	city	2	1	0.710010	0.710010	0	1	0	0	CorrectCommission	0.183085	0.457278	1
177.927261	0.795854	city	8	1	0.797993	0.797993	0	1	0	0	CorrectCommission	0.595539	0.466845	1
178.723114	0.795842	city	2	1	0.748179	0.748179	0	1	0	0	CorrectCommission	0.154695	0.479469	1
179.518936	0.795814	city	5	1	0.798480	0.798480	0	1	0	0	CorrectCommission	0.599845	0.495534	1
180.314713	0.795742	city	4	1	0.799095	0.799095	0	1	0	0	CorrectCommission	0.605287	0.515108	1
181.110504	0.795820	city	6	1	0.699586	0.699586	0	1	0	0	CorrectCommission	0.275335	0.538013	1
181.906311	0.795800	city	10	1	0.648518	0.648518	0	1	0	0	CorrectCommission	0.727270	0.563914	1
182.702103	0.795780	city	1	1	0.748378	0.748378	0	1	0	0	CorrectCommission	0.156459	0.592287	1
183.497910	0.795841	mountain	3	0	0.000000	0.831337	1	0	0	0	CorrectOmission	0.890624	0.622567	1
184.293732	0.795820	city	7	1	0.847856	0.847856	0	1	0	0	CorrectCommission	1.036809	0.654140	1
185.089539	0.795765	city	10	1	0.748394	0.748394	0	1	0	0	CorrectCommission	0.156601	0.686605	1
185.885315	0.795815	city	6	1	0.760414	0.760414	0	1	0	0	CorrectCommission	0.262971	0.719827	1
186.681137	0.795813	city	8	1	0.698223	0.698223	0	1	0	0	CorrectCommission	0.287395	0.753914	1
187.476944	0.795810	city	10	1	0.514172	0.514172	0	1	0	0	CorrectCommission	1.916192	0.789308	0
188.272720	0.795749	city	6	1	0.956467	0.956467	0	1	0	0	CorrectCommission	1.997985	0.826673	0
189.068481	0.795773	city	2	1	0.799460	0.799460	0	1	0	0	CorrectCommission	0.608518	0.866753	0
189.864273	0.795796	city	5	1	0.649707	0.649707	0	1	0	0	CorrectCommission	0.716751	0.910258	0
190.660110	0.795896	city	1	1	0.699087	0.699087	0	1	0	0	CorrectCommission	0.279751	0.957457	0
191.455963	0.795785	city	10	1	0.798992	0.798992	0	1	0	0	CorrectCommission	0.604378	1.008119	0
192.251724	0.795750	city	2	1	0.699861	0.699861	0	1	0	0	CorrectCommission	0.272903	1.061265	0
193.047531	0.795853	city	9	1	0.798674	0.798674	0	1	0	0	CorrectCommission	0.601564	1.115150	0
193.843369	0.795818	city	2	1	0.648807	0.648807	0	1	0	0	CorrectCommission	0.724711	1.167346	0
194.639313	0.796070	city	10	1	0.459256	0.459256	0	1	0	0	CorrectCommission	2.402178	1.215056	0
195.435089	0.795482	mountain	3	1	0.566003	0.566003	0	0	1	0	CommissionError	1.457499	1.255386	0
196.230865	0.796074	city	4	1	0.866036	0.866036	0	1	0	0	CorrectCommission	1.197701	1.285826	0
197.026657	0.795529	mountain	2	0	0.000000	1.028809	1	0	0	0	CorrectOmission	2.638186	1.304568	0
197.822327	0.795811	mountain	8	0	0.000000	1.055518	1	0	0	0	CorrectOmission	2.874555	1.310699	0
198.618149	0.795810	city	6	1	0.947361	0.947361	0	1	0	0	CorrectCommission	1.917403	1.304451	0
199.413910	0.795732	city	1	1	0.705536	0.705536	0	1	0	0	CorrectCommission	0.222675	1.287132	0
200.209732	0.795893	mountain	1	0	0.000000	0.599068	1	0	0	0	CorrectOmission	1.164892	1.260936	0
201.005569	0.795791	city	7	1	0.616904	0.616904	0	1	0	0	CorrectCommission	1.007045	1.228474	0
201.801346	0.795764	city	4	1	0.747995	0.747995	0	1	0	0	CorrectCommission	0.153067	1.192655	0
202.597107	0.795760	city	8	1	0.599678	0.599678	0	1	0	0	CorrectCommission	1.159493	1.156367	0
203.392883	0.795801	city	9	1	1.047374	1.047374	0	1	0	0	CorrectCommission	2.802484	1.122030	0
204.188736	0.795909	city	1	1	0.665844	0.665844	0	1	0	0	CorrectCommission	0.573940	1.091551	0
204.984558	0.795711	city	5	1	0.713797	0.713797	0	1	0	0	CorrectCommission	0.149575	1.066323	0
205.780319	0.795834	city	8	1	0.705581	0.705581	0	1	0	0	CorrectCommission	0.222282	1.047046	0
206.576157	0.795825	city	5	1	0.568811	0.568811	0	1	0	0	CorrectCommission	1.432649	1.033902	0
207.371933	0.795731	city	6	1	0.549359	0.549359	0	1	0	0	CorrectCommission	1.604800	1.026563	0
208.167740	0.795896	city	7	1	0.847996	0.847996	0	1	0	0	CorrectCommission	1.038047	1.024388	0
208.963593	0.795784	city	2	1	0.749062	0.749062	0	1	0	0	CorrectCommission	0.162511	1.026552	0
209.759384	0.795808	city	1	1	0.599070	0.599070	0	1	0	0	CorrectCommission	1.164866	1.032055	0
210.555161	0.795747	city	10	1	0.997207	0.997207	0	1	0	0	CorrectCommission	2.358519	1.039839	0
211.350967	0.795866	city	4	1	0.748616	0.748616	0	1	0	0	CorrectCommission	0.158566	1.048802	0
212.146805	0.795806	city	7	1	0.807078	0.807078	0	1	0	0	CorrectCommission	0.675937	1.057991	0
212.942596	0.795770	city	6	1	0.797976	0.797976	0	1	0	0	CorrectCommission	0.595384	1.066479	0
213.738358	0.795776	city	2	1	0.601406	0.601406	0	1	0	0	CorrectCommission	1.144198	1.073541	0
214.534180	0.795855	mountain	9	0	0.000000	0.516449	1	0	0	0	CorrectOmission	1.896039	1.078616	0
215.330002	0.795791	city	5	1	0.549193	0.549193	0	1	0	0	CorrectCommission	1.606262	1.081468	0
216.125778	0.795749	mountain	7	1	0.705727	0.705727	0	0	1	0	CommissionError	0.220989	1.082105	0
216.921524	0.795763	city	2	1	0.898375	0.898375	0	1	0	0	CorrectCommission	1.483886	1.080935	0
217.717361	0.795896	city	1	1	0.997064	0.997064	0	1	0	0	CorrectCommission	2.357254	1.078420	0
218.513321	0.796042	city	6	1	0.804361	0.804361	0	1	0	0	CorrectCommission	0.651893	1.075149	0
219.309128	0.795551	city	10	1	0.648712	0.648712	0	1	0	0	CorrectCommission	0.725552	1.071795	0
220.104813	0.795828	city	6	1	0.799225	0.799225	0	1	0	0	CorrectCommission	0.606443	1.068761	0
220.900604	0.795746	city	5	1	0.760391	0.760391	0	1	0	0	CorrectCommission	0.262770	1.066126	0
221.696381	0.795823	city	2	1	0.649355	0.649355	0	1	0	0	CorrectCommission	0.719862	1.063703	0
222.492188	0.795778	city	10	1	0.598799	0.598799	0	1	0	0	CorrectCommission	1.167273	1.060969	0
223.287979	0.795799	city	3	1	0.599206	0.599206	0	1	0	0	CorrectCommission	1.163667	1.057178	0
224.083771	0.795796	city	9	1	1.006058	1.006058	0	1	0	0	CorrectCommission	2.436849	1.051473	0
224.879578	0.795804	city	8	1	0.657156	0.657156	0	1	0	0	CorrectCommission	0.650823	1.042984	0
225.675385	0.795809	city	6	1	0.449946	0.449946	0	1	0	0	CorrectCommission	2.484569	1.031124	0
226.471191	0.795826	city	10	1	0.656320	0.656320	0	1	0	0	CorrectCommission	0.658222	1.015399	0
227.267029	0.795835	city	5	1	0.797852	0.797852	0	1	0	0	CorrectCommission	0.594292	0.995685	0
228.062836	0.795792	city	2	1	0.747979	0.747979	0	1	0	0	CorrectCommission	0.152933	0.972010	0
228.858627	0.795782	mountain	7	0	0.000000	0.714994	1	0	0	0	CorrectOmission	0.138974	0.944752	0
229.654373	0.795722	city	2	1	0.798044	0.798044	0	1	0	0	CorrectCommission	0.595988	0.914486	0
230.450165	0.795846	city	3	1	1.096274	1.096274	0	1	0	0	CorrectCommission	3.235236	0.882028	0
231.246002	0.795847	city	10	1	0.797853	0.797853	0	1	0	0	CorrectCommission	0.594297	0.848427	0
232.041809	0.795764	city	3	1	0.859834	0.859834	0	1	0	0	CorrectCommission	1.142811	0.815214	0
232.837616	0.795828	city	9	1	0.698842	0.698842	0	1	0	0	CorrectCommission	0.281916	0.784102	0
233.633408	0.795753	city	10	1	0.649169	0.649169	0	1	0	0	CorrectCommission	0.721509	0.757085	1
234.429337	0.796110	city	3	1	0.847848	0.847848	0	1	0	0	CorrectCommission	1.036739	0.736111	1
235.225128	0.795468	city	7	1	0.748394	0.748394	0	1	0	0	CorrectCommission	0.156602	0.722932	1
236.020752	0.795794	mountain	10	0	0.000000	0.724140	1	0	0	0	CorrectOmission	0.058040	0.718954	1
236.816605	0.795898	city	6	1	0.749204	0.749204	0	1	0	0	CorrectCommission	0.163769	0.724946	1
237.612442	0.795775	city	4	1	0.797705	0.797705	0	1	0	0	CorrectCommission	0.592986	0.740815	1
238.408371	0.796101	city	10	1	0.649293	0.649293	0	1	0	0	CorrectCommission	0.720416	0.765590	1
239.204193	0.795529	city	3	1	0.649244	0.649244	0	1	0	0	CorrectCommission	0.720849	0.797395	0
239.999863	0.795812	city	1	1	0.657746	0.657746	0	1	0	0	CorrectCommission	0.645609	0.833589	0
240.795670	0.795800	city	6	1	0.861514	0.861514	0	1	0	0	CorrectCommission	1.157677	0.870995	0
241.591461	0.795782	city	1	1	0.698481	0.698481	0	1	0	0	CorrectCommission	0.285113	0.906102	0
242.387207	0.795732	city	3	1	0.798812	0.798812	0	1	0	0	CorrectCommission	0.602790	0.935618	0
243.183014	0.795854	city	5	1	0.897601	0.897601	0	1	0	0	CorrectCommission	1.477042	0.956610	0
243.978851	0.795829	city	9	1	1.046462	1.046462	0	1	0	0	CorrectCommission	2.794413	0.966953	0
244.774628	0.795716	mountain	7	0	0.000000	0.972222	1	0	0	0	CorrectOmission	2.137408	0.965471	0
245.570374	0.795794	city	9	1	0.798594	0.798594	0	1	0	0	CorrectCommission	0.600854	0.952138	0
246.366211	0.795870	city	3	1	0.649292	0.649292	0	1	0	0	CorrectCommission	0.720422	0.927983	0
247.162048	0.795818	city	4	1	0.649229	0.649229	0	1	0	0	CorrectCommission	0.720976	0.894857	0
247.957855	0.795798	city	1	1	0.599177	0.599177	0	1	0	0	CorrectCommission	1.163924	0.855130	0
248.753632	0.795757	mountain	5	0	0.000000	0.644338	1	0	0	0	CorrectOmission	0.764264	0.811516	0
249.549438	0.795833	city	10	1	0.700999	0.700999	0	1	0	0	CorrectCommission	0.262831	0.766696	1
250.345398	0.796106	mountain	4	0	0.000000	0.685446	1	0	0	0	CorrectOmission	0.400465	0.723060	1
251.141174	0.795449	city	1	1	0.713008	0.713008	0	1	0	0	CorrectCommission	0.156555	0.682496	1
251.936829	0.795848	city	8	1	0.899010	0.899010	0	1	0	0	CorrectCommission	1.489506	0.646291	1
252.732620	0.795740	city	9	1	0.748939	0.748939	0	1	0	0	CorrectCommission	0.161424	0.615083	1
253.528397	0.795816	city	8	1	0.662758	0.662758	0	1	0	0	CorrectCommission	0.601254	0.589072	1
254.324219	0.795840	city	3	1	0.705079	0.705079	0	1	0	0	CorrectCommission	0.226721	0.567958	1
255.120026	0.795768	city	8	1	0.650766	0.650766	0	1	0	0	CorrectCommission	0.707372	0.551158	1
255.915833	0.795835	city	7	1	0.649624	0.649624	0	1	0	0	CorrectCommission	0.717483	0.537925	1
256.711639	0.795755	city	2	1	0.702597	0.702597	0	1	0	0	CorrectCommission	0.248689	0.527502	1
257.507416	0.795806	mountain	3	0	0.000000	0.751304	1	0	0	0	CorrectOmission	0.182357	0.519295	1
258.303223	0.795804	city	4	1	0.798932	0.798932	0	1	0	0	CorrectCommission	0.603848	0.512873	1
259.099030	0.795810	city	5	1	0.848666	0.848666	0	1	0	0	CorrectCommission	1.043979	0.508029	1
259.894806	0.795771	city	3	1	0.808166	0.808166	0	1	0	0	CorrectCommission	0.685568	0.504829	1
260.690643	0.795905	city	4	1	0.797929	0.797929	0	1	0	0	CorrectCommission	0.594969	0.503551	1
261.486481	0.795765	city	3	1	0.748189	0.748189	0	1	0	0	CorrectCommission	0.154788	0.504632	1
262.282257	0.795790	city	4	1	0.708183	0.708183	0	1	0	0	CorrectCommission	0.199254	0.508602	1
263.078217	0.796116	city	5	1	0.699017	0.699017	0	1	0	0	CorrectCommission	0.280372	0.516036	1
263.874023	0.795497	mountain	7	0	0.000000	0.769931	1	0	0	0	CorrectOmission	0.347196	0.527403	1
264.669678	0.795835	city	4	1	0.807549	0.807549	0	1	0	0	CorrectCommission	0.680110	0.543012	1
265.465454	0.795715	city	5	1	0.698497	0.698497	0	1	0	0	CorrectCommission	0.284974	0.562944	1
266.261261	0.795901	city	2	1	0.609079	0.609079	0	1	0	0	CorrectCommission	1.076293	0.587042	1
267.057129	0.795795	city	8	1	0.798315	0.798315	0	1	0	0	CorrectCommission	0.598387	0.614793	1
267.852905	0.795801	city	10	1	0.698693	0.698693	0	1	0	0	CorrectCommission	0.283240	0.645475	1
268.648712	0.795780	city	9	1	0.648852	0.648852	0	1	0	0	CorrectCommission	0.724318	0.678082	1
269.444519	0.795819	city	5	1	0.649339	0.649339	0	1	0	0	CorrectCommission	0.720004	0.711328	1
270.240265	0.795717	city	7	1	0.699300	0.699300	0	1	0	0	CorrectCommission	0.277867	0.743886	1
271.036072	0.795872	city	9	1	0.810493	0.810493	0	1	0	0	CorrectCommission	0.706156	0.774416	0
271.831909	0.795816	mountain	4	0	0.000000	0.707485	1	0	0	0	CorrectOmission	0.205428	0.801676	0
272.627686	0.795729	city	8	1	0.550132	0.550132	0	1	0	0	CorrectCommission	1.597952	0.824716	0
273.423492	0.795880	mountain	10	0	0.000000	0.498289	1	0	0	0	CorrectOmission	2.056748	0.842898	0
274.219330	0.795775	city	3	1	0.598769	0.598769	0	1	0	0	CorrectCommission	1.167535	0.856038	0
275.015076	0.795745	city	4	1	0.898384	0.898384	0	1	0	0	CorrectCommission	1.483970	0.864397	0
275.810883	0.795864	city	10	1	0.699949	0.699949	0	1	0	0	CorrectCommission	0.272120	0.868461	0
276.606720	0.795807	city	7	1	0.807440	0.807440	0	1	0	0	CorrectCommission	0.679142	0.868921	0
277.402496	0.795780	mountain	1	0	0.000000	0.721337	1	0	0	0	CorrectOmission	0.082843	0.866395	0
278.198303	0.795814	city	4	1	0.649155	0.649155	0	1	0	0	CorrectCommission	0.721632	0.861348	0
278.994110	0.795786	city	10	1	0.798409	0.798409	0	1	0	0	CorrectCommission	0.599219	0.853992	0
279.790070	0.796116	city	8	1	0.649208	0.649208	0	1	0	0	CorrectCommission	0.721161	0.844288	0
280.585846	0.795470	city	6	1	0.548894	0.548894	0	1	0	0	CorrectCommission	1.608915	0.831999	0
281.381500	0.795834	city	10	1	0.549213	0.549213	0	1	0	0	CorrectCommission	1.606088	0.816824	0
282.177368	0.795880	city	1	1	0.698615	0.698615	0	1	0	0	CorrectCommission	0.283928	0.798566	0
282.973145	0.795692	city	10	1	0.898873	0.898873	0	1	0	0	CorrectCommission	1.488294	0.777323	0
283.768890	0.795812	city	8	1	0.663991	0.663991	0	1	0	0	CorrectCommission	0.590337	0.753392	1
284.564728	0.795852	city	6	1	0.698745	0.698745	0	1	0	0	CorrectCommission	0.282774	0.727489	1
285.360535	0.795747	city	5	1	0.613688	0.613688	0	1	0	0	CorrectCommission	1.035504	0.700638	1
286.156311	0.795817	city	3	1	0.847554	0.847554	0	1	0	0	CorrectCommission	1.034137	0.674022	1
286.952087	0.795733	city	9	1	0.716771	0.716771	0	1	0	0	CorrectCommission	0.123248	0.648944	1
287.748047	0.796171	city	5	1	0.714254	0.714254	0	1	0	0	CorrectCommission	0.145527	0.626719	1
288.543884	0.795508	city	10	1	0.657942	0.657942	0	1	0	0	CorrectCommission	0.643872	0.608445	1
289.339539	0.795836	city	3	1	0.798001	0.798001	0	1	0	0	CorrectCommission	0.595607	0.594996	1
290.135345	0.795782	city	5	1	0.803751	0.803751	0	1	0	0	CorrectCommission	0.646494	0.586907	1
290.931122	0.795748	city	10	1	0.715542	0.715542	0	1	0	0	CorrectCommission	0.134131	0.584424	1
291.726898	0.795791	city	9	1	0.799000	0.799000	0	1	0	0	CorrectCommission	0.604454	0.587514	1
292.522736	0.795877	city	3	1	0.655160	0.655160	0	1	0	0	CorrectCommission	0.668490	0.595835	1
293.318573	0.795805	city	9	1	0.710491	0.710491	0	1	0	0	CorrectCommission	0.178831	0.608902	1
294.114349	0.795761	city	5	1	0.601315	0.601315	0	1	0	0	CorrectCommission	1.145006	0.626054	1
294.910156	0.795817	city	8	1	0.655666	0.655666	0	1	0	0	CorrectCommission	0.664009	0.646546	1
295.706085	0.796097	city	9	1	0.698489	0.698489	0	1	0	0	CorrectCommission	0.285045	0.669543	1
296.501892	0.795508	city	7	1	0.649267	0.649267	0	1	0	0	CorrectCommission	0.720644	0.694152	1
297.297668	0.796057	city	2	1	0.653387	0.653387	0	1	0	0	CorrectCommission	0.684180	0.719405	1
298.093475	0.795553	city	8	1	0.648710	0.648710	0	1	0	0	CorrectCommission	0.725572	0.744324	1
298.889130	0.795739	city	9	1	0.813827	0.813827	0	1	0	0	CorrectCommission	0.735666	0.767940	1
299.684906	0.795826	city	8	1	0.664082	0.664082	0	1	0	0	CorrectCommission	0.589535	0.789419	0
300.480896	0.796127	city	7	1	0.601835	0.601835	0	1	0	0	CorrectCommission	1.140399	0.807993	0
301.276733	0.795536	city	4	1	0.848094	0.848094	0	1	0	0	CorrectCommission	1.038916	0.823081	0
302.072357	0.795752	city	1	1	0.848537	0.848537	0	1	0	0	CorrectCommission	1.042835	0.834360	0
302.868134	0.795787	city	7	1	0.866887	0.866887	0	1	0	0	CorrectCommission	1.205231	0.841718	0
303.663940	0.795842	city	1	1	0.810342	0.810342	0	1	0	0	CorrectCommission	0.704826	0.845244	0
304.459778	0.795794	city	3	1	0.854081	0.854081	0	1	0	0	CorrectCommission	1.091900	0.845212	0
305.255585	0.795808	city	8	1	0.699325	0.699325	0	1	0	0	CorrectCommission	0.277645	0.841945	0
306.051361	0.795773	city	10	1	0.558485	0.558485	0	1	0	0	CorrectCommission	1.524033	0.835797	0
306.847137	0.795754	city	4	1	0.663850	0.663850	0	1	0	0	CorrectCommission	0.591588	0.827007	0
307.642944	0.795874	city	2	1	0.698618	0.698618	0	1	0	0	CorrectCommission	0.283902	0.815767	0
308.438751	0.795778	city	3	1	0.797789	0.797789	0	1	0	0	CorrectCommission	0.593733	0.802192	0
309.234558	0.795800	city	2	1	0.748292	0.748292	0	1	0	0	CorrectCommission	0.155695	0.786345	0
310.030334	0.795749	city	1	1	0.999109	0.999109	0	1	0	0	CorrectCommission	2.375350	0.768358	1
310.826111	0.795816	city	5	1	0.598968	0.598968	0	1	0	0	CorrectCommission	1.165773	0.748428	1
311.621948	0.795886	city	7	1	0.648571	0.648571	0	1	0	0	CorrectCommission	0.726803	0.727066	1
312.417786	0.795763	city	5	1	0.699391	0.699391	0	1	0	0	CorrectCommission	0.277059	0.705011	1
313.213593	0.795834	mountain	3	0	0.000000	0.790283	1	0	0	0	CorrectOmission	0.527303	0.683243	1
314.009369	0.795729	city	4	1	0.798100	0.798100	0	1	0	0	CorrectCommission	0.596488	0.662885	1
314.805115	0.795787	city	1	1	0.599700	0.599700	0	1	0	0	CorrectCommission	1.159299	0.645170	1
315.600922	0.795835	city	6	1	0.748479	0.748479	0	1	0	0	CorrectCommission	0.157355	0.631345	1
316.396790	0.795842	mountain	1	0	0.000000	0.731540	1	0	0	0	CorrectOmission	0.007451	0.622606	1
317.192596	0.795797	city	10	1	0.698626	0.698626	0	1	0	0	CorrectCommission	0.283830	0.619933	1
317.988373	0.795745	city	9	1	0.799480	0.799480	0	1	0	0	CorrectCommission	0.608698	0.623998	1
318.784149	0.795793	city	2	1	0.613435	0.613435	0	1	0	0	CorrectCommission	1.037744	0.635147	1
319.579956	0.795860	city	10	1	0.665311	0.665311	0	1	0	0	CorrectCommission	0.578659	0.653327	1
320.375763	0.795737	city	1	1	0.663318	0.663318	0	1	0	0	CorrectCommission	0.596292	0.678116	1
321.171539	0.795829	city	5	1	0.798454	0.798454	0	1	0	0	CorrectCommission	0.599617	0.708601	1
321.967346	0.795761	city	10	1	0.847896	0.847896	0	1	0	0	CorrectCommission	1.037165	0.743403	1
322.763123	0.795818	city	5	1	0.751489	0.751489	0	1	0	0	CorrectCommission	0.183990	0.780732	0
323.558960	0.795860	city	3	1	0.703343	0.703343	0	1	0	0	CorrectCommission	0.242081	0.818435	0
324.354767	0.795727	city	1	1	0.655203	0.655203	0	1	0	0	CorrectCommission	0.668106	0.854093	0
325.150543	0.795820	city	7	1	0.648982	0.648982	0	1	0	0	CorrectCommission	0.723165	0.885257	0
325.946503	0.796150	city	4	1	0.599502	0.599502	0	1	0	0	CorrectCommission	1.161049	0.909623	0
326.742371	0.795529	city	9	1	0.946800	0.946800	0	1	0	0	CorrectCommission	1.912436	0.925390	0
327.537994	0.795757	mountain	8	0	0.000000	0.996186	1	0	0	0	CorrectOmission	2.349483	0.931276	0
328.333801	0.795838	city	3	1	0.898349	0.898349	0	1	0	0	CorrectCommission	1.483658	0.926854	0
329.129639	0.795818	city	6	1	0.803981	0.803981	0	1	0	0	CorrectCommission	0.648528	0.912604	0
329.925446	0.795815	city	1	1	0.713336	0.713336	0	1	0	0	CorrectCommission	0.153652	0.889802	0
330.721191	0.795696	mountain	7	1	0.613551	0.613551	0	0	1	0	CommissionError	1.036714	0.860347	0
331.516968	0.795867	city	7	1	0.857775	0.857775	0	1	0	0	CorrectCommission	1.124590	0.826527	0
332.312775	0.795752	mountain	10	0	0.000000	0.822439	1	0	0	0	CorrectOmission	0.811878	0.790829	0
333.108734	0.796151	city	2	1	0.699262	0.699262	0	1	0	0	CorrectCommission	0.278204	0.755709	1
333.904572	0.795488	mountain	7	0	0.000000	0.679961	1	0	0	0	CorrectOmission	0.449012	0.723414	1
334.700195	0.795797	city	5	1	0.750636	0.750636	0	1	0	0	CorrectCommission	0.176442	0.695836	1
335.495972	0.795765	city	1	1	0.897387	0.897387	0	1	0	0	CorrectCommission	1.475145	0.674424	1
336.291779	0.795833	city	2	1	0.755579	0.755579	0	1	0	0	CorrectCommission	0.220183	0.660215	1
337.087616	0.795809	city	1	1	0.698757	0.698757	0	1	0	0	CorrectCommission	0.282672	0.654027	1
337.883392	0.795747	city	9	1	0.810239	0.810239	0	1	0	0	CorrectCommission	0.703913	0.656399	1
338.679199	0.795902	city	3	1	0.648774	0.648774	0	1	0	0	CorrectCommission	0.725001	0.667667	1
339.475006	0.795709	mountain	8	0	0.000000	0.736093	1	0	0	0	CorrectOmission	0.047739	0.687994	1
340.270935	0.796162	city	6	1	0.848635	0.848635	0	1	0	0	CorrectCommission	1.043704	0.717390	1
341.066772	0.795515	city	3	1	0.762842	0.762842	0	1	0	0	CorrectCommission	0.284460	0.755476	1
341.862427	0.795772	city	4	1	0.947333	0.947333	0	1	0	0	CorrectCommission	1.917153	0.801493	0
342.658234	0.795857	city	7	1	0.749723	0.749723	0	1	0	0	CorrectCommission	0.168364	0.854020	0
343.454041	0.795766	city	5	1	0.749801	0.749801	0	1	0	0	CorrectCommission	0.169053	0.911070	0
344.249847	0.795823	city	1	1	0.652493	0.652493	0	1	0	0	CorrectCommission	0.692097	0.969876	0
345.045624	0.795718	city	5	1	0.649610	0.649610	0	1	0	0	CorrectCommission	0.717609	1.026990	0
345.841400	0.795847	city	9	1	0.798232	0.798232	0	1	0	0	CorrectCommission	0.597656	1.078570	0
346.637238	0.795828	city	2	1	0.599146	0.599146	0	1	0	0	CorrectCommission	1.164193	1.120679	0
347.433044	0.795776	city	8	1	0.516464	0.516464	0	1	0	0	CorrectCommission	1.895910	1.149689	0
348.228821	0.795793	city	3	1	0.508806	0.508806	0	1	0	0	CorrectCommission	1.963676	1.162665	0
349.024628	0.795794	city	4	1	0.415752	0.415752	0	1	0	0	CorrectCommission	2.787181	1.157820	0
349.820435	0.795829	city	10	1	0.350839	0.350839	0	1	0	0	CorrectCommission	3.361640	1.134720	0
350.616272	0.795849	city	5	1	0.797881	0.797881	0	1	0	0	CorrectCommission	0.594549	1.094363	0
351.412048	0.795700	city	10	1	0.798734	0.798734	0	1	0	0	CorrectCommission	0.602098	1.039213	0
352.207825	0.795835	city	2	1	0.698388	0.698388	0	1	0	0	CorrectCommission	0.285937	0.972654	0
353.003601	0.795766	city	8	1	0.649177	0.649177	0	1	0	0	CorrectCommission	0.721436	0.898729	0
353.799438	0.795894	city	2	1	0.798137	0.798137	0	1	0	0	CorrectCommission	0.596809	0.821722	0
354.595245	0.795712	city	3	1	0.797902	0.797902	0	1	0	0	CorrectCommission	0.594732	0.745779	1
355.391022	0.795857	city	9	1	0.848010	0.848010	0	1	0	0	CorrectCommission	1.038173	0.674556	1
356.186890	0.795846	city	3	1	0.749747	0.749747	0	1	0	0	CorrectCommission	0.168573	0.611001	1
356.982697	0.795761	city	1	1	0.748726	0.748726	0	1	0	0	CorrectCommission	0.159539	0.557337	1
357.778442	0.795751	city	10	1	0.755502	0.755502	0	1	0	0	CorrectCommission	0.219508	0.514944	1
358.574402	0.796150	mountain	4	0	0.000000	0.699436	1	0	0	0	CorrectOmission	0.276663	0.484530	1
359.370178	0.795431	city	1	1	0.658560	0.658560	0	1	0	0	CorrectCommission	0.638406	0.466080	1
360.165833	0.795850	mountain	9	0	0.000000	0.710906	1	0	0	0	CorrectOmission	0.175153	0.459149	1
360.961639	0.795793	city	9	1	0.757265	0.757265	0	1	0	0	CorrectCommission	0.235104	0.462923	1
361.757477	0.795851	city	6	1	0.698423	0.698423	0	1	0	0	CorrectCommission	0.285625	0.476321	1
362.553284	0.795759	city	2	1	0.649146	0.649146	0	1	0	0	CorrectCommission	0.721713	0.498056	1
363.349091	0.795867	city	9	1	0.748641	0.748641	0	1	0	0	CorrectCommission	0.158786	0.526739	1
364.144897	0.795792	mountain	1	0	0.000000	0.699327	1	0	0	0	CorrectOmission	0.277627	0.560970	1
364.940674	0.795707	city	8	1	0.649718	0.649718	0	1	0	0	CorrectCommission	0.716647	0.599347	1
365.736450	0.795849	city	5	1	0.748330	0.748330	0	1	0	0	CorrectCommission	0.156034	0.640560	1
366.532288	0.795849	city	9	1	0.898334	0.898334	0	1	0	0	CorrectCommission	1.483525	0.683456	1
367.328064	0.795710	city	5	1	0.699365	0.699365	0	1	0	0	CorrectCommission	0.277294	0.726959	1
368.123871	0.795883	mountain	1	0	0.000000	0.617873	1	0	0	0	CorrectOmission	0.998472	0.770341	1
368.919647	0.795712	city	7	1	0.600261	0.600261	0	1	0	0	CorrectCommission	1.154330	0.812924	0
369.715454	0.795864	mountain	10	0	0.000000	0.592932	1	0	0	0	CorrectOmission	1.219191	0.854138	0
370.511292	0.795791	city	2	1	0.605555	0.605555	0	1	0	0	CorrectCommission	1.107476	0.893408	0
371.307068	0.795812	mountain	4	0	0.000000	0.647803	1	0	0	0	CorrectOmission	0.733601	0.930072	0
372.102875	0.795773	mountain	7	0	0.000000	0.714436	1	0	0	0	CorrectOmission	0.143916	0.963385	0
372.898682	0.795848	city	1	1	0.800219	0.800219	0	1	0	0	CorrectCommission	0.615233	0.992429	0
373.694519	0.795817	city	6	1	0.899913	0.899913	0	1	0	0	CorrectCommission	1.497497	1.016206	0
374.490448	0.796043	city	4	1	0.699122	0.699122	0	1	0	0	CorrectCommission	0.279438	1.033768	0
375.286224	0.795512	city	9	1	0.900301	0.900301	0	1	0	0	CorrectCommission	1.500934	1.044444	0
376.081848	0.795762	city	7	1	0.550394	0.550394	0	1	0	0	CorrectCommission	1.595637	1.047916	0
376.877808	0.796151	mountain	5	1	0.401063	0.401063	0	0	1	0	CommissionError	2.917171	1.044407	0
377.673798	0.795804	city	7	1	0.549446	0.549446	0	1	0	0	CorrectCommission	1.604032	1.034694	0
378.469452	0.795493	city	10	1	0.608837	0.608837	0	1	0	0	CorrectCommission	1.078432	1.020119	0
379.265228	0.796105	city	6	1	0.758284	0.758284	0	1	0	0	CorrectCommission	0.244125	1.002333	0
380.061035	0.795514	city	5	1	0.761569	0.761569	0	1	0	0	CorrectCommission	0.273197	0.983006	0
380.856842	0.796096	city	8	1	0.760272	0.760272	0	1	0	0	CorrectCommission	0.261721	0.963572	0
381.652618	0.795446	city	7	1	0.749869	0.749869	0	1	0	0	CorrectCommission	0.169656	0.945031	0
382.448273	0.795833	mountain	1	0	0.000000	0.650444	1	0	0	0	CorrectOmission	0.710228	0.927790	0
383.244080	0.795773	city	5	1	0.553409	0.553409	0	1	0	0	CorrectCommission	1.568954	0.911719	0
384.039886	0.795875	city	3	1	0.550179	0.550179	0	1	0	0	CorrectCommission	1.597543	0.896178	0
384.835754	0.795827	city	1	1	0.598806	0.598806	0	1	0	0	CorrectCommission	1.167210	0.880339	0
385.631531	0.795763	city	5	1	0.613444	0.613444	0	1	0	0	CorrectCommission	1.037662	0.863365	0
386.427307	0.795795	city	3	1	0.698260	0.698260	0	1	0	0	CorrectCommission	0.287073	0.844607	0
387.223083	0.795765	city	9	1	0.897270	0.897270	0	1	0	0	CorrectCommission	1.474107	0.823883	0
388.018921	0.795859	city	10	1	0.649376	0.649376	0	1	0	0	CorrectCommission	0.719673	0.801413	0
388.814758	0.795829	city	7	1	0.663557	0.663557	0	1	0	0	CorrectCommission	0.594184	0.777973	0
389.610565	0.795775	city	9	1	0.847740	0.847740	0	1	0	0	CorrectCommission	1.035786	0.754799	1
390.406342	0.795792	city	5	1	0.699808	0.699808	0	1	0	0	CorrectCommission	0.273372	0.733399	1
391.202271	0.796099	city	10	1	0.611045	0.611045	0	1	0	0	CorrectCommission	1.058893	0.715436	1
391.998047	0.795435	city	2	1	0.698111	0.698111	0	1	0	0	CorrectCommission	0.288385	0.702532	1
392.793701	0.795886	city	4	1	0.800828	0.800828	0	1	0	0	CorrectCommission	0.620626	0.696083	1
393.589539	0.795779	city	5	1	0.748162	0.748162	0	1	0	0	CorrectCommission	0.154552	0.697082	1
394.385315	0.795763	city	7	1	0.848490	0.848490	0	1	0	0	CorrectCommission	1.042421	0.705982	1
395.181122	0.795840	city	3	1	0.701499	0.701499	0	1	0	0	CorrectCommission	0.258408	0.722607	1
395.977081	0.796105	city	4	1	0.764991	0.764991	0	1	0	0	CorrectCommission	0.303480	0.746235	1
396.772888	0.795483	city	3	1	0.809096	0.809096	0	1	0	0	CorrectCommission	0.693800	0.775552	0
397.568512	0.795785	city	5	1	0.798112	0.798112	0	1	0	0	CorrectCommission	0.596592	0.808740	0
398.364288	0.795768	city	6	1	0.897880	0.897880	0	1	0	0	CorrectCommission	1.479504	0.843662	0
399.160095	0.795823	mountain	3	0	0.000000	0.865709	1	0	0	0	CorrectOmission	1.194807	0.877988	0
399.955902	0.795809	city	1	1	0.799935	0.799935	0	1	0	0	CorrectCommission	0.612728	0.909457	0
400.751709	0.795774	city	8	1	0.798892	0.798892	0	1	0	0	CorrectCommission	0.603498	0.936015	0
401.547516	0.795851	city	5	1	0.763672	0.763672	0	1	0	0	CorrectCommission	0.291804	0.955963	0
402.343353	0.795846	city	10	1	0.996715	0.996715	0	1	0	0	CorrectCommission	2.354165	0.968136	0
403.139160	0.795743	mountain	5	0	0.000000	0.952648	1	0	0	0	CorrectOmission	1.964189	0.971875	0
403.934906	0.795778	city	8	1	0.847767	0.847767	0	1	0	0	CorrectCommission	1.036023	0.967276	0
404.730743	0.795860	city	1	1	0.898367	0.898367	0	1	0	0	CorrectCommission	1.483817	0.955007	0
405.526550	0.795783	city	10	1	0.814698	0.814698	0	1	0	0	CorrectCommission	0.743372	0.936125	0
406.322357	0.795818	city	3	1	0.698909	0.698909	0	1	0	0	CorrectCommission	0.281326	0.912050	0
407.118164	0.795831	city	6	1	0.805550	0.805550	0	1	0	0	CorrectCommission	0.662414	0.884340	0
407.913971	0.795778	city	9	1	0.698494	0.698494	0	1	0	0	CorrectCommission	0.284996	0.854497	0
408.709778	0.795819	city	5	1	0.847569	0.847569	0	1	0	0	CorrectCommission	1.034270	0.823898	0
409.505554	0.795749	city	10	1	0.859702	0.859702	0	1	0	0	CorrectCommission	1.141640	0.793702	0
410.301392	0.795879	city	1	1	0.649601	0.649601	0	1	0	0	CorrectCommission	0.717682	0.764874	1
411.097198	0.795746	city	5	1	0.599546	0.599546	0	1	0	0	CorrectCommission	1.160654	0.738223	1
411.892975	0.795822	city	1	1	0.608210	0.608210	0	1	0	0	CorrectCommission	1.083987	0.714324	1
412.688751	0.795724	city	9	1	0.698376	0.698376	0	1	0	0	CorrectCommission	0.286046	0.693640	1
413.484680	0.796132	city	1	1	0.748880	0.748880	0	1	0	0	CorrectCommission	0.160906	0.676502	1
414.280518	0.795529	city	3	1	0.748013	0.748013	0	1	0	0	CorrectCommission	0.153232	0.663080	1
415.076172	0.795800	city	10	1	0.648824	0.648824	0	1	0	0	CorrectCommission	0.724563	0.653430	1
415.871948	0.795754	city	6	1	0.847875	0.847875	0	1	0	0	CorrectCommission	1.036979	0.647438	1
416.667725	0.795816	mountain	6	0	0.000000	0.802202	1	0	0	0	CorrectOmission	0.632784	0.644873	1
417.463715	0.796145	city	2	1	0.703252	0.703252	0	1	0	0	CorrectCommission	0.242895	0.645464	1
418.259521	0.795448	mountain	8	0	0.000000	0.742473	1	0	0	0	CorrectOmission	0.104199	0.648846	1
419.055176	0.795882	city	5	1	0.847855	0.847855	0	1	0	0	CorrectCommission	1.036805	0.654595	1
419.851013	0.795792	city	8	1	0.947391	0.947391	0	1	0	0	CorrectCommission	1.917665	0.662172	1
420.646942	0.796090	city	7	1	0.748841	0.748841	0	1	0	0	CorrectCommission	0.160562	0.670988	1
421.442719	0.795424	city	2	1	0.714358	0.714358	0	1	0	0	CorrectCommission	0.144604	0.680566	1
422.238342	0.795817	city	5	1	0.599040	0.599040	0	1	0	0	CorrectCommission	1.165135	0.690300	1
423.034180	0.795876	city	8	1	0.749416	0.749416	0	1	0	0	CorrectCommission	0.165642	0.699514	1
423.830017	0.795786	city	9	1	0.698827	0.698827	0	1	0	0	CorrectCommission	0.282053	0.707635	1
424.625793	0.795801	city	6	1	0.698640	0.698640	0	1	0	0	CorrectCommission	0.283709	0.714087	1
425.421600	0.795773	city	7	1	0.600004	0.600004	0	1	0	0	CorrectCommission	1.156603	0.718495	1
426.217377	0.795789	mountain	9	0	0.000000	0.556319	1	0	0	0	CorrectOmission	1.543200	0.720676	1
427.013153	0.795777	city	2	1	0.561433	0.561433	0	1	0	0	CorrectCommission	1.497950	0.720788	1
427.808990	0.795897	city	5	1	0.609190	0.609190	0	1	0	0	CorrectCommission	1.075308	0.719327	1
428.604828	0.795786	city	4	1	0.751174	0.751174	0	1	0	0	CorrectCommission	0.181201	0.717108	1
429.400604	0.795750	city	7	1	0.749118	0.749118	0	1	0	0	CorrectCommission	0.163010	0.715149	1
430.196533	0.796130	mountain	7	0	0.000000	0.789898	1	0	0	0	CorrectOmission	0.523904	0.714549	1
430.992493	0.795793	city	4	1	0.798140	0.798140	0	1	0	0	CorrectCommission	0.596841	0.716298	1
431.788147	0.795507	city	9	1	0.698469	0.698469	0	1	0	0	CorrectCommission	0.285220	0.721186	1
432.583801	0.795788	city	4	1	0.605624	0.605624	0	1	0	0	CorrectCommission	1.106873	0.729694	1
433.379608	0.795812	city	9	1	0.848243	0.848243	0	1	0	0	CorrectCommission	1.040238	0.741863	1
434.175415	0.795853	city	4	1	0.748175	0.748175	0	1	0	0	CorrectCommission	0.154668	0.757399	1
434.971191	0.795691	city	8	1	0.661788	0.661788	0	1	0	0	CorrectCommission	0.609833	0.775701	0
435.766937	0.795816	city	1	1	0.702343	0.702343	0	1	0	0	CorrectCommission	0.250935	0.795893	0
436.562775	0.795816	city	6	1	0.552099	0.552099	0	1	0	0	CorrectCommission	1.580546	0.816966	0
437.358612	0.795876	mountain	10	0	0.000000	0.549149	1	0	0	0	CorrectOmission	1.606658	0.837819	0
438.154419	0.795758	city	10	1	0.649098	0.649098	0	1	0	0	CorrectCommission	0.722134	0.857484	0
438.950226	0.795823	city	3	1	0.807556	0.807556	0	1	0	0	CorrectCommission	0.680165	0.875192	0
439.746002	0.795736	city	1	1	0.703041	0.703041	0	1	0	0	CorrectCommission	0.244755	0.890357	0
440.541779	0.795792	city	7	1	0.848276	0.848276	0	1	0	0	CorrectCommission	1.040523	0.902638	0
441.337616	0.795901	city	2	1	0.598843	0.598843	0	1	0	0	CorrectCommission	1.166882	0.911872	0
442.133453	0.795785	city	3	1	0.549472	0.549472	0	1	0	0	CorrectCommission	1.603800	0.918226	0
442.929230	0.795789	city	5	1	0.653281	0.653281	0	1	0	0	CorrectCommission	0.685119	0.922002	0
443.725006	0.795746	city	3	1	0.857506	0.857506	0	1	0	0	CorrectCommission	1.122205	0.923725	0
444.520782	0.795812	city	9	1	0.660795	0.660795	0	1	0	0	CorrectCommission	0.618626	0.923993	0
445.316589	0.795820	city	10	1	0.599283	0.599283	0	1	0	0	CorrectCommission	1.162986	0.923512	0
446.112396	0.795785	city	8	1	0.804947	0.804947	0	1	0	0	CorrectCommission	0.657075	0.923010	0
446.908203	0.795791	city	3	1	0.648753	0.648753	0	1	0	0	CorrectCommission	0.725188	0.923184	0
447.704041	0.795885	city	4	1	0.599322	0.599322	0	1	0	0	CorrectCommission	1.162639	0.924635	0
448.499847	0.795759	city	2	1	0.648747	0.648747	0	1	0	0	CorrectCommission	0.725247	0.927777	0
449.295624	0.795795	city	9	1	0.617466	0.617466	0	1	0	0	CorrectCommission	1.002070	0.932857	0
450.091461	0.795862	city	10	1	0.648858	0.648858	0	1	0	0	CorrectCommission	0.724266	0.939851	0
450.887268	0.795725	city	6	1	0.861850	0.861850	0	1	0	0	CorrectCommission	1.160656	0.948527	0
451.683044	0.795881	city	1	1	0.814137	0.814137	0	1	0	0	CorrectCommission	0.738410	0.958431	0
452.478882	0.795781	city	9	1	0.897487	0.897487	0	1	0	0	CorrectCommission	1.476025	0.968869	0
453.274658	0.795752	city	8	1	0.762255	0.762255	0	1	0	0	CorrectCommission	0.279267	0.978953	0
454.070435	0.795785	city	1	1	0.798722	0.798722	0	1	0	0	CorrectCommission	0.601985	0.987753	0
454.866241	0.795869	city	4	1	0.948080	0.948080	0	1	0	0	CorrectCommission	1.923762	0.994253	0
455.662079	0.795798	city	8	1	0.815507	0.815507	0	1	0	0	CorrectCommission	0.750528	0.997516	0
456.457855	0.795740	city	1	1	0.716342	0.716342	0	1	0	0	CorrectCommission	0.127050	0.996854	0
457.253662	0.795870	city	9	1	1.010632	1.010632	0	1	0	0	CorrectCommission	2.477328	0.991865	0
458.049469	0.795766	city	5	1	0.556009	0.556009	0	1	0	0	CorrectCommission	1.545951	0.982319	0
458.845245	0.795764	mountain	4	1	0.598965	0.598965	0	0	1	0	CommissionError	1.165801	0.968409	0
459.641022	0.795799	mountain	7	0	0.000000	0.665694	1	0	0	0	CorrectOmission	0.575265	0.950558	0
460.436859	0.795857	city	5	1	0.751110	0.751110	0	1	0	0	CorrectCommission	0.180633	0.929426	0
461.232635	0.795735	city	9	1	0.850123	0.850123	0	1	0	0	CorrectCommission	1.056871	0.905768	0
462.028442	0.795858	city	7	1	0.665673	0.665673	0	1	0	0	CorrectCommission	0.575454	0.880337	0
462.824280	0.795795	city	8	1	0.549448	0.549448	0	1	0	0	CorrectCommission	1.604007	0.853890	0
463.620087	0.795826	mountain	1	0	0.000000	0.611381	1	0	0	0	CorrectOmission	1.055925	0.827078	0
464.415894	0.795809	city	4	1	0.712401	0.712401	0	1	0	0	CorrectCommission	0.161927	0.800556	0
465.211700	0.795778	city	3	1	0.713440	0.713440	0	1	0	0	CorrectCommission	0.152733	0.774880	0
466.007507	0.795827	city	10	1	0.848152	0.848152	0	1	0	0	CorrectCommission	1.039425	0.750540	1
466.803284	0.795775	city	6	1	0.946935	0.946935	0	1	0	0	CorrectCommission	1.913628	0.727976	1
467.599060	0.795766	city	8	1	0.798826	0.798826	0	1	0	0	CorrectCommission	0.602907	0.707573	1
468.394867	0.795840	city	9	1	0.748525	0.748525	0	1	0	0	CorrectCommission	0.157762	0.689737	1
469.190674	0.795781	city	8	1	0.656343	0.656343	0	1	0	0	CorrectCommission	0.658021	0.674752	1
469.986450	0.795758	city	7	1	0.755043	0.755043	0	1	0	0	CorrectCommission	0.215443	0.662705	1
470.782257	0.795860	city	9	1	0.698812	0.698812	0	1	0	0	CorrectCommission	0.282180	0.653605	1
471.578094	0.795816	city	7	1	0.716379	0.716379	0	1	0	0	CorrectCommission	0.126722	0.647263	1
472.373871	0.795731	city	2	1	0.599164	0.599164	0	1	0	0	CorrectCommission	1.164036	0.643309	1
473.169647	0.795849	city	8	1	0.599496	0.599496	0	1	0	0	CorrectCommission	1.161099	0.641294	1
473.965485	0.795790	city	9	1	0.648924	0.648924	0	1	0	0	CorrectCommission	0.723682	0.640823	1
474.761292	0.795812	city	1	1	0.650694	0.650694	0	1	0	0	CorrectCommission	0.708014	0.641537	1
475.557068	0.795763	city	5	1	0.802352	0.802352	0	1	0	0	CorrectCommission	0.634115	0.643285	1
476.352875	0.795826	city	10	1	0.798889	0.798889	0	1	0	0	CorrectCommission	0.603468	0.646148	1
477.148651	0.795766	city	6	1	0.749124	0.749124	0	1	0	0	CorrectCommission	0.163062	0.650534	1
477.944458	0.795808	city	7	1	0.698783	0.698783	0	1	0	0	CorrectCommission	0.282438	0.657172	1
478.740265	0.795828	city	4	1	0.802138	0.802138	0	1	0	0	CorrectCommission	0.632217	0.667008	1
479.536224	0.796097	city	10	1	0.549157	0.549157	0	1	0	0	CorrectCommission	1.606587	0.681263	1
480.332001	0.795485	city	7	1	0.649379	0.649379	0	1	0	0	CorrectCommission	0.719649	0.701222	1
481.127655	0.795817	city	10	1	0.700640	0.700640	0	1	0	0	CorrectCommission	0.266004	0.728225	1
481.923462	0.795789	city	3	1	0.617396	0.617396	0	1	0	0	CorrectCommission	1.002687	0.763401	1
482.719269	0.795786	city	6	1	0.699128	0.699128	0	1	0	0	CorrectCommission	0.279384	0.807449	0
483.515045	0.795819	city	3	1	0.658520	0.658520	0	1	0	0	CorrectCommission	0.638760	0.860543	0
484.310852	0.795783	city	7	1	0.701137	0.701137	0	1	0	0	CorrectCommission	0.261606	0.922101	0
485.106689	0.795874	city	8	1	0.748447	0.748447	0	1	0	0	CorrectCommission	0.157072	0.990857	0
485.902527	0.795784	city	10	1	0.611116	0.611116	0	1	0	0	CorrectCommission	1.058268	1.064862	0
486.698303	0.795802	city	3	1	0.601697	0.601697	0	1	0	0	CorrectCommission	1.141620	1.141620	0
