onset	duration	trial_type	image_type	Press	ReactionTime	ReactionTime_Interpolated	CorrectOmission	CorrectCommission	CommissionError	OmissionError	response_type	nonsmoothVarianceTimeCourse	VarianceTimeCourse	In_the_Zone
8.421675	0.795747	city	9	1	1.146281	1.146281	0	1	0	0	CorrectCommission	2.040716	2.040716	0
9.217592	0.796087	city	3	1	0.713265	0.713265	0	1	0	0	CorrectCommission	0.388288	1.876719	0
10.013394	0.795517	city	4	1	0.499545	0.499545	0	1	0	0	CorrectCommission	1.587154	1.715572	0
10.809170	0.796034	city	3	1	0.450283	0.450283	0	1	0	0	CorrectCommission	1.863491	1.559929	0
11.605118	0.795861	mountain	9	1	0.449603	0.449603	0	0	1	0	CommissionError	1.867303	1.412252	0
12.400797	0.795498	city	4	1	0.947137	0.947137	0	1	0	0	CorrectCommission	0.923620	1.274712	0
13.196624	0.796156	city	2	1	0.710327	0.710327	0	1	0	0	CorrectCommission	0.404773	1.149088	0
13.992563	0.795723	city	8	1	0.657704	0.657704	0	1	0	0	CorrectCommission	0.699958	1.036658	0
14.788354	0.795858	city	7	1	0.648481	0.648481	0	1	0	0	CorrectCommission	0.751695	0.938172	0
15.584041	0.795515	mountain	7	1	0.698232	0.698232	0	0	1	0	CommissionError	0.472616	0.853847	0
16.379831	0.796066	city	10	1	0.847950	0.847950	0	1	0	0	CorrectCommission	0.367225	0.783390	1
17.175653	0.795579	city	4	1	0.947311	0.947311	0	1	0	0	CorrectCommission	0.924595	0.726041	1
17.971352	0.795820	city	8	1	0.701597	0.701597	0	1	0	0	CorrectCommission	0.453741	0.680609	1
18.767141	0.795759	city	6	1	0.897583	0.897583	0	1	0	0	CorrectCommission	0.645646	0.645663	1
19.563040	0.796038	city	3	1	0.748333	0.748333	0	1	0	0	CorrectCommission	0.191576	0.619559	1
20.358959	0.795801	city	7	1	0.698529	0.698529	0	1	0	0	CorrectCommission	0.470954	0.600627	1
21.154734	0.795748	city	5	1	0.698204	0.698204	0	1	0	0	CorrectCommission	0.472777	0.587222	1
21.950386	0.795557	city	2	1	0.599285	0.599285	0	1	0	0	CorrectCommission	1.027664	0.577824	1
22.746197	0.796062	city	5	1	0.649913	0.649913	0	1	0	0	CorrectCommission	0.743667	0.571138	1
23.542177	0.795899	city	10	1	0.698471	0.698471	0	1	0	0	CorrectCommission	0.471276	0.566190	1
24.337851	0.795447	city	1	1	0.655039	0.655039	0	1	0	0	CorrectCommission	0.714909	0.562277	1
25.133615	0.796084	city	6	1	0.798348	0.798348	0	1	0	0	CorrectCommission	0.088982	0.558953	1
25.929546	0.795778	city	10	1	0.663816	0.663816	0	1	0	0	CorrectCommission	0.665678	0.556078	1
26.725359	0.795847	city	7	1	0.698402	0.698402	0	1	0	0	CorrectCommission	0.471666	0.553728	1
27.521070	0.795574	city	10	1	0.658189	0.658189	0	1	0	0	CorrectCommission	0.697241	0.552129	1
28.316866	0.796017	city	2	1	0.648755	0.648755	0	1	0	0	CorrectCommission	0.750161	0.551542	1
29.112637	0.795526	city	9	1	0.748062	0.748062	0	1	0	0	CorrectCommission	0.193098	0.552238	1
29.908289	0.795777	city	7	1	0.605441	0.605441	0	1	0	0	CorrectCommission	0.993128	0.554462	1
30.704105	0.795859	city	8	1	0.699159	0.699159	0	1	0	0	CorrectCommission	0.467418	0.558294	1
31.499956	0.795842	city	2	1	0.701900	0.701900	0	1	0	0	CorrectCommission	0.452040	0.563652	1
32.295845	0.795936	city	4	1	0.797542	0.797542	0	1	0	0	CorrectCommission	0.084464	0.570208	1
33.091774	0.795922	city	8	1	0.747876	0.747876	0	1	0	0	CorrectCommission	0.194141	0.577463	1
33.887600	0.795734	city	7	1	0.648718	0.648718	0	1	0	0	CorrectCommission	0.750368	0.584760	1
34.683361	0.795784	city	4	1	0.698060	0.698060	0	1	0	0	CorrectCommission	0.473584	0.591319	1
35.479183	0.795864	city	2	1	0.598786	0.598786	0	1	0	0	CorrectCommission	1.030463	0.596444	1
36.274986	0.795739	city	10	1	0.499000	0.499000	0	1	0	0	CorrectCommission	1.590212	0.599519	1
37.070744	0.795777	city	9	1	0.847486	0.847486	0	1	0	0	CorrectCommission	0.364625	0.600153	1
37.866425	0.795586	city	2	1	0.798630	0.798630	0	1	0	0	CorrectCommission	0.090564	0.598260	1
38.662239	0.796039	city	9	1	0.975533	0.975533	0	1	0	0	CorrectCommission	1.082904	0.593977	1
39.458149	0.795784	city	10	1	0.748435	0.748435	0	1	0	0	CorrectCommission	0.191005	0.587582	1
40.253983	0.795885	mountain	2	0	0.000000	0.652479	1	0	0	0	CorrectOmission	0.729268	0.579568	1
41.049812	0.795773	city	3	1	0.698474	0.698474	0	1	0	0	CorrectCommission	0.471263	0.570442	1
41.845585	0.795769	city	10	1	0.897225	0.897225	0	1	0	0	CorrectCommission	0.643635	0.560731	1
42.641289	0.795642	city	6	1	0.946944	0.946944	0	1	0	0	CorrectCommission	0.922537	0.550854	1
43.437134	0.796047	city	10	1	0.798113	0.798113	0	1	0	0	CorrectCommission	0.087668	0.541090	1
44.233055	0.795797	city	8	1	0.803063	0.803063	0	1	0	0	CorrectCommission	0.115435	0.531646	1
45.028732	0.795560	city	6	1	0.698193	0.698193	0	1	0	0	CorrectCommission	0.472838	0.522571	1
45.824516	0.796002	city	10	1	0.603693	0.603693	0	1	0	0	CorrectCommission	1.002937	0.513821	1
46.620399	0.795769	mountain	8	1	0.648833	0.648833	0	0	1	0	CommissionError	0.749725	0.505365	1
47.416229	0.795888	city	3	1	0.759907	0.759907	0	1	0	0	CorrectCommission	0.126653	0.497226	1
48.212055	0.795770	mountain	8	0	0.000000	0.893384	1	0	0	0	CorrectOmission	0.622087	0.489505	1
49.007805	0.795727	city	10	1	0.946572	0.946572	0	1	0	0	CorrectCommission	0.920447	0.482373	1
49.803600	0.795864	city	8	1	0.816780	0.816780	0	1	0	0	CorrectCommission	0.192379	0.476128	1
50.599422	0.795778	city	7	1	0.847380	0.847380	0	1	0	0	CorrectCommission	0.364027	0.471169	1
51.395214	0.795809	city	10	1	0.760884	0.760884	0	1	0	0	CorrectCommission	0.121170	0.467863	1
52.191029	0.795820	city	6	1	0.847378	0.847378	0	1	0	0	CorrectCommission	0.364017	0.466597	1
52.986732	0.795589	city	8	1	0.661601	0.661601	0	1	0	0	CorrectCommission	0.678102	0.467648	1
53.782421	0.795784	city	10	1	0.661823	0.661823	0	1	0	0	CorrectCommission	0.676858	0.471153	1
54.578316	0.796007	city	3	1	0.748256	0.748256	0	1	0	0	CorrectCommission	0.192009	0.477119	1
55.374207	0.795776	city	10	1	0.813345	0.813345	0	1	0	0	CorrectCommission	0.173112	0.485413	1
56.169991	0.795792	city	6	1	0.847881	0.847881	0	1	0	0	CorrectCommission	0.366842	0.495658	1
56.965702	0.795630	city	8	1	1.002721	1.002721	0	1	0	0	CorrectCommission	1.235416	0.507316	1
57.761517	0.796002	city	6	1	0.847795	0.847795	0	1	0	0	CorrectCommission	0.366355	0.519631	1
58.557457	0.795875	city	9	1	0.748361	0.748361	0	1	0	0	CorrectCommission	0.191421	0.531780	1
59.353245	0.795702	city	6	1	0.897399	0.897399	0	1	0	0	CorrectCommission	0.644614	0.542831	1
60.148991	0.795794	city	4	1	0.848506	0.848506	0	1	0	0	CorrectCommission	0.370345	0.551836	1
60.944847	0.795916	city	1	1	0.810754	0.810754	0	1	0	0	CorrectCommission	0.158575	0.557967	1
61.740711	0.795812	city	10	1	0.947239	0.947239	0	1	0	0	CorrectCommission	0.924193	0.560585	1
62.536507	0.795782	city	9	1	1.059095	1.059095	0	1	0	0	CorrectCommission	1.551650	0.559286	1
63.332249	0.795696	city	4	1	0.854304	0.854304	0	1	0	0	CorrectCommission	0.402871	0.554003	1
64.128006	0.795816	city	7	1	0.698021	0.698021	0	1	0	0	CorrectCommission	0.473804	0.545126	1
64.923813	0.795799	city	1	1	0.614471	0.614471	0	1	0	0	CorrectCommission	0.942476	0.533372	1
65.719620	0.795828	city	5	1	0.897502	0.897502	0	1	0	0	CorrectCommission	0.645188	0.519739	1
66.515450	0.795832	city	10	1	0.752563	0.752563	0	1	0	0	CorrectCommission	0.167846	0.505406	1
67.311234	0.795729	city	2	1	0.698723	0.698723	0	1	0	0	CorrectCommission	0.469866	0.491643	1
68.106995	0.795793	city	10	1	0.797437	0.797437	0	1	0	0	CorrectCommission	0.083874	0.479566	1
68.902794	0.795804	mountain	2	0	0.000000	0.833893	1	0	0	0	CorrectOmission	0.288371	0.470139	1
69.698647	0.795900	mountain	3	1	0.798165	0.798165	0	0	1	0	CommissionError	0.087958	0.464005	1
70.494339	0.795485	city	5	0	0.000000	0.680331	0	0	0	1	OmissionError	0.573035	0.461507	1
71.290108	0.796060	city	1	1	0.655058	0.655058	0	1	0	0	CorrectCommission	0.714802	0.462675	1
72.085930	0.795583	city	4	1	0.897016	0.897016	0	1	0	0	CorrectCommission	0.642461	0.467311	1
72.881767	0.796084	city	6	1	0.847339	0.847339	0	1	0	0	CorrectCommission	0.363801	0.475028	1
73.677711	0.795813	city	7	1	0.748510	0.748510	0	1	0	0	CorrectCommission	0.190585	0.485373	1
74.473381	0.795517	city	5	1	0.815933	0.815933	0	1	0	0	CorrectCommission	0.187627	0.497776	1
75.269028	0.795787	city	6	1	0.599410	0.599410	0	1	0	0	CorrectCommission	1.026963	0.511774	1
76.064919	0.795982	city	1	1	0.897814	0.897814	0	1	0	0	CorrectCommission	0.646938	0.526931	1
76.860878	0.795936	city	9	1	0.897333	0.897333	0	1	0	0	CorrectCommission	0.644243	0.542956	1
77.656715	0.795748	city	8	1	0.747584	0.747584	0	1	0	0	CorrectCommission	0.195776	0.559680	1
78.452385	0.795587	city	3	1	0.748061	0.748061	0	1	0	0	CorrectCommission	0.193100	0.577102	1
79.248146	0.795940	city	6	1	0.897381	0.897381	0	1	0	0	CorrectCommission	0.644508	0.595291	1
80.044022	0.795805	city	5	1	0.660147	0.660147	0	1	0	0	CorrectCommission	0.686257	0.614376	1
80.839706	0.795575	city	8	1	0.598578	0.598578	0	1	0	0	CorrectCommission	1.031630	0.634571	1
81.635551	0.796104	city	10	1	0.656636	0.656636	0	1	0	0	CorrectCommission	0.705954	0.656050	1
82.431465	0.795726	city	4	1	0.996967	0.996967	0	1	0	0	CorrectCommission	1.203140	0.678898	1
83.227112	0.795571	city	5	1	0.747760	0.747760	0	1	0	0	CorrectCommission	0.194790	0.703009	1
84.022964	0.796137	city	10	1	0.666656	0.666656	0	1	0	0	CorrectCommission	0.649744	0.728093	1
84.818893	0.795711	city	2	1	0.806560	0.806560	0	1	0	0	CorrectCommission	0.135047	0.753499	1
85.614685	0.795885	city	3	1	0.812777	0.812777	0	1	0	0	CorrectCommission	0.169923	0.778305	1
86.410408	0.795550	city	9	1	0.947037	0.947037	0	1	0	0	CorrectCommission	0.923059	0.801313	0
87.206177	0.795996	city	8	1	0.996678	0.996678	0	1	0	0	CorrectCommission	1.201519	0.821147	0
88.001976	0.795602	city	7	1	0.996763	0.996763	0	1	0	0	CorrectCommission	1.201994	0.836455	0
88.797791	0.796022	city	4	1	1.145795	1.145795	0	1	0	0	CorrectCommission	2.037994	0.846042	0
89.593727	0.795858	city	5	0	0.000000	0.822641	0	0	0	1	OmissionError	0.225253	0.849065	0
90.389420	0.795522	city	4	1	0.499556	0.499556	0	1	0	0	CorrectCommission	1.587095	0.845231	0
91.185219	0.796081	city	5	1	0.648799	0.648799	0	1	0	0	CorrectCommission	0.749916	0.834687	0
91.981155	0.795788	city	7	1	0.703001	0.703001	0	1	0	0	CorrectCommission	0.445866	0.818231	0
92.776802	0.795507	city	8	1	0.896892	0.896892	0	1	0	0	CorrectCommission	0.641770	0.797147	0
93.572586	0.796062	city	9	1	0.997159	0.997159	0	1	0	0	CorrectCommission	1.204218	0.773169	1
94.368492	0.795744	city	7	1	0.897702	0.897702	0	1	0	0	CorrectCommission	0.646310	0.748355	1
95.164185	0.795639	city	3	1	0.947225	0.947225	0	1	0	0	CorrectCommission	0.924113	0.724981	1
95.960030	0.796064	city	4	1	0.948068	0.948068	0	1	0	0	CorrectCommission	0.928842	0.705251	1
96.755905	0.795680	city	3	1	0.847223	0.847223	0	1	0	0	CorrectCommission	0.363147	0.691150	1
97.551651	0.795814	city	6	1	0.810183	0.810183	0	1	0	0	CorrectCommission	0.155372	0.684243	1
98.347466	0.795821	city	9	1	0.709434	0.709434	0	1	0	0	CorrectCommission	0.409778	0.685484	1
99.143333	0.795900	city	6	1	0.708661	0.708661	0	1	0	0	CorrectCommission	0.414116	0.695090	1
99.939186	0.795813	mountain	9	1	0.898278	0.898278	0	0	1	0	CommissionError	0.649543	0.712467	1
100.734947	0.795714	city	5	1	0.847876	0.847876	0	1	0	0	CorrectCommission	0.366810	0.736302	1
101.530724	0.795829	city	4	1	0.897060	0.897060	0	1	0	0	CorrectCommission	0.642707	0.764697	1
102.326500	0.795731	city	10	1	0.847506	0.847506	0	1	0	0	CorrectCommission	0.364738	0.795368	0
103.122284	0.795840	city	8	1	0.958943	0.958943	0	1	0	0	CorrectCommission	0.989845	0.825973	0
103.918015	0.795609	mountain	3	0	0.000000	0.693117	1	0	0	0	CorrectOmission	0.501314	0.854336	0
104.713799	0.795958	city	5	1	0.406236	0.406236	0	1	0	0	CorrectCommission	2.110574	0.878823	0
105.509697	0.795848	city	7	1	0.454511	0.454511	0	1	0	0	CorrectCommission	1.839774	0.898435	0
106.305527	0.795810	city	2	1	0.499090	0.499090	0	1	0	0	CorrectCommission	1.589708	0.913005	0
107.101318	0.795769	city	5	1	0.966686	0.966686	0	1	0	0	CorrectCommission	1.033275	0.923188	0
107.897133	0.795860	city	2	1	0.847315	0.847315	0	1	0	0	CorrectCommission	0.363664	0.930158	0
108.692917	0.795714	city	8	1	0.748411	0.748411	0	1	0	0	CorrectCommission	0.191139	0.935405	0
109.488716	0.795884	city	2	1	0.648797	0.648797	0	1	0	0	CorrectCommission	0.749922	0.940406	0
110.284546	0.795771	city	3	1	0.600080	0.600080	0	1	0	0	CorrectCommission	1.023204	0.946323	0
111.080223	0.795586	city	8	1	0.847209	0.847209	0	1	0	0	CorrectCommission	0.363071	0.953817	0
111.876015	0.795999	city	10	1	0.648799	0.648799	0	1	0	0	CorrectCommission	0.749913	0.963022	0
112.671822	0.795611	city	3	1	0.648703	0.648703	0	1	0	0	CorrectCommission	0.750449	0.973456	0
113.467621	0.795987	city	2	1	0.499409	0.499409	0	1	0	0	CorrectCommission	1.587918	0.984258	0
114.263519	0.795808	city	6	1	1.064901	1.064901	0	1	0	0	CorrectCommission	1.584215	0.994361	0
115.059227	0.795613	city	8	1	0.946861	0.946861	0	1	0	0	CorrectCommission	0.922071	1.002758	0
115.855057	0.796044	city	5	1	0.906311	0.906311	0	1	0	0	CorrectCommission	0.694606	1.008651	0
116.650955	0.795763	city	4	1	1.046310	1.046310	0	1	0	0	CorrectCommission	1.479929	1.011591	0
117.446762	0.795842	city	3	1	1.046684	1.046684	0	1	0	0	CorrectCommission	1.482028	1.011436	0
118.242470	0.795580	mountain	2	0	0.000000	1.038295	1	0	0	0	CorrectOmission	1.434968	1.008422	0
119.038284	0.796048	city	7	1	0.947162	0.947162	0	1	0	0	CorrectCommission	0.923755	1.002983	0
119.834076	0.795528	city	5	1	0.699304	0.699304	0	1	0	0	CorrectCommission	0.466606	0.995563	0
120.629723	0.795778	city	10	1	0.763990	0.763990	0	1	0	0	CorrectCommission	0.103747	0.986504	0
121.425537	0.795841	city	5	1	0.698632	0.698632	0	1	0	0	CorrectCommission	0.470376	0.975927	0
122.221458	0.796007	city	8	1	0.499450	0.499450	0	1	0	0	CorrectCommission	1.587690	0.963706	0
123.017372	0.795816	city	1	1	1.007962	1.007962	0	1	0	0	CorrectCommission	1.264816	0.949522	0
123.813080	0.795595	mountain	10	1	0.947036	0.947036	0	0	1	0	CommissionError	0.923052	0.933066	0
124.608856	0.795970	mountain	4	0	0.000000	0.971753	1	0	0	0	CorrectOmission	1.061700	0.914156	0
125.404648	0.795600	mountain	7	0	0.000000	1.025820	1	0	0	0	CorrectOmission	1.364991	0.892905	0
126.200470	0.796054	city	4	0	0.000000	1.052947	0	0	0	1	OmissionError	1.517159	0.869828	0
126.996384	0.795772	city	10	1	0.996841	0.996841	0	1	0	0	CorrectCommission	1.202433	0.845781	0
127.792053	0.795569	city	7	1	0.801211	0.801211	0	1	0	0	CorrectCommission	0.105045	0.821975	0
128.587875	0.796078	mountain	3	0	0.000000	0.812293	1	0	0	0	CorrectOmission	0.167211	0.799812	0
129.383804	0.795772	city	2	1	0.906162	0.906162	0	1	0	0	CorrectCommission	0.693769	0.780594	1
130.179565	0.795748	city	5	1	0.958892	0.958892	0	1	0	0	CorrectCommission	0.989557	0.765395	1
130.975327	0.795789	city	2	1	0.748095	0.748095	0	1	0	0	CorrectCommission	0.192910	0.754861	1
131.771164	0.795879	city	1	1	0.663246	0.663246	0	1	0	0	CorrectCommission	0.668871	0.749146	1
132.566971	0.795718	mountain	10	1	0.797410	0.797410	0	0	1	0	CommissionError	0.083722	0.747873	1
133.362762	0.795889	city	3	0	0.000000	0.600646	0	0	0	1	OmissionError	1.020027	0.750274	1
134.158615	0.795793	city	7	1	0.468779	0.468779	0	1	0	0	CorrectCommission	1.759737	0.755184	1
134.954269	0.795537	city	6	1	0.797633	0.797633	0	1	0	0	CorrectCommission	0.084973	0.761349	1
135.750107	0.796117	city	4	1	0.946952	0.946952	0	1	0	0	CorrectCommission	0.922579	0.767721	1
136.546066	0.795806	city	5	1	0.747927	0.747927	0	1	0	0	CorrectCommission	0.193853	0.773515	1
137.341827	0.795718	city	3	1	0.499483	0.499483	0	1	0	0	CorrectCommission	1.587505	0.778457	1
138.137558	0.795757	city	8	1	1.046690	1.046690	0	1	0	0	CorrectCommission	1.482064	0.782774	1
138.933365	0.795836	city	1	1	0.897116	0.897116	0	1	0	0	CorrectCommission	0.643022	0.787272	1
139.729156	0.795762	city	10	1	0.802787	0.802787	0	1	0	0	CorrectCommission	0.113884	0.793163	0
140.524826	0.795564	city	9	1	0.652091	0.652091	0	1	0	0	CorrectCommission	0.731448	0.801853	0
141.320633	0.796063	mountain	2	1	0.499742	0.499742	0	0	1	0	CommissionError	1.586050	0.814642	0
142.116486	0.795639	city	9	1	0.798857	0.798857	0	1	0	0	CorrectCommission	0.091837	0.832427	0
142.912292	0.795980	city	10	1	0.947421	0.947421	0	1	0	0	CorrectCommission	0.925213	0.855539	0
143.708099	0.795631	city	2	1	0.862205	0.862205	0	1	0	0	CorrectCommission	0.447191	0.883386	0
144.503799	0.795779	city	9	1	0.798140	0.798140	0	1	0	0	CorrectCommission	0.087819	0.914507	0
145.299698	0.796016	mountain	4	0	0.000000	0.904238	1	0	0	0	CorrectOmission	0.682975	0.946627	0
146.095505	0.795595	city	6	1	0.948351	0.948351	0	1	0	0	CorrectCommission	0.930428	0.976785	0
146.891327	0.796034	city	7	1	0.698332	0.698332	0	1	0	0	CorrectCommission	0.472058	1.001746	0
147.687119	0.795548	city	1	1	0.465171	0.465171	0	1	0	0	CorrectCommission	1.779975	1.018402	0
148.482880	0.795974	city	3	1	0.309248	0.309248	0	1	0	0	CorrectCommission	2.654627	1.024177	0
149.278763	0.795811	city	6	1	0.458153	0.458153	0	1	0	0	CorrectCommission	1.819343	1.017412	0
150.074615	0.795886	city	3	1	0.511854	0.511854	0	1	0	0	CorrectCommission	1.518106	0.997694	0
150.870453	0.795790	city	2	1	0.548735	0.548735	0	1	0	0	CorrectCommission	1.311226	0.965788	0
151.666214	0.795744	city	7	1	0.499241	0.499241	0	1	0	0	CorrectCommission	1.588859	0.923556	0
152.461899	0.795613	city	10	1	0.798021	0.798021	0	1	0	0	CorrectCommission	0.087151	0.873735	0
153.257599	0.795785	city	6	1	0.798124	0.798124	0	1	0	0	CorrectCommission	0.087729	0.819574	0
154.053543	0.796101	city	3	1	0.798202	0.798202	0	1	0	0	CorrectCommission	0.088166	0.764404	1
154.849457	0.795730	city	6	1	0.704350	0.704350	0	1	0	0	CorrectCommission	0.438301	0.711274	1
155.645126	0.795610	city	2	1	0.648741	0.648741	0	1	0	0	CorrectCommission	0.750241	0.662703	1
156.440918	0.795988	city	10	1	0.599361	0.599361	0	1	0	0	CorrectCommission	1.027235	0.620506	1
157.236847	0.795851	city	1	1	0.698513	0.698513	0	1	0	0	CorrectCommission	0.471041	0.585788	1
158.032639	0.795726	city	7	1	0.847620	0.847620	0	1	0	0	CorrectCommission	0.365374	0.558976	1
158.828430	0.795861	city	6	1	0.847717	0.847717	0	1	0	0	CorrectCommission	0.365918	0.539856	1
159.624283	0.795843	city	2	1	0.715195	0.715195	0	1	0	0	CorrectCommission	0.377466	0.527802	1
160.420105	0.795799	city	10	1	0.900352	0.900352	0	1	0	0	CorrectCommission	0.661178	0.521828	1
161.215759	0.795519	city	2	1	0.801139	0.801139	0	1	0	0	CorrectCommission	0.104637	0.520724	1
162.011551	0.796068	city	3	1	0.701908	0.701908	0	1	0	0	CorrectCommission	0.451995	0.523229	1
162.807434	0.795695	city	4	1	0.748332	0.748332	0	1	0	0	CorrectCommission	0.191581	0.528020	1
163.603104	0.795641	city	7	1	0.655417	0.655417	0	1	0	0	CorrectCommission	0.712791	0.533817	1
164.398911	0.795971	city	9	1	0.599243	0.599243	0	1	0	0	CorrectCommission	1.027900	0.539448	1
165.194702	0.795628	city	5	1	0.598709	0.598709	0	1	0	0	CorrectCommission	1.030896	0.543884	1
165.990570	0.796087	city	6	1	0.708074	0.708074	0	1	0	0	CorrectCommission	0.417409	0.546269	1
166.786377	0.795546	city	7	1	0.698264	0.698264	0	1	0	0	CorrectCommission	0.472440	0.545991	1
167.582016	0.795709	city	4	1	0.763358	0.763358	0	1	0	0	CorrectCommission	0.107293	0.542680	1
168.377899	0.796059	city	9	1	0.748480	0.748480	0	1	0	0	CorrectCommission	0.190753	0.536230	1
169.173874	0.795911	city	10	1	0.666533	0.666533	0	1	0	0	CorrectCommission	0.650432	0.526770	1
169.969727	0.795792	city	7	1	0.561824	0.561824	0	1	0	0	CorrectCommission	1.237798	0.514730	1
170.765503	0.795748	city	2	1	0.499472	0.499472	0	1	0	0	CorrectCommission	1.587568	0.500831	1
171.561249	0.795758	city	6	1	0.797721	0.797721	0	1	0	0	CorrectCommission	0.085468	0.486043	1
172.357056	0.795864	city	1	1	0.797526	0.797526	0	1	0	0	CorrectCommission	0.084371	0.471523	1
173.152847	0.795713	city	8	1	0.762542	0.762542	0	1	0	0	CorrectCommission	0.111869	0.458479	1
173.948502	0.795578	city	1	1	0.798081	0.798081	0	1	0	0	CorrectCommission	0.087485	0.448114	1
174.744186	0.795794	city	6	1	0.848058	0.848058	0	1	0	0	CorrectCommission	0.367833	0.441539	1
175.540131	0.796089	city	9	1	0.856030	0.856030	0	1	0	0	CorrectCommission	0.412549	0.439675	1
176.336060	0.795790	city	2	1	0.797968	0.797968	0	1	0	0	CorrectCommission	0.086852	0.443199	1
177.131775	0.795620	city	1	1	0.656171	0.656171	0	1	0	0	CorrectCommission	0.708560	0.452488	1
177.927551	0.795931	city	5	1	0.598861	0.598861	0	1	0	0	CorrectCommission	1.030041	0.467523	1
178.723419	0.795808	city	6	1	0.815806	0.815806	0	1	0	0	CorrectCommission	0.186917	0.487978	1
179.519119	0.795609	city	9	1	0.797709	0.797709	0	1	0	0	CorrectCommission	0.085399	0.513104	1
180.314941	0.796030	city	1	1	0.704568	0.704568	0	1	0	0	CorrectCommission	0.437074	0.541746	1
181.110870	0.795809	mountain	5	0	0.000000	0.708805	1	0	0	0	CorrectOmission	0.413307	0.572354	1
181.906647	0.795769	city	5	1	0.797401	0.797401	0	1	0	0	CorrectCommission	0.083672	0.603128	1
182.702484	0.795882	city	6	1	0.957337	0.957337	0	1	0	0	CorrectCommission	0.980835	0.632139	1
183.498276	0.795714	city	10	1	0.648601	0.648601	0	1	0	0	CorrectCommission	0.751025	0.657492	1
184.294067	0.795859	city	9	1	0.697993	0.697993	0	1	0	0	CorrectCommission	0.473960	0.677598	1
185.089874	0.795772	city	8	1	0.896981	0.896981	0	1	0	0	CorrectCommission	0.642266	0.691357	1
185.885666	0.795813	mountain	1	0	0.000000	1.137474	1	0	0	0	CorrectOmission	1.991315	0.698337	1
186.681503	0.795869	city	4	1	1.195737	1.195737	0	1	0	0	CorrectCommission	2.318145	0.698796	1
187.477341	0.795799	city	1	1	0.848036	0.848036	0	1	0	0	CorrectCommission	0.367709	0.693734	1
188.273102	0.795716	city	4	1	0.797342	0.797342	0	1	0	0	CorrectCommission	0.083341	0.684773	1
189.068771	0.795613	city	7	1	0.710490	0.710490	0	1	0	0	CorrectCommission	0.403858	0.673867	1
189.864471	0.795786	city	1	1	0.748330	0.748330	0	1	0	0	CorrectCommission	0.191595	0.663007	1
190.660233	0.795752	city	2	1	0.698387	0.698387	0	1	0	0	CorrectCommission	0.471751	0.653994	1
191.456055	0.795879	city	10	1	0.698533	0.698533	0	1	0	0	CorrectCommission	0.470928	0.648185	1
192.251999	0.796017	city	1	1	0.757331	0.757331	0	1	0	0	CorrectCommission	0.141104	0.646354	1
193.047928	0.795847	city	2	1	0.748448	0.748448	0	1	0	0	CorrectCommission	0.190932	0.648786	1
193.843628	0.795551	mountain	5	1	0.452778	0.452778	0	0	1	0	CommissionError	1.849494	0.655295	1
194.639404	0.796006	city	1	1	0.698130	0.698130	0	1	0	0	CorrectCommission	0.473193	0.665352	1
195.435349	0.795868	city	10	1	0.849354	0.849354	0	1	0	0	CorrectCommission	0.375105	0.678449	1
196.231125	0.795699	city	1	1	0.847137	0.847137	0	1	0	0	CorrectCommission	0.362668	0.694153	1
197.026932	0.795904	city	5	1	0.996487	0.996487	0	1	0	0	CorrectCommission	1.200446	0.712246	1
197.822784	0.795796	city	2	1	0.998170	0.998170	0	1	0	0	CorrectCommission	1.209889	0.732752	1
198.618546	0.795733	city	1	1	0.996621	0.996621	0	1	0	0	CorrectCommission	1.201198	0.755941	1
199.414291	0.795772	city	4	1	0.905947	0.905947	0	1	0	0	CorrectCommission	0.692563	0.782194	1
200.210114	0.795848	mountain	2	0	0.000000	0.785494	1	0	0	0	CorrectOmission	0.016882	0.811733	0
201.005905	0.795749	city	10	1	0.698027	0.698027	0	1	0	0	CorrectCommission	0.473771	0.844475	0
201.801575	0.795605	city	2	1	0.706308	0.706308	0	1	0	0	CorrectCommission	0.427318	0.879831	0
202.597382	0.795984	city	5	1	0.698745	0.698745	0	1	0	0	CorrectCommission	0.469738	0.916662	0
203.393265	0.795796	city	6	1	0.698671	0.698671	0	1	0	0	CorrectCommission	0.470156	0.953241	0
204.189072	0.795806	city	2	1	0.555613	0.555613	0	1	0	0	CorrectCommission	1.272644	0.987440	0
204.984787	0.795633	city	4	1	0.449547	0.449547	0	1	0	0	CorrectCommission	1.867622	1.016962	0
205.780609	0.796016	city	1	1	0.401073	0.401073	0	1	0	0	CorrectCommission	2.139534	1.039609	0
206.576508	0.795761	city	3	1	0.449544	0.449544	0	1	0	0	CorrectCommission	1.867639	1.053515	0
207.372192	0.795623	city	2	1	0.798195	0.798195	0	1	0	0	CorrectCommission	0.088125	1.057400	0
208.168030	0.796054	city	4	1	0.505776	0.505776	0	1	0	0	CorrectCommission	1.552203	1.050665	0
208.963959	0.795797	city	5	1	0.599101	0.599101	0	1	0	0	CorrectCommission	1.028694	1.033284	0
209.759766	0.795824	city	2	1	0.598446	0.598446	0	1	0	0	CorrectCommission	1.032371	1.005922	0
210.555527	0.795701	mountain	10	1	0.549130	0.549130	0	0	1	0	CommissionError	1.309007	0.969755	0
211.351288	0.795805	city	6	1	0.998321	0.998321	0	1	0	0	CorrectCommission	1.210737	0.926303	0
212.147095	0.795819	city	10	0	0.000000	0.861094	0	0	0	1	OmissionError	0.440958	0.877349	0
212.942947	0.795892	city	2	1	0.667393	0.667393	0	1	0	0	CorrectCommission	0.645611	0.824877	0
213.738739	0.795695	city	5	1	0.947163	0.947163	0	1	0	0	CorrectCommission	0.923761	0.770866	1
214.534500	0.795822	city	3	1	1.046724	1.046724	0	1	0	0	CorrectCommission	1.482252	0.717222	1
215.330307	0.795796	city	2	1	0.806686	0.806686	0	1	0	0	CorrectCommission	0.135758	0.665816	1
216.126144	0.795876	city	9	1	0.797832	0.797832	0	1	0	0	CorrectCommission	0.086087	0.618488	1
216.921936	0.795704	city	3	1	0.648570	0.648570	0	1	0	0	CorrectCommission	0.751196	0.576908	1
217.717621	0.795659	city	1	1	0.648357	0.648357	0	1	0	0	CorrectCommission	0.752392	0.542584	1
218.513443	0.796003	city	3	1	0.760084	0.760084	0	1	0	0	CorrectCommission	0.125661	0.516842	1
219.309357	0.795823	city	2	1	0.847178	0.847178	0	1	0	0	CorrectCommission	0.362896	0.500774	1
220.105164	0.795769	city	4	1	0.797423	0.797423	0	1	0	0	CorrectCommission	0.083795	0.495129	1
220.900848	0.795604	city	5	1	0.797871	0.797871	0	1	0	0	CorrectCommission	0.086309	0.500340	1
221.696671	0.796050	city	10	1	0.760046	0.760046	0	1	0	0	CorrectCommission	0.125872	0.516414	1
222.492554	0.795721	city	2	1	0.946945	0.946945	0	1	0	0	CorrectCommission	0.922538	0.542955	1
223.288330	0.795813	city	10	1	0.847507	0.847507	0	1	0	0	CorrectCommission	0.364741	0.579170	1
224.084183	0.795900	city	9	1	0.896951	0.896951	0	1	0	0	CorrectCommission	0.642098	0.623944	1
224.879990	0.795728	city	7	1	0.809354	0.809354	0	1	0	0	CorrectCommission	0.150722	0.675904	1
225.675613	0.795515	city	5	1	0.860539	0.860539	0	1	0	0	CorrectCommission	0.437846	0.733516	1
226.471390	0.796034	city	4	1	1.010159	1.010159	0	1	0	0	CorrectCommission	1.277138	0.795141	0
227.267334	0.795870	city	7	0	0.000000	0.738913	0	0	0	1	OmissionError	0.244418	0.859134	0
228.063171	0.795785	city	5	1	0.449530	0.449530	0	1	0	0	CorrectCommission	1.867718	0.923968	0
228.858978	0.795836	mountain	2	0	0.000000	0.544735	1	0	0	0	CorrectOmission	1.333659	0.988150	0
229.654770	0.795756	mountain	7	1	0.805155	0.805155	0	0	1	0	CommissionError	0.127168	1.050431	0
230.450470	0.795632	mountain	4	0	0.000000	1.011413	1	0	0	0	CorrectOmission	1.284176	1.109730	0
231.246292	0.796013	city	5	1	1.100493	1.100493	0	1	0	0	CorrectCommission	1.783871	1.165038	0
232.042206	0.795806	city	3	1	1.009378	1.009378	0	1	0	0	CorrectCommission	1.272760	1.215461	0
232.837982	0.795754	mountain	2	0	0.000000	0.988026	1	0	0	0	CorrectOmission	1.152984	1.260283	0
233.633789	0.795872	city	4	1	0.996969	0.996969	0	1	0	0	CorrectCommission	1.203150	1.298820	0
234.429459	0.795474	city	7	1	0.996740	0.996740	0	1	0	0	CorrectCommission	1.201867	1.330403	0
235.225128	0.795856	city	10	1	1.000128	1.000128	0	1	0	0	CorrectCommission	1.220872	1.354446	0
236.021057	0.796000	city	8	1	1.146345	1.146345	0	1	0	0	CorrectCommission	2.041080	1.370489	0
236.816864	0.795595	city	3	1	1.105509	1.105509	0	1	0	0	CorrectCommission	1.812006	1.378180	0
237.612549	0.795797	city	2	1	1.099640	1.099640	0	1	0	0	CorrectCommission	1.779086	1.377449	0
238.408447	0.795998	city	4	1	1.145922	1.145922	0	1	0	0	CorrectCommission	2.038705	1.368447	0
239.204361	0.795810	mountain	6	0	0.000000	0.939173	1	0	0	0	CorrectOmission	0.878942	1.351615	0
240.000214	0.795919	city	2	1	0.800869	0.800869	0	1	0	0	CorrectCommission	0.103128	1.327716	0
240.796005	0.795659	city	5	1	1.052489	1.052489	0	1	0	0	CorrectCommission	1.514592	1.297809	0
241.591660	0.795630	city	3	1	1.113789	1.113789	0	1	0	0	CorrectCommission	1.858453	1.263150	0
242.387451	0.795974	city	6	1	1.157420	1.157420	0	1	0	0	CorrectCommission	2.103203	1.225335	0
243.183365	0.795851	city	5	1	1.046175	1.046175	0	1	0	0	CorrectCommission	1.479172	1.186186	0
243.979095	0.795601	city	2	1	0.996738	0.996738	0	1	0	0	CorrectCommission	1.201857	1.147669	0
244.774780	0.795785	city	10	1	0.913563	0.913563	0	1	0	0	CorrectCommission	0.735286	1.111820	0
245.570587	0.795813	mountain	1	0	0.000000	0.759331	1	0	0	0	CorrectOmission	0.129885	1.080550	0
246.366394	0.795804	city	7	1	0.698536	0.698536	0	1	0	0	CorrectCommission	0.470915	1.055562	0
247.162323	0.796067	mountain	2	0	0.000000	0.895675	1	0	0	0	CorrectOmission	0.634939	1.038217	0
247.958237	0.795737	city	8	1	1.096443	1.096443	0	1	0	0	CorrectCommission	1.761154	1.029406	0
248.753983	0.795764	city	10	1	1.046538	1.046538	0	1	0	0	CorrectCommission	1.481209	1.029461	0
249.549698	0.795655	city	2	1	0.896947	0.896947	0	1	0	0	CorrectCommission	0.642075	1.038232	0
250.345551	0.796066	city	4	1	0.897096	0.897096	0	1	0	0	CorrectCommission	0.642913	1.055006	0
251.141434	0.795700	city	9	1	0.897230	0.897230	0	1	0	0	CorrectCommission	0.643661	1.078475	0
251.937103	0.795626	city	3	1	0.852028	0.852028	0	1	0	0	CorrectCommission	0.390103	1.106792	0
252.732941	0.796046	city	9	1	1.046352	1.046352	0	1	0	0	CorrectCommission	1.480166	1.137682	0
253.528824	0.795724	city	4	1	0.996734	0.996734	0	1	0	0	CorrectCommission	1.201832	1.168441	0
254.324585	0.795818	city	2	1	1.099493	1.099493	0	1	0	0	CorrectCommission	1.778263	1.196226	0
255.120407	0.795798	city	9	1	1.100784	1.100784	0	1	0	0	CorrectCommission	1.785503	1.218171	0
255.916092	0.795597	city	1	1	0.996521	0.996521	0	1	0	0	CorrectCommission	1.200638	1.231606	0
256.711792	0.795787	city	2	1	0.897447	0.897447	0	1	0	0	CorrectCommission	0.644879	1.234342	0
257.507568	0.795762	mountain	9	1	1.046619	1.046619	0	0	1	0	CommissionError	1.481663	1.224834	0
258.303528	0.796145	city	5	1	1.097035	1.097035	0	1	0	0	CorrectCommission	1.764471	1.202228	0
259.099457	0.795705	city	7	1	1.095847	1.095847	0	1	0	0	CorrectCommission	1.757808	1.166595	0
259.895203	0.795814	city	8	1	1.095913	1.095913	0	1	0	0	CorrectCommission	1.758179	1.118950	0
260.691071	0.795906	city	7	1	1.062295	1.062295	0	1	0	0	CorrectCommission	1.569597	1.061222	0
261.486786	0.795535	city	4	1	1.011554	1.011554	0	1	0	0	CorrectCommission	1.284965	0.996093	0
262.282562	0.796043	city	5	1	0.947335	0.947335	0	1	0	0	CorrectCommission	0.924731	0.926757	0
263.078339	0.795475	city	10	1	0.847541	0.847541	0	1	0	0	CorrectCommission	0.364933	0.856617	0
263.874084	0.796024	city	5	1	0.766884	0.766884	0	1	0	0	CorrectCommission	0.087514	0.788974	1
264.669891	0.795608	city	10	1	0.714153	0.714153	0	1	0	0	CorrectCommission	0.383309	0.726683	1
265.465698	0.795993	city	3	1	0.751239	0.751239	0	1	0	0	CorrectCommission	0.175273	0.671894	1
266.261597	0.795831	city	9	1	0.850412	0.850412	0	1	0	0	CorrectCommission	0.381037	0.625968	1
267.057312	0.795585	city	1	1	0.847734	0.847734	0	1	0	0	CorrectCommission	0.366016	0.589417	1
267.853119	0.796036	city	3	1	0.947434	0.947434	0	1	0	0	CorrectCommission	0.925286	0.561963	1
268.649048	0.795812	city	9	1	0.898700	0.898700	0	1	0	0	CorrectCommission	0.651909	0.542640	1
269.444733	0.795554	city	6	1	0.747764	0.747764	0	1	0	0	CorrectCommission	0.194767	0.530048	1
270.240570	0.796124	city	3	1	0.700028	0.700028	0	1	0	0	CorrectCommission	0.462545	0.522496	1
271.036346	0.795441	city	4	1	0.763843	0.763843	0	1	0	0	CorrectCommission	0.104575	0.518206	1
271.832123	0.796102	city	2	1	0.611946	0.611946	0	1	0	0	CorrectCommission	0.956638	0.515547	1
272.627991	0.795594	city	8	1	0.604826	0.604826	0	1	0	0	CorrectCommission	0.996579	0.513104	1
273.423645	0.795773	city	3	1	0.699724	0.699724	0	1	0	0	CorrectCommission	0.464246	0.509830	1
274.219543	0.795974	city	7	1	0.747876	0.747876	0	1	0	0	CorrectCommission	0.194141	0.505118	1
275.015442	0.795853	city	6	1	0.847565	0.847565	0	1	0	0	CorrectCommission	0.365067	0.498763	1
275.811279	0.795795	mountain	2	0	0.000000	0.912237	1	0	0	0	CorrectOmission	0.727846	0.490966	1
276.607086	0.795808	mountain	5	0	0.000000	0.932058	1	0	0	0	CorrectOmission	0.839031	0.482252	1
277.402832	0.795741	city	2	1	0.897193	0.897193	0	1	0	0	CorrectCommission	0.643455	0.473410	1
278.198669	0.795895	city	8	1	0.797808	0.797808	0	1	0	0	CorrectCommission	0.085952	0.465408	1
278.994537	0.795833	city	4	1	0.897822	0.897822	0	1	0	0	CorrectCommission	0.646986	0.459228	1
279.790314	0.795729	city	9	1	0.748035	0.748035	0	1	0	0	CorrectCommission	0.193250	0.455716	1
280.585999	0.795664	city	1	1	0.751396	0.751396	0	1	0	0	CorrectCommission	0.174392	0.455502	1
281.381714	0.795734	city	9	1	0.847455	0.847455	0	1	0	0	CorrectCommission	0.364451	0.458907	1
282.177582	0.796013	city	10	1	0.847889	0.847889	0	1	0	0	CorrectCommission	0.366886	0.465893	1
282.973450	0.795745	city	3	1	0.698494	0.698494	0	1	0	0	CorrectCommission	0.471150	0.476108	1
283.769257	0.795875	mountain	5	0	0.000000	0.705687	1	0	0	0	CorrectOmission	0.430799	0.488875	1
284.565094	0.795794	city	10	1	0.748187	0.748187	0	1	0	0	CorrectCommission	0.192392	0.503447	1
285.360779	0.795565	city	9	1	0.704713	0.704713	0	1	0	0	CorrectCommission	0.436265	0.519106	1
286.156616	0.796094	city	8	1	0.814747	0.814747	0	1	0	0	CorrectCommission	0.180975	0.535326	1
286.952545	0.795778	mountain	8	0	0.000000	1.004529	1	0	0	0	CorrectOmission	1.245562	0.551968	1
287.748322	0.795780	city	4	1	1.096423	1.096423	0	1	0	0	CorrectCommission	1.761037	0.569316	1
288.544006	0.795569	city	8	1	0.912789	0.912789	0	1	0	0	CorrectCommission	0.730945	0.588140	1
289.339691	0.795801	city	5	1	0.798546	0.798546	0	1	0	0	CorrectCommission	0.090094	0.609615	1
290.135590	0.795982	city	1	1	0.797889	0.797889	0	1	0	0	CorrectCommission	0.086408	0.635060	1
290.931519	0.795888	city	7	1	0.912078	0.912078	0	1	0	0	CorrectCommission	0.726955	0.665687	1
291.727325	0.795750	city	1	1	0.797837	0.797837	0	1	0	0	CorrectCommission	0.086120	0.702278	1
292.523132	0.795875	city	8	1	0.768072	0.768072	0	1	0	0	CorrectCommission	0.080850	0.744986	1
293.318848	0.795517	city	7	1	0.598956	0.598956	0	1	0	0	CorrectCommission	1.029510	0.793141	0
294.114624	0.796071	city	1	1	0.648449	0.648449	0	1	0	0	CorrectCommission	0.751875	0.845163	0
294.910431	0.795551	city	2	1	0.599005	0.599005	0	1	0	0	CorrectCommission	1.029233	0.898741	0
295.706177	0.795931	city	5	1	0.748148	0.748148	0	1	0	0	CorrectCommission	0.192616	0.951019	0
296.502075	0.795842	city	2	1	0.648957	0.648957	0	1	0	0	CorrectCommission	0.749027	0.998933	0
297.297882	0.795778	city	5	1	0.464252	0.464252	0	1	0	0	CorrectCommission	1.785134	1.039537	0
298.093658	0.795798	mountain	2	1	0.350366	0.350366	0	0	1	0	CommissionError	2.423976	1.070412	0
298.889374	0.795620	city	7	1	0.897034	0.897034	0	1	0	0	CorrectCommission	0.642566	1.090020	0
299.685089	0.795812	mountain	3	0	0.000000	1.165719	1	0	0	0	CorrectOmission	2.149759	1.097961	0
300.480896	0.795771	mountain	8	0	0.000000	1.200839	1	0	0	0	CorrectOmission	2.346761	1.094818	0
301.276794	0.796034	city	1	1	1.046810	1.046810	0	1	0	0	CorrectCommission	1.482733	1.082194	0
302.072601	0.795594	city	10	1	0.748050	0.748050	0	1	0	0	CorrectCommission	0.193164	1.062387	0
302.868317	0.795829	city	1	1	0.698589	0.698589	0	1	0	0	CorrectCommission	0.470615	1.038021	0
303.664124	0.795766	city	2	1	0.763365	0.763365	0	1	0	0	CorrectCommission	0.107252	1.011593	0
304.460052	0.796105	mountain	1	1	0.648851	0.648851	0	0	1	0	CommissionError	0.749624	0.985173	0
305.255951	0.795692	city	8	1	0.960405	0.960405	0	1	0	0	CorrectCommission	0.998044	0.960196	0
306.051697	0.795798	city	2	1	1.046212	1.046212	0	1	0	0	CorrectCommission	1.479379	0.937386	0
306.847534	0.795894	mountain	5	1	0.946721	0.946721	0	0	1	0	CommissionError	0.921282	0.916825	0
307.643250	0.795556	city	6	1	0.808131	0.808131	0	1	0	0	CorrectCommission	0.143864	0.898212	0
308.439056	0.796006	city	9	1	0.599232	0.599232	0	1	0	0	CorrectCommission	1.027962	0.881006	0
309.234924	0.795751	city	10	1	0.996364	0.996364	0	1	0	0	CorrectCommission	1.199755	0.864702	0
310.030579	0.795548	city	8	1	1.003144	1.003144	0	1	0	0	CorrectCommission	1.237791	0.849156	0
310.826416	0.796139	city	10	1	1.047439	1.047439	0	1	0	0	CorrectCommission	1.486260	0.834698	0
311.622253	0.795541	city	3	1	0.996780	0.996780	0	1	0	0	CorrectCommission	1.202093	0.822140	0
312.417938	0.795833	city	1	1	0.847807	0.847807	0	1	0	0	CorrectCommission	0.366425	0.812688	0
313.213837	0.795952	city	5	1	0.797901	0.797901	0	1	0	0	CorrectCommission	0.086474	0.807770	0
314.009613	0.795591	city	10	1	0.702528	0.702528	0	1	0	0	CorrectCommission	0.448521	0.808720	0
314.805450	0.796117	city	4	0	0.000000	0.841953	0	0	0	1	OmissionError	0.333586	0.816429	0
315.601379	0.795726	city	6	1	0.897224	0.897224	0	1	0	0	CorrectCommission	0.643631	0.831178	0
316.397156	0.795808	city	1	1	0.549390	0.549390	0	1	0	0	CorrectCommission	1.307549	0.852510	0
317.192932	0.795794	city	2	1	0.863058	0.863058	0	1	0	0	CorrectCommission	0.451975	0.879115	0
317.988739	0.795764	city	7	1	0.910968	0.910968	0	1	0	0	CorrectCommission	0.720728	0.909004	0
318.784424	0.795651	city	3	0	0.000000	0.895727	0	0	0	1	OmissionError	0.635234	0.939645	0
319.580261	0.796023	city	5	1	0.748359	0.748359	0	1	0	0	CorrectCommission	0.191428	0.968325	0
320.376160	0.795766	city	8	1	0.399888	0.399888	0	1	0	0	CorrectCommission	2.146181	0.992437	0
321.171844	0.795622	city	4	1	0.512336	0.512336	0	1	0	0	CorrectCommission	1.515405	1.009760	0
321.967560	0.795768	city	1	1	1.046759	1.046759	0	1	0	0	CorrectCommission	1.482447	1.018906	0
322.763336	0.795792	city	9	1	1.249284	1.249284	0	1	0	0	CorrectCommission	2.618514	1.019428	0
323.559113	0.795790	city	6	1	0.996825	0.996825	0	1	0	0	CorrectCommission	1.202342	1.011843	0
324.355042	0.796030	city	1	1	0.797665	0.797665	0	1	0	0	CorrectCommission	0.085151	0.997754	0
325.150848	0.795581	city	2	1	0.798414	0.798414	0	1	0	0	CorrectCommission	0.089356	0.979582	0
325.946655	0.796066	city	1	1	0.996689	0.996689	0	1	0	0	CorrectCommission	1.201578	0.960225	0
326.742584	0.795778	city	3	1	0.946946	0.946946	0	1	0	0	CorrectCommission	0.922547	0.942796	0
327.538361	0.795777	mountain	3	1	0.614983	0.614983	0	0	1	0	CommissionError	0.939603	0.930389	0
328.334167	0.795835	city	5	1	0.648368	0.648368	0	1	0	0	CorrectCommission	0.752330	0.925692	0
329.130005	0.795805	city	7	1	1.046598	1.046598	0	1	0	0	CorrectCommission	1.481548	0.930782	0
329.925690	0.795584	city	5	1	0.852273	0.852273	0	1	0	0	CorrectCommission	0.391475	0.946913	0
330.721344	0.795748	city	7	1	0.847809	0.847809	0	1	0	0	CorrectCommission	0.366433	0.974496	0
331.517273	0.796108	city	8	1	0.748741	0.748741	0	1	0	0	CorrectCommission	0.189290	1.012934	0
332.313110	0.795560	city	3	1	0.697859	0.697859	0	1	0	0	CorrectCommission	0.474710	1.060746	0
333.108887	0.795989	city	2	1	0.648809	0.648809	0	1	0	0	CorrectCommission	0.749855	1.115692	0
333.904755	0.795751	city	10	1	0.548819	0.548819	0	1	0	0	CorrectCommission	1.310755	1.174980	0
334.700531	0.795800	city	5	1	0.449912	0.449912	0	1	0	0	CorrectCommission	1.865571	1.235576	0
335.496338	0.795836	city	3	1	0.449449	0.449449	0	1	0	0	CorrectCommission	1.868172	1.294399	0
336.292206	0.795880	city	2	1	0.449509	0.449509	0	1	0	0	CorrectCommission	1.867833	1.348599	0
337.087982	0.795697	city	3	1	0.459911	0.459911	0	1	0	0	CorrectCommission	1.809485	1.395684	0
337.883728	0.795794	city	9	1	0.450236	0.450236	0	1	0	0	CorrectCommission	1.863755	1.433534	0
338.679565	0.795877	city	2	1	0.598534	0.598534	0	1	0	0	CorrectCommission	1.031878	1.460468	0
339.475372	0.795731	city	10	1	0.564953	0.564953	0	1	0	0	CorrectCommission	1.220249	1.475255	0
340.271088	0.795662	city	8	1	0.549177	0.549177	0	1	0	0	CorrectCommission	1.308745	1.476940	0
341.066772	0.795704	city	7	1	0.557649	0.557649	0	1	0	0	CorrectCommission	1.261222	1.464976	0
341.862640	0.796076	city	3	1	0.449607	0.449607	0	1	0	0	CorrectCommission	1.867282	1.439213	0
342.658600	0.795807	city	4	1	0.350089	0.350089	0	1	0	0	CorrectCommission	2.425534	1.399925	0
343.454285	0.795604	city	8	1	0.449829	0.449829	0	1	0	0	CorrectCommission	1.866040	1.347922	0
344.250000	0.795815	city	5	1	0.499779	0.499779	0	1	0	0	CorrectCommission	1.585843	1.284646	0
345.045898	0.795942	city	8	1	0.510275	0.510275	0	1	0	0	CorrectCommission	1.526966	1.212102	0
345.841766	0.795815	mountain	7	1	0.499400	0.499400	0	0	1	0	CommissionError	1.587970	1.132839	0
346.637634	0.795900	city	1	1	0.599073	0.599073	0	1	0	0	CorrectCommission	1.028853	1.049764	0
347.433350	0.795553	city	4	1	0.699281	0.699281	0	1	0	0	CorrectCommission	0.466733	0.966016	0
348.229126	0.796005	city	3	1	0.748559	0.748559	0	1	0	0	CorrectCommission	0.190310	0.884664	0
349.025055	0.795826	city	6	1	0.797939	0.797939	0	1	0	0	CorrectCommission	0.086692	0.808468	0
349.820801	0.795715	city	1	1	0.651662	0.651662	0	1	0	0	CorrectCommission	0.733852	0.739692	1
350.616486	0.795598	city	8	1	0.698435	0.698435	0	1	0	0	CorrectCommission	0.471480	0.679913	1
351.412323	0.796089	city	5	1	0.600504	0.600504	0	1	0	0	CorrectCommission	1.020823	0.630024	1
352.208130	0.795559	city	1	1	0.697952	0.697952	0	1	0	0	CorrectCommission	0.474187	0.590194	1
353.003937	0.796066	city	5	1	0.861483	0.861483	0	1	0	0	CorrectCommission	0.443141	0.560012	1
353.799835	0.795676	city	9	1	0.754300	0.754300	0	1	0	0	CorrectCommission	0.158101	0.538502	1
354.595490	0.795631	city	2	1	0.853948	0.853948	0	1	0	0	CorrectCommission	0.400872	0.524343	1
355.391174	0.795788	city	3	1	0.798242	0.798242	0	1	0	0	CorrectCommission	0.088391	0.515978	1
356.187103	0.796063	city	4	1	0.898568	0.898568	0	1	0	0	CorrectCommission	0.651166	0.511864	1
356.982941	0.795567	city	9	1	0.847719	0.847719	0	1	0	0	CorrectCommission	0.365933	0.510540	1
357.778748	0.796079	city	3	1	0.748414	0.748414	0	1	0	0	CorrectCommission	0.191123	0.510816	1
358.574554	0.795507	city	8	1	0.514741	0.514741	0	1	0	0	CorrectCommission	1.501915	0.511884	1
359.370300	0.796036	city	2	1	0.549247	0.549247	0	1	0	0	CorrectCommission	1.308349	0.513340	1
360.166260	0.795884	city	9	1	0.747710	0.747710	0	1	0	0	CorrectCommission	0.195071	0.515275	1
360.962067	0.795694	city	4	1	0.806708	0.806708	0	1	0	0	CorrectCommission	0.135878	0.518192	1
361.757843	0.795839	city	2	1	0.748294	0.748294	0	1	0	0	CorrectCommission	0.191797	0.522858	1
362.553650	0.795820	city	6	1	0.711769	0.711769	0	1	0	0	CorrectCommission	0.396684	0.530191	1
363.349457	0.795766	city	3	1	0.698351	0.698351	0	1	0	0	CorrectCommission	0.471948	0.541100	1
364.145264	0.795890	city	10	1	0.847304	0.847304	0	1	0	0	CorrectCommission	0.363604	0.556349	1
364.940979	0.795514	city	1	1	0.946789	0.946789	0	1	0	0	CorrectCommission	0.921667	0.576427	1
365.736725	0.795950	city	8	1	0.847663	0.847663	0	1	0	0	CorrectCommission	0.365618	0.601426	1
366.532593	0.795837	city	4	1	0.797869	0.797869	0	1	0	0	CorrectCommission	0.086297	0.630997	1
367.328308	0.795590	mountain	2	0	0.000000	0.922097	1	0	0	0	CorrectOmission	0.783153	0.664252	1
368.124146	0.796082	city	6	1	0.996716	0.996716	0	1	0	0	CorrectCommission	1.201730	0.699828	1
368.919983	0.795560	city	9	1	0.798096	0.798096	0	1	0	0	CorrectCommission	0.087572	0.735968	1
369.715668	0.795805	city	5	1	0.698366	0.698366	0	1	0	0	CorrectCommission	0.471867	0.770717	1
370.511597	0.796074	city	9	1	0.648437	0.648437	0	1	0	0	CorrectCommission	0.751942	0.801972	0
371.307495	0.795731	city	7	1	0.512338	0.512338	0	1	0	0	CorrectCommission	1.515394	0.827757	0
372.103180	0.795607	city	9	1	1.059972	1.059972	0	1	0	0	CorrectCommission	1.556569	0.846388	0
372.898956	0.795949	city	2	1	0.898915	0.898915	0	1	0	0	CorrectCommission	0.653116	0.856725	0
373.694855	0.795872	city	7	1	0.700204	0.700204	0	1	0	0	CorrectCommission	0.461557	0.858290	0
374.490570	0.795527	city	6	1	0.499140	0.499140	0	1	0	0	CorrectCommission	1.589427	0.851286	0
375.286346	0.796074	city	5	1	0.400420	0.400420	0	1	0	0	CorrectCommission	2.143198	0.836584	0
376.082275	0.795740	city	8	1	0.947081	0.947081	0	1	0	0	CorrectCommission	0.923305	0.815672	0
376.878052	0.795838	city	10	1	0.698584	0.698584	0	1	0	0	CorrectCommission	0.470642	0.790574	1
377.673859	0.795775	city	2	1	0.751613	0.751613	0	1	0	0	CorrectCommission	0.173174	0.763588	1
378.469696	0.795869	city	9	1	0.810676	0.810676	0	1	0	0	CorrectCommission	0.158140	0.737080	1
379.265533	0.795804	city	10	1	0.748162	0.748162	0	1	0	0	CorrectCommission	0.192538	0.713312	1
380.061279	0.795719	city	4	1	0.698512	0.698512	0	1	0	0	CorrectCommission	0.471045	0.694307	1
380.856964	0.795637	city	6	1	1.046581	1.046581	0	1	0	0	CorrectCommission	1.481449	0.681760	1
381.652771	0.795996	mountain	7	0	0.000000	0.972083	1	0	0	0	CorrectOmission	1.063555	0.677030	1
382.448669	0.795816	city	3	1	0.797987	0.797987	0	1	0	0	CorrectCommission	0.086959	0.681165	1
383.244476	0.795777	city	10	1	0.847258	0.847258	0	1	0	0	CorrectCommission	0.363347	0.694886	1
384.040253	0.795764	city	1	1	0.913498	0.913498	0	1	0	0	CorrectCommission	0.734917	0.718470	1
384.835907	0.795561	mountain	4	0	0.000000	0.891723	1	0	0	0	CorrectOmission	0.612770	0.751761	1
385.631744	0.796119	city	6	1	0.847784	0.847784	0	1	0	0	CorrectCommission	0.366297	0.794056	0
386.427704	0.795755	city	2	1	0.847533	0.847533	0	1	0	0	CorrectCommission	0.364887	0.844083	0
387.223358	0.795593	city	4	1	0.897332	0.897332	0	1	0	0	CorrectCommission	0.644233	0.899952	0
388.019165	0.795999	mountain	4	0	0.000000	0.996347	1	0	0	0	CorrectOmission	1.199662	0.959152	0
388.815063	0.795806	city	5	1	1.046658	1.046658	0	1	0	0	CorrectCommission	1.481883	1.018661	0
389.610901	0.795847	city	4	1	0.950344	0.950344	0	1	0	0	CorrectCommission	0.941609	1.075122	0
390.406586	0.795554	city	3	1	0.706964	0.706964	0	1	0	0	CorrectCommission	0.423635	1.125163	0
391.202271	0.795834	city	4	1	0.614948	0.614948	0	1	0	0	CorrectCommission	0.939801	1.165657	0
391.998230	0.796076	city	1	1	0.458829	0.458829	0	1	0	0	CorrectCommission	1.815552	1.193970	0
392.794159	0.795744	city	8	1	0.369233	0.369233	0	1	0	0	CorrectCommission	2.318141	1.208268	0
393.589905	0.795738	city	6	1	0.351043	0.351043	0	1	0	0	CorrectCommission	2.420182	1.207800	0
394.385590	0.795634	city	8	1	0.369805	0.369805	0	1	0	0	CorrectCommission	2.314936	1.193018	0
395.181305	0.795814	city	6	1	0.515764	0.515764	0	1	0	0	CorrectCommission	1.496176	1.165344	0
395.977112	0.795813	city	2	1	0.712450	0.712450	0	1	0	0	CorrectCommission	0.392862	1.127112	0
396.772919	0.795795	city	3	1	0.897234	0.897234	0	1	0	0	CorrectCommission	0.643688	1.081247	0
397.568726	0.795799	city	7	1	0.903394	0.903394	0	1	0	0	CorrectCommission	0.678239	1.030867	0
398.364594	0.795945	city	3	1	0.900934	0.900934	0	1	0	0	CorrectCommission	0.664440	0.979034	0
399.160461	0.795830	city	10	1	0.761283	0.761283	0	1	0	0	CorrectCommission	0.118931	0.928464	0
399.956329	0.795889	city	3	1	0.565812	0.565812	0	1	0	0	CorrectCommission	1.215431	0.881480	0
400.752197	0.795818	mountain	5	1	0.598730	0.598730	0	0	1	0	CommissionError	1.030777	0.839875	0
401.547852	0.795538	mountain	10	1	0.698505	0.698505	0	0	1	0	CommissionError	0.471086	0.805045	0
402.343658	0.796056	city	9	1	1.046712	1.046712	0	1	0	0	CorrectCommission	1.482185	0.778044	1
403.139465	0.795540	city	8	1	0.946761	0.946761	0	1	0	0	CorrectCommission	0.921508	0.759580	1
403.935211	0.795960	city	6	1	0.953205	0.953205	0	1	0	0	CorrectCommission	0.957657	0.750146	1
404.731079	0.795756	city	5	1	0.797746	0.797746	0	1	0	0	CorrectCommission	0.085604	0.749901	1
405.526917	0.795919	city	2	1	0.761437	0.761437	0	1	0	0	CorrectCommission	0.118071	0.758596	1
406.322754	0.795751	city	8	1	0.747827	0.747827	0	1	0	0	CorrectCommission	0.194413	0.775453	1
407.118500	0.795764	city	3	1	0.714385	0.714385	0	1	0	0	CorrectCommission	0.382007	0.799123	0
407.914307	0.795835	city	9	1	0.747763	0.747763	0	1	0	0	CorrectCommission	0.194775	0.827724	0
408.710144	0.795875	city	7	1	0.648503	0.648503	0	1	0	0	CorrectCommission	0.751575	0.858948	0
409.505859	0.795514	mountain	2	1	1.358330	1.358330	0	0	1	0	CommissionError	3.230209	0.890186	0
410.301666	0.796104	city	3	1	0.798483	0.798483	0	1	0	0	CorrectCommission	0.089741	0.918752	0
411.097534	0.795672	city	6	1	0.847074	0.847074	0	1	0	0	CorrectCommission	0.362312	0.942420	0
411.893311	0.795894	city	10	1	0.598648	0.598648	0	1	0	0	CorrectCommission	1.031236	0.959392	0
412.689056	0.795553	city	5	1	0.499487	0.499487	0	1	0	0	CorrectCommission	1.587481	0.968620	0
413.484802	0.795974	city	10	1	0.300757	0.300757	0	1	0	0	CorrectCommission	2.702262	0.969888	0
414.280731	0.795851	city	6	1	0.997017	0.997017	0	1	0	0	CorrectCommission	1.203422	0.963817	0
415.076569	0.795836	city	7	1	0.896939	0.896939	0	1	0	0	CorrectCommission	0.642030	0.951847	0
415.872345	0.795743	city	5	1	0.915180	0.915180	0	1	0	0	CorrectCommission	0.744352	0.935905	0
416.668182	0.795883	city	7	1	0.853707	0.853707	0	1	0	0	CorrectCommission	0.399523	0.918116	0
417.463989	0.795762	city	5	1	0.797828	0.797828	0	1	0	0	CorrectCommission	0.086066	0.900551	0
418.259644	0.795537	city	1	1	0.748168	0.748168	0	1	0	0	CorrectCommission	0.192500	0.885041	0
419.055389	0.795978	city	4	1	0.617083	0.617083	0	1	0	0	CorrectCommission	0.927824	0.872981	0
419.851227	0.795664	city	9	1	0.449917	0.449917	0	1	0	0	CorrectCommission	1.865546	0.865166	0
420.646942	0.795780	city	1	1	0.997109	0.997109	0	1	0	0	CorrectCommission	1.203934	0.861946	0
421.442749	0.795826	city	9	1	0.996713	0.996713	0	1	0	0	CorrectCommission	1.201713	0.863248	0
422.238556	0.795808	city	7	1	0.810045	0.810045	0	1	0	0	CorrectCommission	0.154597	0.868699	0
423.034363	0.795767	city	1	1	0.751964	0.751964	0	1	0	0	CorrectCommission	0.171207	0.877736	0
423.830231	0.795978	city	3	1	0.657883	0.657883	0	1	0	0	CorrectCommission	0.698958	0.889656	0
424.626038	0.795662	city	9	1	0.648298	0.648298	0	1	0	0	CorrectCommission	0.752724	0.903692	0
425.421844	0.795937	city	3	1	0.565332	0.565332	0	1	0	0	CorrectCommission	1.218120	0.919160	0
426.217712	0.795812	city	6	1	0.598554	0.598554	0	1	0	0	CorrectCommission	1.031763	0.935471	0
427.013519	0.795787	city	3	1	0.499324	0.499324	0	1	0	0	CorrectCommission	1.588396	0.952084	0
427.809235	0.795627	mountain	4	1	0.449542	0.449542	0	0	1	0	CommissionError	1.867647	0.968607	0
428.605103	0.796109	city	6	1	0.798146	0.798146	0	1	0	0	CorrectCommission	0.087850	0.984657	0
429.400970	0.795662	city	9	1	0.699700	0.699700	0	1	0	0	CorrectCommission	0.464383	0.999914	0
430.196777	0.795938	city	3	1	0.600140	0.600140	0	1	0	0	CorrectCommission	1.022868	1.013910	0
430.992523	0.795534	mountain	7	1	0.500925	0.500925	0	0	1	0	CommissionError	1.579413	1.026037	0
431.788269	0.795956	city	6	1	0.757341	0.757341	0	1	0	0	CorrectCommission	0.141044	1.035639	0
432.584045	0.795647	city	8	1	0.748295	0.748295	0	1	0	0	CorrectCommission	0.191791	1.042081	0
433.379852	0.795973	city	4	1	1.146287	1.146287	0	1	0	0	CorrectCommission	2.040750	1.044682	0
434.175781	0.795870	mountain	8	0	0.000000	1.195878	1	0	0	0	CorrectOmission	2.318931	1.042842	0
434.971497	0.795574	city	8	1	0.947096	0.947096	0	1	0	0	CorrectCommission	0.923390	1.036216	0
435.767303	0.796024	city	6	1	0.449972	0.449972	0	1	0	0	CorrectCommission	1.865237	1.024759	0
436.563080	0.795496	city	8	1	0.862875	0.862875	0	1	0	0	CorrectCommission	0.450946	1.008558	0
437.358826	0.796041	mountain	4	0	0.000000	0.954280	1	0	0	0	CorrectOmission	0.963687	0.987937	0
438.154816	0.795894	city	5	1	0.905366	0.905366	0	1	0	0	CorrectCommission	0.689302	0.963271	0
438.950592	0.795678	city	6	1	0.897309	0.897309	0	1	0	0	CorrectCommission	0.644107	0.934967	0
439.746368	0.795866	city	8	1	0.751487	0.751487	0	1	0	0	CorrectCommission	0.173886	0.903406	0
440.542114	0.795613	city	6	1	0.649322	0.649322	0	1	0	0	CorrectCommission	0.746982	0.868986	0
441.337921	0.796018	city	7	1	0.499882	0.499882	0	1	0	0	CorrectCommission	1.585265	0.832098	0
442.133820	0.795806	city	2	1	0.449422	0.449422	0	1	0	0	CorrectCommission	1.868323	0.793200	0
442.929474	0.795478	city	10	1	0.510616	0.510616	0	1	0	0	CorrectCommission	1.525055	0.752993	1
443.725281	0.796125	city	8	1	0.764074	0.764074	0	1	0	0	CorrectCommission	0.103277	0.712427	1
444.521210	0.795778	city	2	1	0.751186	0.751186	0	1	0	0	CorrectCommission	0.175571	0.672735	1
445.317017	0.795805	city	7	1	0.748356	0.748356	0	1	0	0	CorrectCommission	0.191449	0.635348	1
446.112793	0.795772	city	9	1	0.748213	0.748213	0	1	0	0	CorrectCommission	0.192250	0.601906	1
446.908630	0.795853	city	1	1	0.613147	0.613147	0	1	0	0	CorrectCommission	0.949904	0.574113	1
447.704437	0.795814	city	3	1	0.648615	0.648615	0	1	0	0	CorrectCommission	0.750944	0.553602	1
448.500214	0.795711	city	6	1	0.797844	0.797844	0	1	0	0	CorrectCommission	0.086159	0.541877	1
449.295990	0.795812	city	8	1	0.847641	0.847641	0	1	0	0	CorrectCommission	0.365493	0.540234	1
450.091705	0.795618	city	1	1	0.847765	0.847765	0	1	0	0	CorrectCommission	0.366187	0.549572	1
450.887512	0.796038	city	4	1	0.852874	0.852874	0	1	0	0	CorrectCommission	0.394850	0.570279	1
451.683411	0.795745	city	6	1	0.847560	0.847560	0	1	0	0	CorrectCommission	0.365041	0.602112	1
452.479095	0.795621	city	2	1	0.858983	0.858983	0	1	0	0	CorrectCommission	0.429115	0.644193	1
453.274902	0.795974	city	7	1	0.698559	0.698559	0	1	0	0	CorrectCommission	0.470785	0.694922	1
454.070770	0.795788	city	5	1	0.698756	0.698756	0	1	0	0	CorrectCommission	0.469682	0.752041	1
454.866486	0.795656	city	1	1	0.748231	0.748231	0	1	0	0	CorrectCommission	0.192146	0.812692	0
455.662354	0.796043	mountain	3	1	0.599300	0.599300	0	0	1	0	CommissionError	1.027581	0.873628	0
456.458282	0.795816	city	4	1	1.102255	1.102255	0	1	0	0	CorrectCommission	1.793755	0.931405	0
457.254089	0.795808	city	6	0	0.000000	0.843134	0	0	0	1	OmissionError	0.340210	0.982723	0
458.049774	0.795546	city	8	1	0.449648	0.449648	0	1	0	0	CorrectCommission	1.867055	1.024747	0
458.845428	0.795817	city	3	1	0.549509	0.549509	0	1	0	0	CorrectCommission	1.306882	1.055241	0
459.641235	0.795779	city	1	1	0.608216	0.608216	0	1	0	0	CorrectCommission	0.977565	1.072941	0
460.437134	0.796007	city	5	1	1.204574	1.204574	0	1	0	0	CorrectCommission	2.367717	1.077582	0
461.233032	0.795772	city	6	1	1.147781	1.147781	0	1	0	0	CorrectCommission	2.049135	1.069887	0
462.028809	0.795801	mountain	4	0	0.000000	1.022302	1	0	0	0	CorrectOmission	1.345259	1.051498	0
462.824646	0.795853	city	4	1	0.897149	0.897149	0	1	0	0	CorrectCommission	0.643208	1.024682	0
463.620453	0.795798	mountain	3	0	0.000000	0.841331	1	0	0	0	CorrectOmission	0.330097	0.992059	0
464.416260	0.795787	city	9	0	0.000000	0.845558	0	0	0	1	OmissionError	0.353809	0.956188	0
465.212036	0.795757	city	10	1	0.900539	0.900539	0	1	0	0	CorrectCommission	0.662226	0.919334	0
466.007843	0.795856	city	6	1	0.996983	0.996983	0	1	0	0	CorrectCommission	1.203230	0.883269	0
466.803619	0.795733	city	7	1	0.703909	0.703909	0	1	0	0	CorrectCommission	0.440772	0.849156	0
467.599396	0.795800	city	1	1	0.847157	0.847157	0	1	0	0	CorrectCommission	0.362780	0.817633	0
468.395233	0.795871	city	3	1	1.056591	1.056591	0	1	0	0	CorrectCommission	1.537604	0.788837	1
469.190948	0.795574	city	9	1	0.996632	0.996632	0	1	0	0	CorrectCommission	1.201261	0.762522	1
469.986725	0.795993	mountain	4	0	0.000000	0.911589	1	0	0	0	CorrectOmission	0.724213	0.738341	1
470.782623	0.795798	city	2	1	0.859284	0.859284	0	1	0	0	CorrectCommission	0.430805	0.715943	1
471.578430	0.795800	city	1	1	0.897536	0.897536	0	1	0	0	CorrectCommission	0.645381	0.695016	1
472.374115	0.795597	city	6	1	0.957513	0.957513	0	1	0	0	CorrectCommission	0.981819	0.675360	1
473.169983	0.796081	city	3	1	0.797972	0.797972	0	1	0	0	CorrectCommission	0.086876	0.656928	1
473.965912	0.795789	city	5	1	0.648705	0.648705	0	1	0	0	CorrectCommission	0.750440	0.639848	1
474.761566	0.795547	city	9	1	0.654415	0.654415	0	1	0	0	CorrectCommission	0.718410	0.624361	1
475.557373	0.796027	city	8	1	0.747910	0.747910	0	1	0	0	CorrectCommission	0.193949	0.610822	1
476.353119	0.795511	mountain	9	0	0.000000	0.878956	1	0	0	0	CorrectOmission	0.541153	0.599764	1
477.148895	0.796051	city	9	1	0.908709	0.908709	0	1	0	0	CorrectCommission	0.708054	0.591863	1
477.944733	0.795613	city	7	1	0.698326	0.698326	0	1	0	0	CorrectCommission	0.472091	0.587936	1
478.740570	0.796048	city	1	1	0.549556	0.549556	0	1	0	0	CorrectCommission	1.306617	0.588987	1
479.536499	0.795807	city	10	1	0.897650	0.897650	0	1	0	0	CorrectCommission	0.646020	0.596099	1
480.332275	0.795736	city	9	1	0.860850	0.860850	0	1	0	0	CorrectCommission	0.439592	0.610469	1
481.127930	0.795601	city	6	1	0.797838	0.797838	0	1	0	0	CorrectCommission	0.086123	0.633163	1
481.923737	0.796011	city	4	1	0.797925	0.797925	0	1	0	0	CorrectCommission	0.086609	0.664991	1
482.719635	0.795778	city	9	1	0.698441	0.698441	0	1	0	0	CorrectCommission	0.471449	0.706340	1
483.515320	0.795568	city	1	1	0.698305	0.698305	0	1	0	0	CorrectCommission	0.472210	0.756990	1
484.311096	0.796014	city	7	1	0.755103	0.755103	0	1	0	0	CorrectCommission	0.153599	0.816130	0
485.107056	0.795914	city	3	1	0.615087	0.615087	0	1	0	0	CorrectCommission	0.939021	0.882357	0
485.902802	0.795577	city	7	1	0.449989	0.449989	0	1	0	0	CorrectCommission	1.865142	0.953620	0
486.698486	0.795769	mountain	3	1	0.599319	0.599319	0	0	1	0	CommissionError	1.027475	1.027475	0
