onset	duration	trial_type	image_type	Press	ReactionTime	ReactionTime_Interpolated	CorrectOmission	CorrectCommission	CommissionError	OmissionError	response_type	nonsmoothVarianceTimeCourse	VarianceTimeCourse	In_the_Zone
8.417535	0.792334	mountain	9	0	0.000000	0.645645	1	0	0	0	CorrectOmission	0.456770	0.456770	1
9.209855	0.792308	city	8	1	0.695402	0.695402	0	1	0	0	CorrectCommission	1.041854	0.562480	1
10.002103	0.792188	city	9	1	0.745159	0.745159	0	1	0	0	CorrectCommission	1.626938	0.662117	1
10.794209	0.792026	city	4	1	0.794453	0.794453	0	1	0	0	CorrectCommission	2.206579	0.750280	0
11.586491	0.792536	city	3	1	0.744981	0.744981	0	1	0	0	CorrectCommission	1.624852	0.822793	0
12.378906	0.792296	city	10	1	0.701619	0.701619	0	1	0	0	CorrectCommission	1.114962	0.877056	0
13.171016	0.791922	city	6	1	0.744736	0.744736	0	1	0	0	CorrectCommission	1.621964	0.912193	0
13.963224	0.792495	city	10	1	0.709553	0.709553	0	1	0	0	CorrectCommission	1.208254	0.928918	0
14.755623	0.792302	city	2	1	0.744865	0.744865	0	1	0	0	CorrectCommission	1.623486	0.929311	0
15.547927	0.792308	city	1	1	0.611843	0.611843	0	1	0	0	CorrectCommission	0.059300	0.916267	0
16.340086	0.792011	city	2	1	0.563831	0.563831	0	1	0	0	CorrectCommission	0.505261	0.893165	0
17.132191	0.792197	city	7	1	0.596673	0.596673	0	1	0	0	CorrectCommission	0.119087	0.863273	0
17.924545	0.792515	city	3	1	0.546611	0.546611	0	1	0	0	CorrectCommission	0.707759	0.829568	0
18.716940	0.792273	city	4	1	0.497457	0.497457	0	1	0	0	CorrectCommission	1.285755	0.794432	0
19.509115	0.792078	city	8	1	0.497064	0.497064	0	1	0	0	CorrectCommission	1.290376	0.759712	0
20.301413	0.792516	city	10	1	0.547143	0.547143	0	1	0	0	CorrectCommission	0.701503	0.726692	0
21.093821	0.792300	city	4	1	0.645998	0.645998	0	1	0	0	CorrectCommission	0.460921	0.696263	0
21.885925	0.791912	city	5	1	0.596388	0.596388	0	1	0	0	CorrectCommission	0.122431	0.668991	1
22.678192	0.792622	city	10	1	0.695154	0.695154	0	1	0	0	CorrectCommission	1.038936	0.645276	1
23.470583	0.792157	city	7	1	0.707421	0.707421	0	1	0	0	CorrectCommission	1.183190	0.625369	1
24.262695	0.792071	city	8	1	0.645811	0.645811	0	1	0	0	CorrectCommission	0.458726	0.609439	1
25.054955	0.792446	city	2	1	0.596478	0.596478	0	1	0	0	CorrectCommission	0.121381	0.597527	1
25.847355	0.792356	city	5	1	0.595926	0.595926	0	1	0	0	CorrectCommission	0.127865	0.589464	1
26.639521	0.791972	city	8	1	0.552714	0.552714	0	1	0	0	CorrectCommission	0.635995	0.584819	1
27.431650	0.792290	city	2	1	0.611298	0.611298	0	1	0	0	CorrectCommission	0.052891	0.582896	1
28.224026	0.792461	city	1	1	0.597023	0.597023	0	1	0	0	CorrectCommission	0.114968	0.582835	1
29.016424	0.792333	city	3	1	0.694881	0.694881	0	1	0	0	CorrectCommission	1.035725	0.583665	1
29.808689	0.792198	city	6	1	0.744397	0.744397	0	1	0	0	CorrectCommission	1.617977	0.584414	1
30.600819	0.792062	city	5	1	0.654610	0.654610	0	1	0	0	CorrectCommission	0.562185	0.584247	1
31.393095	0.792490	city	2	1	0.662927	0.662927	0	1	0	0	CorrectCommission	0.659994	0.582647	1
32.185486	0.792291	city	8	1	0.645745	0.645745	0	1	0	0	CorrectCommission	0.457949	0.579371	1
32.977734	0.792207	city	2	1	0.645621	0.645621	0	1	0	0	CorrectCommission	0.456487	0.574540	1
33.769848	0.792018	city	7	1	0.654461	0.654461	0	1	0	0	CorrectCommission	0.560436	0.568510	1
34.562004	0.792298	city	6	1	0.695283	0.695283	0	1	0	0	CorrectCommission	1.040457	0.561828	1
35.354290	0.792274	city	3	1	0.645572	0.645572	0	1	0	0	CorrectCommission	0.455916	0.555150	1
36.146706	0.792559	city	2	1	0.596112	0.596112	0	1	0	0	CorrectCommission	0.125676	0.549183	1
36.939114	0.792256	city	8	1	0.596212	0.596212	0	1	0	0	CorrectCommission	0.124502	0.544606	1
37.731232	0.791977	city	3	1	0.596073	0.596073	0	1	0	0	CorrectCommission	0.126134	0.542088	1
38.523510	0.792578	city	8	1	0.646413	0.646413	0	1	0	0	CorrectCommission	0.465809	0.542295	1
39.315781	0.791966	city	5	1	0.701288	0.701288	0	1	0	0	CorrectCommission	1.111065	0.545929	1
40.108047	0.792569	city	7	1	0.695439	0.695439	0	1	0	0	CorrectCommission	1.042292	0.553687	1
40.900330	0.791994	city	5	1	0.695146	0.695146	0	1	0	0	CorrectCommission	1.038844	0.566283	1
41.692539	0.792425	city	10	1	0.645693	0.645693	0	1	0	0	CorrectCommission	0.457332	0.584353	1
42.484905	0.792309	city	1	1	0.605883	0.605883	0	1	0	0	CorrectCommission	0.010779	0.608338	1
43.277187	0.792254	mountain	5	0	0.000000	0.627211	1	0	0	0	CorrectOmission	0.240004	0.638307	1
44.069420	0.792209	city	4	1	0.645448	0.645448	0	1	0	0	CorrectCommission	0.454455	0.673762	1
44.861568	0.792090	city	10	1	0.596369	0.596369	0	1	0	0	CorrectCommission	0.122654	0.713627	0
45.653831	0.792438	city	2	1	0.609777	0.609777	0	1	0	0	CorrectCommission	0.035000	0.756263	0
46.446251	0.792397	city	1	1	0.596164	0.596164	0	1	0	0	CorrectCommission	0.125064	0.799581	0
47.238552	0.792207	city	4	1	0.749609	0.749609	0	1	0	0	CorrectCommission	1.679266	0.841287	0
48.030800	0.792286	mountain	1	0	0.000000	0.780930	1	0	0	0	CorrectOmission	2.047570	0.879109	0
48.822948	0.792014	city	7	1	0.744679	0.744679	0	1	0	0	CorrectCommission	1.621298	0.911202	0
49.615196	0.792482	city	10	1	0.695405	0.695405	0	1	0	0	CorrectCommission	1.041898	0.936382	0
50.407574	0.792273	city	5	1	0.744932	0.744932	0	1	0	0	CorrectCommission	1.624278	0.954243	0
51.199844	0.792268	city	4	1	0.712777	0.712777	0	1	0	0	CorrectCommission	1.246165	0.965159	0
51.992085	0.792209	city	5	1	0.645293	0.645293	0	1	0	0	CorrectCommission	0.452637	0.970157	0
52.784378	0.792380	city	3	1	0.648072	0.648072	0	1	0	0	CorrectCommission	0.485316	0.970728	0
53.576694	0.792254	city	2	1	0.645501	0.645501	0	1	0	0	CorrectCommission	0.455080	0.968469	0
54.368896	0.792149	city	3	1	0.695199	0.695199	0	1	0	0	CorrectCommission	1.039469	0.964825	0
55.161003	0.792068	city	1	1	0.695249	0.695249	0	1	0	0	CorrectCommission	1.040058	0.960892	0
55.953285	0.792492	city	2	1	0.695731	0.695731	0	1	0	0	CorrectCommission	1.045722	0.957308	0
56.745701	0.792343	city	9	1	0.695208	0.695208	0	1	0	0	CorrectCommission	1.039572	0.954124	0
57.537945	0.792144	city	2	1	0.695460	0.695460	0	1	0	0	CorrectCommission	1.042544	0.950924	0
58.330215	0.792400	city	4	1	0.694959	0.694959	0	1	0	0	CorrectCommission	1.036651	0.946978	0
59.122402	0.791967	city	1	1	0.654346	0.654346	0	1	0	0	CorrectCommission	0.559085	0.941469	0
59.914623	0.792480	city	10	1	0.654632	0.654632	0	1	0	0	CorrectCommission	0.562444	0.933742	0
60.706898	0.792067	city	2	1	0.656196	0.656196	0	1	0	0	CorrectCommission	0.580840	0.923475	0
61.499062	0.792260	city	8	1	0.744695	0.744695	0	1	0	0	CorrectCommission	1.621491	0.910803	0
62.291466	0.792553	city	6	1	0.844131	0.844131	0	1	0	0	CorrectCommission	2.790737	0.896371	0
63.083817	0.792149	city	2	1	0.695437	0.695437	0	1	0	0	CorrectCommission	1.042270	0.881289	0
63.875938	0.792094	city	5	1	0.645345	0.645345	0	1	0	0	CorrectCommission	0.453244	0.867034	0
64.668251	0.792536	mountain	3	0	0.000000	0.602665	1	0	0	0	CorrectOmission	0.048623	0.855030	0
65.460480	0.791910	city	8	1	0.606311	0.606311	0	1	0	0	CorrectCommission	0.005751	0.846452	0
66.252701	0.792541	city	9	1	0.695196	0.695196	0	1	0	0	CorrectCommission	1.039440	0.841908	0
67.045135	0.792327	city	10	1	0.645854	0.645854	0	1	0	0	CorrectCommission	0.459225	0.841303	0
67.837440	0.792280	city	2	1	0.645675	0.645675	0	1	0	0	CorrectCommission	0.457122	0.843826	0
68.629707	0.792249	city	8	1	0.602324	0.602324	0	1	0	0	CorrectCommission	0.052638	0.848031	0
69.421913	0.792162	city	5	1	0.602460	0.602460	0	1	0	0	CorrectCommission	0.051032	0.852121	0
70.214012	0.792034	mountain	8	0	0.000000	0.769717	1	0	0	0	CorrectOmission	1.915718	0.854237	0
71.006195	0.792335	city	3	1	0.893349	0.893349	0	1	0	0	CorrectCommission	3.369491	0.852705	0
71.798622	0.792526	city	2	1	0.762612	0.762612	0	1	0	0	CorrectCommission	1.832169	0.846377	0
72.590973	0.792173	city	3	1	0.645613	0.645613	0	1	0	0	CorrectCommission	0.456399	0.834831	0
73.383224	0.792325	city	8	1	0.611776	0.611776	0	1	0	0	CorrectCommission	0.058506	0.818325	0
74.175362	0.791963	mountain	3	0	0.000000	0.615126	1	0	0	0	CorrectOmission	0.097901	0.797621	0
74.967644	0.792601	city	8	1	0.646017	0.646017	0	1	0	0	CorrectCommission	0.461148	0.773800	0
75.759964	0.792029	city	9	1	0.694802	0.694802	0	1	0	0	CorrectCommission	1.034806	0.748044	0
76.552094	0.792234	city	7	1	0.646115	0.646115	0	1	0	0	CorrectCommission	0.462296	0.721487	0
77.344482	0.792540	city	1	1	0.645931	0.645931	0	1	0	0	CorrectCommission	0.460134	0.695165	0
78.136864	0.792219	city	5	1	0.695208	0.695208	0	1	0	0	CorrectCommission	1.039581	0.669928	1
78.929108	0.792278	city	10	1	0.646279	0.646279	0	1	0	0	CorrectCommission	0.464226	0.646475	1
79.721344	0.792186	city	3	1	0.650116	0.650116	0	1	0	0	CorrectCommission	0.509344	0.625477	1
80.513603	0.792334	city	5	1	0.744584	0.744584	0	1	0	0	CorrectCommission	1.620186	0.607677	1
81.305870	0.792203	mountain	2	0	0.000000	0.652817	1	0	0	0	CorrectOmission	0.541111	0.593847	1
82.098129	0.792311	city	3	1	0.546307	0.546307	0	1	0	0	CorrectCommission	0.711326	0.584896	1
82.890305	0.792048	city	10	1	0.596546	0.596546	0	1	0	0	CorrectCommission	0.120572	0.581653	1
83.682594	0.792520	city	3	1	0.596387	0.596387	0	1	0	0	CorrectCommission	0.122444	0.584782	1
84.474960	0.792224	city	5	1	0.613804	0.613804	0	1	0	0	CorrectCommission	0.082356	0.594576	1
85.267097	0.792048	city	6	1	0.645438	0.645438	0	1	0	0	CorrectCommission	0.454338	0.610851	1
86.059341	0.792429	city	7	1	0.596559	0.596559	0	1	0	0	CorrectCommission	0.120428	0.632829	1
86.851707	0.792311	city	4	1	0.646428	0.646428	0	1	0	0	CorrectCommission	0.465978	0.659225	1
87.643860	0.791987	city	5	1	0.604803	0.604803	0	1	0	0	CorrectCommission	0.023483	0.688212	0
88.436104	0.792501	city	6	1	0.744910	0.744910	0	1	0	0	CorrectCommission	1.624014	0.717705	0
89.228493	0.792277	mountain	2	0	0.000000	0.767065	1	0	0	0	CorrectOmission	1.884528	0.745522	0
90.020767	0.792276	mountain	8	0	0.000000	0.718326	1	0	0	0	CorrectOmission	1.311416	0.769726	0
90.812935	0.792062	city	2	1	0.645752	0.645752	0	1	0	0	CorrectCommission	0.458036	0.788757	0
91.605217	0.792503	city	10	1	0.596403	0.596403	0	1	0	0	CorrectCommission	0.122256	0.801562	0
92.397583	0.792228	city	4	1	0.695328	0.695328	0	1	0	0	CorrectCommission	1.040988	0.807640	0
93.189842	0.792293	city	9	1	0.698103	0.698103	0	1	0	0	CorrectCommission	1.073622	0.806983	0
93.982117	0.792255	city	10	1	0.694828	0.694828	0	1	0	0	CorrectCommission	1.035114	0.800071	0
94.774261	0.792027	city	4	1	0.695454	0.695454	0	1	0	0	CorrectCommission	1.042472	0.787804	0
95.566536	0.792530	city	1	1	0.695463	0.695463	0	1	0	0	CorrectCommission	1.042573	0.771306	0
96.358948	0.792290	city	6	1	0.649050	0.649050	0	1	0	0	CorrectCommission	0.496811	0.751879	0
97.151199	0.792217	city	1	1	0.645599	0.645599	0	1	0	0	CorrectCommission	0.456234	0.730883	0
97.943344	0.792065	city	5	1	0.645363	0.645363	0	1	0	0	CorrectCommission	0.453452	0.709567	0
98.735626	0.792503	city	6	1	0.695549	0.695549	0	1	0	0	CorrectCommission	1.043586	0.689091	0
99.527977	0.792202	city	2	1	0.645812	0.645812	0	1	0	0	CorrectCommission	0.458739	0.670406	1
100.320221	0.792277	city	10	1	0.546716	0.546716	0	1	0	0	CorrectCommission	0.706521	0.654289	1
101.112396	0.792079	city	5	1	0.646103	0.646103	0	1	0	0	CorrectCommission	0.462163	0.641252	1
101.904694	0.792508	city	9	1	0.695656	0.695656	0	1	0	0	CorrectCommission	1.044841	0.631617	1
102.697098	0.792299	city	3	1	0.596019	0.596019	0	1	0	0	CorrectCommission	0.126772	0.625492	1
103.489189	0.791894	city	6	1	0.657386	0.657386	0	1	0	0	CorrectCommission	0.594832	0.622880	1
104.281387	0.792494	city	9	1	0.654659	0.654659	0	1	0	0	CorrectCommission	0.562771	0.623559	1
105.073807	0.792355	city	5	1	0.645668	0.645668	0	1	0	0	CorrectCommission	0.457041	0.627270	1
105.866005	0.792035	city	2	1	0.595981	0.595981	0	1	0	0	CorrectCommission	0.127214	0.633680	1
106.658257	0.792465	city	1	1	0.646105	0.646105	0	1	0	0	CorrectCommission	0.462184	0.642488	1
107.450638	0.792302	mountain	3	0	0.000000	0.729284	1	0	0	0	CorrectOmission	1.440275	0.653438	1
108.242905	0.792234	city	4	1	0.745866	0.745866	0	1	0	0	CorrectCommission	1.635259	0.666321	1
109.035164	0.792284	city	1	1	0.596198	0.596198	0	1	0	0	CorrectCommission	0.124664	0.681034	0
109.827446	0.792274	city	10	1	0.546687	0.546687	0	1	0	0	CorrectCommission	0.706863	0.697491	0
110.619682	0.792200	city	8	1	0.596248	0.596248	0	1	0	0	CorrectCommission	0.124075	0.715473	0
111.411926	0.792284	city	7	1	0.563739	0.563739	0	1	0	0	CorrectCommission	0.506354	0.734638	0
112.204231	0.792339	city	6	1	0.646399	0.646399	0	1	0	0	CorrectCommission	0.465635	0.754404	0
112.996529	0.792253	city	5	1	0.645593	0.645593	0	1	0	0	CorrectCommission	0.456158	0.774020	0
113.788788	0.792258	mountain	7	0	0.000000	0.703265	1	0	0	0	CorrectOmission	1.134312	0.792522	0
114.581039	0.792252	city	5	1	0.744668	0.744668	0	1	0	0	CorrectCommission	1.621167	0.808827	0
115.373283	0.792232	city	2	1	0.695056	0.695056	0	1	0	0	CorrectCommission	1.037791	0.821868	0
116.165520	0.792247	city	5	1	0.645451	0.645451	0	1	0	0	CorrectCommission	0.454493	0.830721	0
116.957817	0.792346	city	8	1	0.645432	0.645432	0	1	0	0	CorrectCommission	0.454268	0.834710	0
117.749985	0.791994	city	9	1	0.744252	0.744252	0	1	0	0	CorrectCommission	1.616275	0.833445	0
118.542198	0.792430	city	6	1	0.745323	0.745323	0	1	0	0	CorrectCommission	1.628866	0.826870	0
119.334610	0.792389	city	3	1	0.645758	0.645758	0	1	0	0	CorrectCommission	0.458103	0.815267	0
120.126785	0.791966	city	7	1	0.645480	0.645480	0	1	0	0	CorrectCommission	0.454831	0.799273	0
120.919006	0.792467	city	3	1	0.646133	0.646133	0	1	0	0	CorrectCommission	0.462508	0.779748	0
121.711395	0.792312	city	2	1	0.694922	0.694922	0	1	0	0	CorrectCommission	1.036217	0.757712	0
122.503677	0.792260	city	6	1	0.694780	0.694780	0	1	0	0	CorrectCommission	1.034545	0.734246	0
123.295830	0.792047	city	1	1	0.649114	0.649114	0	1	0	0	CorrectCommission	0.497565	0.710460	0
124.088089	0.792468	city	6	1	0.695617	0.695617	0	1	0	0	CorrectCommission	1.044381	0.687457	0
124.880318	0.791995	city	2	1	0.645798	0.645798	0	1	0	0	CorrectCommission	0.458570	0.666191	1
125.672462	0.792286	city	8	1	0.657871	0.657871	0	1	0	0	CorrectCommission	0.600533	0.647510	1
126.464859	0.792513	mountain	4	0	0.000000	0.604371	1	0	0	0	CorrectOmission	0.028559	0.632106	1
127.257240	0.792251	city	1	1	0.596384	0.596384	0	1	0	0	CorrectCommission	0.122477	0.620445	1
128.049500	0.792249	city	8	1	0.744995	0.744995	0	1	0	0	CorrectCommission	1.625012	0.612734	1
128.841751	0.792265	city	7	1	0.645624	0.645624	0	1	0	0	CorrectCommission	0.456529	0.608820	1
129.634033	0.792305	city	3	1	0.646050	0.646050	0	1	0	0	CorrectCommission	0.461532	0.608318	1
130.426300	0.792222	city	2	1	0.645440	0.645440	0	1	0	0	CorrectCommission	0.454360	0.610468	1
131.218521	0.792221	city	8	1	0.645810	0.645810	0	1	0	0	CorrectCommission	0.458715	0.614187	1
132.010651	0.792036	mountain	2	0	0.000000	0.637681	1	0	0	0	CorrectOmission	0.363127	0.618123	1
132.802948	0.792558	city	6	1	0.645921	0.645921	0	1	0	0	CorrectCommission	0.460017	0.620783	1
133.595367	0.792298	city	7	1	0.695397	0.695397	0	1	0	0	CorrectCommission	1.041803	0.620659	1
134.387527	0.792004	city	1	1	0.564351	0.564351	0	1	0	0	CorrectCommission	0.499157	0.616398	1
135.179764	0.792485	city	5	1	0.611875	0.611875	0	1	0	0	CorrectCommission	0.059679	0.607028	1
135.972122	0.792225	city	4	1	0.744722	0.744722	0	1	0	0	CorrectCommission	1.621803	0.592075	1
136.764404	0.792332	mountain	7	0	0.000000	0.757520	1	0	0	0	CorrectOmission	1.772294	0.571631	1
137.556564	0.792006	city	10	1	0.696058	0.696058	0	1	0	0	CorrectCommission	1.049567	0.546462	1
138.348724	0.792303	city	3	1	0.606123	0.606123	0	1	0	0	CorrectCommission	0.007961	0.517917	1
139.141129	0.792518	city	4	1	0.595995	0.595995	0	1	0	0	CorrectCommission	0.127053	0.487728	1
139.933380	0.791984	city	7	1	0.596419	0.596419	0	1	0	0	CorrectCommission	0.122065	0.457722	1
140.725601	0.792450	city	5	1	0.596202	0.596202	0	1	0	0	CorrectCommission	0.124621	0.429663	1
141.518005	0.792355	city	6	1	0.623251	0.623251	0	1	0	0	CorrectCommission	0.193442	0.404997	1
142.310165	0.791972	city	4	1	0.602574	0.602574	0	1	0	0	CorrectCommission	0.049693	0.384692	1
143.102264	0.792228	city	1	1	0.596082	0.596082	0	1	0	0	CorrectCommission	0.126034	0.369191	1
143.894638	0.792497	city	4	1	0.646495	0.646495	0	1	0	0	CorrectCommission	0.466763	0.358415	1
144.686935	0.792102	city	2	1	0.648853	0.648853	0	1	0	0	CorrectCommission	0.494489	0.351843	1
145.479248	0.792541	city	9	1	0.646099	0.646099	0	1	0	0	CorrectCommission	0.462111	0.348670	1
146.271652	0.792274	city	4	1	0.645616	0.645616	0	1	0	0	CorrectCommission	0.456434	0.348004	1
147.063782	0.791984	city	7	1	0.645521	0.645521	0	1	0	0	CorrectCommission	0.455319	0.348999	1
147.856049	0.792528	city	3	1	0.645979	0.645979	0	1	0	0	CorrectCommission	0.460701	0.350968	1
148.648438	0.792271	city	10	1	0.599254	0.599254	0	1	0	0	CorrectCommission	0.088737	0.353479	1
149.440689	0.792233	city	6	1	0.595904	0.595904	0	1	0	0	CorrectCommission	0.128124	0.356387	1
150.232834	0.792038	city	3	1	0.550877	0.550877	0	1	0	0	CorrectCommission	0.657596	0.359813	1
151.025101	0.792516	city	5	1	0.650380	0.650380	0	1	0	0	CorrectCommission	0.512449	0.364032	1
151.817459	0.792200	city	2	1	0.595964	0.595964	0	1	0	0	CorrectCommission	0.127419	0.369460	1
152.609695	0.792252	city	6	1	0.596256	0.596256	0	1	0	0	CorrectCommission	0.123985	0.376569	1
153.401978	0.792320	mountain	4	0	0.000000	0.562318	1	0	0	0	CorrectOmission	0.523058	0.385670	1
154.194153	0.792038	city	1	1	0.546468	0.546468	0	1	0	0	CorrectCommission	0.709433	0.396875	1
154.986420	0.792477	city	10	1	0.601025	0.601025	0	1	0	0	CorrectCommission	0.067904	0.410043	1
155.778656	0.792009	city	3	1	0.596107	0.596107	0	1	0	0	CorrectCommission	0.125741	0.424789	1
156.570770	0.792218	city	7	1	0.550393	0.550393	0	1	0	0	CorrectCommission	0.663282	0.440379	1
157.363144	0.792525	city	2	1	0.596642	0.596642	0	1	0	0	CorrectCommission	0.119449	0.455791	1
158.155426	0.792043	city	4	1	0.558094	0.558094	0	1	0	0	CorrectCommission	0.572729	0.469861	1
158.947708	0.792526	city	2	1	0.558002	0.558002	0	1	0	0	CorrectCommission	0.573809	0.481309	1
159.739975	0.792010	city	8	1	0.611602	0.611602	0	1	0	0	CorrectCommission	0.056471	0.488982	1
160.532227	0.792482	city	1	1	0.695628	0.695628	0	1	0	0	CorrectCommission	1.044510	0.492004	1
161.324615	0.792295	city	3	1	0.695238	0.695238	0	1	0	0	CorrectCommission	1.039925	0.489824	1
162.116882	0.792233	city	5	1	0.695941	0.695941	0	1	0	0	CorrectCommission	1.048198	0.482407	1
162.909134	0.792296	city	1	1	0.645432	0.645432	0	1	0	0	CorrectCommission	0.454266	0.470273	1
163.701447	0.792328	city	7	1	0.565314	0.565314	0	1	0	0	CorrectCommission	0.487832	0.454457	1
164.493729	0.792225	city	5	1	0.596338	0.596338	0	1	0	0	CorrectCommission	0.123018	0.436375	1
165.285980	0.792279	city	10	1	0.555948	0.555948	0	1	0	0	CorrectCommission	0.597962	0.417687	1
166.078217	0.792187	city	1	1	0.596402	0.596402	0	1	0	0	CorrectCommission	0.122267	0.400068	1
166.870346	0.792073	city	8	1	0.602812	0.602812	0	1	0	0	CorrectCommission	0.046899	0.385078	1
167.662659	0.792549	city	5	1	0.564258	0.564258	0	1	0	0	CorrectCommission	0.500247	0.373870	1
168.455048	0.792232	city	4	1	0.596116	0.596116	0	1	0	0	CorrectCommission	0.125636	0.367094	1
169.247284	0.792259	city	1	1	0.597477	0.597477	0	1	0	0	CorrectCommission	0.109625	0.364905	1
170.039551	0.792260	city	10	1	0.602617	0.602617	0	1	0	0	CorrectCommission	0.049185	0.366855	1
170.831787	0.792204	city	5	1	0.645706	0.645706	0	1	0	0	CorrectCommission	0.457485	0.372039	1
171.624069	0.792356	city	6	1	0.647649	0.647649	0	1	0	0	CorrectCommission	0.480334	0.379204	1
172.416229	0.791977	city	7	1	0.645544	0.645544	0	1	0	0	CorrectCommission	0.455585	0.386967	1
173.208344	0.792262	city	6	1	0.645798	0.645798	0	1	0	0	CorrectCommission	0.458574	0.394000	1
174.000717	0.792465	city	8	1	0.596677	0.596677	0	1	0	0	CorrectCommission	0.119039	0.399205	1
174.793091	0.792305	city	4	1	0.546371	0.546371	0	1	0	0	CorrectCommission	0.710576	0.401911	1
175.585403	0.792317	city	7	1	0.503562	0.503562	0	1	0	0	CorrectCommission	1.213961	0.401898	1
176.377655	0.792180	city	10	1	0.546890	0.546890	0	1	0	0	CorrectCommission	0.704469	0.399429	1
177.169876	0.792257	mountain	2	0	0.000000	0.611769	1	0	0	0	CorrectOmission	0.058430	0.395236	1
177.962204	0.792388	city	3	1	0.645727	0.645727	0	1	0	0	CorrectCommission	0.457734	0.390297	1
178.754471	0.792150	city	2	1	0.596292	0.596292	0	1	0	0	CorrectCommission	0.123559	0.385667	1
179.546677	0.792282	city	10	1	0.596166	0.596166	0	1	0	0	CorrectCommission	0.125045	0.382360	1
180.338943	0.792245	city	7	1	0.600359	0.600359	0	1	0	0	CorrectCommission	0.075739	0.381160	1
181.131104	0.792075	city	6	1	0.604583	0.604583	0	1	0	0	CorrectCommission	0.026065	0.382472	1
181.923370	0.792452	mountain	10	1	0.546742	0.546742	0	0	1	0	CommissionError	0.706220	0.386400	1
182.715637	0.792075	city	4	1	0.596197	0.596197	0	1	0	0	CorrectCommission	0.124681	0.392698	1
183.507889	0.792437	city	7	1	0.596416	0.596416	0	1	0	0	CorrectCommission	0.122101	0.400970	1
184.300293	0.792376	city	1	1	0.508456	0.508456	0	1	0	0	CorrectCommission	1.156409	0.410748	1
185.092560	0.792163	city	7	1	0.595737	0.595737	0	1	0	0	CorrectCommission	0.130091	0.421602	1
185.884796	0.792291	city	10	1	0.546464	0.546464	0	1	0	0	CorrectCommission	0.709485	0.433361	1
186.676956	0.792052	city	7	1	0.695613	0.695613	0	1	0	0	CorrectCommission	1.044341	0.446030	1
187.469223	0.792465	city	6	1	0.646200	0.646200	0	1	0	0	CorrectCommission	0.463300	0.459809	1
188.261566	0.792233	city	4	1	0.602008	0.602008	0	1	0	0	CorrectCommission	0.056354	0.475010	1
189.053833	0.792298	mountain	3	0	0.000000	0.600916	1	0	0	0	CorrectOmission	0.069193	0.491899	1
189.846024	0.792091	city	8	1	0.597622	0.597622	0	1	0	0	CorrectCommission	0.107926	0.510587	1
190.638306	0.792456	city	4	1	0.546823	0.546823	0	1	0	0	CorrectCommission	0.705261	0.530889	1
191.430679	0.792300	city	9	1	0.553012	0.553012	0	1	0	0	CorrectCommission	0.632484	0.552350	1
192.222824	0.791967	mountain	3	0	0.000000	0.567418	1	0	0	0	CorrectOmission	0.463085	0.574263	1
193.015091	0.792567	city	5	1	0.596196	0.596196	0	1	0	0	CorrectCommission	0.124697	0.595762	1
193.807495	0.792245	city	4	1	0.645498	0.645498	0	1	0	0	CorrectCommission	0.455049	0.616060	1
194.599731	0.792224	mountain	4	0	0.000000	0.725642	1	0	0	0	CorrectOmission	1.397445	0.634622	1
195.391968	0.792279	city	2	1	0.744659	0.744659	0	1	0	0	CorrectCommission	1.621064	0.651289	1
196.184235	0.792239	city	10	1	0.610583	0.610583	0	1	0	0	CorrectCommission	0.044481	0.666451	1
196.976517	0.792339	city	3	1	0.512396	0.512396	0	1	0	0	CorrectCommission	1.110083	0.681041	0
197.768707	0.792021	city	5	1	0.497234	0.497234	0	1	0	0	CorrectCommission	1.288368	0.696275	0
198.560959	0.792500	city	10	1	0.560012	0.560012	0	1	0	0	CorrectCommission	0.550171	0.713562	0
199.353302	0.792187	city	1	1	0.596209	0.596209	0	1	0	0	CorrectCommission	0.124537	0.734180	0
200.145447	0.792092	city	9	1	0.596348	0.596348	0	1	0	0	CorrectCommission	0.122899	0.758976	0
200.937714	0.792453	city	7	1	0.596474	0.596474	0	1	0	0	CorrectCommission	0.121417	0.788122	0
201.729965	0.792027	city	3	1	0.546842	0.546842	0	1	0	0	CorrectCommission	0.705039	0.820970	0
202.522141	0.792346	city	1	1	0.546536	0.546536	0	1	0	0	CorrectCommission	0.708640	0.856169	0
203.314545	0.792455	city	6	1	0.549920	0.549920	0	1	0	0	CorrectCommission	0.668842	0.891781	0
204.106888	0.792222	city	9	1	0.546625	0.546625	0	1	0	0	CorrectCommission	0.707593	0.925662	0
204.899063	0.792121	city	2	1	0.448928	0.448928	0	1	0	0	CorrectCommission	1.856390	0.955809	0
205.691315	0.792402	city	6	1	0.497153	0.497153	0	1	0	0	CorrectCommission	1.289319	0.980666	0
206.483536	0.792034	mountain	6	1	0.398940	0.398940	0	0	1	0	CommissionError	2.444200	0.999498	0
207.275833	0.792568	mountain	2	1	0.448156	0.448156	0	0	1	0	CommissionError	1.865470	1.012400	0
208.068268	0.792303	city	10	1	0.546301	0.546301	0	1	0	0	CorrectCommission	0.711394	1.020349	0
208.860519	0.792193	city	6	1	0.645553	0.645553	0	1	0	0	CorrectCommission	0.455684	1.024949	0
209.652649	0.792075	city	3	1	0.546643	0.546643	0	1	0	0	CorrectCommission	0.707373	1.027985	0
210.444778	0.792179	city	4	1	0.547178	0.547178	0	1	0	0	CorrectCommission	0.701091	1.031065	0
211.237167	0.792592	city	7	1	0.547198	0.547198	0	1	0	0	CorrectCommission	0.700847	1.035269	0
212.029572	0.792219	mountain	2	0	0.000000	0.585854	1	0	0	0	CorrectOmission	0.246307	1.040831	0
212.821793	0.792233	city	1	1	0.645366	0.645366	0	1	0	0	CorrectCommission	0.453489	1.047060	0
213.614090	0.792343	mountain	1	0	0.000000	0.707958	1	0	0	0	CorrectOmission	1.189505	1.052461	0
214.406403	0.792289	city	5	1	0.753569	0.753569	0	1	0	0	CorrectCommission	1.725830	1.054938	0
215.198547	0.791998	city	9	1	0.762134	0.762134	0	1	0	0	CorrectCommission	1.826553	1.052167	0
215.990753	0.792423	city	7	1	0.744699	0.744699	0	1	0	0	CorrectCommission	1.621530	1.042018	0
216.783142	0.792337	city	2	1	0.695680	0.695680	0	1	0	0	CorrectCommission	1.045130	1.022974	0
217.575317	0.792025	city	6	1	0.744465	0.744465	0	1	0	0	CorrectCommission	1.618781	0.994406	0
218.367554	0.792446	city	10	1	0.646449	0.646449	0	1	0	0	CorrectCommission	0.466223	0.956656	0
219.159790	0.792020	city	5	1	0.744724	0.744724	0	1	0	0	CorrectCommission	1.621832	0.911146	0
219.952057	0.792522	city	3	1	0.745098	0.745098	0	1	0	0	CorrectCommission	1.626220	0.860123	0
220.744446	0.792261	city	2	1	0.645526	0.645526	0	1	0	0	CorrectCommission	0.455373	0.806510	0
221.536591	0.792015	city	7	1	0.607448	0.607448	0	1	0	0	CorrectCommission	0.007615	0.753588	0
222.328720	0.792259	city	6	1	0.607724	0.607724	0	1	0	0	CorrectCommission	0.010865	0.704681	0
223.121017	0.792333	city	7	1	0.645625	0.645625	0	1	0	0	CorrectCommission	0.456539	0.662666	1
223.913422	0.792466	city	6	1	0.695417	0.695417	0	1	0	0	CorrectCommission	1.042038	0.629850	1
224.705826	0.792357	city	1	1	0.595952	0.595952	0	1	0	0	CorrectCommission	0.127566	0.607826	1
225.498093	0.792177	city	3	1	0.596249	0.596249	0	1	0	0	CorrectCommission	0.124067	0.597491	1
226.290329	0.792296	city	8	1	0.549941	0.549941	0	1	0	0	CorrectCommission	0.668603	0.598906	1
227.082626	0.792307	mountain	9	0	0.000000	0.565290	1	0	0	0	CorrectOmission	0.488111	0.611468	1
227.874786	0.791987	city	3	1	0.596224	0.596224	0	1	0	0	CorrectCommission	0.124367	0.634026	1
228.666901	0.792255	city	7	1	0.596668	0.596668	0	1	0	0	CorrectCommission	0.119141	0.665062	1
229.459259	0.792466	city	9	1	0.496916	0.496916	0	1	0	0	CorrectCommission	1.292105	0.702808	0
230.251495	0.791993	mountain	10	1	0.511338	0.511338	0	0	1	0	CommissionError	1.122526	0.745317	0
231.043655	0.792318	mountain	7	0	0.000000	0.597231	1	0	0	0	CorrectOmission	0.112523	0.790644	0
231.835907	0.792211	mountain	3	0	0.000000	0.695766	1	0	0	0	CorrectOmission	1.046140	0.836872	0
232.628189	0.792332	city	4	1	0.748115	0.748115	0	1	0	0	CorrectCommission	1.661698	0.882081	0
233.420609	0.792502	city	3	1	0.695447	0.695447	0	1	0	0	CorrectCommission	1.042387	0.924347	0
234.212875	0.792034	city	4	1	0.645690	0.645690	0	1	0	0	CorrectCommission	0.457300	0.961851	0
235.004990	0.792204	city	1	1	0.547455	0.547455	0	1	0	0	CorrectCommission	0.697836	0.992765	0
235.797363	0.792559	city	6	1	0.563055	0.563055	0	1	0	0	CorrectCommission	0.514397	1.015394	0
236.589737	0.792186	city	1	1	0.564931	0.564931	0	1	0	0	CorrectCommission	0.492329	1.028234	0
237.382019	0.792354	city	10	1	0.992496	0.992496	0	1	0	0	CorrectCommission	4.535339	1.030181	0
238.174286	0.792188	city	2	1	0.602231	0.602231	0	1	0	0	CorrectCommission	0.053727	1.020501	0
238.966522	0.792296	city	4	1	0.564325	0.564325	0	1	0	0	CorrectCommission	0.499458	0.999459	0
239.758698	0.792060	mountain	9	0	0.000000	0.714539	1	0	0	0	CorrectOmission	1.266890	0.967945	0
240.550873	0.792272	city	6	1	0.794733	0.794733	0	1	0	0	CorrectCommission	2.209878	0.927665	0
241.343231	0.792459	city	10	1	0.546765	0.546765	0	1	0	0	CorrectCommission	0.705938	0.881058	0
242.135483	0.792048	city	3	1	0.497635	0.497635	0	1	0	0	CorrectCommission	1.283660	0.831242	0
242.927658	0.792285	city	8	1	0.596690	0.596690	0	1	0	0	CorrectCommission	0.118884	0.781610	0
243.720032	0.792474	city	3	1	0.646335	0.646335	0	1	0	0	CorrectCommission	0.464884	0.735619	0
244.512268	0.791979	city	6	1	0.645908	0.645908	0	1	0	0	CorrectCommission	0.459864	0.696310	0
245.304413	0.792316	city	2	1	0.596556	0.596556	0	1	0	0	CorrectCommission	0.120456	0.666140	1
246.096680	0.792213	city	9	1	0.596626	0.596626	0	1	0	0	CorrectCommission	0.119640	0.646748	1
246.889084	0.792618	city	1	1	0.596475	0.596475	0	1	0	0	CorrectCommission	0.121410	0.638747	1
247.681534	0.792280	city	10	1	0.704833	0.704833	0	1	0	0	CorrectCommission	1.152755	0.641792	1
248.473663	0.791964	city	8	1	0.609344	0.609344	0	1	0	0	CorrectCommission	0.029919	0.654665	1
249.265884	0.792482	city	10	1	0.558297	0.558297	0	1	0	0	CorrectCommission	0.570341	0.675549	0
250.058258	0.792255	city	9	1	0.601173	0.601173	0	1	0	0	CorrectCommission	0.066167	0.702152	0
250.850510	0.792272	city	5	1	0.695295	0.695295	0	1	0	0	CorrectCommission	1.040598	0.732119	0
251.642685	0.792062	city	4	1	0.695005	0.695005	0	1	0	0	CorrectCommission	1.037185	0.763212	0
252.434952	0.792488	city	5	1	0.805055	0.805055	0	1	0	0	CorrectCommission	2.331246	0.793566	0
253.227356	0.792323	city	10	1	0.695428	0.695428	0	1	0	0	CorrectCommission	1.042165	0.821707	0
254.019653	0.792254	city	4	1	0.655632	0.655632	0	1	0	0	CorrectCommission	0.574206	0.846725	0
254.811874	0.792193	city	10	1	0.646379	0.646379	0	1	0	0	CorrectCommission	0.465399	0.867933	0
255.604126	0.792320	city	7	1	0.645903	0.645903	0	1	0	0	CorrectCommission	0.459805	0.884981	0
256.396393	0.792203	city	9	1	0.645285	0.645285	0	1	0	0	CorrectCommission	0.452538	0.897607	0
257.188629	0.792290	city	10	1	0.645660	0.645660	0	1	0	0	CorrectCommission	0.456948	0.905569	0
257.980927	0.792263	city	4	1	0.745034	0.745034	0	1	0	0	CorrectCommission	1.625477	0.908590	0
258.773163	0.792233	mountain	6	1	0.793877	0.793877	0	0	1	0	CommissionError	2.199811	0.906433	0
259.565277	0.792014	city	8	1	0.558337	0.558337	0	1	0	0	CorrectCommission	0.569872	0.898940	0
260.357574	0.792540	city	1	1	0.546680	0.546680	0	1	0	0	CorrectCommission	0.706949	0.886280	0
261.149994	0.792335	city	3	1	0.506257	0.506257	0	1	0	0	CorrectCommission	1.182270	0.868805	0
261.942261	0.792196	city	9	1	0.546262	0.546262	0	1	0	0	CorrectCommission	0.711859	0.847165	0
262.734528	0.792337	city	10	1	0.515008	0.515008	0	1	0	0	CorrectCommission	1.079368	0.822346	0
263.526794	0.792152	city	7	1	0.694879	0.694879	0	1	0	0	CorrectCommission	1.035705	0.795506	0
264.319031	0.792349	city	4	1	0.695301	0.695301	0	1	0	0	CorrectCommission	1.040669	0.767898	0
265.111298	0.792167	city	9	1	0.645824	0.645824	0	1	0	0	CorrectCommission	0.458876	0.740655	0
265.903564	0.792379	city	4	1	0.596435	0.596435	0	1	0	0	CorrectCommission	0.121881	0.714773	0
266.695831	0.792156	city	5	1	0.596157	0.596157	0	1	0	0	CorrectCommission	0.125146	0.690891	0
267.487976	0.792122	city	2	1	0.552678	0.552678	0	1	0	0	CorrectCommission	0.636417	0.669296	1
268.280151	0.792219	city	5	1	0.547988	0.547988	0	1	0	0	CorrectCommission	0.691557	0.649900	1
269.072479	0.792485	city	7	1	0.560933	0.560933	0	1	0	0	CorrectCommission	0.539344	0.632397	1
269.864899	0.792311	city	10	1	0.503280	0.503280	0	1	0	0	CorrectCommission	1.217274	0.616367	1
270.657043	0.792023	city	5	1	0.547767	0.547767	0	1	0	0	CorrectCommission	0.694165	0.601471	1
271.449280	0.792445	city	7	1	0.560061	0.560061	0	1	0	0	CorrectCommission	0.549593	0.587628	1
272.241699	0.792346	city	1	1	0.546351	0.546351	0	1	0	0	CorrectCommission	0.710807	0.575037	1
273.033813	0.791927	city	9	1	0.550762	0.550762	0	1	0	0	CorrectCommission	0.658946	0.564170	1
273.826080	0.792616	city	10	1	0.547200	0.547200	0	1	0	0	CorrectCommission	0.700824	0.555716	1
274.618500	0.792216	city	7	1	0.596078	0.596078	0	1	0	0	CorrectCommission	0.126076	0.550451	1
275.410767	0.792327	city	8	1	0.558028	0.558028	0	1	0	0	CorrectCommission	0.573498	0.549023	1
276.202942	0.791986	city	2	1	0.596260	0.596260	0	1	0	0	CorrectCommission	0.123936	0.551724	1
276.995056	0.792260	city	9	1	0.596186	0.596186	0	1	0	0	CorrectCommission	0.124810	0.558476	1
277.787476	0.792553	city	5	1	0.646075	0.646075	0	1	0	0	CorrectCommission	0.461829	0.568662	1
278.579834	0.792193	mountain	3	0	0.000000	0.662554	1	0	0	0	CorrectOmission	0.655599	0.581134	1
279.372040	0.792228	city	10	1	0.645844	0.645844	0	1	0	0	CorrectCommission	0.459117	0.594385	1
280.164337	0.792353	city	9	1	0.596170	0.596170	0	1	0	0	CorrectCommission	0.124996	0.606730	1
280.956604	0.792181	city	3	1	0.509810	0.509810	0	1	0	0	CorrectCommission	1.140494	0.616582	1
281.748840	0.792304	city	6	1	0.509025	0.509025	0	1	0	0	CorrectCommission	1.149718	0.622614	1
282.541168	0.792330	city	8	1	0.497017	0.497017	0	1	0	0	CorrectCommission	1.290923	0.624056	1
283.333313	0.791959	city	10	1	0.502053	0.502053	0	1	0	0	CorrectCommission	1.231700	0.620805	1
284.125549	0.792545	mountain	5	0	0.000000	0.574967	1	0	0	0	CorrectOmission	0.374319	0.613460	1
284.917969	0.792269	city	1	1	0.646052	0.646052	0	1	0	0	CorrectCommission	0.461552	0.603218	1
285.710236	0.792277	city	8	1	0.645600	0.645600	0	1	0	0	CorrectCommission	0.456246	0.591672	1
286.502472	0.792188	city	5	1	0.645752	0.645752	0	1	0	0	CorrectCommission	0.458025	0.580574	1
287.294617	0.792084	mountain	1	1	0.645761	0.645761	0	0	1	0	CommissionError	0.458132	0.571529	1
288.086761	0.792222	city	2	1	0.604062	0.604062	0	1	0	0	CorrectCommission	0.032195	0.565790	1
288.879089	0.792438	city	7	1	0.596369	0.596369	0	1	0	0	CorrectCommission	0.122657	0.564063	1
289.671448	0.792273	city	3	1	0.552607	0.552607	0	1	0	0	CorrectCommission	0.637253	0.566373	1
290.463745	0.792294	city	10	1	0.553372	0.553372	0	1	0	0	CorrectCommission	0.628249	0.572071	1
291.256042	0.792313	city	5	1	0.553023	0.553023	0	1	0	0	CorrectCommission	0.632351	0.579964	1
292.048340	0.792279	city	1	1	0.546710	0.546710	0	1	0	0	CorrectCommission	0.706590	0.588480	1
292.840485	0.791993	city	3	1	0.548225	0.548225	0	1	0	0	CorrectCommission	0.688773	0.595807	1
293.632599	0.792273	city	6	1	0.645672	0.645672	0	1	0	0	CorrectCommission	0.457085	0.600230	1
294.424957	0.792453	city	1	1	0.560279	0.560279	0	1	0	0	CorrectCommission	0.547029	0.600287	1
295.217316	0.792246	city	6	1	0.554080	0.554080	0	1	0	0	CorrectCommission	0.619924	0.595027	1
296.009583	0.792264	city	9	1	0.462606	0.462606	0	1	0	0	CorrectCommission	1.695561	0.584071	1
296.801880	0.792344	city	7	1	0.497375	0.497375	0	1	0	0	CorrectCommission	1.286709	0.567701	1
297.594208	0.792298	city	6	1	0.596123	0.596123	0	1	0	0	CorrectCommission	0.125556	0.546961	1
298.386414	0.792148	city	1	1	0.596225	0.596225	0	1	0	0	CorrectCommission	0.124351	0.523445	1
299.178680	0.792388	city	7	1	0.645929	0.645929	0	1	0	0	CorrectCommission	0.460111	0.499160	1
299.970947	0.792155	mountain	9	0	0.000000	0.588096	1	0	0	0	CorrectOmission	0.219937	0.476355	1
300.763062	0.792063	city	3	1	0.546751	0.546751	0	1	0	0	CorrectCommission	0.706107	0.457369	1
301.555359	0.792533	city	1	1	0.645918	0.645918	0	1	0	0	CorrectCommission	0.459984	0.444370	1
302.347626	0.791956	city	7	1	0.604331	0.604331	0	1	0	0	CorrectCommission	0.029032	0.439231	1
303.139862	0.792540	city	1	1	0.596520	0.596520	0	1	0	0	CorrectCommission	0.120879	0.443413	1
303.932251	0.792267	city	10	1	0.596850	0.596850	0	1	0	0	CorrectCommission	0.117004	0.457838	1
304.724487	0.792206	city	7	1	0.611989	0.611989	0	1	0	0	CorrectCommission	0.061021	0.482826	1
305.516785	0.792357	city	6	1	0.596073	0.596073	0	1	0	0	CorrectCommission	0.126134	0.518151	1
306.309113	0.792302	city	1	1	0.546399	0.546399	0	1	0	0	CorrectCommission	0.710252	0.562989	1
307.101349	0.792163	city	10	1	0.509580	0.509580	0	1	0	0	CorrectCommission	1.143193	0.615974	1
307.893616	0.792364	city	7	1	0.596053	0.596053	0	1	0	0	CorrectCommission	0.126379	0.675318	0
308.685913	0.792224	city	4	1	0.694859	0.694859	0	1	0	0	CorrectCommission	1.035477	0.738911	0
309.478119	0.792238	city	1	1	0.609676	0.609676	0	1	0	0	CorrectCommission	0.033814	0.804339	0
310.270386	0.792252	city	5	1	0.744804	0.744804	0	1	0	0	CorrectCommission	1.622766	0.869129	0
311.062653	0.792324	city	4	1	0.646461	0.646461	0	1	0	0	CorrectCommission	0.466363	0.930836	0
311.854828	0.792034	city	6	1	0.547087	0.547087	0	1	0	0	CorrectCommission	0.702161	0.987275	0
312.647064	0.792423	mountain	4	1	0.452453	0.452453	0	0	1	0	CommissionError	1.814941	1.036691	0
313.439484	0.792373	city	5	1	0.506021	0.506021	0	1	0	0	CorrectCommission	1.185050	1.077847	0
314.231628	0.791943	city	10	1	0.497250	0.497250	0	1	0	0	CorrectCommission	1.288188	1.110292	0
315.023895	0.792568	city	1	1	0.464587	0.464587	0	1	0	0	CorrectCommission	1.672257	1.134336	0
315.816254	0.792171	city	5	1	0.398176	0.398176	0	1	0	0	CorrectCommission	2.453176	1.151008	0
316.608459	0.792240	city	2	1	0.714380	0.714380	0	1	0	0	CorrectCommission	1.265020	1.161850	0
317.400757	0.792386	city	4	1	0.649253	0.649253	0	1	0	0	CorrectCommission	0.499203	1.168827	0
318.193054	0.792153	mountain	4	0	0.000000	0.680768	1	0	0	0	CorrectOmission	0.869780	1.173891	0
318.985260	0.792287	city	6	1	0.699590	0.699590	0	1	0	0	CorrectCommission	1.091104	1.178726	0
319.777527	0.792247	city	10	1	0.596385	0.596385	0	1	0	0	CorrectCommission	0.122472	1.184486	0
320.569763	0.792242	city	2	1	0.510203	0.510203	0	1	0	0	CorrectCommission	1.135872	1.191678	0
321.362091	0.792392	city	7	1	0.547105	0.547105	0	1	0	0	CorrectCommission	0.701943	1.199992	0
322.154388	0.792221	city	10	1	0.510680	0.510680	0	1	0	0	CorrectCommission	1.130260	1.208537	0
322.946594	0.792185	mountain	5	1	0.413240	0.413240	0	0	1	0	CommissionError	2.276046	1.215901	0
323.738861	0.792352	city	2	1	0.461524	0.461524	0	1	0	0	CorrectCommission	1.708286	1.220402	0
324.531158	0.792260	city	5	1	0.461983	0.461983	0	1	0	0	CorrectCommission	1.702879	1.220407	0
325.323425	0.792215	mountain	8	0	0.000000	0.669091	1	0	0	0	CorrectOmission	0.732470	1.214553	0
326.115692	0.792369	city	4	1	0.806159	0.806159	0	1	0	0	CorrectCommission	2.344229	1.201887	0
326.908020	0.792238	city	5	1	0.596498	0.596498	0	1	0	0	CorrectCommission	0.121135	1.181887	0
327.700226	0.792204	city	9	1	0.502621	0.502621	0	1	0	0	CorrectCommission	1.225022	1.154624	0
328.492462	0.792291	city	4	1	0.508594	0.508594	0	1	0	0	CorrectCommission	1.154790	1.120566	0
329.284637	0.792052	city	3	1	0.497188	0.497188	0	1	0	0	CorrectCommission	1.288907	1.080645	0
330.076874	0.792424	city	10	1	0.497474	0.497474	0	1	0	0	CorrectCommission	1.285547	1.036055	0
330.869232	0.792253	city	2	1	0.459060	0.459060	0	1	0	0	CorrectCommission	1.737249	0.988201	0
331.661499	0.792272	city	10	1	0.547069	0.547069	0	1	0	0	CorrectCommission	0.702371	0.938576	0
332.453766	0.792265	city	4	1	0.546619	0.546619	0	1	0	0	CorrectCommission	0.707665	0.888673	0
333.246063	0.792367	city	7	1	0.596437	0.596437	0	1	0	0	CorrectCommission	0.121861	0.839788	0
334.038330	0.792182	city	2	1	0.505606	0.505606	0	1	0	0	CorrectCommission	1.189928	0.793052	0
334.830566	0.792250	city	5	1	0.562494	0.562494	0	1	0	0	CorrectCommission	0.520986	0.749250	0
335.622833	0.792301	city	2	1	0.565877	0.565877	0	1	0	0	CorrectCommission	0.481203	0.708894	0
336.415161	0.792341	mountain	7	0	0.000000	0.637179	1	0	0	0	CorrectOmission	0.357222	0.672158	1
337.207428	0.792225	city	8	1	0.695289	0.695289	0	1	0	0	CorrectCommission	1.040524	0.638962	1
337.999695	0.792297	city	2	1	0.659096	0.659096	0	1	0	0	CorrectCommission	0.614936	0.608937	1
338.791962	0.792242	city	4	1	0.650811	0.650811	0	1	0	0	CorrectCommission	0.517520	0.581627	1
339.584076	0.791978	mountain	9	0	0.000000	0.603388	1	0	0	0	CorrectOmission	0.040125	0.556515	1
340.376312	0.792469	city	9	1	0.547187	0.547187	0	1	0	0	CorrectCommission	0.700983	0.533111	1
341.168671	0.792257	city	8	1	0.512570	0.512570	0	1	0	0	CorrectCommission	1.108036	0.511017	1
341.960968	0.792346	city	2	1	0.559493	0.559493	0	1	0	0	CorrectCommission	0.556276	0.489997	1
342.753265	0.792268	city	6	1	0.595851	0.595851	0	1	0	0	CorrectCommission	0.128754	0.470081	1
343.545532	0.792268	city	2	1	0.596000	0.596000	0	1	0	0	CorrectCommission	0.126992	0.451451	1
344.337708	0.792037	city	5	1	0.546726	0.546726	0	1	0	0	CorrectCommission	0.706401	0.434548	1
345.129852	0.792253	city	2	1	0.561227	0.561227	0	1	0	0	CorrectCommission	0.535881	0.419885	1
345.922211	0.792504	city	6	1	0.596553	0.596553	0	1	0	0	CorrectCommission	0.120488	0.408098	1
346.714539	0.792164	city	8	1	0.552273	0.552273	0	1	0	0	CorrectCommission	0.641172	0.399827	1
347.506683	0.792114	city	2	1	0.596370	0.596370	0	1	0	0	CorrectCommission	0.122641	0.395574	1
348.298889	0.792282	city	6	1	0.596494	0.596494	0	1	0	0	CorrectCommission	0.121184	0.395655	1
349.091278	0.792476	city	10	1	0.559694	0.559694	0	1	0	0	CorrectCommission	0.553917	0.400159	1
349.883667	0.792305	mountain	1	0	0.000000	0.589961	1	0	0	0	CorrectOmission	0.198005	0.408850	1
350.675934	0.792229	city	4	1	0.612192	0.612192	0	1	0	0	CorrectCommission	0.063401	0.421247	1
351.468170	0.792231	city	3	1	0.551280	0.551280	0	1	0	0	CorrectCommission	0.652851	0.436552	1
352.260284	0.792054	mountain	6	0	0.000000	0.563589	1	0	0	0	CorrectOmission	0.508116	0.453762	1
353.052582	0.792539	city	5	1	0.596116	0.596116	0	1	0	0	CorrectCommission	0.125635	0.471790	1
353.844818	0.791918	city	1	1	0.595859	0.595859	0	1	0	0	CorrectCommission	0.128654	0.489559	1
354.637085	0.792618	city	8	1	0.546867	0.546867	0	1	0	0	CorrectCommission	0.704743	0.506091	1
355.429504	0.792232	mountain	3	1	0.497135	0.497135	0	0	1	0	CommissionError	1.289536	0.520627	1
356.221710	0.792184	city	5	1	0.501766	0.501766	0	1	0	0	CorrectCommission	1.235085	0.532673	1
357.013947	0.792271	city	7	1	0.546569	0.546569	0	1	0	0	CorrectCommission	0.708244	0.542073	1
357.806152	0.792127	city	6	1	0.596332	0.596332	0	1	0	0	CorrectCommission	0.123089	0.548920	1
358.598328	0.792235	city	4	1	0.599916	0.599916	0	1	0	0	CorrectCommission	0.080954	0.553442	1
359.390594	0.792276	city	1	1	0.564238	0.564238	0	1	0	0	CorrectCommission	0.500478	0.555927	1
360.182953	0.792479	city	7	1	0.602682	0.602682	0	1	0	0	CorrectCommission	0.048427	0.556632	1
360.975189	0.791967	city	3	1	0.546595	0.546595	0	1	0	0	CorrectCommission	0.707944	0.555746	1
361.767456	0.792557	city	1	1	0.497345	0.497345	0	1	0	0	CorrectCommission	1.287064	0.553280	1
362.559875	0.792322	mountain	8	0	0.000000	0.534913	1	0	0	0	CorrectOmission	0.845313	0.549169	1
363.352020	0.791923	city	5	1	0.603273	0.603273	0	1	0	0	CorrectCommission	0.041472	0.543354	1
364.144226	0.792514	city	10	1	0.646402	0.646402	0	1	0	0	CorrectCommission	0.465678	0.535809	1
364.936615	0.792275	city	1	1	0.560151	0.560151	0	1	0	0	CorrectCommission	0.548542	0.526588	1
365.728943	0.792353	mountain	6	0	0.000000	0.543974	1	0	0	0	CorrectOmission	0.738759	0.515957	1
366.521210	0.792164	city	8	1	0.554177	0.554177	0	1	0	0	CorrectCommission	0.618783	0.504386	1
367.313416	0.792303	city	7	1	0.547064	0.547064	0	1	0	0	CorrectCommission	0.702424	0.492608	1
368.105560	0.791967	city	2	1	0.546682	0.546682	0	1	0	0	CorrectCommission	0.706915	0.481530	1
368.897827	0.792552	city	6	1	0.596279	0.596279	0	1	0	0	CorrectCommission	0.123710	0.472154	1
369.690247	0.792279	city	3	1	0.595994	0.595994	0	1	0	0	CorrectCommission	0.127063	0.465481	1
370.482391	0.792040	city	7	1	0.645862	0.645862	0	1	0	0	CorrectCommission	0.459325	0.462359	1
371.274689	0.792531	city	9	1	0.608379	0.608379	0	1	0	0	CorrectCommission	0.018563	0.463352	1
372.066925	0.791935	city	2	1	0.548734	0.548734	0	1	0	0	CorrectCommission	0.682795	0.468633	1
372.859131	0.792488	city	8	1	0.547439	0.547439	0	1	0	0	CorrectCommission	0.698017	0.477917	1
373.651520	0.792320	city	5	1	0.596379	0.596379	0	1	0	0	CorrectCommission	0.122538	0.490499	1
374.443665	0.791971	city	3	1	0.605090	0.605090	0	1	0	0	CorrectCommission	0.020108	0.505404	1
375.235931	0.792522	city	4	1	0.652231	0.652231	0	1	0	0	CorrectCommission	0.534211	0.521458	1
376.028351	0.792315	city	1	1	0.652049	0.652049	0	1	0	0	CorrectCommission	0.532076	0.537364	1
376.820618	0.792231	city	9	1	0.645985	0.645985	0	1	0	0	CorrectCommission	0.460768	0.552051	1
377.612854	0.792247	city	4	1	0.702678	0.702678	0	1	0	0	CorrectCommission	1.127418	0.564769	1
378.405029	0.792116	mountain	7	0	0.000000	0.716408	1	0	0	0	CorrectOmission	1.288863	0.575240	1
379.197327	0.792451	city	3	1	0.695078	0.695078	0	1	0	0	CorrectCommission	1.038046	0.583714	1
379.989685	0.792252	city	8	1	0.646593	0.646593	0	1	0	0	CorrectCommission	0.467914	0.590967	1
380.781921	0.792263	city	1	1	0.645531	0.645531	0	1	0	0	CorrectCommission	0.455426	0.598164	1
381.574188	0.792234	city	5	1	0.596658	0.596658	0	1	0	0	CorrectCommission	0.119263	0.606595	1
382.366333	0.792087	city	6	1	0.645594	0.645594	0	1	0	0	CorrectCommission	0.456172	0.617479	1
383.158630	0.792506	city	10	1	0.595995	0.595995	0	1	0	0	CorrectCommission	0.127058	0.631677	1
383.951019	0.792279	city	8	1	0.645624	0.645624	0	1	0	0	CorrectCommission	0.456527	0.649572	1
384.743256	0.792192	city	1	1	0.645352	0.645352	0	1	0	0	CorrectCommission	0.453327	0.670896	1
385.535492	0.792265	city	5	1	0.695419	0.695419	0	1	0	0	CorrectCommission	1.042058	0.694762	0
386.327820	0.792366	city	6	1	0.713025	0.713025	0	1	0	0	CorrectCommission	1.249082	0.719739	0
387.120117	0.792239	city	10	1	0.599696	0.599696	0	1	0	0	CorrectCommission	0.083532	0.744016	0
387.912201	0.791936	mountain	1	1	0.560722	0.560722	0	0	1	0	CommissionError	0.541821	0.765662	0
388.704346	0.792334	city	5	1	0.597016	0.597016	0	1	0	0	CorrectCommission	0.115054	0.782800	0
389.496735	0.792477	city	7	0	0.000000	0.767799	0	0	0	1	OmissionError	1.893157	0.793906	0
390.289124	0.792268	city	4	1	0.843986	0.843986	0	1	0	0	CorrectCommission	2.789033	0.797870	0
391.081390	0.792270	city	2	1	0.596493	0.596493	0	1	0	0	CorrectCommission	0.121205	0.794250	0
391.873627	0.792253	mountain	10	1	0.497228	0.497228	0	0	1	0	CommissionError	1.288442	0.783384	0
392.665894	0.792244	city	7	1	0.595907	0.595907	0	1	0	0	CorrectCommission	0.128090	0.766040	0
393.458191	0.792355	city	1	1	0.546238	0.546238	0	1	0	0	CorrectCommission	0.712136	0.743550	0
394.250427	0.792150	city	7	1	0.557209	0.557209	0	1	0	0	CorrectCommission	0.583139	0.717488	0
395.042694	0.792350	city	9	1	0.549927	0.549927	0	1	0	0	CorrectCommission	0.668761	0.689612	0
395.834961	0.792203	city	10	1	0.561453	0.561453	0	1	0	0	CorrectCommission	0.533229	0.661712	1
396.627197	0.792286	city	6	1	0.645422	0.645422	0	1	0	0	CorrectCommission	0.454154	0.635548	1
397.419495	0.792282	city	8	1	0.546341	0.546341	0	1	0	0	CorrectCommission	0.710935	0.612774	1
398.211700	0.792131	city	4	1	0.548803	0.548803	0	1	0	0	CorrectCommission	0.681980	0.594867	1
399.003998	0.792435	city	7	1	0.546718	0.546718	0	1	0	0	CorrectCommission	0.706498	0.583133	1
399.796326	0.792252	city	8	1	0.564906	0.564906	0	1	0	0	CorrectCommission	0.492625	0.578627	1
400.588593	0.792251	city	1	1	0.645958	0.645958	0	1	0	0	CorrectCommission	0.460454	0.582097	1
401.380829	0.792264	city	10	1	0.662157	0.662157	0	1	0	0	CorrectCommission	0.650938	0.593845	1
402.173126	0.792298	city	9	1	0.611530	0.611530	0	1	0	0	CorrectCommission	0.055616	0.613659	1
402.965393	0.792230	city	6	1	0.606929	0.606929	0	1	0	0	CorrectCommission	0.001512	0.640787	1
403.757660	0.792328	city	9	1	0.596649	0.596649	0	1	0	0	CorrectCommission	0.119365	0.673849	0
404.549835	0.791998	city	3	1	0.546364	0.546364	0	1	0	0	CorrectCommission	0.710660	0.710958	0
405.342041	0.792455	city	1	1	0.645867	0.645867	0	1	0	0	CorrectCommission	0.459386	0.749784	0
406.134399	0.792256	city	5	1	0.695072	0.695072	0	1	0	0	CorrectCommission	1.037974	0.787828	0
406.926727	0.792354	city	3	1	0.744814	0.744814	0	1	0	0	CorrectCommission	1.622885	0.822548	0
407.719025	0.792248	city	5	1	0.744621	0.744621	0	1	0	0	CorrectCommission	1.620616	0.851575	0
408.511230	0.792190	city	6	1	0.744426	0.744426	0	1	0	0	CorrectCommission	1.618320	0.873048	0
409.303467	0.792260	mountain	3	0	0.000000	0.656269	1	0	0	0	CorrectOmission	0.581694	0.885579	0
410.095703	0.792237	city	1	1	0.563180	0.563180	0	1	0	0	CorrectCommission	0.512916	0.888436	0
410.888000	0.792326	city	6	1	0.548192	0.548192	0	1	0	0	CorrectCommission	0.689167	0.881416	0
411.680298	0.792294	city	5	1	0.497903	0.497903	0	1	0	0	CorrectCommission	1.280501	0.864841	0
412.472534	0.792182	city	3	1	0.514411	0.514411	0	1	0	0	CorrectCommission	1.086387	0.839481	0
413.264740	0.792252	city	8	1	0.546961	0.546961	0	1	0	0	CorrectCommission	0.703640	0.806534	0
414.057007	0.792279	city	3	1	0.546357	0.546357	0	1	0	0	CorrectCommission	0.710745	0.767488	0
414.849182	0.792065	city	4	1	0.503786	0.503786	0	1	0	0	CorrectCommission	1.211325	0.724062	0
415.641357	0.792296	city	2	1	0.497271	0.497271	0	1	0	0	CorrectCommission	1.287938	0.678095	0
416.433716	0.792419	city	9	1	0.561350	0.561350	0	1	0	0	CorrectCommission	0.534444	0.631501	1
417.226074	0.792274	city	6	1	0.614289	0.614289	0	1	0	0	CorrectCommission	0.088064	0.586134	1
418.018341	0.792284	city	3	1	0.557484	0.557484	0	1	0	0	CorrectCommission	0.579896	0.543692	1
418.810516	0.792073	city	1	1	0.596325	0.596325	0	1	0	0	CorrectCommission	0.123172	0.505563	1
419.602814	0.792517	city	4	1	0.614499	0.614499	0	1	0	0	CorrectCommission	0.090531	0.472821	1
420.395172	0.792191	city	10	1	0.613490	0.613490	0	1	0	0	CorrectCommission	0.078670	0.446182	1
421.187439	0.792357	city	6	1	0.596414	0.596414	0	1	0	0	CorrectCommission	0.122122	0.426008	1
421.979736	0.792184	city	5	1	0.546318	0.546318	0	1	0	0	CorrectCommission	0.711198	0.412351	1
422.771942	0.792261	city	7	1	0.645726	0.645726	0	1	0	0	CorrectCommission	0.457722	0.405047	1
423.564209	0.792285	city	2	1	0.652067	0.652067	0	1	0	0	CorrectCommission	0.532290	0.403880	1
424.356506	0.792286	city	7	1	0.645592	0.645592	0	1	0	0	CorrectCommission	0.456150	0.408628	1
425.148773	0.792234	city	8	1	0.646253	0.646253	0	1	0	0	CorrectCommission	0.463926	0.419146	1
425.941010	0.792230	city	4	1	0.645555	0.645555	0	1	0	0	CorrectCommission	0.455716	0.435362	1
426.733246	0.792295	city	1	1	0.606181	0.606181	0	1	0	0	CorrectCommission	0.007284	0.457254	1
427.525543	0.792260	city	10	1	0.596664	0.596664	0	1	0	0	CorrectCommission	0.119184	0.484784	1
428.317719	0.792097	city	8	1	0.546695	0.546695	0	1	0	0	CorrectCommission	0.706761	0.517783	1
429.109985	0.792421	city	9	1	0.603018	0.603018	0	1	0	0	CorrectCommission	0.044472	0.555849	1
429.902374	0.792382	city	3	1	0.546685	0.546685	0	1	0	0	CorrectCommission	0.706889	0.598393	1
430.694672	0.792222	city	9	1	0.556579	0.556579	0	1	0	0	CorrectCommission	0.590538	0.644568	1
431.486816	0.792035	mountain	8	1	0.513868	0.513868	0	0	1	0	CommissionError	1.092777	0.693403	0
432.278961	0.792255	city	6	1	0.610884	0.610884	0	1	0	0	CorrectCommission	0.048023	0.743752	0
433.071350	0.792543	city	2	1	0.547123	0.547123	0	1	0	0	CorrectCommission	0.701729	0.794515	0
433.863708	0.792197	city	10	1	0.512249	0.512249	0	1	0	0	CorrectCommission	1.111807	0.844672	0
434.655945	0.792246	city	1	1	0.546389	0.546389	0	1	0	0	CorrectCommission	0.710360	0.893490	0
435.448181	0.792263	city	8	1	0.447499	0.447499	0	1	0	0	CorrectCommission	1.873203	0.940581	0
436.240356	0.792035	city	7	1	0.447600	0.447600	0	1	0	0	CorrectCommission	1.872010	0.985937	0
437.032471	0.792217	city	4	1	0.503215	0.503215	0	1	0	0	CorrectCommission	1.218037	1.030011	0
437.824738	0.792317	city	2	1	0.596067	0.596067	0	1	0	0	CorrectCommission	0.126203	1.073699	0
438.617126	0.792475	city	5	1	0.596299	0.596299	0	1	0	0	CorrectCommission	0.123482	1.118210	0
439.409546	0.792360	city	4	1	0.547109	0.547109	0	1	0	0	CorrectCommission	0.701893	1.164933	0
440.201752	0.792063	city	7	1	0.496916	0.496916	0	1	0	0	CorrectCommission	1.292109	1.215357	0
440.994019	0.792442	city	10	1	0.447414	0.447414	0	1	0	0	CorrectCommission	1.874202	1.270918	0
441.786346	0.792231	city	5	1	0.447543	0.447543	0	1	0	0	CorrectCommission	1.872685	1.332834	0
442.578613	0.792322	city	3	1	0.447832	0.447832	0	1	0	0	CorrectCommission	1.869278	1.401907	0
443.370880	0.792210	city	2	1	0.461006	0.461006	0	1	0	0	CorrectCommission	1.714366	1.478264	0
444.163086	0.792208	city	6	1	0.546249	0.546249	0	1	0	0	CorrectCommission	0.712017	1.561164	0
444.955383	0.792349	city	8	1	0.596091	0.596091	0	1	0	0	CorrectCommission	0.125929	1.648860	0
445.747528	0.791947	city	3	1	0.546751	0.546751	0	1	0	0	CorrectCommission	0.706110	1.738505	0
446.539795	0.792601	city	5	1	0.401625	0.401625	0	1	0	0	CorrectCommission	2.412628	1.826301	0
447.332214	0.792211	city	1	1	0.447783	0.447783	0	1	0	0	CorrectCommission	1.869857	1.907794	0
448.124481	0.792322	city	10	1	0.452225	0.452225	0	1	0	0	CorrectCommission	1.817629	1.978537	0
448.916718	0.792191	city	3	1	0.404449	0.404449	0	1	0	0	CorrectCommission	2.379413	2.034431	0
449.708862	0.792073	city	6	1	0.298775	0.298775	0	1	0	0	CorrectCommission	3.622017	2.072402	0
450.501129	0.792439	city	10	1	0.308247	0.308247	0	1	0	0	CorrectCommission	3.510647	2.090846	0
451.293488	0.792307	city	8	1	0.299058	0.299058	0	1	0	0	CorrectCommission	3.618700	2.089981	0
452.085754	0.792209	city	3	1	0.350260	0.350260	0	1	0	0	CorrectCommission	3.016613	2.071783	0
452.877991	0.792255	city	2	1	0.354318	0.354318	0	1	0	0	CorrectCommission	2.968904	2.039685	0
453.670258	0.792281	city	6	1	0.516740	0.516740	0	1	0	0	CorrectCommission	1.059004	1.997988	0
454.462433	0.792074	mountain	7	0	0.000000	0.624628	1	0	0	0	CorrectOmission	0.209638	1.951290	0
455.254700	0.792466	city	9	1	0.645662	0.645662	0	1	0	0	CorrectCommission	0.456969	1.903706	0
456.047089	0.792344	city	8	1	0.547520	0.547520	0	1	0	0	CorrectCommission	0.697063	1.858272	0
456.839264	0.792007	city	9	1	0.456464	0.456464	0	1	0	0	CorrectCommission	1.767778	1.816618	0
457.631409	0.792243	city	10	1	0.400298	0.400298	0	1	0	0	CorrectCommission	2.428229	1.778862	0
458.423767	0.792469	city	1	1	0.398178	0.398178	0	1	0	0	CorrectCommission	2.453154	1.743858	0
459.216156	0.792316	city	5	1	0.410878	0.410878	0	1	0	0	CorrectCommission	2.303820	1.709643	0
460.008453	0.792320	city	7	1	0.448074	0.448074	0	1	0	0	CorrectCommission	1.866434	1.673870	0
460.800751	0.792242	city	9	1	0.497034	0.497034	0	1	0	0	CorrectCommission	1.290720	1.634357	0
461.592834	0.791914	city	6	1	0.503331	0.503331	0	1	0	0	CorrectCommission	1.216676	1.589542	0
462.385040	0.792512	city	8	1	0.447531	0.447531	0	1	0	0	CorrectCommission	1.872818	1.538715	0
463.177429	0.792284	city	4	1	0.942986	0.942986	0	1	0	0	CorrectCommission	3.953157	1.482114	0
463.969757	0.792371	city	5	1	0.745012	0.745012	0	1	0	0	CorrectCommission	1.625220	1.420773	0
464.762024	0.792137	mountain	5	1	0.600114	0.600114	0	0	1	0	CommissionError	0.078621	1.356563	0
465.554108	0.792016	city	4	1	0.596257	0.596257	0	1	0	0	CorrectCommission	0.123975	1.291649	0
466.346375	0.792526	city	1	1	0.512310	0.512310	0	1	0	0	CorrectCommission	1.111099	1.228153	0
467.138672	0.792079	city	5	1	0.510383	0.510383	0	1	0	0	CorrectCommission	1.133749	1.167841	0
467.930939	0.792472	city	1	1	0.497265	0.497265	0	1	0	0	CorrectCommission	1.288003	1.111975	0
468.723328	0.792271	city	9	1	0.564225	0.564225	0	1	0	0	CorrectCommission	0.500635	1.061200	0
469.515564	0.792197	city	2	1	0.546500	0.546500	0	1	0	0	CorrectCommission	0.709057	1.015632	0
470.307709	0.792104	mountain	7	1	0.497138	0.497138	0	0	1	0	CommissionError	1.289499	0.974903	0
471.099976	0.792467	city	2	1	0.462969	0.462969	0	1	0	0	CorrectCommission	1.691286	0.938400	0
471.892395	0.792321	city	7	1	0.502332	0.502332	0	1	0	0	CorrectCommission	1.228421	0.905470	0
472.684570	0.792040	city	3	1	0.645857	0.645857	0	1	0	0	CorrectCommission	0.459264	0.875590	0
473.476837	0.792490	mountain	1	1	0.595966	0.595966	0	0	1	0	CommissionError	0.127391	0.848477	0
474.269196	0.792236	city	8	1	0.499446	0.499446	0	1	0	0	CorrectCommission	1.262366	0.824145	0
475.061432	0.792223	city	6	1	0.565468	0.565468	0	1	0	0	CorrectCommission	0.486023	0.802918	0
475.853668	0.792252	city	4	1	0.556023	0.556023	0	1	0	0	CorrectCommission	0.597083	0.785570	0
476.645935	0.792288	city	7	1	0.509099	0.509099	0	1	0	0	CorrectCommission	1.148854	0.773199	0
477.438263	0.792373	city	3	1	0.546722	0.546722	0	1	0	0	CorrectCommission	0.706445	0.767249	0
478.230499	0.792141	mountain	2	0	0.000000	0.552964	1	0	0	0	CorrectOmission	0.633050	0.769499	0
479.022705	0.792269	city	4	1	0.546598	0.546598	0	1	0	0	CorrectCommission	0.707909	0.781889	0
479.815033	0.792375	city	3	1	0.546398	0.546398	0	1	0	0	CorrectCommission	0.710262	0.806425	0
480.607330	0.792231	city	10	1	0.595826	0.595826	0	1	0	0	CorrectCommission	0.129041	0.844946	0
481.399567	0.792226	city	8	1	0.546762	0.546762	0	1	0	0	CorrectCommission	0.705978	0.899049	0
482.191711	0.792053	city	1	1	0.497518	0.497518	0	1	0	0	CorrectCommission	1.285029	0.969780	0
482.983978	0.792508	city	10	1	0.649756	0.649756	0	1	0	0	CorrectCommission	0.505109	1.057458	0
483.776245	0.792024	city	3	1	0.645857	0.645857	0	1	0	0	CorrectCommission	0.459259	1.161523	0
484.568512	0.792490	city	1	1	0.650204	0.650204	0	1	0	0	CorrectCommission	0.510379	1.280372	0
485.360931	0.792337	city	8	1	0.694889	0.694889	0	1	0	0	CorrectCommission	1.035830	1.411420	0
486.153168	0.792155	city	5	1	0.695232	0.695232	0	1	0	0	CorrectCommission	1.039854	1.551181	0
486.945404	0.792311	city	3	1	0.750989	0.750989	0	1	0	0	CorrectCommission	1.695498	1.695498	0
