onset	duration	trial_type	image_type	Press	ReactionTime	ReactionTime_Interpolated	CorrectOmission	CorrectCommission	CommissionError	OmissionError	response_type	nonsmoothVarianceTimeCourse	VarianceTimeCourse	In_the_Zone
8.421664	0.795778	city	3	1	1.047239	1.047239	0	1	0	0	CorrectCommission	2.244916	2.244916	0
9.217480	0.795853	city	5	1	0.602977	0.602977	0	1	0	0	CorrectCommission	1.787083	2.098189	0
10.013268	0.795726	city	7	1	0.400655	0.400655	0	1	0	0	CorrectCommission	3.623299	1.950963	0
10.809039	0.795815	city	4	1	0.499753	0.499753	0	1	0	0	CorrectCommission	2.723911	1.803051	0
11.604851	0.795808	city	9	1	0.997034	0.997034	0	1	0	0	CorrectCommission	1.789270	1.655084	0
12.400664	0.795819	city	6	1	0.556138	0.556138	0	1	0	0	CorrectCommission	2.212179	1.508470	0
13.196495	0.795842	city	9	1	0.698474	0.698474	0	1	0	0	CorrectCommission	0.920376	1.365395	0
13.992290	0.795748	city	7	1	0.698378	0.698378	0	1	0	0	CorrectCommission	0.921246	1.228642	0
14.788083	0.795839	city	6	1	0.798529	0.798529	0	1	0	0	CorrectCommission	0.012303	1.101162	0
15.583908	0.795809	city	8	1	0.757180	0.757180	0	1	0	0	CorrectCommission	0.387574	0.985751	0
16.379709	0.795795	city	10	1	0.797829	0.797829	0	1	0	0	CorrectCommission	0.018655	0.884584	0
17.175468	0.795723	mountain	5	0	0.000000	0.827520	1	0	0	0	CorrectOmission	0.250804	0.799045	0
17.971252	0.795845	city	10	1	0.798577	0.798577	0	1	0	0	CorrectCommission	0.011866	0.729584	1
18.767092	0.795833	city	8	1	0.663330	0.663330	0	1	0	0	CorrectCommission	1.239333	0.675749	1
19.562922	0.795824	mountain	2	0	0.000000	0.664481	1	0	0	0	CorrectOmission	1.228889	0.636254	1
20.358702	0.795737	city	5	1	0.757614	0.757614	0	1	0	0	CorrectCommission	0.383635	0.609333	1
21.154503	0.795865	city	6	1	0.898316	0.898316	0	1	0	0	CorrectCommission	0.893330	0.592895	1
21.950331	0.795790	city	9	1	0.797787	0.797787	0	1	0	0	CorrectCommission	0.019039	0.584778	1
22.746109	0.795766	city	3	1	0.708510	0.708510	0	1	0	0	CorrectCommission	0.829289	0.582930	1
23.541874	0.795766	city	9	1	0.808183	0.808183	0	1	0	0	CorrectCommission	0.075315	0.585461	1
24.337683	0.795851	city	10	1	0.798539	0.798539	0	1	0	0	CorrectCommission	0.012216	0.590833	1
25.133474	0.795733	city	3	1	0.858191	0.858191	0	1	0	0	CorrectCommission	0.529167	0.597797	1
25.929247	0.795810	city	9	1	0.907180	0.907180	0	1	0	0	CorrectCommission	0.973779	0.605368	1
26.725096	0.795889	city	5	1	0.649011	0.649011	0	1	0	0	CorrectCommission	1.369291	0.612925	1
27.520897	0.795712	city	4	1	0.748728	0.748728	0	1	0	0	CorrectCommission	0.464287	0.620096	1
28.316669	0.795833	city	1	1	0.699500	0.699500	0	1	0	0	CorrectCommission	0.911066	0.626881	1
29.112463	0.795756	city	6	1	0.900827	0.900827	0	1	0	0	CorrectCommission	0.916119	0.633415	1
29.908293	0.795902	city	8	1	0.748181	0.748181	0	1	0	0	CorrectCommission	0.469250	0.639943	1
30.704145	0.795805	city	1	1	0.798819	0.798819	0	1	0	0	CorrectCommission	0.009671	0.646785	1
31.499928	0.795757	city	6	1	0.847762	0.847762	0	1	0	0	CorrectCommission	0.434516	0.654193	1
32.295723	0.795835	city	3	1	0.799138	0.799138	0	1	0	0	CorrectCommission	0.006780	0.662323	1
33.091534	0.795785	city	4	1	0.947778	0.947778	0	1	0	0	CorrectCommission	1.342237	0.671227	1
33.887344	0.795837	city	8	1	0.897928	0.897928	0	1	0	0	CorrectCommission	0.889812	0.680737	1
34.683132	0.795741	mountain	4	0	0.000000	0.906121	1	0	0	0	CorrectOmission	0.964164	0.690686	1
35.478889	0.795773	city	2	1	0.897842	0.897842	0	1	0	0	CorrectCommission	0.889029	0.700865	1
36.274700	0.795850	mountain	1	0	0.000000	0.798578	1	0	0	0	CorrectOmission	0.011857	0.711056	1
37.070545	0.795843	city	4	1	0.703518	0.703518	0	1	0	0	CorrectCommission	0.874601	0.721120	1
37.866360	0.795782	city	1	1	0.707847	0.707847	0	1	0	0	CorrectCommission	0.835310	0.730960	1
38.662140	0.795781	mountain	3	0	0.000000	0.695919	1	0	0	0	CorrectOmission	0.943563	0.740561	1
39.457939	0.795815	city	1	1	0.762604	0.762604	0	1	0	0	CorrectCommission	0.338349	0.749980	1
40.253738	0.795788	city	3	1	1.002772	1.002772	0	1	0	0	CorrectCommission	1.841343	0.759278	1
41.049686	0.796109	city	10	1	0.812444	0.812444	0	1	0	0	CorrectCommission	0.113980	0.768447	1
41.845493	0.795505	city	8	1	0.797711	0.797711	0	1	0	0	CorrectCommission	0.019734	0.777550	1
42.641148	0.795798	city	10	1	0.765040	0.765040	0	1	0	0	CorrectCommission	0.316241	0.786523	0
43.436928	0.795766	city	2	1	1.047529	1.047529	0	1	0	0	CorrectCommission	2.247543	0.795225	0
44.232723	0.795819	city	4	1	0.897842	0.897842	0	1	0	0	CorrectCommission	0.889032	0.803463	0
45.028507	0.795751	city	3	1	0.752927	0.752927	0	1	0	0	CorrectCommission	0.426178	0.811265	0
45.824287	0.795806	city	9	1	0.850048	0.850048	0	1	0	0	CorrectCommission	0.455264	0.818735	0
46.620094	0.795811	city	3	1	0.749147	0.749147	0	1	0	0	CorrectCommission	0.460479	0.826177	0
47.415894	0.795788	city	1	1	0.956568	0.956568	0	1	0	0	CorrectCommission	1.422008	0.834163	0
48.211720	0.795862	city	6	1	0.997134	0.997134	0	1	0	0	CorrectCommission	1.790173	0.843410	0
49.007545	0.795795	city	8	1	0.809152	0.809152	0	1	0	0	CorrectCommission	0.084108	0.854755	0
49.803349	0.795811	city	2	1	0.698698	0.698698	0	1	0	0	CorrectCommission	0.918347	0.869115	0
50.599178	0.795845	city	7	1	0.901125	0.901125	0	1	0	0	CorrectCommission	0.918821	0.887144	0
51.394955	0.795708	city	8	1	0.698934	0.698934	0	1	0	0	CorrectCommission	0.916201	0.909266	0
52.190750	0.795884	city	2	1	0.748318	0.748318	0	1	0	0	CorrectCommission	0.468003	0.935425	0
52.986584	0.795780	city	1	1	0.750852	0.750852	0	1	0	0	CorrectCommission	0.445009	0.965073	0
53.782387	0.795828	city	8	1	0.854386	0.854386	0	1	0	0	CorrectCommission	0.494638	0.997186	0
54.578201	0.795806	mountain	8	0	0.000000	0.876807	1	0	0	0	CorrectOmission	0.698125	1.030317	0
55.373951	0.795692	city	8	1	0.897817	0.897817	0	1	0	0	CorrectCommission	0.888803	1.062817	0
56.169727	0.795860	city	3	1	0.997117	0.997117	0	1	0	0	CorrectCommission	1.790020	1.093063	0
56.965576	0.795837	mountain	8	0	0.000000	1.062530	1	0	0	0	CorrectOmission	2.383692	1.119725	0
57.761532	0.796072	city	4	1	1.047042	1.047042	0	1	0	0	CorrectCommission	2.243122	1.141793	0
58.557339	0.795543	city	6	1	0.903636	0.903636	0	1	0	0	CorrectCommission	0.941613	1.158830	0
59.352993	0.795763	city	8	1	0.698479	0.698479	0	1	0	0	CorrectCommission	0.920335	1.170881	0
60.148781	0.795814	city	2	1	0.705866	0.705866	0	1	0	0	CorrectCommission	0.853284	1.178310	0
60.944553	0.795732	mountain	8	0	0.000000	0.778222	1	0	0	0	CorrectOmission	0.196606	1.181592	0
61.740349	0.795864	city	8	1	0.897867	0.897867	0	1	0	0	CorrectCommission	0.889257	1.181228	0
62.536182	0.795804	city	7	1	1.047123	1.047123	0	1	0	0	CorrectCommission	2.243863	1.177525	0
63.331993	0.795816	city	9	1	0.665036	0.665036	0	1	0	0	CorrectCommission	1.223854	1.170564	0
64.127769	0.795741	city	1	1	0.699355	0.699355	0	1	0	0	CorrectCommission	0.912384	1.160238	0
64.923576	0.795876	city	9	1	0.848647	0.848647	0	1	0	0	CorrectCommission	0.442553	1.146298	0
65.719414	0.795797	city	5	1	0.648474	0.648474	0	1	0	0	CorrectCommission	1.374164	1.128480	0
66.515198	0.795761	city	6	1	1.097029	1.097029	0	1	0	0	CorrectCommission	2.696790	1.106681	0
67.311134	0.796115	city	3	1	0.649969	0.649969	0	1	0	0	CorrectCommission	1.360596	1.081054	0
68.106941	0.795505	city	6	1	0.709315	0.709315	0	1	0	0	CorrectCommission	0.821982	1.052180	0
68.902596	0.795802	city	5	1	0.699971	0.699971	0	1	0	0	CorrectCommission	0.906789	1.021003	0
69.698410	0.795827	city	8	1	0.848526	0.848526	0	1	0	0	CorrectCommission	0.441449	0.988693	0
70.494225	0.795796	city	5	1	0.847495	0.847495	0	1	0	0	CorrectCommission	0.432094	0.956632	0
71.290009	0.795773	city	2	1	0.897317	0.897317	0	1	0	0	CorrectCommission	0.884265	0.926185	0
72.085945	0.796107	city	9	1	1.046452	1.046452	0	1	0	0	CorrectCommission	2.237771	0.898542	0
72.881729	0.795458	city	8	1	0.848535	0.848535	0	1	0	0	CorrectCommission	0.441530	0.874587	0
73.677353	0.795793	city	10	1	0.752699	0.752699	0	1	0	0	CorrectCommission	0.428244	0.854913	0
74.473175	0.795840	city	9	1	0.805440	0.805440	0	1	0	0	CorrectCommission	0.050418	0.839588	0
75.268974	0.795758	city	5	1	0.713297	0.713297	0	1	0	0	CorrectCommission	0.785846	0.828290	0
76.064751	0.795806	city	8	1	0.897989	0.897989	0	1	0	0	CorrectCommission	0.890364	0.820333	0
76.860558	0.795801	city	1	1	0.847918	0.847918	0	1	0	0	CorrectCommission	0.435936	0.814859	0
77.656364	0.795809	city	10	1	0.897424	0.897424	0	1	0	0	CorrectCommission	0.885233	0.810944	0
78.452202	0.795875	city	6	1	1.047145	1.047145	0	1	0	0	CorrectCommission	2.244060	0.807767	0
79.248024	0.795769	city	5	1	0.748459	0.748459	0	1	0	0	CorrectCommission	0.466728	0.804689	0
80.043793	0.795764	city	10	1	0.698736	0.698736	0	1	0	0	CorrectCommission	0.917999	0.801369	0
80.839607	0.795872	city	4	1	0.863121	0.863121	0	1	0	0	CorrectCommission	0.573916	0.797684	0
81.635445	0.795793	city	3	1	0.763776	0.763776	0	1	0	0	CorrectCommission	0.327713	0.793774	0
82.431198	0.795724	city	6	1	0.909543	0.909543	0	1	0	0	CorrectCommission	0.995222	0.789863	0
83.226997	0.795878	city	3	1	0.848520	0.848520	0	1	0	0	CorrectCommission	0.441394	0.786185	0
84.022987	0.796089	city	4	1	0.997806	0.997806	0	1	0	0	CorrectCommission	1.796277	0.782892	0
84.818748	0.795436	city	8	1	0.797822	0.797822	0	1	0	0	CorrectCommission	0.018725	0.780001	0
85.614357	0.795788	city	7	1	0.862099	0.862099	0	1	0	0	CorrectCommission	0.564641	0.777522	1
86.410233	0.795965	city	8	1	0.847658	0.847658	0	1	0	0	CorrectCommission	0.433573	0.775233	1
87.206039	0.795643	city	7	1	0.748357	0.748357	0	1	0	0	CorrectCommission	0.467654	0.772901	1
88.001793	0.795864	city	9	1	0.948121	0.948121	0	1	0	0	CorrectCommission	1.345348	0.770351	1
88.797630	0.795813	mountain	10	1	0.999365	0.999365	0	0	1	0	CommissionError	1.810426	0.767489	1
89.593567	0.796060	city	1	1	0.900121	0.900121	0	1	0	0	CorrectCommission	0.909717	0.764342	1
90.389336	0.795475	city	2	1	0.706989	0.706989	0	1	0	0	CorrectCommission	0.843100	0.761188	1
91.184990	0.795827	city	7	1	0.799258	0.799258	0	1	0	0	CorrectCommission	0.005686	0.758396	1
91.980827	0.795857	city	10	1	0.848743	0.848743	0	1	0	0	CorrectCommission	0.443426	0.756391	1
92.776657	0.795798	mountain	2	0	0.000000	0.798740	1	0	0	0	CorrectOmission	0.010394	0.755480	1
93.572464	0.795812	city	9	1	0.698905	0.698905	0	1	0	0	CorrectCommission	0.916464	0.755832	1
94.368271	0.795806	city	8	1	0.598898	0.598898	0	1	0	0	CorrectCommission	1.824099	0.757361	1
95.164040	0.795727	city	9	1	0.847726	0.847726	0	1	0	0	CorrectCommission	0.434192	0.759754	1
95.959976	0.796153	city	10	1	0.749698	0.749698	0	1	0	0	CorrectCommission	0.455478	0.762459	1
96.755791	0.795474	city	9	1	0.947702	0.947702	0	1	0	0	CorrectCommission	1.341544	0.764731	1
97.551430	0.795805	city	8	1	0.798062	0.798062	0	1	0	0	CorrectCommission	0.016545	0.765635	1
98.347221	0.795774	city	4	1	0.898185	0.898185	0	1	0	0	CorrectCommission	0.892140	0.764261	1
99.143005	0.795790	city	7	1	0.848299	0.848299	0	1	0	0	CorrectCommission	0.439390	0.759693	1
99.938835	0.795882	city	8	1	0.947434	0.947434	0	1	0	0	CorrectCommission	1.339111	0.751146	1
100.734680	0.795798	city	7	1	0.997807	0.997807	0	1	0	0	CorrectCommission	1.796283	0.738065	1
101.530487	0.795816	city	5	1	0.859834	0.859834	0	1	0	0	CorrectCommission	0.544082	0.720129	1
102.326256	0.795725	city	2	1	0.798486	0.798486	0	1	0	0	CorrectCommission	0.012698	0.697450	1
103.122032	0.795821	city	1	1	0.699885	0.699885	0	1	0	0	CorrectCommission	0.907568	0.670462	1
103.917862	0.795843	city	4	1	0.898374	0.898374	0	1	0	0	CorrectCommission	0.893863	0.639849	1
104.713684	0.795813	mountain	2	0	0.000000	0.871933	1	0	0	0	CorrectOmission	0.653885	0.606665	1
105.509445	0.795701	city	4	1	0.759177	0.759177	0	1	0	0	CorrectCommission	0.369454	0.572192	1
106.305244	0.795895	city	6	1	0.698724	0.698724	0	1	0	0	CorrectCommission	0.918106	0.537910	1
107.101074	0.795764	city	4	1	0.759999	0.759999	0	1	0	0	CorrectCommission	0.361991	0.505406	1
107.896843	0.795772	city	1	1	0.748474	0.748474	0	1	0	0	CorrectCommission	0.466591	0.476332	1
108.692635	0.795823	city	5	1	0.809547	0.809547	0	1	0	0	CorrectCommission	0.087691	0.452331	1
109.488480	0.795868	city	2	1	0.799159	0.799159	0	1	0	0	CorrectCommission	0.006588	0.434868	1
110.284294	0.795758	city	9	1	0.907680	0.907680	0	1	0	0	CorrectCommission	0.978321	0.425151	1
111.080093	0.795829	city	4	1	0.812205	0.812205	0	1	0	0	CorrectCommission	0.111812	0.424000	1
111.875885	0.795759	city	1	1	0.798018	0.798018	0	1	0	0	CorrectCommission	0.016948	0.431834	1
112.671692	0.795860	city	9	1	0.798133	0.798133	0	1	0	0	CorrectCommission	0.015896	0.448581	1
113.467468	0.795693	city	10	1	0.799089	0.799089	0	1	0	0	CorrectCommission	0.007228	0.473624	1
114.263245	0.795852	city	9	1	0.901224	0.901224	0	1	0	0	CorrectCommission	0.919728	0.505819	1
115.059090	0.795848	mountain	1	0	0.000000	0.810904	1	0	0	0	CorrectOmission	0.100003	0.543560	1
115.854919	0.795803	city	7	1	0.699594	0.699594	0	1	0	0	CorrectCommission	0.910210	0.584936	1
116.650681	0.795722	mountain	5	0	0.000000	0.738764	1	0	0	0	CorrectOmission	0.554717	0.627765	1
117.446457	0.795839	city	6	1	0.848048	0.848048	0	1	0	0	CorrectCommission	0.437118	0.669851	1
118.242256	0.795748	city	3	1	0.947084	0.947084	0	1	0	0	CorrectCommission	1.335935	0.709065	1
119.038063	0.795866	city	8	1	0.760577	0.760577	0	1	0	0	CorrectCommission	0.356748	0.743533	1
119.833908	0.795833	city	3	1	0.652412	0.652412	0	1	0	0	CorrectCommission	1.338420	0.771869	1
120.629707	0.795766	city	8	1	0.698525	0.698525	0	1	0	0	CorrectCommission	0.919912	0.793081	0
121.425491	0.795800	city	2	1	0.652959	0.652959	0	1	0	0	CorrectCommission	1.333458	0.806740	0
122.221298	0.795813	city	1	1	0.712078	0.712078	0	1	0	0	CorrectCommission	0.796910	0.812918	0
123.017097	0.795780	city	9	1	0.847818	0.847818	0	1	0	0	CorrectCommission	0.435027	0.812202	0
123.812897	0.795827	city	5	1	0.599930	0.599930	0	1	0	0	CorrectCommission	1.814735	0.805519	0
124.608856	0.796090	city	2	1	0.704102	0.704102	0	1	0	0	CorrectCommission	0.869299	0.793954	0
125.404671	0.795540	city	1	1	0.797741	0.797741	0	1	0	0	CorrectCommission	0.019455	0.778761	1
126.200333	0.795778	city	2	1	0.748364	0.748364	0	1	0	0	CorrectCommission	0.467586	0.761127	1
126.996094	0.795742	city	3	1	0.897798	0.897798	0	1	0	0	CorrectCommission	0.888633	0.742050	1
127.792038	0.796150	city	7	1	0.909716	0.909716	0	1	0	0	CorrectCommission	0.996797	0.722274	1
128.588013	0.795808	city	2	1	0.848216	0.848216	0	1	0	0	CorrectCommission	0.438638	0.702350	1
129.383652	0.795469	city	8	1	0.897024	0.897024	0	1	0	0	CorrectCommission	0.881606	0.682641	1
130.179276	0.795791	city	7	1	0.848337	0.848337	0	1	0	0	CorrectCommission	0.439735	0.663343	1
130.975098	0.795835	city	5	1	0.897542	0.897542	0	1	0	0	CorrectCommission	0.886309	0.644581	1
131.770935	0.795828	city	6	1	0.851955	0.851955	0	1	0	0	CorrectCommission	0.472570	0.626466	1
132.566711	0.795729	city	9	1	0.897833	0.897833	0	1	0	0	CorrectCommission	0.888945	0.609252	1
133.362473	0.795790	city	4	1	0.847587	0.847587	0	1	0	0	CorrectCommission	0.432927	0.593250	1
134.158264	0.795822	city	1	1	0.759590	0.759590	0	1	0	0	CorrectCommission	0.365706	0.578970	1
134.954117	0.795861	city	10	1	0.897901	0.897901	0	1	0	0	CorrectCommission	0.889561	0.567029	1
135.749908	0.795744	city	3	1	0.897379	0.897379	0	1	0	0	CorrectCommission	0.884829	0.558096	1
136.545837	0.796115	city	10	1	0.797755	0.797755	0	1	0	0	CorrectCommission	0.019330	0.552882	1
137.341644	0.795488	city	5	1	0.797860	0.797860	0	1	0	0	CorrectCommission	0.018375	0.552073	1
138.137466	0.796150	city	10	1	0.847638	0.847638	0	1	0	0	CorrectCommission	0.433391	0.556166	1
138.933258	0.795432	city	5	1	0.898015	0.898015	0	1	0	0	CorrectCommission	0.890603	0.565458	1
139.728882	0.795823	city	2	1	0.765434	0.765434	0	1	0	0	CorrectCommission	0.312664	0.579979	1
140.524719	0.795839	mountain	4	0	0.000000	0.718685	1	0	0	0	CorrectOmission	0.736944	0.599529	1
141.320511	0.795761	city	2	1	0.749163	0.749163	0	1	0	0	CorrectCommission	0.460334	0.623495	1
142.116302	0.795819	city	3	1	0.848263	0.848263	0	1	0	0	CorrectCommission	0.439068	0.651013	1
142.912140	0.795836	city	1	1	0.749471	0.749471	0	1	0	0	CorrectCommission	0.457544	0.680978	1
143.707947	0.795808	mountain	1	0	0.000000	0.716339	1	0	0	0	CorrectOmission	0.758237	0.712028	1
144.503754	0.795800	city	7	1	0.699379	0.699379	0	1	0	0	CorrectCommission	0.912161	0.742601	1
145.299698	0.796071	city	10	1	0.649102	0.649102	0	1	0	0	CorrectCommission	1.368466	0.771152	1
146.095642	0.795819	city	6	1	0.797748	0.797748	0	1	0	0	CorrectCommission	0.019395	0.796217	0
146.891312	0.795526	city	8	1	0.897742	0.897742	0	1	0	0	CorrectCommission	0.888124	0.816626	0
147.687119	0.796080	city	3	1	0.947951	0.947951	0	1	0	0	CorrectCommission	1.343801	0.831518	0
148.483063	0.795806	city	4	1	0.897767	0.897767	0	1	0	0	CorrectCommission	0.888350	0.840571	0
149.278702	0.795484	city	8	1	0.947522	0.947522	0	1	0	0	CorrectCommission	1.339915	0.844142	0
150.074371	0.795841	city	5	1	0.897685	0.897685	0	1	0	0	CorrectCommission	0.887609	0.843161	0
150.870178	0.795772	city	6	1	0.958889	0.958889	0	1	0	0	CorrectCommission	1.443078	0.839246	0
151.665970	0.795826	city	10	1	0.848050	0.848050	0	1	0	0	CorrectCommission	0.437130	0.834474	0
152.461777	0.795788	city	6	1	0.948662	0.948662	0	1	0	0	CorrectCommission	1.350255	0.831207	0
153.257553	0.795768	city	1	1	0.798798	0.798798	0	1	0	0	CorrectCommission	0.009863	0.831762	0
154.053345	0.795818	city	8	1	0.714626	0.714626	0	1	0	0	CorrectCommission	0.773781	0.838275	0
154.849152	0.795785	city	2	1	0.848604	0.848604	0	1	0	0	CorrectCommission	0.442164	0.852227	0
155.644974	0.795860	city	1	1	0.864562	0.864562	0	1	0	0	CorrectCommission	0.586990	0.874313	0
156.440765	0.795738	city	3	1	0.798343	0.798343	0	1	0	0	CorrectCommission	0.013991	0.904211	0
157.236542	0.795806	city	10	1	0.849039	0.849039	0	1	0	0	CorrectCommission	0.446104	0.940667	0
158.032318	0.795756	mountain	10	1	0.997523	0.997523	0	0	1	0	CommissionError	1.793708	0.981464	0
158.828140	0.795883	city	9	1	0.949375	0.949375	0	1	0	0	CorrectCommission	1.356733	1.023605	0
159.623947	0.795737	city	2	1	0.798226	0.798226	0	1	0	0	CorrectCommission	0.015053	1.063740	0
160.419891	0.796151	city	9	1	0.996775	0.996775	0	1	0	0	CorrectCommission	1.786913	1.098472	0
161.215744	0.795536	city	5	1	0.599927	0.599927	0	1	0	0	CorrectCommission	1.814757	1.124608	0
162.011536	0.796041	city	9	1	1.009223	1.009223	0	1	0	0	CorrectCommission	1.899893	1.139634	0
162.807297	0.795506	city	6	1	0.698385	0.698385	0	1	0	0	CorrectCommission	0.921180	1.141949	0
163.602966	0.795818	city	9	1	0.649294	0.649294	0	1	0	0	CorrectCommission	1.366723	1.131055	0
164.398804	0.795850	city	7	1	0.599105	0.599105	0	1	0	0	CorrectCommission	1.822216	1.107513	0
165.194611	0.795763	city	1	1	0.699328	0.699328	0	1	0	0	CorrectCommission	0.912622	1.072897	0
165.990356	0.795736	city	9	1	0.996693	0.996693	0	1	0	0	CorrectCommission	1.786169	1.029778	0
166.786118	0.795799	city	5	1	0.604081	0.604081	0	1	0	0	CorrectCommission	1.777059	0.981147	0
167.581970	0.795899	city	9	1	0.814642	0.814642	0	1	0	0	CorrectCommission	0.133931	0.930336	0
168.377777	0.795720	city	2	1	0.812520	0.812520	0	1	0	0	CorrectCommission	0.114672	0.880687	0
169.173538	0.795812	city	6	1	0.847819	0.847819	0	1	0	0	CorrectCommission	0.435040	0.835136	0
169.969360	0.795823	city	5	1	0.754973	0.754973	0	1	0	0	CorrectCommission	0.407607	0.795968	0
170.765182	0.795811	city	6	1	0.847859	0.847859	0	1	0	0	CorrectCommission	0.435401	0.764826	1
171.560974	0.795782	city	4	1	0.800435	0.800435	0	1	0	0	CorrectCommission	0.004991	0.742605	1
172.356781	0.795834	city	5	1	0.666631	0.666631	0	1	0	0	CorrectCommission	1.209375	0.729536	1
173.152756	0.796105	city	1	1	0.599428	0.599428	0	1	0	0	CorrectCommission	1.819289	0.725261	1
173.948547	0.795469	city	7	1	0.847167	0.847167	0	1	0	0	CorrectCommission	0.429120	0.729014	1
174.744202	0.795848	city	5	1	0.748042	0.748042	0	1	0	0	CorrectCommission	0.470509	0.739822	1
175.539978	0.795721	city	2	1	0.798459	0.798459	0	1	0	0	CorrectCommission	0.012943	0.756395	1
176.335770	0.795849	city	4	1	0.897340	0.897340	0	1	0	0	CorrectCommission	0.884472	0.777320	1
177.131577	0.795759	city	7	1	0.757082	0.757082	0	1	0	0	CorrectCommission	0.388467	0.801054	0
177.927399	0.795900	city	3	1	0.613377	0.613377	0	1	0	0	CorrectCommission	1.692688	0.825959	0
178.723236	0.795760	city	6	1	0.755605	0.755605	0	1	0	0	CorrectCommission	0.401873	0.850271	0
179.518997	0.795781	mountain	4	0	0.000000	0.722293	1	0	0	0	CorrectOmission	0.704206	0.872319	0
180.314774	0.795754	mountain	10	1	0.755416	0.755416	0	0	1	0	CommissionError	0.403586	0.890477	0
181.110580	0.795853	city	3	1	1.096952	1.096952	0	1	0	0	CorrectCommission	2.696090	0.903331	0
181.906403	0.795791	city	7	1	0.801874	0.801874	0	1	0	0	CorrectCommission	0.018049	0.909681	0
182.702179	0.795769	city	1	1	0.748033	0.748033	0	1	0	0	CorrectCommission	0.470593	0.908948	0
183.497986	0.795864	city	5	1	0.549704	0.549704	0	1	0	0	CorrectCommission	2.270569	0.901010	0
184.293808	0.795757	mountain	1	0	0.000000	0.600663	1	0	0	0	CorrectOmission	1.808077	0.886211	0
185.089600	0.795847	city	8	1	0.754650	0.754650	0	1	0	0	CorrectCommission	0.410536	0.865613	0
185.885422	0.795779	mountain	3	0	0.000000	0.865404	1	0	0	0	CorrectOmission	0.594635	0.840743	0
186.681198	0.795792	city	8	1	0.897506	0.897506	0	1	0	0	CorrectCommission	0.885981	0.813479	0
187.477005	0.795813	city	6	1	0.815536	0.815536	0	1	0	0	CorrectCommission	0.142045	0.785910	0
188.272781	0.795746	city	9	1	0.699385	0.699385	0	1	0	0	CorrectCommission	0.912110	0.760188	1
189.068588	0.795870	city	3	1	0.848696	0.848696	0	1	0	0	CorrectCommission	0.442996	0.738306	1
189.864426	0.795801	city	2	1	0.915809	0.915809	0	1	0	0	CorrectCommission	1.052091	0.721968	1
190.660217	0.795760	city	1	1	0.847779	0.847779	0	1	0	0	CorrectCommission	0.434674	0.712399	1
191.456161	0.796147	city	6	1	0.856819	0.856819	0	1	0	0	CorrectCommission	0.516716	0.710356	1
192.251999	0.795522	mountain	5	0	0.000000	0.862565	1	0	0	0	CorrectOmission	0.568862	0.715953	1
193.047623	0.795717	city	6	1	0.862340	0.862340	0	1	0	0	CorrectCommission	0.566822	0.728701	1
193.843430	0.795907	city	2	1	0.853468	0.853468	0	1	0	0	CorrectCommission	0.486303	0.747443	1
194.639252	0.795741	city	3	1	0.899210	0.899210	0	1	0	0	CorrectCommission	0.901443	0.770501	1
195.435181	0.796105	city	8	1	0.848184	0.848184	0	1	0	0	CorrectCommission	0.438348	0.795717	0
196.231003	0.795549	city	7	1	0.848059	0.848059	0	1	0	0	CorrectCommission	0.437212	0.820783	0
197.026688	0.795814	city	1	1	0.709753	0.709753	0	1	0	0	CorrectCommission	0.818008	0.843377	0
197.822433	0.795696	city	10	1	0.847881	0.847881	0	1	0	0	CorrectCommission	0.435598	0.861500	0
198.618240	0.795901	city	2	1	1.097289	1.097289	0	1	0	0	CorrectCommission	2.699154	0.873617	0
199.414078	0.795784	city	9	1	0.650106	0.650106	0	1	0	0	CorrectCommission	1.359352	0.878857	0
200.209869	0.795802	city	8	1	0.599196	0.599196	0	1	0	0	CorrectCommission	1.821391	0.877306	0
201.005676	0.795796	city	4	1	0.798584	0.798584	0	1	0	0	CorrectCommission	0.011808	0.869690	0
201.801437	0.795726	city	9	1	0.907136	0.907136	0	1	0	0	CorrectCommission	0.973380	0.857451	0
202.597244	0.795881	city	4	1	0.914822	0.914822	0	1	0	0	CorrectCommission	1.043135	0.842419	0
203.393219	0.796084	city	3	1	0.748081	0.748081	0	1	0	0	CorrectCommission	0.470159	0.826527	0
204.188995	0.795462	city	8	1	0.866835	0.866835	0	1	0	0	CorrectCommission	0.607619	0.811604	0
204.984619	0.795794	city	3	1	0.799696	0.799696	0	1	0	0	CorrectCommission	0.001713	0.799091	0
205.780441	0.795854	city	6	1	0.847863	0.847863	0	1	0	0	CorrectCommission	0.435434	0.789889	0
206.576279	0.795798	city	1	1	0.749204	0.749204	0	1	0	0	CorrectCommission	0.459963	0.784363	0
207.372086	0.795821	city	8	1	0.897841	0.897841	0	1	0	0	CorrectCommission	0.889020	0.782345	0
208.168030	0.796078	city	5	1	0.606090	0.606090	0	1	0	0	CorrectCommission	1.758824	0.783332	0
208.963837	0.795549	city	10	1	0.665402	0.665402	0	1	0	0	CorrectCommission	1.220525	0.786566	0
209.759476	0.795714	city	8	1	0.712435	0.712435	0	1	0	0	CorrectCommission	0.793666	0.791275	0
210.555252	0.795833	city	2	1	0.750358	0.750358	0	1	0	0	CorrectCommission	0.449491	0.796718	0
211.351059	0.795791	city	6	1	0.849146	0.849146	0	1	0	0	CorrectCommission	0.447080	0.802261	0
212.146896	0.795868	city	4	1	0.857395	0.857395	0	1	0	0	CorrectCommission	0.521942	0.807335	0
212.942719	0.795777	city	1	1	0.947940	0.947940	0	1	0	0	CorrectCommission	1.343706	0.811534	0
213.738464	0.795735	city	10	1	0.907540	0.907540	0	1	0	0	CorrectCommission	0.977047	0.814429	0
214.534241	0.795822	city	5	1	0.806407	0.806407	0	1	0	0	CorrectCommission	0.059195	0.815698	0
215.330048	0.795789	city	1	1	0.667526	0.667526	0	1	0	0	CorrectCommission	1.201250	0.815098	0
216.125870	0.795833	mountain	6	0	0.000000	0.709670	1	0	0	0	CorrectOmission	0.818766	0.812338	0
216.921661	0.795760	city	9	1	0.748387	0.748387	0	1	0	0	CorrectCommission	0.467379	0.807308	0
217.717453	0.795831	city	5	1	0.599227	0.599227	0	1	0	0	CorrectCommission	1.821113	0.800027	0
218.513245	0.795751	city	7	1	0.848617	0.848617	0	1	0	0	CorrectCommission	0.442280	0.790672	0
219.309067	0.795903	city	10	1	0.648722	0.648722	0	1	0	0	CorrectCommission	1.371910	0.779650	1
220.104889	0.795727	city	6	1	0.915938	0.915938	0	1	0	0	CorrectCommission	1.053260	0.767382	1
220.900833	0.796154	city	4	1	0.797833	0.797833	0	1	0	0	CorrectCommission	0.018618	0.754424	1
221.696625	0.795433	city	7	1	0.715632	0.715632	0	1	0	0	CorrectCommission	0.764656	0.741286	1
222.492279	0.795864	city	1	1	0.798630	0.798630	0	1	0	0	CorrectCommission	0.011385	0.728291	1
223.288086	0.795756	city	10	1	0.698589	0.698589	0	1	0	0	CorrectCommission	0.919334	0.715635	1
224.084030	0.796140	city	8	1	0.859958	0.859958	0	1	0	0	CorrectCommission	0.545208	0.703258	1
224.879837	0.795475	city	10	1	0.698306	0.698306	0	1	0	0	CorrectCommission	0.921900	0.690978	1
225.675476	0.795792	city	2	1	0.898367	0.898367	0	1	0	0	CorrectCommission	0.893794	0.678495	1
226.471298	0.795875	city	4	1	0.897990	0.897990	0	1	0	0	CorrectCommission	0.890369	0.665582	1
227.267136	0.795781	city	2	1	0.810374	0.810374	0	1	0	0	CorrectCommission	0.095199	0.652153	1
228.062912	0.795791	city	7	1	0.997811	0.997811	0	1	0	0	CorrectCommission	1.796319	0.638371	1
228.858719	0.795814	city	4	1	0.798337	0.798337	0	1	0	0	CorrectCommission	0.014051	0.624544	1
229.654510	0.795776	mountain	5	0	0.000000	0.718589	1	0	0	0	CorrectOmission	0.737815	0.611371	1
230.450302	0.795808	city	3	1	0.755192	0.755192	0	1	0	0	CorrectCommission	0.405622	0.599561	1
231.246140	0.795846	city	2	1	0.904768	0.904768	0	1	0	0	CorrectCommission	0.951884	0.589935	1
232.041931	0.795746	city	3	1	0.797990	0.797990	0	1	0	0	CorrectCommission	0.017195	0.583240	1
232.837723	0.795848	city	6	1	0.760670	0.760670	0	1	0	0	CorrectCommission	0.355903	0.580052	1
233.633545	0.795783	city	3	1	0.851400	0.851400	0	1	0	0	CorrectCommission	0.467531	0.580586	1
234.429306	0.795733	city	7	1	0.864400	0.864400	0	1	0	0	CorrectCommission	0.585522	0.584741	1
235.225113	0.795880	city	5	1	0.798389	0.798389	0	1	0	0	CorrectCommission	0.013577	0.591986	1
236.020920	0.795733	city	6	1	0.911405	0.911405	0	1	0	0	CorrectCommission	1.012126	0.601539	1
236.816727	0.795877	mountain	8	0	0.000000	0.888367	1	0	0	0	CorrectOmission	0.803039	0.612277	1
237.612518	0.795708	city	5	1	0.848171	0.848171	0	1	0	0	CorrectCommission	0.438232	0.623005	1
238.408295	0.795852	city	4	1	0.909714	0.909714	0	1	0	0	CorrectCommission	0.996774	0.632513	1
239.204269	0.796110	city	8	1	0.698594	0.698594	0	1	0	0	CorrectCommission	0.919284	0.639730	1
240.000107	0.795548	mountain	6	0	0.000000	0.762170	1	0	0	0	CorrectOmission	0.342291	0.643799	1
240.795731	0.795724	city	6	1	0.847831	0.847831	0	1	0	0	CorrectCommission	0.435142	0.644203	1
241.591522	0.795846	city	2	1	0.702967	0.702967	0	1	0	0	CorrectCommission	0.879599	0.640815	1
242.387497	0.796106	city	5	1	0.898318	0.898318	0	1	0	0	CorrectCommission	0.893354	0.633950	1
243.183304	0.795501	city	3	1	0.901008	0.901008	0	1	0	0	CorrectCommission	0.917763	0.624354	1
243.978928	0.795745	city	4	1	0.755435	0.755435	0	1	0	0	CorrectCommission	0.403415	0.613157	1
244.774689	0.795781	city	5	1	0.649223	0.649223	0	1	0	0	CorrectCommission	1.367368	0.601841	1
245.570648	0.796151	city	1	1	0.798070	0.798070	0	1	0	0	CorrectCommission	0.016473	0.591906	1
246.366638	0.795835	mountain	2	0	0.000000	0.772795	1	0	0	0	CorrectOmission	0.245860	0.584988	1
247.162323	0.795523	city	2	1	0.748314	0.748314	0	1	0	0	CorrectCommission	0.468045	0.582434	1
247.957962	0.795758	city	5	1	0.899542	0.899542	0	1	0	0	CorrectCommission	0.904457	0.585225	1
248.753723	0.795744	city	10	1	0.799854	0.799854	0	1	0	0	CorrectCommission	0.000281	0.593780	1
249.549484	0.795796	city	9	1	0.761216	0.761216	0	1	0	0	CorrectCommission	0.350948	0.607993	1
250.345322	0.795889	mountain	6	0	0.000000	0.817616	1	0	0	0	CorrectOmission	0.160919	0.627065	1
251.141174	0.795793	city	6	1	0.848581	0.848581	0	1	0	0	CorrectCommission	0.441955	0.649649	1
251.936935	0.795730	mountain	1	0	0.000000	0.733642	1	0	0	0	CorrectOmission	0.601205	0.673979	1
252.732742	0.795904	city	6	1	0.659984	0.659984	0	1	0	0	CorrectCommission	1.269701	0.698164	1
253.528580	0.795758	city	9	1	0.814796	0.814796	0	1	0	0	CorrectCommission	0.135332	0.720286	1
254.324509	0.796105	mountain	2	1	0.499990	0.499990	0	0	1	0	CommissionError	2.721764	0.738856	1
255.120316	0.795514	city	7	1	0.747805	0.747805	0	1	0	0	CorrectCommission	0.472666	0.752725	1
255.915939	0.795730	mountain	5	0	0.000000	0.755104	1	0	0	0	CorrectOmission	0.406419	0.761563	1
256.711731	0.795842	city	3	1	0.748490	0.748490	0	1	0	0	CorrectCommission	0.466442	0.765596	1
257.507538	0.795805	city	4	1	0.954566	0.954566	0	1	0	0	CorrectCommission	1.403844	0.765689	1
258.303375	0.795862	city	9	1	0.897224	0.897224	0	1	0	0	CorrectCommission	0.883419	0.763178	1
259.099152	0.795684	city	8	1	0.698566	0.698566	0	1	0	0	CorrectCommission	0.919543	0.759720	1
259.894928	0.795881	city	6	1	0.702485	0.702485	0	1	0	0	CorrectCommission	0.883969	0.757090	1
260.690765	0.795787	city	3	1	0.798057	0.798057	0	1	0	0	CorrectCommission	0.016588	0.756968	1
261.486572	0.795805	city	4	1	0.761530	0.761530	0	1	0	0	CorrectCommission	0.348097	0.760865	1
262.282379	0.795840	city	5	1	0.762573	0.762573	0	1	0	0	CorrectCommission	0.338631	0.769861	1
263.078186	0.795740	city	8	1	0.862081	0.862081	0	1	0	0	CorrectCommission	0.564474	0.784637	0
263.873962	0.795809	city	6	1	0.715484	0.715484	0	1	0	0	CorrectCommission	0.765999	0.805439	0
264.669769	0.795809	mountain	2	0	0.000000	0.642276	1	0	0	0	CorrectOmission	1.430417	0.832109	0
265.465576	0.795810	city	8	1	0.648558	0.648558	0	1	0	0	CorrectCommission	1.373402	0.864107	0
266.261353	0.795764	mountain	8	0	0.000000	0.740432	1	0	0	0	CorrectOmission	0.539577	0.900587	0
267.057159	0.795820	city	10	1	0.859403	0.859403	0	1	0	0	CorrectCommission	0.540165	0.940449	0
267.853119	0.796128	city	4	1	0.946973	0.946973	0	1	0	0	CorrectCommission	1.334928	0.982246	0
268.649078	0.795792	city	9	1	0.797719	0.797719	0	1	0	0	CorrectCommission	0.019660	1.024250	0
269.444763	0.795535	city	1	1	0.648578	0.648578	0	1	0	0	CorrectCommission	1.373218	1.064543	0
270.240417	0.795771	city	6	1	0.856373	0.856373	0	1	0	0	CorrectCommission	0.512669	1.100941	0
271.036163	0.795774	mountain	3	0	0.000000	0.995952	1	0	0	0	CorrectOmission	1.779449	1.131391	0
271.832001	0.795880	city	6	1	0.952821	0.952821	0	1	0	0	CorrectCommission	1.388008	1.153853	0
272.627838	0.795763	city	2	1	0.612487	0.612487	0	1	0	0	CorrectCommission	1.700769	1.166788	0
273.423615	0.795794	city	7	1	0.560882	0.560882	0	1	0	0	CorrectCommission	2.169118	1.169224	0
274.219543	0.796104	city	9	1	0.698434	0.698434	0	1	0	0	CorrectCommission	0.920738	1.160865	0
275.015350	0.795469	city	8	1	0.655062	0.655062	0	1	0	0	CorrectCommission	1.314373	1.142285	0
275.811005	0.795848	city	2	1	0.698422	0.698422	0	1	0	0	CorrectCommission	0.920848	1.114809	0
276.606812	0.795773	mountain	9	0	0.000000	0.614467	1	0	0	0	CorrectOmission	1.682795	1.080480	0
277.402740	0.796116	city	5	1	0.598877	0.598877	0	1	0	0	CorrectCommission	1.824286	1.041809	0
278.198547	0.795495	city	4	1	0.847331	0.847331	0	1	0	0	CorrectCommission	0.430604	1.001613	0
278.994202	0.795790	city	6	1	0.848057	0.848057	0	1	0	0	CorrectCommission	0.437197	0.962686	0
279.789978	0.795759	mountain	5	0	0.000000	0.756678	1	0	0	0	CorrectOmission	0.392134	0.927443	0
280.585754	0.795815	city	8	1	0.698292	0.698292	0	1	0	0	CorrectCommission	0.922028	0.897709	0
281.381622	0.795874	city	7	1	0.797998	0.797998	0	1	0	0	CorrectCommission	0.017125	0.874509	0
282.177582	0.796081	city	6	1	0.947157	0.947157	0	1	0	0	CorrectCommission	1.336600	0.858093	0
282.973358	0.795496	city	8	1	0.852627	0.852627	0	1	0	0	CorrectCommission	0.478674	0.847788	0
283.768982	0.795749	city	7	1	0.649018	0.649018	0	1	0	0	CorrectCommission	1.369221	0.842351	0
284.564819	0.795895	city	4	1	0.848628	0.848628	0	1	0	0	CorrectCommission	0.442381	0.839964	0
285.360626	0.795703	city	8	1	0.759921	0.759921	0	1	0	0	CorrectCommission	0.362703	0.838682	0
286.156372	0.795816	city	6	1	0.705948	0.705948	0	1	0	0	CorrectCommission	0.852548	0.836596	0
286.952209	0.795868	mountain	3	0	0.000000	0.682164	1	0	0	0	CorrectOmission	1.068402	0.832090	0
287.748199	0.796068	city	8	1	0.648710	0.648710	0	1	0	0	CorrectCommission	1.372016	0.824158	0
288.543945	0.795468	city	1	1	0.565728	0.565728	0	1	0	0	CorrectCommission	2.125143	0.812438	0
289.339752	0.796143	city	2	1	0.749382	0.749382	0	1	0	0	CorrectCommission	0.458348	0.797325	0
290.135559	0.795479	city	10	1	0.697974	0.697974	0	1	0	0	CorrectCommission	0.924917	0.779913	1
290.931366	0.796127	city	4	1	0.866398	0.866398	0	1	0	0	CorrectCommission	0.603653	0.761656	1
291.727325	0.795802	city	8	1	0.797448	0.797448	0	1	0	0	CorrectCommission	0.022116	0.744297	1
292.522980	0.795497	city	7	1	0.755331	0.755331	0	1	0	0	CorrectCommission	0.404358	0.729527	1
293.318787	0.796117	city	4	1	0.911037	0.911037	0	1	0	0	CorrectCommission	1.008780	0.718758	1
294.114594	0.795480	city	2	1	0.747903	0.747903	0	1	0	0	CorrectCommission	0.471773	0.712932	1
294.910248	0.795835	city	7	1	0.755581	0.755581	0	1	0	0	CorrectCommission	0.402089	0.712472	1
295.706055	0.795769	city	5	1	0.848166	0.848166	0	1	0	0	CorrectCommission	0.438183	0.717241	1
296.501831	0.795791	city	10	1	0.798184	0.798184	0	1	0	0	CorrectCommission	0.015436	0.726580	1
297.297607	0.795757	city	7	1	0.947081	0.947081	0	1	0	0	CorrectCommission	1.335913	0.739517	1
298.093414	0.795884	city	1	1	0.904855	0.904855	0	1	0	0	CorrectCommission	0.952678	0.754777	1
298.889282	0.795807	city	6	1	0.963732	0.963732	0	1	0	0	CorrectCommission	1.487031	0.771144	1
299.685059	0.795786	city	2	1	0.748705	0.748705	0	1	0	0	CorrectCommission	0.464494	0.787460	0
300.480865	0.795826	city	8	1	0.599367	0.599367	0	1	0	0	CorrectCommission	1.819847	0.802880	0
301.276642	0.795701	city	4	1	0.811547	0.811547	0	1	0	0	CorrectCommission	0.105844	0.816670	0
302.072418	0.795878	city	10	1	0.798692	0.798692	0	1	0	0	CorrectCommission	0.010829	0.828493	0
302.868286	0.795816	city	4	1	0.847831	0.847831	0	1	0	0	CorrectCommission	0.435144	0.838192	0
303.664062	0.795734	city	9	1	0.862244	0.862244	0	1	0	0	CorrectCommission	0.565952	0.845817	0
304.459839	0.795829	city	2	1	0.549701	0.549701	0	1	0	0	CorrectCommission	2.270600	0.851576	0
305.255646	0.795771	city	9	1	0.613158	0.613158	0	1	0	0	CorrectCommission	1.694683	0.855739	0
306.051422	0.795834	city	1	1	0.699642	0.699642	0	1	0	0	CorrectCommission	0.909773	0.858690	0
306.847229	0.795757	city	3	1	0.748298	0.748298	0	1	0	0	CorrectCommission	0.468184	0.860844	0
307.643036	0.795871	city	5	1	0.797841	0.797841	0	1	0	0	CorrectCommission	0.018550	0.862533	0
308.438873	0.795809	city	6	1	0.748097	0.748097	0	1	0	0	CorrectCommission	0.470011	0.863954	0
309.234711	0.795825	city	5	1	0.699535	0.699535	0	1	0	0	CorrectCommission	0.910744	0.865113	0
310.030457	0.795711	city	2	1	0.650821	0.650821	0	1	0	0	CorrectCommission	1.352858	0.865850	0
310.826385	0.796148	city	7	1	0.907465	0.907465	0	1	0	0	CorrectCommission	0.976363	0.865844	0
311.622375	0.795799	city	9	1	0.848643	0.848643	0	1	0	0	CorrectCommission	0.442514	0.864764	0
312.418030	0.795505	city	10	1	0.648608	0.648608	0	1	0	0	CorrectCommission	1.372942	0.862333	0
313.213684	0.795831	city	3	1	0.698601	0.698601	0	1	0	0	CorrectCommission	0.919225	0.858298	0
314.009491	0.795764	city	4	1	0.748460	0.748460	0	1	0	0	CorrectCommission	0.466716	0.852680	0
314.805267	0.795818	city	8	1	0.648930	0.648930	0	1	0	0	CorrectCommission	1.370021	0.845672	0
315.601044	0.795738	city	2	1	0.607537	0.607537	0	1	0	0	CorrectCommission	1.745691	0.837703	0
316.396881	0.795896	city	5	1	0.748523	0.748523	0	1	0	0	CorrectCommission	0.466143	0.829316	0
317.192719	0.795787	city	9	1	0.812311	0.812311	0	1	0	0	CorrectCommission	0.112780	0.821283	0
317.988525	0.795824	city	3	1	0.798626	0.798626	0	1	0	0	CorrectCommission	0.011422	0.814303	0
318.784332	0.795777	city	2	1	0.660651	0.660651	0	1	0	0	CorrectCommission	1.263647	0.809049	0
319.580078	0.795762	city	10	1	0.700679	0.700679	0	1	0	0	CorrectCommission	0.900360	0.806012	0
320.375854	0.795788	city	7	1	0.897362	0.897362	0	1	0	0	CorrectCommission	0.884670	0.805518	0
321.171692	0.795842	city	10	1	0.898023	0.898023	0	1	0	0	CorrectCommission	0.890676	0.807655	0
321.967651	0.796107	city	3	1	0.748906	0.748906	0	1	0	0	CorrectCommission	0.462670	0.812205	0
322.763458	0.795492	mountain	10	1	0.664711	0.664711	0	0	1	0	CommissionError	1.226801	0.818721	0
323.559082	0.795748	city	10	1	0.698807	0.698807	0	1	0	0	CorrectCommission	0.917355	0.826457	0
324.354858	0.795832	city	9	1	0.748513	0.748513	0	1	0	0	CorrectCommission	0.466234	0.834452	0
325.150726	0.795865	mountain	4	0	0.000000	0.731498	1	0	0	0	CorrectOmission	0.620664	0.841528	0
325.946503	0.795722	city	5	1	0.748307	0.748307	0	1	0	0	CorrectCommission	0.468107	0.846355	0
326.742279	0.795839	city	10	1	0.899489	0.899489	0	1	0	0	CorrectCommission	0.903975	0.847607	0
327.538086	0.795752	city	1	1	0.996675	0.996675	0	1	0	0	CorrectCommission	1.786007	0.844047	0
328.333893	0.795887	city	2	1	0.863443	0.863443	0	1	0	0	CorrectCommission	0.576836	0.834745	0
329.129883	0.796076	city	4	1	0.902045	0.902045	0	1	0	0	CorrectCommission	0.927179	0.819303	0
329.925659	0.795504	city	5	1	0.712780	0.712780	0	1	0	0	CorrectCommission	0.790539	0.797833	0
330.721313	0.795771	city	10	1	0.549475	0.549475	0	1	0	0	CorrectCommission	2.272651	0.771097	1
331.517120	0.795830	city	8	1	0.848553	0.848553	0	1	0	0	CorrectCommission	0.441699	0.740468	1
332.312927	0.795781	city	1	1	0.717465	0.717465	0	1	0	0	CorrectCommission	0.748021	0.707942	1
333.108734	0.795828	city	9	1	0.847812	0.847812	0	1	0	0	CorrectCommission	0.434972	0.675759	1
333.904510	0.795771	city	7	1	0.765385	0.765385	0	1	0	0	CorrectCommission	0.313114	0.646286	1
334.700317	0.795844	city	3	1	0.750263	0.750263	0	1	0	0	CorrectCommission	0.450350	0.621706	1
335.496155	0.795807	mountain	2	0	0.000000	0.777863	1	0	0	0	CorrectOmission	0.199863	0.603886	1
336.291962	0.795800	city	2	1	0.802264	0.802264	0	1	0	0	CorrectCommission	0.021587	0.593999	1
337.087769	0.795790	mountain	1	0	0.000000	0.777544	1	0	0	0	CorrectOmission	0.202756	0.592592	1
337.883545	0.795817	mountain	2	0	0.000000	0.733367	1	0	0	0	CorrectOmission	0.603701	0.599524	1
338.679352	0.795787	city	6	1	0.699391	0.699391	0	1	0	0	CorrectCommission	0.912053	0.614035	1
339.475159	0.795787	city	10	1	0.705279	0.705279	0	1	0	0	CorrectCommission	0.858619	0.634936	1
340.270935	0.795802	city	7	1	0.814957	0.814957	0	1	0	0	CorrectCommission	0.136788	0.660747	1
341.066711	0.795741	city	4	1	0.748233	0.748233	0	1	0	0	CorrectCommission	0.468782	0.689964	1
341.862518	0.795844	mountain	2	0	0.000000	0.676976	1	0	0	0	CorrectOmission	1.115483	0.721108	1
342.658356	0.795841	city	3	1	0.707849	0.707849	0	1	0	0	CorrectCommission	0.835293	0.752881	1
343.454132	0.795742	city	5	1	0.947511	0.947511	0	1	0	0	CorrectCommission	1.339811	0.784272	0
344.249939	0.795836	city	2	1	0.708541	0.708541	0	1	0	0	CorrectCommission	0.829010	0.814464	0
345.045746	0.795805	city	4	1	0.897574	0.897574	0	1	0	0	CorrectCommission	0.886597	0.842811	0
345.841553	0.795780	city	3	1	0.798048	0.798048	0	1	0	0	CorrectCommission	0.016667	0.868768	0
346.637360	0.795829	city	1	1	0.707345	0.707345	0	1	0	0	CorrectCommission	0.839867	0.891840	0
347.433167	0.795799	city	2	1	0.648727	0.648727	0	1	0	0	CorrectCommission	1.371867	0.911422	0
348.228973	0.795821	mountain	9	1	0.650004	0.650004	0	0	1	0	CommissionError	1.360279	0.926777	0
349.024780	0.795795	city	9	1	0.847919	0.847919	0	1	0	0	CorrectCommission	0.435942	0.937213	0
349.820557	0.795786	city	2	1	0.802171	0.802171	0	1	0	0	CorrectCommission	0.020752	0.942087	0
350.616333	0.795762	city	1	1	1.146319	1.146319	0	1	0	0	CorrectCommission	3.144134	0.940888	0
351.412140	0.795839	city	3	1	0.847672	0.847672	0	1	0	0	CorrectCommission	0.433697	0.933259	0
352.207947	0.795763	city	2	1	0.698684	0.698684	0	1	0	0	CorrectCommission	0.918471	0.919484	0
353.003754	0.795840	city	1	1	0.947686	0.947686	0	1	0	0	CorrectCommission	1.341397	0.900147	0
353.799561	0.795796	city	6	1	0.897797	0.897797	0	1	0	0	CorrectCommission	0.888624	0.876351	0
354.595367	0.795831	city	9	1	0.700007	0.700007	0	1	0	0	CorrectCommission	0.906465	0.849668	0
355.391174	0.795770	city	10	1	0.757575	0.757575	0	1	0	0	CorrectCommission	0.383990	0.821989	0
356.187103	0.796106	city	6	1	0.947994	0.947994	0	1	0	0	CorrectCommission	1.344192	0.795423	0
356.982910	0.795469	city	4	1	0.847537	0.847537	0	1	0	0	CorrectCommission	0.432477	0.772052	1
357.778534	0.795806	city	2	1	0.748829	0.748829	0	1	0	0	CorrectCommission	0.463371	0.753828	1
358.574341	0.795823	city	4	1	0.710711	0.710711	0	1	0	0	CorrectCommission	0.809316	0.742246	1
359.370178	0.795847	city	9	1	0.852223	0.852223	0	1	0	0	CorrectCommission	0.475002	0.738197	1
360.166138	0.796073	city	6	1	0.817892	0.817892	0	1	0	0	CorrectCommission	0.163431	0.741928	1
360.961914	0.795427	city	7	1	0.799634	0.799634	0	1	0	0	CorrectCommission	0.002274	0.752950	1
361.757507	0.795813	city	1	1	0.664140	0.664140	0	1	0	0	CorrectCommission	1.231978	0.770072	1
362.553314	0.795786	city	4	1	0.907285	0.907285	0	1	0	0	CorrectCommission	0.974734	0.791467	0
363.349121	0.795834	city	6	1	0.760866	0.760866	0	1	0	0	CorrectCommission	0.354121	0.814995	0
364.144989	0.795867	city	10	1	0.698370	0.698370	0	1	0	0	CorrectCommission	0.921322	0.838355	0
364.940796	0.795759	mountain	9	0	0.000000	0.666552	1	0	0	0	CorrectOmission	1.210090	0.859286	0
365.736542	0.795741	city	3	1	0.716011	0.716011	0	1	0	0	CorrectCommission	0.761211	0.875857	0
366.532318	0.795830	city	6	1	0.897346	0.897346	0	1	0	0	CorrectCommission	0.884525	0.886634	0
367.328156	0.795847	city	1	1	1.096894	1.096894	0	1	0	0	CorrectCommission	2.695571	0.890836	0
368.123993	0.795802	city	9	1	0.897597	0.897597	0	1	0	0	CorrectCommission	0.886808	0.888145	0
368.919800	0.795832	city	2	1	0.698658	0.698658	0	1	0	0	CorrectCommission	0.918705	0.879056	0
369.715607	0.795754	city	6	1	0.853762	0.853762	0	1	0	0	CorrectCommission	0.488976	0.864439	0
370.511353	0.795767	mountain	4	0	0.000000	0.794356	1	0	0	0	CorrectOmission	0.050179	0.845523	0
371.307159	0.795856	city	3	1	0.750407	0.750407	0	1	0	0	CorrectCommission	0.449046	0.823711	0
372.102997	0.795817	city	1	1	0.951884	0.951884	0	1	0	0	CorrectCommission	1.379500	0.800459	0
372.898834	0.795813	mountain	2	0	0.000000	0.937837	1	0	0	0	CorrectOmission	1.252013	0.777225	1
373.694611	0.795738	city	8	1	0.854611	0.854611	0	1	0	0	CorrectCommission	0.496678	0.755396	1
374.490387	0.795858	city	3	1	0.848551	0.848551	0	1	0	0	CorrectCommission	0.441679	0.736330	1
375.286224	0.795763	city	1	1	0.710584	0.710584	0	1	0	0	CorrectCommission	0.810469	0.721275	1
376.082001	0.795804	city	6	1	0.958591	0.958591	0	1	0	0	CorrectCommission	1.440374	0.711340	1
376.877808	0.795811	city	3	1	0.749112	0.749112	0	1	0	0	CorrectCommission	0.460801	0.707507	1
377.673584	0.795765	city	8	1	0.806284	0.806284	0	1	0	0	CorrectCommission	0.058081	0.710618	1
378.469421	0.795874	city	1	1	0.798545	0.798545	0	1	0	0	CorrectCommission	0.012161	0.721177	1
379.265198	0.795713	city	2	1	0.851232	0.851232	0	1	0	0	CorrectCommission	0.466011	0.739304	1
380.061005	0.795866	city	10	1	0.897751	0.897751	0	1	0	0	CorrectCommission	0.888200	0.764657	1
380.856812	0.795775	city	4	1	0.947365	0.947365	0	1	0	0	CorrectCommission	1.338490	0.796419	0
381.652618	0.795852	city	6	1	0.804030	0.804030	0	1	0	0	CorrectCommission	0.037616	0.833352	0
382.448425	0.795765	city	10	1	0.699389	0.699389	0	1	0	0	CorrectCommission	0.912069	0.873892	0
383.244232	0.795843	city	4	1	0.897519	0.897519	0	1	0	0	CorrectCommission	0.886100	0.916122	0
384.040070	0.795789	city	6	1	0.947406	0.947406	0	1	0	0	CorrectCommission	1.338859	0.958061	0
384.835846	0.795781	city	5	1	0.897666	0.897666	0	1	0	0	CorrectCommission	0.887435	0.997686	0
385.631653	0.795820	city	1	1	0.953264	0.953264	0	1	0	0	CorrectCommission	1.392021	1.033238	0
386.427429	0.795766	city	9	1	0.848111	0.848111	0	1	0	0	CorrectCommission	0.437687	1.063216	0
387.223206	0.795790	city	6	1	0.650596	0.650596	0	1	0	0	CorrectCommission	1.354903	1.086572	0
388.019012	0.795787	city	5	1	0.561564	0.561564	0	1	0	0	CorrectCommission	2.162931	1.102665	0
388.814819	0.795837	city	2	1	0.600600	0.600600	0	1	0	0	CorrectCommission	1.808648	1.111294	0
389.610626	0.795819	mountain	4	0	0.000000	0.655731	1	0	0	0	CorrectOmission	1.308299	1.112621	0
390.406433	0.795767	mountain	6	0	0.000000	0.724944	1	0	0	0	CorrectOmission	0.680139	1.107068	0
391.202209	0.795767	mountain	3	0	0.000000	0.806229	1	0	0	0	CorrectOmission	0.057579	1.095199	0
391.998016	0.795893	city	7	1	0.897574	0.897574	0	1	0	0	CorrectCommission	0.886599	1.077613	0
392.793884	0.795799	city	4	1	0.996968	0.996968	0	1	0	0	CorrectCommission	1.788665	1.054761	0
393.589661	0.795749	city	9	1	0.897791	0.897791	0	1	0	0	CorrectCommission	0.888565	1.027009	0
394.385406	0.795758	mountain	7	1	0.611066	0.611066	0	0	1	0	CommissionError	1.713664	0.994867	0
395.181183	0.795810	city	9	1	0.947803	0.947803	0	1	0	0	CorrectCommission	1.342459	0.958742	0
395.977020	0.795834	city	6	1	0.798446	0.798446	0	1	0	0	CorrectCommission	0.013057	0.919309	0
396.772827	0.795823	city	2	1	0.659773	0.659773	0	1	0	0	CorrectCommission	1.271615	0.877519	0
397.568665	0.795844	city	5	1	0.652930	0.652930	0	1	0	0	CorrectCommission	1.333721	0.834641	0
398.364624	0.796063	mountain	4	0	0.000000	0.749445	1	0	0	0	CorrectOmission	0.457776	0.792338	0
399.160400	0.795518	city	8	1	0.860760	0.860760	0	1	0	0	CorrectCommission	0.552483	0.752645	1
399.956024	0.795729	city	5	1	0.898314	0.898314	0	1	0	0	CorrectCommission	0.893318	0.717751	1
400.751801	0.795793	city	9	1	0.897326	0.897326	0	1	0	0	CorrectCommission	0.884343	0.689895	1
401.547638	0.795865	city	7	1	0.748412	0.748412	0	1	0	0	CorrectCommission	0.467156	0.671107	1
402.343475	0.795843	city	6	1	0.798118	0.798118	0	1	0	0	CorrectCommission	0.016039	0.662985	1
403.139252	0.795702	mountain	7	0	0.000000	0.840056	1	0	0	0	CorrectOmission	0.364584	0.666395	1
403.934998	0.795812	city	5	1	0.848625	0.848625	0	1	0	0	CorrectCommission	0.442348	0.681323	1
404.730988	0.796149	city	10	1	0.798220	0.798220	0	1	0	0	CorrectCommission	0.015113	0.706728	1
405.526825	0.795512	city	3	1	0.816355	0.816355	0	1	0	0	CorrectCommission	0.149481	0.740586	1
406.322479	0.795821	city	8	1	0.847907	0.847907	0	1	0	0	CorrectCommission	0.435830	0.780001	0
407.118286	0.795764	city	4	1	0.950778	0.950778	0	1	0	0	CorrectCommission	1.369466	0.821489	0
407.914062	0.795789	city	10	1	0.749301	0.749301	0	1	0	0	CorrectCommission	0.459082	0.861265	0
408.709839	0.795760	city	5	1	0.700059	0.700059	0	1	0	0	CorrectCommission	0.905995	0.895760	0
409.505615	0.795806	city	9	1	1.245865	1.245865	0	1	0	0	CorrectCommission	4.047581	0.921849	0
410.301453	0.795861	city	6	1	0.749302	0.749302	0	1	0	0	CorrectCommission	0.459077	0.937084	0
411.097290	0.795807	city	1	1	0.707080	0.707080	0	1	0	0	CorrectCommission	0.842272	0.940284	0
411.893097	0.795830	city	9	1	0.798097	0.798097	0	1	0	0	CorrectCommission	0.016223	0.931183	0
412.688904	0.795764	city	1	1	0.599349	0.599349	0	1	0	0	CorrectCommission	1.820005	0.910618	0
413.484680	0.795825	city	10	1	0.599851	0.599851	0	1	0	0	CorrectCommission	1.815446	0.880257	0
414.280457	0.795724	city	2	1	0.856313	0.856313	0	1	0	0	CorrectCommission	0.512125	0.842452	0
415.076263	0.795846	mountain	10	0	0.000000	0.821543	1	0	0	0	CorrectOmission	0.196559	0.799997	0
415.872101	0.795844	city	2	1	0.698909	0.698909	0	1	0	0	CorrectCommission	0.916427	0.755771	1
416.667877	0.795744	mountain	6	0	0.000000	0.691781	1	0	0	0	CorrectOmission	0.981118	0.712448	1
417.463684	0.795821	city	10	1	0.748151	0.748151	0	1	0	0	CorrectCommission	0.469522	0.672329	1
418.259491	0.795798	mountain	9	0	0.000000	0.816011	1	0	0	0	CorrectOmission	0.146356	0.637143	1
419.055267	0.795798	city	8	1	0.850068	0.850068	0	1	0	0	CorrectCommission	0.455450	0.607945	1
419.851257	0.796124	mountain	9	0	0.000000	0.805030	1	0	0	0	CorrectOmission	0.046691	0.585093	1
420.647034	0.795472	city	7	1	0.748567	0.748567	0	1	0	0	CorrectCommission	0.465746	0.568321	1
421.442688	0.795825	city	10	1	0.748353	0.748353	0	1	0	0	CorrectCommission	0.467687	0.556793	1
422.238495	0.795801	city	7	1	0.906107	0.906107	0	1	0	0	CorrectCommission	0.964042	0.549369	1
423.034271	0.795742	city	3	1	0.762664	0.762664	0	1	0	0	CorrectCommission	0.337811	0.544718	1
423.830078	0.795878	city	5	1	0.847956	0.847956	0	1	0	0	CorrectCommission	0.436276	0.541578	1
424.625885	0.795742	city	4	1	0.897957	0.897957	0	1	0	0	CorrectCommission	0.890076	0.538839	1
425.421692	0.795876	city	10	1	0.698598	0.698598	0	1	0	0	CorrectCommission	0.919255	0.535684	1
426.217499	0.795713	city	4	1	0.851555	0.851555	0	1	0	0	CorrectCommission	0.468946	0.531726	1
427.013306	0.795885	city	3	1	0.748401	0.748401	0	1	0	0	CorrectCommission	0.467254	0.526804	1
427.809113	0.795768	mountain	8	0	0.000000	0.720791	1	0	0	0	CorrectOmission	0.717837	0.521153	1
428.604919	0.795849	city	10	1	0.749118	0.749118	0	1	0	0	CorrectCommission	0.460748	0.515179	1
429.400757	0.795777	city	3	1	0.813776	0.813776	0	1	0	0	CorrectCommission	0.126068	0.509449	1
430.196533	0.795779	city	4	1	0.848642	0.848642	0	1	0	0	CorrectCommission	0.442505	0.504512	1
430.992310	0.795811	city	10	1	0.847764	0.847764	0	1	0	0	CorrectCommission	0.434534	0.500831	1
431.788116	0.795813	mountain	3	0	0.000000	0.771448	1	0	0	0	CorrectOmission	0.258084	0.498805	1
432.583923	0.795787	city	5	1	0.712426	0.712426	0	1	0	0	CorrectCommission	0.793749	0.498713	1
433.379761	0.795844	mountain	6	0	0.000000	0.763429	1	0	0	0	CorrectOmission	0.330866	0.500664	1
434.175507	0.795698	city	2	1	0.850023	0.850023	0	1	0	0	CorrectCommission	0.455036	0.504743	1
434.971436	0.796163	city	1	1	0.897775	0.897775	0	1	0	0	CorrectCommission	0.888425	0.510909	1
435.767242	0.795437	city	2	1	0.897273	0.897273	0	1	0	0	CorrectCommission	0.883862	0.519053	1
436.562897	0.795877	city	10	1	0.810168	0.810168	0	1	0	0	CorrectCommission	0.093329	0.529011	1
437.358734	0.795792	city	6	1	0.847601	0.847601	0	1	0	0	CorrectCommission	0.433059	0.540556	1
438.154510	0.795775	mountain	8	0	0.000000	0.819478	1	0	0	0	CorrectOmission	0.177823	0.553305	1
438.950348	0.795860	city	2	1	0.808504	0.808504	0	1	0	0	CorrectCommission	0.078224	0.566792	1
439.746155	0.795765	city	4	1	0.897383	0.897383	0	1	0	0	CorrectCommission	0.884862	0.580419	1
440.541901	0.795749	city	10	1	0.762319	0.762319	0	1	0	0	CorrectCommission	0.340940	0.593632	1
441.337708	0.795859	city	5	1	0.999208	0.999208	0	1	0	0	CorrectCommission	1.809002	0.605907	1
442.133514	0.795759	city	4	1	0.863133	0.863133	0	1	0	0	CorrectCommission	0.574017	0.616830	1
442.929352	0.795875	mountain	3	0	0.000000	0.849629	1	0	0	0	CorrectOmission	0.451464	0.626287	1
443.725159	0.795756	city	8	1	0.848202	0.848202	0	1	0	0	CorrectCommission	0.438508	0.634418	1
444.520905	0.795769	city	10	1	0.748353	0.748353	0	1	0	0	CorrectCommission	0.467686	0.641643	1
445.316711	0.795832	city	4	1	0.897398	0.897398	0	1	0	0	CorrectCommission	0.884999	0.648656	1
446.112518	0.795771	city	9	1	0.897220	0.897220	0	1	0	0	CorrectCommission	0.883383	0.656350	1
446.908478	0.796150	mountain	10	0	0.000000	0.886532	1	0	0	0	CorrectOmission	0.786380	0.665735	1
447.704285	0.795457	city	5	1	0.856493	0.856493	0	1	0	0	CorrectCommission	0.513760	0.677783	1
448.499939	0.795882	city	1	1	0.798264	0.798264	0	1	0	0	CorrectCommission	0.014711	0.693316	1
449.295807	0.795796	city	9	1	0.953042	0.953042	0	1	0	0	CorrectCommission	1.390008	0.712940	1
450.091583	0.795777	city	1	1	0.810667	0.810667	0	1	0	0	CorrectCommission	0.097852	0.736774	1
450.887390	0.795839	city	5	1	0.797983	0.797983	0	1	0	0	CorrectCommission	0.017263	0.764653	1
451.683197	0.795797	city	7	1	0.914258	0.914258	0	1	0	0	CorrectCommission	1.038015	0.795937	0
452.479004	0.795793	city	8	1	0.906359	0.906359	0	1	0	0	CorrectCommission	0.966325	0.829556	0
453.274780	0.795798	mountain	4	0	0.000000	0.922927	1	0	0	0	CorrectOmission	1.116695	0.864158	0
454.070557	0.795723	city	2	1	0.906119	0.906119	0	1	0	0	CorrectCommission	0.964148	0.898179	0
454.866333	0.795847	city	5	1	0.798089	0.798089	0	1	0	0	CorrectCommission	0.016298	0.929939	0
455.662170	0.795805	city	8	1	1.096496	1.096496	0	1	0	0	CorrectCommission	2.691953	0.957781	0
456.457977	0.795793	city	4	1	0.748114	0.748114	0	1	0	0	CorrectCommission	0.469855	0.979999	0
457.253754	0.795766	city	8	1	0.648899	0.648899	0	1	0	0	CorrectCommission	1.370305	0.995192	0
458.049561	0.795890	city	2	1	0.699242	0.699242	0	1	0	0	CorrectCommission	0.913407	1.002111	0
458.845551	0.796066	city	10	1	0.699283	0.699283	0	1	0	0	CorrectCommission	0.913034	0.999761	0
459.641296	0.795434	city	1	1	0.748070	0.748070	0	1	0	0	CorrectCommission	0.470254	0.987559	0
460.436951	0.795858	city	6	1	0.649871	0.649871	0	1	0	0	CorrectCommission	1.361481	0.965346	0
461.232788	0.795799	mountain	4	0	0.000000	0.603170	1	0	0	0	CorrectOmission	1.785331	0.933462	0
462.028595	0.795823	mountain	1	0	0.000000	0.616475	1	0	0	0	CorrectOmission	1.664574	0.892871	0
462.824554	0.796091	city	8	1	0.698297	0.698297	0	1	0	0	CorrectCommission	0.921981	0.845136	0
463.620331	0.795481	city	5	1	0.857145	0.857145	0	1	0	0	CorrectCommission	0.519678	0.792456	0
464.415955	0.795800	city	4	1	0.948005	0.948005	0	1	0	0	CorrectCommission	1.344290	0.737489	1
465.211914	0.796108	city	2	1	0.797759	0.797759	0	1	0	0	CorrectCommission	0.019293	0.683169	1
466.007751	0.795535	city	10	1	0.764576	0.764576	0	1	0	0	CorrectCommission	0.320458	0.632603	1
466.803406	0.795786	city	2	1	0.762851	0.762851	0	1	0	0	CorrectCommission	0.336106	0.588613	1
467.599182	0.795753	city	5	1	0.748462	0.748462	0	1	0	0	CorrectCommission	0.466698	0.553630	1
468.394958	0.795818	city	9	1	0.755946	0.755946	0	1	0	0	CorrectCommission	0.398779	0.529424	1
469.190765	0.795822	city	4	1	0.815382	0.815382	0	1	0	0	CorrectCommission	0.140650	0.516902	1
469.986603	0.795796	city	1	1	0.798063	0.798063	0	1	0	0	CorrectCommission	0.016537	0.516072	1
470.782379	0.795786	city	8	1	0.808206	0.808206	0	1	0	0	CorrectCommission	0.075516	0.525994	1
471.578186	0.795831	city	1	1	0.798456	0.798456	0	1	0	0	CorrectCommission	0.012968	0.544860	1
472.373962	0.795742	city	2	1	0.748053	0.748053	0	1	0	0	CorrectCommission	0.470414	0.570253	1
473.169739	0.795804	city	10	1	0.649348	0.649348	0	1	0	0	CorrectCommission	1.366231	0.599249	1
473.965576	0.795867	city	2	1	0.848361	0.848361	0	1	0	0	CorrectCommission	0.439957	0.628904	1
474.761414	0.795799	city	9	1	0.947726	0.947726	0	1	0	0	CorrectCommission	1.341765	0.656471	1
475.557373	0.796097	city	6	1	0.848069	0.848069	0	1	0	0	CorrectCommission	0.437306	0.679584	1
476.353119	0.795438	city	4	1	0.698230	0.698230	0	1	0	0	CorrectCommission	0.922595	0.696532	1
477.148773	0.795841	city	3	1	0.648911	0.648911	0	1	0	0	CorrectCommission	1.370198	0.706248	1
477.944611	0.795848	city	6	1	0.856039	0.856039	0	1	0	0	CorrectCommission	0.509637	0.708326	1
478.740417	0.795775	city	8	1	0.665981	0.665981	0	1	0	0	CorrectCommission	1.215271	0.703011	1
479.536194	0.795752	city	10	1	0.711993	0.711993	0	1	0	0	CorrectCommission	0.797680	0.690943	1
480.331970	0.795823	city	4	1	0.705880	0.705880	0	1	0	0	CorrectCommission	0.853164	0.673133	1
481.127808	0.795852	city	1	1	0.748029	0.748029	0	1	0	0	CorrectCommission	0.470632	0.650675	1
481.923615	0.795728	city	10	1	0.798011	0.798011	0	1	0	0	CorrectCommission	0.017009	0.624622	1
482.719391	0.795830	city	4	1	0.799337	0.799337	0	1	0	0	CorrectCommission	0.004970	0.595934	1
483.515198	0.795779	city	5	1	0.748416	0.748416	0	1	0	0	CorrectCommission	0.467117	0.565331	1
484.310974	0.795805	mountain	7	0	0.000000	0.870007	1	0	0	0	CorrectOmission	0.636404	0.533370	1
485.106781	0.795776	city	8	1	0.997109	0.997109	0	1	0	0	CorrectCommission	1.789945	0.500447	1
485.902618	0.795888	mountain	3	0	0.000000	0.962722	1	0	0	0	CorrectOmission	1.477860	0.466869	1
486.698425	0.795764	city	8	1	0.847590	0.847590	0	1	0	0	CorrectCommission	0.432961	0.432961	1
