onset	duration	trial_type	image_type	Press	ReactionTime	ReactionTime_Interpolated	CorrectOmission	CorrectCommission	CommissionError	OmissionError	response_type	nonsmoothVarianceTimeCourse	VarianceTimeCourse	In_the_Zone
8.421740	0.795848	city	6	1	0.749296	0.749296	0	1	0	0	CorrectCommission	0.520765	0.520765	1
9.217685	0.796041	mountain	5	0	0.000000	0.908001	1	0	0	0	CorrectOmission	0.927571	0.570856	1
10.013455	0.795501	city	9	1	0.947560	0.947560	0	1	0	0	CorrectCommission	1.288585	0.618983	1
10.809119	0.795827	city	2	1	0.748827	0.748827	0	1	0	0	CorrectCommission	0.525046	0.663257	1
11.605065	0.796066	city	1	1	0.847885	0.847885	0	1	0	0	CorrectCommission	0.378952	0.702028	1
12.400840	0.795484	city	5	1	0.897323	0.897323	0	1	0	0	CorrectCommission	0.830122	0.733950	1
13.196508	0.795852	city	10	1	0.897243	0.897243	0	1	0	0	CorrectCommission	0.829396	0.758063	1
13.992480	0.796093	city	3	1	0.901572	0.901572	0	1	0	0	CorrectCommission	0.868894	0.773946	1
14.788295	0.795535	city	7	1	0.996479	0.996479	0	1	0	0	CorrectCommission	1.735010	0.781703	0
15.584080	0.796037	mountain	4	0	0.000000	0.763356	1	0	0	0	CorrectOmission	0.392450	0.782016	0
16.379835	0.795473	city	5	1	0.599312	0.599312	0	1	0	0	CorrectCommission	1.889513	0.776171	1
17.175510	0.795879	city	4	1	0.901451	0.901451	0	1	0	0	CorrectCommission	0.867795	0.765772	1
17.971361	0.795820	city	1	1	0.810259	0.810259	0	1	0	0	CorrectCommission	0.035580	0.752795	1
18.767176	0.795809	city	3	1	0.909463	0.909463	0	1	0	0	CorrectCommission	0.940914	0.739158	1
19.562958	0.795757	mountain	1	0	0.000000	0.811693	1	0	0	0	CorrectOmission	0.048665	0.726544	1
20.358736	0.795799	city	4	1	0.698557	0.698557	0	1	0	0	CorrectCommission	0.983807	0.716222	1
21.154556	0.795843	city	7	1	0.751666	0.751666	0	1	0	0	CorrectCommission	0.499137	0.708834	1
21.950365	0.795776	city	2	1	0.797760	0.797760	0	1	0	0	CorrectCommission	0.078488	0.704353	1
22.746155	0.795802	city	9	1	0.862032	0.862032	0	1	0	0	CorrectCommission	0.508062	0.702193	1
23.541945	0.795777	city	5	1	0.798017	0.798017	0	1	0	0	CorrectCommission	0.076135	0.701309	1
24.337744	0.795825	city	7	1	0.997036	0.997036	0	1	0	0	CorrectCommission	1.740095	0.700524	1
25.133526	0.795736	city	8	1	0.897519	0.897519	0	1	0	0	CorrectCommission	0.831911	0.698738	1
25.929304	0.795821	city	6	1	0.947122	0.947122	0	1	0	0	CorrectCommission	1.284584	0.695323	1
26.725136	0.795842	city	9	1	0.847763	0.847763	0	1	0	0	CorrectCommission	0.377839	0.690218	1
27.521097	0.796082	city	2	1	0.947709	0.947709	0	1	0	0	CorrectCommission	1.289941	0.684096	1
28.316900	0.795524	city	3	1	0.904168	0.904168	0	1	0	0	CorrectCommission	0.892594	0.678209	1
29.112568	0.795809	city	10	1	0.897935	0.897935	0	1	0	0	CorrectCommission	0.835707	0.674325	1
29.908371	0.795798	city	8	1	0.857662	0.857662	0	1	0	0	CorrectCommission	0.468178	0.674309	1
30.704182	0.795825	city	5	1	0.804668	0.804668	0	1	0	0	CorrectCommission	0.015437	0.679853	1
31.499969	0.795749	city	3	1	0.847740	0.847740	0	1	0	0	CorrectCommission	0.377634	0.692101	1
32.295757	0.795825	city	9	1	0.804923	0.804923	0	1	0	0	CorrectCommission	0.013113	0.711289	1
33.091583	0.795826	city	8	1	0.798208	0.798208	0	1	0	0	CorrectCommission	0.074393	0.736747	1
33.887379	0.795770	city	5	1	0.804450	0.804450	0	1	0	0	CorrectCommission	0.017428	0.766858	1
34.683144	0.795756	city	9	1	0.897193	0.897193	0	1	0	0	CorrectCommission	0.828939	0.799301	0
35.478954	0.795872	mountain	10	0	0.000000	0.658230	1	0	0	0	CorrectOmission	1.351830	0.831409	0
36.274918	0.796051	city	3	1	0.506665	0.506665	0	1	0	0	CorrectCommission	2.735003	0.860570	0
37.070717	0.795550	city	2	1	0.861604	0.861604	0	1	0	0	CorrectCommission	0.504153	0.884656	0
37.866383	0.795779	mountain	8	0	0.000000	0.978975	1	0	0	0	CorrectOmission	1.575270	0.902457	0
38.662163	0.795783	city	2	1	0.947237	0.947237	0	1	0	0	CorrectCommission	1.285632	0.913691	0
39.458118	0.796129	city	9	1	0.854851	0.854851	0	1	0	0	CorrectCommission	0.442525	0.919238	0
40.253933	0.795496	city	4	1	0.947405	0.947405	0	1	0	0	CorrectCommission	1.287168	0.920875	0
41.049732	0.796102	city	1	1	0.897903	0.897903	0	1	0	0	CorrectCommission	0.835413	0.920971	0
41.845688	0.795808	city	10	1	0.900040	0.900040	0	1	0	0	CorrectCommission	0.854921	0.922164	0
42.641350	0.795517	city	7	1	0.897200	0.897200	0	1	0	0	CorrectCommission	0.829001	0.927007	0
43.437134	0.796052	city	6	1	0.814305	0.814305	0	1	0	0	CorrectCommission	0.072509	0.937562	0
44.232937	0.795558	city	9	1	0.754366	0.754366	0	1	0	0	CorrectCommission	0.474493	0.955141	0
45.028606	0.795780	city	5	1	0.798443	0.798443	0	1	0	0	CorrectCommission	0.072248	0.980083	0
45.824406	0.795814	city	6	1	0.946996	0.946996	0	1	0	0	CorrectCommission	1.283437	1.011772	0
46.620205	0.795787	city	2	1	0.997498	0.997498	0	1	0	0	CorrectCommission	1.744311	1.048660	0
47.416012	0.795827	city	4	1	0.947438	0.947438	0	1	0	0	CorrectCommission	1.287472	1.088542	0
48.211956	0.796060	city	10	1	0.848228	0.848228	0	1	0	0	CorrectCommission	0.382084	1.128824	0
49.007896	0.795821	city	1	1	0.996702	0.996702	0	1	0	0	CorrectCommission	1.737054	1.166763	0
49.803574	0.795536	city	5	1	0.946975	0.946975	0	1	0	0	CorrectCommission	1.283248	1.199735	0
50.599216	0.795749	city	3	1	0.965542	0.965542	0	1	0	0	CorrectCommission	1.452681	1.225497	0
51.395145	0.796112	city	7	1	1.002195	1.002195	0	1	0	0	CorrectCommission	1.787179	1.242372	0
52.190926	0.795447	city	6	1	0.953790	0.953790	0	1	0	0	CorrectCommission	1.345434	1.249342	0
52.986576	0.795859	city	3	1	0.897462	0.897462	0	1	0	0	CorrectCommission	0.831393	1.246162	0
53.782413	0.795814	mountain	10	0	0.000000	0.672694	1	0	0	0	CorrectOmission	1.219832	1.233269	0
54.578190	0.795740	city	9	1	0.499797	0.499797	0	1	0	0	CorrectCommission	2.797679	1.211785	0
55.373966	0.795806	city	8	1	0.599084	0.599084	0	1	0	0	CorrectCommission	1.891588	1.183264	0
56.169811	0.795887	city	7	1	0.755086	0.755086	0	1	0	0	CorrectCommission	0.467927	1.149666	0
56.965775	0.796038	city	1	1	0.807435	0.807435	0	1	0	0	CorrectCommission	0.009806	1.113109	0
57.761681	0.795777	city	4	1	0.897344	0.897344	0	1	0	0	CorrectCommission	0.830311	1.075561	0
58.557343	0.795548	city	7	1	1.005794	1.005794	0	1	0	0	CorrectCommission	1.820024	1.038711	0
59.353161	0.796089	city	5	1	0.748073	0.748073	0	1	0	0	CorrectCommission	0.531927	1.003862	0
60.148979	0.795549	city	4	1	0.946666	0.946666	0	1	0	0	CorrectCommission	1.280423	0.971938	0
60.944775	0.796041	city	2	1	0.748256	0.748256	0	1	0	0	CorrectCommission	0.530257	0.943377	0
61.740707	0.795827	city	9	1	0.863647	0.863647	0	1	0	0	CorrectCommission	0.522793	0.918280	0
62.536350	0.795455	city	5	1	0.716880	0.716880	0	1	0	0	CorrectCommission	0.816590	0.896481	0
63.331989	0.795823	city	6	1	0.904343	0.904343	0	1	0	0	CorrectCommission	0.894189	0.877620	0
64.127968	0.796142	mountain	1	0	0.000000	0.724518	1	0	0	0	CorrectOmission	0.746886	0.861338	0
64.923805	0.795532	city	10	1	0.551068	0.551068	0	1	0	0	CorrectCommission	2.329781	0.847423	0
65.719460	0.795779	city	4	1	0.757657	0.757657	0	1	0	0	CorrectCommission	0.444465	0.835793	0
66.515244	0.795775	city	8	1	0.748325	0.748325	0	1	0	0	CorrectCommission	0.529625	0.826612	0
67.311028	0.795806	city	9	1	0.757785	0.757785	0	1	0	0	CorrectCommission	0.443289	0.820111	0
68.106804	0.795742	city	7	1	0.748494	0.748494	0	1	0	0	CorrectCommission	0.528081	0.816552	0
68.902603	0.795851	mountain	9	0	0.000000	0.734119	1	0	0	0	CorrectOmission	0.659272	0.816075	0
69.698433	0.795812	city	2	1	0.716870	0.716870	0	1	0	0	CorrectCommission	0.816684	0.818622	0
70.494240	0.795802	city	8	1	0.698958	0.698958	0	1	0	0	CorrectCommission	0.980141	0.823847	0
71.290016	0.795750	city	3	1	0.915368	0.915368	0	1	0	0	CorrectCommission	0.994802	0.831064	0
72.085953	0.796132	city	10	1	0.710145	0.710145	0	1	0	0	CorrectCommission	0.878051	0.839283	0
72.881752	0.795466	city	5	1	0.859656	0.859656	0	1	0	0	CorrectCommission	0.486380	0.847256	0
73.677437	0.795898	city	8	1	0.866495	0.866495	0	1	0	0	CorrectCommission	0.548789	0.853673	0
74.473244	0.795716	city	7	1	0.897625	0.897625	0	1	0	0	CorrectCommission	0.832882	0.857272	0
75.269188	0.796169	city	3	1	0.897730	0.897730	0	1	0	0	CorrectCommission	0.833838	0.856986	0
76.065010	0.795480	city	6	1	0.955654	0.955654	0	1	0	0	CorrectCommission	1.362447	0.852113	0
76.860657	0.795817	city	5	1	0.997564	0.997564	0	1	0	0	CorrectCommission	1.744914	0.842459	0
77.656456	0.795776	city	9	1	0.996945	0.996945	0	1	0	0	CorrectCommission	1.739268	0.828341	0
78.452393	0.796097	city	7	1	0.848585	0.848585	0	1	0	0	CorrectCommission	0.385340	0.810580	0
79.248199	0.795517	city	9	1	0.811765	0.811765	0	1	0	0	CorrectCommission	0.049322	0.790400	0
80.044014	0.796110	city	2	1	0.898463	0.898463	0	1	0	0	CorrectCommission	0.840530	0.769152	1
80.839798	0.795457	city	3	1	0.897258	0.897258	0	1	0	0	CorrectCommission	0.829532	0.748108	1
81.635445	0.795838	city	7	1	0.847679	0.847679	0	1	0	0	CorrectCommission	0.377077	0.728342	1
82.431274	0.795830	city	10	1	0.847472	0.847472	0	1	0	0	CorrectCommission	0.375186	0.710551	1
83.227089	0.795794	city	7	1	0.856841	0.856841	0	1	0	0	CorrectCommission	0.460689	0.695082	1
84.022888	0.795802	city	6	1	0.860417	0.860417	0	1	0	0	CorrectCommission	0.493321	0.681889	1
84.818832	0.796095	city	3	1	0.898294	0.898294	0	1	0	0	CorrectCommission	0.838983	0.670699	1
85.614632	0.795495	city	10	1	0.900947	0.900947	0	1	0	0	CorrectCommission	0.863197	0.661140	1
86.410278	0.795809	city	9	1	0.748773	0.748773	0	1	0	0	CorrectCommission	0.525538	0.652971	1
87.206093	0.795820	city	5	1	0.600114	0.600114	0	1	0	0	CorrectCommission	1.882193	0.646134	1
88.002037	0.796064	city	2	1	0.763764	0.763764	0	1	0	0	CorrectCommission	0.388725	0.640841	1
88.797836	0.795539	city	10	1	0.853764	0.853764	0	1	0	0	CorrectCommission	0.432606	0.637653	1
89.593491	0.795766	mountain	7	0	0.000000	0.865195	1	0	0	0	CorrectOmission	0.536923	0.637242	1
90.389244	0.795745	city	6	1	0.847792	0.847792	0	1	0	0	CorrectCommission	0.378106	0.640342	1
91.185204	0.796164	city	4	1	0.851290	0.851290	0	1	0	0	CorrectCommission	0.410031	0.647558	1
91.981010	0.795448	city	7	1	0.797592	0.797592	0	1	0	0	CorrectCommission	0.080019	0.659216	1
92.776657	0.795843	city	10	1	0.748525	0.748525	0	1	0	0	CorrectCommission	0.527798	0.675285	1
93.572624	0.796092	city	5	1	0.847697	0.847697	0	1	0	0	CorrectCommission	0.377239	0.695231	1
94.368423	0.795518	city	9	1	0.897674	0.897674	0	1	0	0	CorrectCommission	0.833326	0.718162	1
95.164078	0.795791	mountain	8	0	0.000000	0.936298	1	0	0	0	CorrectOmission	1.185807	0.742871	1
95.959900	0.795845	mountain	3	0	0.000000	0.935014	1	0	0	0	CorrectOmission	1.174090	0.767993	1
96.755730	0.795817	city	5	1	0.865267	0.865267	0	1	0	0	CorrectCommission	0.537583	0.792160	0
97.551529	0.795772	city	3	1	0.698502	0.698502	0	1	0	0	CorrectCommission	0.984306	0.814089	0
98.347328	0.795834	city	2	1	0.648889	0.648889	0	1	0	0	CorrectCommission	1.437076	0.832600	0
99.143105	0.795720	city	4	1	0.748695	0.748695	0	1	0	0	CorrectCommission	0.526245	0.846721	0
99.939034	0.796136	city	10	1	0.860859	0.860859	0	1	0	0	CorrectCommission	0.497353	0.855763	0
100.735008	0.795813	city	5	1	0.850724	0.850724	0	1	0	0	CorrectCommission	0.404862	0.859160	0
101.530800	0.795768	city	10	1	0.996811	0.996811	0	1	0	0	CorrectCommission	1.738045	0.856593	0
102.326599	0.795827	city	5	1	0.748086	0.748086	0	1	0	0	CorrectCommission	0.531809	0.847868	0
103.122253	0.795488	city	4	1	0.599225	0.599225	0	1	0	0	CorrectCommission	1.890300	0.833099	0
103.917915	0.795830	mountain	2	0	0.000000	0.682400	1	0	0	0	CorrectOmission	1.131251	0.812625	0
104.713860	0.796059	city	9	1	0.798439	0.798439	0	1	0	0	CorrectCommission	0.072286	0.787064	0
105.509666	0.795562	city	10	1	0.748171	0.748171	0	1	0	0	CorrectCommission	0.531029	0.757399	1
106.305344	0.795796	city	5	1	0.748562	0.748562	0	1	0	0	CorrectCommission	0.527464	0.724859	1
107.101143	0.795790	city	8	1	0.947344	0.947344	0	1	0	0	CorrectCommission	1.286614	0.690967	1
107.896927	0.795780	city	9	1	0.997392	0.997392	0	1	0	0	CorrectCommission	1.743346	0.657392	1
108.692703	0.795784	city	5	1	0.806583	0.806583	0	1	0	0	CorrectCommission	0.002039	0.625859	1
109.488510	0.795828	city	6	1	0.798098	0.798098	0	1	0	0	CorrectCommission	0.075400	0.598077	1
110.284332	0.795816	city	10	1	0.748326	0.748326	0	1	0	0	CorrectCommission	0.529617	0.575377	1
111.080132	0.795783	city	1	1	0.812317	0.812317	0	1	0	0	CorrectCommission	0.054367	0.558666	1
111.875931	0.795806	city	5	1	0.847779	0.847779	0	1	0	0	CorrectCommission	0.377982	0.548234	1
112.671753	0.795842	city	8	1	0.864329	0.864329	0	1	0	0	CorrectCommission	0.529020	0.543708	1
113.467522	0.795696	city	2	1	0.799282	0.799282	0	1	0	0	CorrectCommission	0.064592	0.544104	1
114.263298	0.795854	city	10	1	0.804327	0.804327	0	1	0	0	CorrectCommission	0.018550	0.547984	1
115.059143	0.795840	city	3	1	0.947467	0.947467	0	1	0	0	CorrectCommission	1.287735	0.553593	1
115.854965	0.795796	mountain	9	0	0.000000	0.791170	1	0	0	0	CorrectOmission	0.138622	0.559105	1
116.650742	0.795758	city	10	1	0.664670	0.664670	0	1	0	0	CorrectCommission	1.293053	0.563007	1
117.446686	0.796131	city	9	1	0.897201	0.897201	0	1	0	0	CorrectCommission	0.829006	0.564174	1
118.242508	0.795515	city	5	1	0.861395	0.861395	0	1	0	0	CorrectCommission	0.502242	0.562153	1
119.038147	0.795766	city	9	1	0.997110	0.997110	0	1	0	0	CorrectCommission	1.740773	0.557101	1
119.833931	0.795804	city	4	1	0.748480	0.748480	0	1	0	0	CorrectCommission	0.528213	0.549795	1
120.629745	0.795818	city	10	1	0.798487	0.798487	0	1	0	0	CorrectCommission	0.071850	0.541433	1
121.425522	0.795731	city	8	1	0.798103	0.798103	0	1	0	0	CorrectCommission	0.075351	0.533408	1
122.221458	0.796143	city	6	1	0.759610	0.759610	0	1	0	0	CorrectCommission	0.426642	0.527065	1
123.017296	0.795539	city	2	1	0.797521	0.797521	0	1	0	0	CorrectCommission	0.080667	0.523416	1
123.813103	0.796080	city	5	1	0.798470	0.798470	0	1	0	0	CorrectCommission	0.072005	0.523046	1
124.608910	0.795521	city	1	1	0.848012	0.848012	0	1	0	0	CorrectCommission	0.380117	0.526028	1
125.404549	0.795770	city	5	1	0.848291	0.848291	0	1	0	0	CorrectCommission	0.382655	0.531848	1
126.200333	0.795788	city	7	1	0.997079	0.997079	0	1	0	0	CorrectCommission	1.740488	0.539670	1
126.996147	0.795841	city	9	1	0.798788	0.798788	0	1	0	0	CorrectCommission	0.069099	0.548375	1
127.791977	0.795823	city	1	1	0.748737	0.748737	0	1	0	0	CorrectCommission	0.525869	0.556875	1
128.587753	0.795733	city	4	1	0.897610	0.897610	0	1	0	0	CorrectCommission	0.832739	0.564125	1
129.383514	0.795777	city	2	1	0.897298	0.897298	0	1	0	0	CorrectCommission	0.829892	0.569322	1
130.220932	0.879061	city	8	1	0.755685	0.755685	0	1	0	0	CorrectCommission	0.462460	0.571952	1
131.058350	0.795770	city	2	1	0.698684	0.698684	0	1	0	0	CorrectCommission	0.982645	0.571854	1
131.854004	0.795558	city	9	1	0.798317	0.798317	0	1	0	0	CorrectCommission	0.073403	0.569072	1
132.649643	0.795724	city	8	1	0.751956	0.751956	0	1	0	0	CorrectCommission	0.496493	0.563920	1
133.445450	0.795874	city	4	1	0.848528	0.848528	0	1	0	0	CorrectCommission	0.384827	0.556818	1
134.241287	0.795816	city	5	1	0.754678	0.754678	0	1	0	0	CorrectCommission	0.471649	0.548287	1
135.037109	0.795806	city	4	1	1.003515	1.003515	0	1	0	0	CorrectCommission	1.799224	0.538918	1
135.833038	0.796062	city	5	1	0.812184	0.812184	0	1	0	0	CorrectCommission	0.053150	0.529279	1
136.628830	0.795527	city	6	1	0.798199	0.798199	0	1	0	0	CorrectCommission	0.074476	0.520038	1
137.424454	0.795717	city	2	1	0.764601	0.764601	0	1	0	0	CorrectCommission	0.381090	0.511830	1
138.220230	0.795818	mountain	7	0	0.000000	0.839607	1	0	0	0	CorrectOmission	0.303407	0.505323	1
139.016205	0.796151	city	4	1	0.848397	0.848397	0	1	0	0	CorrectCommission	0.383628	0.501194	1
139.812027	0.795491	city	1	1	0.616154	0.616154	0	1	0	0	CorrectCommission	1.735813	0.500053	1
140.607651	0.795742	city	4	1	0.798224	0.798224	0	1	0	0	CorrectCommission	0.074254	0.502377	1
141.403458	0.795892	city	2	1	0.798143	0.798143	0	1	0	0	CorrectCommission	0.074992	0.508595	1
142.199295	0.795771	city	1	1	0.764373	0.764373	0	1	0	0	CorrectCommission	0.383170	0.518816	1
142.995239	0.796115	city	9	1	0.848275	0.848275	0	1	0	0	CorrectCommission	0.382516	0.532861	1
143.791183	0.795774	city	10	1	0.808621	0.808621	0	1	0	0	CorrectCommission	0.020634	0.550172	1
144.586823	0.795511	mountain	3	0	0.000000	0.744680	1	0	0	0	CorrectOmission	0.562889	0.569919	1
145.382477	0.795798	city	10	1	0.757545	0.757545	0	1	0	0	CorrectCommission	0.445480	0.590959	1
146.178299	0.795854	city	3	1	0.948311	0.948311	0	1	0	0	CorrectCommission	1.295433	0.612019	1
146.974258	0.796047	mountain	2	0	0.000000	0.796857	1	0	0	0	CorrectOmission	0.086727	0.631765	1
147.770035	0.795502	city	8	1	0.648302	0.648302	0	1	0	0	CorrectCommission	1.442428	0.649069	1
148.565842	0.796114	city	9	1	0.847765	0.847765	0	1	0	0	CorrectCommission	0.377863	0.662937	1
149.361664	0.795530	city	1	1	0.698707	0.698707	0	1	0	0	CorrectCommission	0.982435	0.672897	1
150.157318	0.795794	city	10	1	0.650971	0.650971	0	1	0	0	CorrectCommission	1.418067	0.678818	1
150.953110	0.795775	city	1	1	0.748324	0.748324	0	1	0	0	CorrectCommission	0.529633	0.680963	1
151.748901	0.795808	city	8	1	0.748274	0.748274	0	1	0	0	CorrectCommission	0.530091	0.680020	1
152.544708	0.795820	city	10	1	0.801194	0.801194	0	1	0	0	CorrectCommission	0.047147	0.676898	1
153.340668	0.796082	city	3	1	0.897847	0.897847	0	1	0	0	CorrectCommission	0.834906	0.672759	1
154.136612	0.795813	city	6	1	0.911610	0.911610	0	1	0	0	CorrectCommission	0.960502	0.668778	1
154.932236	0.795442	city	1	1	0.747807	0.747807	0	1	0	0	CorrectCommission	0.534353	0.666119	1
155.727859	0.795791	city	7	1	0.847900	0.847900	0	1	0	0	CorrectCommission	0.379087	0.665856	1
156.523697	0.795894	city	3	1	0.705256	0.705256	0	1	0	0	CorrectCommission	0.922668	0.668844	1
157.319504	0.795707	city	1	1	0.748856	0.748856	0	1	0	0	CorrectCommission	0.524779	0.675602	1
158.115280	0.795850	city	6	1	0.898376	0.898376	0	1	0	0	CorrectCommission	0.839733	0.686387	1
158.911255	0.796101	city	4	1	0.862089	0.862089	0	1	0	0	CorrectCommission	0.508577	0.701040	1
159.707062	0.795528	city	7	1	0.847566	0.847566	0	1	0	0	CorrectCommission	0.376047	0.719047	1
160.502716	0.795776	city	8	1	0.848159	0.848159	0	1	0	0	CorrectCommission	0.381453	0.739498	1
161.298523	0.795849	city	9	1	0.698287	0.698287	0	1	0	0	CorrectCommission	0.986268	0.761175	1
162.094360	0.795799	city	2	1	0.909157	0.909157	0	1	0	0	CorrectCommission	0.938120	0.782741	0
162.890121	0.795726	city	7	1	0.848764	0.848764	0	1	0	0	CorrectCommission	0.386975	0.802778	0
163.686050	0.796143	city	2	1	0.797762	0.797762	0	1	0	0	CorrectCommission	0.078469	0.820108	0
164.481857	0.795474	city	9	1	0.601008	0.601008	0	1	0	0	CorrectCommission	1.874027	0.833998	0
165.277481	0.795782	city	5	1	0.558979	0.558979	0	1	0	0	CorrectCommission	2.257586	0.844143	0
166.073456	0.796158	city	2	1	0.698614	0.698614	0	1	0	0	CorrectCommission	0.983288	0.851011	0
166.869293	0.795504	mountain	6	0	0.000000	0.853724	1	0	0	0	CorrectOmission	0.432240	0.855770	0
167.664932	0.795797	city	3	1	0.897725	0.897725	0	1	0	0	CorrectCommission	0.833790	0.860129	0
168.460754	0.795832	city	9	1	0.704031	0.704031	0	1	0	0	CorrectCommission	0.933845	0.866195	0
169.256531	0.795713	city	8	1	0.763303	0.763303	0	1	0	0	CorrectCommission	0.392939	0.876173	0
170.052322	0.795888	mountain	7	0	0.000000	0.850056	1	0	0	0	CorrectOmission	0.398764	0.892090	0
170.848175	0.795803	city	4	1	0.901439	0.901439	0	1	0	0	CorrectCommission	0.867681	0.915401	0
171.643951	0.795769	city	5	1	0.854599	0.854599	0	1	0	0	CorrectCommission	0.440228	0.946713	0
172.439758	0.795828	city	10	1	0.909859	0.909859	0	1	0	0	CorrectCommission	0.944523	0.985724	0
173.235580	0.795807	city	2	1	0.898397	0.898397	0	1	0	0	CorrectCommission	0.839924	1.031039	0
174.031387	0.795815	mountain	1	0	0.000000	0.728545	1	0	0	0	CorrectOmission	0.710137	1.080294	0
174.827179	0.795785	city	3	1	0.649309	0.649309	0	1	0	0	CorrectCommission	1.433241	1.130380	0
175.622986	0.795820	city	6	1	0.909696	0.909696	0	1	0	0	CorrectCommission	0.943036	1.177629	0
176.418747	0.795705	city	7	1	0.848265	0.848265	0	1	0	0	CorrectCommission	0.382419	1.218350	0
177.214539	0.795883	city	4	1	1.195672	1.195672	0	1	0	0	CorrectCommission	3.552836	1.249171	0
178.010376	0.795770	city	1	1	0.847443	0.847443	0	1	0	0	CorrectCommission	0.374921	1.267296	0
178.806137	0.795752	city	8	1	0.598906	0.598906	0	1	0	0	CorrectCommission	1.893210	1.271163	0
179.602036	0.796056	city	4	1	0.500742	0.500742	0	1	0	0	CorrectCommission	2.789052	1.260302	0
180.398010	0.795890	city	9	1	0.598959	0.598959	0	1	0	0	CorrectCommission	1.892731	1.235554	0
181.193680	0.795466	city	3	1	0.599234	0.599234	0	1	0	0	CorrectCommission	1.890218	1.199012	0
181.989334	0.795832	city	6	1	0.748326	0.748326	0	1	0	0	CorrectCommission	0.529617	1.153612	0
182.785187	0.795860	city	9	1	0.798116	0.798116	0	1	0	0	CorrectCommission	0.075231	1.102814	0
183.581131	0.796033	city	2	1	0.897550	0.897550	0	1	0	0	CorrectCommission	0.832198	1.050184	0
184.376877	0.795467	city	7	1	0.897028	0.897028	0	1	0	0	CorrectCommission	0.827435	0.998927	0
185.172562	0.795890	city	6	1	0.701288	0.701288	0	1	0	0	CorrectCommission	0.958886	0.951646	0
185.968384	0.795757	city	4	1	0.698983	0.698983	0	1	0	0	CorrectCommission	0.979913	0.910066	0
186.764160	0.795820	city	7	1	0.797766	0.797766	0	1	0	0	CorrectCommission	0.078431	0.875032	0
187.559998	0.795837	city	3	1	0.699106	0.699106	0	1	0	0	CorrectCommission	0.978794	0.846576	0
188.355804	0.795775	city	7	1	0.752718	0.752718	0	1	0	0	CorrectCommission	0.489534	0.824014	0
189.151733	0.796085	city	3	1	0.748679	0.748679	0	1	0	0	CorrectCommission	0.526394	0.806319	0
189.947525	0.795504	city	6	1	0.962065	0.962065	0	1	0	0	CorrectCommission	1.420958	0.792361	0
190.743164	0.795766	city	4	1	0.748284	0.748284	0	1	0	0	CorrectCommission	0.530001	0.781106	1
191.538956	0.795834	city	5	1	0.658699	0.658699	0	1	0	0	CorrectCommission	1.347546	0.771994	1
192.334930	0.796102	city	10	1	0.652522	0.652522	0	1	0	0	CorrectCommission	1.403921	0.764852	1
193.130707	0.795464	city	9	1	0.699424	0.699424	0	1	0	0	CorrectCommission	0.975889	0.759979	1
193.926498	0.796123	city	5	1	0.798598	0.798598	0	1	0	0	CorrectCommission	0.070836	0.758072	1
194.722321	0.795516	city	3	1	0.848006	0.848006	0	1	0	0	CorrectCommission	0.380061	0.759853	1
195.518143	0.796104	mountain	4	0	0.000000	0.784539	1	0	0	0	CorrectOmission	0.199135	0.765987	1
196.314087	0.795809	city	3	1	0.765223	0.765223	0	1	0	0	CorrectCommission	0.375413	0.776734	1
197.109894	0.795786	city	7	1	0.947084	0.947084	0	1	0	0	CorrectCommission	1.284241	0.791797	0
197.905563	0.795549	city	5	1	0.851567	0.851567	0	1	0	0	CorrectCommission	0.412555	0.810306	0
198.701218	0.795762	city	3	1	0.897204	0.897204	0	1	0	0	CorrectCommission	0.829035	0.830782	0
199.496994	0.795810	city	1	1	0.748358	0.748358	0	1	0	0	CorrectCommission	0.529324	0.851309	0
200.292816	0.795829	city	3	1	0.958921	0.958921	0	1	0	0	CorrectCommission	1.392259	0.869757	0
201.088760	0.796066	city	2	1	0.707884	0.707884	0	1	0	0	CorrectCommission	0.898687	0.883981	0
201.884567	0.795521	mountain	6	0	0.000000	0.670019	1	0	0	0	CorrectOmission	1.244238	0.892244	0
202.680206	0.795785	city	1	1	0.699086	0.699086	0	1	0	0	CorrectCommission	0.978975	0.893356	0
203.476028	0.795841	city	8	1	0.648844	0.648844	0	1	0	0	CorrectCommission	1.437479	0.886903	0
204.271973	0.796058	city	7	1	0.705130	0.705130	0	1	0	0	CorrectCommission	0.923823	0.873319	0
205.067734	0.795467	city	5	1	0.608049	0.608049	0	1	0	0	CorrectCommission	1.809779	0.853860	0
205.863403	0.795863	city	9	1	0.847887	0.847887	0	1	0	0	CorrectCommission	0.378970	0.830427	0
206.659241	0.795813	city	8	1	0.698611	0.698611	0	1	0	0	CorrectCommission	0.983311	0.805395	0
207.455002	0.795718	city	2	1	0.699855	0.699855	0	1	0	0	CorrectCommission	0.971962	0.781119	1
208.250793	0.795861	city	8	1	0.798494	0.798494	0	1	0	0	CorrectCommission	0.071789	0.759740	1
209.046616	0.795792	mountain	2	0	0.000000	0.821793	1	0	0	0	CorrectOmission	0.140844	0.742854	1
209.842392	0.795750	city	4	1	0.797864	0.797864	0	1	0	0	CorrectCommission	0.077531	0.731223	1
210.638336	0.796152	city	5	1	0.754817	0.754817	0	1	0	0	CorrectCommission	0.470383	0.724742	1
211.434326	0.795810	city	1	1	0.797478	0.797478	0	1	0	0	CorrectCommission	0.081056	0.722469	1
212.229950	0.795441	city	2	1	0.896988	0.896988	0	1	0	0	CorrectCommission	0.827066	0.722820	1
213.025620	0.795889	city	1	1	1.096454	1.096454	0	1	0	0	CorrectCommission	2.647376	0.723759	1
213.821594	0.796079	city	5	1	0.848832	0.848832	0	1	0	0	CorrectCommission	0.387599	0.723092	1
214.617371	0.795451	city	9	1	0.905722	0.905722	0	1	0	0	CorrectCommission	0.906775	0.718927	1
215.413010	0.795843	city	4	1	0.766540	0.766540	0	1	0	0	CorrectCommission	0.363400	0.709723	1
216.208832	0.795797	city	6	1	0.748333	0.748333	0	1	0	0	CorrectCommission	0.529553	0.694638	1
217.004639	0.795821	city	3	1	0.648675	0.648675	0	1	0	0	CorrectCommission	1.439021	0.673456	1
217.800461	0.795817	city	9	1	0.666891	0.666891	0	1	0	0	CorrectCommission	1.272783	0.646696	1
218.596390	0.796050	mountain	9	0	0.000000	0.739410	1	0	0	0	CorrectOmission	0.610985	0.615630	1
219.392334	0.795832	city	3	1	0.804127	0.804127	0	1	0	0	CorrectCommission	0.020380	0.582056	1
220.187958	0.795434	city	2	1	0.798939	0.798939	0	1	0	0	CorrectCommission	0.067722	0.548246	1
220.983612	0.795867	city	8	1	0.909990	0.909990	0	1	0	0	CorrectCommission	0.945720	0.516712	1
221.779449	0.795792	city	9	1	0.857328	0.857328	0	1	0	0	CorrectCommission	0.465129	0.490072	1
222.575378	0.796081	city	8	1	0.847461	0.847461	0	1	0	0	CorrectCommission	0.375084	0.470919	1
223.371323	0.795813	city	3	1	0.797729	0.797729	0	1	0	0	CorrectCommission	0.078764	0.461568	1
224.166992	0.795507	city	2	1	0.748460	0.748460	0	1	0	0	CorrectCommission	0.528396	0.463874	1
224.962784	0.796092	city	7	1	0.798439	0.798439	0	1	0	0	CorrectCommission	0.072291	0.479002	1
225.758621	0.795562	city	10	1	0.814189	0.814189	0	1	0	0	CorrectCommission	0.071446	0.507345	1
226.554245	0.795708	city	9	1	0.798469	0.798469	0	1	0	0	CorrectCommission	0.072013	0.548268	1
227.350006	0.795798	city	5	1	0.748410	0.748410	0	1	0	0	CorrectCommission	0.528850	0.600090	1
228.145828	0.795847	city	4	1	0.749185	0.749185	0	1	0	0	CorrectCommission	0.521778	0.660079	1
228.941681	0.795853	city	8	1	0.798911	0.798911	0	1	0	0	CorrectCommission	0.067984	0.724600	1
229.737488	0.795779	city	9	1	0.848130	0.848130	0	1	0	0	CorrectCommission	0.381186	0.789428	0
230.533264	0.795776	city	4	1	0.847877	0.847877	0	1	0	0	CorrectCommission	0.378885	0.849979	0
231.329208	0.796100	city	1	1	1.096226	1.096226	0	1	0	0	CorrectCommission	2.645304	0.901922	0
232.125015	0.795516	city	4	1	0.758154	0.758154	0	1	0	0	CorrectCommission	0.439925	0.941496	0
232.920670	0.795789	city	9	1	0.567186	0.567186	0	1	0	0	CorrectCommission	2.182684	0.966154	0
233.716446	0.795775	city	10	1	0.450414	0.450414	0	1	0	0	CorrectCommission	3.248339	0.974574	0
234.512238	0.795798	city	7	1	0.698245	0.698245	0	1	0	0	CorrectCommission	0.986651	0.966942	0
235.308075	0.795871	city	3	1	0.698771	0.698771	0	1	0	0	CorrectCommission	0.981848	0.944983	0
236.103882	0.795758	city	1	1	0.757906	0.757906	0	1	0	0	CorrectCommission	0.442193	0.911501	0
236.899673	0.795824	city	10	1	0.847451	0.847451	0	1	0	0	CorrectCommission	0.374991	0.870111	0
237.695480	0.795787	city	2	1	0.648494	0.648494	0	1	0	0	CorrectCommission	1.440680	0.824696	0
238.491241	0.795741	city	9	1	0.802249	0.802249	0	1	0	0	CorrectCommission	0.037520	0.778867	1
239.287018	0.795812	city	7	1	0.816932	0.816932	0	1	0	0	CorrectCommission	0.096481	0.735773	1
240.082870	0.795877	city	5	1	0.848113	0.848113	0	1	0	0	CorrectCommission	0.381033	0.697632	1
240.878708	0.795794	city	2	1	0.901901	0.901901	0	1	0	0	CorrectCommission	0.871903	0.665643	1
241.674469	0.795726	city	1	1	0.847559	0.847559	0	1	0	0	CorrectCommission	0.375979	0.640007	1
242.470245	0.795843	city	6	1	0.847652	0.847652	0	1	0	0	CorrectCommission	0.376829	0.620162	1
243.266068	0.795808	city	7	1	0.913582	0.913582	0	1	0	0	CorrectCommission	0.978505	0.604959	1
244.061981	0.796014	mountain	1	0	0.000000	0.816772	1	0	0	0	CorrectOmission	0.095018	0.592955	1
244.857758	0.795546	city	6	1	0.698141	0.698141	0	1	0	0	CorrectCommission	0.987602	0.582769	1
245.653458	0.795845	city	7	1	0.698609	0.698609	0	1	0	0	CorrectCommission	0.983327	0.573195	1
246.449417	0.796080	city	2	1	0.748009	0.748009	0	1	0	0	CorrectCommission	0.532509	0.563511	1
247.245361	0.795813	city	1	1	0.947433	0.947433	0	1	0	0	CorrectCommission	1.287423	0.553426	1
248.041046	0.795544	city	8	1	0.847299	0.847299	0	1	0	0	CorrectCommission	0.373602	0.543080	1
248.836853	0.796066	city	1	1	0.807148	0.807148	0	1	0	0	CorrectCommission	0.007186	0.532894	1
249.632614	0.795456	mountain	7	0	0.000000	0.765208	1	0	0	0	CorrectOmission	0.375552	0.523512	1
250.428421	0.796162	city	3	1	0.751978	0.751978	0	1	0	0	CorrectCommission	0.496288	0.515532	1
251.224228	0.795464	city	1	1	0.797956	0.797956	0	1	0	0	CorrectCommission	0.076695	0.509389	1
252.019897	0.795853	city	7	1	0.751246	0.751246	0	1	0	0	CorrectCommission	0.502964	0.505450	1
252.815689	0.795733	city	1	1	0.764767	0.764767	0	1	0	0	CorrectCommission	0.379577	0.503842	1
253.611481	0.795846	city	9	1	0.801305	0.801305	0	1	0	0	CorrectCommission	0.046135	0.504585	1
254.407303	0.795805	city	8	1	0.946979	0.946979	0	1	0	0	CorrectCommission	1.283283	0.507649	1
255.203125	0.795845	city	9	1	0.947005	0.947005	0	1	0	0	CorrectCommission	1.283519	0.512928	1
255.998947	0.795786	city	1	1	0.847814	0.847814	0	1	0	0	CorrectCommission	0.378303	0.520432	1
256.794708	0.795775	city	6	1	0.797713	0.797713	0	1	0	0	CorrectCommission	0.078915	0.530254	1
257.590668	0.796094	city	10	1	0.847541	0.847541	0	1	0	0	CorrectCommission	0.375817	0.542474	1
258.386444	0.795508	city	8	1	0.755274	0.755274	0	1	0	0	CorrectCommission	0.466213	0.557093	1
259.182098	0.795792	city	3	1	0.766673	0.766673	0	1	0	0	CorrectCommission	0.362183	0.574007	1
259.977905	0.795813	city	1	1	0.848395	0.848395	0	1	0	0	CorrectCommission	0.383613	0.592945	1
260.773712	0.795768	city	6	1	0.804317	0.804317	0	1	0	0	CorrectCommission	0.018642	0.613375	1
261.569489	0.795831	city	3	1	0.947274	0.947274	0	1	0	0	CorrectCommission	1.285976	0.634627	1
262.365295	0.795754	city	2	1	0.847804	0.847804	0	1	0	0	CorrectCommission	0.378211	0.655816	1
263.161224	0.796103	city	3	1	0.947747	0.947747	0	1	0	0	CorrectCommission	1.290287	0.676059	1
263.957184	0.795829	city	7	1	0.912396	0.912396	0	1	0	0	CorrectCommission	0.967678	0.694461	1
264.752869	0.795543	city	4	1	0.897665	0.897665	0	1	0	0	CorrectCommission	0.833242	0.710297	1
265.548523	0.795743	city	8	1	0.711379	0.711379	0	1	0	0	CorrectCommission	0.866793	0.723039	1
266.344330	0.795878	mountain	3	0	0.000000	0.803428	1	0	0	0	CorrectOmission	0.026756	0.732430	1
267.140137	0.795768	city	6	1	0.897490	0.897490	0	1	0	0	CorrectCommission	0.831649	0.738468	1
267.935944	0.795825	city	9	1	0.717242	0.717242	0	1	0	0	CorrectCommission	0.813284	0.741322	1
268.731720	0.795719	city	3	1	0.712357	0.712357	0	1	0	0	CorrectCommission	0.857865	0.741373	1
269.527496	0.795850	city	6	1	0.899642	0.899642	0	1	0	0	CorrectCommission	0.851288	0.739098	1
270.323334	0.795806	city	2	1	0.947251	0.947251	0	1	0	0	CorrectCommission	1.285765	0.735029	1
271.119141	0.795815	city	6	1	0.897993	0.897993	0	1	0	0	CorrectCommission	0.836239	0.729663	1
271.914948	0.795823	mountain	9	0	0.000000	0.876190	1	0	0	0	CorrectOmission	0.637266	0.723373	1
272.710754	0.795785	city	8	1	0.848413	0.848413	0	1	0	0	CorrectCommission	0.383773	0.716328	1
273.506561	0.795796	mountain	2	0	0.000000	0.781233	1	0	0	0	CorrectOmission	0.229308	0.708497	1
274.302368	0.795822	city	3	1	0.766787	0.766787	0	1	0	0	CorrectCommission	0.361139	0.699647	1
275.098145	0.795718	city	8	1	0.897213	0.897213	0	1	0	0	CorrectCommission	0.829118	0.689372	1
275.894073	0.796143	city	3	1	0.854247	0.854247	0	1	0	0	CorrectCommission	0.437009	0.677198	1
276.689911	0.795530	city	10	1	0.946714	0.946714	0	1	0	0	CorrectCommission	1.280866	0.662787	1
277.485535	0.795738	city	5	1	0.997598	0.997598	0	1	0	0	CorrectCommission	1.745227	0.645915	1
278.281342	0.795889	city	3	1	0.897329	0.897329	0	1	0	0	CorrectCommission	0.830177	0.626675	1
279.077179	0.795759	city	5	1	0.798508	0.798508	0	1	0	0	CorrectCommission	0.071659	0.605476	1
279.872955	0.795804	city	1	1	0.748894	0.748894	0	1	0	0	CorrectCommission	0.524434	0.583049	1
280.668915	0.796109	city	2	1	0.807383	0.807383	0	1	0	0	CorrectCommission	0.009333	0.560263	1
281.464722	0.795525	city	7	1	0.897187	0.897187	0	1	0	0	CorrectCommission	0.828885	0.538139	1
282.260406	0.795824	city	2	1	0.748070	0.748070	0	1	0	0	CorrectCommission	0.531947	0.517618	1
283.056213	0.795776	city	5	1	0.748014	0.748014	0	1	0	0	CorrectCommission	0.532465	0.499505	1
283.851990	0.795820	city	1	1	0.798062	0.798062	0	1	0	0	CorrectCommission	0.075731	0.484402	1
284.647766	0.795709	city	3	1	0.804514	0.804514	0	1	0	0	CorrectCommission	0.016849	0.472626	1
285.443542	0.795843	city	10	1	0.751744	0.751744	0	1	0	0	CorrectCommission	0.498423	0.464225	1
286.239380	0.795820	city	9	1	0.705738	0.705738	0	1	0	0	CorrectCommission	0.918267	0.458982	1
287.035187	0.795808	mountain	2	0	0.000000	0.729879	1	0	0	0	CorrectOmission	0.697965	0.456551	1
287.830994	0.795821	mountain	5	0	0.000000	0.777522	1	0	0	0	CorrectOmission	0.263177	0.456507	1
288.626801	0.795788	city	7	1	0.802025	0.802025	0	1	0	0	CorrectCommission	0.039564	0.458423	1
289.422729	0.796081	city	6	1	0.756745	0.756745	0	1	0	0	CorrectCommission	0.452787	0.461959	1
290.218506	0.795444	city	7	1	0.856700	0.856700	0	1	0	0	CorrectCommission	0.459401	0.466895	1
291.014130	0.795833	city	9	1	0.854543	0.854543	0	1	0	0	CorrectCommission	0.439716	0.473178	1
291.809967	0.795815	city	7	1	0.953656	0.953656	0	1	0	0	CorrectCommission	1.344216	0.480892	1
292.605774	0.795805	city	10	1	0.768433	0.768433	0	1	0	0	CorrectCommission	0.346121	0.490199	1
293.401581	0.795815	city	8	1	0.798595	0.798595	0	1	0	0	CorrectCommission	0.070865	0.501374	1
294.197449	0.795892	city	2	1	0.798010	0.798010	0	1	0	0	CorrectCommission	0.076206	0.514617	1
294.993256	0.795756	city	7	1	0.762262	0.762262	0	1	0	0	CorrectCommission	0.402439	0.529960	1
295.789032	0.795770	mountain	1	0	0.000000	0.866364	1	0	0	0	CorrectOmission	0.547596	0.547252	1
296.584808	0.795789	city	8	1	0.914618	0.914618	0	1	0	0	CorrectCommission	0.987958	0.566110	1
297.380585	0.795785	city	3	1	0.711324	0.711324	0	1	0	0	CorrectCommission	0.867296	0.585878	1
298.176392	0.795815	city	6	1	0.798114	0.798114	0	1	0	0	CorrectCommission	0.075252	0.605722	1
298.972198	0.795809	city	10	1	0.750773	0.750773	0	1	0	0	CorrectCommission	0.507286	0.624613	1
299.768158	0.796083	city	9	1	0.760305	0.760305	0	1	0	0	CorrectCommission	0.420297	0.641418	1
300.564056	0.795757	city	4	1	0.712505	0.712505	0	1	0	0	CorrectCommission	0.856511	0.655077	1
301.359711	0.795546	city	6	1	0.747997	0.747997	0	1	0	0	CorrectCommission	0.532620	0.664728	1
302.155426	0.795844	city	5	1	0.648579	0.648579	0	1	0	0	CorrectCommission	1.439902	0.669865	1
302.951385	0.796081	mountain	6	1	0.649263	0.649263	0	0	1	0	CommissionError	1.433659	0.670378	1
303.747314	0.795786	city	3	1	0.847161	0.847161	0	1	0	0	CorrectCommission	0.372351	0.666674	1
304.542969	0.795549	city	1	1	0.748017	0.748017	0	1	0	0	CorrectCommission	0.532432	0.659670	1
305.338593	0.795701	city	5	1	0.699584	0.699584	0	1	0	0	CorrectCommission	0.974432	0.650657	1
306.134399	0.795869	city	9	1	0.861784	0.861784	0	1	0	0	CorrectCommission	0.505795	0.641245	1
306.930237	0.795805	city	2	1	0.809599	0.809599	0	1	0	0	CorrectCommission	0.029555	0.633197	1
307.726013	0.795801	city	10	1	0.897479	0.897479	0	1	0	0	CorrectCommission	0.831545	0.628232	1
308.521790	0.795747	city	1	1	0.866039	0.866039	0	1	0	0	CorrectCommission	0.544622	0.627828	1
309.317596	0.795845	city	7	1	0.897232	0.897232	0	1	0	0	CorrectCommission	0.829297	0.633131	1
310.113403	0.795775	city	2	1	0.800385	0.800385	0	1	0	0	CorrectCommission	0.054526	0.644880	1
310.909363	0.796124	city	5	1	0.797964	0.797964	0	1	0	0	CorrectCommission	0.076620	0.663425	1
311.705170	0.795515	city	6	1	0.800640	0.800640	0	1	0	0	CorrectCommission	0.052200	0.688637	1
312.500824	0.795783	city	2	1	0.698568	0.698568	0	1	0	0	CorrectCommission	0.983703	0.720016	1
313.296600	0.795770	city	9	1	1.011107	1.011107	0	1	0	0	CorrectCommission	1.868510	0.756737	1
314.092377	0.795787	city	1	1	0.712576	0.712576	0	1	0	0	CorrectCommission	0.855866	0.797732	0
314.888214	0.795893	city	4	1	0.847803	0.847803	0	1	0	0	CorrectCommission	0.378209	0.841820	0
315.684204	0.796076	city	1	1	0.759787	0.759787	0	1	0	0	CorrectCommission	0.425023	0.887664	0
316.480011	0.795511	city	6	1	0.698242	0.698242	0	1	0	0	CorrectCommission	0.986683	0.933838	0
317.275665	0.795824	city	4	1	0.699259	0.699259	0	1	0	0	CorrectCommission	0.977398	0.978850	0
318.071472	0.795772	city	10	1	0.651722	0.651722	0	1	0	0	CorrectCommission	1.411213	1.021203	0
318.867249	0.795784	city	9	1	0.658498	0.658498	0	1	0	0	CorrectCommission	1.349384	1.059434	0
319.663055	0.795827	city	3	1	0.758440	0.758440	0	1	0	0	CorrectCommission	0.437313	1.092186	0
320.458862	0.795802	city	5	1	0.848225	0.848225	0	1	0	0	CorrectCommission	0.382057	1.118324	0
321.254791	0.796072	city	7	1	0.613150	0.613150	0	1	0	0	CorrectCommission	1.763223	1.137015	0
322.050598	0.795505	mountain	2	0	0.000000	0.533272	1	0	0	0	CorrectOmission	2.492181	1.147733	0
322.846252	0.795851	mountain	3	0	0.000000	0.560938	1	0	0	0	CorrectOmission	2.239703	1.150400	0
323.642059	0.795742	city	1	1	0.648494	0.648494	0	1	0	0	CorrectCommission	1.440673	1.145341	0
324.437836	0.795821	city	2	1	0.748286	0.748286	0	1	0	0	CorrectCommission	0.529976	1.133310	0
325.233643	0.795798	city	4	1	0.849280	0.849280	0	1	0	0	CorrectCommission	0.391685	1.115314	0
326.029449	0.795806	city	6	1	0.897166	0.897166	0	1	0	0	CorrectCommission	0.828693	1.092503	0
326.825256	0.795785	city	3	1	0.848218	0.848218	0	1	0	0	CorrectCommission	0.381994	1.066096	0
327.621033	0.795751	city	8	1	0.710279	0.710279	0	1	0	0	CorrectCommission	0.876826	1.037391	0
328.416809	0.795804	city	9	1	0.612289	0.612289	0	1	0	0	CorrectCommission	1.771077	1.007611	0
329.212616	0.795834	city	5	1	0.568008	0.568008	0	1	0	0	CorrectCommission	2.175191	0.977974	0
330.008606	0.796141	city	8	1	0.615432	0.615432	0	1	0	0	CorrectCommission	1.742401	0.949631	0
330.804443	0.795515	city	10	1	0.798010	0.798010	0	1	0	0	CorrectCommission	0.076202	0.923669	0
331.600098	0.795807	city	4	1	0.748756	0.748756	0	1	0	0	CorrectCommission	0.525694	0.901066	0
332.396027	0.796035	city	8	1	0.847714	0.847714	0	1	0	0	CorrectCommission	0.377392	0.882478	0
333.191803	0.795522	city	6	1	0.850050	0.850050	0	1	0	0	CorrectCommission	0.398712	0.868180	0
333.987457	0.795787	mountain	6	0	0.000000	0.771843	1	0	0	0	CorrectOmission	0.314998	0.858022	0
334.783264	0.795850	city	8	1	0.748093	0.748093	0	1	0	0	CorrectCommission	0.531745	0.851440	0
335.579102	0.795816	city	7	1	0.913797	0.913797	0	1	0	0	CorrectCommission	0.980467	0.847523	0
336.375031	0.796074	city	6	1	0.965771	0.965771	0	1	0	0	CorrectCommission	1.454772	0.845130	0
337.170837	0.795533	city	1	1	0.950845	0.950845	0	1	0	0	CorrectCommission	1.318558	0.843084	0
337.966522	0.795798	city	4	1	0.996962	0.996962	0	1	0	0	CorrectCommission	1.739421	0.840332	0
338.762299	0.795784	city	3	1	0.801527	0.801527	0	1	0	0	CorrectCommission	0.044104	0.836026	0
339.558075	0.795780	mountain	1	0	0.000000	0.714737	1	0	0	0	CorrectOmission	0.836143	0.829642	0
340.353882	0.795809	city	9	1	0.710424	0.710424	0	1	0	0	CorrectCommission	0.875505	0.820898	0
341.149689	0.795798	city	6	1	0.762419	0.762419	0	1	0	0	CorrectCommission	0.400999	0.809796	0
341.945465	0.795791	mountain	2	0	0.000000	0.704640	1	0	0	0	CorrectOmission	0.928296	0.796568	0
342.741272	0.795826	city	5	1	0.663065	0.663065	0	1	0	0	CorrectCommission	1.307703	0.781496	0
343.537079	0.795792	city	1	1	0.763676	0.763676	0	1	0	0	CorrectCommission	0.389532	0.764854	1
344.332855	0.795759	city	2	1	0.911491	0.911491	0	1	0	0	CorrectCommission	0.959422	0.746976	1
345.128693	0.795861	mountain	5	0	0.000000	0.794352	1	0	0	0	CorrectOmission	0.109583	0.728008	1
345.924500	0.795775	city	1	1	0.698546	0.698546	0	1	0	0	CorrectCommission	0.983907	0.708074	1
346.720428	0.796084	city	4	1	0.910359	0.910359	0	1	0	0	CorrectCommission	0.949087	0.687169	1
347.516205	0.795481	city	5	1	0.947190	0.947190	0	1	0	0	CorrectCommission	1.285207	0.665325	1
348.311890	0.795878	city	6	1	0.804384	0.804384	0	1	0	0	CorrectCommission	0.018030	0.642659	1
349.107849	0.796073	city	3	1	0.847550	0.847550	0	1	0	0	CorrectCommission	0.375893	0.619448	1
349.903656	0.795502	city	8	1	0.747969	0.747969	0	1	0	0	CorrectCommission	0.532875	0.596060	1
350.699280	0.795740	city	6	1	0.698608	0.698608	0	1	0	0	CorrectCommission	0.983339	0.573082	1
351.495209	0.796143	city	2	1	0.716882	0.716882	0	1	0	0	CorrectCommission	0.816572	0.551244	1
352.291016	0.795469	city	3	1	0.752102	0.752102	0	1	0	0	CorrectCommission	0.495160	0.531432	1
353.086670	0.795828	city	9	1	0.810294	0.810294	0	1	0	0	CorrectCommission	0.035902	0.514574	1
353.882507	0.795855	city	8	1	0.699311	0.699311	0	1	0	0	CorrectCommission	0.976925	0.501575	1
354.678345	0.795812	city	1	1	0.808035	0.808035	0	1	0	0	CorrectCommission	0.015289	0.493186	1
355.474121	0.795748	city	8	1	0.847466	0.847466	0	1	0	0	CorrectCommission	0.375128	0.490064	1
356.269867	0.795758	city	7	1	0.814558	0.814558	0	1	0	0	CorrectCommission	0.074815	0.492621	1
357.065674	0.795837	city	6	1	0.848445	0.848445	0	1	0	0	CorrectCommission	0.384062	0.501045	1
357.861511	0.795812	city	10	1	0.798761	0.798761	0	1	0	0	CorrectCommission	0.069352	0.515252	1
358.657288	0.795763	city	3	1	0.814638	0.814638	0	1	0	0	CorrectCommission	0.075542	0.535020	1
359.453247	0.796150	city	9	1	1.015560	1.015560	0	1	0	0	CorrectCommission	1.909148	0.559909	1
360.249207	0.795801	city	3	1	0.754254	0.754254	0	1	0	0	CorrectCommission	0.475521	0.589271	1
361.044861	0.795514	city	1	1	0.897699	0.897699	0	1	0	0	CorrectCommission	0.833551	0.622469	1
361.840546	0.795832	city	9	1	0.847472	0.847472	0	1	0	0	CorrectCommission	0.375189	0.658611	1
362.636322	0.795717	city	2	1	0.847714	0.847714	0	1	0	0	CorrectCommission	0.377390	0.696730	1
363.432129	0.795873	city	3	1	0.760617	0.760617	0	1	0	0	CorrectCommission	0.417447	0.735589	1
364.227966	0.795811	city	7	1	0.751922	0.751922	0	1	0	0	CorrectCommission	0.496796	0.773809	1
365.023773	0.795798	city	4	1	0.811000	0.811000	0	1	0	0	CorrectCommission	0.042340	0.809877	0
365.819580	0.795814	city	1	1	0.648750	0.648750	0	1	0	0	CorrectCommission	1.438337	0.842347	0
366.615356	0.795763	city	9	1	0.652274	0.652274	0	1	0	0	CorrectCommission	1.406182	0.869845	0
367.411285	0.796088	city	5	1	0.599885	0.599885	0	1	0	0	CorrectCommission	1.884278	0.891337	0
368.207245	0.795819	city	1	1	0.650663	0.650663	0	1	0	0	CorrectCommission	1.420883	0.906194	0
369.002899	0.795531	city	10	1	0.906849	0.906849	0	1	0	0	CorrectCommission	0.917060	0.914330	0
369.798523	0.795714	city	8	1	0.766903	0.766903	0	1	0	0	CorrectCommission	0.360078	0.916199	0
370.594330	0.795892	city	2	1	0.947402	0.947402	0	1	0	0	CorrectCommission	1.287142	0.912733	0
371.390167	0.795792	city	10	1	0.748319	0.748319	0	1	0	0	CorrectCommission	0.529680	0.905186	0
372.185944	0.795725	city	3	1	0.698289	0.698289	0	1	0	0	CorrectCommission	0.986254	0.895079	0
372.981720	0.795844	mountain	9	1	0.748888	0.748888	0	0	1	0	CommissionError	0.524484	0.883887	0
373.777557	0.795799	city	5	1	0.655437	0.655437	0	1	0	0	CorrectCommission	1.377317	0.873104	0
374.573486	0.796104	city	1	1	0.748869	0.748869	0	1	0	0	CorrectCommission	0.524657	0.863970	0
375.369293	0.795486	mountain	9	0	0.000000	0.715894	1	0	0	0	CorrectOmission	0.825587	0.857563	0
376.164948	0.795797	city	2	1	0.702721	0.702721	0	1	0	0	CorrectCommission	0.945800	0.854653	0
376.960724	0.795806	city	8	1	0.855562	0.855562	0	1	0	0	CorrectCommission	0.449010	0.855720	0
377.756561	0.795857	city	1	1	0.960223	0.960223	0	1	0	0	CorrectCommission	1.404144	0.861017	0
378.552521	0.796072	city	2	1	0.797983	0.797983	0	1	0	0	CorrectCommission	0.076453	0.870505	0
379.348450	0.795790	city	4	1	0.867466	0.867466	0	1	0	0	CorrectCommission	0.557648	0.883974	0
380.144257	0.795767	city	7	1	0.901611	0.901611	0	1	0	0	CorrectCommission	0.869257	0.900960	0
380.940033	0.795838	mountain	8	0	0.000000	0.971204	1	0	0	0	CorrectOmission	1.504356	0.920772	0
381.735748	0.795544	city	1	1	0.996380	0.996380	0	1	0	0	CorrectCommission	1.734114	0.942463	0
382.531372	0.795749	city	7	1	0.897276	0.897276	0	1	0	0	CorrectCommission	0.829698	0.964940	0
383.327179	0.795814	city	9	1	0.848177	0.848177	0	1	0	0	CorrectCommission	0.381623	0.986843	0
384.122955	0.795788	city	3	1	0.802104	0.802104	0	1	0	0	CorrectCommission	0.038841	1.006643	0
384.918762	0.795825	city	5	1	0.748259	0.748259	0	1	0	0	CorrectCommission	0.530230	1.022700	0
385.714569	0.795762	mountain	7	1	0.708085	0.708085	0	0	1	0	CommissionError	0.896852	1.033423	0
386.510376	0.795832	city	7	1	1.146226	1.146226	0	1	0	0	CorrectCommission	3.101593	1.037440	0
387.306305	0.796066	city	10	1	1.046550	1.046550	0	1	0	0	CorrectCommission	2.191962	1.033732	0
388.102142	0.795577	city	8	0	0.000000	0.822676	0	0	0	1	OmissionError	0.148896	1.021879	0
388.897797	0.795762	city	1	1	0.648581	0.648581	0	1	0	0	CorrectCommission	1.439878	1.002167	0
389.693604	0.795815	city	9	1	0.698247	0.698247	0	1	0	0	CorrectCommission	0.986635	0.975323	0
390.489532	0.796094	city	7	1	0.918276	0.918276	0	1	0	0	CorrectCommission	1.021341	0.942685	0
391.285370	0.795526	city	9	1	0.752026	0.752026	0	1	0	0	CorrectCommission	0.495853	0.905894	0
392.080994	0.795749	city	1	1	0.663138	0.663138	0	1	0	0	CorrectCommission	1.307040	0.866814	0
392.876923	0.796101	city	9	1	0.848347	0.848347	0	1	0	0	CorrectCommission	0.383174	0.827225	0
393.672882	0.795815	city	3	1	0.698437	0.698437	0	1	0	0	CorrectCommission	0.984899	0.788783	0
394.468536	0.795499	city	6	1	0.798411	0.798411	0	1	0	0	CorrectCommission	0.072538	0.752800	1
395.264313	0.796085	city	2	1	0.897726	0.897726	0	1	0	0	CorrectCommission	0.833799	0.720320	1
396.060089	0.795464	city	3	1	0.857132	0.857132	0	1	0	0	CorrectCommission	0.463339	0.692064	1
396.855774	0.795891	city	8	1	0.797831	0.797831	0	1	0	0	CorrectCommission	0.077835	0.668563	1
397.651581	0.795727	city	6	1	0.997395	0.997395	0	1	0	0	CorrectCommission	1.743377	0.650225	1
398.447357	0.795794	city	3	1	0.748318	0.748318	0	1	0	0	CorrectCommission	0.529687	0.637337	1
399.243164	0.795856	mountain	6	0	0.000000	0.750383	1	0	0	0	CorrectOmission	0.510845	0.630238	1
400.039001	0.795805	city	4	1	0.850937	0.850937	0	1	0	0	CorrectCommission	0.406807	0.629207	1
400.834778	0.795742	city	9	1	0.897329	0.897329	0	1	0	0	CorrectCommission	0.830178	0.634431	1
401.630585	0.795847	city	7	1	0.854440	0.854440	0	1	0	0	CorrectCommission	0.438778	0.645874	1
402.426544	0.796112	city	5	1	0.848542	0.848542	0	1	0	0	CorrectCommission	0.384947	0.663144	1
403.222351	0.795513	city	1	1	0.797559	0.797559	0	1	0	0	CorrectCommission	0.080321	0.685447	1
404.018036	0.795807	city	6	1	0.898245	0.898245	0	1	0	0	CorrectCommission	0.838541	0.711420	1
404.813812	0.795793	city	7	1	0.797968	0.797968	0	1	0	0	CorrectCommission	0.076582	0.739252	1
405.609711	0.796013	city	3	1	0.851804	0.851804	0	1	0	0	CorrectCommission	0.414718	0.766952	1
406.405518	0.795571	city	10	1	0.897281	0.897281	0	1	0	0	CorrectCommission	0.829739	0.792381	0
407.201202	0.795832	city	7	1	0.997607	0.997607	0	1	0	0	CorrectCommission	1.745305	0.813599	0
407.997009	0.795773	city	2	1	1.015358	1.015358	0	1	0	0	CorrectCommission	1.907299	0.829124	0
408.792847	0.795851	city	1	1	0.997923	0.997923	0	1	0	0	CorrectCommission	1.748195	0.838200	0
409.588623	0.795704	city	5	1	0.847483	0.847483	0	1	0	0	CorrectCommission	0.375286	0.840858	0
410.384399	0.795873	city	10	1	0.898233	0.898233	0	1	0	0	CorrectCommission	0.838429	0.837896	0
411.180237	0.795776	city	5	1	0.863600	0.863600	0	1	0	0	CorrectCommission	0.522373	0.830721	0
411.976166	0.796113	mountain	7	0	0.000000	0.866389	1	0	0	0	CorrectOmission	0.547822	0.821151	0
412.771973	0.795498	city	10	1	0.897291	0.897291	0	1	0	0	CorrectCommission	0.829832	0.811132	0
413.567627	0.795789	city	6	1	0.946999	0.946999	0	1	0	0	CorrectCommission	1.283459	0.802494	0
414.363434	0.795836	city	9	1	0.847545	0.847545	0	1	0	0	CorrectCommission	0.375854	0.796711	0
415.159393	0.796091	city	4	1	0.804251	0.804251	0	1	0	0	CorrectCommission	0.019243	0.794756	0
415.955200	0.795512	city	2	1	0.763388	0.763388	0	1	0	0	CorrectCommission	0.392161	0.797029	0
416.751007	0.796091	city	6	1	0.699010	0.699010	0	1	0	0	CorrectCommission	0.979675	0.803398	0
417.546936	0.795798	city	8	1	0.860942	0.860942	0	1	0	0	CorrectCommission	0.498113	0.813286	0
418.342590	0.795488	city	9	1	1.006101	1.006101	0	1	0	0	CorrectCommission	1.822827	0.825864	0
419.138245	0.795835	city	4	1	0.897347	0.897347	0	1	0	0	CorrectCommission	0.830339	0.840213	0
419.934082	0.795819	city	8	1	0.701406	0.701406	0	1	0	0	CorrectCommission	0.957801	0.855583	0
420.730011	0.796076	city	1	1	0.698524	0.698524	0	1	0	0	CorrectCommission	0.984108	0.871446	0
421.525787	0.795476	city	6	1	0.701334	0.701334	0	1	0	0	CorrectCommission	0.958460	0.887556	0
422.321594	0.796121	city	7	1	0.814769	0.814769	0	1	0	0	CorrectCommission	0.076737	0.904011	0
423.117554	0.795806	city	2	1	0.866423	0.866423	0	1	0	0	CorrectCommission	0.548133	0.921185	0
423.913177	0.795444	mountain	6	0	0.000000	0.675214	1	0	0	0	CorrectOmission	1.196833	0.939590	0
424.708984	0.796150	city	8	1	0.550328	0.550328	0	1	0	0	CorrectCommission	2.336533	0.959728	0
425.504791	0.795503	city	2	1	0.800954	0.800954	0	1	0	0	CorrectCommission	0.049339	0.981991	0
426.300446	0.795788	city	9	1	0.997646	0.997646	0	1	0	0	CorrectCommission	1.745660	1.006618	0
427.096252	0.795813	city	6	1	0.812277	0.812277	0	1	0	0	CorrectCommission	0.053997	1.033366	0
427.892059	0.795829	city	7	1	0.863959	0.863959	0	1	0	0	CorrectCommission	0.525644	1.061597	0
428.687897	0.795805	city	9	1	0.947032	0.947032	0	1	0	0	CorrectCommission	1.283765	1.090145	0
429.483826	0.796073	city	8	1	0.898203	0.898203	0	1	0	0	CorrectCommission	0.838155	1.117386	0
430.279633	0.795544	city	1	1	0.661694	0.661694	0	1	0	0	CorrectCommission	1.320216	1.141443	0
431.075287	0.795778	city	10	1	0.897311	0.897311	0	1	0	0	CorrectCommission	0.830016	1.160322	0
431.871033	0.795714	city	3	1	1.046743	1.046743	0	1	0	0	CorrectCommission	2.193719	1.172252	0
432.666840	0.795855	city	4	1	0.996870	0.996870	0	1	0	0	CorrectCommission	1.738587	1.175823	0
433.462677	0.795819	city	6	1	0.698313	0.698313	0	1	0	0	CorrectCommission	0.986034	1.170298	0
434.258453	0.795777	city	9	1	0.604627	0.604627	0	1	0	0	CorrectCommission	1.841002	1.155720	0
435.054230	0.795761	city	1	1	0.648784	0.648784	0	1	0	0	CorrectCommission	1.438029	1.132922	0
435.850037	0.795829	city	9	1	0.648923	0.648923	0	1	0	0	CorrectCommission	1.436759	1.103418	0
436.645874	0.795858	city	4	1	0.914086	0.914086	0	1	0	0	CorrectCommission	0.983100	1.069338	0
437.441833	0.796091	city	2	1	0.897386	0.897386	0	1	0	0	CorrectCommission	0.830700	1.033163	0
438.237640	0.795508	city	10	1	0.853811	0.853811	0	1	0	0	CorrectCommission	0.433037	0.997514	0
439.033264	0.795724	city	4	1	0.906697	0.906697	0	1	0	0	CorrectCommission	0.915672	0.964853	0
439.829041	0.795816	mountain	9	0	0.000000	0.784966	1	0	0	0	CorrectOmission	0.195239	0.937337	0
440.624847	0.795813	city	5	1	0.708545	0.708545	0	1	0	0	CorrectCommission	0.892659	0.916729	0
441.420624	0.795767	city	4	1	0.897359	0.897359	0	1	0	0	CorrectCommission	0.830454	0.904285	0
442.216461	0.795912	city	9	1	0.947203	0.947203	0	1	0	0	CorrectCommission	1.285327	0.900822	0
443.012299	0.795709	city	10	1	0.847674	0.847674	0	1	0	0	CorrectCommission	0.377031	0.906777	0
443.808044	0.795802	city	2	1	0.947932	0.947932	0	1	0	0	CorrectCommission	1.291976	0.922158	0
444.603851	0.795836	city	6	1	0.897526	0.897526	0	1	0	0	CorrectCommission	0.831979	0.946559	0
445.399689	0.795848	city	4	1	0.748865	0.748865	0	1	0	0	CorrectCommission	0.524699	0.979168	0
446.195648	0.796062	city	7	1	0.698312	0.698312	0	1	0	0	CorrectCommission	0.986043	1.018621	0
446.991455	0.795520	city	9	1	0.698074	0.698074	0	1	0	0	CorrectCommission	0.988215	1.062965	0
447.787109	0.795826	city	8	1	0.710275	0.710275	0	1	0	0	CorrectCommission	0.876867	1.109658	0
448.582916	0.795782	city	10	1	0.764396	0.764396	0	1	0	0	CorrectCommission	0.382960	1.155654	0
449.378723	0.795819	city	2	1	0.947272	0.947272	0	1	0	0	CorrectCommission	1.285958	1.197454	0
450.174500	0.795716	city	10	1	1.046804	1.046804	0	1	0	0	CorrectCommission	2.194275	1.231394	0
450.970245	0.795817	city	8	1	0.755247	0.755247	0	1	0	0	CorrectCommission	0.466455	1.254004	0
451.766083	0.795834	city	6	1	0.651031	0.651031	0	1	0	0	CorrectCommission	1.417528	1.262468	0
452.562042	0.796098	city	1	1	0.604431	0.604431	0	1	0	0	CorrectCommission	1.842797	1.254862	0
453.358002	0.795790	city	6	1	0.399666	0.399666	0	1	0	0	CorrectCommission	3.711464	1.230572	0
454.153809	0.795824	city	9	1	0.549092	0.549092	0	1	0	0	CorrectCommission	2.347812	1.190375	0
454.949463	0.795519	city	1	1	0.648598	0.648598	0	1	0	0	CorrectCommission	1.439725	1.136672	0
455.745148	0.795808	city	5	1	0.847709	0.847709	0	1	0	0	CorrectCommission	0.377349	1.073151	0
456.540894	0.795738	city	2	1	0.807142	0.807142	0	1	0	0	CorrectCommission	0.007133	1.004432	0
457.336700	0.795836	city	4	1	0.898484	0.898484	0	1	0	0	CorrectCommission	0.840721	0.935618	0
458.132538	0.795832	mountain	5	0	0.000000	0.875772	1	0	0	0	CorrectOmission	0.633453	0.871743	0
458.928345	0.795775	city	7	1	0.804714	0.804714	0	1	0	0	CorrectCommission	0.015023	0.817412	0
459.724091	0.795758	city	1	1	0.751017	0.751017	0	1	0	0	CorrectCommission	0.505055	0.776325	1
460.519897	0.795841	city	7	1	0.899413	0.899413	0	1	0	0	CorrectCommission	0.849199	0.750997	1
461.315735	0.795802	city	3	1	0.857164	0.857164	0	1	0	0	CorrectCommission	0.463634	0.742557	1
462.111542	0.795826	city	2	1	0.798492	0.798492	0	1	0	0	CorrectCommission	0.071802	0.750822	1
462.907318	0.795725	city	1	1	0.847761	0.847761	0	1	0	0	CorrectCommission	0.377818	0.774315	1
463.703094	0.795845	city	3	1	0.698676	0.698676	0	1	0	0	CorrectCommission	0.982720	0.810432	0
464.498932	0.795818	city	1	1	0.797976	0.797976	0	1	0	0	CorrectCommission	0.076508	0.855686	0
465.294708	0.795765	city	3	1	0.909050	0.909050	0	1	0	0	CorrectCommission	0.937141	0.906115	0
466.090515	0.795821	city	9	1	0.705134	0.705134	0	1	0	0	CorrectCommission	0.923779	0.957469	0
466.886322	0.795807	city	3	1	0.651609	0.651609	0	1	0	0	CorrectCommission	1.412252	1.005653	0
467.682129	0.795813	city	2	1	0.617384	0.617384	0	1	0	0	CorrectCommission	1.724584	1.046962	0
468.477936	0.795764	city	3	1	1.006650	1.006650	0	1	0	0	CorrectCommission	1.827836	1.078470	0
469.273743	0.795851	mountain	1	0	0.000000	0.875702	1	0	0	0	CorrectOmission	0.632807	1.098140	0
470.069550	0.795815	city	9	1	0.610935	0.610935	0	1	0	0	CorrectCommission	1.783436	1.105019	0
470.865356	0.795784	mountain	9	1	0.598748	0.598748	0	0	1	0	CommissionError	1.894656	1.099098	0
471.661163	0.795818	city	2	1	0.652724	0.652724	0	1	0	0	CorrectCommission	1.402076	1.081423	0
472.456970	0.795811	city	6	1	0.749386	0.749386	0	1	0	0	CorrectCommission	0.519941	1.053929	0
473.252777	0.795764	city	1	1	0.748342	0.748342	0	1	0	0	CorrectCommission	0.529473	1.019284	0
474.048553	0.795805	city	10	1	0.650842	0.650842	0	1	0	0	CorrectCommission	1.419250	0.980616	0
474.844360	0.795797	city	2	1	0.960283	0.960283	0	1	0	0	CorrectCommission	1.404688	0.941269	0
475.640320	0.796116	mountain	6	0	0.000000	0.936532	1	0	0	0	CorrectOmission	1.187946	0.904690	0
476.436096	0.795474	city	2	1	0.798389	0.798389	0	1	0	0	CorrectCommission	0.072745	0.874234	0
477.231873	0.796098	city	5	1	0.764649	0.764649	0	1	0	0	CorrectCommission	0.380654	0.853002	0
478.027710	0.795543	city	7	1	0.802010	0.802010	0	1	0	0	CorrectCommission	0.039694	0.843620	0
478.823364	0.795785	city	10	1	0.899792	0.899792	0	1	0	0	CorrectCommission	0.852653	0.848300	0
479.619171	0.795839	city	3	1	0.867355	0.867355	0	1	0	0	CorrectCommission	0.556637	0.868671	0
480.415131	0.796059	city	4	1	0.964245	0.964245	0	1	0	0	CorrectCommission	1.440851	0.905854	0
481.210938	0.795523	city	1	1	0.748056	0.748056	0	1	0	0	CorrectCommission	0.532079	0.960295	0
482.006561	0.795733	city	3	1	0.750703	0.750703	0	1	0	0	CorrectCommission	0.507923	1.031937	0
482.802338	0.795839	mountain	3	0	0.000000	0.732182	1	0	0	0	CorrectOmission	0.676948	1.120005	0
483.598175	0.795807	city	5	1	0.709362	0.709362	0	1	0	0	CorrectCommission	0.885200	1.223084	0
484.393982	0.795829	city	2	1	0.699113	0.699113	0	1	0	0	CorrectCommission	0.978726	1.339114	0
485.189789	0.795789	city	4	1	0.699089	0.699089	0	1	0	0	CorrectCommission	0.978949	1.465471	0
485.985535	0.795730	city	10	1	0.602712	0.602712	0	1	0	0	CorrectCommission	1.858482	1.599025	0
486.781494	0.796137	city	9	1	0.616103	0.616103	0	1	0	0	CorrectCommission	1.736273	1.736273	0
