onset	duration	trial_type	image_type	Press	ReactionTime	ReactionTime_Interpolated	CorrectOmission	CorrectCommission	CommissionError	OmissionError	response_type	nonsmoothVarianceTimeCourse	VarianceTimeCourse	In_the_Zone
8.421796	0.795795	city	6	1	0.798564	0.798564	0	1	0	0	CorrectCommission	0.552050	0.552050	1
9.217606	0.795825	city	10	1	0.558669	0.558669	0	1	0	0	CorrectCommission	1.974247	0.663707	1
10.013423	0.795809	city	5	1	0.603087	0.603087	0	1	0	0	CorrectCommission	1.506484	0.767970	0
10.809373	0.796092	city	7	1	0.598841	0.598841	0	1	0	0	CorrectCommission	1.551202	0.858238	0
11.605175	0.795511	city	2	1	0.555849	0.555849	0	1	0	0	CorrectCommission	2.003947	0.929302	0
12.400812	0.795764	city	1	1	0.503492	0.503492	0	1	0	0	CorrectCommission	2.555310	0.977745	0
13.196602	0.795815	city	2	1	0.602736	0.602736	0	1	0	0	CorrectCommission	1.510185	1.002208	0
13.992389	0.795759	city	5	1	0.598868	0.598868	0	1	0	0	CorrectCommission	1.550920	1.003384	0
14.788203	0.795872	mountain	2	0	0.000000	0.747527	1	0	0	0	CorrectOmission	0.014589	0.983648	0
15.584017	0.795754	city	2	1	0.847772	0.847772	0	1	0	0	CorrectCommission	1.070253	0.946722	0
16.379822	0.795856	city	7	1	0.698661	0.698661	0	1	0	0	CorrectCommission	0.500014	0.897033	0
17.175636	0.795774	city	5	1	0.607037	0.607037	0	1	0	0	CorrectCommission	1.464891	0.839391	0
17.971422	0.795798	mountain	1	0	0.000000	0.673374	1	0	0	0	CorrectOmission	0.766309	0.778344	0
18.767376	0.796109	city	3	1	0.752303	0.752303	0	1	0	0	CorrectCommission	0.064884	0.718023	1
19.563334	0.795807	city	7	1	0.698457	0.698457	0	1	0	0	CorrectCommission	0.502164	0.661763	1
20.359087	0.795703	city	3	1	0.657256	0.657256	0	1	0	0	CorrectCommission	0.936045	0.612053	1
21.154886	0.795894	city	5	1	0.710348	0.710348	0	1	0	0	CorrectCommission	0.376939	0.570451	1
21.950609	0.795552	city	9	1	0.748136	0.748136	0	1	0	0	CorrectCommission	0.021002	0.537698	1
22.746244	0.795719	city	2	1	0.748247	0.748247	0	1	0	0	CorrectCommission	0.022171	0.513740	1
23.542160	0.796114	city	10	1	0.715236	0.715236	0	1	0	0	CorrectCommission	0.325464	0.497873	1
24.338137	0.795839	city	7	1	0.798345	0.798345	0	1	0	0	CorrectCommission	0.549748	0.488915	1
25.133942	0.795771	city	9	1	0.810934	0.810934	0	1	0	0	CorrectCommission	0.682317	0.485386	1
25.929604	0.795551	mountain	9	0	0.000000	0.722818	1	0	0	0	CorrectOmission	0.245619	0.485651	1
26.725409	0.796062	city	3	1	0.657371	0.657371	0	1	0	0	CorrectCommission	0.934830	0.488065	1
27.521214	0.795544	mountain	1	0	0.000000	0.737967	1	0	0	0	CorrectOmission	0.086087	0.491082	1
28.316881	0.795793	city	9	1	0.805105	0.805105	0	1	0	0	CorrectCommission	0.620929	0.493441	1
29.112638	0.795723	city	2	1	0.699283	0.699283	0	1	0	0	CorrectCommission	0.493463	0.494115	1
29.908426	0.795851	city	9	1	0.667291	0.667291	0	1	0	0	CorrectCommission	0.830368	0.492416	1
30.704268	0.795832	city	10	1	0.648741	0.648741	0	1	0	0	CorrectCommission	1.025716	0.488015	1
31.500086	0.795805	city	3	1	0.707858	0.707858	0	1	0	0	CorrectCommission	0.403159	0.480873	1
32.295891	0.795807	city	9	1	0.798595	0.798595	0	1	0	0	CorrectCommission	0.552374	0.471249	1
33.091827	0.796065	city	3	1	0.748138	0.748138	0	1	0	0	CorrectCommission	0.021027	0.459562	1
33.887760	0.795796	mountain	2	0	0.000000	0.755946	1	0	0	0	CorrectOmission	0.103244	0.446418	1
34.683380	0.795449	city	4	1	0.747813	0.747813	0	1	0	0	CorrectCommission	0.017594	0.432492	1
35.479172	0.796136	city	10	1	0.649535	0.649535	0	1	0	0	CorrectCommission	1.017350	0.418551	1
36.275002	0.795525	city	5	1	0.652951	0.652951	0	1	0	0	CorrectCommission	0.981374	0.405413	1
37.070663	0.795794	city	4	1	0.698676	0.698676	0	1	0	0	CorrectCommission	0.499852	0.393934	1
37.866455	0.795791	city	9	1	0.750201	0.750201	0	1	0	0	CorrectCommission	0.042746	0.384963	1
38.662281	0.795859	city	8	1	0.751319	0.751319	0	1	0	0	CorrectCommission	0.054518	0.379268	1
39.458069	0.795716	city	9	1	0.798576	0.798576	0	1	0	0	CorrectCommission	0.552174	0.377426	1
40.253864	0.795881	city	8	1	0.748124	0.748124	0	1	0	0	CorrectCommission	0.020873	0.379746	1
41.049717	0.795820	city	2	1	0.710274	0.710274	0	1	0	0	CorrectCommission	0.377717	0.386237	1
41.845657	0.796060	city	6	1	0.714935	0.714935	0	1	0	0	CorrectCommission	0.328639	0.396489	1
42.641571	0.795767	mountain	8	0	0.000000	0.736123	1	0	0	0	CorrectOmission	0.105506	0.409739	1
43.437363	0.795820	mountain	4	0	0.000000	0.754678	1	0	0	0	CorrectOmission	0.089896	0.424977	1
44.233032	0.795515	city	3	1	0.751439	0.751439	0	1	0	0	CorrectCommission	0.055784	0.441028	1
45.028702	0.795823	city	6	1	0.707244	0.707244	0	1	0	0	CorrectCommission	0.409628	0.456793	1
45.824524	0.795820	city	4	1	0.615539	0.615539	0	1	0	0	CorrectCommission	1.375358	0.471357	1
46.620464	0.796060	city	5	1	0.598892	0.598892	0	1	0	0	CorrectCommission	1.550661	0.484176	1
47.416225	0.795463	mountain	8	0	0.000000	0.721946	1	0	0	0	CorrectOmission	0.254806	0.495178	1
48.211853	0.795791	city	5	1	0.817346	0.817346	0	1	0	0	CorrectCommission	0.749845	0.504776	1
49.007679	0.795859	city	2	1	0.717742	0.717742	0	1	0	0	CorrectCommission	0.299071	0.513688	1
49.803501	0.795790	city	6	1	0.707868	0.707868	0	1	0	0	CorrectCommission	0.403051	0.522859	1
50.599297	0.795800	city	2	1	0.748844	0.748844	0	1	0	0	CorrectCommission	0.028457	0.533209	1
51.395123	0.795851	city	10	1	0.710724	0.710724	0	1	0	0	CorrectCommission	0.372979	0.545445	1
52.190903	0.795708	city	2	1	0.752394	0.752394	0	1	0	0	CorrectCommission	0.065840	0.559941	1
52.986687	0.795863	city	8	1	0.702053	0.702053	0	1	0	0	CorrectCommission	0.464295	0.576659	1
53.782486	0.795736	city	4	1	0.797850	0.797850	0	1	0	0	CorrectCommission	0.544534	0.595121	1
54.578278	0.795849	city	5	1	0.699088	0.699088	0	1	0	0	CorrectCommission	0.495520	0.614626	1
55.374084	0.795766	city	1	1	0.648667	0.648667	0	1	0	0	CorrectCommission	1.026488	0.634371	1
56.169907	0.795877	city	7	1	0.598914	0.598914	0	1	0	0	CorrectCommission	1.550437	0.653581	1
56.965740	0.795793	city	10	1	0.648617	0.648617	0	1	0	0	CorrectCommission	1.027020	0.671655	1
57.761673	0.796069	city	3	1	0.698648	0.698648	0	1	0	0	CorrectCommission	0.500147	0.688315	1
58.557461	0.795507	city	4	1	0.707977	0.707977	0	1	0	0	CorrectCommission	0.401910	0.703504	1
59.353264	0.796101	city	3	1	0.702648	0.702648	0	1	0	0	CorrectCommission	0.458022	0.717336	1
60.149078	0.795526	city	7	1	0.811877	0.811877	0	1	0	0	CorrectCommission	0.692247	0.729998	0
60.944881	0.796078	city	8	1	0.701727	0.701727	0	1	0	0	CorrectCommission	0.467723	0.741601	0
61.740822	0.795804	city	10	1	0.656004	0.656004	0	1	0	0	CorrectCommission	0.949228	0.752114	0
62.536480	0.795516	city	2	1	0.654974	0.654974	0	1	0	0	CorrectCommission	0.960069	0.761277	0
63.332287	0.796096	mountain	7	0	0.000000	0.687879	1	0	0	0	CorrectOmission	0.613556	0.768633	0
64.128052	0.795440	city	5	1	0.703102	0.703102	0	1	0	0	CorrectCommission	0.453245	0.773571	0
64.923676	0.795804	city	9	1	0.649027	0.649027	0	1	0	0	CorrectCommission	1.022696	0.775476	0
65.719505	0.795852	city	5	1	0.648701	0.648701	0	1	0	0	CorrectCommission	1.026133	0.773850	0
66.515335	0.795804	city	1	1	0.698356	0.698356	0	1	0	0	CorrectCommission	0.503228	0.768440	0
67.311157	0.795837	city	9	1	0.909793	0.909793	0	1	0	0	CorrectCommission	1.723390	0.759386	0
68.106934	0.795716	city	2	1	0.897200	0.897200	0	1	0	0	CorrectCommission	1.590772	0.747171	0
68.902718	0.795865	city	1	1	0.748423	0.748423	0	1	0	0	CorrectCommission	0.024028	0.732657	0
69.698547	0.795786	city	10	1	0.698150	0.698150	0	1	0	0	CorrectCommission	0.505391	0.717035	1
70.494308	0.795738	city	8	1	0.798621	0.798621	0	1	0	0	CorrectCommission	0.552649	0.701504	1
71.290245	0.796140	mountain	9	0	0.000000	0.774136	1	0	0	0	CorrectOmission	0.294807	0.687211	1
72.086082	0.795533	city	7	1	0.699258	0.699258	0	1	0	0	CorrectCommission	0.493723	0.675085	1
72.881889	0.796074	city	5	1	0.648548	0.648548	0	1	0	0	CorrectCommission	1.027749	0.665651	1
73.677689	0.795536	city	9	1	0.706898	0.706898	0	1	0	0	CorrectCommission	0.413271	0.658949	1
74.473358	0.795791	mountain	10	0	0.000000	0.787610	1	0	0	0	CorrectOmission	0.436696	0.654653	1
75.269157	0.795811	city	8	1	0.811232	0.811232	0	1	0	0	CorrectCommission	0.685454	0.652044	1
76.064964	0.795798	city	3	1	0.698312	0.698312	0	1	0	0	CorrectCommission	0.503692	0.650175	1
76.860756	0.795784	city	4	1	0.698275	0.698275	0	1	0	0	CorrectCommission	0.504078	0.648035	1
77.656685	0.796082	city	5	1	0.649809	0.649809	0	1	0	0	CorrectCommission	1.014465	0.644677	1
78.452477	0.795496	mountain	7	1	0.609661	0.609661	0	0	1	0	CommissionError	1.437259	0.639394	1
79.248131	0.795819	city	3	0	0.000000	0.694211	0	0	0	1	OmissionError	0.546875	0.631837	1
80.044098	0.796110	city	8	1	0.748791	0.748791	0	1	0	0	CorrectCommission	0.027900	0.622093	1
80.840057	0.795809	city	10	1	0.618733	0.618733	0	1	0	0	CorrectCommission	1.341722	0.610676	1
81.635864	0.795810	city	3	1	0.764280	0.764280	0	1	0	0	CorrectCommission	0.191011	0.598372	1
82.431519	0.795489	mountain	4	0	0.000000	0.827080	1	0	0	0	CorrectOmission	0.852352	0.586261	1
83.227158	0.795798	city	4	1	0.818153	0.818153	0	1	0	0	CorrectCommission	0.758343	0.575404	1
84.022964	0.795810	city	10	1	0.748518	0.748518	0	1	0	0	CorrectCommission	0.025026	0.566817	1
84.818764	0.795785	city	3	1	0.715704	0.715704	0	1	0	0	CorrectCommission	0.320532	0.561260	1
85.614571	0.795832	city	5	1	0.752809	0.752809	0	1	0	0	CorrectCommission	0.070214	0.559089	1
86.410530	0.796096	city	3	1	0.798028	0.798028	0	1	0	0	CorrectCommission	0.546408	0.560318	1
87.206329	0.795501	city	8	1	0.847474	0.847474	0	1	0	0	CorrectCommission	1.067112	0.564472	1
88.002121	0.796079	mountain	9	0	0.000000	0.814086	1	0	0	0	CorrectOmission	0.715511	0.570723	1
88.797935	0.795543	city	4	1	0.747753	0.747753	0	1	0	0	CorrectCommission	0.016967	0.578014	1
89.593735	0.796066	city	2	1	0.698362	0.698362	0	1	0	0	CorrectCommission	0.503158	0.585165	1
90.389671	0.795802	city	1	1	0.707847	0.707847	0	1	0	0	CorrectCommission	0.403274	0.590968	1
91.185333	0.795516	city	9	1	0.853917	0.853917	0	1	0	0	CorrectCommission	1.134967	0.594428	1
91.981003	0.795824	mountain	4	0	0.000000	0.867116	1	0	0	0	CorrectOmission	1.273959	0.594820	1
92.776947	0.796064	city	2	1	0.798422	0.798422	0	1	0	0	CorrectCommission	0.550552	0.591778	1
93.572731	0.795503	city	5	1	0.698814	0.698814	0	1	0	0	CorrectCommission	0.498404	0.585356	1
94.368538	0.796113	city	2	1	0.662922	0.662922	0	1	0	0	CorrectCommission	0.876373	0.575980	1
95.164337	0.795492	city	8	1	0.748102	0.748102	0	1	0	0	CorrectCommission	0.020644	0.564352	1
95.960136	0.796096	city	6	1	0.662559	0.662559	0	1	0	0	CorrectCommission	0.880193	0.551382	1
96.755913	0.795463	city	3	1	0.798248	0.798248	0	1	0	0	CorrectCommission	0.548725	0.538023	1
97.551613	0.795940	city	2	1	0.798095	0.798095	0	1	0	0	CorrectCommission	0.547106	0.525292	1
98.347588	0.796013	mountain	1	1	0.749255	0.749255	0	0	1	0	CommissionError	0.032789	0.514042	1
99.143318	0.795439	city	4	0	0.000000	0.717920	0	0	0	1	OmissionError	0.297196	0.505013	1
99.939117	0.796158	city	5	1	0.701729	0.701729	0	1	0	0	CorrectCommission	0.467699	0.498702	1
100.734917	0.795450	city	2	1	0.698323	0.698323	0	1	0	0	CorrectCommission	0.503571	0.495419	1
101.530724	0.796164	city	4	1	0.847813	0.847813	0	1	0	0	CorrectCommission	1.070681	0.495352	1
102.326576	0.795536	city	1	1	0.762312	0.762312	0	1	0	0	CorrectCommission	0.170290	0.498518	1
103.122231	0.795767	city	3	1	0.798044	0.798044	0	1	0	0	CorrectCommission	0.546575	0.504885	1
103.918007	0.795796	city	10	1	0.798226	0.798226	0	1	0	0	CorrectCommission	0.548494	0.514265	1
104.713936	0.796064	city	7	1	0.753562	0.753562	0	1	0	0	CorrectCommission	0.078143	0.526362	1
105.509727	0.795508	city	1	1	0.719501	0.719501	0	1	0	0	CorrectCommission	0.280547	0.540762	1
106.305397	0.795837	city	8	1	0.798500	0.798500	0	1	0	0	CorrectCommission	0.551371	0.556919	1
107.101219	0.795800	city	1	1	0.651565	0.651565	0	1	0	0	CorrectCommission	0.995972	0.574122	1
107.897003	0.795768	city	9	1	0.799738	0.799738	0	1	0	0	CorrectCommission	0.564415	0.591522	1
108.692795	0.795823	city	10	1	0.768445	0.768445	0	1	0	0	CorrectCommission	0.234875	0.608213	1
109.488617	0.795812	city	1	1	0.848017	0.848017	0	1	0	0	CorrectCommission	1.072831	0.623224	1
110.284424	0.795811	city	9	1	0.847537	0.847537	0	1	0	0	CorrectCommission	1.067776	0.635627	1
111.080376	0.796089	city	7	1	0.752808	0.752808	0	1	0	0	CorrectCommission	0.070199	0.644632	1
111.876190	0.795546	city	10	1	0.748861	0.748861	0	1	0	0	CorrectCommission	0.028637	0.649719	1
112.671860	0.795788	city	2	1	0.847857	0.847857	0	1	0	0	CorrectCommission	1.071146	0.650724	1
113.467781	0.796048	city	3	1	0.897455	0.897455	0	1	0	0	CorrectCommission	1.593453	0.647807	1
114.263535	0.795463	mountain	4	0	0.000000	0.866184	1	0	0	0	CorrectOmission	1.264141	0.641570	1
115.059341	0.796152	city	6	1	0.798100	0.798100	0	1	0	0	CorrectCommission	0.547169	0.633075	1
115.855186	0.795543	mountain	6	0	0.000000	0.737263	1	0	0	0	CorrectOmission	0.093501	0.623752	1
116.650818	0.795720	city	2	1	0.699111	0.699111	0	1	0	0	CorrectCommission	0.495274	0.615250	1
117.446754	0.796142	city	3	1	0.699084	0.699084	0	1	0	0	CorrectCommission	0.495555	0.609283	1
118.242569	0.795491	city	4	1	0.702394	0.702394	0	1	0	0	CorrectCommission	0.460703	0.607394	1
119.038231	0.795829	city	9	1	0.698327	0.698327	0	1	0	0	CorrectCommission	0.503528	0.610965	1
119.834190	0.796100	city	8	1	0.698254	0.698254	0	1	0	0	CorrectCommission	0.504293	0.620977	1
120.629982	0.795485	city	9	1	0.747770	0.747770	0	1	0	0	CorrectCommission	0.017143	0.637990	1
121.425636	0.795820	city	4	1	0.806920	0.806920	0	1	0	0	CorrectCommission	0.640051	0.662140	1
122.221458	0.795816	city	9	1	0.815983	0.815983	0	1	0	0	CorrectCommission	0.735488	0.693120	1
123.017273	0.795815	city	1	1	0.797801	0.797801	0	1	0	0	CorrectCommission	0.544018	0.730296	0
123.813042	0.795730	city	2	1	0.852155	0.852155	0	1	0	0	CorrectCommission	1.116407	0.772729	0
124.608978	0.796138	city	3	1	0.798533	0.798533	0	1	0	0	CorrectCommission	0.551722	0.819190	0
125.404808	0.795527	city	8	1	0.851766	0.851766	0	1	0	0	CorrectCommission	1.112309	0.868312	0
126.200485	0.795823	mountain	7	0	0.000000	0.778339	1	0	0	0	CorrectOmission	0.339067	0.918513	0
126.996429	0.796069	city	8	1	0.652749	0.652749	0	1	0	0	CorrectCommission	0.983505	0.968104	0
127.792183	0.795437	city	5	1	0.549490	0.549490	0	1	0	0	CorrectCommission	2.070909	1.015239	0
128.587845	0.795885	mountain	1	0	0.000000	0.623304	1	0	0	0	CorrectOmission	1.293587	1.058025	0
129.383667	0.795767	city	5	1	0.748112	0.748112	0	1	0	0	CorrectCommission	0.020747	1.094628	0
130.179474	0.795848	city	9	1	0.797836	0.797836	0	1	0	0	CorrectCommission	0.544379	1.123360	0
130.975296	0.795780	city	6	1	0.847585	0.847585	0	1	0	0	CorrectCommission	1.068283	1.142674	0
131.771088	0.795822	city	7	1	0.947699	0.947699	0	1	0	0	CorrectCommission	2.122571	1.151435	0
132.566895	0.795786	city	8	1	1.046365	1.046365	0	1	0	0	CorrectCommission	3.161605	1.149021	0
133.362701	0.795810	city	1	0	0.000000	0.741484	0	0	0	1	OmissionError	0.049049	1.135449	0
134.158463	0.795711	city	8	1	0.465004	0.465004	0	1	0	0	CorrectCommission	2.960612	1.111544	0
134.954254	0.795889	city	9	1	0.648875	0.648875	0	1	0	0	CorrectCommission	1.024304	1.078499	0
135.750092	0.795786	city	4	1	0.698266	0.698266	0	1	0	0	CorrectCommission	0.504176	1.038154	0
136.545883	0.795786	city	8	1	0.763394	0.763394	0	1	0	0	CorrectCommission	0.181680	0.992575	0
137.341675	0.795813	city	5	1	0.748967	0.748967	0	1	0	0	CorrectCommission	0.029753	0.943903	0
138.137466	0.795776	city	3	1	0.854275	0.854275	0	1	0	0	CorrectCommission	1.138731	0.894169	0
138.933289	0.795847	city	10	1	0.847526	0.847526	0	1	0	0	CorrectCommission	1.067666	0.845123	0
139.729111	0.795809	city	8	1	0.860812	0.860812	0	1	0	0	CorrectCommission	1.207571	0.798234	0
140.524918	0.795801	city	9	1	0.897701	0.897701	0	1	0	0	CorrectCommission	1.596050	0.754618	0
141.320709	0.795771	city	1	1	0.797821	0.797821	0	1	0	0	CorrectCommission	0.544228	0.715038	1
142.116486	0.795807	city	9	1	0.748885	0.748885	0	1	0	0	CorrectCommission	0.028889	0.679989	1
142.912308	0.795826	city	3	1	0.748030	0.748030	0	1	0	0	CorrectCommission	0.019889	0.649601	1
143.708252	0.796062	city	1	1	0.708716	0.708716	0	1	0	0	CorrectCommission	0.394128	0.623741	1
144.504028	0.795504	city	3	1	0.747659	0.747659	0	1	0	0	CorrectCommission	0.015980	0.602031	1
145.299698	0.795835	city	1	1	0.898139	0.898139	0	1	0	0	CorrectCommission	1.600657	0.583969	1
146.095657	0.796071	city	3	1	0.798020	0.798020	0	1	0	0	CorrectCommission	0.546325	0.568889	1
146.891464	0.795532	city	8	1	0.804137	0.804137	0	1	0	0	CorrectCommission	0.610738	0.556280	1
147.687073	0.795707	mountain	5	0	0.000000	0.760627	1	0	0	0	CorrectOmission	0.152542	0.545694	1
148.482864	0.795871	city	8	1	0.698641	0.698641	0	1	0	0	CorrectCommission	0.500225	0.536841	1
149.278717	0.795822	city	9	1	0.649329	0.649329	0	1	0	0	CorrectCommission	1.019522	0.529594	1
150.074509	0.795759	city	2	1	0.698541	0.698541	0	1	0	0	CorrectCommission	0.501273	0.523933	1
150.870300	0.795842	mountain	6	0	0.000000	0.714725	1	0	0	0	CorrectOmission	0.330847	0.520105	1
151.666107	0.795762	city	1	1	0.702809	0.702809	0	1	0	0	CorrectCommission	0.456332	0.518288	1
152.461899	0.795837	city	10	1	0.667723	0.667723	0	1	0	0	CorrectCommission	0.825818	0.518685	1
153.257690	0.795739	city	7	1	0.750424	0.750424	0	1	0	0	CorrectCommission	0.045094	0.521376	1
154.053482	0.795842	city	3	1	0.699186	0.699186	0	1	0	0	CorrectCommission	0.494482	0.526352	1
154.849319	0.795840	mountain	9	0	0.000000	0.731055	1	0	0	0	CorrectOmission	0.158879	0.533444	1
155.645142	0.795789	city	7	1	0.748821	0.748821	0	1	0	0	CorrectCommission	0.028216	0.542391	1
156.440933	0.795782	city	1	1	0.655277	0.655277	0	1	0	0	CorrectCommission	0.956882	0.552885	1
157.236694	0.795755	city	9	1	0.651004	0.651004	0	1	0	0	CorrectCommission	1.001876	0.564735	1
158.032501	0.795862	city	7	1	0.800133	0.800133	0	1	0	0	CorrectCommission	0.568578	0.578004	1
158.828339	0.795810	city	9	1	0.804826	0.804826	0	1	0	0	CorrectCommission	0.617999	0.593040	1
159.624130	0.795783	mountain	10	0	0.000000	0.677415	1	0	0	0	CorrectOmission	0.723747	0.610492	1
160.419937	0.795812	city	8	1	0.601725	0.601725	0	1	0	0	CorrectCommission	1.520834	0.631252	1
161.215729	0.795793	city	3	1	0.761579	0.761579	0	1	0	0	CorrectCommission	0.162564	0.656300	1
162.011520	0.795791	mountain	2	0	0.000000	0.748334	1	0	0	0	CorrectOmission	0.023089	0.686600	1
162.807343	0.795838	city	1	1	0.698546	0.698546	0	1	0	0	CorrectCommission	0.501223	0.722739	0
163.603119	0.795721	city	2	1	0.748768	0.748768	0	1	0	0	CorrectCommission	0.027661	0.764847	0
164.399048	0.796118	city	6	1	0.797753	0.797753	0	1	0	0	CorrectCommission	0.543509	0.812527	0
165.195023	0.795839	city	9	1	0.814559	0.814559	0	1	0	0	CorrectCommission	0.720494	0.864727	0
165.990677	0.795491	city	1	1	0.847917	0.847917	0	1	0	0	CorrectCommission	1.071776	0.919833	0
166.786331	0.795811	city	2	1	0.847489	0.847489	0	1	0	0	CorrectCommission	1.067270	0.975852	0
167.582138	0.795796	city	9	1	0.897944	0.897944	0	1	0	0	CorrectCommission	1.598605	1.030665	0
168.378082	0.796087	city	1	1	0.847676	0.847676	0	1	0	0	CorrectCommission	1.069238	1.082186	0
169.173889	0.795518	mountain	8	0	0.000000	0.877812	1	0	0	0	CorrectOmission	1.386603	1.128667	0
169.969559	0.795843	mountain	3	0	0.000000	0.918055	1	0	0	0	CorrectOmission	1.810387	1.168746	0
170.765518	0.796057	city	4	1	0.898103	0.898103	0	1	0	0	CorrectCommission	1.600276	1.201591	0
171.561295	0.795522	city	2	1	0.747657	0.747657	0	1	0	0	CorrectCommission	0.015957	1.226863	0
172.356964	0.795812	mountain	2	0	0.000000	0.870692	1	0	0	0	CorrectOmission	1.311622	1.244672	0
173.152771	0.795780	city	2	1	0.997799	0.997799	0	1	0	0	CorrectCommission	2.650167	1.255327	0
173.948700	0.796078	city	4	1	0.859569	0.859569	0	1	0	0	CorrectCommission	1.194486	1.259242	0
174.744598	0.795718	city	1	1	0.664145	0.664145	0	1	0	0	CorrectCommission	0.863499	1.256879	0
175.540253	0.795599	city	6	1	0.847967	0.847967	0	1	0	0	CorrectCommission	1.072305	1.248519	0
176.335938	0.795766	city	9	1	0.911383	0.911383	0	1	0	0	CorrectCommission	1.740132	1.234241	0
177.131744	0.795871	city	4	1	0.812175	0.812175	0	1	0	0	CorrectCommission	0.695389	1.213857	0
177.927536	0.795711	city	9	1	0.798222	0.798222	0	1	0	0	CorrectCommission	0.548443	1.187121	0
178.723328	0.795856	city	7	1	0.847850	0.847850	0	1	0	0	CorrectCommission	1.071075	1.153739	0
179.519180	0.795841	city	4	1	0.997159	0.997159	0	1	0	0	CorrectCommission	2.643424	1.113604	0
180.314941	0.795709	city	10	1	0.947673	0.947673	0	1	0	0	CorrectCommission	2.122294	1.066867	0
181.110703	0.795801	city	8	1	0.802227	0.802227	0	1	0	0	CorrectCommission	0.590623	1.014249	0
181.906525	0.795854	city	6	1	0.653119	0.653119	0	1	0	0	CorrectCommission	0.979605	0.957013	0
182.702377	0.795838	city	9	1	0.848213	0.848213	0	1	0	0	CorrectCommission	1.074892	0.896852	0
183.498154	0.795716	city	1	1	0.766780	0.766780	0	1	0	0	CorrectCommission	0.217340	0.835897	0
184.294083	0.796146	city	6	1	0.797787	0.797787	0	1	0	0	CorrectCommission	0.543868	0.776597	0
185.089920	0.795515	city	3	1	0.806701	0.806701	0	1	0	0	CorrectCommission	0.637735	0.721424	0
185.885590	0.795836	mountain	2	0	0.000000	0.822806	1	0	0	0	CorrectOmission	0.807342	0.672783	1
186.681366	0.795711	city	7	1	0.814161	0.814161	0	1	0	0	CorrectCommission	0.716295	0.632736	1
187.477295	0.796144	city	9	1	0.748819	0.748819	0	1	0	0	CorrectCommission	0.028199	0.602872	1
188.273132	0.795523	mountain	5	0	0.000000	0.770687	1	0	0	0	CorrectOmission	0.258479	0.584197	1
189.068909	0.796057	city	6	1	0.797700	0.797700	0	1	0	0	CorrectCommission	0.542954	0.577016	1
189.864731	0.795560	city	9	1	0.747798	0.747798	0	1	0	0	CorrectCommission	0.017440	0.580890	1
190.660416	0.795810	city	7	1	0.748357	0.748357	0	1	0	0	CorrectCommission	0.023323	0.594647	1
191.456177	0.795714	city	6	1	0.848183	0.848183	0	1	0	0	CorrectCommission	1.074581	0.616483	1
192.252106	0.796149	city	8	1	0.748071	0.748071	0	1	0	0	CorrectCommission	0.020313	0.644068	1
193.047943	0.795525	city	5	1	0.617564	0.617564	0	1	0	0	CorrectCommission	1.354034	0.674819	1
193.843735	0.796081	mountain	6	0	0.000000	0.749744	1	0	0	0	CorrectOmission	0.037935	0.705909	1
194.639694	0.795812	city	4	1	0.857134	0.857134	0	1	0	0	CorrectCommission	1.168840	0.734722	0
195.435501	0.795806	city	9	1	0.652256	0.652256	0	1	0	0	CorrectCommission	0.988695	0.758864	0
196.231308	0.795802	city	10	1	0.599342	0.599342	0	1	0	0	CorrectCommission	1.545927	0.776463	0
197.026947	0.795503	mountain	10	0	0.000000	0.627840	1	0	0	0	CorrectOmission	1.245812	0.786175	0
197.822601	0.795779	city	9	1	0.705032	0.705032	0	1	0	0	CorrectCommission	0.432916	0.787359	0
198.618393	0.795817	city	6	1	0.798198	0.798198	0	1	0	0	CorrectCommission	0.548197	0.780131	0
199.414215	0.795823	city	2	1	0.660509	0.660509	0	1	0	0	CorrectCommission	0.901789	0.765155	0
200.210175	0.796084	city	10	1	0.847577	0.847577	0	1	0	0	CorrectCommission	1.068200	0.743629	0
201.005966	0.795521	city	8	1	0.897669	0.897669	0	1	0	0	CorrectCommission	1.595714	0.717158	1
201.801605	0.795736	city	5	1	0.698307	0.698307	0	1	0	0	CorrectCommission	0.503741	0.687519	1
202.597412	0.795879	mountain	4	0	0.000000	0.722968	1	0	0	0	CorrectOmission	0.244036	0.656583	1
203.393204	0.795702	city	3	1	0.797834	0.797834	0	1	0	0	CorrectCommission	0.544358	0.626084	1
204.188980	0.795856	city	9	1	0.749082	0.749082	0	1	0	0	CorrectCommission	0.030967	0.597466	1
204.984833	0.795848	city	10	1	0.800871	0.800871	0	1	0	0	CorrectCommission	0.576346	0.571863	1
205.780655	0.795803	city	8	1	0.797836	0.797836	0	1	0	0	CorrectCommission	0.544386	0.549978	1
206.576447	0.795773	city	6	1	0.748044	0.748044	0	1	0	0	CorrectCommission	0.020027	0.532162	1
207.372208	0.795772	city	4	1	0.802320	0.802320	0	1	0	0	CorrectCommission	0.591604	0.518468	1
208.168015	0.795819	mountain	3	0	0.000000	0.834239	1	0	0	0	CorrectOmission	0.927733	0.508776	1
208.963821	0.795805	city	1	1	0.812034	0.812034	0	1	0	0	CorrectCommission	0.693901	0.502859	1
209.759628	0.795794	city	8	1	0.703941	0.703941	0	1	0	0	CorrectCommission	0.444406	0.500529	1
210.555420	0.795791	city	6	1	0.701751	0.701751	0	1	0	0	CorrectCommission	0.467472	0.501654	1
211.351227	0.795835	city	4	1	0.698508	0.698508	0	1	0	0	CorrectCommission	0.501628	0.506229	1
212.147018	0.795764	mountain	5	0	0.000000	0.742331	1	0	0	0	CorrectOmission	0.040127	0.514406	1
212.942825	0.795826	city	10	1	0.752818	0.752818	0	1	0	0	CorrectCommission	0.070305	0.526414	1
213.738632	0.795811	city	3	1	0.649563	0.649563	0	1	0	0	CorrectCommission	1.017059	0.542504	1
214.534439	0.795783	city	4	1	0.759817	0.759817	0	1	0	0	CorrectCommission	0.144012	0.562900	1
215.330215	0.795790	city	8	1	0.648602	0.648602	0	1	0	0	CorrectCommission	1.027181	0.587819	1
216.126038	0.795851	mountain	1	0	0.000000	0.663716	1	0	0	0	CorrectOmission	0.868010	0.617216	1
216.921860	0.795766	mountain	3	0	0.000000	0.723992	1	0	0	0	CorrectOmission	0.233256	0.650817	1
217.717773	0.796069	city	4	1	0.748260	0.748260	0	1	0	0	CorrectCommission	0.022302	0.688026	1
218.513580	0.795562	city	3	1	0.655350	0.655350	0	1	0	0	CorrectCommission	0.956116	0.727863	0
219.309250	0.795776	city	5	1	0.649280	0.649280	0	1	0	0	CorrectCommission	1.020037	0.768946	0
220.105026	0.795760	city	7	1	0.807350	0.807350	0	1	0	0	CorrectCommission	0.644573	0.809583	0
220.900818	0.795830	city	10	1	0.798786	0.798786	0	1	0	0	CorrectCommission	0.554387	0.847832	0
221.696777	0.796102	city	5	1	0.663037	0.663037	0	1	0	0	CorrectCommission	0.875166	0.881681	0
222.492722	0.795782	city	2	1	0.747828	0.747828	0	1	0	0	CorrectCommission	0.017757	0.909218	0
223.288376	0.795533	mountain	7	0	0.000000	0.944576	1	0	0	0	CorrectOmission	2.089678	0.928894	0
224.084061	0.795827	city	9	1	0.997012	0.997012	0	1	0	0	CorrectCommission	2.641875	0.939638	0
224.879990	0.796038	city	6	1	0.648868	0.648868	0	1	0	0	CorrectCommission	1.024371	0.941138	0
225.675766	0.795504	city	2	1	0.652039	0.652039	0	1	0	0	CorrectCommission	0.990980	0.933917	0
226.471451	0.795872	city	8	1	0.748829	0.748829	0	1	0	0	CorrectCommission	0.028295	0.919187	0
227.267288	0.795799	city	9	1	0.947040	0.947040	0	1	0	0	CorrectCommission	2.115622	0.898911	0
228.063080	0.795791	city	1	1	0.798188	0.798188	0	1	0	0	CorrectCommission	0.548093	0.875410	0
228.859009	0.796044	city	10	1	0.747910	0.747910	0	1	0	0	CorrectCommission	0.018620	0.851427	0
229.654816	0.795579	mountain	4	0	0.000000	0.823856	1	0	0	0	CorrectOmission	0.818395	0.829679	0
230.450500	0.795781	city	2	1	0.861997	0.861997	0	1	0	0	CorrectCommission	1.220052	0.812648	0
231.246429	0.796080	city	8	1	0.698304	0.698304	0	1	0	0	CorrectCommission	0.503773	0.802354	0
232.042313	0.795700	mountain	7	0	0.000000	0.712551	1	0	0	0	CorrectOmission	0.353744	0.800276	0
232.838120	0.795911	city	7	1	0.748152	0.748152	0	1	0	0	CorrectCommission	0.021170	0.807172	0
233.633820	0.795485	city	5	1	0.648524	0.648524	0	1	0	0	CorrectCommission	1.027999	0.823031	0
234.429474	0.795818	mountain	1	0	0.000000	0.634376	1	0	0	0	CorrectOmission	1.176989	0.847083	0
235.225281	0.795802	mountain	10	0	0.000000	0.665075	1	0	0	0	CorrectOmission	0.853698	0.877913	0
236.021088	0.795808	city	7	1	0.699989	0.699989	0	1	0	0	CorrectCommission	0.486025	0.913503	0
236.816910	0.795831	city	10	1	0.698485	0.698485	0	1	0	0	CorrectCommission	0.501868	0.951420	0
237.612671	0.795712	city	1	1	0.651075	0.651075	0	1	0	0	CorrectCommission	1.001133	0.988983	0
238.408600	0.796137	city	8	1	0.797772	0.797772	0	1	0	0	CorrectCommission	0.543712	1.023472	0
239.204422	0.795503	city	1	1	0.598875	0.598875	0	1	0	0	CorrectCommission	1.550838	1.052390	0
240.000076	0.795817	city	2	1	0.513096	0.513096	0	1	0	0	CorrectCommission	2.454170	1.073557	0
240.795883	0.795781	city	1	1	0.555862	0.555862	0	1	0	0	CorrectCommission	2.003807	1.085332	0
241.591644	0.795756	city	9	1	0.798140	0.798140	0	1	0	0	CorrectCommission	0.547586	1.086738	0
242.387466	0.795874	mountain	9	0	0.000000	0.869594	1	0	0	0	CorrectOmission	1.300053	1.077557	0
243.183289	0.795784	city	8	1	0.798589	0.798589	0	1	0	0	CorrectCommission	0.552314	1.058142	0
243.979080	0.795797	city	3	1	0.613492	0.613492	0	1	0	0	CorrectCommission	1.396913	1.029546	0
244.774857	0.795758	city	5	1	0.657785	0.657785	0	1	0	0	CorrectCommission	0.930470	0.993179	0
245.570801	0.796141	city	9	1	0.902300	0.902300	0	1	0	0	CorrectCommission	1.644477	0.950891	0
246.366653	0.795547	city	5	1	0.650116	0.650116	0	1	0	0	CorrectCommission	1.011227	0.904710	0
247.162292	0.795740	mountain	7	0	0.000000	0.732150	1	0	0	0	CorrectOmission	0.147342	0.856736	0
247.958069	0.795818	city	4	1	0.848251	0.848251	0	1	0	0	CorrectCommission	1.075297	0.808981	0
248.754044	0.796124	city	10	1	0.698268	0.698268	0	1	0	0	CorrectCommission	0.504149	0.763229	0
249.549866	0.795506	city	7	1	0.656708	0.656708	0	1	0	0	CorrectCommission	0.941809	0.720980	1
250.345657	0.796086	city	4	1	0.655618	0.655618	0	1	0	0	CorrectCommission	0.953291	0.683339	1
251.141434	0.795455	city	3	1	0.748584	0.748584	0	1	0	0	CorrectCommission	0.025715	0.650982	1
251.937103	0.795884	city	9	1	0.752127	0.752127	0	1	0	0	CorrectCommission	0.063035	0.624159	1
252.732925	0.795776	mountain	9	0	0.000000	0.741872	1	0	0	0	CorrectOmission	0.044965	0.602728	1
253.528702	0.795781	city	8	1	0.698599	0.698599	0	1	0	0	CorrectCommission	0.500670	0.586258	1
254.324509	0.795835	city	10	1	0.603089	0.603089	0	1	0	0	CorrectCommission	1.506466	0.574141	1
255.120300	0.795740	city	9	1	0.748698	0.748698	0	1	0	0	CorrectCommission	0.026914	0.565678	1
255.916061	0.795783	city	8	1	0.648611	0.648611	0	1	0	0	CorrectCommission	1.027086	0.560339	1
256.711914	0.795905	city	5	1	0.648856	0.648856	0	1	0	0	CorrectCommission	1.024505	0.557617	1
257.507751	0.795788	city	10	1	0.698392	0.698392	0	1	0	0	CorrectCommission	0.502842	0.557155	1
258.303497	0.795716	city	8	1	0.748534	0.748534	0	1	0	0	CorrectCommission	0.025194	0.558726	1
259.099304	0.795868	city	1	1	0.710024	0.710024	0	1	0	0	CorrectCommission	0.380349	0.562185	1
259.895111	0.795756	city	8	1	0.714443	0.714443	0	1	0	0	CorrectCommission	0.333820	0.567247	1
260.690918	0.795862	city	1	1	0.804440	0.804440	0	1	0	0	CorrectCommission	0.613932	0.573519	1
261.486725	0.795772	city	3	1	0.665307	0.665307	0	1	0	0	CorrectCommission	0.851260	0.580402	1
262.282532	0.795799	city	4	1	0.710923	0.710923	0	1	0	0	CorrectCommission	0.370882	0.587073	1
263.078308	0.795791	city	7	1	0.753181	0.753181	0	1	0	0	CorrectCommission	0.074127	0.592574	1
263.874115	0.795793	city	3	1	0.648933	0.648933	0	1	0	0	CorrectCommission	1.023689	0.595908	1
264.669891	0.795783	city	4	1	0.698575	0.698575	0	1	0	0	CorrectCommission	0.500914	0.596106	1
265.465851	0.796133	city	8	1	0.652098	0.652098	0	1	0	0	CorrectCommission	0.990362	0.592436	1
266.261658	0.795501	city	5	1	0.598762	0.598762	0	1	0	0	CorrectCommission	1.552034	0.584487	1
267.057343	0.795826	city	1	1	0.702008	0.702008	0	1	0	0	CorrectCommission	0.464764	0.572233	1
267.853149	0.795817	city	10	1	0.698423	0.698423	0	1	0	0	CorrectCommission	0.502517	0.556150	1
268.649078	0.796035	mountain	10	0	0.000000	0.763316	1	0	0	0	CorrectOmission	0.180857	0.537056	1
269.444885	0.795548	city	8	1	0.797814	0.797814	0	1	0	0	CorrectCommission	0.544150	0.516068	1
270.240540	0.795805	city	1	1	0.703045	0.703045	0	1	0	0	CorrectCommission	0.453848	0.494430	1
271.036346	0.795766	city	8	1	0.804941	0.804941	0	1	0	0	CorrectCommission	0.619210	0.473397	1
271.832153	0.795870	city	6	1	0.798700	0.798700	0	1	0	0	CorrectCommission	0.553478	0.454038	1
272.627960	0.795775	city	4	1	0.748988	0.748988	0	1	0	0	CorrectCommission	0.029976	0.437247	1
273.423737	0.795756	city	6	1	0.758192	0.758192	0	1	0	0	CorrectCommission	0.126902	0.423611	1
274.219513	0.795782	city	9	1	0.798954	0.798954	0	1	0	0	CorrectCommission	0.556152	0.413378	1
275.015320	0.795858	city	5	1	0.751253	0.751253	0	1	0	0	CorrectCommission	0.053822	0.406519	1
275.811157	0.795811	city	1	1	0.749585	0.749585	0	1	0	0	CorrectCommission	0.036262	0.402883	1
276.606964	0.795776	city	4	1	0.855807	0.855807	0	1	0	0	CorrectCommission	1.154864	0.402266	1
277.402893	0.796096	city	8	1	0.748518	0.748518	0	1	0	0	CorrectCommission	0.025026	0.404496	1
278.198700	0.795517	city	4	1	0.797484	0.797484	0	1	0	0	CorrectCommission	0.540682	0.409625	1
278.994507	0.796105	city	5	1	0.862284	0.862284	0	1	0	0	CorrectCommission	1.223080	0.417969	1
279.790436	0.795745	city	2	1	0.761262	0.761262	0	1	0	0	CorrectCommission	0.159232	0.430018	1
280.586060	0.795509	mountain	3	0	0.000000	0.745400	1	0	0	0	CorrectOmission	0.007814	0.446624	1
281.381714	0.795811	mountain	4	0	0.000000	0.759640	1	0	0	0	CorrectOmission	0.142152	0.468707	1
282.177551	0.795834	city	7	1	0.748928	0.748928	0	1	0	0	CorrectCommission	0.029341	0.497191	1
282.973389	0.795838	city	10	1	0.658206	0.658206	0	1	0	0	CorrectCommission	0.926037	0.532838	1
283.769196	0.795796	city	4	1	0.711916	0.711916	0	1	0	0	CorrectCommission	0.360425	0.576058	1
284.565125	0.796087	city	3	1	0.699046	0.699046	0	1	0	0	CorrectCommission	0.495961	0.626901	1
285.360901	0.795462	city	1	1	0.698290	0.698290	0	1	0	0	CorrectCommission	0.503917	0.684822	1
286.156555	0.795856	mountain	3	0	0.000000	0.708865	1	0	0	0	CorrectOmission	0.392554	0.748674	0
286.952393	0.795787	city	6	1	0.703204	0.703204	0	1	0	0	CorrectCommission	0.452169	0.816655	0
287.748199	0.795822	city	10	1	0.653741	0.653741	0	1	0	0	CorrectCommission	0.973058	0.886415	0
288.543976	0.795767	city	8	1	0.600913	0.600913	0	1	0	0	CorrectCommission	1.529380	0.955124	0
289.339752	0.795756	city	6	1	0.648661	0.648661	0	1	0	0	CorrectCommission	1.026557	1.019683	0
290.135559	0.795884	city	10	1	0.699077	0.699077	0	1	0	0	CorrectCommission	0.495630	1.077020	0
290.931396	0.795766	mountain	8	0	0.000000	0.834808	1	0	0	0	CorrectOmission	0.933728	1.124379	0
291.727173	0.795808	city	6	1	0.954193	0.954193	0	1	0	0	CorrectCommission	2.190958	1.159478	0
292.522949	0.795741	city	5	1	0.955574	0.955574	0	1	0	0	CorrectCommission	2.205502	1.180833	0
293.318726	0.795801	city	10	0	0.000000	0.652741	0	0	0	1	OmissionError	0.983590	1.188021	0
294.114563	0.795855	city	3	1	0.450337	0.450337	0	1	0	0	CorrectCommission	3.115069	1.181705	0
294.910522	0.796094	city	2	1	0.753009	0.753009	0	1	0	0	CorrectCommission	0.072313	1.163586	0
295.706329	0.795513	mountain	9	0	0.000000	0.887458	1	0	0	0	CorrectOmission	1.488180	1.136446	0
296.502136	0.796100	city	9	1	0.898908	0.898908	0	1	0	0	CorrectCommission	1.608759	1.103570	0
297.297943	0.795491	mountain	9	0	0.000000	0.832581	1	0	0	0	CorrectOmission	0.910276	1.068634	0
298.093597	0.795843	city	4	1	0.749351	0.749351	0	1	0	0	CorrectCommission	0.033794	1.035272	0
298.889404	0.795766	city	3	1	0.710093	0.710093	0	1	0	0	CorrectCommission	0.379625	1.006653	0
299.685333	0.796101	city	5	1	0.660366	0.660366	0	1	0	0	CorrectCommission	0.903288	0.985088	0
300.481140	0.795477	city	1	1	0.847276	0.847276	0	1	0	0	CorrectCommission	1.065027	0.971809	0
301.276794	0.795849	city	10	1	0.847923	0.847923	0	1	0	0	CorrectCommission	1.071838	0.966915	0
302.072754	0.796075	city	8	1	0.706820	0.706820	0	1	0	0	CorrectCommission	0.414086	0.969333	0
302.868713	0.795815	city	2	1	0.652036	0.652036	0	1	0	0	CorrectCommission	0.991017	0.977001	0
303.664368	0.795544	city	6	1	0.797556	0.797556	0	1	0	0	CorrectCommission	0.541440	0.987091	0
304.460022	0.795763	city	1	1	0.707992	0.707992	0	1	0	0	CorrectCommission	0.401746	0.996425	0
305.255951	0.796084	city	10	1	0.698694	0.698694	0	1	0	0	CorrectCommission	0.499663	1.001865	0
306.051758	0.795530	city	9	1	0.996652	0.996652	0	1	0	0	CorrectCommission	2.638082	1.000777	0
306.847412	0.795777	city	2	1	0.947149	0.947149	0	1	0	0	CorrectCommission	2.116779	0.991301	0
307.643219	0.795839	city	3	1	0.901104	0.901104	0	1	0	0	CorrectCommission	1.631880	0.972764	0
308.439026	0.795788	city	6	1	0.897988	0.897988	0	1	0	0	CorrectCommission	1.599067	0.945725	0
309.234985	0.796096	city	9	1	0.702828	0.702828	0	1	0	0	CorrectCommission	0.456135	0.911799	0
310.030762	0.795458	city	3	1	0.614662	0.614662	0	1	0	0	CorrectCommission	1.384587	0.873544	0
310.826416	0.795874	city	5	1	0.748811	0.748811	0	1	0	0	CorrectCommission	0.028112	0.834004	0
311.622253	0.795793	city	2	1	0.748673	0.748673	0	1	0	0	CorrectCommission	0.026658	0.796338	0
312.418182	0.796074	city	5	1	0.748335	0.748335	0	1	0	0	CorrectCommission	0.023093	0.763427	0
313.213989	0.795539	city	10	1	0.797686	0.797686	0	1	0	0	CorrectCommission	0.542807	0.737498	0
314.009644	0.795761	city	7	1	0.847513	0.847513	0	1	0	0	CorrectCommission	1.067528	0.719882	1
314.805573	0.796114	city	3	1	0.698587	0.698587	0	1	0	0	CorrectCommission	0.500791	0.711051	1
315.601379	0.795470	city	4	1	0.697933	0.697933	0	1	0	0	CorrectCommission	0.507683	0.710643	1
316.397003	0.795774	city	9	1	0.664407	0.664407	0	1	0	0	CorrectCommission	0.860738	0.717552	1
317.192780	0.795810	mountain	5	0	0.000000	0.685880	1	0	0	0	CorrectOmission	0.634610	0.730200	0
317.988586	0.795786	city	5	1	0.701060	0.701060	0	1	0	0	CorrectCommission	0.474752	0.746762	0
318.784576	0.796161	city	10	1	0.648655	0.648655	0	1	0	0	CorrectCommission	1.026619	0.765410	0
319.580383	0.795510	city	2	1	0.707623	0.707623	0	1	0	0	CorrectCommission	0.405636	0.784496	0
320.376038	0.795747	city	8	1	0.797870	0.797870	0	1	0	0	CorrectCommission	0.544741	0.802770	0
321.171814	0.795819	city	9	1	0.947126	0.947126	0	1	0	0	CorrectCommission	2.116529	0.819407	0
321.967651	0.795846	city	5	0	0.000000	0.899407	0	0	0	1	OmissionError	1.614010	0.833949	0
322.763489	0.795820	city	9	1	0.766125	0.766125	0	1	0	0	CorrectCommission	0.210439	0.846425	0
323.559357	0.795965	city	1	1	0.658691	0.658691	0	1	0	0	CorrectCommission	0.920929	0.857092	0
324.355164	0.795621	city	2	1	0.749636	0.749636	0	1	0	0	CorrectCommission	0.036793	0.866312	0
325.150879	0.795795	city	9	1	0.809932	0.809932	0	1	0	0	CorrectCommission	0.671761	0.874493	0
325.946655	0.795778	city	2	1	0.811819	0.811819	0	1	0	0	CorrectCommission	0.691639	0.881860	0
326.742432	0.795807	mountain	4	0	0.000000	0.870539	1	0	0	0	CorrectOmission	1.310011	0.888515	0
327.538391	0.796106	city	8	1	0.848215	0.848215	0	1	0	0	CorrectCommission	1.074913	0.894307	0
328.334198	0.795466	city	5	1	0.606968	0.606968	0	1	0	0	CorrectCommission	1.465616	0.898961	0
329.129852	0.795860	city	7	1	0.711453	0.711453	0	1	0	0	CorrectCommission	0.365301	0.902023	0
329.925659	0.795771	city	6	1	0.599541	0.599541	0	1	0	0	CorrectCommission	1.543828	0.903028	0
330.721436	0.795752	mountain	5	0	0.000000	0.681815	1	0	0	0	CorrectOmission	0.677410	0.901419	0
331.517212	0.795833	city	4	1	0.754967	0.754967	0	1	0	0	CorrectCommission	0.092941	0.896716	0
332.313202	0.796134	city	1	1	0.615688	0.615688	0	1	0	0	CorrectCommission	1.373783	0.888568	0
333.109161	0.795786	city	10	1	0.651581	0.651581	0	1	0	0	CorrectCommission	0.995804	0.876721	0
333.904816	0.795514	city	4	1	0.847968	0.847968	0	1	0	0	CorrectCommission	1.072319	0.861178	0
334.700623	0.796098	city	3	1	0.798053	0.798053	0	1	0	0	CorrectCommission	0.546672	0.842191	0
335.496429	0.795510	city	9	1	0.614987	0.614987	0	1	0	0	CorrectCommission	1.381170	0.820365	0
336.292084	0.795824	city	5	1	0.599087	0.599087	0	1	0	0	CorrectCommission	1.548608	0.796527	0
337.088043	0.796081	mountain	2	0	0.000000	0.703852	1	0	0	0	CorrectOmission	0.445342	0.771777	0
337.883972	0.795796	city	2	1	0.797437	0.797437	0	1	0	0	CorrectCommission	0.540185	0.747475	0
338.679596	0.795452	city	8	1	0.747997	0.747997	0	1	0	0	CorrectCommission	0.019532	0.725008	0
339.475220	0.795791	city	3	1	0.649301	0.649301	0	1	0	0	CorrectCommission	1.019818	0.705805	1
340.271027	0.795817	city	2	1	0.699329	0.699329	0	1	0	0	CorrectCommission	0.492976	0.691232	1
341.066864	0.795826	mountain	1	0	0.000000	0.781329	1	0	0	0	CorrectOmission	0.370553	0.682577	1
341.862640	0.795755	city	2	1	0.798261	0.798261	0	1	0	0	CorrectCommission	0.548854	0.681047	1
342.658447	0.795874	city	1	1	0.653083	0.653083	0	1	0	0	CorrectCommission	0.979989	0.687684	1
343.454315	0.795837	city	6	1	0.809682	0.809682	0	1	0	0	CorrectCommission	0.669137	0.703428	1
344.250244	0.796043	city	8	1	0.757532	0.757532	0	1	0	0	CorrectCommission	0.119948	0.729113	0
345.046173	0.795784	city	5	1	0.698822	0.698822	0	1	0	0	CorrectCommission	0.498315	0.765401	0
345.841980	0.795836	city	3	1	0.847250	0.847250	0	1	0	0	CorrectCommission	1.064759	0.812643	0
346.637604	0.795437	city	4	1	0.797570	0.797570	0	1	0	0	CorrectCommission	0.541580	0.870854	0
347.433258	0.795857	city	7	1	0.847521	0.847521	0	1	0	0	CorrectCommission	1.067612	0.939481	0
348.229095	0.795791	city	9	1	0.847849	0.847849	0	1	0	0	CorrectCommission	1.071064	1.017262	0
349.024872	0.795801	mountain	6	0	0.000000	0.789114	1	0	0	0	CorrectOmission	0.452531	1.102106	0
349.820709	0.795862	city	7	1	0.764925	0.764925	0	1	0	0	CorrectCommission	0.197804	1.191014	0
350.616547	0.795783	mountain	8	0	0.000000	0.868893	1	0	0	0	CorrectOmission	1.292670	1.280110	0
351.412323	0.795777	city	9	1	0.897876	0.897876	0	1	0	0	CorrectCommission	1.597891	1.364730	0
352.208099	0.795813	city	4	1	0.648735	0.648735	0	1	0	0	CorrectCommission	1.025772	1.439915	0
353.003906	0.795784	city	6	1	0.549228	0.549228	0	1	0	0	CorrectCommission	2.073669	1.500778	0
353.799713	0.795800	city	2	1	0.499385	0.499385	0	1	0	0	CorrectCommission	2.598561	1.542944	0
354.595520	0.795812	city	8	1	0.508207	0.508207	0	1	0	0	CorrectCommission	2.505654	1.563178	0
355.391449	0.796099	city	2	1	0.513899	0.513899	0	1	0	0	CorrectCommission	2.445708	1.559799	0
356.187256	0.795509	city	8	1	0.549921	0.549921	0	1	0	0	CorrectCommission	2.066367	1.533007	0
356.983063	0.796105	city	5	1	0.499571	0.499571	0	1	0	0	CorrectCommission	2.596593	1.484911	0
357.778870	0.795495	city	9	1	0.598885	0.598885	0	1	0	0	CorrectCommission	1.550742	1.419423	0
358.574493	0.795745	city	4	1	0.598984	0.598984	0	1	0	0	CorrectCommission	1.549694	1.341945	0
359.370300	0.795862	city	2	1	0.598977	0.598977	0	1	0	0	CorrectCommission	1.549766	1.258712	0
360.166107	0.795746	city	1	1	0.698280	0.698280	0	1	0	0	CorrectCommission	0.504021	1.176188	0
360.962036	0.796126	city	3	1	0.748375	0.748375	0	1	0	0	CorrectCommission	0.023513	1.100386	0
361.757843	0.795517	city	7	1	0.698882	0.698882	0	1	0	0	CorrectCommission	0.497690	1.036185	0
362.553650	0.796075	mountain	1	0	0.000000	0.745902	1	0	0	0	CorrectOmission	0.002527	0.986844	0
363.349487	0.795578	city	3	1	0.797540	0.797540	0	1	0	0	CorrectCommission	0.541263	0.953861	0
364.145142	0.795756	city	5	1	0.761899	0.761899	0	1	0	0	CorrectCommission	0.165940	0.936865	0
364.941071	0.796092	city	1	1	0.847833	0.847833	0	1	0	0	CorrectCommission	1.070899	0.933971	0
365.736877	0.795516	city	8	1	0.848605	0.848605	0	1	0	0	CorrectCommission	1.079027	0.942131	0
366.532562	0.795830	city	9	1	0.748260	0.748260	0	1	0	0	CorrectCommission	0.022302	0.957703	0
367.328339	0.795774	city	1	1	0.600401	0.600401	0	1	0	0	CorrectCommission	1.534772	0.977087	0
368.124146	0.795806	mountain	3	0	0.000000	0.541866	1	0	0	0	CorrectOmission	2.151198	0.997040	0
368.919922	0.795779	city	1	1	0.549227	0.549227	0	1	0	0	CorrectCommission	2.073680	1.015210	0
369.715729	0.795841	city	2	1	0.599057	0.599057	0	1	0	0	CorrectCommission	1.548926	1.030324	0
370.511566	0.795783	city	4	1	0.665267	0.665267	0	1	0	0	CorrectCommission	0.851682	1.042085	0
371.307312	0.795750	city	10	1	0.652452	0.652452	0	1	0	0	CorrectCommission	0.986633	1.050949	0
372.103149	0.795890	city	9	1	0.759510	0.759510	0	1	0	0	CorrectCommission	0.140776	1.057821	0
372.898956	0.795762	city	3	1	0.703101	0.703101	0	1	0	0	CorrectCommission	0.453251	1.063740	0
373.694763	0.795837	city	4	1	0.698383	0.698383	0	1	0	0	CorrectCommission	0.502939	1.069484	0
374.490723	0.796062	city	2	1	0.698777	0.698777	0	1	0	0	CorrectCommission	0.498792	1.075394	0
375.286530	0.795552	city	1	1	0.553038	0.553038	0	1	0	0	CorrectCommission	2.033540	1.081358	0
376.082184	0.795769	city	8	1	0.549392	0.549392	0	1	0	0	CorrectCommission	2.071938	1.086744	0
376.877991	0.795830	mountain	7	0	0.000000	0.640112	1	0	0	0	CorrectOmission	1.116583	1.090644	0
377.673798	0.795783	city	8	1	0.698807	0.698807	0	1	0	0	CorrectCommission	0.498472	1.092077	0
378.469574	0.795796	city	4	1	0.599087	0.599087	0	1	0	0	CorrectCommission	1.548605	1.090136	0
379.265381	0.795824	city	3	1	0.701172	0.701172	0	1	0	0	CorrectCommission	0.473570	1.084050	0
380.061157	0.795736	city	5	1	0.602626	0.602626	0	1	0	0	CorrectCommission	1.511341	1.073463	0
380.856964	0.795847	mountain	6	1	0.503806	0.503806	0	0	1	0	CommissionError	2.551997	1.058278	0
381.652924	0.796084	city	5	1	0.812771	0.812771	0	1	0	0	CorrectCommission	0.701658	1.038647	0
382.448730	0.795497	city	9	1	0.798401	0.798401	0	1	0	0	CorrectCommission	0.550329	1.015055	0
383.244507	0.796097	city	2	1	0.748726	0.748726	0	1	0	0	CorrectCommission	0.027218	0.987973	0
384.040283	0.795448	city	8	1	0.815379	0.815379	0	1	0	0	CorrectCommission	0.729127	0.957993	0
384.835938	0.795876	mountain	4	0	0.000000	0.900638	1	0	0	0	CorrectOmission	1.626972	0.925596	0
385.631775	0.795773	city	8	1	0.897518	0.897518	0	1	0	0	CorrectCommission	1.594124	0.891238	0
386.427551	0.795762	city	10	1	0.699038	0.699038	0	1	0	0	CorrectCommission	0.496047	0.855421	0
387.223358	0.795881	city	5	1	0.665399	0.665399	0	1	0	0	CorrectCommission	0.850290	0.818748	0
388.019318	0.796050	city	6	1	0.847467	0.847467	0	1	0	0	CorrectCommission	1.067041	0.781920	0
388.815125	0.795523	city	10	1	0.698512	0.698512	0	1	0	0	CorrectCommission	0.501584	0.745722	0
389.610779	0.795792	mountain	1	0	0.000000	0.785156	1	0	0	0	CorrectOmission	0.410856	0.711087	1
390.406586	0.795847	city	1	1	0.856900	0.856900	0	1	0	0	CorrectCommission	1.166381	0.679026	1
391.202362	0.795716	city	8	1	0.663244	0.663244	0	1	0	0	CorrectCommission	0.872988	0.650369	1
391.998138	0.795840	city	4	1	0.715395	0.715395	0	1	0	0	CorrectCommission	0.323794	0.625860	1
392.793945	0.795769	city	10	1	0.748076	0.748076	0	1	0	0	CorrectCommission	0.020365	0.605964	1
393.589752	0.795795	city	2	1	0.753892	0.753892	0	1	0	0	CorrectCommission	0.081613	0.590779	1
394.385590	0.795896	city	10	1	0.752523	0.752523	0	1	0	0	CorrectCommission	0.067196	0.580074	1
395.181396	0.795749	city	4	1	0.798413	0.798413	0	1	0	0	CorrectCommission	0.550457	0.573350	1
395.977173	0.795805	city	6	1	0.897372	0.897372	0	1	0	0	CorrectCommission	1.592578	0.569833	1
396.773132	0.796095	city	2	1	0.749512	0.749512	0	1	0	0	CorrectCommission	0.035489	0.568674	1
397.568939	0.795502	city	3	1	0.608152	0.608152	0	1	0	0	CorrectCommission	1.453146	0.569112	1
398.364746	0.796113	city	9	1	0.748332	0.748332	0	1	0	0	CorrectCommission	0.023066	0.570347	1
399.160522	0.795468	city	8	1	0.649741	0.649741	0	1	0	0	CorrectCommission	1.015181	0.571938	1
399.956207	0.795871	city	1	1	0.698307	0.698307	0	1	0	0	CorrectCommission	0.503741	0.573464	1
400.751984	0.795723	city	2	1	0.703520	0.703520	0	1	0	0	CorrectCommission	0.448838	0.574724	1
401.547913	0.796130	city	10	1	0.713473	0.713473	0	1	0	0	CorrectCommission	0.344024	0.575570	1
402.343903	0.795810	city	6	1	0.760066	0.760066	0	1	0	0	CorrectCommission	0.146629	0.575903	1
403.139526	0.795468	city	1	1	0.653077	0.653077	0	1	0	0	CorrectCommission	0.980052	0.575626	1
403.935181	0.795810	city	2	1	0.748598	0.748598	0	1	0	0	CorrectCommission	0.025869	0.574652	1
404.731018	0.795865	city	1	1	0.749014	0.749014	0	1	0	0	CorrectCommission	0.030247	0.572987	1
405.526825	0.795781	city	9	1	0.996916	0.996916	0	1	0	0	CorrectCommission	2.640859	0.570659	1
406.322754	0.796080	city	4	1	0.748114	0.748114	0	1	0	0	CorrectCommission	0.020768	0.567809	1
407.118530	0.795464	city	6	1	0.797583	0.797583	0	1	0	0	CorrectCommission	0.541717	0.564887	1
407.914154	0.795788	city	3	1	0.854541	0.854541	0	1	0	0	CorrectCommission	1.141532	0.562298	1
408.709991	0.795877	city	7	1	0.753335	0.753335	0	1	0	0	CorrectCommission	0.075751	0.560627	1
409.505859	0.795831	city	3	1	0.748093	0.748093	0	1	0	0	CorrectCommission	0.020547	0.560591	1
410.301666	0.795804	city	10	1	0.712207	0.712207	0	1	0	0	CorrectCommission	0.357357	0.562918	1
411.097473	0.795787	city	9	1	0.764152	0.764152	0	1	0	0	CorrectCommission	0.189668	0.568320	1
411.893219	0.795757	city	3	1	0.802276	0.802276	0	1	0	0	CorrectCommission	0.591139	0.577530	1
412.689026	0.795835	city	5	1	0.698600	0.698600	0	1	0	0	CorrectCommission	0.500650	0.591205	1
413.484985	0.796091	city	3	1	0.699171	0.699171	0	1	0	0	CorrectCommission	0.494641	0.609886	1
414.280762	0.795449	city	6	1	0.950781	0.950781	0	1	0	0	CorrectCommission	2.155026	0.634060	1
415.076538	0.796129	city	5	1	0.698335	0.698335	0	1	0	0	CorrectCommission	0.503440	0.663806	1
415.872345	0.795481	city	2	1	0.703003	0.703003	0	1	0	0	CorrectCommission	0.454286	0.698972	1
416.667999	0.795839	city	5	1	0.748107	0.748107	0	1	0	0	CorrectCommission	0.020701	0.738809	0
417.463806	0.795769	city	4	1	0.802266	0.802266	0	1	0	0	CorrectCommission	0.591036	0.781930	0
418.259613	0.795840	city	9	1	0.757308	0.757308	0	1	0	0	CorrectCommission	0.117587	0.826254	0
419.055603	0.796099	city	8	1	0.752419	0.752419	0	1	0	0	CorrectCommission	0.066104	0.869182	0
419.851379	0.795492	city	3	1	0.707104	0.707104	0	1	0	0	CorrectCommission	0.411098	0.907716	0
420.647034	0.795776	city	8	1	0.705055	0.705055	0	1	0	0	CorrectCommission	0.432676	0.938843	0
421.442841	0.795851	city	9	1	1.100908	1.100908	0	1	0	0	CorrectCommission	3.735982	0.959945	0
422.238647	0.795782	city	8	1	1.046755	1.046755	0	1	0	0	CorrectCommission	3.165706	0.969080	0
423.034424	0.795748	city	5	0	0.000000	0.803073	0	0	0	1	OmissionError	0.599536	0.965438	0
423.830231	0.795903	city	9	1	0.598830	0.598830	0	1	0	0	CorrectCommission	1.551312	0.949548	0
424.626099	0.795793	city	2	1	0.662994	0.662994	0	1	0	0	CorrectCommission	0.875619	0.922949	0
425.421875	0.795796	mountain	2	0	0.000000	0.706006	1	0	0	0	CorrectOmission	0.422660	0.888135	0
426.217651	0.795721	city	1	1	0.748063	0.748063	0	1	0	0	CorrectCommission	0.020233	0.848175	0
427.013428	0.795860	city	7	1	0.809359	0.809359	0	1	0	0	CorrectCommission	0.665728	0.806259	0
427.809265	0.795822	city	10	1	0.702455	0.702455	0	1	0	0	CorrectCommission	0.460062	0.765291	0
428.605072	0.795758	city	7	1	0.763172	0.763172	0	1	0	0	CorrectCommission	0.179348	0.727649	0
429.400970	0.796081	city	1	1	0.897318	0.897318	0	1	0	0	CorrectCommission	1.592016	0.694920	1
430.196808	0.795578	city	5	1	0.797593	0.797593	0	1	0	0	CorrectCommission	0.541826	0.667805	1
430.992493	0.795761	city	2	1	0.748438	0.748438	0	1	0	0	CorrectCommission	0.024185	0.646315	1
431.788239	0.795748	city	1	1	0.661099	0.661099	0	1	0	0	CorrectCommission	0.895573	0.629794	1
432.584045	0.795888	city	7	1	0.748167	0.748167	0	1	0	0	CorrectCommission	0.021324	0.617170	1
433.379852	0.795714	city	6	1	0.707783	0.707783	0	1	0	0	CorrectCommission	0.403946	0.607254	1
434.175629	0.795823	city	8	1	0.607820	0.607820	0	1	0	0	CorrectCommission	1.456645	0.598916	1
434.971436	0.795821	city	6	1	0.710156	0.710156	0	1	0	0	CorrectCommission	0.378964	0.591247	1
435.767242	0.795753	city	7	1	0.607267	0.607267	0	1	0	0	CorrectCommission	1.462466	0.583805	1
436.563171	0.796132	city	9	1	0.699503	0.699503	0	1	0	0	CorrectCommission	0.491141	0.576538	1
437.359039	0.795569	city	1	1	0.747816	0.747816	0	1	0	0	CorrectCommission	0.017626	0.569809	1
438.154785	0.795970	city	5	1	0.699006	0.699006	0	1	0	0	CorrectCommission	0.496378	0.564339	1
438.950745	0.795905	city	6	1	0.698059	0.698059	0	1	0	0	CorrectCommission	0.506350	0.560935	1
439.746582	0.795767	city	9	1	0.697943	0.697943	0	1	0	0	CorrectCommission	0.507569	0.560464	1
440.542236	0.795538	city	8	1	0.698573	0.698573	0	1	0	0	CorrectCommission	0.500938	0.563776	1
441.338013	0.796071	city	3	1	0.702049	0.702049	0	1	0	0	CorrectCommission	0.464334	0.571515	1
442.133789	0.795481	city	9	1	0.748479	0.748479	0	1	0	0	CorrectCommission	0.024614	0.584108	1
442.929474	0.795863	city	2	1	0.807777	0.807777	0	1	0	0	CorrectCommission	0.649067	0.601736	1
443.725433	0.796080	city	3	1	0.851588	0.851588	0	1	0	0	CorrectCommission	1.110439	0.624307	1
444.521240	0.795526	city	4	1	0.797442	0.797442	0	1	0	0	CorrectCommission	0.540231	0.651465	1
445.316895	0.795747	city	9	1	0.798142	0.798142	0	1	0	0	CorrectCommission	0.547605	0.682639	1
446.112671	0.795829	city	10	1	0.748562	0.748562	0	1	0	0	CorrectCommission	0.025489	0.717005	1
446.908508	0.795840	city	2	1	0.847983	0.847983	0	1	0	0	CorrectCommission	1.072470	0.753473	0
447.704315	0.795759	mountain	2	0	0.000000	0.843628	1	0	0	0	CorrectOmission	1.026615	0.790687	0
448.500122	0.795854	city	6	1	0.812860	0.812860	0	1	0	0	CorrectCommission	0.702603	0.827130	0
449.296051	0.796033	mountain	4	0	0.000000	0.833040	1	0	0	0	CorrectOmission	0.915114	0.861076	0
450.091858	0.795541	city	10	1	0.847912	0.847912	0	1	0	0	CorrectCommission	1.071723	0.890705	0
450.887512	0.795779	city	5	1	0.801219	0.801219	0	1	0	0	CorrectCommission	0.580008	0.914323	0
451.683441	0.796083	city	7	1	0.897567	0.897567	0	1	0	0	CorrectCommission	1.594637	0.930336	0
452.479248	0.795545	city	1	1	0.760043	0.760043	0	1	0	0	CorrectCommission	0.146392	0.937549	0
453.274872	0.795729	city	2	1	0.853357	0.853357	0	1	0	0	CorrectCommission	1.129062	0.935378	0
454.070679	0.795864	city	4	1	0.947248	0.947248	0	1	0	0	CorrectCommission	2.117819	0.923917	0
454.866516	0.795810	mountain	2	0	0.000000	0.913476	1	0	0	0	CorrectOmission	1.762166	0.904123	0
455.662323	0.795800	city	5	1	0.848362	0.848362	0	1	0	0	CorrectCommission	1.076461	0.877831	0
456.458130	0.795819	city	3	1	0.848229	0.848229	0	1	0	0	CorrectCommission	1.075060	0.847644	0
457.254089	0.796071	city	2	1	0.802555	0.802555	0	1	0	0	CorrectCommission	0.594074	0.816640	0
458.050018	0.795812	city	7	1	0.748426	0.748426	0	1	0	0	CorrectCommission	0.024056	0.788057	0
458.845703	0.795525	mountain	8	0	0.000000	0.766139	1	0	0	0	CorrectOmission	0.210585	0.764935	0
459.641357	0.795802	mountain	2	0	0.000000	0.800934	1	0	0	0	CorrectOmission	0.577005	0.749681	0
460.437134	0.795779	city	9	1	0.798052	0.798052	0	1	0	0	CorrectCommission	0.546661	0.743776	0
461.232941	0.795817	city	7	1	0.702736	0.702736	0	1	0	0	CorrectCommission	0.457102	0.747596	0
462.028748	0.795818	city	2	1	0.698747	0.698747	0	1	0	0	CorrectCommission	0.499111	0.760355	0
462.824677	0.796046	city	7	1	0.698560	0.698560	0	1	0	0	CorrectCommission	0.501074	0.780119	0
463.620453	0.795503	city	5	1	0.698288	0.698288	0	1	0	0	CorrectCommission	0.503941	0.804159	0
464.416138	0.795819	city	6	1	0.752557	0.752557	0	1	0	0	CorrectCommission	0.067560	0.829226	0
465.211945	0.795828	city	8	1	0.763508	0.763508	0	1	0	0	CorrectCommission	0.182883	0.852052	0
466.007751	0.795773	city	9	1	1.097126	1.097126	0	1	0	0	CorrectCommission	3.696155	0.869758	0
466.803680	0.796096	city	5	0	0.000000	0.893106	0	0	0	1	OmissionError	1.547661	0.880165	0
467.599518	0.795552	city	9	1	0.598555	0.598555	0	1	0	0	CorrectCommission	1.554217	0.882301	0
468.395325	0.796060	city	6	1	0.660575	0.660575	0	1	0	0	CorrectCommission	0.901095	0.876267	0
469.191101	0.795538	city	5	1	0.698678	0.698678	0	1	0	0	CorrectCommission	0.499831	0.863208	0
469.986877	0.795961	city	10	1	0.702257	0.702257	0	1	0	0	CorrectCommission	0.462144	0.845156	0
470.782654	0.795642	mountain	8	0	0.000000	0.775534	1	0	0	0	CorrectOmission	0.309530	0.824585	0
471.578491	0.796040	city	2	1	0.847533	0.847533	0	1	0	0	CorrectCommission	1.067732	0.804069	0
472.374298	0.795536	city	7	1	0.847274	0.847274	0	1	0	0	CorrectCommission	1.065005	0.785902	0
473.169983	0.795842	city	8	1	0.747967	0.747967	0	1	0	0	CorrectCommission	0.019223	0.771839	0
473.965942	0.796049	city	5	1	0.699422	0.699422	0	1	0	0	CorrectCommission	0.492002	0.762908	0
474.761719	0.795504	city	10	1	0.750941	0.750941	0	1	0	0	CorrectCommission	0.050540	0.759199	0
475.557495	0.796086	city	1	1	0.798017	0.798017	0	1	0	0	CorrectCommission	0.546287	0.759946	0
476.353302	0.795512	city	7	1	0.897240	0.897240	0	1	0	0	CorrectCommission	1.591196	0.763503	0
477.148926	0.795755	city	3	1	0.916254	0.916254	0	1	0	0	CorrectCommission	1.791421	0.767561	0
477.944702	0.795788	city	1	1	0.748143	0.748143	0	1	0	0	CorrectCommission	0.021072	0.769323	0
478.740509	0.795852	city	4	1	0.812514	0.812514	0	1	0	0	CorrectCommission	0.698956	0.765789	0
479.536407	0.795903	city	1	1	0.798472	0.798472	0	1	0	0	CorrectCommission	0.551081	0.753819	0
480.332336	0.795995	city	3	1	0.811942	0.811942	0	1	0	0	CorrectCommission	0.692933	0.730538	0
481.128113	0.795530	city	5	1	0.801788	0.801788	0	1	0	0	CorrectCommission	0.586005	0.693457	1
481.923920	0.796091	city	7	1	0.949212	0.949212	0	1	0	0	CorrectCommission	2.138499	0.640822	1
482.719727	0.795539	city	4	1	0.863712	0.863712	0	1	0	0	CorrectCommission	1.238111	0.571778	1
483.515381	0.795756	mountain	6	0	0.000000	0.809146	1	0	0	0	CorrectOmission	0.663488	0.486539	1
484.311157	0.795811	city	3	1	0.799309	0.799309	0	1	0	0	CorrectCommission	0.559892	0.386512	1
485.107117	0.796074	city	4	1	0.847994	0.847994	0	1	0	0	CorrectCommission	1.072587	0.274219	1
485.902893	0.795521	city	3	1	0.712290	0.712290	0	1	0	0	CorrectCommission	0.356486	0.153110	1
486.698578	0.795818	city	2	1	0.748744	0.748744	0	1	0	0	CorrectCommission	0.027405	0.027405	1
