onset	duration	trial_type	image_type	Press	ReactionTime	ReactionTime_Interpolated	CorrectOmission	CorrectCommission	CommissionError	OmissionError	response_type	nonsmoothVarianceTimeCourse	VarianceTimeCourse	In_the_Zone
8.421905	0.795509	city	10	1	0.947422	0.947422	0	1	0	0	CorrectCommission	1.282921	1.282921	0
9.217563	0.795808	city	8	1	0.611072	0.611072	0	1	0	0	CorrectCommission	0.986990	1.280508	0
10.013379	0.795824	city	1	1	0.550054	0.550054	0	1	0	0	CorrectCommission	1.398776	1.276349	0
10.809174	0.795765	city	7	1	0.549089	0.549089	0	1	0	0	CorrectCommission	1.405289	1.268926	0
11.604963	0.795814	city	2	1	0.500130	0.500130	0	1	0	0	CorrectCommission	1.735696	1.257210	0
12.400913	0.796087	city	3	1	0.401947	0.401947	0	1	0	0	CorrectCommission	2.398301	1.240761	0
13.196708	0.795501	city	5	1	0.549832	0.549832	0	1	0	0	CorrectCommission	1.400274	1.219733	0
13.992349	0.795781	city	3	1	0.649243	0.649243	0	1	0	0	CorrectCommission	0.729387	1.194898	0
14.788141	0.795806	city	7	1	0.699112	0.699112	0	1	0	0	CorrectCommission	0.392840	1.167417	0
15.583948	0.795808	city	9	1	0.605902	0.605902	0	1	0	0	CorrectCommission	1.021877	1.138620	0
16.379738	0.795771	city	2	1	0.549164	0.549164	0	1	0	0	CorrectCommission	1.404784	1.109737	0
17.175514	0.795782	city	8	1	0.549153	0.549153	0	1	0	0	CorrectCommission	1.404858	1.081726	0
17.971487	0.796163	city	1	1	0.599470	0.599470	0	1	0	0	CorrectCommission	1.065288	1.055070	0
18.767290	0.795446	mountain	8	0	0.000000	0.664109	1	0	0	0	CorrectOmission	0.629062	1.029705	0
19.563099	0.796169	city	10	1	0.698373	0.698373	0	1	0	0	CorrectCommission	0.397827	1.004996	0
20.358898	0.795430	city	4	1	0.657563	0.657563	0	1	0	0	CorrectCommission	0.673234	0.979843	0
21.154526	0.795826	city	9	1	0.649536	0.649536	0	1	0	0	CorrectCommission	0.727408	0.952858	0
21.950354	0.795829	city	8	1	0.501742	0.501742	0	1	0	0	CorrectCommission	1.724822	0.922658	0
22.746140	0.795744	city	7	1	0.549107	0.549107	0	1	0	0	CorrectCommission	1.405168	0.888057	0
23.541956	0.795890	city	2	1	0.599612	0.599612	0	1	0	0	CorrectCommission	1.064330	0.848400	0
24.337759	0.795715	mountain	6	1	0.500803	0.500803	0	0	1	0	CommissionError	1.731154	0.803692	0
25.133553	0.795871	city	2	1	0.698707	0.698707	0	1	0	0	CorrectCommission	0.395573	0.754608	0
25.929367	0.795758	city	1	1	0.649523	0.649523	0	1	0	0	CorrectCommission	0.727494	0.702567	0
26.725172	0.795852	city	3	1	0.897412	0.897412	0	1	0	0	CorrectCommission	0.945420	0.649417	1
27.520966	0.795733	city	9	1	0.798199	0.798199	0	1	0	0	CorrectCommission	0.275870	0.597272	1
28.316917	0.796171	city	2	1	0.748922	0.748922	0	1	0	0	CorrectCommission	0.056687	0.548254	1
29.112900	0.795794	city	1	1	0.747677	0.747677	0	1	0	0	CorrectCommission	0.065086	0.504175	1
29.908510	0.795430	city	4	1	0.798538	0.798538	0	1	0	0	CorrectCommission	0.278158	0.466341	1
30.704161	0.795871	city	9	1	0.798369	0.798369	0	1	0	0	CorrectCommission	0.277014	0.435502	1
31.499975	0.795758	city	7	1	0.747883	0.747883	0	1	0	0	CorrectCommission	0.063697	0.411808	1
32.295784	0.795859	city	4	1	0.812003	0.812003	0	1	0	0	CorrectCommission	0.369024	0.394898	1
33.091606	0.795789	mountain	9	0	0.000000	0.747136	1	0	0	0	CorrectOmission	0.068742	0.384023	1
33.887398	0.795789	city	6	1	0.652337	0.652337	0	1	0	0	CorrectCommission	0.708504	0.378263	1
34.683346	0.796113	mountain	3	0	0.000000	0.626663	1	0	0	0	CorrectOmission	0.881771	0.376746	1
35.479126	0.795446	city	3	1	0.652568	0.652568	0	1	0	0	CorrectCommission	0.706944	0.378793	1
36.274750	0.795800	city	1	1	0.712509	0.712509	0	1	0	0	CorrectCommission	0.302425	0.384058	1
37.070679	0.796059	city	8	1	0.758007	0.758007	0	1	0	0	CorrectCommission	0.004624	0.392504	1
37.866524	0.795630	city	6	1	0.760815	0.760815	0	1	0	0	CorrectCommission	0.023574	0.404346	1
38.662373	0.796070	city	7	1	0.699298	0.699298	0	1	0	0	CorrectCommission	0.391584	0.419917	1
39.458313	0.795806	city	6	1	0.699372	0.699372	0	1	0	0	CorrectCommission	0.391084	0.439519	1
40.253944	0.795457	city	10	1	0.698885	0.698885	0	1	0	0	CorrectCommission	0.394371	0.463313	1
41.049591	0.795837	city	7	1	0.853042	0.853042	0	1	0	0	CorrectCommission	0.645984	0.491162	1
41.845402	0.795781	city	6	1	0.762493	0.762493	0	1	0	0	CorrectCommission	0.034903	0.522495	1
42.641178	0.795774	city	3	1	0.652872	0.652872	0	1	0	0	CorrectCommission	0.704898	0.556385	1
43.436996	0.795866	city	8	1	0.662917	0.662917	0	1	0	0	CorrectCommission	0.637108	0.591424	1
44.232803	0.795750	mountain	1	0	0.000000	0.774113	1	0	0	0	CorrectOmission	0.113321	0.625858	1
45.028572	0.795785	city	4	1	0.800406	0.800406	0	1	0	0	CorrectCommission	0.290762	0.657755	1
45.824535	0.796140	city	3	1	0.555739	0.555739	0	1	0	0	CorrectCommission	1.360412	0.685125	1
46.620522	0.795833	city	5	1	0.549120	0.549120	0	1	0	0	CorrectCommission	1.405085	0.706103	0
47.416229	0.795585	city	8	1	0.609027	0.609027	0	1	0	0	CorrectCommission	1.000788	0.719182	0
48.212025	0.796005	city	3	1	0.599010	0.599010	0	1	0	0	CorrectCommission	1.068390	0.723385	0
49.074070	0.928086	city	7	1	0.753883	0.753883	0	1	0	0	CorrectCommission	0.023205	0.718313	0
49.936008	0.795796	city	9	1	0.555610	0.555610	0	1	0	0	CorrectCommission	1.361285	0.704263	0
50.731827	0.795841	city	6	1	0.649197	0.649197	0	1	0	0	CorrectCommission	0.729699	0.682093	1
51.527637	0.795778	city	5	1	0.566872	0.566872	0	1	0	0	CorrectCommission	1.285282	0.653289	1
52.323456	0.795856	city	1	1	0.648726	0.648726	0	1	0	0	CorrectCommission	0.732872	0.619729	1
53.119270	0.795780	city	7	1	0.850207	0.850207	0	1	0	0	CorrectCommission	0.626855	0.583562	1
53.915035	0.795748	city	9	1	0.757598	0.757598	0	1	0	0	CorrectCommission	0.001864	0.546980	1
54.710865	0.795910	city	6	1	0.716973	0.716973	0	1	0	0	CorrectCommission	0.272299	0.512068	1
55.506668	0.795697	city	4	1	0.698514	0.698514	0	1	0	0	CorrectCommission	0.396870	0.480551	1
56.302605	0.796174	city	1	1	0.748338	0.748338	0	1	0	0	CorrectCommission	0.060626	0.453719	1
57.098454	0.795529	city	6	1	0.762098	0.762098	0	1	0	0	CorrectCommission	0.032237	0.432388	1
57.894104	0.795772	city	4	1	0.649170	0.649170	0	1	0	0	CorrectCommission	0.729878	0.416850	1
58.689899	0.795813	city	8	1	0.648872	0.648872	0	1	0	0	CorrectCommission	0.731892	0.406907	1
59.485699	0.795789	city	5	1	0.748021	0.748021	0	1	0	0	CorrectCommission	0.062769	0.402036	1
60.281490	0.795791	city	8	1	0.748317	0.748317	0	1	0	0	CorrectCommission	0.060766	0.401465	1
61.077286	0.795805	mountain	10	0	0.000000	0.704462	1	0	0	0	CorrectOmission	0.356731	0.404265	1
61.873108	0.795834	city	2	1	0.670354	0.670354	0	1	0	0	CorrectCommission	0.586917	0.409445	1
62.668884	0.795724	city	9	1	0.699891	0.699891	0	1	0	0	CorrectCommission	0.387581	0.416073	1
63.464642	0.795786	city	3	1	0.615090	0.615090	0	1	0	0	CorrectCommission	0.959872	0.423290	1
64.260460	0.795855	city	8	1	0.804191	0.804191	0	1	0	0	CorrectCommission	0.316306	0.430335	1
65.056297	0.795812	city	2	1	0.707513	0.707513	0	1	0	0	CorrectCommission	0.336145	0.436628	1
65.852097	0.795788	city	1	1	0.763457	0.763457	0	1	0	0	CorrectCommission	0.041408	0.441660	1
66.648048	0.796122	city	3	1	0.704706	0.704706	0	1	0	0	CorrectCommission	0.355083	0.445088	1
67.443863	0.795508	city	10	1	0.911826	0.911826	0	1	0	0	CorrectCommission	1.042700	0.446592	1
68.239525	0.795817	city	5	1	0.804480	0.804480	0	1	0	0	CorrectCommission	0.318258	0.445979	1
69.035324	0.795770	mountain	4	0	0.000000	0.702224	1	0	0	0	CorrectOmission	0.371838	0.443216	1
69.831108	0.795799	city	2	1	0.651497	0.651497	0	1	0	0	CorrectCommission	0.714175	0.438387	1
70.626892	0.795780	city	4	1	0.698741	0.698741	0	1	0	0	CorrectCommission	0.395340	0.431723	1
71.422668	0.795761	city	7	1	0.699180	0.699180	0	1	0	0	CorrectCommission	0.392378	0.423681	1
72.218483	0.795868	city	2	1	0.648857	0.648857	0	1	0	0	CorrectCommission	0.731992	0.414845	1
73.014305	0.795781	city	8	1	0.705335	0.705335	0	1	0	0	CorrectCommission	0.350837	0.405901	1
73.810127	0.795862	city	3	1	0.798106	0.798106	0	1	0	0	CorrectCommission	0.275238	0.397612	1
74.606087	0.796061	city	9	1	0.748590	0.748590	0	1	0	0	CorrectCommission	0.058926	0.390705	1
75.401886	0.795530	city	8	1	0.698067	0.698067	0	1	0	0	CorrectCommission	0.399886	0.385766	1
76.197517	0.795737	city	9	1	0.649592	0.649592	0	1	0	0	CorrectCommission	0.727029	0.383151	1
76.993286	0.795805	city	7	1	0.748336	0.748336	0	1	0	0	CorrectCommission	0.060639	0.382936	1
77.789124	0.795863	city	4	1	0.797943	0.797943	0	1	0	0	CorrectCommission	0.274138	0.384914	1
78.584946	0.795785	city	5	1	0.748022	0.748022	0	1	0	0	CorrectCommission	0.062758	0.388570	1
79.380707	0.795744	city	1	1	0.699242	0.699242	0	1	0	0	CorrectCommission	0.391958	0.393178	1
80.176521	0.795883	city	5	1	0.699383	0.699383	0	1	0	0	CorrectCommission	0.391010	0.397871	1
80.972343	0.795753	city	9	1	0.698719	0.698719	0	1	0	0	CorrectCommission	0.395491	0.401812	1
81.768127	0.795813	city	5	1	0.653159	0.653159	0	1	0	0	CorrectCommission	0.702960	0.404385	1
82.563942	0.795825	city	7	1	0.698323	0.698323	0	1	0	0	CorrectCommission	0.398163	0.405291	1
83.359756	0.795798	city	8	1	0.648735	0.648735	0	1	0	0	CorrectCommission	0.732815	0.404714	1
84.155540	0.795779	city	3	1	0.599004	0.599004	0	1	0	0	CorrectCommission	1.068429	0.403260	1
84.951332	0.795795	city	4	1	0.699343	0.699343	0	1	0	0	CorrectCommission	0.391275	0.401911	1
85.747124	0.795791	city	10	1	0.757194	0.757194	0	1	0	0	CorrectCommission	0.000860	0.401989	1
86.543068	0.796103	city	4	1	0.702360	0.702360	0	1	0	0	CorrectCommission	0.370917	0.404837	1
87.338898	0.795552	city	10	1	0.748063	0.748063	0	1	0	0	CorrectCommission	0.062485	0.411623	1
88.134712	0.796072	city	3	1	0.748014	0.748014	0	1	0	0	CorrectCommission	0.062813	0.423164	1
88.930496	0.795502	city	2	1	0.750638	0.750638	0	1	0	0	CorrectCommission	0.045106	0.439730	1
89.726295	0.796100	city	4	1	0.797719	0.797719	0	1	0	0	CorrectCommission	0.272627	0.460978	1
90.522102	0.795506	city	5	1	0.698329	0.698329	0	1	0	0	CorrectCommission	0.398124	0.485979	1
91.317749	0.795783	mountain	7	0	0.000000	0.665933	1	0	0	0	CorrectOmission	0.616752	0.513327	1
92.113518	0.795758	city	5	1	0.699527	0.699527	0	1	0	0	CorrectCommission	0.390038	0.541342	1
92.909348	0.795896	city	6	1	0.798106	0.798106	0	1	0	0	CorrectCommission	0.275238	0.568300	1
93.705193	0.795798	city	8	1	0.549413	0.549413	0	1	0	0	CorrectCommission	1.403103	0.592642	1
94.500969	0.795756	city	1	1	0.499732	0.499732	0	1	0	0	CorrectCommission	1.738386	0.613120	1
95.296722	0.795744	city	8	1	0.649350	0.649350	0	1	0	0	CorrectCommission	0.728665	0.628975	1
96.092545	0.795916	mountain	7	0	0.000000	0.698667	1	0	0	0	CorrectOmission	0.395841	0.639948	1
96.888351	0.795692	city	10	1	0.698254	0.698254	0	1	0	0	CorrectCommission	0.398630	0.646135	1
97.684120	0.795847	city	5	1	0.698681	0.698681	0	1	0	0	CorrectCommission	0.395747	0.647951	1
98.479973	0.795863	city	1	1	0.614301	0.614301	0	1	0	0	CorrectCommission	0.965199	0.645985	1
99.275795	0.795771	city	7	1	0.810018	0.810018	0	1	0	0	CorrectCommission	0.355628	0.640856	1
100.071548	0.795741	city	2	1	0.799140	0.799140	0	1	0	0	CorrectCommission	0.282221	0.633216	1
100.867348	0.795852	city	6	1	0.897635	0.897635	0	1	0	0	CorrectCommission	0.946926	0.623737	1
101.663170	0.795803	city	9	1	0.710584	0.710584	0	1	0	0	CorrectCommission	0.315415	0.613069	1
102.458992	0.795828	city	2	1	0.609957	0.609957	0	1	0	0	CorrectCommission	0.994516	0.602078	1
103.254761	0.795715	city	10	1	0.599854	0.599854	0	1	0	0	CorrectCommission	1.062697	0.591806	1
104.050560	0.795888	city	5	1	0.649479	0.649479	0	1	0	0	CorrectCommission	0.727796	0.583500	1
104.846397	0.795781	city	2	1	0.650948	0.650948	0	1	0	0	CorrectCommission	0.717882	0.578577	1
105.642189	0.795796	city	4	1	0.848428	0.848428	0	1	0	0	CorrectCommission	0.614849	0.578444	1
106.437950	0.795739	city	7	1	0.766541	0.766541	0	1	0	0	CorrectCommission	0.062218	0.584292	1
107.233757	0.795874	city	2	1	0.748881	0.748881	0	1	0	0	CorrectCommission	0.056962	0.596874	1
108.029610	0.795820	city	8	1	0.766729	0.766729	0	1	0	0	CorrectCommission	0.063484	0.616204	1
108.825401	0.795768	city	1	1	0.698584	0.698584	0	1	0	0	CorrectCommission	0.396399	0.641469	1
109.621193	0.795811	city	5	1	0.798009	0.798009	0	1	0	0	CorrectCommission	0.274588	0.670946	1
110.417007	0.795824	city	4	1	0.602852	0.602852	0	1	0	0	CorrectCommission	1.042464	0.702165	1
111.212799	0.795757	mountain	3	0	0.000000	0.677013	1	0	0	0	CorrectOmission	0.541973	0.732070	0
112.008553	0.795758	city	4	1	0.749512	0.749512	0	1	0	0	CorrectCommission	0.052706	0.757447	0
112.804382	0.795891	city	8	1	0.549365	0.549365	0	1	0	0	CorrectCommission	1.403430	0.775353	0
113.600182	0.795709	city	10	1	0.450177	0.450177	0	1	0	0	CorrectCommission	2.072814	0.783410	0
114.395966	0.795862	city	9	1	0.456846	0.456846	0	1	0	0	CorrectCommission	2.027810	0.780244	0
115.191772	0.795752	city	10	1	0.613775	0.613775	0	1	0	0	CorrectCommission	0.968746	0.765694	0
115.987556	0.795807	city	4	1	0.507698	0.507698	0	1	0	0	CorrectCommission	1.684625	0.740771	0
116.783386	0.795855	city	7	1	0.748158	0.748158	0	1	0	0	CorrectCommission	0.061840	0.707480	0
117.579216	0.795806	city	3	1	0.751242	0.751242	0	1	0	0	CorrectCommission	0.041031	0.668672	1
118.375160	0.796087	city	8	1	0.854657	0.854657	0	1	0	0	CorrectCommission	0.656884	0.627455	1
119.170952	0.795492	city	6	1	0.748025	0.748025	0	1	0	0	CorrectCommission	0.062737	0.586903	1
119.966606	0.795816	city	1	1	0.748284	0.748284	0	1	0	0	CorrectCommission	0.060994	0.549722	1
120.762405	0.795780	city	5	1	0.798113	0.798113	0	1	0	0	CorrectCommission	0.275286	0.517963	1
121.558220	0.795848	city	8	1	0.806860	0.806860	0	1	0	0	CorrectCommission	0.334320	0.492903	1
122.354042	0.795803	city	6	1	0.897272	0.897272	0	1	0	0	CorrectCommission	0.944477	0.475082	1
123.149841	0.795795	city	2	1	0.748647	0.748647	0	1	0	0	CorrectCommission	0.058543	0.464325	1
123.945641	0.795805	mountain	1	1	0.649437	0.649437	0	0	1	0	CommissionError	0.728079	0.460000	1
124.741585	0.796075	city	6	1	0.797919	0.797919	0	1	0	0	CorrectCommission	0.273976	0.461121	1
125.537369	0.795505	city	1	1	0.706381	0.706381	0	1	0	0	CorrectCommission	0.343783	0.466585	1
126.333031	0.795813	city	3	1	0.648913	0.648913	0	1	0	0	CorrectCommission	0.731611	0.475299	1
127.128815	0.795762	city	8	1	0.708389	0.708389	0	1	0	0	CorrectCommission	0.330230	0.486293	1
127.924599	0.795797	city	1	1	0.666876	0.666876	0	1	0	0	CorrectCommission	0.610386	0.498772	1
128.720428	0.795863	city	6	1	0.748393	0.748393	0	1	0	0	CorrectCommission	0.060257	0.512104	1
129.516266	0.795800	city	10	1	0.698597	0.698597	0	1	0	0	CorrectCommission	0.396313	0.525869	1
130.312042	0.795767	city	6	1	0.947075	0.947075	0	1	0	0	CorrectCommission	1.280583	0.539684	1
131.107803	0.795747	city	4	1	0.815984	0.815984	0	1	0	0	CorrectCommission	0.395895	0.553170	1
131.903748	0.796146	city	9	1	0.698428	0.698428	0	1	0	0	CorrectCommission	0.397456	0.565981	1
132.699585	0.795541	city	6	1	0.599540	0.599540	0	1	0	0	CorrectCommission	1.064818	0.577690	1
133.495224	0.795717	city	3	1	0.710505	0.710505	0	1	0	0	CorrectCommission	0.315950	0.587698	1
134.291016	0.795871	city	7	1	0.809996	0.809996	0	1	0	0	CorrectCommission	0.355484	0.595388	1
135.086823	0.795752	city	9	1	0.798843	0.798843	0	1	0	0	CorrectCommission	0.280214	0.600020	1
135.882629	0.795849	city	6	1	0.847874	0.847874	0	1	0	0	CorrectCommission	0.611107	0.600809	1
136.678452	0.795798	city	5	1	0.848047	0.848047	0	1	0	0	CorrectCommission	0.612272	0.597048	1
137.474258	0.795813	city	1	1	0.997065	0.997065	0	1	0	0	CorrectCommission	1.617948	0.588232	1
138.270187	0.796061	city	10	1	0.897149	0.897149	0	1	0	0	CorrectCommission	0.943651	0.574088	1
139.065964	0.795498	city	2	1	0.798525	0.798525	0	1	0	0	CorrectCommission	0.278067	0.554766	1
139.861618	0.795809	city	4	1	0.897344	0.897344	0	1	0	0	CorrectCommission	0.944961	0.530811	1
140.657440	0.795826	city	1	1	0.749266	0.749266	0	1	0	0	CorrectCommission	0.054364	0.503199	1
141.453262	0.795822	mountain	7	0	0.000000	0.676042	1	0	0	0	CorrectOmission	0.548531	0.473276	1
142.249069	0.795790	city	5	1	0.666687	0.666687	0	1	0	0	CorrectCommission	0.611663	0.442666	1
143.044876	0.795805	mountain	8	0	0.000000	0.710218	1	0	0	0	CorrectOmission	0.317885	0.413194	1
143.840820	0.796081	mountain	5	0	0.000000	0.771775	1	0	0	0	CorrectOmission	0.097542	0.386729	1
144.636597	0.795491	city	2	1	0.816498	0.816498	0	1	0	0	CorrectCommission	0.399360	0.365061	1
145.432251	0.795818	mountain	6	0	0.000000	0.809526	1	0	0	0	CorrectOmission	0.352308	0.349678	1
146.228043	0.795758	mountain	2	0	0.000000	0.777815	1	0	0	0	CorrectOmission	0.138301	0.341718	1
147.023834	0.795816	city	5	1	0.748320	0.748320	0	1	0	0	CorrectCommission	0.060749	0.341816	1
147.819656	0.795854	city	1	1	0.747997	0.747997	0	1	0	0	CorrectCommission	0.062927	0.350002	1
148.615494	0.795793	city	7	1	0.756357	0.756357	0	1	0	0	CorrectCommission	0.006508	0.365703	1
149.411423	0.796065	city	6	1	0.698489	0.698489	0	1	0	0	CorrectCommission	0.397044	0.387779	1
150.207214	0.795525	city	8	1	0.799745	0.799745	0	1	0	0	CorrectCommission	0.286300	0.414611	1
151.002869	0.795802	city	2	1	0.750666	0.750666	0	1	0	0	CorrectCommission	0.044916	0.444294	1
151.798676	0.795811	city	4	1	0.699802	0.699802	0	1	0	0	CorrectCommission	0.388180	0.474811	1
152.594498	0.795817	city	8	1	0.603542	0.603542	0	1	0	0	CorrectCommission	1.037806	0.504218	1
153.390289	0.795770	city	3	1	0.615281	0.615281	0	1	0	0	CorrectCommission	0.958582	0.530853	1
154.186066	0.795795	city	2	1	0.648851	0.648851	0	1	0	0	CorrectCommission	0.732029	0.553523	1
154.981873	0.795820	city	4	1	0.648978	0.648978	0	1	0	0	CorrectCommission	0.731174	0.571512	1
155.777679	0.795772	city	1	1	0.506127	0.506127	0	1	0	0	CorrectCommission	1.695227	0.584623	1
156.573471	0.795820	city	3	1	0.748960	0.748960	0	1	0	0	CorrectCommission	0.056433	0.593075	1
157.369308	0.795842	city	7	1	0.714143	0.714143	0	1	0	0	CorrectCommission	0.291399	0.597496	1
158.165070	0.795702	city	4	1	0.798906	0.798906	0	1	0	0	CorrectCommission	0.280638	0.598608	1
158.960861	0.795867	city	7	1	0.698689	0.698689	0	1	0	0	CorrectCommission	0.395689	0.597174	1
159.756699	0.795825	city	1	1	0.859389	0.859389	0	1	0	0	CorrectCommission	0.688819	0.593871	1
160.552505	0.795772	mountain	1	0	0.000000	0.788000	1	0	0	0	CorrectOmission	0.207040	0.589303	1
161.348297	0.795824	city	7	1	0.649337	0.649337	0	1	0	0	CorrectCommission	0.728750	0.583998	1
162.144073	0.795724	city	4	1	0.608214	0.608214	0	1	0	0	CorrectCommission	1.006278	0.578452	1
162.939880	0.795873	city	5	1	0.549095	0.549095	0	1	0	0	CorrectCommission	1.405254	0.573209	1
163.735718	0.795806	city	3	1	0.698370	0.698370	0	1	0	0	CorrectCommission	0.397847	0.568930	1
164.531509	0.795782	city	6	1	0.748061	0.748061	0	1	0	0	CorrectCommission	0.062498	0.566443	1
165.327301	0.795795	city	3	1	0.648658	0.648658	0	1	0	0	CorrectCommission	0.733332	0.566583	1
166.123093	0.795788	city	7	1	0.698720	0.698720	0	1	0	0	CorrectCommission	0.395484	0.570212	1
166.918915	0.795858	city	4	1	0.798215	0.798215	0	1	0	0	CorrectCommission	0.275976	0.578045	1
167.714706	0.795741	mountain	10	0	0.000000	0.741947	1	0	0	0	CorrectOmission	0.103761	0.590546	1
168.510513	0.795862	city	7	1	0.650047	0.650047	0	1	0	0	CorrectCommission	0.723963	0.607873	1
169.306488	0.796078	mountain	5	0	0.000000	0.642647	1	0	0	0	CorrectOmission	0.773901	0.629795	1
170.102249	0.795447	city	5	1	0.699023	0.699023	0	1	0	0	CorrectCommission	0.393440	0.655690	1
170.897903	0.795859	city	6	1	0.798449	0.798449	0	1	0	0	CorrectCommission	0.277553	0.684641	1
171.693726	0.795786	city	9	1	0.798531	0.798531	0	1	0	0	CorrectCommission	0.278109	0.715515	0
172.489670	0.796104	city	1	1	0.505818	0.505818	0	1	0	0	CorrectCommission	1.697314	0.747090	0
173.285446	0.795448	city	7	1	0.615884	0.615884	0	1	0	0	CorrectCommission	0.954518	0.778104	0
174.081070	0.795823	city	1	1	0.599474	0.599474	0	1	0	0	CorrectCommission	1.065262	0.807525	0
174.876923	0.795873	city	8	1	0.655882	0.655882	0	1	0	0	CorrectCommission	0.684580	0.834440	0
175.672897	0.796057	city	2	1	0.555985	0.555985	0	1	0	0	CorrectCommission	1.358756	0.858139	0
176.468674	0.795510	city	6	1	0.707535	0.707535	0	1	0	0	CorrectCommission	0.335990	0.878020	0
177.264313	0.795780	city	10	1	0.608115	0.608115	0	1	0	0	CorrectCommission	1.006942	0.893627	0
178.060104	0.795791	city	5	1	0.847634	0.847634	0	1	0	0	CorrectCommission	0.609485	0.904489	0
178.855927	0.795845	city	8	1	0.599478	0.599478	0	1	0	0	CorrectCommission	1.065234	0.910171	0
179.651718	0.795760	mountain	7	0	0.000000	0.575078	1	0	0	0	CorrectOmission	1.229899	0.910200	0
180.447525	0.795827	mountain	8	1	0.749085	0.749085	0	0	1	0	CommissionError	0.055588	0.904162	0
181.243332	0.795784	city	9	1	1.096147	1.096147	0	1	0	0	CorrectCommission	2.286620	0.891854	0
182.039124	0.795823	city	8	0	0.000000	0.922743	0	0	0	1	OmissionError	1.116374	0.873241	0
182.834900	0.795735	city	7	1	0.699830	0.699830	0	1	0	0	CorrectCommission	0.387993	0.848680	0
183.630692	0.795848	city	2	1	0.898365	0.898365	0	1	0	0	CorrectCommission	0.951854	0.818935	0
184.426498	0.795755	city	9	1	0.997738	0.997738	0	1	0	0	CorrectCommission	1.622491	0.785105	0
185.222305	0.795854	city	3	1	0.648654	0.648654	0	1	0	0	CorrectCommission	0.733358	0.748657	0
186.018158	0.795843	city	7	1	0.698331	0.698331	0	1	0	0	CorrectCommission	0.398111	0.711340	0
186.813919	0.795698	city	9	1	0.798813	0.798813	0	1	0	0	CorrectCommission	0.280013	0.674954	1
187.609695	0.795850	city	3	1	0.714757	0.714757	0	1	0	0	CorrectCommission	0.287254	0.641243	1
188.405685	0.796114	city	6	1	0.897614	0.897614	0	1	0	0	CorrectCommission	0.946787	0.611718	1
189.201645	0.795808	city	2	1	0.661845	0.661845	0	1	0	0	CorrectCommission	0.644337	0.587513	1
189.997299	0.795514	city	9	1	0.748778	0.748778	0	1	0	0	CorrectCommission	0.057659	0.569282	1
190.792969	0.795826	mountain	2	0	0.000000	0.752409	1	0	0	0	CorrectOmission	0.033154	0.557241	1
191.588745	0.795706	city	8	1	0.707562	0.707562	0	1	0	0	CorrectCommission	0.335808	0.551140	1
192.384506	0.795831	city	7	1	0.649062	0.649062	0	1	0	0	CorrectCommission	0.730605	0.550327	1
193.180328	0.795816	city	8	1	0.648995	0.648995	0	1	0	0	CorrectCommission	0.731058	0.553850	1
193.976303	0.796120	city	10	1	0.898160	0.898160	0	1	0	0	CorrectCommission	0.950473	0.560664	1
194.772263	0.795803	city	5	1	0.798222	0.798222	0	1	0	0	CorrectCommission	0.276020	0.569646	1
195.568054	0.795796	city	2	1	0.707327	0.707327	0	1	0	0	CorrectCommission	0.337398	0.579810	1
196.363708	0.795505	city	5	1	0.701231	0.701231	0	1	0	0	CorrectCommission	0.378536	0.590274	1
197.159348	0.795763	city	4	1	0.996754	0.996754	0	1	0	0	CorrectCommission	1.615845	0.600310	1
197.955109	0.795780	city	8	1	0.798144	0.798144	0	1	0	0	CorrectCommission	0.275497	0.609359	1
198.750931	0.795852	city	7	1	0.855305	0.855305	0	1	0	0	CorrectCommission	0.661258	0.617050	1
199.546768	0.795816	mountain	2	0	0.000000	0.726315	1	0	0	0	CorrectOmission	0.209256	0.623157	1
200.342545	0.795756	city	1	1	0.658105	0.658105	0	1	0	0	CorrectCommission	0.669576	0.627615	1
201.138367	0.795866	city	4	1	0.897611	0.897611	0	1	0	0	CorrectCommission	0.946762	0.630444	1
201.934174	0.795769	city	2	1	0.699207	0.699207	0	1	0	0	CorrectCommission	0.392199	0.631800	1
202.729980	0.795841	city	1	1	0.665501	0.665501	0	1	0	0	CorrectCommission	0.619669	0.632029	1
203.525818	0.795812	city	7	1	0.899337	0.899337	0	1	0	0	CorrectCommission	0.958416	0.631600	1
204.321579	0.795713	city	5	1	0.897431	0.897431	0	1	0	0	CorrectCommission	0.945553	0.631146	1
205.117371	0.795879	mountain	9	0	0.000000	0.794866	1	0	0	0	CorrectOmission	0.253376	0.631426	1
205.913193	0.795774	city	2	1	0.662455	0.662455	0	1	0	0	CorrectCommission	0.640223	0.633239	1
206.708969	0.795774	city	3	1	0.571010	0.571010	0	1	0	0	CorrectCommission	1.257353	0.637344	1
207.504776	0.795839	city	4	1	0.798211	0.798211	0	1	0	0	CorrectCommission	0.275949	0.644339	1
208.300735	0.796092	city	3	1	0.752056	0.752056	0	1	0	0	CorrectCommission	0.035533	0.654607	1
209.096680	0.795780	city	7	1	0.707468	0.707468	0	1	0	0	CorrectCommission	0.336447	0.668156	1
209.892319	0.795507	city	8	1	0.747758	0.747758	0	1	0	0	CorrectCommission	0.064543	0.684615	1
210.687988	0.795842	city	4	1	0.898361	0.898361	0	1	0	0	CorrectCommission	0.951828	0.703255	0
211.483963	0.796078	city	6	1	0.549330	0.549330	0	1	0	0	CorrectCommission	1.403662	0.723029	0
212.279739	0.795477	city	8	1	0.600045	0.600045	0	1	0	0	CorrectCommission	1.061403	0.742706	0
213.075363	0.795794	city	6	1	0.698320	0.698320	0	1	0	0	CorrectCommission	0.398181	0.761037	0
213.871170	0.795804	city	9	1	0.710624	0.710624	0	1	0	0	CorrectCommission	0.315145	0.776854	0
214.666992	0.795841	city	6	1	0.513957	0.513957	0	1	0	0	CorrectCommission	1.642383	0.789156	0
215.462784	0.795755	city	10	1	0.599360	0.599360	0	1	0	0	CorrectCommission	1.066032	0.797174	0
216.258575	0.795823	city	7	1	0.850103	0.850103	0	1	0	0	CorrectCommission	0.626151	0.800500	0
217.054550	0.796123	city	8	1	0.598954	0.598954	0	1	0	0	CorrectCommission	1.068769	0.799080	0
217.850510	0.795804	city	4	1	0.649295	0.649295	0	1	0	0	CorrectCommission	0.729038	0.793127	0
218.646164	0.795496	city	9	1	0.699062	0.699062	0	1	0	0	CorrectCommission	0.393177	0.783113	0
219.441833	0.795843	city	5	1	0.598887	0.598887	0	1	0	0	CorrectCommission	1.069220	0.769731	0
220.237778	0.796056	city	10	1	0.615958	0.615958	0	1	0	0	CorrectCommission	0.954017	0.753770	0
221.033539	0.795446	city	1	1	0.798556	0.798556	0	1	0	0	CorrectCommission	0.278274	0.736142	0
221.829208	0.795893	city	5	1	0.558750	0.558750	0	1	0	0	CorrectCommission	1.340095	0.717779	0
222.625031	0.795761	city	2	1	0.610818	0.610818	0	1	0	0	CorrectCommission	0.988701	0.699549	1
223.420959	0.796109	city	8	1	0.710575	0.710575	0	1	0	0	CorrectCommission	0.315480	0.682274	1
224.216751	0.795474	city	1	1	0.749425	0.749425	0	1	0	0	CorrectCommission	0.053290	0.666607	1
225.012543	0.796099	city	2	1	0.897467	0.897467	0	1	0	0	CorrectCommission	0.945794	0.653000	1
225.808350	0.795502	city	8	1	0.800514	0.800514	0	1	0	0	CorrectCommission	0.291489	0.641671	1
226.603989	0.795797	city	3	1	0.608326	0.608326	0	1	0	0	CorrectCommission	1.005520	0.632585	1
227.399811	0.795819	city	1	1	0.715558	0.715558	0	1	0	0	CorrectCommission	0.281851	0.625499	1
228.195587	0.795760	city	2	1	0.847482	0.847482	0	1	0	0	CorrectCommission	0.608462	0.620006	1
228.991547	0.796161	city	8	1	0.804303	0.804303	0	1	0	0	CorrectCommission	0.317062	0.615582	1
229.787369	0.795457	city	4	1	0.549074	0.549074	0	1	0	0	CorrectCommission	1.405395	0.611716	1
230.583023	0.795872	city	7	1	0.797833	0.797833	0	1	0	0	CorrectCommission	0.273398	0.607985	1
231.378815	0.795715	city	5	1	0.762790	0.762790	0	1	0	0	CorrectCommission	0.036906	0.604250	1
232.174622	0.795882	city	1	1	0.614259	0.614259	0	1	0	0	CorrectCommission	0.965482	0.600599	1
232.970459	0.795812	city	3	1	0.549059	0.549059	0	1	0	0	CorrectCommission	1.405491	0.597416	1
233.766251	0.795748	city	10	1	0.648667	0.648667	0	1	0	0	CorrectCommission	0.733271	0.595356	1
234.562027	0.795805	city	9	1	0.698711	0.698711	0	1	0	0	CorrectCommission	0.395543	0.595350	1
235.357788	0.795743	city	3	1	0.748485	0.748485	0	1	0	0	CorrectCommission	0.059634	0.598454	1
236.153580	0.795835	city	1	1	0.847667	0.847667	0	1	0	0	CorrectCommission	0.609707	0.605780	1
236.949402	0.795786	city	4	1	0.748965	0.748965	0	1	0	0	CorrectCommission	0.056393	0.618241	1
237.745209	0.795828	mountain	5	0	0.000000	0.684468	1	0	0	0	CorrectOmission	0.491667	0.636558	1
238.541046	0.795845	city	10	1	0.655334	0.655334	0	1	0	0	CorrectCommission	0.688278	0.661076	1
239.336868	0.795825	city	9	1	0.662727	0.662727	0	1	0	0	CorrectCommission	0.638389	0.691701	1
240.132675	0.795779	city	6	1	0.711669	0.711669	0	1	0	0	CorrectCommission	0.308096	0.727932	0
240.928467	0.795797	city	1	1	0.515984	0.515984	0	1	0	0	CorrectCommission	1.628706	0.768862	0
241.724258	0.795800	city	10	1	0.748734	0.748734	0	1	0	0	CorrectCommission	0.057952	0.813149	0
242.520142	0.795966	city	5	1	0.555565	0.555565	0	1	0	0	CorrectCommission	1.361585	0.859203	0
243.315918	0.795581	city	9	1	0.847585	0.847585	0	1	0	0	CorrectCommission	0.609160	0.905122	0
244.111603	0.795798	city	5	1	0.897416	0.897416	0	1	0	0	CorrectCommission	0.945448	0.948879	0
244.907440	0.795867	city	1	1	0.801878	0.801878	0	1	0	0	CorrectCommission	0.300696	0.988390	0
245.703247	0.795756	city	4	1	0.605656	0.605656	0	1	0	0	CorrectCommission	1.023539	1.021744	0
246.499054	0.795838	city	3	1	0.549731	0.549731	0	1	0	0	CorrectCommission	1.400961	1.047213	0
247.295013	0.796078	city	8	1	0.402369	0.402369	0	1	0	0	CorrectCommission	2.395455	1.063463	0
248.090820	0.795535	city	1	1	0.351615	0.351615	0	1	0	0	CorrectCommission	2.737974	1.069675	0
248.886627	0.796087	mountain	1	1	0.798438	0.798438	0	0	1	0	CommissionError	0.277479	1.065626	0
249.682571	0.795811	city	3	1	0.797725	0.797725	0	1	0	0	CorrectCommission	0.272666	1.051745	0
250.478241	0.795533	city	9	1	0.698648	0.698648	0	1	0	0	CorrectCommission	0.395967	1.028890	0
251.273880	0.795730	city	3	1	0.505825	0.505825	0	1	0	0	CorrectCommission	1.697263	0.998426	0
252.069672	0.795857	city	8	1	0.566336	0.566336	0	1	0	0	CorrectCommission	1.288898	0.961953	0
252.865509	0.795821	city	2	1	0.516087	0.516087	0	1	0	0	CorrectCommission	1.628009	0.921355	0
253.661316	0.795781	city	7	1	0.614797	0.614797	0	1	0	0	CorrectCommission	0.961852	0.878521	0
254.457092	0.795788	city	3	1	0.698262	0.698262	0	1	0	0	CorrectCommission	0.398575	0.835287	0
255.252899	0.795814	city	8	1	0.662737	0.662737	0	1	0	0	CorrectCommission	0.638319	0.793286	0
256.048706	0.795782	city	2	1	0.698400	0.698400	0	1	0	0	CorrectCommission	0.397640	0.753788	0
256.844482	0.795804	city	9	1	0.798018	0.798018	0	1	0	0	CorrectCommission	0.274643	0.717706	0
257.640289	0.795814	city	4	1	0.815311	0.815311	0	1	0	0	CorrectCommission	0.391349	0.685561	1
258.436066	0.795735	city	5	1	0.599221	0.599221	0	1	0	0	CorrectCommission	1.066969	0.657460	1
259.231842	0.795779	city	4	1	0.698752	0.698752	0	1	0	0	CorrectCommission	0.395270	0.633260	1
260.027618	0.795814	city	6	1	0.715874	0.715874	0	1	0	0	CorrectCommission	0.279713	0.612641	1
260.823486	0.795903	city	10	1	0.500409	0.500409	0	1	0	0	CorrectCommission	1.733819	0.595232	1
261.619293	0.795737	city	9	1	0.698215	0.698215	0	1	0	0	CorrectCommission	0.398891	0.580635	1
262.415070	0.795780	city	1	1	0.698637	0.698637	0	1	0	0	CorrectCommission	0.396046	0.568689	1
263.210876	0.795856	city	6	1	0.699379	0.699379	0	1	0	0	CorrectCommission	0.391037	0.559283	1
264.006714	0.795819	city	5	1	0.698241	0.698241	0	1	0	0	CorrectCommission	0.398718	0.552458	1
264.802521	0.795801	city	10	1	0.798055	0.798055	0	1	0	0	CorrectCommission	0.274894	0.548409	1
265.598297	0.795766	city	5	1	0.747964	0.747964	0	1	0	0	CorrectCommission	0.063151	0.547515	1
266.394073	0.795738	city	6	1	0.997068	0.997068	0	1	0	0	CorrectCommission	1.617964	0.550312	1
267.189880	0.795876	city	4	1	0.754404	0.754404	0	1	0	0	CorrectCommission	0.019690	0.557381	1
267.985718	0.795826	city	10	1	0.699274	0.699274	0	1	0	0	CorrectCommission	0.391744	0.569493	1
268.781525	0.795802	city	3	1	0.648976	0.648976	0	1	0	0	CorrectCommission	0.731191	0.587289	1
269.577332	0.795789	city	9	1	0.800049	0.800049	0	1	0	0	CorrectCommission	0.288356	0.611338	1
270.373138	0.795823	city	1	1	0.898388	0.898388	0	1	0	0	CorrectCommission	0.952011	0.641933	1
271.168945	0.795809	city	6	1	0.847816	0.847816	0	1	0	0	CorrectCommission	0.610716	0.678946	1
271.964752	0.795774	city	8	1	0.655145	0.655145	0	1	0	0	CorrectCommission	0.689555	0.721725	0
272.760529	0.795769	city	1	1	0.797861	0.797861	0	1	0	0	CorrectCommission	0.273584	0.768928	0
273.556274	0.795765	city	4	1	0.807025	0.807025	0	1	0	0	CorrectCommission	0.335430	0.818548	0
274.352081	0.795821	city	2	1	0.708123	0.708123	0	1	0	0	CorrectCommission	0.332024	0.867946	0
275.147888	0.795793	city	5	1	0.698366	0.698366	0	1	0	0	CorrectCommission	0.397874	0.914063	0
275.943726	0.795866	city	8	1	0.605932	0.605932	0	1	0	0	CorrectCommission	1.021680	0.953714	0
276.739532	0.795778	city	6	1	0.456055	0.456055	0	1	0	0	CorrectCommission	2.033146	0.983959	0
277.535339	0.795837	city	10	1	0.350710	0.350710	0	1	0	0	CorrectCommission	2.744082	1.002487	0
278.331146	0.795779	city	4	1	0.506470	0.506470	0	1	0	0	CorrectCommission	1.692910	1.007916	0
279.126892	0.795733	city	1	1	0.650653	0.650653	0	1	0	0	CorrectCommission	0.719869	1.000141	0
279.922668	0.795814	city	10	1	0.648921	0.648921	0	1	0	0	CorrectCommission	0.731557	0.980276	0
280.718506	0.795836	mountain	1	1	0.407030	0.407030	0	0	1	0	CommissionError	2.364001	0.950488	0
281.514313	0.795758	city	1	1	0.649359	0.649359	0	1	0	0	CorrectCommission	0.728605	0.913685	0
282.310120	0.795847	city	4	1	0.798616	0.798616	0	1	0	0	CorrectCommission	0.278681	0.873308	0
283.105927	0.795767	mountain	9	1	0.698650	0.698650	0	0	1	0	CommissionError	0.395956	0.832729	0
283.901703	0.795833	city	8	1	0.766397	0.766397	0	1	0	0	CorrectCommission	0.061245	0.794789	0
284.697540	0.795802	city	6	1	0.898046	0.898046	0	1	0	0	CorrectCommission	0.949704	0.761616	0
285.493317	0.795767	city	8	1	0.759103	0.759103	0	1	0	0	CorrectCommission	0.012021	0.734301	0
286.289093	0.795796	city	1	1	0.848594	0.848594	0	1	0	0	CorrectCommission	0.615969	0.712960	0
287.085083	0.796149	city	7	1	0.848158	0.848158	0	1	0	0	CorrectCommission	0.613027	0.696795	1
287.880859	0.795441	city	3	1	0.849354	0.849354	0	1	0	0	CorrectCommission	0.621096	0.684328	1
288.676514	0.795840	city	1	1	0.897653	0.897653	0	1	0	0	CorrectCommission	0.947049	0.673817	1
289.472504	0.796133	city	6	1	0.916679	0.916679	0	1	0	0	CorrectCommission	1.075447	0.663449	1
290.268280	0.795463	city	2	1	0.865066	0.865066	0	1	0	0	CorrectCommission	0.727131	0.651774	1
291.063934	0.795849	city	3	1	0.947737	0.947737	0	1	0	0	CorrectCommission	1.285049	0.637899	1
291.859741	0.795743	city	4	1	0.897928	0.897928	0	1	0	0	CorrectCommission	0.948905	0.621605	1
292.655548	0.795860	city	3	1	0.799109	0.799109	0	1	0	0	CorrectCommission	0.282012	0.603352	1
293.451385	0.795807	city	8	1	0.801992	0.801992	0	1	0	0	CorrectCommission	0.301462	0.584184	1
294.247192	0.795804	city	2	1	0.815043	0.815043	0	1	0	0	CorrectCommission	0.389544	0.565515	1
295.042969	0.795756	city	9	1	0.850567	0.850567	0	1	0	0	CorrectCommission	0.629280	0.548856	1
295.838776	0.795853	city	4	1	0.809348	0.809348	0	1	0	0	CorrectCommission	0.351111	0.535648	1
296.634552	0.795752	city	1	1	0.748348	0.748348	0	1	0	0	CorrectCommission	0.060559	0.527033	1
297.430328	0.795754	city	3	1	0.648905	0.648905	0	1	0	0	CorrectCommission	0.731670	0.523686	1
298.226135	0.795885	city	1	1	0.669520	0.669520	0	1	0	0	CorrectCommission	0.592545	0.525645	1
299.021973	0.795787	city	2	1	0.798150	0.798150	0	1	0	0	CorrectCommission	0.275536	0.532433	1
299.817932	0.796104	city	8	1	0.798417	0.798417	0	1	0	0	CorrectCommission	0.277339	0.543074	1
300.613861	0.795800	city	6	1	0.797655	0.797655	0	1	0	0	CorrectCommission	0.272196	0.556193	1
301.409668	0.795796	city	8	1	0.754345	0.754345	0	1	0	0	CorrectCommission	0.020088	0.570245	1
302.205475	0.795814	city	3	1	0.899928	0.899928	0	1	0	0	CorrectCommission	0.962402	0.583624	1
303.001129	0.795507	city	2	1	0.847545	0.847545	0	1	0	0	CorrectCommission	0.608888	0.595014	1
303.796783	0.795771	city	5	1	1.148592	1.148592	0	1	0	0	CorrectCommission	2.640553	0.603561	1
304.592712	0.796109	city	1	1	0.699056	0.699056	0	1	0	0	CorrectCommission	0.393214	0.608853	1
305.388489	0.795470	city	10	1	0.698642	0.698642	0	1	0	0	CorrectCommission	0.396006	0.611272	1
306.184143	0.795831	city	2	1	0.748245	0.748245	0	1	0	0	CorrectCommission	0.061252	0.611689	1
306.979980	0.795843	city	7	1	0.617611	0.617611	0	1	0	0	CorrectCommission	0.942857	0.611455	1
307.775818	0.795805	city	9	1	0.754092	0.754092	0	1	0	0	CorrectCommission	0.021795	0.612169	1
308.571747	0.796047	city	5	1	0.748353	0.748353	0	1	0	0	CorrectCommission	0.060528	0.615544	1
309.367523	0.795506	city	1	1	0.946974	0.946974	0	1	0	0	CorrectCommission	1.279901	0.623085	1
310.163330	0.796103	city	4	1	0.857099	0.857099	0	1	0	0	CorrectCommission	0.673365	0.635886	1
310.959137	0.795537	city	3	1	0.897132	0.897132	0	1	0	0	CorrectCommission	0.943530	0.654497	1
311.754822	0.795819	city	1	1	0.799557	0.799557	0	1	0	0	CorrectCommission	0.285035	0.678731	1
312.550598	0.795708	city	9	1	0.757656	0.757656	0	1	0	0	CorrectCommission	0.002256	0.707606	0
313.346375	0.795859	city	8	1	0.698384	0.698384	0	1	0	0	CorrectCommission	0.397747	0.739422	0
314.142212	0.795840	city	9	1	0.798074	0.798074	0	1	0	0	CorrectCommission	0.275025	0.771811	0
314.937988	0.795698	city	5	1	0.861523	0.861523	0	1	0	0	CorrectCommission	0.703222	0.802019	0
315.733917	0.796166	city	6	1	0.951460	0.951460	0	1	0	0	CorrectCommission	1.310176	0.827238	0
316.529755	0.795537	city	1	1	1.046450	1.046450	0	1	0	0	CorrectCommission	1.951227	0.844930	0
317.325409	0.795742	city	6	0	0.000000	0.772504	0	0	0	1	OmissionError	0.102461	0.853258	0
318.121185	0.795831	city	3	1	0.450390	0.450390	0	1	0	0	CorrectCommission	2.071378	0.851367	0
318.917023	0.795810	city	1	1	0.400874	0.400874	0	1	0	0	CorrectCommission	2.405546	0.839396	0
319.712799	0.795777	city	6	1	0.649320	0.649320	0	1	0	0	CorrectCommission	0.728867	0.818596	0
320.508606	0.795789	city	2	1	0.648945	0.648945	0	1	0	0	CorrectCommission	0.731395	0.791266	0
321.304382	0.795764	city	9	1	0.698584	0.698584	0	1	0	0	CorrectCommission	0.396403	0.760211	0
322.100189	0.795859	city	8	1	0.713798	0.713798	0	1	0	0	CorrectCommission	0.293724	0.728571	0
322.895996	0.795792	city	6	1	0.748310	0.748310	0	1	0	0	CorrectCommission	0.060819	0.699284	1
323.691803	0.795807	city	2	1	0.711844	0.711844	0	1	0	0	CorrectCommission	0.306916	0.674818	1
324.487610	0.795824	city	6	1	0.798479	0.798479	0	1	0	0	CorrectCommission	0.277758	0.656797	1
325.283569	0.796095	city	5	1	0.648556	0.648556	0	1	0	0	CorrectCommission	0.734025	0.645972	1
326.079376	0.795482	city	9	1	0.716331	0.716331	0	1	0	0	CorrectCommission	0.276632	0.642179	1
326.875000	0.795803	city	10	1	0.897527	0.897527	0	1	0	0	CorrectCommission	0.946198	0.644485	1
327.670807	0.795819	city	6	1	0.748116	0.748116	0	1	0	0	CorrectCommission	0.062123	0.651366	1
328.466583	0.795734	city	7	1	1.000668	1.000668	0	1	0	0	CorrectCommission	1.642263	0.661048	1
329.262390	0.795866	city	8	1	0.655625	0.655625	0	1	0	0	CorrectCommission	0.686315	0.671635	1
330.058228	0.795817	city	9	1	0.698443	0.698443	0	1	0	0	CorrectCommission	0.397349	0.681509	1
330.854065	0.795819	city	4	1	0.599138	0.599138	0	1	0	0	CorrectCommission	1.067528	0.689380	1
331.649994	0.796057	city	7	1	0.797702	0.797702	0	1	0	0	CorrectCommission	0.272511	0.694380	1
332.445770	0.795501	mountain	4	1	0.511292	0.511292	0	0	1	0	CommissionError	1.660367	0.696159	1
333.241425	0.795825	city	10	1	0.699187	0.699187	0	1	0	0	CorrectCommission	0.392330	0.694681	1
334.037201	0.795730	city	4	1	0.847776	0.847776	0	1	0	0	CorrectCommission	0.610446	0.690318	1
334.833038	0.795898	city	6	1	0.805130	0.805130	0	1	0	0	CorrectCommission	0.322642	0.683677	1
335.628998	0.796042	city	1	1	0.648979	0.648979	0	1	0	0	CorrectCommission	0.731166	0.675510	1
336.424805	0.795552	city	9	1	0.610622	0.610622	0	1	0	0	CorrectCommission	0.990024	0.666527	1
337.220428	0.795716	city	7	1	0.598957	0.598957	0	1	0	0	CorrectCommission	1.068752	0.657504	1
338.016205	0.795810	city	2	1	0.748426	0.748426	0	1	0	0	CorrectCommission	0.060036	0.649147	1
338.811981	0.795782	city	9	1	0.649095	0.649095	0	1	0	0	CorrectCommission	0.730387	0.642109	1
339.607819	0.795876	city	1	1	0.698721	0.698721	0	1	0	0	CorrectCommission	0.395475	0.636910	1
340.403656	0.795817	mountain	3	0	0.000000	0.698274	1	0	0	0	CorrectOmission	0.398491	0.634012	1
341.199463	0.795792	city	1	1	0.660757	0.660757	0	1	0	0	CorrectCommission	0.651685	0.633787	1
341.995270	0.795792	city	3	1	0.599171	0.599171	0	1	0	0	CorrectCommission	1.067308	0.636477	1
342.791046	0.795771	mountain	7	1	0.651259	0.651259	0	0	1	0	CommissionError	0.715782	0.642191	1
343.586823	0.795797	city	6	1	0.857116	0.857116	0	1	0	0	CorrectCommission	0.673478	0.650938	1
344.382782	0.796099	city	4	1	0.801785	0.801785	0	1	0	0	CorrectCommission	0.300072	0.662543	1
345.178589	0.795547	city	8	1	0.748820	0.748820	0	1	0	0	CorrectCommission	0.057376	0.676704	1
345.974274	0.795792	city	9	1	0.847929	0.847929	0	1	0	0	CorrectCommission	0.611481	0.692864	1
346.770081	0.795812	city	4	1	0.897261	0.897261	0	1	0	0	CorrectCommission	0.944402	0.710280	0
347.565887	0.795814	city	9	1	0.948347	0.948347	0	1	0	0	CorrectCommission	1.289167	0.728085	0
348.361694	0.795794	city	7	1	0.813993	0.813993	0	1	0	0	CorrectCommission	0.382454	0.745320	0
349.157501	0.795805	city	6	1	0.847722	0.847722	0	1	0	0	CorrectCommission	0.610084	0.761200	0
349.953278	0.795766	city	5	1	0.847384	0.847384	0	1	0	0	CorrectCommission	0.607802	0.774958	0
350.749023	0.795760	city	7	1	1.047595	1.047595	0	1	0	0	CorrectCommission	1.958958	0.786070	0
351.544800	0.795801	city	9	1	0.798302	0.798302	0	1	0	0	CorrectCommission	0.276565	0.794260	0
352.340637	0.795825	city	1	1	0.904157	0.904157	0	1	0	0	CorrectCommission	0.990945	0.799747	0
353.136444	0.795834	city	7	1	0.898019	0.898019	0	1	0	0	CorrectCommission	0.949516	0.802953	0
353.932281	0.795811	city	3	1	0.816367	0.816367	0	1	0	0	CorrectCommission	0.398475	0.804668	0
354.728241	0.796085	city	7	1	0.897680	0.897680	0	1	0	0	CorrectCommission	0.947234	0.805881	0
355.524017	0.795505	city	5	1	0.897058	0.897058	0	1	0	0	CorrectCommission	0.943033	0.807706	0
356.319672	0.795815	city	10	1	0.968072	0.968072	0	1	0	0	CorrectCommission	1.422286	0.811254	0
357.115479	0.795751	city	7	1	0.816312	0.816312	0	1	0	0	CorrectCommission	0.398108	0.817482	0
357.911255	0.795857	mountain	10	0	0.000000	0.786186	1	0	0	0	CorrectOmission	0.194798	0.827058	0
358.707123	0.795827	city	4	1	0.755260	0.755260	0	1	0	0	CorrectCommission	0.013914	0.840324	0
359.502899	0.795773	city	8	1	0.601098	0.601098	0	1	0	0	CorrectCommission	1.054298	0.857230	0
360.298859	0.796104	city	5	1	0.513155	0.513155	0	1	0	0	CorrectCommission	1.647798	0.877355	0
361.094666	0.795527	city	1	1	0.598784	0.598784	0	1	0	0	CorrectCommission	1.069914	0.900029	0
361.890289	0.795749	mountain	8	0	0.000000	0.695888	1	0	0	0	CorrectOmission	0.414596	0.924477	0
362.686096	0.795829	city	1	1	0.748052	0.748052	0	1	0	0	CorrectCommission	0.062557	0.949923	0
363.481903	0.795784	city	3	1	0.698864	0.698864	0	1	0	0	CorrectCommission	0.394510	0.975677	0
364.277832	0.796075	city	6	1	1.196379	1.196379	0	1	0	0	CorrectCommission	2.963051	1.001193	0
365.073608	0.795474	mountain	2	0	0.000000	1.090929	1	0	0	0	CorrectOmission	2.251404	1.025987	0
365.869293	0.795893	city	4	1	0.814303	0.814303	0	1	0	0	CorrectCommission	0.384551	1.049842	0
366.665131	0.795809	city	7	1	0.798292	0.798292	0	1	0	0	CorrectCommission	0.276495	1.072594	0
367.460938	0.795777	city	6	1	0.997711	0.997711	0	1	0	0	CorrectCommission	1.622303	1.093900	0
368.256744	0.795830	city	1	1	0.798066	0.798066	0	1	0	0	CorrectCommission	0.274968	1.113091	0
369.052490	0.795692	city	6	1	0.904232	0.904232	0	1	0	0	CorrectCommission	0.991448	1.129356	0
369.848297	0.795883	city	7	1	0.748353	0.748353	0	1	0	0	CorrectCommission	0.060525	1.141463	0
370.644104	0.795778	city	5	1	0.911211	0.911211	0	1	0	0	CorrectCommission	1.038545	1.148124	0
371.439911	0.795802	city	7	1	0.400599	0.400599	0	1	0	0	CorrectCommission	2.407401	1.147954	0
372.235718	0.795824	city	4	1	0.304520	0.304520	0	1	0	0	CorrectCommission	3.055807	1.139837	0
373.031555	0.795828	city	9	1	0.847519	0.847519	0	1	0	0	CorrectCommission	0.608712	1.123160	0
373.827484	0.796074	city	6	1	0.996779	0.996779	0	1	0	0	CorrectCommission	1.616015	1.098079	0
374.623291	0.795520	city	8	1	0.965542	0.965542	0	1	0	0	CorrectCommission	1.405208	1.065341	0
375.418945	0.795769	mountain	6	0	0.000000	0.893477	1	0	0	0	CorrectOmission	0.918867	1.026403	0
376.214691	0.795733	mountain	9	0	0.000000	0.823585	1	0	0	0	CorrectOmission	0.447186	0.983261	0
377.010498	0.795886	city	2	1	0.798864	0.798864	0	1	0	0	CorrectCommission	0.280357	0.938165	0
377.806335	0.795775	city	3	1	0.862316	0.862316	0	1	0	0	CorrectCommission	0.708572	0.893406	0
378.602264	0.796115	city	1	1	0.947324	0.947324	0	1	0	0	CorrectCommission	1.282265	0.851045	0
379.398102	0.795518	city	9	1	0.946619	0.946619	0	1	0	0	CorrectCommission	1.277501	0.812779	0
380.193726	0.795736	city	2	1	0.809941	0.809941	0	1	0	0	CorrectCommission	0.355113	0.779825	0
380.989532	0.795883	city	1	1	0.699145	0.699145	0	1	0	0	CorrectCommission	0.392617	0.752930	0
381.785370	0.795817	city	8	1	0.649602	0.649602	0	1	0	0	CorrectCommission	0.726963	0.732237	0
382.581299	0.796065	city	2	1	0.748307	0.748307	0	1	0	0	CorrectCommission	0.060838	0.717483	0
383.377075	0.795466	city	8	1	0.798465	0.798465	0	1	0	0	CorrectCommission	0.277665	0.708229	0
384.172729	0.795861	city	2	1	0.903969	0.903969	0	1	0	0	CorrectCommission	0.989672	0.703943	0
384.968567	0.795802	mountain	9	1	0.698937	0.698937	0	0	1	0	CommissionError	0.394021	0.704102	0
385.764374	0.795783	city	8	1	1.112889	1.112889	0	1	0	0	CorrectCommission	2.399603	0.708508	0
386.560120	0.795732	city	10	1	0.797817	0.797817	0	1	0	0	CorrectCommission	0.273291	0.717096	0
387.355927	0.795864	city	6	1	0.864255	0.864255	0	1	0	0	CorrectCommission	0.721660	0.730207	0
388.151764	0.795791	city	1	1	0.698736	0.698736	0	1	0	0	CorrectCommission	0.395374	0.748200	0
388.947540	0.795812	city	9	1	0.903794	0.903794	0	1	0	0	CorrectCommission	0.988489	0.771427	0
389.743378	0.795816	city	10	1	0.748779	0.748779	0	1	0	0	CorrectCommission	0.057649	0.800033	0
390.539124	0.795730	city	9	1	0.748298	0.748298	0	1	0	0	CorrectCommission	0.060900	0.833998	0
391.334930	0.795887	city	3	1	0.855063	0.855063	0	1	0	0	CorrectCommission	0.659625	0.872834	0
392.130768	0.795755	city	1	1	0.848079	0.848079	0	1	0	0	CorrectCommission	0.612492	0.915672	0
392.926575	0.795847	city	8	1	1.006461	1.006461	0	1	0	0	CorrectCommission	1.681355	0.961333	0
393.722534	0.796075	city	7	1	0.907095	0.907095	0	1	0	0	CorrectCommission	1.010770	1.008402	0
394.518280	0.795444	city	2	1	0.947111	0.947111	0	1	0	0	CorrectCommission	1.280823	1.055474	0
395.313934	0.795837	city	8	1	0.947666	0.947666	0	1	0	0	CorrectCommission	1.284571	1.101136	0
396.109772	0.795830	city	6	1	1.058363	1.058363	0	1	0	0	CorrectCommission	2.031624	1.144108	0
396.905579	0.795781	mountain	9	0	0.000000	0.980580	1	0	0	0	CorrectOmission	1.506693	1.183235	0
397.701508	0.796119	city	4	1	0.849385	0.849385	0	1	0	0	CorrectCommission	0.621302	1.217547	0
398.497345	0.795512	city	10	1	0.799845	0.799845	0	1	0	0	CorrectCommission	0.286976	1.246113	0
399.292999	0.795821	city	7	1	0.897711	0.897711	0	1	0	0	CorrectCommission	0.947439	1.267994	0
400.088806	0.795793	city	8	1	0.903684	0.903684	0	1	0	0	CorrectCommission	0.987751	1.282253	0
400.884583	0.795738	city	3	1	1.102786	1.102786	0	1	0	0	CorrectCommission	2.331420	1.288038	0
401.680389	0.795876	city	5	1	1.146313	1.146313	0	1	0	0	CorrectCommission	2.625172	1.284567	0
402.476196	0.795761	city	6	0	0.000000	1.045579	0	0	0	1	OmissionError	1.945351	1.271405	0
403.271973	0.795785	city	4	1	0.897307	0.897307	0	1	0	0	CorrectCommission	0.944711	1.248453	0
404.067749	0.795758	city	9	1	0.798220	0.798220	0	1	0	0	CorrectCommission	0.276007	1.216168	0
404.863708	0.796158	city	7	0	0.000000	0.922349	0	0	0	1	OmissionError	1.113714	1.175526	0
405.659515	0.795463	city	8	1	1.046490	1.046490	0	1	0	0	CorrectCommission	1.951499	1.128002	0
406.455170	0.795839	city	2	1	0.947438	0.947438	0	1	0	0	CorrectCommission	1.283032	1.075599	0
407.250977	0.795810	city	5	1	1.008548	1.008548	0	1	0	0	CorrectCommission	1.695443	1.020755	0
408.046753	0.795754	city	2	0	0.000000	0.872012	0	0	0	1	OmissionError	0.774004	0.966117	0
408.842560	0.795825	city	9	1	0.698778	0.698778	0	1	0	0	CorrectCommission	0.395093	0.914371	0
409.638397	0.795866	city	10	1	0.649795	0.649795	0	1	0	0	CorrectCommission	0.725659	0.868020	0
410.434174	0.795697	mountain	9	0	0.000000	0.747377	1	0	0	0	CorrectOmission	0.067116	0.829057	0
411.229950	0.795828	city	9	1	0.798772	0.798772	0	1	0	0	CorrectCommission	0.279735	0.798906	0
412.025787	0.795836	city	4	1	0.611233	0.611233	0	1	0	0	CorrectCommission	0.985904	0.778201	0
412.821594	0.795800	city	6	1	0.568187	0.568187	0	1	0	0	CorrectCommission	1.276406	0.766835	0
413.617554	0.796093	city	2	1	0.762420	0.762420	0	1	0	0	CorrectCommission	0.034409	0.763924	0
414.413483	0.795808	mountain	9	0	0.000000	0.779605	1	0	0	0	CorrectOmission	0.150384	0.768083	0
415.209167	0.795542	city	1	1	0.698820	0.698820	0	1	0	0	CorrectCommission	0.394809	0.777522	0
416.004974	0.796065	city	6	1	0.599142	0.599142	0	1	0	0	CorrectCommission	1.067498	0.790328	0
416.800903	0.795795	mountain	5	1	0.910890	0.910890	0	0	1	0	CommissionError	1.036383	0.804647	0
417.596527	0.795449	city	10	1	0.997593	0.997593	0	1	0	0	CorrectCommission	1.621507	0.818944	0
418.392181	0.795867	city	7	1	0.948018	0.948018	0	1	0	0	CorrectCommission	1.286943	0.832070	0
419.188019	0.795783	city	2	1	0.897271	0.897271	0	1	0	0	CorrectCommission	0.944472	0.843381	0
419.983795	0.795768	city	8	1	0.901375	0.901375	0	1	0	0	CorrectCommission	0.972165	0.852661	0
420.779602	0.795871	city	1	1	0.748429	0.748429	0	1	0	0	CorrectCommission	0.060012	0.860018	0
421.575409	0.795753	city	9	1	0.947132	0.947132	0	1	0	0	CorrectCommission	1.280965	0.865801	0
422.371185	0.795815	city	1	1	0.799175	0.799175	0	1	0	0	CorrectCommission	0.282453	0.870287	0
423.167175	0.796118	mountain	3	0	0.000000	0.673935	1	0	0	0	CorrectOmission	0.562749	0.873700	0
423.962952	0.795453	city	5	1	0.697947	0.697947	0	1	0	0	CorrectCommission	0.400701	0.876107	0
424.758606	0.795866	city	4	1	0.997745	0.997745	0	1	0	0	CorrectCommission	1.622538	0.877502	0
425.554413	0.795746	city	8	1	0.947525	0.947525	0	1	0	0	CorrectCommission	1.283616	0.877840	0
426.350189	0.795787	city	7	1	0.897540	0.897540	0	1	0	0	CorrectCommission	0.946289	0.877242	0
427.145996	0.795858	city	3	1	0.847834	0.847834	0	1	0	0	CorrectCommission	0.610837	0.876026	0
427.941833	0.795781	city	8	1	1.058234	1.058234	0	1	0	0	CorrectCommission	2.030758	0.874782	0
428.737640	0.795832	city	6	1	0.698804	0.698804	0	1	0	0	CorrectCommission	0.394913	0.874218	0
429.533447	0.795823	city	9	1	0.702302	0.702302	0	1	0	0	CorrectCommission	0.371309	0.875239	0
430.329376	0.796038	city	5	1	0.649012	0.649012	0	1	0	0	CorrectCommission	0.730943	0.878615	0
431.125183	0.795556	city	7	0	0.000000	0.598841	0	0	0	1	OmissionError	1.069533	0.884898	0
431.920837	0.795774	city	4	1	0.601422	0.601422	0	1	0	0	CorrectCommission	1.052113	0.894225	0
432.716614	0.795733	city	2	1	0.706391	0.706391	0	1	0	0	CorrectCommission	0.343714	0.906199	0
433.512390	0.795811	mountain	7	0	0.000000	0.806140	1	0	0	0	CorrectOmission	0.329458	0.919831	0
434.308228	0.795874	city	4	1	0.856539	0.856539	0	1	0	0	CorrectCommission	0.669583	0.933612	0
435.104187	0.796078	city	2	1	0.813457	0.813457	0	1	0	0	CorrectCommission	0.378840	0.945666	0
435.899963	0.795490	city	1	1	0.911289	0.911289	0	1	0	0	CorrectCommission	1.039074	0.954069	0
436.695801	0.796129	city	3	1	1.108189	1.108189	0	1	0	0	CorrectCommission	2.367886	0.957067	0
437.491608	0.795497	city	5	1	1.146629	1.146629	0	1	0	0	CorrectCommission	2.627304	0.953318	0
438.287262	0.795826	city	2	1	0.958230	0.958230	0	1	0	0	CorrectCommission	1.355862	0.942184	0
439.083069	0.795789	city	5	1	0.801640	0.801640	0	1	0	0	CorrectCommission	0.299091	0.923840	0
439.878845	0.795736	city	3	1	0.854959	0.854959	0	1	0	0	CorrectCommission	0.658919	0.899207	0
440.674591	0.795791	city	2	1	0.809566	0.809566	0	1	0	0	CorrectCommission	0.352582	0.869810	0
441.470428	0.795882	city	10	1	0.798678	0.798678	0	1	0	0	CorrectCommission	0.279097	0.837722	0
442.266266	0.795816	city	3	1	0.906345	0.906345	0	1	0	0	CorrectCommission	1.005708	0.805368	0
443.062073	0.795790	city	6	1	0.996797	0.996797	0	1	0	0	CorrectCommission	1.616141	0.775370	0
443.857849	0.795723	city	8	1	0.861858	0.861858	0	1	0	0	CorrectCommission	0.705482	0.750450	0
444.653778	0.796170	mountain	5	0	0.000000	0.796686	1	0	0	0	CorrectOmission	0.265656	0.733411	0
445.449615	0.795517	city	5	1	0.748555	0.748555	0	1	0	0	CorrectCommission	0.059162	0.726914	0
446.245239	0.795731	city	6	0	0.000000	0.664741	0	0	0	1	OmissionError	0.624798	0.733450	0
447.041046	0.795855	city	5	1	0.599883	0.599883	0	1	0	0	CorrectCommission	1.062501	0.755085	0
447.837006	0.796090	city	3	1	0.608623	0.608623	0	1	0	0	CorrectCommission	1.003519	0.793243	0
448.632812	0.795478	city	5	1	0.754397	0.754397	0	1	0	0	CorrectCommission	0.019737	0.848445	0
449.428467	0.795861	city	2	1	0.749016	0.749016	0	1	0	0	CorrectCommission	0.056052	0.920044	0
450.224274	0.795734	city	7	1	0.707559	0.707559	0	1	0	0	CorrectCommission	0.335834	1.005946	0
451.020050	0.795845	city	1	1	0.911529	0.911529	0	1	0	0	CorrectCommission	1.040695	1.102495	0
451.815857	0.795749	city	5	0	0.000000	0.932736	0	0	0	1	OmissionError	1.183813	1.204525	0
452.611664	0.795874	city	3	1	0.863965	0.863965	0	1	0	0	CorrectCommission	0.719701	1.305647	0
453.407471	0.795761	city	2	1	0.798002	0.798002	0	1	0	0	CorrectCommission	0.274538	1.398677	0
454.203278	0.795836	city	3	1	1.106665	1.106665	0	1	0	0	CorrectCommission	2.357598	1.476286	0
454.999084	0.795776	city	9	1	1.112548	1.112548	0	1	0	0	CorrectCommission	2.397300	1.531673	0
455.794861	0.795755	city	1	1	1.161234	1.161234	0	1	0	0	CorrectCommission	2.725870	1.559580	0
456.590820	0.796155	city	6	1	1.196061	1.196061	0	1	0	0	CorrectCommission	2.960906	1.556860	0
457.386627	0.795506	city	3	1	1.345295	1.345295	0	1	0	0	CorrectCommission	3.968036	1.523006	0
458.182312	0.795823	mountain	1	0	0.000000	1.243927	1	0	0	0	CorrectOmission	3.283936	1.460254	0
458.978088	0.795721	mountain	3	0	0.000000	1.023165	1	0	0	0	CorrectOmission	1.794087	1.373474	0
459.773865	0.795856	city	9	1	0.814217	0.814217	0	1	0	0	CorrectCommission	0.383970	1.269594	0
460.569702	0.795808	city	6	1	0.748293	0.748293	0	1	0	0	CorrectCommission	0.060934	1.156862	0
461.365509	0.795828	mountain	3	0	0.000000	0.732859	1	0	0	0	CorrectOmission	0.165092	1.043987	0
462.161316	0.795767	city	2	1	0.748124	0.748124	0	1	0	0	CorrectCommission	0.062071	0.939258	0
462.957123	0.795837	mountain	1	0	0.000000	0.774297	1	0	0	0	CorrectOmission	0.114564	0.849825	0
463.752930	0.795809	mountain	5	0	0.000000	0.799361	1	0	0	0	CorrectOmission	0.283710	0.781064	0
464.548676	0.795691	mountain	1	0	0.000000	0.811298	1	0	0	0	CorrectOmission	0.364266	0.736347	0
465.344635	0.796178	city	6	1	0.798090	0.798090	0	1	0	0	CorrectCommission	0.275129	0.717000	0
466.140442	0.795454	city	7	1	0.747719	0.747719	0	1	0	0	CorrectCommission	0.064802	0.722481	0
466.936096	0.795877	city	10	1	0.601484	0.601484	0	1	0	0	CorrectCommission	1.051693	0.750616	0
467.731903	0.795707	city	6	1	0.947358	0.947358	0	1	0	0	CorrectCommission	1.282492	0.797944	0
468.527710	0.795894	city	10	1	0.699065	0.699065	0	1	0	0	CorrectCommission	0.393152	0.860240	0
469.323547	0.795803	city	9	1	0.665279	0.665279	0	1	0	0	CorrectCommission	0.621163	0.932911	0
470.119354	0.795782	city	6	1	0.748769	0.748769	0	1	0	0	CorrectCommission	0.057717	1.011307	0
470.915131	0.795789	city	2	1	0.658627	0.658627	0	1	0	0	CorrectCommission	0.666057	1.091189	0
471.710907	0.795756	city	4	1	0.847627	0.847627	0	1	0	0	CorrectCommission	0.609442	1.168882	0
472.506714	0.795882	city	7	1	1.195796	1.195796	0	1	0	0	CorrectCommission	2.959112	1.241616	0
473.302551	0.795795	city	3	0	0.000000	1.282429	0	0	0	1	OmissionError	3.543769	1.307496	0
474.098328	0.795756	city	4	1	1.114843	1.114843	0	1	0	0	CorrectCommission	2.412788	1.365604	0
474.894135	0.795850	city	10	1	0.700354	0.700354	0	1	0	0	CorrectCommission	0.384456	1.415823	0
475.689911	0.795715	city	6	1	0.798488	0.798488	0	1	0	0	CorrectCommission	0.277817	1.458606	0
476.485840	0.796155	city	8	1	0.947469	0.947469	0	1	0	0	CorrectCommission	1.283239	1.494489	0
477.281830	0.795808	city	7	1	1.046769	1.046769	0	1	0	0	CorrectCommission	1.953380	1.523762	0
478.077484	0.795501	city	6	1	1.096303	1.096303	0	1	0	0	CorrectCommission	2.287670	1.546233	0
478.873138	0.795812	city	2	1	0.798685	0.798685	0	1	0	0	CorrectCommission	0.279144	1.561027	0
479.668945	0.795787	city	5	1	0.655815	0.655815	0	1	0	0	CorrectCommission	0.685032	1.566662	0
480.464752	0.795827	city	4	1	1.011231	1.011231	0	1	0	0	CorrectCommission	1.713551	1.560996	0
481.260529	0.795757	city	6	1	1.195721	1.195721	0	1	0	0	CorrectCommission	2.958606	1.541690	0
482.056305	0.795753	city	2	1	1.096976	1.096976	0	1	0	0	CorrectCommission	2.292212	1.506631	0
482.852112	0.795891	city	7	1	1.007843	1.007843	0	1	0	0	CorrectCommission	1.690683	1.454474	0
483.647949	0.795771	city	5	1	1.147009	1.147009	0	1	0	0	CorrectCommission	2.629867	1.384971	0
484.443756	0.795847	city	1	0	0.000000	1.087938	0	0	0	1	OmissionError	2.231220	1.299105	0
485.239563	0.795760	city	9	1	0.901562	0.901562	0	1	0	0	CorrectCommission	0.973427	1.199315	0
486.035339	0.795823	city	5	1	0.658809	0.658809	0	1	0	0	CorrectCommission	0.664827	1.089410	0
486.831177	0.795819	city	2	1	0.612968	0.612968	0	1	0	0	CorrectCommission	0.974193	0.974193	0
