onset	duration	trial_type	image_type	Press	ReactionTime	ReactionTime_Interpolated	CorrectOmission	CorrectCommission	CommissionError	OmissionError	response_type	nonsmoothVarianceTimeCourse	VarianceTimeCourse	In_the_Zone
8.421955	0.795682	city	4	1	0.697870	0.697870	0	1	0	0	CorrectCommission	0.901425	0.901425	0
9.217749	0.795906	city	10	1	0.698741	0.698741	0	1	0	0	CorrectCommission	0.895451	0.886248	0
10.013482	0.795559	city	9	1	0.748250	0.748250	0	1	0	0	CorrectCommission	0.555792	0.870865	0
10.809149	0.795774	city	3	1	0.897602	0.897602	0	1	0	0	CorrectCommission	0.468843	0.854984	0
11.605079	0.796086	city	8	1	0.798033	0.798033	0	1	0	0	CorrectCommission	0.214256	0.838131	0
12.400970	0.795696	city	5	1	0.797963	0.797963	0	1	0	0	CorrectCommission	0.214735	0.819680	0
13.196720	0.795803	mountain	1	0	0.000000	0.665670	1	0	0	0	CorrectOmission	1.122338	0.798934	0
13.992561	0.795880	city	8	1	0.548800	0.548800	0	1	0	0	CorrectCommission	1.924128	0.775253	0
14.788260	0.795516	mountain	2	0	0.000000	0.595001	1	0	0	0	CorrectOmission	1.607168	0.748233	0
15.584033	0.796032	city	4	1	0.698258	0.698258	0	1	0	0	CorrectCommission	0.898764	0.717896	1
16.379934	0.795771	city	3	1	0.752560	0.752560	0	1	0	0	CorrectCommission	0.526222	0.684764	1
17.175764	0.795886	city	5	1	0.747778	0.747778	0	1	0	0	CorrectCommission	0.559033	0.649875	1
17.971483	0.795554	city	7	1	0.847076	0.847076	0	1	0	0	CorrectCommission	0.122206	0.614696	1
18.767168	0.795815	city	6	1	0.749152	0.749152	0	1	0	0	CorrectCommission	0.549602	0.581004	1
19.563112	0.796073	city	9	1	0.760463	0.760463	0	1	0	0	CorrectCommission	0.472003	0.550679	1
20.358973	0.795649	city	4	1	0.896985	0.896985	0	1	0	0	CorrectCommission	0.464611	0.525525	1
21.154760	0.795929	city	9	1	0.897032	0.897032	0	1	0	0	CorrectCommission	0.464930	0.507065	1
21.950636	0.795821	city	6	1	0.850887	0.850887	0	1	0	0	CorrectCommission	0.148356	0.496394	1
22.746286	0.795479	city	7	1	0.797446	0.797446	0	1	0	0	CorrectCommission	0.218285	0.494087	1
23.542065	0.796080	city	6	1	0.847695	0.847695	0	1	0	0	CorrectCommission	0.126455	0.500185	1
24.337889	0.795566	city	10	1	0.797998	0.797998	0	1	0	0	CorrectCommission	0.214494	0.514208	1
25.133656	0.795966	mountain	8	1	0.748005	0.748005	0	0	1	0	CommissionError	0.557476	0.535178	1
25.929457	0.795636	city	3	1	0.698526	0.698526	0	1	0	0	CorrectCommission	0.896930	0.561798	1
26.725319	0.796089	city	5	1	0.748004	0.748004	0	1	0	0	CorrectCommission	0.557480	0.592513	1
27.521225	0.795724	city	10	1	0.747991	0.747991	0	1	0	0	CorrectCommission	0.557570	0.625730	1
28.316833	0.795492	city	5	1	0.747685	0.747685	0	1	0	0	CorrectCommission	0.559673	0.659848	1
29.112637	0.796115	city	9	1	0.996825	0.996825	0	1	0	0	CorrectCommission	1.149564	0.693377	1
29.908625	0.795862	city	4	1	0.946947	0.946947	0	1	0	0	CorrectCommission	0.807380	0.725009	0
30.704309	0.795504	city	9	1	0.801115	0.801115	0	1	0	0	CorrectCommission	0.193111	0.753675	0
31.500086	0.796049	city	8	1	0.748143	0.748143	0	1	0	0	CorrectCommission	0.556525	0.778580	0
32.296013	0.795808	mountain	1	0	0.000000	0.663291	1	0	0	0	CorrectOmission	1.138658	0.799172	0
33.091808	0.795782	city	2	1	0.613621	0.613621	0	1	0	0	CorrectCommission	1.479420	0.815209	0
33.887600	0.795801	city	8	1	0.666198	0.666198	0	1	0	0	CorrectCommission	1.118718	0.826735	0
34.683372	0.795742	city	2	1	0.648765	0.648765	0	1	0	0	CorrectCommission	1.238316	0.834036	0
35.479210	0.795938	city	7	1	0.758125	0.758125	0	1	0	0	CorrectCommission	0.488046	0.837549	0
36.274933	0.795504	city	6	1	0.747746	0.747746	0	1	0	0	CorrectCommission	0.559253	0.837787	0
37.070679	0.795989	city	8	1	0.702191	0.702191	0	1	0	0	CorrectCommission	0.871782	0.835220	0
37.866604	0.795864	city	6	1	0.800473	0.800473	0	1	0	0	CorrectCommission	0.197513	0.830225	0
38.662392	0.795707	city	5	1	0.996668	0.996668	0	1	0	0	CorrectCommission	1.148490	0.823047	0
39.458179	0.795872	city	8	1	1.046436	1.046436	0	1	0	0	CorrectCommission	1.489927	0.813731	0
40.254036	0.795835	mountain	6	0	0.000000	0.839249	1	0	0	0	CorrectOmission	0.068512	0.802224	0
41.049713	0.795523	city	8	1	0.648758	0.648758	0	1	0	0	CorrectCommission	1.238363	0.788499	0
41.845490	0.796030	city	7	1	0.748613	0.748613	0	1	0	0	CorrectCommission	0.553306	0.772450	0
42.641434	0.795860	city	8	1	0.648276	0.648276	0	1	0	0	CorrectCommission	1.241673	0.754182	0
43.437145	0.795563	city	7	1	0.700586	0.700586	0	1	0	0	CorrectCommission	0.882796	0.733957	0
44.232914	0.795970	city	4	1	0.756569	0.756569	0	1	0	0	CorrectCommission	0.498720	0.712292	1
45.028847	0.795894	city	5	1	0.698033	0.698033	0	1	0	0	CorrectCommission	0.900313	0.689939	1
45.824512	0.795445	city	7	1	0.747675	0.747675	0	1	0	0	CorrectCommission	0.559740	0.667867	1
46.620296	0.796121	city	1	1	0.698251	0.698251	0	1	0	0	CorrectCommission	0.898815	0.647190	1
47.416252	0.795792	city	9	1	0.847858	0.847858	0	1	0	0	CorrectCommission	0.127569	0.629060	1
48.212078	0.795856	city	8	1	0.766614	0.766614	0	1	0	0	CorrectCommission	0.429805	0.614631	1
49.007771	0.795528	city	5	1	0.748011	0.748011	0	1	0	0	CorrectCommission	0.557435	0.604824	1
49.803555	0.796042	city	2	1	0.748599	0.748599	0	1	0	0	CorrectCommission	0.553400	0.600273	1
50.599430	0.795709	city	5	1	0.747995	0.747995	0	1	0	0	CorrectCommission	0.557543	0.601204	1
51.395195	0.795820	city	3	1	0.798058	0.798058	0	1	0	0	CorrectCommission	0.214081	0.607394	1
52.190910	0.795609	city	10	1	0.897682	0.897682	0	1	0	0	CorrectCommission	0.469391	0.618127	1
52.986729	0.796032	city	6	1	0.997358	0.997358	0	1	0	0	CorrectCommission	1.153225	0.632197	1
53.782661	0.795833	city	10	1	0.897363	0.897363	0	1	0	0	CorrectCommission	0.467201	0.647967	1
54.578461	0.795766	city	7	1	0.876974	0.876974	0	1	0	0	CorrectCommission	0.327321	0.663566	1
55.374123	0.795557	mountain	9	0	0.000000	0.767513	1	0	0	0	CorrectOmission	0.423636	0.677010	1
56.169895	0.795990	city	10	1	0.698297	0.698297	0	1	0	0	CorrectCommission	0.898497	0.686409	1
56.965824	0.795865	city	8	1	0.798640	0.798640	0	1	0	0	CorrectCommission	0.210093	0.690238	1
57.761517	0.795518	mountain	10	0	0.000000	0.644646	1	0	0	0	CorrectOmission	1.266574	0.687708	1
58.557194	0.795837	city	10	1	0.505092	0.505092	0	1	0	0	CorrectCommission	2.223990	0.678758	1
59.353039	0.795855	city	1	1	0.648754	0.648754	0	1	0	0	CorrectCommission	1.238392	0.664410	1
60.148857	0.795786	city	6	1	0.798722	0.798722	0	1	0	0	CorrectCommission	0.209531	0.646746	1
60.944725	0.795948	city	1	1	0.699182	0.699182	0	1	0	0	CorrectCommission	0.892427	0.628743	1
61.740646	0.795899	city	7	1	0.797858	0.797858	0	1	0	0	CorrectCommission	0.215459	0.613933	1
62.536358	0.795520	city	8	1	0.847672	0.847672	0	1	0	0	CorrectCommission	0.126299	0.606084	1
63.332115	0.795993	city	9	1	0.797631	0.797631	0	1	0	0	CorrectCommission	0.217014	0.608698	1
64.128052	0.795887	city	2	1	0.847605	0.847605	0	1	0	0	CorrectCommission	0.125835	0.624518	1
64.923874	0.795756	city	1	1	0.897465	0.897465	0	1	0	0	CorrectCommission	0.467904	0.655129	1
65.719643	0.795771	city	2	1	0.797888	0.797888	0	1	0	0	CorrectCommission	0.215250	0.700613	1
66.515350	0.795650	city	7	1	0.865429	0.865429	0	1	0	0	CorrectCommission	0.248121	0.759430	0
67.311165	0.795977	city	5	1	0.798250	0.798250	0	1	0	0	CorrectCommission	0.212763	0.828447	0
68.107086	0.795866	city	1	1	0.815585	0.815585	0	1	0	0	CorrectCommission	0.093836	0.903155	0
68.902863	0.795687	mountain	7	1	0.748142	0.748142	0	0	1	0	CommissionError	0.556538	0.978140	0
69.698669	0.795930	city	4	1	1.096425	1.096425	0	1	0	0	CorrectCommission	1.832875	1.047650	0
70.494514	0.795750	city	2	1	1.145967	1.145967	0	1	0	0	CorrectCommission	2.172763	1.106184	0
71.290184	0.795596	city	4	1	1.156467	1.156467	0	1	0	0	CorrectCommission	2.244796	1.149223	0
72.086014	0.796065	city	7	1	1.195961	1.195961	0	1	0	0	CorrectCommission	2.515749	1.173697	0
72.881889	0.795683	city	6	1	1.151779	1.151779	0	1	0	0	CorrectCommission	2.212634	1.178288	0
73.677666	0.795873	city	3	0	0.000000	0.867733	0	0	0	1	OmissionError	0.263928	1.163544	0
74.473511	0.795816	city	6	1	0.598773	0.598773	0	1	0	0	CorrectCommission	1.581291	1.131769	0
75.269333	0.795824	city	8	1	0.599843	0.599843	0	1	0	0	CorrectCommission	1.573945	1.086472	0
76.065010	0.795535	city	1	1	0.648394	0.648394	0	1	0	0	CorrectCommission	1.240862	1.032027	0
76.860771	0.795994	city	7	1	0.716658	0.716658	0	1	0	0	CorrectCommission	0.772531	0.973098	0
77.656677	0.795812	city	3	1	0.802805	0.802805	0	1	0	0	CorrectCommission	0.181516	0.914077	0
78.452522	0.795874	city	8	1	0.847439	0.847439	0	1	0	0	CorrectCommission	0.124697	0.858614	0
79.248306	0.795700	city	4	1	0.897292	0.897292	0	1	0	0	CorrectCommission	0.466719	0.809318	0
80.044098	0.795886	city	7	1	0.813393	0.813393	0	1	0	0	CorrectCommission	0.108875	0.767641	0
80.839935	0.795775	city	9	1	0.897334	0.897334	0	1	0	0	CorrectCommission	0.467003	0.733983	0
81.635681	0.795724	city	2	1	0.947149	0.947149	0	1	0	0	CorrectCommission	0.808763	0.707878	1
82.431358	0.795626	city	1	1	1.046479	1.046479	0	1	0	0	CorrectCommission	1.490219	0.688319	1
83.227165	0.795994	city	9	1	0.947412	0.947412	0	1	0	0	CorrectCommission	0.810565	0.674100	1
84.023064	0.795793	city	5	1	0.899457	0.899457	0	1	0	0	CorrectCommission	0.481571	0.664176	1
84.818909	0.795907	city	1	1	0.996698	0.996698	0	1	0	0	CorrectCommission	1.148698	0.657764	1
85.614746	0.795765	city	6	1	0.946765	0.946765	0	1	0	0	CorrectCommission	0.806125	0.654433	1
86.410553	0.795854	city	4	1	0.898095	0.898095	0	1	0	0	CorrectCommission	0.472224	0.654111	1
87.206337	0.795702	city	2	1	0.797378	0.797378	0	1	0	0	CorrectCommission	0.218751	0.656885	1
88.002136	0.795899	city	5	1	0.801219	0.801219	0	1	0	0	CorrectCommission	0.192394	0.662857	1
88.797951	0.795729	city	10	1	0.698367	0.698367	0	1	0	0	CorrectCommission	0.898019	0.671948	1
89.593750	0.795874	city	4	1	0.811194	0.811194	0	1	0	0	CorrectCommission	0.123962	0.683756	1
90.389404	0.795439	city	2	1	0.849066	0.849066	0	1	0	0	CorrectCommission	0.135858	0.697577	1
91.185181	0.796104	city	3	1	0.947018	0.947018	0	1	0	0	CorrectCommission	0.807864	0.712445	1
91.981018	0.795573	city	8	1	1.012928	1.012928	0	1	0	0	CorrectCommission	1.260041	0.727157	0
92.776794	0.795981	city	1	1	0.953262	0.953262	0	1	0	0	CorrectCommission	0.850704	0.740501	0
93.572601	0.795641	city	3	1	1.046770	1.046770	0	1	0	0	CorrectCommission	1.492220	0.751441	0
94.368416	0.795983	city	7	1	1.001407	1.001407	0	1	0	0	CorrectCommission	1.181002	0.759168	0
95.164207	0.795594	city	9	1	0.947162	0.947162	0	1	0	0	CorrectCommission	0.808855	0.763224	0
95.960022	0.796046	city	5	1	0.905826	0.905826	0	1	0	0	CorrectCommission	0.525264	0.763461	0
96.755936	0.795777	city	9	1	0.896921	0.896921	0	1	0	0	CorrectCommission	0.464171	0.759947	0
97.551620	0.795598	city	7	1	0.896979	0.896979	0	1	0	0	CorrectCommission	0.464569	0.752882	0
98.347404	0.795966	city	3	1	0.911509	0.911509	0	1	0	0	CorrectCommission	0.564255	0.742484	0
99.143288	0.795805	city	9	1	0.996486	0.996486	0	1	0	0	CorrectCommission	1.147240	0.728908	0
99.939087	0.795787	city	7	1	0.903701	0.903701	0	1	0	0	CorrectCommission	0.510682	0.712205	1
100.734764	0.795566	city	1	1	0.946883	0.946883	0	1	0	0	CorrectCommission	0.806938	0.692399	1
101.530602	0.796107	city	6	1	0.962349	0.962349	0	1	0	0	CorrectCommission	0.913040	0.669490	1
102.326447	0.795590	city	2	1	0.947032	0.947032	0	1	0	0	CorrectCommission	0.807963	0.643523	1
103.122238	0.795991	city	5	1	0.996786	0.996786	0	1	0	0	CorrectCommission	1.149303	0.614702	1
103.918129	0.795787	city	10	1	0.916065	0.916065	0	1	0	0	CorrectCommission	0.595507	0.583381	1
104.713928	0.795816	city	8	1	0.903791	0.903791	0	1	0	0	CorrectCommission	0.511305	0.550143	1
105.509590	0.795513	city	7	1	0.847796	0.847796	0	1	0	0	CorrectCommission	0.127147	0.515719	1
106.305382	0.796060	city	10	1	0.797680	0.797680	0	1	0	0	CorrectCommission	0.216678	0.480939	1
107.101189	0.795564	city	5	1	0.897441	0.897441	0	1	0	0	CorrectCommission	0.467740	0.446691	1
107.896912	0.795880	city	9	1	0.897137	0.897137	0	1	0	0	CorrectCommission	0.465654	0.413873	1
108.692886	0.796068	city	5	1	0.897208	0.897208	0	1	0	0	CorrectCommission	0.466138	0.383302	1
109.488770	0.795694	city	2	1	0.905665	0.905665	0	1	0	0	CorrectCommission	0.524158	0.355671	1
110.284508	0.795781	city	8	1	0.848610	0.848610	0	1	0	0	CorrectCommission	0.132729	0.331624	1
111.080223	0.795657	city	1	1	0.850099	0.850099	0	1	0	0	CorrectCommission	0.142950	0.311732	1
111.876060	0.796011	city	7	1	0.797681	0.797681	0	1	0	0	CorrectCommission	0.216667	0.296499	1
112.671936	0.795738	city	1	1	0.847031	0.847031	0	1	0	0	CorrectCommission	0.121896	0.286362	1
113.467712	0.795818	city	7	1	0.853803	0.853803	0	1	0	0	CorrectCommission	0.168357	0.281784	1
114.263557	0.795876	city	6	1	0.847218	0.847218	0	1	0	0	CorrectCommission	0.123181	0.283274	1
115.059273	0.795550	city	8	1	0.751746	0.751746	0	1	0	0	CorrectCommission	0.531807	0.291303	1
115.855034	0.795976	city	4	1	0.848086	0.848086	0	1	0	0	CorrectCommission	0.129136	0.306381	1
116.650917	0.795788	city	8	1	0.863054	0.863054	0	1	0	0	CorrectCommission	0.231825	0.328915	1
117.446709	0.795802	city	3	1	0.847801	0.847801	0	1	0	0	CorrectCommission	0.127183	0.359170	1
118.242561	0.795892	city	6	1	0.911837	0.911837	0	1	0	0	CorrectCommission	0.566501	0.397150	1
119.038406	0.795808	city	8	1	0.847367	0.847367	0	1	0	0	CorrectCommission	0.124200	0.442530	1
119.834167	0.795704	city	7	1	0.856902	0.856902	0	1	0	0	CorrectCommission	0.189618	0.494576	1
120.629913	0.795799	city	6	1	0.863644	0.863644	0	1	0	0	CorrectCommission	0.235872	0.552076	1
121.425720	0.795817	city	10	1	0.797926	0.797926	0	1	0	0	CorrectCommission	0.214991	0.613433	1
122.221565	0.795867	city	9	1	0.911571	0.911571	0	1	0	0	CorrectCommission	0.564677	0.676730	1
123.017365	0.795731	city	8	1	1.046554	1.046554	0	1	0	0	CorrectCommission	1.490739	0.739877	0
123.813194	0.795927	city	5	1	0.965348	0.965348	0	1	0	0	CorrectCommission	0.933620	0.800876	0
124.609047	0.795778	mountain	2	0	0.000000	0.816647	1	0	0	0	CorrectOmission	0.086554	0.858015	0
125.404831	0.795789	city	5	1	0.648244	0.648244	0	1	0	0	CorrectCommission	1.241892	0.910063	0
126.200638	0.795823	mountain	2	0	0.000000	0.507933	1	0	0	0	CorrectOmission	2.204500	0.956316	0
126.996315	0.795543	city	8	1	0.517550	0.517550	0	1	0	0	CorrectCommission	2.138525	0.996724	0
127.792122	0.796060	city	6	1	0.798928	0.798928	0	1	0	0	CorrectCommission	0.208114	1.031841	0
128.587921	0.795538	city	5	1	0.901500	0.901500	0	1	0	0	CorrectCommission	0.495588	1.062643	0
129.383667	0.795947	city	7	1	1.110270	1.110270	0	1	0	0	CorrectCommission	1.927865	1.090177	0
130.179565	0.795860	city	4	0	0.000000	0.839899	0	0	0	1	OmissionError	0.072967	1.115337	0
130.975296	0.795602	city	1	1	0.562016	0.562016	0	1	0	0	CorrectCommission	1.833462	1.138739	0
131.771072	0.795942	city	10	1	0.748252	0.748252	0	1	0	0	CorrectCommission	0.555783	1.160309	0
132.566971	0.795863	mountain	6	1	0.897626	0.897626	0	0	1	0	CommissionError	0.469007	1.179408	0
133.362686	0.795577	city	2	1	0.910543	0.910543	0	1	0	0	CorrectCommission	0.557624	1.194804	0
134.158371	0.795773	city	9	1	1.146243	1.146243	0	1	0	0	CorrectCommission	2.174656	1.204856	0
134.954269	0.796031	city	6	1	1.096949	1.096949	0	1	0	0	CorrectCommission	1.836475	1.207752	0
135.750183	0.795785	city	4	1	1.060750	1.060750	0	1	0	0	CorrectCommission	1.588126	1.201922	0
136.546021	0.795900	city	5	1	1.096311	1.096311	0	1	0	0	CorrectCommission	1.832093	1.186308	0
137.341873	0.795812	city	8	1	1.048095	1.048095	0	1	0	0	CorrectCommission	1.501309	1.160548	0
138.137619	0.795685	city	7	0	0.000000	0.739240	0	0	0	1	OmissionError	0.617608	1.125229	0
138.933289	0.795645	city	8	1	0.499454	0.499454	0	1	0	0	CorrectCommission	2.262674	1.081817	0
139.729019	0.795811	city	10	1	0.658445	0.658445	0	1	0	0	CorrectCommission	1.171907	1.032496	0
140.524948	0.796042	mountain	4	0	0.000000	0.768138	1	0	0	0	CorrectOmission	0.419354	0.980097	0
141.320816	0.795720	city	3	1	0.859897	0.859897	0	1	0	0	CorrectCommission	0.210164	0.927784	0
142.116623	0.795872	city	4	1	0.965086	0.965086	0	1	0	0	CorrectCommission	0.931823	0.878754	0
142.912460	0.795818	city	1	1	0.996919	0.996919	0	1	0	0	CorrectCommission	1.150209	0.835900	0
143.708206	0.795671	city	2	1	0.847464	0.847464	0	1	0	0	CorrectCommission	0.124871	0.801627	0
144.503876	0.795652	city	10	1	0.847201	0.847201	0	1	0	0	CorrectCommission	0.123062	0.777679	0
145.299591	0.795785	city	8	1	0.947578	0.947578	0	1	0	0	CorrectCommission	0.811708	0.765046	0
146.095505	0.796052	city	10	1	0.957831	0.957831	0	1	0	0	CorrectCommission	0.882045	0.763804	0
146.891449	0.795827	city	3	1	0.947288	0.947288	0	1	0	0	CorrectCommission	0.809718	0.773214	0
147.687271	0.795828	mountain	10	0	0.000000	0.851030	1	0	0	0	CorrectOmission	0.149333	0.791861	0
148.482956	0.795537	city	5	1	0.747803	0.747803	0	1	0	0	CorrectCommission	0.558863	0.817706	0
149.278748	0.796058	city	8	1	0.716354	0.716354	0	1	0	0	CorrectCommission	0.774620	0.848288	0
150.074661	0.795771	city	9	1	0.947092	0.947092	0	1	0	0	CorrectCommission	0.808369	0.880941	0
150.870422	0.795751	city	8	1	0.947395	0.947395	0	1	0	0	CorrectCommission	0.810449	0.913004	0
151.666107	0.795615	city	1	1	0.997069	0.997069	0	1	0	0	CorrectCommission	1.151238	0.942000	0
152.461960	0.796080	city	5	0	0.000000	0.704514	0	0	0	1	OmissionError	0.855846	0.965822	0
153.257751	0.795509	city	9	1	0.449578	0.449578	0	1	0	0	CorrectCommission	2.604845	0.982910	0
154.053406	0.795795	city	10	1	0.612108	0.612108	0	1	0	0	CorrectCommission	1.489801	0.992228	0
154.849304	0.795988	city	1	1	0.649086	0.649086	0	1	0	0	CorrectCommission	1.236113	0.993428	0
155.645111	0.795632	city	2	1	0.749211	0.749211	0	1	0	0	CorrectCommission	0.549202	0.986684	0
156.440918	0.795973	city	8	1	0.914223	0.914223	0	1	0	0	CorrectCommission	0.582870	0.972548	0
157.236725	0.795647	city	5	1	0.897450	0.897450	0	1	0	0	CorrectCommission	0.467801	0.951869	0
158.032578	0.796082	city	3	1	0.916035	0.916035	0	1	0	0	CorrectCommission	0.595301	0.925710	0
158.828461	0.795677	city	8	1	0.996571	0.996571	0	1	0	0	CorrectCommission	1.147827	0.895272	0
159.624222	0.795850	city	2	1	0.997832	0.997832	0	1	0	0	CorrectCommission	1.156476	0.861782	0
160.419937	0.795578	city	9	1	0.499416	0.499416	0	1	0	0	CorrectCommission	2.262931	0.826540	0
161.215775	0.796077	city	2	1	0.748000	0.748000	0	1	0	0	CorrectCommission	0.557510	0.790866	0
162.011703	0.795782	city	4	1	0.699002	0.699002	0	1	0	0	CorrectCommission	0.893662	0.756131	0
162.807449	0.795713	city	8	1	0.797952	0.797952	0	1	0	0	CorrectCommission	0.214810	0.723493	0
163.603210	0.795814	city	4	1	0.847703	0.847703	0	1	0	0	CorrectCommission	0.126508	0.693926	1
164.398895	0.795551	city	8	1	0.847625	0.847625	0	1	0	0	CorrectCommission	0.125973	0.668057	1
165.194702	0.796080	city	5	1	0.897921	0.897921	0	1	0	0	CorrectCommission	0.471030	0.646137	1
165.990692	0.795896	city	10	1	0.897181	0.897181	0	1	0	0	CorrectCommission	0.465953	0.627974	1
166.786530	0.795780	city	4	1	0.996637	0.996637	0	1	0	0	CorrectCommission	1.148274	0.613054	1
167.582275	0.795714	city	10	1	0.897443	0.897443	0	1	0	0	CorrectCommission	0.467753	0.600572	1
168.378067	0.795851	city	1	1	0.867280	0.867280	0	1	0	0	CorrectCommission	0.260816	0.589678	1
169.173904	0.795831	city	9	1	0.952286	0.952286	0	1	0	0	CorrectCommission	0.844008	0.579560	1
169.969604	0.795565	city	6	1	0.996998	0.996998	0	1	0	0	CorrectCommission	1.150756	0.569611	1
170.765350	0.795949	city	1	1	0.955962	0.955962	0	1	0	0	CorrectCommission	0.869222	0.559496	1
171.561279	0.795894	city	4	1	0.908098	0.908098	0	1	0	0	CorrectCommission	0.540851	0.549285	1
172.357101	0.795755	city	6	1	0.798360	0.798360	0	1	0	0	CorrectCommission	0.212015	0.539411	1
173.152863	0.795772	city	1	1	0.847718	0.847718	0	1	0	0	CorrectCommission	0.126609	0.530620	1
173.948563	0.795609	city	6	1	0.946990	0.946990	0	1	0	0	CorrectCommission	0.807672	0.523830	1
174.744370	0.796005	city	4	1	0.848003	0.848003	0	1	0	0	CorrectCommission	0.128569	0.520006	1
175.540298	0.795860	city	7	1	0.797563	0.797563	0	1	0	0	CorrectCommission	0.217480	0.520083	1
176.336014	0.795558	city	3	1	0.963663	0.963663	0	1	0	0	CorrectCommission	0.922059	0.524922	1
177.131775	0.795990	city	7	1	0.917304	0.917304	0	1	0	0	CorrectCommission	0.604007	0.535177	1
177.927719	0.795871	city	6	1	0.858366	0.858366	0	1	0	0	CorrectCommission	0.199662	0.551313	1
178.723373	0.795450	mountain	8	0	0.000000	0.777125	1	0	0	0	CorrectOmission	0.357696	0.573675	1
179.519135	0.796069	city	6	1	0.762754	0.762754	0	1	0	0	CorrectCommission	0.456291	0.602377	1
180.315109	0.795894	city	2	1	0.904425	0.904425	0	1	0	0	CorrectCommission	0.515655	0.637355	1
181.110962	0.795789	mountain	2	0	0.000000	0.792332	1	0	0	0	CorrectOmission	0.253368	0.678297	1
181.906738	0.795769	city	7	1	0.649404	0.649404	0	1	0	0	CorrectCommission	1.233932	0.724607	0
182.702408	0.795583	city	3	1	0.698573	0.698573	0	1	0	0	CorrectCommission	0.896607	0.775287	0
183.498215	0.796031	city	1	1	0.698541	0.698541	0	1	0	0	CorrectCommission	0.896827	0.828977	0
184.294006	0.795538	city	10	1	0.698211	0.698211	0	1	0	0	CorrectCommission	0.899091	0.883797	0
185.089767	0.795997	city	2	1	0.749258	0.749258	0	1	0	0	CorrectCommission	0.548879	0.937413	0
185.885590	0.795646	city	7	1	0.897548	0.897548	0	1	0	0	CorrectCommission	0.468471	0.987131	0
186.681290	0.795746	city	2	1	0.847412	0.847412	0	1	0	0	CorrectCommission	0.124510	1.030070	0
187.477203	0.796075	city	1	1	0.996919	0.996919	0	1	0	0	CorrectCommission	1.150215	1.063414	0
188.273026	0.795577	city	4	1	1.145562	1.145562	0	1	0	0	CorrectCommission	2.169984	1.084732	0
189.068817	0.796004	city	1	1	1.196421	1.196421	0	1	0	0	CorrectCommission	2.518904	1.092355	0
189.864578	0.795525	city	10	1	1.163543	1.163543	0	1	0	0	CorrectCommission	2.293346	1.085637	0
190.660385	0.796078	city	4	0	0.000000	0.766774	0	0	0	1	OmissionError	0.428710	1.065155	0
191.456284	0.795733	city	10	1	0.449537	0.449537	0	1	0	0	CorrectCommission	2.605128	1.032679	0
192.252090	0.795890	city	5	1	0.655258	0.655258	0	1	0	0	CorrectCommission	1.193771	0.990806	0
193.047836	0.795586	city	6	1	0.850728	0.850728	0	1	0	0	CorrectCommission	0.147264	0.942919	0
193.843613	0.795974	city	2	1	0.797988	0.797988	0	1	0	0	CorrectCommission	0.214566	0.892635	0
194.639389	0.795586	mountain	2	0	0.000000	0.856559	1	0	0	0	CorrectOmission	0.187264	0.843300	0
195.435089	0.795792	city	4	1	0.898975	0.898975	0	1	0	0	CorrectCommission	0.478265	0.797805	0
196.231003	0.796058	city	3	1	0.797772	0.797772	0	1	0	0	CorrectCommission	0.216048	0.758234	0
197.026901	0.795737	city	9	1	0.797400	0.797400	0	1	0	0	CorrectCommission	0.218598	0.725869	0
197.822678	0.795791	city	4	1	0.698663	0.698663	0	1	0	0	CorrectCommission	0.895990	0.701193	1
198.618347	0.795568	city	8	1	0.599400	0.599400	0	1	0	0	CorrectCommission	1.576988	0.684090	1
199.414093	0.795910	city	3	1	0.660297	0.660297	0	1	0	0	CorrectCommission	1.159201	0.674029	1
200.209915	0.795754	city	9	1	0.763524	0.763524	0	1	0	0	CorrectCommission	0.451006	0.670337	1
201.005783	0.795974	city	10	1	0.804371	0.804371	0	1	0	0	CorrectCommission	0.170773	0.672318	1
201.801590	0.795648	city	4	1	0.960791	0.960791	0	1	0	0	CorrectCommission	0.902355	0.679287	1
202.597473	0.796094	city	2	1	0.855984	0.855984	0	1	0	0	CorrectCommission	0.183321	0.690541	1
203.393280	0.795532	city	5	1	0.896865	0.896865	0	1	0	0	CorrectCommission	0.463788	0.705376	1
204.188950	0.795795	city	8	1	0.947435	0.947435	0	1	0	0	CorrectCommission	0.810724	0.722903	1
204.984863	0.796038	mountain	2	0	0.000000	0.809235	1	0	0	0	CorrectOmission	0.137403	0.741970	0
205.780762	0.795761	city	8	1	0.652804	0.652804	0	1	0	0	CorrectCommission	1.210607	0.761165	0
206.576508	0.795722	city	1	1	0.648679	0.648679	0	1	0	0	CorrectCommission	1.238903	0.778772	0
207.372208	0.795675	city	5	1	0.865081	0.865081	0	1	0	0	CorrectCommission	0.245734	0.792937	0
208.168015	0.795952	city	8	1	0.914131	0.914131	0	1	0	0	CorrectCommission	0.582240	0.801930	0
208.963898	0.795811	city	2	1	1.096883	1.096883	0	1	0	0	CorrectCommission	1.836021	0.804133	0
209.759583	0.795560	city	6	0	0.000000	0.837035	0	0	0	1	OmissionError	0.053319	0.798382	0
210.555389	0.796059	city	7	1	0.549338	0.549338	0	1	0	0	CorrectCommission	1.920438	0.784257	0
211.351334	0.795824	city	6	1	0.648546	0.648546	0	1	0	0	CorrectCommission	1.239818	0.761958	0
212.147171	0.795862	city	4	1	0.648845	0.648845	0	1	0	0	CorrectCommission	1.237764	0.732570	0
212.942886	0.795558	city	3	1	0.748150	0.748150	0	1	0	0	CorrectCommission	0.556482	0.697883	1
213.738678	0.796014	mountain	1	0	0.000000	0.748337	1	0	0	0	CorrectOmission	0.555197	0.660266	1
214.534576	0.795788	city	4	1	0.748492	0.748492	0	1	0	0	CorrectCommission	0.554131	0.622367	1
215.330368	0.795810	city	5	1	0.847701	0.847701	0	1	0	0	CorrectCommission	0.126496	0.586845	1
216.126022	0.795492	city	2	1	0.855164	0.855164	0	1	0	0	CorrectCommission	0.177698	0.556052	1
216.921814	0.796090	city	10	1	0.797801	0.797801	0	1	0	0	CorrectCommission	0.215846	0.531789	1
217.717758	0.795784	city	5	1	0.847744	0.847744	0	1	0	0	CorrectCommission	0.126792	0.515126	1
218.513458	0.795636	city	6	1	0.749326	0.749326	0	1	0	0	CorrectCommission	0.548415	0.506322	1
219.309280	0.795994	city	8	1	0.748195	0.748195	0	1	0	0	CorrectCommission	0.556169	0.504767	1
220.105209	0.795866	city	10	1	0.763542	0.763542	0	1	0	0	CorrectCommission	0.450883	0.509188	1
220.901001	0.795731	city	2	1	0.797923	0.797923	0	1	0	0	CorrectCommission	0.215011	0.517765	1
221.696747	0.795757	city	5	1	0.748165	0.748165	0	1	0	0	CorrectCommission	0.556375	0.528358	1
222.492508	0.795764	city	1	1	0.797797	0.797797	0	1	0	0	CorrectCommission	0.215875	0.538790	1
223.288330	0.795885	mountain	1	0	0.000000	0.748409	1	0	0	0	CorrectOmission	0.554699	0.547087	1
224.084030	0.795516	city	1	1	0.662453	0.662453	0	1	0	0	CorrectCommission	1.144409	0.551667	1
224.879868	0.796136	city	10	1	0.602376	0.602376	0	1	0	0	CorrectCommission	1.556566	0.551535	1
225.675827	0.795802	city	8	1	0.958588	0.958588	0	1	0	0	CorrectCommission	0.887241	0.546337	1
226.471634	0.795811	city	3	1	0.897307	0.897307	0	1	0	0	CorrectCommission	0.466818	0.536303	1
227.267456	0.795824	city	2	1	0.848003	0.848003	0	1	0	0	CorrectCommission	0.128568	0.522203	1
228.063202	0.795689	city	10	1	0.748254	0.748254	0	1	0	0	CorrectCommission	0.555768	0.505087	1
228.858963	0.795810	city	2	1	0.865755	0.865755	0	1	0	0	CorrectCommission	0.250355	0.486099	1
229.654816	0.795909	city	3	1	0.847117	0.847117	0	1	0	0	CorrectCommission	0.122490	0.466344	1
230.450607	0.795664	city	4	1	0.903573	0.903573	0	1	0	0	CorrectCommission	0.509810	0.446729	1
231.246353	0.795841	city	5	1	0.859236	0.859236	0	1	0	0	CorrectCommission	0.205631	0.427866	1
232.042221	0.795885	city	3	1	0.903954	0.903954	0	1	0	0	CorrectCommission	0.512422	0.410087	1
232.838013	0.795687	city	4	1	0.896966	0.896966	0	1	0	0	CorrectCommission	0.464478	0.393475	1
233.633804	0.795901	city	1	1	0.897425	0.897425	0	1	0	0	CorrectCommission	0.467630	0.377978	1
234.429657	0.795814	city	2	1	0.863050	0.863050	0	1	0	0	CorrectCommission	0.231800	0.363480	1
235.225327	0.795528	city	6	1	0.946949	0.946949	0	1	0	0	CorrectCommission	0.807387	0.349904	1
236.021072	0.795968	city	1	1	0.758053	0.758053	0	1	0	0	CorrectCommission	0.488538	0.337227	1
236.817001	0.795896	city	6	1	0.850077	0.850077	0	1	0	0	CorrectCommission	0.142794	0.325558	1
237.612839	0.795766	mountain	8	1	0.847751	0.847751	0	0	1	0	CommissionError	0.126839	0.315097	1
238.408630	0.795826	city	5	1	0.847578	0.847578	0	1	0	0	CorrectCommission	0.125650	0.306070	1
239.204437	0.795780	city	7	1	0.847267	0.847267	0	1	0	0	CorrectCommission	0.123514	0.298683	1
240.000244	0.795830	mountain	2	0	0.000000	0.801255	1	0	0	0	CorrectOmission	0.192148	0.293054	1
240.796051	0.795800	city	1	1	0.766005	0.766005	0	1	0	0	CorrectCommission	0.433986	0.289189	1
241.591858	0.795802	city	3	1	0.797975	0.797975	0	1	0	0	CorrectCommission	0.214651	0.286941	1
242.387543	0.795568	city	5	1	0.813784	0.813784	0	1	0	0	CorrectCommission	0.106196	0.286058	1
243.183319	0.795977	city	9	1	0.947182	0.947182	0	1	0	0	CorrectCommission	0.808992	0.286237	1
243.979233	0.795872	city	5	1	0.847473	0.847473	0	1	0	0	CorrectCommission	0.124931	0.287137	1
244.774948	0.795542	city	7	1	0.798824	0.798824	0	1	0	0	CorrectCommission	0.208831	0.288527	1
245.570740	0.796031	city	6	1	0.802732	0.802732	0	1	0	0	CorrectCommission	0.182018	0.290242	1
246.366608	0.795730	city	5	1	0.766178	0.766178	0	1	0	0	CorrectCommission	0.432800	0.292278	1
247.162369	0.795789	city	4	1	0.797400	0.797400	0	1	0	0	CorrectCommission	0.218595	0.294782	1
247.958221	0.795901	city	3	1	0.797864	0.797864	0	1	0	0	CorrectCommission	0.215415	0.298097	1
248.753937	0.795545	city	1	1	0.756230	0.756230	0	1	0	0	CorrectCommission	0.501043	0.302734	1
249.549728	0.796030	city	5	1	0.748145	0.748145	0	1	0	0	CorrectCommission	0.556517	0.309303	1
250.345657	0.795825	city	10	1	0.847664	0.847664	0	1	0	0	CorrectCommission	0.126244	0.318456	1
251.141449	0.795771	city	6	1	0.847139	0.847139	0	1	0	0	CorrectCommission	0.122637	0.330807	1
251.937271	0.795851	city	4	1	0.847479	0.847479	0	1	0	0	CorrectCommission	0.124971	0.346783	1
252.732956	0.795526	city	1	1	0.798000	0.798000	0	1	0	0	CorrectCommission	0.214481	0.366524	1
253.528748	0.796063	city	9	1	0.847450	0.847450	0	1	0	0	CorrectCommission	0.124773	0.389804	1
254.324646	0.795740	city	2	1	0.709139	0.709139	0	1	0	0	CorrectCommission	0.824113	0.416018	1
255.120407	0.795779	city	1	1	0.865663	0.865663	0	1	0	0	CorrectCommission	0.249723	0.444094	1
255.916214	0.795843	city	9	1	0.906112	0.906112	0	1	0	0	CorrectCommission	0.527225	0.472654	1
256.712036	0.795766	city	7	1	0.798723	0.798723	0	1	0	0	CorrectCommission	0.209524	0.500000	1
257.507690	0.795564	city	4	1	0.799105	0.799105	0	1	0	0	CorrectCommission	0.206900	0.524358	1
258.303497	0.796064	city	1	1	0.748402	0.748402	0	1	0	0	CorrectCommission	0.554753	0.544018	1
259.099457	0.795844	city	3	1	0.699517	0.699517	0	1	0	0	CorrectCommission	0.890132	0.557572	1
259.895264	0.795778	city	9	1	0.654036	0.654036	0	1	0	0	CorrectCommission	1.202151	0.564137	1
260.691040	0.795789	mountain	5	0	0.000000	0.612971	1	0	0	0	CorrectOmission	1.483879	0.563436	1
261.486725	0.795584	city	8	1	0.652140	0.652140	0	1	0	0	CorrectCommission	1.215160	0.555932	1
262.282562	0.796062	city	4	1	0.847361	0.847361	0	1	0	0	CorrectCommission	0.124163	0.542782	1
263.078461	0.795735	city	10	1	0.797446	0.797446	0	1	0	0	CorrectCommission	0.218282	0.525765	1
263.874146	0.795631	city	5	1	0.864461	0.864461	0	1	0	0	CorrectCommission	0.241481	0.507002	1
264.669861	0.795793	city	6	1	0.897132	0.897132	0	1	0	0	CorrectCommission	0.465620	0.488781	1
265.465729	0.795952	city	4	1	0.867014	0.867014	0	1	0	0	CorrectCommission	0.258991	0.473278	1
266.261627	0.795850	city	2	1	0.897405	0.897405	0	1	0	0	CorrectCommission	0.467493	0.462446	1
267.057495	0.795871	city	5	1	0.816132	0.816132	0	1	0	0	CorrectCommission	0.090089	0.457644	1
267.853180	0.795505	city	7	1	0.847614	0.847614	0	1	0	0	CorrectCommission	0.125900	0.459748	1
268.648926	0.795994	city	2	1	0.847412	0.847412	0	1	0	0	CorrectCommission	0.124510	0.469058	1
269.444855	0.795865	city	7	1	0.946824	0.946824	0	1	0	0	CorrectCommission	0.806533	0.485349	1
270.240662	0.795729	city	9	1	0.897153	0.897153	0	1	0	0	CorrectCommission	0.465760	0.507946	1
271.036438	0.795858	city	10	1	0.698006	0.698006	0	1	0	0	CorrectCommission	0.900493	0.535968	1
271.832184	0.795590	city	5	1	0.813206	0.813206	0	1	0	0	CorrectCommission	0.110160	0.568372	1
272.627869	0.795814	city	1	1	0.864899	0.864899	0	1	0	0	CorrectCommission	0.244483	0.604206	1
273.423798	0.796026	city	4	1	0.797709	0.797709	0	1	0	0	CorrectCommission	0.216477	0.642529	1
274.219666	0.795733	city	3	1	0.698398	0.698398	0	1	0	0	CorrectCommission	0.897802	0.682699	1
275.015442	0.795804	city	9	1	1.096118	1.096118	0	1	0	0	CorrectCommission	1.830769	0.724249	0
275.811279	0.795859	city	6	1	0.996747	0.996747	0	1	0	0	CorrectCommission	1.149035	0.766916	0
276.607056	0.795731	city	3	1	0.947104	0.947104	0	1	0	0	CorrectCommission	0.808456	0.810647	0
277.402771	0.795659	city	1	1	0.847392	0.847392	0	1	0	0	CorrectCommission	0.124376	0.855440	0
278.198608	0.796051	mountain	4	0	0.000000	0.791402	1	0	0	0	CorrectOmission	0.259746	0.901244	0
278.994507	0.795729	city	4	1	0.754130	0.754130	0	1	0	0	CorrectCommission	0.515451	0.947838	0
279.790314	0.795868	city	6	1	0.710573	0.710573	0	1	0	0	CorrectCommission	0.814279	0.994820	0
280.586090	0.795700	city	9	1	0.704389	0.704389	0	1	0	0	CorrectCommission	0.856701	1.041559	0
281.381836	0.795802	mountain	2	1	1.344824	1.344824	0	0	1	0	CommissionError	3.537030	1.087229	0
282.177643	0.795783	mountain	1	1	0.797779	0.797779	0	0	1	0	CommissionError	0.215995	1.130710	0
282.973450	0.795867	city	10	1	0.965940	0.965940	0	1	0	0	CorrectCommission	0.937676	1.170969	0
283.769348	0.795888	city	1	1	1.064766	1.064766	0	1	0	0	CorrectCommission	1.615678	1.206748	0
284.565155	0.795721	city	8	1	0.997017	0.997017	0	1	0	0	CorrectCommission	1.150882	1.236791	0
285.360748	0.795517	city	3	1	0.897258	0.897258	0	1	0	0	CorrectCommission	0.466484	1.259880	0
286.156464	0.795879	city	7	1	0.997234	0.997234	0	1	0	0	CorrectCommission	1.152374	1.274901	0
286.952423	0.796041	city	4	1	1.146116	1.146116	0	1	0	0	CorrectCommission	2.173785	1.280868	0
287.748230	0.795559	city	3	1	1.195664	1.195664	0	1	0	0	CorrectCommission	2.513711	1.277081	0
288.544006	0.796030	city	8	0	0.000000	0.839369	0	0	0	1	OmissionError	0.069333	1.263198	0
289.339966	0.795849	city	7	1	0.502634	0.502634	0	1	0	0	CorrectCommission	2.240855	1.239444	0
290.135712	0.795676	city	8	1	0.610860	0.610860	0	1	0	0	CorrectCommission	1.498362	1.206356	0
290.931458	0.795808	mountain	10	0	0.000000	0.648070	1	0	0	0	CorrectOmission	1.243086	1.165023	0
291.727142	0.795576	mountain	3	1	0.648321	0.648321	0	0	1	0	CommissionError	1.241359	1.116893	0
292.523010	0.796121	mountain	1	0	0.000000	0.645675	1	0	0	0	CorrectOmission	1.259514	1.063634	0
293.318848	0.795559	city	5	1	0.707065	0.707065	0	1	0	0	CorrectCommission	0.838345	1.007060	0
294.114655	0.796060	city	2	1	0.899426	0.899426	0	1	0	0	CorrectCommission	0.481353	0.948965	0
294.910583	0.795789	city	5	1	0.910608	0.910608	0	1	0	0	CorrectCommission	0.558068	0.890985	0
295.706238	0.795557	city	6	1	0.960407	0.960407	0	1	0	0	CorrectCommission	0.899717	0.834459	0
296.502045	0.796017	city	1	1	0.997184	0.997184	0	1	0	0	CorrectCommission	1.152028	0.780417	0
297.297852	0.795597	mountain	5	0	0.000000	0.917924	1	0	0	0	CorrectOmission	0.608266	0.729557	0
298.093658	0.796021	city	4	1	0.848101	0.848101	0	1	0	0	CorrectCommission	0.129241	0.682359	1
298.889587	0.795851	city	8	1	0.913187	0.913187	0	1	0	0	CorrectCommission	0.575762	0.639003	1
299.685333	0.795673	city	3	1	0.997150	0.997150	0	1	0	0	CorrectCommission	1.151796	0.599592	1
300.481140	0.795930	mountain	7	0	0.000000	0.898873	1	0	0	0	CorrectOmission	0.477563	0.564156	1
301.276947	0.795689	city	10	1	0.808133	0.808133	0	1	0	0	CorrectCommission	0.144963	0.532730	1
302.072693	0.795783	city	2	1	0.914706	0.914706	0	1	0	0	CorrectCommission	0.586188	0.505401	1
302.868408	0.795659	city	3	1	0.946906	0.946906	0	1	0	0	CorrectCommission	0.807098	0.482322	1
303.664276	0.796048	city	1	1	0.851803	0.851803	0	1	0	0	CorrectCommission	0.154638	0.463624	1
304.460022	0.795463	city	7	1	0.802497	0.802497	0	1	0	0	CorrectCommission	0.183630	0.449543	1
305.255737	0.795948	city	8	1	0.762668	0.762668	0	1	0	0	CorrectCommission	0.456881	0.440287	1
306.051514	0.795650	city	4	1	0.813629	0.813629	0	1	0	0	CorrectCommission	0.107258	0.436227	1
306.847290	0.795858	city	9	1	0.798250	0.798250	0	1	0	0	CorrectCommission	0.212769	0.437738	1
307.643127	0.795817	city	7	1	0.847716	0.847716	0	1	0	0	CorrectCommission	0.126600	0.445305	1
308.439026	0.795991	city	3	1	0.714586	0.714586	0	1	0	0	CorrectCommission	0.786747	0.459471	1
309.234833	0.795638	city	2	1	0.698436	0.698436	0	1	0	0	CorrectCommission	0.897542	0.480862	1
310.030548	0.795777	city	5	1	0.718210	0.718210	0	1	0	0	CorrectCommission	0.761882	0.510055	1
310.826477	0.796066	city	4	1	0.857346	0.857346	0	1	0	0	CorrectCommission	0.192662	0.547474	1
311.622375	0.795762	city	2	1	0.758773	0.758773	0	1	0	0	CorrectCommission	0.483601	0.593262	1
312.418152	0.795762	city	6	1	0.847143	0.847143	0	1	0	0	CorrectCommission	0.122667	0.647068	1
313.213837	0.795600	city	8	1	0.798040	0.798040	0	1	0	0	CorrectCommission	0.214206	0.707936	1
314.009613	0.795988	mountain	9	1	0.797649	0.797649	0	0	1	0	CommissionError	0.216889	0.774195	0
314.805542	0.795884	city	7	1	0.820188	0.820188	0	1	0	0	CorrectCommission	0.062262	0.843522	0
315.601257	0.795520	city	2	1	0.953289	0.953289	0	1	0	0	CorrectCommission	0.850886	0.913050	0
316.396942	0.795838	city	3	1	0.996965	0.996965	0	1	0	0	CorrectCommission	1.150528	0.979523	0
317.192841	0.796001	city	6	1	0.499415	0.499415	0	1	0	0	CorrectCommission	2.262937	1.039609	0
317.988617	0.795523	city	4	1	0.349884	0.349884	0	1	0	0	CorrectCommission	3.288799	1.090168	0
318.784271	0.795810	city	7	1	0.748492	0.748492	0	1	0	0	CorrectCommission	0.554133	1.128515	0
319.580109	0.795848	city	5	1	0.655930	0.655930	0	1	0	0	CorrectCommission	1.189162	1.152726	0
320.375946	0.795818	city	6	1	0.897969	0.897969	0	1	0	0	CorrectCommission	0.471362	1.161474	0
321.171753	0.795793	city	9	1	1.063860	1.063860	0	1	0	0	CorrectCommission	1.609466	1.154281	0
321.967682	0.796090	city	4	1	0.998554	0.998554	0	1	0	0	CorrectCommission	1.161430	1.131368	0
322.763641	0.795786	city	3	1	1.055529	1.055529	0	1	0	0	CorrectCommission	1.552308	1.093697	0
323.559448	0.795833	city	7	0	0.000000	0.737260	0	0	0	1	OmissionError	0.631191	1.042873	0
324.355103	0.795519	city	10	1	0.449755	0.449755	0	1	0	0	CorrectCommission	2.603634	0.981095	0
325.150909	0.796086	city	8	1	0.599020	0.599020	0	1	0	0	CorrectCommission	1.579590	0.910939	0
325.946808	0.795705	city	1	1	0.759451	0.759451	0	1	0	0	CorrectCommission	0.478949	0.835386	0
326.742554	0.795799	city	7	1	0.803983	0.803983	0	1	0	0	CorrectCommission	0.173435	0.757582	0
327.538239	0.795575	city	2	1	0.748250	0.748250	0	1	0	0	CorrectCommission	0.555792	0.680633	1
328.333954	0.795815	city	1	1	0.804584	0.804584	0	1	0	0	CorrectCommission	0.169314	0.607439	1
329.129883	0.796071	city	5	1	0.815875	0.815875	0	1	0	0	CorrectCommission	0.091850	0.540542	1
329.925812	0.795785	city	7	1	0.897215	0.897215	0	1	0	0	CorrectCommission	0.466190	0.482070	1
330.721588	0.795769	city	6	1	0.897052	0.897052	0	1	0	0	CorrectCommission	0.465071	0.433598	1
331.517273	0.795586	city	5	1	0.847521	0.847521	0	1	0	0	CorrectCommission	0.125260	0.396217	1
332.312958	0.795799	city	4	1	0.848015	0.848015	0	1	0	0	CorrectCommission	0.128651	0.370492	1
333.108765	0.795810	city	3	1	0.848000	0.848000	0	1	0	0	CorrectCommission	0.128546	0.356617	1
333.904694	0.796012	city	1	1	0.847414	0.847414	0	1	0	0	CorrectCommission	0.124528	0.354527	1
334.700592	0.795830	city	6	1	0.897360	0.897360	0	1	0	0	CorrectCommission	0.467183	0.363975	1
335.496307	0.795573	city	8	1	0.847388	0.847388	0	1	0	0	CorrectCommission	0.124346	0.384558	1
336.292053	0.795950	city	1	1	0.849235	0.849235	0	1	0	0	CorrectCommission	0.137015	0.415886	1
337.087891	0.795674	city	10	1	0.906767	0.906767	0	1	0	0	CorrectCommission	0.531719	0.457399	1
337.883606	0.795798	city	2	1	0.853619	0.853619	0	1	0	0	CorrectCommission	0.167095	0.508332	1
338.679504	0.795968	city	5	1	0.946927	0.946927	0	1	0	0	CorrectCommission	0.807237	0.567575	1
339.475281	0.795620	city	9	1	0.910370	0.910370	0	1	0	0	CorrectCommission	0.556439	0.633501	1
340.270996	0.795785	city	7	1	0.946923	0.946923	0	1	0	0	CorrectCommission	0.807209	0.703915	1
341.066864	0.795983	city	1	1	0.897958	0.897958	0	1	0	0	CorrectCommission	0.471283	0.775990	0
341.862793	0.795872	city	6	1	0.858507	0.858507	0	1	0	0	CorrectCommission	0.200630	0.846267	0
342.658508	0.795542	mountain	10	1	0.898107	0.898107	0	0	1	0	CommissionError	0.472309	0.910907	0
343.454285	0.795978	city	9	1	0.908841	0.908841	0	1	0	0	CorrectCommission	0.545948	0.965971	0
344.250214	0.795892	city	1	1	0.897211	0.897211	0	1	0	0	CorrectCommission	0.466162	1.007887	0
345.046051	0.795805	city	10	1	0.399957	0.399957	0	1	0	0	CorrectCommission	2.945272	1.033798	0
345.841858	0.795815	city	4	1	0.350071	0.350071	0	1	0	0	CorrectCommission	3.287518	1.042048	0
346.637543	0.795562	mountain	9	1	0.304232	0.304232	0	0	1	0	CommissionError	3.601997	1.032530	0
347.433350	0.796049	city	7	1	0.797730	0.797730	0	1	0	0	CorrectCommission	0.216335	1.006708	0
348.229156	0.795558	city	1	1	0.798209	0.798209	0	1	0	0	CorrectCommission	0.213050	0.967656	0
349.024933	0.795999	city	7	1	0.897313	0.897313	0	1	0	0	CorrectCommission	0.466859	0.919497	0
349.820831	0.795796	city	2	1	0.897202	0.897202	0	1	0	0	CorrectCommission	0.466100	0.867022	0
350.616608	0.795761	mountain	5	0	0.000000	0.897414	1	0	0	0	CorrectOmission	0.467550	0.815139	0
351.412415	0.795824	city	4	1	0.897578	0.897578	0	1	0	0	CorrectCommission	0.468677	0.768313	0
352.208252	0.795829	city	9	1	0.897326	0.897326	0	1	0	0	CorrectCommission	0.466946	0.730095	0
353.003937	0.795549	city	5	1	0.897332	0.897332	0	1	0	0	CorrectCommission	0.466989	0.702830	1
353.799713	0.796013	city	10	1	0.917116	0.917116	0	1	0	0	CorrectCommission	0.602722	0.687474	1
354.595612	0.795781	mountain	5	0	0.000000	0.810807	1	0	0	0	CorrectOmission	0.126618	0.683568	1
355.391449	0.795898	city	8	1	0.747782	0.747782	0	1	0	0	CorrectCommission	0.559003	0.689433	1
356.187256	0.795750	city	6	1	0.897421	0.897421	0	1	0	0	CorrectCommission	0.467598	0.702385	1
356.983063	0.795867	city	7	1	0.897641	0.897641	0	1	0	0	CorrectCommission	0.469108	0.719173	1
357.778870	0.795739	city	10	1	0.954661	0.954661	0	1	0	0	CorrectCommission	0.860297	0.736355	0
358.574554	0.795602	city	5	1	0.946716	0.946716	0	1	0	0	CorrectCommission	0.805790	0.750694	0
359.370392	0.796065	city	6	1	1.112803	1.112803	0	1	0	0	CorrectCommission	1.945242	0.759576	0
360.166168	0.795521	city	4	0	0.000000	0.817353	0	0	0	1	OmissionError	0.081710	0.761198	0
360.961853	0.795812	city	2	1	0.499652	0.499652	0	1	0	0	CorrectCommission	2.261309	0.754862	0
361.757660	0.795790	city	7	1	0.598990	0.598990	0	1	0	0	CorrectCommission	1.579798	0.740736	0
362.553528	0.795969	city	6	1	0.756963	0.756963	0	1	0	0	CorrectCommission	0.496017	0.719900	1
363.349457	0.795874	mountain	7	0	0.000000	0.810323	1	0	0	0	CorrectOmission	0.129941	0.694108	1
364.145294	0.795843	city	9	1	0.797980	0.797980	0	1	0	0	CorrectCommission	0.214616	0.665346	1
364.940979	0.795492	mountain	1	0	0.000000	0.758847	1	0	0	0	CorrectOmission	0.483093	0.635685	1
365.736725	0.796001	city	3	1	0.754807	0.754807	0	1	0	0	CorrectCommission	0.510811	0.606923	1
366.532623	0.795794	city	7	1	0.847744	0.847744	0	1	0	0	CorrectCommission	0.126787	0.580407	1
367.328461	0.795893	city	3	1	0.801009	0.801009	0	1	0	0	CorrectCommission	0.193839	0.556963	1
368.124329	0.795815	city	1	1	0.947589	0.947589	0	1	0	0	CorrectCommission	0.811783	0.536882	1
368.920074	0.795692	mountain	7	0	0.000000	0.977702	1	0	0	0	CorrectOmission	1.018371	0.520020	1
369.715851	0.795899	mountain	3	0	0.000000	0.931040	1	0	0	0	CorrectOmission	0.698246	0.505960	1
370.511688	0.795720	city	3	1	0.847298	0.847298	0	1	0	0	CorrectCommission	0.123731	0.494180	1
371.307495	0.795911	city	2	1	0.766170	0.766170	0	1	0	0	CorrectCommission	0.432851	0.484172	1
372.103333	0.795766	city	7	1	0.749199	0.749199	0	1	0	0	CorrectCommission	0.549284	0.475542	1
372.898956	0.795473	city	4	1	0.946882	0.946882	0	1	0	0	CorrectCommission	0.806933	0.468097	1
373.694763	0.796130	city	7	1	0.852717	0.852717	0	1	0	0	CorrectCommission	0.160904	0.461818	1
374.490692	0.795728	city	2	1	0.797411	0.797411	0	1	0	0	CorrectCommission	0.218525	0.456887	1
375.286346	0.795615	city	10	1	0.748345	0.748345	0	1	0	0	CorrectCommission	0.555143	0.453534	1
376.082184	0.796062	city	1	1	0.748238	0.748238	0	1	0	0	CorrectCommission	0.555879	0.452008	1
376.877960	0.795502	city	8	1	0.798060	0.798060	0	1	0	0	CorrectCommission	0.214066	0.452457	1
377.673737	0.796050	city	10	1	0.848123	0.848123	0	1	0	0	CorrectCommission	0.129389	0.454999	1
378.469696	0.795849	city	6	1	0.996546	0.996546	0	1	0	0	CorrectCommission	1.147655	0.459468	1
379.265503	0.795782	city	2	1	0.805034	0.805034	0	1	0	0	CorrectCommission	0.166223	0.465591	1
380.061218	0.795605	city	8	1	0.848685	0.848685	0	1	0	0	CorrectCommission	0.133244	0.473048	1
380.856873	0.795756	city	6	1	0.897127	0.897127	0	1	0	0	CorrectCommission	0.465585	0.481419	1
381.652771	0.796007	city	10	1	0.909039	0.909039	0	1	0	0	CorrectCommission	0.547307	0.490332	1
382.448730	0.795903	city	3	1	0.754530	0.754530	0	1	0	0	CorrectCommission	0.512707	0.499581	1
383.244568	0.795768	city	10	1	0.896931	0.896931	0	1	0	0	CorrectCommission	0.464241	0.509184	1
384.040222	0.795552	mountain	8	0	0.000000	0.945913	1	0	0	0	CorrectOmission	0.800282	0.519420	1
384.835968	0.795976	city	10	1	0.947365	0.947365	0	1	0	0	CorrectCommission	0.810247	0.530792	1
385.631897	0.795875	city	8	1	0.947178	0.947178	0	1	0	0	CorrectCommission	0.808965	0.543997	1
386.427582	0.795468	mountain	10	0	0.000000	0.881061	1	0	0	0	CorrectOmission	0.355360	0.559770	1
387.223358	0.796110	city	3	1	0.848020	0.848020	0	1	0	0	CorrectCommission	0.128685	0.578720	1
388.019287	0.795728	city	9	1	0.947066	0.947066	0	1	0	0	CorrectCommission	0.808194	0.601184	1
388.814972	0.795644	city	2	1	0.798106	0.798106	0	1	0	0	CorrectCommission	0.213754	0.627058	1
389.610687	0.795803	city	10	1	0.866306	0.866306	0	1	0	0	CorrectCommission	0.254137	0.655781	1
390.406616	0.796045	city	3	1	0.847991	0.847991	0	1	0	0	CorrectCommission	0.128483	0.686285	1
391.202545	0.795795	city	6	1	0.897398	0.897398	0	1	0	0	CorrectCommission	0.467442	0.717177	1
391.998199	0.795549	city	3	1	0.947083	0.947083	0	1	0	0	CorrectCommission	0.808309	0.746875	0
392.794037	0.796085	city	4	1	1.096393	1.096393	0	1	0	0	CorrectCommission	1.832659	0.773906	0
393.589935	0.795713	city	9	0	0.000000	0.792078	0	0	0	1	OmissionError	0.255112	0.797089	0
394.385712	0.795850	city	6	1	0.465674	0.465674	0	1	0	0	CorrectCommission	2.494422	0.815920	0
395.181549	0.795805	mountain	1	1	0.548719	0.548719	0	0	1	0	CommissionError	1.924686	0.830437	0
395.977234	0.795598	city	6	1	0.847100	0.847100	0	1	0	0	CorrectCommission	0.122369	0.841288	0
396.773010	0.795944	mountain	6	0	0.000000	0.814209	1	0	0	0	CorrectOmission	0.103276	0.849726	0
397.568787	0.795625	city	3	1	0.748286	0.748286	0	1	0	0	CorrectCommission	0.555549	0.857234	0
398.364624	0.796033	city	4	1	0.947565	0.947565	0	1	0	0	CorrectCommission	0.811618	0.865325	0
399.160553	0.795842	mountain	3	0	0.000000	0.903366	1	0	0	0	CorrectOmission	0.508388	0.875334	0
399.956268	0.795556	city	10	1	0.847706	0.847706	0	1	0	0	CorrectCommission	0.126531	0.888204	0
400.752045	0.795989	city	7	1	1.012604	1.012604	0	1	0	0	CorrectCommission	1.257819	0.904483	0
401.547913	0.795761	city	8	1	1.063751	1.063751	0	1	0	0	CorrectCommission	1.608718	0.924084	0
402.343628	0.795665	mountain	2	0	0.000000	0.914958	1	0	0	0	CorrectOmission	0.587913	0.946533	0
403.139435	0.795938	city	10	1	0.709998	0.709998	0	1	0	0	CorrectCommission	0.818223	0.971054	0
403.935303	0.795801	mountain	5	0	0.000000	0.592647	1	0	0	0	CorrectOmission	1.623312	0.996624	0
404.731018	0.795666	city	10	1	0.648730	0.648730	0	1	0	0	CorrectCommission	1.238553	1.022159	0
405.526825	0.795964	city	5	1	0.964071	0.964071	0	1	0	0	CorrectCommission	0.924859	1.046672	0
406.322632	0.795596	mountain	3	0	0.000000	0.932732	1	0	0	0	CorrectOmission	0.709852	1.069357	0
407.118439	0.796063	city	10	1	0.847829	0.847829	0	1	0	0	CorrectCommission	0.127372	1.089632	0
407.914398	0.795824	city	9	1	1.002481	1.002481	0	1	0	0	CorrectCommission	1.188368	1.107231	0
408.710052	0.795520	city	3	1	0.960092	0.960092	0	1	0	0	CorrectCommission	0.897561	1.122068	0
409.505829	0.796006	city	10	1	0.450021	0.450021	0	1	0	0	CorrectCommission	2.601806	1.134327	0
410.301636	0.795603	mountain	8	1	0.300563	0.300563	0	0	1	0	CommissionError	3.627173	1.144196	0
411.097443	0.796051	city	7	1	0.851410	0.851410	0	1	0	0	CorrectCommission	0.151943	1.151883	0
411.893372	0.795787	city	8	1	0.797726	0.797726	0	1	0	0	CorrectCommission	0.216359	1.157481	0
412.689148	0.795741	city	7	1	0.797678	0.797678	0	1	0	0	CorrectCommission	0.216691	1.160570	0
413.484894	0.795786	mountain	10	1	0.897646	0.897646	0	0	1	0	CommissionError	0.469145	1.160316	0
414.280762	0.795950	city	6	1	0.947917	0.947917	0	1	0	0	CorrectCommission	0.814031	1.155404	0
415.076630	0.795787	city	1	1	0.860726	0.860726	0	1	0	0	CorrectCommission	0.215853	1.144193	0
415.872406	0.795753	mountain	10	1	0.350425	0.350425	0	0	1	0	CommissionError	3.285093	1.125030	0
416.668182	0.795765	city	10	1	0.599013	0.599013	0	1	0	0	CorrectCommission	1.579640	1.096418	0
417.463959	0.795809	city	9	1	0.499363	0.499363	0	1	0	0	CorrectCommission	2.263297	1.057667	0
418.259735	0.795763	city	8	1	0.548760	0.548760	0	1	0	0	CorrectCommission	1.924404	1.008844	0
419.055542	0.795851	city	9	1	0.698335	0.698335	0	1	0	0	CorrectCommission	0.898240	0.951036	0
419.851349	0.795762	city	2	1	0.748348	0.748348	0	1	0	0	CorrectCommission	0.555118	0.886354	0
420.647156	0.795855	city	5	1	0.747999	0.747999	0	1	0	0	CorrectCommission	0.557516	0.817684	0
421.442963	0.795749	city	6	1	0.862718	0.862718	0	1	0	0	CorrectCommission	0.229517	0.748381	0
422.238739	0.795800	city	3	1	0.810775	0.810775	0	1	0	0	CorrectCommission	0.126838	0.682025	1
423.034546	0.795819	city	1	1	0.947090	0.947090	0	1	0	0	CorrectCommission	0.808355	0.622054	1
423.830261	0.795600	city	3	1	0.859707	0.859707	0	1	0	0	CorrectCommission	0.208863	0.571426	1
424.626099	0.796079	city	9	1	0.857270	0.857270	0	1	0	0	CorrectCommission	0.192142	0.532540	1
425.422028	0.795807	city	7	1	0.896888	0.896888	0	1	0	0	CorrectCommission	0.463943	0.506947	1
426.217712	0.795527	mountain	8	0	0.000000	0.811834	1	0	0	0	CorrectOmission	0.119571	0.495362	1
427.013519	0.796094	city	1	1	0.748225	0.748225	0	1	0	0	CorrectCommission	0.555962	0.497668	1
427.809326	0.795505	mountain	5	1	0.852177	0.852177	0	0	1	0	CommissionError	0.157205	0.512930	1
428.605103	0.796092	city	4	1	0.897309	0.897309	0	1	0	0	CorrectCommission	0.466830	0.539670	1
429.400909	0.795491	city	3	1	0.847694	0.847694	0	1	0	0	CorrectCommission	0.126444	0.575825	1
430.196686	0.796036	city	8	1	0.798439	0.798439	0	1	0	0	CorrectCommission	0.211467	0.618962	1
430.992645	0.795885	mountain	10	1	0.749673	0.749673	0	0	1	0	CommissionError	0.546033	0.666395	1
431.788330	0.795512	city	1	1	0.950715	0.950715	0	1	0	0	CorrectCommission	0.833225	0.715295	1
432.583984	0.795823	city	5	1	1.005603	1.005603	0	1	0	0	CorrectCommission	1.209788	0.762937	0
433.379791	0.795754	city	9	1	0.996786	0.996786	0	1	0	0	CorrectCommission	1.149297	0.806674	0
434.175690	0.796032	city	4	1	1.003661	1.003661	0	1	0	0	CorrectCommission	1.196465	0.844347	0
434.971619	0.795867	city	1	1	1.001879	1.001879	0	1	0	0	CorrectCommission	1.184238	0.874232	0
435.767456	0.795813	city	5	1	0.998584	0.998584	0	1	0	0	CorrectCommission	1.161635	0.895093	0
436.563263	0.795743	city	1	1	0.896811	0.896811	0	1	0	0	CorrectCommission	0.463416	0.906427	0
437.359009	0.795771	city	9	1	0.956393	0.956393	0	1	0	0	CorrectCommission	0.872183	0.908489	0
438.154846	0.795895	city	7	1	0.996821	0.996821	0	1	0	0	CorrectCommission	1.149538	0.902188	0
438.950531	0.795519	city	5	1	0.947196	0.947196	0	1	0	0	CorrectCommission	0.809084	0.889233	0
439.746216	0.795799	city	9	1	1.096885	1.096885	0	1	0	0	CorrectCommission	1.836037	0.872017	0
440.542084	0.795970	city	10	1	1.046450	1.046450	0	1	0	0	CorrectCommission	1.490022	0.853402	0
441.337860	0.795603	mountain	2	0	0.000000	0.922113	1	0	0	0	CorrectOmission	0.637004	0.836615	0
442.133667	0.795975	city	10	1	0.798018	0.798018	0	1	0	0	CorrectCommission	0.214356	0.824982	0
442.929626	0.795939	city	1	1	0.748309	0.748309	0	1	0	0	CorrectCommission	0.555392	0.821497	0
443.725342	0.795521	city	7	1	0.903211	0.903211	0	1	0	0	CorrectCommission	0.507321	0.828547	0
444.521088	0.795960	mountain	9	0	0.000000	0.850590	1	0	0	0	CorrectOmission	0.146312	0.847639	0
445.316895	0.795619	city	2	1	0.798045	0.798045	0	1	0	0	CorrectCommission	0.214172	0.879237	0
446.112701	0.796032	city	10	1	0.953177	0.953177	0	1	0	0	CorrectCommission	0.850117	0.922634	0
446.908661	0.795853	mountain	7	0	0.000000	0.859763	1	0	0	0	CorrectOmission	0.209249	0.976016	0
447.704437	0.795724	city	9	1	0.747835	0.747835	0	1	0	0	CorrectCommission	0.558641	1.036708	0
448.500183	0.795791	city	6	1	0.847422	0.847422	0	1	0	0	CorrectCommission	0.124580	1.101372	0
449.296021	0.795885	city	4	1	0.349925	0.349925	0	1	0	0	CorrectCommission	3.288519	1.166426	0
450.091858	0.795758	mountain	5	1	0.300297	0.300297	0	0	1	0	CommissionError	3.628996	1.228143	0
450.887482	0.795512	city	7	1	0.847718	0.847718	0	1	0	0	CorrectCommission	0.126609	1.283240	0
451.683289	0.796093	city	10	1	1.015894	1.015894	0	1	0	0	CorrectCommission	1.280389	1.329083	0
452.479248	0.795821	city	7	1	1.099456	1.099456	0	1	0	0	CorrectCommission	1.853671	1.363550	0
453.275055	0.795784	city	3	0	0.000000	0.788519	0	0	0	1	OmissionError	0.279523	1.385253	0
454.070801	0.795739	mountain	5	1	0.598842	0.598842	0	0	1	0	CommissionError	1.580815	1.393608	0
454.866486	0.795620	city	2	1	1.046181	1.046181	0	1	0	0	CorrectCommission	1.488174	1.388627	0
455.662292	0.795989	city	5	1	1.099818	1.099818	0	1	0	0	CorrectCommission	1.856152	1.371003	0
456.458191	0.795820	city	10	1	0.599352	0.599352	0	1	0	0	CorrectCommission	1.577313	1.342009	0
457.254059	0.795888	city	7	1	0.400105	0.400105	0	1	0	0	CorrectCommission	2.944261	1.303445	0
458.049866	0.795702	city	1	1	0.549148	0.549148	0	1	0	0	CorrectCommission	1.921746	1.257462	0
458.845520	0.795620	city	10	1	0.659980	0.659980	0	1	0	0	CorrectCommission	1.161375	1.206522	0
459.641327	0.796011	city	5	1	0.748111	0.748111	0	1	0	0	CorrectCommission	0.556744	1.153096	0
460.437103	0.795529	city	9	1	0.847165	0.847165	0	1	0	0	CorrectCommission	0.122815	1.099444	0
461.232819	0.795892	city	10	1	0.857158	0.857158	0	1	0	0	CorrectCommission	0.191372	1.047421	0
462.028748	0.796006	city	6	1	0.848727	0.848727	0	1	0	0	CorrectCommission	0.133533	0.998347	0
462.824554	0.795568	city	8	1	0.947426	0.947426	0	1	0	0	CorrectCommission	0.810663	0.953007	0
463.620392	0.796114	city	4	1	1.046921	1.046921	0	1	0	0	CorrectCommission	1.493255	0.911656	0
464.416290	0.795682	city	2	1	1.201802	1.201802	0	1	0	0	CorrectCommission	2.555823	0.874208	0
465.212036	0.795819	city	7	1	0.698393	0.698393	0	1	0	0	CorrectCommission	0.897839	0.840321	0
466.007721	0.795539	city	10	1	0.698325	0.698325	0	1	0	0	CorrectCommission	0.898309	0.809707	0
466.803528	0.796095	city	4	1	0.797900	0.797900	0	1	0	0	CorrectCommission	0.215165	0.781961	0
467.599487	0.795814	city	1	1	0.797456	0.797456	0	1	0	0	CorrectCommission	0.218214	0.756830	0
468.395264	0.795735	city	2	1	0.797801	0.797801	0	1	0	0	CorrectCommission	0.215846	0.734174	0
469.191071	0.795871	city	5	1	0.853207	0.853207	0	1	0	0	CorrectCommission	0.164269	0.713963	1
469.986786	0.795583	city	6	1	0.999959	0.999959	0	1	0	0	CorrectCommission	1.171065	0.696277	1
470.782471	0.795794	city	3	1	0.996649	0.996649	0	1	0	0	CorrectCommission	1.148362	0.681383	1
471.578369	0.795993	city	6	1	0.914440	0.914440	0	1	0	0	CorrectCommission	0.584359	0.669736	1
472.374298	0.795842	city	9	1	0.947475	0.947475	0	1	0	0	CorrectCommission	0.811000	0.662030	1
473.170074	0.795726	city	10	1	0.996567	0.996567	0	1	0	0	CorrectCommission	1.147796	0.659125	1
473.965851	0.795800	mountain	1	1	0.900643	0.900643	0	0	1	0	CommissionError	0.489705	0.662034	1
474.761566	0.795650	city	7	1	0.811575	0.811575	0	1	0	0	CorrectCommission	0.121352	0.671822	1
475.557281	0.795788	city	2	1	0.900833	0.900833	0	1	0	0	CorrectCommission	0.491007	0.689413	1
476.353088	0.795799	city	6	1	0.897223	0.897223	0	1	0	0	CorrectCommission	0.466242	0.715567	1
477.149017	0.796094	city	5	1	0.808481	0.808481	0	1	0	0	CorrectCommission	0.142578	0.750687	0
477.944824	0.795492	city	7	1	0.897806	0.897806	0	1	0	0	CorrectCommission	0.470240	0.794770	0
478.740479	0.795840	city	10	1	0.947560	0.947560	0	1	0	0	CorrectCommission	0.811585	0.847318	0
479.536407	0.796022	city	3	1	0.998669	0.998669	0	1	0	0	CorrectCommission	1.162215	0.907426	0
480.332214	0.795565	city	8	1	0.947128	0.947128	0	1	0	0	CorrectCommission	0.808618	0.973845	0
481.128021	0.796049	city	3	1	0.947210	0.947210	0	1	0	0	CorrectCommission	0.809179	1.045157	0
481.923950	0.795799	city	6	1	0.901317	0.901317	0	1	0	0	CorrectCommission	0.494332	1.119847	0
482.719604	0.795553	mountain	9	1	0.399749	0.399749	0	0	1	0	CommissionError	2.946703	1.196573	0
483.515259	0.795771	city	4	1	0.703070	0.703070	0	1	0	0	CorrectCommission	0.865755	1.274138	0
484.311157	0.796000	city	7	1	0.660076	0.660076	0	1	0	0	CorrectCommission	1.160713	1.351835	0
485.107117	0.795920	city	6	1	0.648376	0.648376	0	1	0	0	CorrectCommission	1.240986	1.429212	0
485.902985	0.795806	city	1	1	0.598953	0.598953	0	1	0	0	CorrectCommission	1.580055	1.506167	0
486.698730	0.795715	city	2	1	0.598544	0.598544	0	1	0	0	CorrectCommission	1.582856	1.582856	0
