onset	duration	trial_type	image_type	Press	ReactionTime	ReactionTime_Interpolated	CorrectOmission	CorrectCommission	CommissionError	OmissionError	response_type	nonsmoothVarianceTimeCourse	VarianceTimeCourse	In_the_Zone
8.421905	0.795509	city	4	1	0.899837	0.899837	0	1	0	0	CorrectCommission	0.471152	0.471152	1
9.217582	0.795845	city	9	1	0.549455	0.549455	0	1	0	0	CorrectCommission	1.664065	0.592386	1
10.013387	0.795765	city	1	1	0.464349	0.464349	0	1	0	0	CorrectCommission	2.182697	0.706851	1
10.809195	0.795851	city	5	1	0.449644	0.449644	0	1	0	0	CorrectCommission	2.272311	0.808549	0
11.605020	0.795800	city	3	1	0.550075	0.550075	0	1	0	0	CorrectCommission	1.660284	0.892800	0
12.400819	0.795799	city	9	1	0.648776	0.648776	0	1	0	0	CorrectCommission	1.058805	0.956667	0
13.196594	0.795750	city	1	1	0.560477	0.560477	0	1	0	0	CorrectCommission	1.596893	0.999118	0
13.992388	0.795838	mountain	7	1	0.549712	0.549712	0	0	1	0	CommissionError	1.662496	1.020835	0
14.788185	0.795756	city	1	1	0.655115	0.655115	0	1	0	0	CorrectCommission	1.020176	1.023987	0
15.583989	0.795853	city	4	1	0.850914	0.850914	0	1	0	0	CorrectCommission	0.173015	1.011752	0
16.379953	0.796074	city	5	1	0.608432	0.608432	0	1	0	0	CorrectCommission	1.304661	0.987785	0
17.175739	0.795498	city	8	1	0.698880	0.698880	0	1	0	0	CorrectCommission	0.753470	0.955691	0
17.971382	0.795787	city	5	1	0.748439	0.748439	0	1	0	0	CorrectCommission	0.451460	0.918791	0
18.767183	0.795816	city	4	1	0.996912	0.996912	0	1	0	0	CorrectCommission	1.062725	0.879741	0
19.563009	0.795837	city	10	1	0.600117	0.600117	0	1	0	0	CorrectCommission	1.355333	0.840515	0
20.358952	0.796049	city	5	1	0.748815	0.748815	0	1	0	0	CorrectCommission	0.449173	0.802403	0
21.154734	0.795513	city	8	1	0.704796	0.704796	0	1	0	0	CorrectCommission	0.717419	0.766197	0
21.950367	0.795756	city	4	1	0.847951	0.847951	0	1	0	0	CorrectCommission	0.154964	0.732267	1
22.746325	0.796159	mountain	8	0	0.000000	0.703968	1	0	0	0	CorrectOmission	0.722466	0.700810	1
23.542175	0.795540	city	2	1	0.558754	0.558754	0	1	0	0	CorrectCommission	1.607394	0.671953	1
24.337841	0.795792	city	4	1	0.698218	0.698218	0	1	0	0	CorrectCommission	0.757506	0.645824	1
25.133593	0.795712	city	3	1	0.748220	0.748220	0	1	0	0	CorrectCommission	0.452798	0.622708	1
25.929375	0.795852	city	10	1	0.749413	0.749413	0	1	0	0	CorrectCommission	0.445529	0.602828	1
26.725225	0.795846	mountain	9	0	0.000000	0.779020	1	0	0	0	CorrectOmission	0.265101	0.586396	1
27.521002	0.795708	mountain	4	1	0.797820	0.797820	0	0	1	0	CommissionError	0.150533	0.573488	1
28.316761	0.795811	city	2	1	0.766591	0.766591	0	1	0	0	CorrectCommission	0.340844	0.564003	1
29.112732	0.796130	city	1	1	0.748136	0.748136	0	1	0	0	CorrectCommission	0.453309	0.557652	1
29.908548	0.795504	city	6	1	0.897235	0.897235	0	1	0	0	CorrectCommission	0.455299	0.554041	1
30.704218	0.795836	city	1	1	0.707128	0.707128	0	1	0	0	CorrectCommission	0.703208	0.552699	1
31.499998	0.795723	city	3	1	0.962676	0.962676	0	1	0	0	CorrectCommission	0.854092	0.553165	1
32.295788	0.795861	city	1	1	0.653592	0.653592	0	1	0	0	CorrectCommission	1.029453	0.555111	1
33.091629	0.795817	city	8	1	0.947367	0.947367	0	1	0	0	CorrectCommission	0.760800	0.558370	1
33.887447	0.795823	city	9	0	0.000000	0.830955	0	0	0	1	OmissionError	0.051388	0.562899	1
34.683243	0.795763	city	2	1	0.666369	0.666369	0	1	0	0	CorrectCommission	0.951594	0.568757	1
35.479179	0.796115	city	4	1	0.815621	0.815621	0	1	0	0	CorrectCommission	0.042054	0.575931	1
36.275105	0.795730	city	10	1	0.853613	0.853613	0	1	0	0	CorrectCommission	0.189465	0.584331	1
37.070755	0.795573	city	5	1	0.946758	0.946758	0	1	0	0	CorrectCommission	0.757086	0.593583	1
37.866589	0.796093	city	1	1	0.897379	0.897379	0	1	0	0	CorrectCommission	0.456174	0.603049	1
38.662403	0.795536	mountain	2	0	0.000000	0.911236	1	0	0	0	CorrectOmission	0.540616	0.611821	1
39.458050	0.795762	city	8	1	0.847549	0.847549	0	1	0	0	CorrectCommission	0.152511	0.618799	1
40.253971	0.796084	city	3	1	0.565540	0.565540	0	1	0	0	CorrectCommission	1.566040	0.622845	1
41.049786	0.795539	city	8	1	0.797537	0.797537	0	1	0	0	CorrectCommission	0.152261	0.622805	1
41.845459	0.795810	city	2	1	0.551860	0.551860	0	1	0	0	CorrectCommission	1.649408	0.617903	1
42.641258	0.795786	city	5	1	0.655464	0.655464	0	1	0	0	CorrectCommission	1.018051	0.607638	1
43.437061	0.795822	city	1	1	0.748352	0.748352	0	1	0	0	CorrectCommission	0.451991	0.592039	1
44.232830	0.795720	city	5	1	0.798094	0.798094	0	1	0	0	CorrectCommission	0.148867	0.571602	1
45.028614	0.795842	city	10	1	0.712992	0.712992	0	1	0	0	CorrectCommission	0.667477	0.547239	1
45.824455	0.795841	city	1	1	0.699440	0.699440	0	1	0	0	CorrectCommission	0.750059	0.520154	1
46.620274	0.795796	city	6	1	0.747922	0.747922	0	1	0	0	CorrectCommission	0.454611	0.491720	1
47.416061	0.795784	city	4	1	0.717394	0.717394	0	1	0	0	CorrectCommission	0.640650	0.463349	1
48.212009	0.796107	city	6	1	0.798028	0.798028	0	1	0	0	CorrectCommission	0.149270	0.436300	1
49.007801	0.795479	city	9	1	0.797730	0.797730	0	1	0	0	CorrectCommission	0.151083	0.411634	1
49.803440	0.795799	city	2	1	0.799620	0.799620	0	1	0	0	CorrectCommission	0.139569	0.390039	1
50.599384	0.796091	city	8	1	0.798019	0.798019	0	1	0	0	CorrectCommission	0.149321	0.371892	1
51.395218	0.795571	city	5	1	0.748046	0.748046	0	1	0	0	CorrectCommission	0.453854	0.357308	1
52.190887	0.795771	city	7	1	0.747987	0.747987	0	1	0	0	CorrectCommission	0.454215	0.346129	1
52.986668	0.795791	city	3	1	0.748459	0.748459	0	1	0	0	CorrectCommission	0.451338	0.338108	1
53.782475	0.795824	city	1	1	0.810144	0.810144	0	1	0	0	CorrectCommission	0.075430	0.332984	1
54.578423	0.796068	city	10	1	0.797714	0.797714	0	1	0	0	CorrectCommission	0.151181	0.330550	1
55.374359	0.795806	city	9	1	0.959427	0.959427	0	1	0	0	CorrectCommission	0.834293	0.330689	1
56.169987	0.795451	city	8	0	0.000000	0.882080	0	0	0	1	OmissionError	0.362941	0.333366	1
56.965633	0.795844	city	9	1	0.762575	0.762575	0	1	0	0	CorrectCommission	0.365314	0.338668	1
57.761620	0.796122	city	7	1	0.797818	0.797818	0	1	0	0	CorrectCommission	0.150549	0.346588	1
58.557423	0.795487	city	4	1	0.847157	0.847157	0	1	0	0	CorrectCommission	0.150124	0.357071	1
59.353065	0.795795	city	1	1	0.847518	0.847518	0	1	0	0	CorrectCommission	0.152320	0.369828	1
60.148865	0.795810	city	10	1	0.798723	0.798723	0	1	0	0	CorrectCommission	0.145035	0.384375	1
60.944675	0.795811	city	8	1	0.897273	0.897273	0	1	0	0	CorrectCommission	0.455525	0.400028	1
61.740456	0.795746	city	2	1	0.848004	0.848004	0	1	0	0	CorrectCommission	0.155282	0.415911	1
62.536255	0.795851	city	10	1	0.765182	0.765182	0	1	0	0	CorrectCommission	0.349432	0.431129	1
63.332230	0.796100	city	3	0	0.000000	0.941936	0	0	0	1	OmissionError	0.727702	0.444868	1
64.310402	1.160246	city	10	1	1.072544	1.072544	0	1	0	0	CorrectCommission	1.523624	0.456567	1
65.288437	0.795819	city	9	1	0.851284	0.851284	0	1	0	0	CorrectCommission	0.175274	0.465990	1
66.084236	0.795783	city	5	1	0.753384	0.753384	0	1	0	0	CorrectCommission	0.421325	0.473398	1
66.880180	0.796116	city	8	1	0.956742	0.956742	0	1	0	0	CorrectCommission	0.817931	0.479380	1
67.675972	0.795455	city	4	1	0.897212	0.897212	0	1	0	0	CorrectCommission	0.455158	0.484803	1
68.471611	0.795833	city	10	1	0.799406	0.799406	0	1	0	0	CorrectCommission	0.140870	0.490728	1
69.267418	0.795770	city	4	1	0.897457	0.897457	0	1	0	0	CorrectCommission	0.456651	0.498153	1
70.063370	0.796147	city	3	1	0.757810	0.757810	0	1	0	0	CorrectCommission	0.394353	0.507800	1
70.859215	0.795532	city	7	1	0.850341	0.850341	0	1	0	0	CorrectCommission	0.169523	0.520077	1
71.654839	0.795724	city	10	1	0.897527	0.897527	0	1	0	0	CorrectCommission	0.457078	0.534966	1
72.450638	0.795871	city	2	1	0.914075	0.914075	0	1	0	0	CorrectCommission	0.557920	0.552003	1
73.246483	0.795815	mountain	1	1	0.767167	0.767167	0	0	1	0	CommissionError	0.337332	0.570366	1
74.042282	0.795782	city	10	1	0.847820	0.847820	0	1	0	0	CorrectCommission	0.154166	0.589055	1
74.838043	0.795750	city	5	1	0.906709	0.906709	0	1	0	0	CorrectCommission	0.513033	0.607042	1
75.633850	0.795861	city	6	1	1.047264	1.047264	0	1	0	0	CorrectCommission	1.369567	0.623419	1
76.429672	0.795787	city	5	1	1.145837	1.145837	0	1	0	0	CorrectCommission	1.970266	0.637507	1
77.225449	0.795758	city	3	0	0.000000	0.913107	0	0	0	1	OmissionError	0.552021	0.648985	1
78.021255	0.795864	city	7	1	0.710160	0.710160	0	1	0	0	CorrectCommission	0.684731	0.657972	1
78.817047	0.795708	city	8	1	0.898080	0.898080	0	1	0	0	CorrectCommission	0.460448	0.664714	1
79.612823	0.795842	city	1	1	0.766688	0.766688	0	1	0	0	CorrectCommission	0.340256	0.669681	1
80.408669	0.795859	city	4	1	0.804999	0.804999	0	1	0	0	CorrectCommission	0.106790	0.673301	1
81.204498	0.795793	city	7	1	0.804304	0.804304	0	1	0	0	CorrectCommission	0.111024	0.675994	1
82.000282	0.795783	city	9	1	0.899562	0.899562	0	1	0	0	CorrectCommission	0.469475	0.678002	1
82.796066	0.795784	city	4	0	0.000000	0.707681	0	0	0	1	OmissionError	0.699842	0.679589	1
83.591881	0.795840	city	8	1	0.500290	0.500290	0	1	0	0	CorrectCommission	1.963673	0.681020	1
84.387672	0.795754	city	2	1	0.549020	0.549020	0	1	0	0	CorrectCommission	1.666717	0.682637	1
85.183449	0.795786	city	9	1	0.849606	0.849606	0	1	0	0	CorrectCommission	0.165050	0.684972	1
85.979401	0.796128	city	3	1	0.698310	0.698310	0	1	0	0	CorrectCommission	0.756948	0.688763	1
86.775230	0.795531	mountain	7	0	0.000000	0.747889	1	0	0	0	CorrectOmission	0.454815	0.694753	1
87.570877	0.795759	city	7	1	0.848308	0.848308	0	1	0	0	CorrectCommission	0.157137	0.703675	1
88.366669	0.795826	city	5	1	0.849532	0.849532	0	1	0	0	CorrectCommission	0.164595	0.716061	1
89.162483	0.795800	city	8	1	0.751148	0.751148	0	1	0	0	CorrectCommission	0.434951	0.732069	1
89.958282	0.795803	city	9	0	0.000000	0.662071	0	0	0	1	OmissionError	0.977785	0.751416	1
90.754051	0.795733	city	5	1	0.666400	0.666400	0	1	0	0	CorrectCommission	0.951402	0.773321	0
91.549873	0.795902	city	8	1	0.848237	0.848237	0	1	0	0	CorrectCommission	0.156703	0.796574	0
92.345695	0.795755	city	4	1	0.947391	0.947391	0	1	0	0	CorrectCommission	0.760943	0.819673	0
93.141457	0.795761	city	9	1	1.199887	1.199887	0	1	0	0	CorrectCommission	2.299645	0.840870	0
93.937279	0.795889	city	1	0	0.000000	0.867221	0	0	0	1	OmissionError	0.272394	0.858390	0
94.733086	0.795717	city	3	1	0.549861	0.549861	0	1	0	0	CorrectCommission	1.661588	0.870783	0
95.528877	0.795872	city	1	1	0.848273	0.848273	0	1	0	0	CorrectCommission	0.156922	0.876831	0
96.324722	0.795819	city	4	1	0.598933	0.598933	0	1	0	0	CorrectCommission	1.362543	0.875880	0
97.120491	0.795710	city	9	1	0.799658	0.799658	0	1	0	0	CorrectCommission	0.139333	0.867765	0
97.916275	0.795860	mountain	6	1	0.553542	0.553542	0	0	1	0	CommissionError	1.639156	0.853012	0
98.712097	0.795783	city	1	1	0.612405	0.612405	0	1	0	0	CorrectCommission	1.280451	0.832643	0
99.507904	0.795833	city	7	1	0.551411	0.551411	0	1	0	0	CorrectCommission	1.652143	0.808219	0
100.303864	0.796080	city	3	1	0.748219	0.748219	0	1	0	0	CorrectCommission	0.452800	0.781644	0
101.099670	0.795541	city	7	1	0.798217	0.798217	0	1	0	0	CorrectCommission	0.148116	0.755019	1
101.895294	0.795703	city	10	1	0.748716	0.748716	0	1	0	0	CorrectCommission	0.449772	0.730368	1
102.691208	0.796122	city	6	1	0.950510	0.950510	0	1	0	0	CorrectCommission	0.779951	0.709499	1
103.487000	0.795471	city	1	0	0.000000	0.927376	0	0	0	1	OmissionError	0.638972	0.693793	1
104.282814	0.796157	mountain	6	0	0.000000	0.803293	1	0	0	0	CorrectOmission	0.117183	0.684033	1
105.078651	0.795511	city	5	1	0.702242	0.702242	0	1	0	0	CorrectCommission	0.732987	0.680423	1
105.874458	0.796103	city	8	1	0.748201	0.748201	0	1	0	0	CorrectCommission	0.452915	0.682468	1
106.670265	0.795519	city	7	1	0.809797	0.809797	0	1	0	0	CorrectCommission	0.077546	0.689173	1
107.466072	0.796092	city	9	1	0.946955	0.946955	0	1	0	0	CorrectCommission	0.758288	0.699155	1
108.261864	0.795491	city	5	0	0.000000	0.702788	0	0	0	1	OmissionError	0.729656	0.710789	1
109.057495	0.795771	city	10	1	0.549481	0.549481	0	1	0	0	CorrectCommission	1.663904	0.722506	1
109.853317	0.795864	city	2	1	0.959218	0.959218	0	1	0	0	CorrectCommission	0.833019	0.732926	1
110.649139	0.795783	city	8	0	0.000000	1.003850	0	0	0	1	OmissionError	1.105005	0.741058	1
111.444931	0.795797	mountain	4	0	0.000000	0.858582	1	0	0	0	CorrectOmission	0.219745	0.746362	1
112.240746	0.795834	city	1	1	0.698618	0.698618	0	1	0	0	CorrectCommission	0.755071	0.748734	1
113.036537	0.795753	city	3	1	0.699163	0.699163	0	1	0	0	CorrectCommission	0.751750	0.748508	1
113.832329	0.795832	city	6	1	1.046403	1.046403	0	1	0	0	CorrectCommission	1.364321	0.746354	1
114.628105	0.795718	city	5	0	0.000000	0.919997	0	0	0	1	OmissionError	0.594006	0.743102	1
115.423897	0.795869	city	7	1	0.698372	0.698372	0	1	0	0	CorrectCommission	0.756568	0.739740	1
116.219734	0.795809	city	8	1	0.759957	0.759957	0	1	0	0	CorrectCommission	0.381270	0.737182	1
117.015556	0.795833	city	5	1	0.812095	0.812095	0	1	0	0	CorrectCommission	0.063545	0.736204	1
117.811356	0.795768	city	2	1	0.897345	0.897345	0	1	0	0	CorrectCommission	0.455969	0.737466	1
118.607140	0.795788	city	10	1	1.111455	1.111455	0	1	0	0	CorrectCommission	1.760744	0.741406	1
119.403091	0.796116	city	2	0	0.000000	0.866037	0	0	0	1	OmissionError	0.265179	0.748263	1
120.198914	0.795533	city	5	1	0.598926	0.598926	0	1	0	0	CorrectCommission	1.362587	0.758191	1
120.994560	0.795759	city	2	1	0.747954	0.747954	0	1	0	0	CorrectCommission	0.454418	0.771053	0
121.790306	0.795740	mountain	6	0	0.000000	0.718022	1	0	0	0	CorrectOmission	0.636824	0.786646	0
122.586098	0.795830	city	2	1	0.666032	0.666032	0	1	0	0	CorrectCommission	0.953649	0.804539	0
123.381897	0.795776	city	7	1	0.748886	0.748886	0	1	0	0	CorrectCommission	0.448739	0.824061	0
124.177681	0.795799	city	3	1	0.852493	0.852493	0	1	0	0	CorrectCommission	0.182637	0.844364	0
124.973511	0.795860	city	9	0	0.000000	0.681030	0	0	0	1	OmissionError	0.862250	0.864412	0
125.769485	0.796091	city	6	1	0.518558	0.518558	0	1	0	0	CorrectCommission	1.852347	0.883024	0
126.565315	0.795557	city	10	1	0.649138	0.649138	0	1	0	0	CorrectCommission	1.056598	0.898968	0
127.361122	0.796058	city	8	1	0.847860	0.847860	0	1	0	0	CorrectCommission	0.154404	0.911214	0
128.156921	0.795532	city	3	1	0.947569	0.947569	0	1	0	0	CorrectCommission	0.762030	0.918979	0
128.952560	0.795743	city	7	1	1.196005	1.196005	0	1	0	0	CorrectCommission	2.275989	0.921780	0
129.748337	0.795828	city	6	0	0.000000	0.840835	0	0	0	1	OmissionError	0.111595	0.919482	0
130.544296	0.796087	city	2	1	0.451859	0.451859	0	1	0	0	CorrectCommission	2.258809	0.912548	0
131.340256	0.795821	city	5	1	0.598879	0.598879	0	1	0	0	CorrectCommission	1.362878	0.901665	0
132.135910	0.795507	mountain	5	0	0.000000	0.801207	1	0	0	0	CorrectOmission	0.129896	0.887978	0
132.931564	0.795781	mountain	10	1	0.916348	0.916348	0	0	1	0	CommissionError	0.571769	0.872784	0
133.727356	0.795799	city	5	0	0.000000	0.801805	0	0	0	1	OmissionError	0.126249	0.857362	0
134.523163	0.795815	city	9	1	0.649646	0.649646	0	1	0	0	CorrectCommission	1.053500	0.842911	0
135.318939	0.795746	city	2	1	0.651938	0.651938	0	1	0	0	CorrectCommission	1.039537	0.830307	0
136.114746	0.795864	city	4	1	0.847595	0.847595	0	1	0	0	CorrectCommission	0.152793	0.820141	0
136.910568	0.795800	city	3	0	0.000000	0.679757	0	0	0	1	OmissionError	0.870008	0.812724	0
137.706345	0.795749	city	10	1	0.499670	0.499670	0	1	0	0	CorrectCommission	1.967453	0.807944	0
138.502121	0.795807	city	2	1	0.658581	0.658581	0	1	0	0	CorrectCommission	0.999056	0.805415	0
139.297928	0.795792	city	8	1	0.798784	0.798784	0	1	0	0	CorrectCommission	0.144658	0.804558	0
140.093903	0.796157	mountain	10	1	0.897274	0.897274	0	0	1	0	CommissionError	0.455534	0.804624	0
140.889740	0.795509	city	6	1	0.847235	0.847235	0	1	0	0	CorrectCommission	0.150600	0.804651	0
141.685394	0.795799	city	2	1	0.750503	0.750503	0	1	0	0	CorrectCommission	0.438881	0.803726	0
142.481171	0.795757	city	8	1	0.997444	0.997444	0	1	0	0	CorrectCommission	1.065967	0.800926	0
143.276932	0.795785	city	9	1	1.198012	1.198012	0	1	0	0	CorrectCommission	2.288219	0.795474	0
144.072906	0.796149	city	3	0	0.000000	1.055797	0	0	0	1	OmissionError	1.421568	0.786895	0
144.868744	0.795537	city	2	1	0.859341	0.859341	0	1	0	0	CorrectCommission	0.224373	0.775113	0
145.664383	0.795733	city	1	1	0.897184	0.897184	0	1	0	0	CorrectCommission	0.454988	0.760461	0
146.460144	0.795807	city	10	1	0.897596	0.897596	0	1	0	0	CorrectCommission	0.457497	0.743582	1
147.255966	0.795823	city	2	1	0.997331	0.997331	0	1	0	0	CorrectCommission	1.065280	0.725530	1
148.051941	0.796115	city	3	1	0.898613	0.898613	0	1	0	0	CorrectCommission	0.463697	0.707515	1
148.847748	0.795503	city	7	1	0.955612	0.955612	0	1	0	0	CorrectCommission	0.811046	0.690989	1
149.643372	0.795741	city	5	1	1.000353	1.000353	0	1	0	0	CorrectCommission	1.083693	0.677392	1
150.439178	0.795874	mountain	7	0	0.000000	0.815350	1	0	0	0	CorrectOmission	0.043708	0.668051	1
151.235001	0.795786	city	9	1	0.648637	0.648637	0	1	0	0	CorrectCommission	1.059652	0.664089	1
152.030823	0.795838	city	4	1	0.748247	0.748247	0	1	0	0	CorrectCommission	0.452631	0.666145	1
152.826752	0.796048	mountain	4	0	0.000000	0.822542	1	0	0	0	CorrectOmission	0.000121	0.674428	1
153.622528	0.795492	city	4	1	0.861400	0.861400	0	1	0	0	CorrectCommission	0.236920	0.688594	1
154.418198	0.795835	city	9	1	0.854700	0.854700	0	1	0	0	CorrectCommission	0.196086	0.707684	1
155.213989	0.795765	city	3	1	1.098234	1.098234	0	1	0	0	CorrectCommission	1.680177	0.730179	1
156.009933	0.796132	city	1	0	0.000000	0.831313	0	0	0	1	OmissionError	0.053569	0.754117	1
156.805756	0.795493	city	3	1	0.549438	0.549438	0	1	0	0	CorrectCommission	1.664168	0.777439	0
157.601547	0.796081	city	5	1	0.748110	0.748110	0	1	0	0	CorrectCommission	0.453463	0.797916	0
158.397507	0.795838	city	4	1	0.911936	0.911936	0	1	0	0	CorrectCommission	0.544882	0.813598	0
159.193192	0.795544	city	7	1	1.150281	1.150281	0	1	0	0	CorrectCommission	1.997352	0.822857	0
159.988861	0.795801	city	8	0	0.000000	0.911491	0	0	0	1	OmissionError	0.542169	0.824631	0
160.784653	0.795780	city	2	1	0.719177	0.719177	0	1	0	0	CorrectCommission	0.629782	0.818644	0
161.580444	0.795811	city	8	1	1.096955	1.096955	0	1	0	0	CorrectCommission	1.672382	0.805339	0
162.376389	0.796069	city	3	1	0.997008	0.997008	0	1	0	0	CorrectCommission	1.063311	0.785958	0
163.172165	0.795497	city	1	0	0.000000	0.757822	0	0	0	1	OmissionError	0.394282	0.762468	0
163.967819	0.795801	city	9	1	0.601771	0.601771	0	1	0	0	CorrectCommission	1.345251	0.737282	1
164.763779	0.796104	city	6	1	0.751231	0.751231	0	1	0	0	CorrectCommission	0.434449	0.713023	1
165.559570	0.795504	city	10	1	0.701777	0.701777	0	1	0	0	CorrectCommission	0.735816	0.692297	1
166.355209	0.795758	city	4	1	0.847575	0.847575	0	1	0	0	CorrectCommission	0.152668	0.677306	1
167.151138	0.796114	mountain	2	0	0.000000	0.822421	1	0	0	0	CorrectOmission	0.000617	0.669651	1
167.946945	0.795498	mountain	9	1	0.748519	0.748519	0	0	1	0	CommissionError	0.450971	0.670149	1
168.742615	0.795831	city	7	1	0.748072	0.748072	0	1	0	0	CorrectCommission	0.453698	0.678619	1
169.538422	0.795795	city	5	0	0.000000	0.763500	0	0	0	1	OmissionError	0.359678	0.694082	1
170.334259	0.795854	city	4	1	0.808838	0.808838	0	1	0	0	CorrectCommission	0.083394	0.714792	1
171.130066	0.795776	city	2	1	0.898117	0.898117	0	1	0	0	CorrectCommission	0.460669	0.738525	1
171.925827	0.795730	city	10	1	1.099656	1.099656	0	1	0	0	CorrectCommission	1.688840	0.762862	0
172.721619	0.795864	city	6	0	0.000000	1.142888	0	0	0	1	OmissionError	1.952296	0.785421	0
173.517426	0.795760	city	9	1	1.046797	1.046797	0	1	0	0	CorrectCommission	1.366723	0.804260	0
174.313202	0.795801	city	8	0	0.000000	0.830368	0	0	0	1	OmissionError	0.047809	0.817997	0
175.109039	0.795850	city	5	1	0.648972	0.648972	0	1	0	0	CorrectCommission	1.057613	0.825948	0
175.904831	0.795728	mountain	5	0	0.000000	0.657981	1	0	0	0	CorrectOmission	1.002708	0.827983	0
176.700623	0.795865	city	1	1	0.798340	0.798340	0	1	0	0	CorrectCommission	0.147365	0.824512	0
177.496460	0.795828	city	10	1	1.010992	1.010992	0	1	0	0	CorrectCommission	1.148528	0.816432	0
178.292419	0.796072	city	5	1	1.096255	1.096255	0	1	0	0	CorrectCommission	1.668119	0.804844	0
179.088181	0.795446	city	2	0	0.000000	0.828883	0	0	0	1	OmissionError	0.038762	0.790970	0
179.883820	0.795843	city	7	1	0.599368	0.599368	0	1	0	0	CorrectCommission	1.359898	0.776069	0
180.679642	0.795813	city	4	1	0.798200	0.798200	0	1	0	0	CorrectCommission	0.148217	0.761229	0
181.475601	0.796092	city	5	1	0.863836	0.863836	0	1	0	0	CorrectCommission	0.251762	0.747359	1
182.271423	0.795540	city	2	1	0.946688	0.946688	0	1	0	0	CorrectCommission	0.756662	0.735131	1
183.067047	0.795717	city	6	1	1.047404	1.047404	0	1	0	0	CorrectCommission	1.370418	0.724963	1
183.862854	0.795895	city	8	0	0.000000	0.766088	0	0	0	1	OmissionError	0.343910	0.717006	1
184.658661	0.795720	city	10	1	0.550878	0.550878	0	1	0	0	CorrectCommission	1.655394	0.711292	1
185.454437	0.795847	city	2	1	0.849910	0.849910	0	1	0	0	CorrectCommission	0.166899	0.707545	1
186.250259	0.795780	city	1	1	0.853032	0.853032	0	1	0	0	CorrectCommission	0.185924	0.705457	1
187.046051	0.795800	mountain	1	0	0.000000	0.760448	1	0	0	0	CorrectOmission	0.378281	0.704531	1
187.841873	0.795849	city	8	1	0.713702	0.713702	0	1	0	0	CorrectCommission	0.663145	0.704272	1
188.637695	0.795792	city	7	1	0.854341	0.854341	0	1	0	0	CorrectCommission	0.193903	0.704142	1
189.433487	0.795790	city	3	1	1.047287	1.047287	0	1	0	0	CorrectCommission	1.369710	0.703743	1
190.229248	0.795750	city	9	1	0.549831	0.549831	0	1	0	0	CorrectCommission	1.661770	0.702862	1
191.025040	0.795829	city	4	1	0.648510	0.648510	0	1	0	0	CorrectCommission	1.060428	0.701520	1
191.820877	0.795837	city	1	1	0.748091	0.748091	0	1	0	0	CorrectCommission	0.453581	0.700135	1
192.616669	0.795766	city	10	1	0.863002	0.863002	0	1	0	0	CorrectCommission	0.246679	0.699333	1
193.412460	0.795815	city	1	1	0.847550	0.847550	0	1	0	0	CorrectCommission	0.152516	0.699881	1
194.208252	0.795750	city	6	1	0.996708	0.996708	0	1	0	0	CorrectCommission	1.061482	0.702714	1
195.004044	0.795838	city	8	0	0.000000	0.790817	0	0	0	1	OmissionError	0.193213	0.708692	1
195.799866	0.795819	city	1	1	0.613299	0.613299	0	1	0	0	CorrectCommission	1.274998	0.718540	1
196.595703	0.795853	city	2	1	0.847579	0.847579	0	1	0	0	CorrectCommission	0.152694	0.732807	1
197.391510	0.795742	city	6	1	0.915867	0.915867	0	1	0	0	CorrectCommission	0.568841	0.751840	1
198.187286	0.795821	city	9	1	1.049217	1.049217	0	1	0	0	CorrectCommission	1.381470	0.775676	0
198.983063	0.795738	city	4	0	0.000000	0.852653	0	0	0	1	OmissionError	0.183618	0.804060	0
199.778839	0.795803	city	7	1	0.648794	0.648794	0	1	0	0	CorrectCommission	1.058697	0.836546	0
200.574677	0.795881	city	8	1	0.760255	0.760255	0	1	0	0	CorrectCommission	0.379457	0.872369	0
201.370529	0.795826	city	2	1	0.996969	0.996969	0	1	0	0	CorrectCommission	1.063069	0.910679	0
202.166321	0.795745	city	7	0	0.000000	0.715839	0	0	0	1	OmissionError	0.650126	0.950440	0
202.962067	0.795760	city	10	1	0.466495	0.466495	0	1	0	0	CorrectCommission	2.169619	0.990567	0
203.758026	0.796138	city	1	1	0.798566	0.798566	0	1	0	0	CorrectCommission	0.145987	1.029912	0
204.553848	0.795510	city	8	1	0.896996	0.896996	0	1	0	0	CorrectCommission	0.453843	1.067466	0
205.349655	0.796121	city	6	1	1.211885	1.211885	0	1	0	0	CorrectCommission	2.372761	1.102223	0
206.145432	0.795430	city	1	0	0.000000	0.926872	0	0	0	1	OmissionError	0.635902	1.133293	0
206.941055	0.795807	city	8	1	0.549112	0.549112	0	1	0	0	CorrectCommission	1.666154	1.160043	0
207.736893	0.795884	mountain	2	0	0.000000	0.585760	1	0	0	0	CorrectOmission	1.442823	1.181979	0
208.532745	0.795808	city	7	1	0.847788	0.847788	0	1	0	0	CorrectCommission	0.153969	1.198858	0
209.328506	0.795728	city	4	1	1.146170	1.146170	0	1	0	0	CorrectCommission	1.972298	1.210680	0
210.124313	0.795885	city	5	1	1.201248	1.201248	0	1	0	0	CorrectCommission	2.307941	1.217529	0
210.920151	0.795785	mountain	3	0	0.000000	0.851033	1	0	0	0	CorrectOmission	0.173744	1.219701	0
211.715958	0.795818	city	1	1	0.648670	0.648670	0	1	0	0	CorrectCommission	1.059453	1.217605	0
212.511719	0.795704	city	3	1	1.147301	1.147301	0	1	0	0	CorrectCommission	1.979191	1.211630	0
213.307648	0.796167	city	4	1	1.047458	1.047458	0	1	0	0	CorrectCommission	1.370752	1.202080	0
214.103485	0.795494	city	8	0	0.000000	0.977550	0	0	0	1	OmissionError	0.944735	1.189256	0
214.899124	0.795788	mountain	2	0	0.000000	0.942558	1	0	0	0	CorrectOmission	0.731496	1.173334	0
215.694946	0.795850	city	7	1	0.947464	0.947464	0	1	0	0	CorrectCommission	0.761390	1.154368	0
216.490753	0.795763	city	9	1	0.997248	0.997248	0	1	0	0	CorrectCommission	1.064772	1.132437	0
217.286514	0.795766	city	6	1	1.245456	1.245456	0	1	0	0	CorrectCommission	2.577341	1.107566	0
218.082291	0.795780	mountain	3	0	0.000000	0.946858	1	0	0	0	CorrectOmission	0.757700	1.079835	0
218.878098	0.795833	city	5	1	0.598915	0.598915	0	1	0	0	CorrectCommission	1.362655	1.049599	0
219.673935	0.795865	city	1	1	0.699085	0.699085	0	1	0	0	CorrectCommission	0.752224	1.017367	0
220.469757	0.795776	city	9	1	0.947431	0.947431	0	1	0	0	CorrectCommission	0.761190	0.983843	0
221.265564	0.795825	city	7	1	1.006002	1.006002	0	1	0	0	CorrectCommission	1.118121	0.949951	0
222.061493	0.796034	mountain	3	0	0.000000	0.770014	1	0	0	0	CorrectOmission	0.319986	0.916767	0
222.857269	0.795512	city	8	1	0.548944	0.548944	0	1	0	0	CorrectCommission	1.667176	0.885363	0
223.652908	0.795763	mountain	8	0	0.000000	0.652273	1	0	0	0	CorrectOmission	1.037492	0.856737	0
224.448853	0.796139	city	5	1	0.847987	0.847987	0	1	0	0	CorrectCommission	0.155178	0.831733	0
225.244690	0.795545	city	8	1	0.904069	0.904069	0	1	0	0	CorrectCommission	0.496945	0.810918	0
226.040329	0.795720	city	4	1	0.998043	0.998043	0	1	0	0	CorrectCommission	1.069616	0.794506	0
226.836121	0.795857	city	6	0	0.000000	0.791802	0	0	0	1	OmissionError	0.187210	0.782229	0
227.631943	0.795800	city	8	1	0.652606	0.652606	0	1	0	0	CorrectCommission	1.035465	0.773482	0
228.427719	0.795748	city	5	1	0.947714	0.947714	0	1	0	0	CorrectCommission	0.762917	0.767297	0
229.223526	0.795854	city	10	0	0.000000	0.897675	0	0	0	1	OmissionError	0.457975	0.762482	0
230.019333	0.795758	city	1	1	0.798691	0.798691	0	1	0	0	CorrectCommission	0.145227	0.757770	1
230.815109	0.795813	city	9	1	0.946969	0.946969	0	1	0	0	CorrectCommission	0.758373	0.751992	1
231.610916	0.795787	city	1	1	1.205742	1.205742	0	1	0	0	CorrectCommission	2.335326	0.744233	1
232.406754	0.795890	city	8	0	0.000000	1.029934	0	0	0	1	OmissionError	1.263960	0.733961	1
233.202576	0.795766	city	2	1	0.801585	0.801585	0	1	0	0	CorrectCommission	0.127591	0.721151	1
233.998367	0.795794	mountain	9	0	0.000000	0.902735	1	0	0	0	CorrectOmission	0.488810	0.706312	1
234.794159	0.795813	city	8	1	0.997022	0.997022	0	1	0	0	CorrectCommission	1.063396	0.690206	1
235.589966	0.795785	city	3	1	0.748088	0.748088	0	1	0	0	CorrectCommission	0.453602	0.673941	1
236.385757	0.795808	mountain	7	1	0.801224	0.801224	0	0	1	0	CommissionError	0.129791	0.658773	1
237.181580	0.795827	city	10	1	0.997421	0.997421	0	1	0	0	CorrectCommission	1.065826	0.645926	1
237.977386	0.795793	city	2	0	0.000000	0.886085	0	0	0	1	OmissionError	0.387351	0.636445	1
238.773178	0.795782	city	3	1	0.748053	0.748053	0	1	0	0	CorrectCommission	0.453817	0.631108	1
239.569122	0.796103	city	5	1	0.864158	0.864158	0	1	0	0	CorrectCommission	0.253723	0.630381	1
240.364914	0.795502	city	7	1	0.904055	0.904055	0	1	0	0	CorrectCommission	0.496859	0.634326	1
241.160568	0.795787	city	8	1	0.966171	0.966171	0	1	0	0	CorrectCommission	0.875388	0.642670	1
241.956375	0.795834	city	10	0	0.000000	0.778782	0	0	0	1	OmissionError	0.266554	0.654878	1
242.752182	0.795784	city	8	1	0.599145	0.599145	0	1	0	0	CorrectCommission	1.361255	0.670212	1
243.548126	0.796111	mountain	3	0	0.000000	0.684517	1	0	0	0	CorrectOmission	0.840999	0.687686	1
244.344070	0.795770	city	4	1	0.797701	0.797701	0	1	0	0	CorrectCommission	0.151260	0.706313	1
245.139740	0.795555	city	10	1	0.701499	0.701499	0	1	0	0	CorrectCommission	0.737512	0.725013	1
245.935394	0.795771	city	5	1	0.863715	0.863715	0	1	0	0	CorrectCommission	0.251025	0.742674	1
246.731216	0.795855	city	6	1	0.949087	0.949087	0	1	0	0	CorrectCommission	0.771282	0.758282	1
247.527008	0.795736	city	4	1	1.096510	1.096510	0	1	0	0	CorrectCommission	1.669670	0.770917	0
248.322922	0.796103	mountain	9	0	0.000000	0.781322	1	0	0	0	CorrectOmission	0.251073	0.779882	0
249.118713	0.795484	city	2	1	0.499767	0.499767	0	1	0	0	CorrectCommission	1.966863	0.784709	0
249.914352	0.795798	city	3	1	0.748085	0.748085	0	1	0	0	CorrectCommission	0.453617	0.785179	0
250.710175	0.795843	city	5	1	0.898243	0.898243	0	1	0	0	CorrectCommission	0.461439	0.781587	0
251.505981	0.795752	city	7	1	0.948026	0.948026	0	1	0	0	CorrectCommission	0.764814	0.774527	0
252.301788	0.795862	city	2	0	0.000000	0.731476	0	0	0	1	OmissionError	0.554836	0.764969	0
253.097626	0.795807	city	4	1	0.549086	0.549086	0	1	0	0	CorrectCommission	1.666313	0.754219	1
253.893433	0.795811	city	5	1	0.701350	0.701350	0	1	0	0	CorrectCommission	0.738418	0.743803	1
254.689209	0.795743	city	4	1	0.959213	0.959213	0	1	0	0	CorrectCommission	0.832991	0.735390	1
255.485153	0.796145	city	7	1	0.798049	0.798049	0	1	0	0	CorrectCommission	0.149141	0.730591	1
256.281128	0.795802	city	4	1	0.851273	0.851273	0	1	0	0	CorrectCommission	0.175205	0.730762	1
257.076935	0.795795	city	10	1	0.698060	0.698060	0	1	0	0	CorrectCommission	0.758471	0.736839	1
257.872559	0.795497	city	7	1	0.698017	0.698017	0	1	0	0	CorrectCommission	0.758734	0.749187	1
258.668243	0.795847	city	8	1	0.712994	0.712994	0	1	0	0	CorrectCommission	0.667464	0.767543	0
259.464020	0.795694	city	10	1	0.652320	0.652320	0	1	0	0	CorrectCommission	1.037210	0.791048	0
260.259796	0.795873	city	9	1	0.812393	0.812393	0	1	0	0	CorrectCommission	0.061730	0.818179	0
261.055603	0.795743	city	4	1	0.856906	0.856906	0	1	0	0	CorrectCommission	0.209533	0.847077	0
261.851532	0.796137	city	5	1	0.897459	0.897459	0	1	0	0	CorrectCommission	0.456661	0.875636	0
262.647369	0.795513	city	6	1	0.997435	0.997435	0	1	0	0	CorrectCommission	1.065909	0.901807	0
263.443024	0.795822	city	7	1	1.345743	1.345743	0	1	0	0	CorrectCommission	3.188490	0.923850	0
264.238861	0.795817	mountain	8	0	0.000000	0.990254	1	0	0	0	CorrectOmission	1.022150	0.940458	0
265.034790	0.796047	city	10	1	0.650548	0.650548	0	1	0	0	CorrectCommission	1.048007	0.951062	0
265.830688	0.795783	city	3	1	1.046207	1.046207	0	1	0	0	CorrectCommission	1.363125	0.955694	0
266.626343	0.795529	city	9	0	0.000000	0.887922	0	0	0	1	OmissionError	0.398543	0.954836	0
267.422180	0.796117	city	1	1	0.648589	0.648589	0	1	0	0	CorrectCommission	1.059945	0.949387	0
268.217987	0.795497	city	9	1	0.801103	0.801103	0	1	0	0	CorrectCommission	0.130529	0.940344	0
269.013794	0.796092	city	2	1	0.947123	0.947123	0	1	0	0	CorrectCommission	0.759310	0.928710	0
269.809601	0.795543	city	6	1	0.996733	0.996733	0	1	0	0	CorrectCommission	1.061635	0.915181	0
270.605225	0.795708	city	7	1	1.096248	1.096248	0	1	0	0	CorrectCommission	1.668076	0.900243	0
271.401154	0.796161	city	4	0	0.000000	0.906715	0	0	0	1	OmissionError	0.513068	0.884146	0
272.196960	0.795464	city	7	1	0.749980	0.749980	0	1	0	0	CorrectCommission	0.442073	0.867124	0
272.992767	0.796150	city	2	1	0.947887	0.947887	0	1	0	0	CorrectCommission	0.763969	0.849393	0
273.788727	0.795771	city	8	1	1.010035	1.010035	0	1	0	0	CorrectCommission	1.142699	0.831345	0
274.584351	0.795463	city	7	1	1.146376	1.146376	0	1	0	0	CorrectCommission	1.973553	0.813618	0
275.380005	0.795861	city	10	0	0.000000	0.902160	0	0	0	1	OmissionError	0.485306	0.797108	0
276.175995	0.796115	city	7	1	0.660725	0.660725	0	1	0	0	CorrectCommission	0.985988	0.783054	0
276.971802	0.795448	city	2	0	0.000000	0.805411	0	0	0	1	OmissionError	0.104278	0.772662	0
277.767578	0.796139	city	1	1	0.947490	0.947490	0	1	0	0	CorrectCommission	0.761547	0.767093	0
278.563385	0.795472	city	5	1	0.698235	0.698235	0	1	0	0	CorrectCommission	0.757403	0.767085	0
279.359192	0.796125	city	4	1	0.798044	0.798044	0	1	0	0	CorrectCommission	0.149173	0.772889	0
280.154968	0.795450	city	8	1	0.797563	0.797563	0	1	0	0	CorrectCommission	0.152100	0.784155	0
280.950653	0.795898	city	3	1	0.748358	0.748358	0	1	0	0	CorrectCommission	0.451957	0.799764	0
281.746490	0.795764	city	9	1	0.907388	0.907388	0	1	0	0	CorrectCommission	0.517166	0.818144	0
282.542267	0.795791	city	1	1	0.897266	0.897266	0	1	0	0	CorrectCommission	0.455486	0.837410	0
283.338226	0.796127	city	3	1	1.146078	1.146078	0	1	0	0	CorrectCommission	1.971740	0.855638	0
284.134003	0.795477	city	8	1	1.295204	1.295204	0	1	0	0	CorrectCommission	2.880506	0.871167	0
284.929657	0.795806	city	6	1	0.798835	0.798835	0	1	0	0	CorrectCommission	0.144351	0.882834	0
285.725464	0.795811	city	9	1	0.599808	0.599808	0	1	0	0	CorrectCommission	1.357217	0.890253	0
286.521271	0.795823	mountain	7	0	0.000000	0.840330	1	0	0	0	CorrectOmission	0.108519	0.893628	0
287.317047	0.795728	city	2	1	1.047498	1.047498	0	1	0	0	CorrectCommission	1.370995	0.893884	0
288.112854	0.795853	city	7	1	0.748408	0.748408	0	1	0	0	CorrectCommission	0.451650	0.892331	0
288.908661	0.795773	city	5	1	0.700959	0.700959	0	1	0	0	CorrectCommission	0.740806	0.890662	0
289.704437	0.795770	city	4	1	0.947086	0.947086	0	1	0	0	CorrectCommission	0.759088	0.890543	0
290.500244	0.795851	city	9	0	0.000000	0.773013	0	0	0	1	OmissionError	0.301711	0.893471	0
291.296051	0.795789	city	5	1	0.549827	0.549827	0	1	0	0	CorrectCommission	1.661794	0.900564	0
292.091827	0.795768	city	2	1	0.648621	0.648621	0	1	0	0	CorrectCommission	1.059751	0.912359	0
292.887665	0.795882	city	7	1	0.698362	0.698362	0	1	0	0	CorrectCommission	0.756631	0.928848	0
293.683502	0.795813	city	5	1	0.852255	0.852255	0	1	0	0	CorrectCommission	0.181191	0.949402	0
294.479462	0.796065	city	4	0	0.000000	0.683156	0	0	0	1	OmissionError	0.849293	0.972845	0
295.275238	0.795504	city	3	1	0.560756	0.560756	0	1	0	0	CorrectCommission	1.595195	0.997508	0
296.070892	0.795831	city	2	1	0.854746	0.854746	0	1	0	0	CorrectCommission	0.196371	1.021457	0
296.866699	0.795760	mountain	10	1	0.961300	0.961300	0	0	1	0	CommissionError	0.845708	1.042808	0
297.662445	0.795753	mountain	8	0	0.000000	0.990837	1	0	0	0	CorrectOmission	1.025704	1.059865	0
298.458405	0.796131	city	3	1	1.048848	1.048848	0	1	0	0	CorrectCommission	1.379218	1.071430	0
299.254242	0.795541	mountain	8	0	0.000000	1.240823	1	0	0	0	CorrectOmission	2.549109	1.076927	0
300.049927	0.795818	mountain	7	1	1.247121	1.247121	0	0	1	0	CommissionError	2.587492	1.076575	0
300.845734	0.795808	mountain	10	1	0.748102	0.748102	0	0	1	0	CommissionError	0.453518	1.071348	0
301.641510	0.795770	city	4	1	0.996719	0.996719	0	1	0	0	CorrectCommission	1.061551	1.062891	0
302.437317	0.795803	mountain	10	0	0.000000	0.885196	1	0	0	0	CorrectOmission	0.381932	1.053277	0
303.233246	0.796101	city	8	1	0.754761	0.754761	0	1	0	0	CorrectCommission	0.412935	1.044728	0
304.029083	0.795549	city	3	1	0.946644	0.946644	0	1	0	0	CorrectCommission	0.756395	1.039383	0
304.824738	0.795743	mountain	9	0	0.000000	0.771732	1	0	0	0	CorrectOmission	0.309517	1.038905	0
305.620514	0.795846	city	10	1	0.648806	0.648806	0	1	0	0	CorrectCommission	1.058619	1.044466	0
306.416290	0.795717	city	2	1	0.996652	0.996652	0	1	0	0	CorrectCommission	1.061138	1.056554	0
307.212219	0.796139	city	7	1	1.204348	1.204348	0	1	0	0	CorrectCommission	2.326833	1.074951	0
308.008057	0.795501	city	9	0	0.000000	0.919691	0	0	0	1	OmissionError	0.592144	1.098797	0
308.803741	0.795857	city	2	1	0.599249	0.599249	0	1	0	0	CorrectCommission	1.360623	1.126760	0
309.599548	0.795782	city	8	1	0.699588	0.699588	0	1	0	0	CorrectCommission	0.749161	1.156959	0
310.395477	0.796084	city	2	1	0.950331	0.950331	0	1	0	0	CorrectCommission	0.778860	1.187291	0
311.191437	0.795802	mountain	5	0	0.000000	0.933299	1	0	0	0	CorrectOmission	0.675069	1.215505	0
311.987061	0.795451	city	8	1	0.747781	0.747781	0	1	0	0	CorrectCommission	0.455470	1.239436	0
312.782715	0.795870	mountain	7	0	0.000000	0.493066	1	0	0	0	CorrectOmission	2.007694	1.257223	0
313.578552	0.795811	city	4	1	0.362410	0.362410	0	1	0	0	CorrectCommission	2.803911	1.267527	0
314.374359	0.795781	city	1	1	0.549067	0.549067	0	1	0	0	CorrectCommission	1.666429	1.269780	0
315.170288	0.796083	city	4	1	1.195967	1.195967	0	1	0	0	CorrectCommission	2.275759	1.264197	0
315.966064	0.795495	city	10	0	0.000000	1.051173	0	0	0	1	OmissionError	1.393390	1.251769	0
316.761719	0.795801	city	3	1	0.754932	0.754932	0	1	0	0	CorrectCommission	0.411893	1.234179	0
317.557556	0.795847	city	2	1	0.947491	0.947491	0	1	0	0	CorrectCommission	0.761555	1.213543	0
318.353333	0.795736	city	1	0	0.000000	0.689181	0	0	0	1	OmissionError	0.812579	1.192188	0
319.149139	0.795875	city	7	1	0.499308	0.499308	0	1	0	0	CorrectCommission	1.969655	1.172343	0
319.944946	0.795711	city	10	1	0.897181	0.897181	0	1	0	0	CorrectCommission	0.454967	1.155810	0
320.740845	0.796121	city	3	0	0.000000	0.738044	0	0	0	1	OmissionError	0.514806	1.143973	0
321.536682	0.795544	city	6	1	0.548882	0.548882	0	1	0	0	CorrectCommission	1.667557	1.137529	0
322.332489	0.796090	city	5	1	0.856676	0.856676	0	1	0	0	CorrectCommission	0.208134	1.136472	0
323.128448	0.795805	city	1	0	0.000000	0.646320	0	0	0	1	OmissionError	1.073772	1.140339	0
323.924103	0.795529	city	2	1	0.499275	0.499275	0	1	0	0	CorrectCommission	1.969856	1.148115	0
324.719757	0.795779	city	6	1	0.997007	0.997007	0	1	0	0	CorrectCommission	1.063304	1.158426	0
325.515717	0.796093	city	10	0	0.000000	1.095222	0	0	0	1	OmissionError	1.661824	1.169863	0
326.311523	0.795544	city	8	1	0.947549	0.947549	0	1	0	0	CorrectCommission	0.761908	1.180914	0
327.107178	0.795748	city	3	0	0.000000	0.707615	0	0	0	1	OmissionError	0.700244	1.190223	0
327.902954	0.795848	city	8	1	0.649299	0.649299	0	1	0	0	CorrectCommission	1.055619	1.196555	0
328.698761	0.795737	city	9	1	1.046481	1.046481	0	1	0	0	CorrectCommission	1.364795	1.198856	0
329.494537	0.795821	city	4	1	1.354043	1.354043	0	1	0	0	CorrectCommission	3.239070	1.196354	0
330.290344	0.795821	city	1	1	0.798524	0.798524	0	1	0	0	CorrectCommission	0.146242	1.188450	0
331.086151	0.795745	city	6	1	0.961837	0.961837	0	1	0	0	CorrectCommission	0.848979	1.174976	0
331.881927	0.795848	city	4	1	0.999773	0.999773	0	1	0	0	CorrectCommission	1.080161	1.155946	0
332.677734	0.795768	city	3	1	0.956290	0.956290	0	1	0	0	CorrectCommission	0.815173	1.131737	0
333.473572	0.795856	city	4	1	1.096496	1.096496	0	1	0	0	CorrectCommission	1.669585	1.103035	0
334.269379	0.795756	city	6	1	1.207737	1.207737	0	1	0	0	CorrectCommission	2.347483	1.070857	0
335.065155	0.795842	city	7	0	0.000000	0.915429	0	0	0	1	OmissionError	0.566171	1.036451	0
335.860992	0.795807	city	3	1	0.701776	0.701776	0	1	0	0	CorrectCommission	0.735824	1.001358	0
336.656921	0.796055	city	9	1	1.048980	1.048980	0	1	0	0	CorrectCommission	1.380024	0.967083	0
337.452698	0.795510	city	3	0	0.000000	0.831977	0	0	0	1	OmissionError	0.057619	0.935036	0
338.248383	0.795834	city	2	1	0.598974	0.598974	0	1	0	0	CorrectCommission	1.362299	0.906436	0
339.044189	0.795812	city	1	1	0.898173	0.898173	0	1	0	0	CorrectCommission	0.461012	0.881955	0
339.839966	0.795726	city	8	1	0.851290	0.851290	0	1	0	0	CorrectCommission	0.175306	0.861889	0
340.635742	0.795853	mountain	9	0	0.000000	0.749603	1	0	0	0	CorrectOmission	0.444369	0.845988	0
341.431580	0.795793	city	3	1	0.651364	0.651364	0	1	0	0	CorrectCommission	1.043035	0.833510	0
342.227356	0.795776	mountain	9	0	0.000000	0.614823	1	0	0	0	CorrectOmission	1.265710	0.823415	0
343.023315	0.796142	city	5	1	0.649092	0.649092	0	1	0	0	CorrectCommission	1.056882	0.814507	0
343.819305	0.795795	city	7	1	0.763278	0.763278	0	1	0	0	CorrectCommission	0.361034	0.805725	0
344.614960	0.795538	city	2	1	0.662371	0.662371	0	1	0	0	CorrectCommission	0.975955	0.796286	0
345.410767	0.796061	city	1	1	0.600311	0.600311	0	1	0	0	CorrectCommission	1.354147	0.785751	0
346.206696	0.795807	city	2	1	0.996700	0.996700	0	1	0	0	CorrectCommission	1.061433	0.774194	0
347.002350	0.795499	city	1	0	0.000000	0.795627	0	0	0	1	OmissionError	0.163900	0.762102	0
347.797974	0.795773	city	6	1	0.549300	0.549300	0	1	0	0	CorrectCommission	1.665007	0.750398	1
348.593750	0.795776	city	3	1	0.809929	0.809929	0	1	0	0	CorrectCommission	0.076746	0.740079	1
349.389557	0.795825	city	5	1	0.947437	0.947437	0	1	0	0	CorrectCommission	0.761225	0.732195	1
350.185364	0.795789	mountain	10	0	0.000000	0.829838	1	0	0	0	CorrectOmission	0.044582	0.727477	1
350.981140	0.795791	city	2	1	0.749000	0.749000	0	1	0	0	CorrectCommission	0.448046	0.726286	1
351.777100	0.796128	city	6	1	0.996789	0.996789	0	1	0	0	CorrectCommission	1.061977	0.728355	1
352.572906	0.795483	city	2	0	0.000000	0.917775	0	0	0	1	OmissionError	0.580469	0.732930	1
353.368744	0.796149	city	1	1	0.754683	0.754683	0	1	0	0	CorrectCommission	0.413408	0.738776	1
354.164520	0.795446	city	6	1	0.750239	0.750239	0	1	0	0	CorrectCommission	0.440493	0.744287	1
354.960144	0.795801	city	4	1	0.957137	0.957137	0	1	0	0	CorrectCommission	0.820338	0.747789	1
355.755951	0.795809	city	6	1	1.047252	1.047252	0	1	0	0	CorrectCommission	1.369497	0.747695	1
356.551819	0.795892	city	8	0	0.000000	1.082110	0	0	0	1	OmissionError	1.581920	0.742786	1
357.347626	0.795762	city	6	1	1.008972	1.008972	0	1	0	0	CorrectCommission	1.136219	0.732386	1
358.143402	0.795800	city	9	0	0.000000	0.775099	0	0	0	1	OmissionError	0.288997	0.716461	1
358.939362	0.796087	city	2	1	0.661121	0.661121	0	1	0	0	CorrectCommission	0.983577	0.695636	1
359.735168	0.795548	city	4	1	0.947666	0.947666	0	1	0	0	CorrectCommission	0.762624	0.671052	1
360.530853	0.795792	city	7	1	0.848149	0.848149	0	1	0	0	CorrectCommission	0.156166	0.644284	1
361.326660	0.795821	mountain	2	0	0.000000	0.718696	1	0	0	0	CorrectOmission	0.632716	0.617228	1
362.122467	0.795779	city	3	1	0.666258	0.666258	0	1	0	0	CorrectCommission	0.952269	0.591752	1
362.918243	0.795793	city	10	1	0.797787	0.797787	0	1	0	0	CorrectCommission	0.150737	0.569580	1
363.714172	0.796092	city	1	1	0.748252	0.748252	0	1	0	0	CorrectCommission	0.452601	0.552214	1
364.510010	0.795545	city	8	1	0.797552	0.797552	0	1	0	0	CorrectCommission	0.152172	0.540782	1
365.305664	0.795754	city	2	1	0.848375	0.848375	0	1	0	0	CorrectCommission	0.157546	0.535959	1
366.101593	0.796109	city	8	1	0.947223	0.947223	0	1	0	0	CorrectCommission	0.759919	0.538019	1
366.897400	0.795539	city	3	0	0.000000	0.797501	0	0	0	1	OmissionError	0.152480	0.546808	1
367.693054	0.795746	city	4	1	0.648583	0.648583	0	1	0	0	CorrectCommission	1.059983	0.561814	1
368.488831	0.795818	city	10	1	0.749840	0.749840	0	1	0	0	CorrectCommission	0.442922	0.582169	1
369.284668	0.795841	city	9	1	0.862909	0.862909	0	1	0	0	CorrectCommission	0.246114	0.606764	1
370.080597	0.796047	city	4	1	0.897125	0.897125	0	1	0	0	CorrectCommission	0.454626	0.634244	1
370.876373	0.795494	city	8	1	0.996803	0.996803	0	1	0	0	CorrectCommission	1.062059	0.663101	1
371.672058	0.795845	city	4	1	0.965088	0.965088	0	1	0	0	CorrectCommission	0.868790	0.691700	1
372.467865	0.795810	city	7	1	0.904132	0.904132	0	1	0	0	CorrectCommission	0.497329	0.718430	1
373.263672	0.795798	city	8	1	0.798063	0.798063	0	1	0	0	CorrectCommission	0.149053	0.741776	1
374.059479	0.795800	city	2	1	0.700714	0.700714	0	1	0	0	CorrectCommission	0.742297	0.760433	0
374.855286	0.795798	city	3	1	0.612495	0.612495	0	1	0	0	CorrectCommission	1.279898	0.773416	0
375.651093	0.795819	city	2	1	0.698983	0.698983	0	1	0	0	CorrectCommission	0.752846	0.780180	0
376.446869	0.795730	city	9	1	1.195645	1.195645	0	1	0	0	CorrectCommission	2.273795	0.780709	0
377.242767	0.796092	city	1	0	0.000000	1.054293	0	0	0	1	OmissionError	1.412403	0.775395	0
378.038574	0.795541	city	3	1	0.747723	0.747723	0	1	0	0	CorrectCommission	0.455827	0.765162	0
378.834259	0.795803	city	5	1	0.748728	0.748728	0	1	0	0	CorrectCommission	0.449701	0.751170	1
379.630066	0.795837	city	2	1	0.862831	0.862831	0	1	0	0	CorrectCommission	0.245638	0.734660	1
380.425873	0.795768	city	10	1	0.798037	0.798037	0	1	0	0	CorrectCommission	0.149211	0.716849	1
381.221649	0.795752	city	7	1	0.807625	0.807625	0	1	0	0	CorrectCommission	0.090785	0.698713	1
382.017426	0.795832	city	8	1	1.046590	1.046590	0	1	0	0	CorrectCommission	1.365464	0.680991	1
382.813263	0.795834	city	2	0	0.000000	0.798326	0	0	0	1	OmissionError	0.147452	0.664080	1
383.609070	0.795779	city	4	1	0.614648	0.614648	0	1	0	0	CorrectCommission	1.266777	0.648237	1
384.404877	0.795819	city	8	1	1.047375	1.047375	0	1	0	0	CorrectCommission	1.370243	0.633542	1
385.200836	0.796094	city	7	1	0.907064	0.907064	0	1	0	0	CorrectCommission	0.515196	0.620008	1
385.996613	0.795500	city	1	1	0.947051	0.947051	0	1	0	0	CorrectCommission	0.758873	0.607756	1
386.792267	0.795775	city	2	1	0.848380	0.848380	0	1	0	0	CorrectCommission	0.157576	0.596888	1
387.588074	0.795819	city	1	1	0.797780	0.797780	0	1	0	0	CorrectCommission	0.150778	0.587599	1
388.383850	0.795786	city	7	1	0.748891	0.748891	0	1	0	0	CorrectCommission	0.448707	0.580044	1
389.179688	0.795858	city	1	1	0.897537	0.897537	0	1	0	0	CorrectCommission	0.457136	0.574397	1
389.975494	0.795761	city	6	1	0.966067	0.966067	0	1	0	0	CorrectCommission	0.874758	0.570822	1
390.771271	0.795800	city	2	0	0.000000	0.842506	0	0	0	1	OmissionError	0.121783	0.569455	1
391.567108	0.795843	city	10	1	0.698297	0.698297	0	1	0	0	CorrectCommission	0.757026	0.570432	1
392.362915	0.795807	city	1	1	0.704881	0.704881	0	1	0	0	CorrectCommission	0.716905	0.573802	1
393.158691	0.795733	city	7	1	1.013328	1.013328	0	1	0	0	CorrectCommission	1.162761	0.579655	1
393.954468	0.795846	city	3	1	0.801089	0.801089	0	1	0	0	CorrectCommission	0.130616	0.587921	1
394.750305	0.795779	city	9	1	0.748752	0.748752	0	1	0	0	CorrectCommission	0.449553	0.598499	1
395.546051	0.795754	city	5	1	0.666052	0.666052	0	1	0	0	CorrectCommission	0.953527	0.611073	1
396.341888	0.795883	city	9	1	0.814611	0.814611	0	1	0	0	CorrectCommission	0.048210	0.625071	1
397.137665	0.795720	city	10	1	0.701875	0.701875	0	1	0	0	CorrectCommission	0.735222	0.639727	1
397.933502	0.795900	city	6	1	0.847656	0.847656	0	1	0	0	CorrectCommission	0.153164	0.653968	1
398.729340	0.795783	city	7	1	0.766460	0.766460	0	1	0	0	CorrectCommission	0.341640	0.666582	1
399.525116	0.795811	city	9	1	1.001511	1.001511	0	1	0	0	CorrectCommission	1.090751	0.676247	1
400.321075	0.796064	city	2	0	0.000000	0.764445	0	0	0	1	OmissionError	0.353919	0.681789	1
401.116821	0.795461	city	3	1	0.499956	0.499956	0	1	0	0	CorrectCommission	1.965708	0.682373	1
401.912476	0.795853	city	4	1	0.652735	0.652735	0	1	0	0	CorrectCommission	1.034680	0.677488	1
402.708313	0.795793	city	3	1	0.608796	0.608796	0	1	0	0	CorrectCommission	1.302444	0.667275	1
403.504242	0.796080	city	1	1	0.797752	0.797752	0	1	0	0	CorrectCommission	0.150949	0.652341	1
404.300018	0.795475	city	9	1	0.701294	0.701294	0	1	0	0	CorrectCommission	0.738763	0.633816	1
405.095703	0.795862	city	4	1	0.748233	0.748233	0	1	0	0	CorrectCommission	0.452717	0.613051	1
405.891510	0.795795	city	7	1	0.897209	0.897209	0	1	0	0	CorrectCommission	0.455140	0.591497	1
406.687317	0.795788	city	6	1	0.848005	0.848005	0	1	0	0	CorrectCommission	0.155293	0.570491	1
407.483124	0.795839	city	3	1	0.798516	0.798516	0	1	0	0	CorrectCommission	0.146296	0.551136	1
408.278931	0.795772	city	2	1	0.660450	0.660450	0	1	0	0	CorrectCommission	0.987666	0.534222	1
409.074738	0.795842	city	6	1	0.797863	0.797863	0	1	0	0	CorrectCommission	0.150275	0.520112	1
409.870667	0.796033	city	3	1	0.748294	0.748294	0	1	0	0	CorrectCommission	0.452342	0.508982	1
410.666443	0.795493	mountain	5	1	0.748672	0.748672	0	0	1	0	CommissionError	0.450039	0.500869	1
411.462097	0.795829	city	7	1	0.754860	0.754860	0	1	0	0	CorrectCommission	0.412331	0.495861	1
412.257904	0.795774	city	1	1	0.649263	0.649263	0	1	0	0	CorrectCommission	1.055837	0.494252	1
413.053833	0.796111	city	10	1	0.648908	0.648908	0	1	0	0	CorrectCommission	1.058000	0.496566	1
413.849670	0.795533	city	8	1	0.801173	0.801173	0	1	0	0	CorrectCommission	0.130101	0.503667	1
414.645325	0.795805	mountain	2	0	0.000000	0.823679	1	0	0	0	CorrectOmission	0.007047	0.516644	1
415.441132	0.795819	city	3	1	0.762287	0.762287	0	1	0	0	CorrectCommission	0.367073	0.536576	1
416.236938	0.795769	city	10	1	0.662860	0.662860	0	1	0	0	CorrectCommission	0.972975	0.564289	1
417.032745	0.795856	city	8	1	0.812943	0.812943	0	1	0	0	CorrectCommission	0.058379	0.600078	1
417.828583	0.795779	city	1	1	0.807322	0.807322	0	1	0	0	CorrectCommission	0.092629	0.643594	1
418.624359	0.795779	city	2	1	0.847451	0.847451	0	1	0	0	CorrectCommission	0.151914	0.693527	1
419.420135	0.795795	city	10	1	0.947841	0.947841	0	1	0	0	CorrectCommission	0.763685	0.747670	1
420.216095	0.796111	city	9	1	0.956508	0.956508	0	1	0	0	CorrectCommission	0.816501	0.802972	0
421.011871	0.795460	city	7	1	0.863699	0.863699	0	1	0	0	CorrectCommission	0.250932	0.855842	0
421.807495	0.795792	city	9	1	0.897379	0.897379	0	1	0	0	CorrectCommission	0.456173	0.902475	0
422.603333	0.795867	city	3	1	1.145963	1.145963	0	1	0	0	CorrectCommission	1.971036	0.939273	0
423.399139	0.795777	city	5	1	1.295859	1.295859	0	1	0	0	CorrectCommission	2.884500	0.963241	0
424.194916	0.795758	mountain	2	0	0.000000	1.042539	1	0	0	0	CorrectOmission	1.340772	0.972443	0
424.990723	0.795845	city	6	0	0.000000	0.669910	0	0	0	1	OmissionError	0.930013	0.966278	0
425.786713	0.796113	city	4	1	0.461884	0.461884	0	1	0	0	CorrectCommission	2.197719	0.945455	0
426.582520	0.795517	city	1	1	0.702369	0.702369	0	1	0	0	CorrectCommission	0.732212	0.911942	0
427.378143	0.795720	city	2	1	0.947415	0.947415	0	1	0	0	CorrectCommission	0.761093	0.868830	0
428.174072	0.796173	city	5	1	0.861808	0.861808	0	1	0	0	CorrectCommission	0.239407	0.819840	0
428.970062	0.795783	city	10	1	0.797519	0.797519	0	1	0	0	CorrectCommission	0.152372	0.769071	0
429.765686	0.795478	city	6	1	0.648555	0.648555	0	1	0	0	CorrectCommission	1.060152	0.720442	1
430.561340	0.795811	city	4	1	0.698349	0.698349	0	1	0	0	CorrectCommission	0.756709	0.677350	1
431.357147	0.795796	city	8	1	0.762719	0.762719	0	1	0	0	CorrectCommission	0.364440	0.642495	1
432.152954	0.795850	city	7	1	0.805125	0.805125	0	1	0	0	CorrectCommission	0.106019	0.617643	1
432.948730	0.795724	city	10	1	0.848761	0.848761	0	1	0	0	CorrectCommission	0.159895	0.603554	1
433.744690	0.796143	city	2	1	0.748756	0.748756	0	1	0	0	CorrectCommission	0.449532	0.599984	1
434.540497	0.795516	city	1	1	0.857334	0.857334	0	1	0	0	CorrectCommission	0.212138	0.605838	1
435.336151	0.795744	city	5	1	0.947081	0.947081	0	1	0	0	CorrectCommission	0.759057	0.619371	1
436.131927	0.795862	mountain	3	0	0.000000	0.877295	1	0	0	0	CorrectOmission	0.333785	0.638382	1
436.927765	0.795796	city	7	1	0.748356	0.748356	0	1	0	0	CorrectCommission	0.451968	0.660565	1
437.723541	0.795776	city	8	0	0.000000	0.660642	0	0	0	1	OmissionError	0.986494	0.683666	1
438.519379	0.795843	city	7	1	0.599194	0.599194	0	1	0	0	CorrectCommission	1.360955	0.705758	1
439.315186	0.795804	city	1	1	0.549053	0.549053	0	1	0	0	CorrectCommission	1.666514	0.725439	1
440.110962	0.795740	city	7	1	0.897932	0.897932	0	1	0	0	CorrectCommission	0.459543	0.741827	1
440.906769	0.795896	city	5	1	0.748448	0.748448	0	1	0	0	CorrectCommission	0.451409	0.754658	1
441.702606	0.795769	mountain	8	0	0.000000	0.714431	1	0	0	0	CorrectOmission	0.658706	0.764185	0
442.498535	0.796083	city	2	1	0.761232	0.761232	0	1	0	0	CorrectCommission	0.373500	0.771055	0
443.294342	0.795536	city	9	1	0.854203	0.854203	0	1	0	0	CorrectCommission	0.193058	0.776141	0
444.089996	0.795748	city	4	1	1.195943	1.195943	0	1	0	0	CorrectCommission	2.275615	0.780418	0
444.885773	0.795795	city	10	0	0.000000	1.015840	0	0	0	1	OmissionError	1.178071	0.784737	0
445.681580	0.795832	city	6	1	0.753333	0.753333	0	1	0	0	CorrectCommission	0.421641	0.789833	0
446.477386	0.795816	city	3	1	0.847861	0.847861	0	1	0	0	CorrectCommission	0.154415	0.796077	0
447.273193	0.795774	city	8	1	0.854577	0.854577	0	1	0	0	CorrectCommission	0.195341	0.803427	0
448.068970	0.795756	city	7	1	0.947840	0.947840	0	1	0	0	CorrectCommission	0.763683	0.811472	0
448.864777	0.795894	city	9	1	1.003998	1.003998	0	1	0	0	CorrectCommission	1.105909	0.819521	0
449.660614	0.795788	city	5	1	0.950663	0.950663	0	1	0	0	CorrectCommission	0.780887	0.826761	0
450.456421	0.795800	city	6	1	0.946993	0.946993	0	1	0	0	CorrectCommission	0.758523	0.832448	0
451.252350	0.796088	city	8	0	0.000000	0.698120	0	0	0	1	OmissionError	0.758102	0.836006	0
452.048187	0.795531	city	10	1	0.500067	0.500067	0	1	0	0	CorrectCommission	1.965030	0.837287	0
452.843811	0.795759	mountain	3	1	0.648858	0.648858	0	0	1	0	CommissionError	1.058304	0.836524	0
453.639618	0.795824	city	9	1	0.699375	0.699375	0	1	0	0	CorrectCommission	0.750455	0.834480	0
454.435577	0.796090	city	5	1	0.599109	0.599109	0	1	0	0	CorrectCommission	1.361471	0.832248	0
455.231323	0.795438	city	4	1	0.748592	0.748592	0	1	0	0	CorrectCommission	0.450531	0.830994	0
456.027130	0.796165	city	8	1	0.750799	0.750799	0	1	0	0	CorrectCommission	0.437081	0.831844	0
456.822937	0.795451	city	6	1	0.748064	0.748064	0	1	0	0	CorrectCommission	0.453745	0.835538	0
457.618713	0.796103	city	4	1	0.813009	0.813009	0	1	0	0	CorrectCommission	0.057975	0.842306	0
458.414551	0.795543	mountain	7	0	0.000000	0.782034	1	0	0	0	CorrectOmission	0.246736	0.851773	0
459.210205	0.795811	city	3	1	0.848366	0.848366	0	1	0	0	CorrectCommission	0.157490	0.862946	0
460.006042	0.795844	city	6	1	1.205232	1.205232	0	1	0	0	CorrectCommission	2.332222	0.874378	0
460.802002	0.796062	city	5	1	1.195931	1.195931	0	1	0	0	CorrectCommission	2.275541	0.884345	0
461.597778	0.795510	city	6	0	0.000000	0.955042	0	0	0	1	OmissionError	0.807568	0.891156	0
462.393433	0.795777	city	3	1	0.754572	0.754572	0	1	0	0	CorrectCommission	0.414085	0.893463	0
463.189178	0.795750	city	1	1	0.866532	0.866532	0	1	0	0	CorrectCommission	0.268196	0.890328	0
463.984985	0.795859	city	2	1	0.996772	0.996772	0	1	0	0	CorrectCommission	1.061872	0.881361	0
464.780884	0.795900	city	9	1	1.097101	1.097101	0	1	0	0	CorrectCommission	1.673272	0.866703	0
465.576660	0.795691	city	3	1	1.107364	1.107364	0	1	0	0	CorrectCommission	1.735817	0.847012	0
466.372437	0.795822	city	4	0	0.000000	0.871696	0	0	0	1	OmissionError	0.299664	0.823288	0
467.168243	0.795812	city	5	1	0.661466	0.661466	0	1	0	0	CorrectCommission	0.981469	0.796808	0
467.964050	0.795780	city	3	1	0.748044	0.748044	0	1	0	0	CorrectCommission	0.453867	0.768803	0
468.759857	0.795830	city	1	1	0.798101	0.798101	0	1	0	0	CorrectCommission	0.148821	0.740471	1
469.555664	0.795819	city	4	1	0.701793	0.701793	0	1	0	0	CorrectCommission	0.735723	0.712699	1
470.351471	0.795799	city	6	1	0.798153	0.798153	0	1	0	0	CorrectCommission	0.148507	0.686195	1
471.147278	0.795771	mountain	10	0	0.000000	0.739652	1	0	0	0	CorrectOmission	0.505007	0.661571	1
471.943054	0.795834	city	7	1	0.648971	0.648971	0	1	0	0	CorrectCommission	1.057618	0.639385	1
472.738831	0.795717	city	10	1	0.648787	0.648787	0	1	0	0	CorrectCommission	1.058737	0.620342	1
473.534637	0.795852	mountain	4	1	0.648761	0.648761	0	0	1	0	CommissionError	1.058893	0.605384	1
474.330414	0.795742	city	2	1	0.658323	0.658323	0	1	0	0	CorrectCommission	1.000624	0.595712	1
475.126221	0.795871	mountain	7	1	0.808998	0.808998	0	0	1	0	CommissionError	0.082415	0.592659	1
475.922028	0.795727	city	7	1	0.857764	0.857764	0	1	0	0	CorrectCommission	0.214764	0.597659	1
476.717834	0.795858	city	3	0	0.000000	0.802951	0	0	0	1	OmissionError	0.119270	0.611967	1
477.513611	0.795750	city	9	1	0.748429	0.748429	0	1	0	0	CorrectCommission	0.451523	0.636431	1
478.309570	0.796143	city	2	1	0.798071	0.798071	0	1	0	0	CorrectCommission	0.149006	0.671280	1
479.105560	0.795827	city	5	1	0.799547	0.799547	0	1	0	0	CorrectCommission	0.140012	0.716134	1
479.901245	0.795535	city	7	1	0.847121	0.847121	0	1	0	0	CorrectCommission	0.149905	0.769894	0
480.696869	0.795745	city	9	1	0.996780	0.996780	0	1	0	0	CorrectCommission	1.061919	0.830881	0
481.492676	0.795849	mountain	2	0	0.000000	0.731751	1	0	0	0	CorrectOmission	0.553159	0.896985	0
482.288483	0.795766	mountain	4	1	0.599179	0.599179	0	0	1	0	CommissionError	1.361049	0.966051	0
483.084290	0.795836	city	2	1	1.146208	1.146208	0	1	0	0	CorrectCommission	1.972530	1.036048	0
483.880066	0.795751	city	4	1	1.295563	1.295563	0	1	0	0	CorrectCommission	2.882691	1.105435	0
484.675873	0.795860	mountain	4	1	0.798654	0.798654	0	0	1	0	CommissionError	0.145456	1.173189	0
485.471832	0.796068	city	10	1	0.748023	0.748023	0	1	0	0	CorrectCommission	0.453994	1.239073	0
486.267639	0.795528	city	3	1	0.897180	0.897180	0	1	0	0	CorrectCommission	0.454963	1.303338	0
487.063293	0.795779	city	4	1	1.046789	1.046789	0	1	0	0	CorrectCommission	1.366675	1.366675	0
