onset	duration	trial_type	image_type	Press	ReactionTime	ReactionTime_Interpolated	CorrectOmission	CorrectCommission	CommissionError	OmissionError	response_type	nonsmoothVarianceTimeCourse	VarianceTimeCourse	In_the_Zone
8.421718	0.795783	mountain	7	1	0.607303	0.607303	0	0	1	0	CommissionError	1.411862	1.411862	0
9.217539	0.795859	city	9	1	0.847630	0.847630	0	1	0	0	CorrectCommission	1.306645	1.341703	0
10.013347	0.795756	city	1	1	0.601226	0.601226	0	1	0	0	CorrectCommission	1.480606	1.273374	0
10.809152	0.795854	city	5	1	0.698855	0.698855	0	1	0	0	CorrectCommission	0.376252	1.208476	0
11.604946	0.795735	city	1	1	0.649603	0.649603	0	1	0	0	CorrectCommission	0.933376	1.148241	0
12.400734	0.795841	city	8	1	0.649339	0.649339	0	1	0	0	CorrectCommission	0.936369	1.093320	0
13.196588	0.795867	mountain	9	0	0.000000	0.640532	1	0	0	0	CorrectOmission	1.035986	1.043788	0
13.992394	0.795746	city	8	1	0.648558	0.648558	0	1	0	0	CorrectCommission	0.945195	0.999121	0
14.788180	0.795826	city	4	1	0.698792	0.698792	0	1	0	0	CorrectCommission	0.376965	0.958341	0
15.583995	0.795804	city	9	1	0.613344	0.613344	0	1	0	0	CorrectCommission	1.343525	0.920180	0
16.379936	0.796079	city	6	1	0.648575	0.648575	0	1	0	0	CorrectCommission	0.945013	0.883208	0
17.175867	0.795781	city	2	1	0.653129	0.653129	0	1	0	0	CorrectCommission	0.893499	0.846116	0
17.971666	0.795819	mountain	2	0	0.000000	0.626384	1	0	0	0	CorrectOmission	1.196022	0.807867	0
18.767307	0.795462	city	9	1	0.648213	0.648213	0	1	0	0	CorrectCommission	0.949101	0.767856	0
19.563065	0.796052	city	3	1	0.798487	0.798487	0	1	0	0	CorrectCommission	0.750748	0.725978	0
20.358858	0.795537	city	4	1	0.698483	0.698483	0	1	0	0	CorrectCommission	0.380460	0.682669	0
21.154568	0.795881	city	6	1	0.651917	0.651917	0	1	0	0	CorrectCommission	0.907206	0.638860	1
21.950369	0.795723	city	1	1	0.648899	0.648899	0	1	0	0	CorrectCommission	0.941341	0.595778	1
22.746176	0.795889	city	5	1	0.699303	0.699303	0	1	0	0	CorrectCommission	0.371193	0.554861	1
23.542009	0.795779	city	8	1	0.748325	0.748325	0	1	0	0	CorrectCommission	0.183333	0.517548	1
24.337784	0.795769	city	4	1	0.748056	0.748056	0	1	0	0	CorrectCommission	0.180293	0.485114	1
25.133554	0.795773	city	2	1	0.760161	0.760161	0	1	0	0	CorrectCommission	0.317216	0.458494	1
25.929373	0.795863	city	8	1	0.706916	0.706916	0	1	0	0	CorrectCommission	0.285070	0.438202	1
26.725225	0.795843	city	1	1	0.748134	0.748134	0	1	0	0	CorrectCommission	0.181174	0.424280	1
27.521181	0.796066	city	3	1	0.749491	0.749491	0	1	0	0	CorrectCommission	0.196525	0.416379	1
28.317114	0.795803	city	6	1	0.759817	0.759817	0	1	0	0	CorrectCommission	0.313326	0.413796	1
29.112761	0.795490	city	3	1	0.714203	0.714203	0	1	0	0	CorrectCommission	0.202640	0.415679	1
29.908388	0.795763	mountain	3	0	0.000000	0.681758	1	0	0	0	CorrectOmission	0.569650	0.421156	1
30.704166	0.795793	city	7	1	0.660784	0.660784	0	1	0	0	CorrectCommission	0.806898	0.429505	1
31.499996	0.795867	city	2	1	0.649585	0.649585	0	1	0	0	CorrectCommission	0.933579	0.440269	1
32.295837	0.795817	city	1	1	0.702480	0.702480	0	1	0	0	CorrectCommission	0.335251	0.453329	1
33.091637	0.795782	city	8	1	0.698648	0.698648	0	1	0	0	CorrectCommission	0.378592	0.468871	1
33.887428	0.795799	city	9	1	0.710780	0.710780	0	1	0	0	CorrectCommission	0.241365	0.487223	1
34.683239	0.795824	city	2	1	0.715346	0.715346	0	1	0	0	CorrectCommission	0.189718	0.508765	1
35.479057	0.795813	city	1	1	0.698524	0.698524	0	1	0	0	CorrectCommission	0.380000	0.533701	1
36.274994	0.796057	city	8	1	0.648524	0.648524	0	1	0	0	CorrectCommission	0.945580	0.561927	1
37.070786	0.795528	mountain	2	0	0.000000	0.696300	1	0	0	0	CorrectOmission	0.405156	0.592896	1
37.866409	0.795718	city	4	1	0.748047	0.748047	0	1	0	0	CorrectCommission	0.180184	0.625628	1
38.662193	0.795854	city	7	1	0.709959	0.709959	0	1	0	0	CorrectCommission	0.250647	0.658678	0
39.458179	0.796114	mountain	9	0	0.000000	0.690826	1	0	0	0	CorrectOmission	0.467073	0.690256	0
40.253975	0.795480	city	7	1	0.663960	0.663960	0	1	0	0	CorrectCommission	0.770976	0.718440	0
41.049622	0.795808	mountain	1	0	0.000000	0.602673	1	0	0	0	CorrectOmission	1.464235	0.741394	0
41.845451	0.795855	city	1	1	0.649548	0.649548	0	1	0	0	CorrectCommission	0.934004	0.757568	0
42.641228	0.795699	city	10	1	0.947166	0.947166	0	1	0	0	CorrectCommission	2.432560	0.765924	0
43.437149	0.796146	city	8	1	0.698704	0.698704	0	1	0	0	CorrectCommission	0.377965	0.765968	0
44.233120	0.795790	city	5	1	0.613713	0.613713	0	1	0	0	CorrectCommission	1.339354	0.757968	0
45.028748	0.795469	city	9	1	0.712504	0.712504	0	1	0	0	CorrectCommission	0.221861	0.742658	0
45.824406	0.795844	city	7	1	0.703092	0.703092	0	1	0	0	CorrectCommission	0.328329	0.721316	0
46.620235	0.795815	mountain	10	0	0.000000	0.715554	1	0	0	0	CorrectOmission	0.187364	0.695482	0
47.416023	0.795760	city	1	1	0.698199	0.698199	0	1	0	0	CorrectCommission	0.383681	0.666951	0
48.211800	0.795794	city	8	1	0.599335	0.599335	0	1	0	0	CorrectCommission	1.501992	0.637522	1
49.007629	0.795869	city	3	1	0.667316	0.667316	0	1	0	0	CorrectCommission	0.733011	0.608984	1
49.803467	0.795806	city	7	1	0.651259	0.651259	0	1	0	0	CorrectCommission	0.914645	0.583122	1
50.599236	0.795731	city	9	1	0.699134	0.699134	0	1	0	0	CorrectCommission	0.373105	0.561583	1
51.395012	0.795821	city	6	1	0.699233	0.699233	0	1	0	0	CorrectCommission	0.371975	0.545878	1
52.190861	0.795877	city	4	1	0.710892	0.710892	0	1	0	0	CorrectCommission	0.240100	0.537235	1
52.986664	0.795731	city	5	1	0.716158	0.716158	0	1	0	0	CorrectCommission	0.180527	0.536580	1
53.782467	0.795870	mountain	3	0	0.000000	0.740481	1	0	0	0	CorrectOmission	0.094606	0.544444	1
54.578278	0.795756	city	10	1	0.747977	0.747977	0	1	0	0	CorrectCommission	0.179396	0.560928	1
55.374054	0.795796	city	7	1	0.702762	0.702762	0	1	0	0	CorrectCommission	0.332057	0.585610	1
56.169872	0.795838	city	10	1	0.650025	0.650025	0	1	0	0	CorrectCommission	0.928602	0.617603	1
56.965687	0.795794	mountain	1	0	0.000000	0.650549	1	0	0	0	CorrectOmission	0.922677	0.655538	0
57.761444	0.795721	city	5	1	0.700975	0.700975	0	1	0	0	CorrectCommission	0.352279	0.697705	0
58.557213	0.795817	city	10	1	0.797942	0.797942	0	1	0	0	CorrectCommission	0.744591	0.742084	0
59.353184	0.796127	city	9	1	0.652388	0.652388	0	1	0	0	CorrectCommission	0.901874	0.786534	0
60.149006	0.795513	city	6	1	0.798298	0.798298	0	1	0	0	CorrectCommission	0.748617	0.828820	0
60.944813	0.796101	city	5	1	0.652688	0.652688	0	1	0	0	CorrectCommission	0.898487	0.866932	0
61.740639	0.795550	city	10	1	0.752345	0.752345	0	1	0	0	CorrectCommission	0.228806	0.899081	0
62.536282	0.795735	city	7	1	0.946971	0.946971	0	1	0	0	CorrectCommission	2.430359	0.923968	0
63.332035	0.795776	mountain	1	0	0.000000	0.797913	1	0	0	0	CorrectOmission	0.744252	0.940672	0
64.127831	0.795819	city	1	1	0.600142	0.600142	0	1	0	0	CorrectCommission	1.492872	0.948959	0
64.923653	0.795823	city	7	1	0.648631	0.648631	0	1	0	0	CorrectCommission	0.944374	0.949060	0
65.719452	0.795769	city	10	1	0.605757	0.605757	0	1	0	0	CorrectCommission	1.429348	0.941656	0
66.515274	0.795878	city	1	1	0.602843	0.602843	0	1	0	0	CorrectCommission	1.462316	0.927771	0
67.311111	0.795798	city	6	1	0.710363	0.710363	0	1	0	0	CorrectCommission	0.246086	0.908582	0
68.106911	0.795807	city	1	1	0.748569	0.748569	0	1	0	0	CorrectCommission	0.186090	0.885367	0
68.902672	0.795711	city	2	1	0.655500	0.655500	0	1	0	0	CorrectCommission	0.866673	0.859228	0
69.698608	0.796160	city	10	1	0.611170	0.611170	0	1	0	0	CorrectCommission	1.368117	0.831055	0
70.494446	0.795508	city	7	1	0.747827	0.747827	0	1	0	0	CorrectCommission	0.177705	0.801523	0
71.290092	0.795798	city	8	1	0.648948	0.648948	0	1	0	0	CorrectCommission	0.940793	0.771170	0
72.086044	0.796096	city	6	1	0.798463	0.798463	0	1	0	0	CorrectCommission	0.750476	0.740334	0
72.881821	0.795452	city	5	1	0.602109	0.602109	0	1	0	0	CorrectCommission	1.470621	0.709345	0
73.677460	0.795837	city	6	1	0.698701	0.698701	0	1	0	0	CorrectCommission	0.377995	0.678503	0
74.473442	0.796122	city	3	1	0.613986	0.613986	0	1	0	0	CorrectCommission	1.336266	0.648254	1
75.269257	0.795507	city	10	1	0.747788	0.747788	0	1	0	0	CorrectCommission	0.177265	0.619031	1
76.064888	0.795758	city	2	1	0.748884	0.748884	0	1	0	0	CorrectCommission	0.189662	0.591360	1
76.860672	0.795813	city	8	1	0.748052	0.748052	0	1	0	0	CorrectCommission	0.180248	0.565686	1
77.656647	0.796135	city	1	1	0.798066	0.798066	0	1	0	0	CorrectCommission	0.745988	0.542368	1
78.452461	0.795484	city	9	1	0.699218	0.699218	0	1	0	0	CorrectCommission	0.372147	0.521590	1
79.248116	0.795826	city	6	1	0.702325	0.702325	0	1	0	0	CorrectCommission	0.337000	0.503422	1
80.043915	0.795771	city	9	1	0.798150	0.798150	0	1	0	0	CorrectCommission	0.746941	0.487684	1
80.839684	0.795769	city	2	1	0.748391	0.748391	0	1	0	0	CorrectCommission	0.184086	0.474121	1
81.635475	0.795814	city	3	1	0.798201	0.798201	0	1	0	0	CorrectCommission	0.747514	0.462433	1
82.431297	0.795839	city	5	1	0.751096	0.751096	0	1	0	0	CorrectCommission	0.214680	0.452293	1
83.227135	0.795831	city	8	1	0.808680	0.808680	0	1	0	0	CorrectCommission	0.866054	0.443509	1
84.022942	0.795779	city	3	1	0.702409	0.702409	0	1	0	0	CorrectCommission	0.336052	0.435968	1
84.818871	0.796083	city	5	1	0.700021	0.700021	0	1	0	0	CorrectCommission	0.363068	0.429805	1
85.614677	0.795533	city	10	1	0.698411	0.698411	0	1	0	0	CorrectCommission	0.381274	0.425279	1
86.410309	0.795725	city	2	1	0.768553	0.768553	0	1	0	0	CorrectCommission	0.412144	0.422778	1
87.206093	0.795840	city	7	1	0.752443	0.752443	0	1	0	0	CorrectCommission	0.229912	0.422744	1
88.002045	0.796076	city	8	1	0.700585	0.700585	0	1	0	0	CorrectCommission	0.356684	0.425696	1
88.797874	0.795571	city	2	1	0.748200	0.748200	0	1	0	0	CorrectCommission	0.181922	0.432049	1
89.593559	0.795803	city	1	1	0.652320	0.652320	0	1	0	0	CorrectCommission	0.902651	0.442131	1
90.389496	0.796076	city	4	1	0.703605	0.703605	0	1	0	0	CorrectCommission	0.322522	0.456021	1
91.185280	0.795491	mountain	3	0	0.000000	0.745706	1	0	0	0	CorrectOmission	0.153712	0.473638	1
91.980934	0.795810	city	7	1	0.752708	0.752708	0	1	0	0	CorrectCommission	0.232908	0.494587	1
92.776711	0.795752	city	1	1	0.698694	0.698694	0	1	0	0	CorrectCommission	0.378080	0.518195	1
93.572525	0.795875	city	2	1	0.658867	0.658867	0	1	0	0	CorrectCommission	0.828585	0.543508	1
94.368347	0.795774	mountain	9	0	0.000000	0.677484	1	0	0	0	CorrectOmission	0.617996	0.569329	1
95.164146	0.795821	city	3	1	0.698725	0.698725	0	1	0	0	CorrectCommission	0.377723	0.594318	1
95.959969	0.795825	city	7	1	0.666771	0.666771	0	1	0	0	CorrectCommission	0.739178	0.617055	1
96.755760	0.795747	city	8	1	0.652554	0.652554	0	1	0	0	CorrectCommission	0.899994	0.636189	1
97.551506	0.795753	city	2	1	0.711117	0.711117	0	1	0	0	CorrectCommission	0.237550	0.650506	1
98.347473	0.796173	city	4	1	0.649498	0.649498	0	1	0	0	CorrectCommission	0.934567	0.659167	0
99.143311	0.795509	city	5	1	0.648944	0.648944	0	1	0	0	CorrectCommission	0.940829	0.661684	0
99.938972	0.795816	city	1	1	0.603597	0.603597	0	1	0	0	CorrectCommission	1.453789	0.658107	0
100.734917	0.796069	city	6	1	0.668040	0.668040	0	1	0	0	CorrectCommission	0.724828	0.648945	1
101.530716	0.795528	city	4	1	0.664211	0.664211	0	1	0	0	CorrectCommission	0.768137	0.635246	1
102.326385	0.795808	city	7	1	0.701947	0.701947	0	1	0	0	CorrectCommission	0.341285	0.618415	1
103.122169	0.795765	city	1	1	0.667273	0.667273	0	1	0	0	CorrectCommission	0.733502	0.600095	1
103.917961	0.795824	city	10	1	0.710199	0.710199	0	1	0	0	CorrectCommission	0.247931	0.581941	1
104.713783	0.795815	city	9	1	0.766582	0.766582	0	1	0	0	CorrectCommission	0.389853	0.565501	1
105.509727	0.796072	city	3	1	0.698329	0.698329	0	1	0	0	CorrectCommission	0.382200	0.551992	1
106.305656	0.795795	city	9	1	0.700939	0.700939	0	1	0	0	CorrectCommission	0.352681	0.542222	1
107.101288	0.795467	city	4	1	0.797856	0.797856	0	1	0	0	CorrectCommission	0.743617	0.536443	1
107.896950	0.795856	city	5	1	0.707391	0.707391	0	1	0	0	CorrectCommission	0.279705	0.534413	1
108.692757	0.795748	city	1	1	0.705458	0.705458	0	1	0	0	CorrectCommission	0.301570	0.535481	1
109.488548	0.795842	city	3	1	0.766185	0.766185	0	1	0	0	CorrectCommission	0.385360	0.538653	1
110.284393	0.795840	city	8	1	0.806155	0.806155	0	1	0	0	CorrectCommission	0.837486	0.542790	1
111.080208	0.795799	city	5	1	0.748091	0.748091	0	1	0	0	CorrectCommission	0.180686	0.546722	1
111.876144	0.796063	city	9	1	0.847749	0.847749	0	1	0	0	CorrectCommission	1.307985	0.549501	1
112.671944	0.795544	city	1	1	0.757474	0.757474	0	1	0	0	CorrectCommission	0.286829	0.550425	1
113.467606	0.795781	city	6	1	0.658204	0.658204	0	1	0	0	CorrectCommission	0.836092	0.549234	1
114.263390	0.795786	city	1	1	0.649306	0.649306	0	1	0	0	CorrectCommission	0.936736	0.546002	1
115.059326	0.796084	city	5	1	0.648829	0.648829	0	1	0	0	CorrectCommission	0.942133	0.541175	1
115.855095	0.795460	city	4	1	0.747797	0.747797	0	1	0	0	CorrectCommission	0.177362	0.535382	1
116.650879	0.796098	city	10	1	0.748159	0.748159	0	1	0	0	CorrectCommission	0.181454	0.529388	1
117.446693	0.795544	city	1	1	0.698991	0.698991	0	1	0	0	CorrectCommission	0.374714	0.523837	1
118.242355	0.795765	mountain	4	0	0.000000	0.714808	1	0	0	0	CorrectOmission	0.195804	0.519210	1
119.038177	0.795887	city	10	1	0.748960	0.748960	0	1	0	0	CorrectCommission	0.190512	0.515766	1
119.834007	0.795774	city	6	1	0.754799	0.754799	0	1	0	0	CorrectCommission	0.256562	0.513509	1
120.629768	0.795752	city	8	1	0.648689	0.648689	0	1	0	0	CorrectCommission	0.943713	0.512222	1
121.425575	0.795858	city	10	1	0.603572	0.603572	0	1	0	0	CorrectCommission	1.454064	0.511603	1
122.221405	0.795801	city	6	1	0.760206	0.760206	0	1	0	0	CorrectCommission	0.317723	0.511299	1
123.017212	0.795814	city	1	1	0.698765	0.698765	0	1	0	0	CorrectCommission	0.377279	0.511083	1
123.812981	0.795714	city	10	1	0.705647	0.705647	0	1	0	0	CorrectCommission	0.299428	0.510833	1
124.608780	0.795894	city	4	1	0.698755	0.698755	0	1	0	0	CorrectCommission	0.377383	0.510555	1
125.404587	0.795711	city	1	1	0.649433	0.649433	0	1	0	0	CorrectCommission	0.935303	0.510363	1
126.200371	0.795859	city	6	1	0.699024	0.699024	0	1	0	0	CorrectCommission	0.374342	0.510436	1
126.996216	0.795833	city	9	1	0.705033	0.705033	0	1	0	0	CorrectCommission	0.306371	0.511017	1
127.792015	0.795763	city	5	1	0.706758	0.706758	0	1	0	0	CorrectCommission	0.286861	0.512261	1
128.587952	0.796112	city	2	1	0.699366	0.699366	0	1	0	0	CorrectCommission	0.370481	0.514293	1
129.383759	0.795491	city	10	1	0.798429	0.798429	0	1	0	0	CorrectCommission	0.750091	0.517084	1
130.179382	0.795770	city	6	1	0.810059	0.810059	0	1	0	0	CorrectCommission	0.881650	0.520526	1
130.975204	0.795861	city	5	1	0.748464	0.748464	0	1	0	0	CorrectCommission	0.184901	0.524432	1
131.771179	0.796090	city	4	1	0.798467	0.798467	0	1	0	0	CorrectCommission	0.750524	0.528598	1
132.566971	0.795493	city	5	1	0.701048	0.701048	0	1	0	0	CorrectCommission	0.351446	0.532762	1
133.362732	0.796044	city	2	1	0.699150	0.699150	0	1	0	0	CorrectCommission	0.372922	0.536717	1
134.158508	0.795510	city	4	1	0.648432	0.648432	0	1	0	0	CorrectCommission	0.946620	0.540328	1
134.954193	0.795859	city	2	1	0.698619	0.698619	0	1	0	0	CorrectCommission	0.378920	0.543570	1
135.750031	0.795818	city	9	1	0.748057	0.748057	0	1	0	0	CorrectCommission	0.180298	0.546600	1
136.545837	0.795800	city	6	1	0.616972	0.616972	0	1	0	0	CorrectCommission	1.302490	0.549708	1
137.341660	0.795822	city	4	1	0.752013	0.752013	0	1	0	0	CorrectCommission	0.225057	0.553278	1
138.137421	0.795702	city	6	1	0.748883	0.748883	0	1	0	0	CorrectCommission	0.189647	0.557884	1
138.933182	0.795840	city	2	1	0.649438	0.649438	0	1	0	0	CorrectCommission	0.935248	0.564114	1
139.729034	0.795841	city	10	1	0.648659	0.648659	0	1	0	0	CorrectCommission	0.944058	0.572567	1
140.524841	0.795781	city	4	1	0.747993	0.747993	0	1	0	0	CorrectCommission	0.179580	0.583730	1
141.320786	0.796115	city	2	1	0.700791	0.700791	0	1	0	0	CorrectCommission	0.354352	0.597910	1
142.116730	0.795765	city	10	1	0.797697	0.797697	0	1	0	0	CorrectCommission	0.741816	0.615077	1
142.912369	0.795532	mountain	6	0	0.000000	0.742070	1	0	0	0	CorrectOmission	0.112574	0.634794	1
143.708176	0.796075	city	7	1	0.665199	0.665199	0	1	0	0	CorrectCommission	0.756960	0.656256	0
144.503967	0.795507	city	1	1	0.698377	0.698377	0	1	0	0	CorrectCommission	0.381666	0.678220	0
145.299622	0.795809	city	8	1	0.698445	0.698445	0	1	0	0	CorrectCommission	0.380889	0.699192	0
146.095413	0.795758	mountain	6	0	0.000000	0.645559	1	0	0	0	CorrectOmission	0.979121	0.717534	0
146.891220	0.795872	mountain	5	0	0.000000	0.597616	1	0	0	0	CorrectOmission	1.521444	0.731566	0
147.687027	0.795734	city	10	1	0.612512	0.612512	0	1	0	0	CorrectCommission	1.352941	0.739859	0
148.482819	0.795859	city	6	1	0.748146	0.748146	0	1	0	0	CorrectCommission	0.181306	0.741447	0
149.278793	0.796093	city	2	1	0.698529	0.698529	0	1	0	0	CorrectCommission	0.379948	0.735960	0
150.074600	0.795514	city	5	1	0.598877	0.598877	0	1	0	0	CorrectCommission	1.507173	0.723669	0
150.870270	0.795809	mountain	9	0	0.000000	0.596198	1	0	0	0	CorrectOmission	1.537476	0.705492	0
151.666061	0.795769	city	10	1	0.648683	0.648683	0	1	0	0	CorrectCommission	0.943787	0.683008	0
152.461868	0.795858	city	7	1	0.714522	0.714522	0	1	0	0	CorrectCommission	0.199034	0.658264	0
153.257675	0.795759	mountain	8	0	0.000000	0.726227	1	0	0	0	CorrectOmission	0.066636	0.633606	1
154.053604	0.796101	city	5	1	0.699064	0.699064	0	1	0	0	CorrectCommission	0.373887	0.611307	1
154.849396	0.795490	city	9	1	0.648303	0.648303	0	1	0	0	CorrectCommission	0.948081	0.593395	1
155.645065	0.795847	city	8	1	0.698599	0.698599	0	1	0	0	CorrectCommission	0.379152	0.581392	1
156.440887	0.795794	city	2	1	0.749113	0.749113	0	1	0	0	CorrectCommission	0.192248	0.576155	1
157.236664	0.795742	city	4	1	0.759387	0.759387	0	1	0	0	CorrectCommission	0.308459	0.577747	1
158.032593	0.796138	mountain	9	0	0.000000	0.755154	1	0	0	0	CorrectOmission	0.260577	0.585449	1
158.828400	0.795451	city	7	1	0.748249	0.748249	0	1	0	0	CorrectCommission	0.182472	0.597848	1
159.624191	0.796154	city	6	1	0.750507	0.750507	0	1	0	0	CorrectCommission	0.208015	0.613004	1
160.420044	0.795528	city	8	1	0.650345	0.650345	0	1	0	0	CorrectCommission	0.924990	0.628764	1
161.215698	0.795785	city	5	1	0.558946	0.558946	0	1	0	0	CorrectCommission	1.958868	0.642950	1
162.011459	0.795740	city	9	1	0.762795	0.762795	0	1	0	0	CorrectCommission	0.347009	0.653727	1
162.807251	0.795850	city	5	1	0.655851	0.655851	0	1	0	0	CorrectCommission	0.862705	0.659933	0
163.603073	0.795809	city	2	1	0.648802	0.648802	0	1	0	0	CorrectCommission	0.942435	0.661060	0
164.398865	0.795747	city	8	1	0.654000	0.654000	0	1	0	0	CorrectCommission	0.883643	0.657454	0
165.194656	0.795846	city	6	1	0.651912	0.651912	0	1	0	0	CorrectCommission	0.907258	0.650230	1
165.990479	0.795792	city	3	1	0.702750	0.702750	0	1	0	0	CorrectCommission	0.332191	0.641147	1
166.786301	0.795856	city	9	1	0.648560	0.648560	0	1	0	0	CorrectCommission	0.945180	0.632377	1
167.582077	0.795709	mountain	6	0	0.000000	0.729914	1	0	0	0	CorrectOmission	0.024922	0.626192	1
168.377869	0.795877	city	2	1	0.797882	0.797882	0	1	0	0	CorrectCommission	0.743907	0.624781	1
169.173691	0.795770	city	9	1	0.703531	0.703531	0	1	0	0	CorrectCommission	0.323367	0.629866	1
169.969498	0.795844	mountain	9	0	0.000000	0.710069	1	0	0	0	CorrectOmission	0.249409	0.642628	1
170.765320	0.795798	city	9	1	0.748078	0.748078	0	1	0	0	CorrectCommission	0.180535	0.663460	0
171.561249	0.796037	city	6	1	0.748138	0.748138	0	1	0	0	CorrectCommission	0.181220	0.691946	0
172.357025	0.795531	city	3	1	0.664017	0.664017	0	1	0	0	CorrectCommission	0.770337	0.726871	0
173.152710	0.795839	city	10	1	0.648885	0.648885	0	1	0	0	CorrectCommission	0.941498	0.766367	0
173.948517	0.795763	city	2	1	0.649333	0.649333	0	1	0	0	CorrectCommission	0.936437	0.808105	0
174.744293	0.795812	city	5	1	0.818654	0.818654	0	1	0	0	CorrectCommission	0.978873	0.849518	0
175.540100	0.795795	mountain	5	0	0.000000	0.861571	1	0	0	0	CorrectOmission	1.464343	0.887995	0
176.335907	0.795821	city	8	1	0.798242	0.798242	0	1	0	0	CorrectCommission	0.747981	0.921137	0
177.131866	0.796078	city	5	1	0.648823	0.648823	0	1	0	0	CorrectCommission	0.942206	0.947014	0
177.927643	0.795494	city	7	1	0.811653	0.811653	0	1	0	0	CorrectCommission	0.899676	0.964224	0
178.723450	0.796109	city	1	1	0.802324	0.802324	0	1	0	0	CorrectCommission	0.794151	0.972043	0
179.519241	0.795477	city	5	1	0.902940	0.902940	0	1	0	0	CorrectCommission	1.932292	0.970587	0
180.315033	0.796098	city	8	1	0.897540	0.897540	0	1	0	0	CorrectCommission	1.871205	0.960690	0
181.110825	0.795494	city	10	1	0.847615	0.847615	0	1	0	0	CorrectCommission	1.306475	0.943877	0
181.906647	0.796146	city	8	1	0.749436	0.749436	0	1	0	0	CorrectCommission	0.195905	0.922222	0
182.702621	0.795797	city	5	1	0.649224	0.649224	0	1	0	0	CorrectCommission	0.937667	0.898145	0
183.498245	0.795473	city	1	1	0.648355	0.648355	0	1	0	0	CorrectCommission	0.947493	0.874051	0
184.293884	0.795811	city	9	1	0.703216	0.703216	0	1	0	0	CorrectCommission	0.326921	0.852114	0
185.089859	0.796126	city	8	1	0.652990	0.652990	0	1	0	0	CorrectCommission	0.895070	0.834115	0
185.885651	0.795458	city	3	1	0.698054	0.698054	0	1	0	0	CorrectCommission	0.385315	0.821107	0
186.681442	0.796132	city	10	1	0.698383	0.698383	0	1	0	0	CorrectCommission	0.381594	0.813467	0
187.477280	0.795541	city	3	1	0.698267	0.698267	0	1	0	0	CorrectCommission	0.382912	0.810821	0
188.272964	0.795813	city	9	1	0.798018	0.798018	0	1	0	0	CorrectCommission	0.745446	0.812156	0
189.068756	0.795793	city	5	1	0.649625	0.649625	0	1	0	0	CorrectCommission	0.933126	0.815985	0
189.864563	0.795803	city	10	1	0.598817	0.598817	0	1	0	0	CorrectCommission	1.507855	0.820551	0
190.660355	0.795774	city	7	1	0.665255	0.665255	0	1	0	0	CorrectCommission	0.756329	0.824042	0
191.456146	0.795830	mountain	7	0	0.000000	0.628895	1	0	0	0	CorrectOmission	1.167617	0.824881	0
192.252106	0.796079	city	1	1	0.598839	0.598839	0	1	0	0	CorrectCommission	1.507606	0.821794	0
193.048019	0.795762	mountain	5	0	0.000000	0.684186	1	0	0	0	CorrectOmission	0.542187	0.813885	0
193.843674	0.795525	city	2	1	0.748085	0.748085	0	1	0	0	CorrectCommission	0.180620	0.800822	0
194.639343	0.795834	city	6	1	0.653685	0.653685	0	1	0	0	CorrectCommission	0.887210	0.782738	0
195.435287	0.796049	city	3	1	0.603374	0.603374	0	1	0	0	CorrectCommission	1.456303	0.760186	0
196.231049	0.795471	city	8	1	0.698787	0.698787	0	1	0	0	CorrectCommission	0.377023	0.734144	0
197.026840	0.796124	city	9	1	0.699110	0.699110	0	1	0	0	CorrectCommission	0.373371	0.705981	0
197.822647	0.795486	city	2	1	0.614301	0.614301	0	1	0	0	CorrectCommission	1.332701	0.677327	0
198.618332	0.795883	city	10	1	0.652991	0.652991	0	1	0	0	CorrectCommission	0.895053	0.649948	1
199.414307	0.796070	city	8	1	0.766692	0.766692	0	1	0	0	CorrectCommission	0.391097	0.625750	1
200.210098	0.795509	city	2	1	0.798164	0.798164	0	1	0	0	CorrectCommission	0.747099	0.606478	1
201.005737	0.795743	city	5	1	0.748268	0.748268	0	1	0	0	CorrectCommission	0.182686	0.593539	1
201.801498	0.795793	city	10	1	0.708198	0.708198	0	1	0	0	CorrectCommission	0.270575	0.587912	1
202.597336	0.795893	city	4	1	0.705497	0.705497	0	1	0	0	CorrectCommission	0.301118	0.589897	1
203.393173	0.795760	city	3	1	0.748831	0.748831	0	1	0	0	CorrectCommission	0.189053	0.599102	1
204.188919	0.795759	city	5	1	0.751834	0.751834	0	1	0	0	CorrectCommission	0.223030	0.614422	1
204.984711	0.795799	city	1	1	0.748818	0.748818	0	1	0	0	CorrectCommission	0.188905	0.634127	1
205.780548	0.795882	city	2	1	0.752559	0.752559	0	1	0	0	CorrectCommission	0.231228	0.656096	0
206.576523	0.796073	city	8	1	0.847781	0.847781	0	1	0	0	CorrectCommission	1.308352	0.678113	0
207.372299	0.795471	city	7	1	0.897657	0.897657	0	1	0	0	CorrectCommission	1.872535	0.698083	0
208.167953	0.795853	city	4	1	0.798910	0.798910	0	1	0	0	CorrectCommission	0.755539	0.714432	0
208.963791	0.795813	city	6	1	0.651339	0.651339	0	1	0	0	CorrectCommission	0.913746	0.726345	0
209.759598	0.795798	city	8	1	0.613262	0.613262	0	1	0	0	CorrectCommission	1.344453	0.733703	0
210.555527	0.796066	city	2	1	0.649428	0.649428	0	1	0	0	CorrectCommission	0.935363	0.737125	0
211.351318	0.795507	city	9	1	0.698507	0.698507	0	1	0	0	CorrectCommission	0.380187	0.737821	0
212.146988	0.795854	city	6	1	0.748300	0.748300	0	1	0	0	CorrectCommission	0.183049	0.737283	0
212.942795	0.795738	city	9	1	0.798080	0.798080	0	1	0	0	CorrectCommission	0.746143	0.736955	0
213.738693	0.796080	city	3	1	0.699972	0.699972	0	1	0	0	CorrectCommission	0.363619	0.737997	0
214.534500	0.795512	city	7	1	0.648401	0.648401	0	1	0	0	CorrectCommission	0.946974	0.741065	0
215.330307	0.796126	city	2	1	0.699220	0.699220	0	1	0	0	CorrectCommission	0.372125	0.746142	0
216.126282	0.795815	city	10	1	0.703056	0.703056	0	1	0	0	CorrectCommission	0.328739	0.752669	0
216.921967	0.795540	mountain	10	0	0.000000	0.784648	1	0	0	0	CorrectOmission	0.594203	0.759595	0
217.717606	0.795754	city	6	1	0.798489	0.798489	0	1	0	0	CorrectCommission	0.750779	0.765604	0
218.513382	0.795795	city	10	1	0.599075	0.599075	0	1	0	0	CorrectCommission	1.504932	0.769409	0
219.309204	0.795848	city	1	1	0.599640	0.599640	0	1	0	0	CorrectCommission	1.498551	0.769977	0
220.104996	0.795745	city	9	1	0.665813	0.665813	0	1	0	0	CorrectCommission	0.750017	0.766786	0
220.900787	0.795817	city	7	1	0.649734	0.649734	0	1	0	0	CorrectCommission	0.931892	0.759948	0
221.696594	0.795805	city	1	1	0.604286	0.604286	0	1	0	0	CorrectCommission	1.445990	0.750068	0
222.492538	0.796071	city	10	1	0.699664	0.699664	0	1	0	0	CorrectCommission	0.367099	0.738188	0
223.288483	0.795834	city	9	1	0.747720	0.747720	0	1	0	0	CorrectCommission	0.176495	0.725618	0
224.084152	0.795506	city	3	1	0.664887	0.664887	0	1	0	0	CorrectCommission	0.760494	0.713573	0
224.879822	0.795818	city	1	1	0.702619	0.702619	0	1	0	0	CorrectCommission	0.333679	0.702947	0
225.675613	0.795769	city	5	1	0.711812	0.711812	0	1	0	0	CorrectCommission	0.229696	0.694228	0
226.471390	0.795802	city	1	1	0.700863	0.700863	0	1	0	0	CorrectCommission	0.353541	0.687381	0
227.267166	0.795750	city	4	1	0.798673	0.798673	0	1	0	0	CorrectCommission	0.752858	0.681800	0
228.062973	0.795860	city	9	1	0.810136	0.810136	0	1	0	0	CorrectCommission	0.882517	0.676481	0
228.858780	0.795750	city	2	1	0.851716	0.851716	0	1	0	0	CorrectCommission	1.352859	0.670245	0
229.654556	0.795804	city	6	1	0.770818	0.770818	0	1	0	0	CorrectCommission	0.437767	0.661967	0
230.450409	0.795889	city	10	1	0.797889	0.797889	0	1	0	0	CorrectCommission	0.743985	0.650815	1
231.246216	0.795731	city	8	1	0.847523	0.847523	0	1	0	0	CorrectCommission	1.305427	0.636351	1
232.042145	0.796120	city	7	1	0.797765	0.797765	0	1	0	0	CorrectCommission	0.742581	0.618651	1
232.838104	0.795818	city	1	1	0.798222	0.798222	0	1	0	0	CorrectCommission	0.747749	0.598409	1
233.633759	0.795491	city	9	1	0.748219	0.748219	0	1	0	0	CorrectCommission	0.182137	0.576787	1
234.429428	0.795844	mountain	6	0	0.000000	0.734305	1	0	0	0	CorrectOmission	0.024749	0.555340	1
235.225220	0.795735	city	3	1	0.765173	0.765173	0	1	0	0	CorrectCommission	0.373908	0.535785	1
236.020996	0.795827	city	6	1	0.849513	0.849513	0	1	0	0	CorrectCommission	1.327940	0.519783	1
236.816971	0.796107	city	10	1	0.716431	0.716431	0	1	0	0	CorrectCommission	0.177442	0.508745	1
237.612793	0.795533	city	3	1	0.698047	0.698047	0	1	0	0	CorrectCommission	0.385394	0.503755	1
238.408432	0.795766	city	2	1	0.748883	0.748883	0	1	0	0	CorrectCommission	0.189642	0.505287	1
239.204239	0.795843	mountain	6	0	0.000000	0.732288	1	0	0	0	CorrectOmission	0.001930	0.513188	1
240.000031	0.795721	city	10	1	0.711164	0.711164	0	1	0	0	CorrectCommission	0.237021	0.526669	1
240.795822	0.795859	city	6	1	0.748410	0.748410	0	1	0	0	CorrectCommission	0.184297	0.544359	1
241.591644	0.795805	city	5	1	0.605626	0.605626	0	1	0	0	CorrectCommission	1.430828	0.564428	1
242.387451	0.795805	city	6	1	0.698641	0.698641	0	1	0	0	CorrectCommission	0.378671	0.584776	1
243.183243	0.795781	mountain	6	0	0.000000	0.727080	1	0	0	0	CorrectOmission	0.056987	0.603389	1
243.979019	0.795765	city	7	1	0.762662	0.762662	0	1	0	0	CorrectCommission	0.345513	0.618477	1
244.774841	0.795872	mountain	9	0	0.000000	0.877111	1	0	0	0	CorrectOmission	1.640120	0.628709	1
245.570663	0.795792	city	6	1	0.897167	0.897167	0	1	0	0	CorrectCommission	1.866989	0.633361	1
246.366425	0.795723	city	1	1	0.649572	0.649572	0	1	0	0	CorrectCommission	0.933725	0.632389	1
247.162201	0.795822	city	2	1	0.698486	0.698486	0	1	0	0	CorrectCommission	0.380427	0.626507	1
247.958176	0.796139	city	10	1	0.698650	0.698650	0	1	0	0	CorrectCommission	0.378580	0.616893	1
248.754013	0.795529	city	2	1	0.748769	0.748769	0	1	0	0	CorrectCommission	0.188355	0.605056	1
249.549683	0.795818	city	1	1	0.798500	0.798500	0	1	0	0	CorrectCommission	0.750904	0.592635	1
250.345627	0.796058	city	3	1	0.762052	0.762052	0	1	0	0	CorrectCommission	0.338611	0.581108	1
251.141556	0.795804	city	4	1	0.748050	0.748050	0	1	0	0	CorrectCommission	0.180223	0.571720	1
251.937347	0.795765	city	1	1	0.701468	0.701468	0	1	0	0	CorrectCommission	0.346693	0.565325	1
252.732971	0.795485	city	6	1	0.700711	0.700711	0	1	0	0	CorrectCommission	0.355263	0.562329	1
253.528625	0.795847	city	8	1	0.698737	0.698737	0	1	0	0	CorrectCommission	0.377588	0.562742	1
254.324432	0.795742	city	3	1	0.616743	0.616743	0	1	0	0	CorrectCommission	1.305086	0.566324	1
255.120361	0.796134	city	9	1	0.660691	0.660691	0	1	0	0	CorrectCommission	0.807951	0.572561	1
255.916351	0.795826	city	10	1	0.650232	0.650232	0	1	0	0	CorrectCommission	0.926264	0.580912	1
256.712006	0.795509	city	5	1	0.702445	0.702445	0	1	0	0	CorrectCommission	0.335648	0.590754	1
257.507629	0.795745	city	2	1	0.748346	0.748346	0	1	0	0	CorrectCommission	0.183575	0.601481	1
258.303406	0.795805	city	9	1	0.757803	0.757803	0	1	0	0	CorrectCommission	0.290549	0.612520	1
259.099274	0.795900	city	10	1	0.748109	0.748109	0	1	0	0	CorrectCommission	0.180894	0.623305	1
259.895111	0.795765	city	8	1	0.798476	0.798476	0	1	0	0	CorrectCommission	0.750626	0.633301	1
260.690887	0.795823	city	9	1	0.849407	0.849407	0	1	0	0	CorrectCommission	1.326748	0.642036	1
261.486847	0.796071	city	3	1	0.766724	0.766724	0	1	0	0	CorrectCommission	0.391461	0.649140	1
262.282623	0.795528	city	1	1	0.599026	0.599026	0	1	0	0	CorrectCommission	1.505489	0.654398	0
263.078247	0.795713	city	3	1	0.753811	0.753811	0	1	0	0	CorrectCommission	0.245386	0.657709	0
263.874176	0.796143	mountain	5	0	0.000000	0.814305	1	0	0	0	CorrectOmission	0.929679	0.659223	0
264.670166	0.795828	city	6	1	0.806262	0.806262	0	1	0	0	CorrectCommission	0.838696	0.659174	0
265.465851	0.795526	mountain	3	0	0.000000	0.755433	1	0	0	0	CorrectOmission	0.263742	0.657912	0
266.261505	0.795759	city	1	1	0.698605	0.698605	0	1	0	0	CorrectCommission	0.379081	0.655828	0
267.057281	0.795797	mountain	9	0	0.000000	0.672562	1	0	0	0	CorrectOmission	0.673673	0.653258	1
267.853088	0.795863	city	2	1	0.698537	0.698537	0	1	0	0	CorrectCommission	0.379854	0.650487	1
268.648926	0.795778	city	3	1	0.797762	0.797762	0	1	0	0	CorrectCommission	0.742553	0.647742	1
269.444702	0.795758	city	2	1	0.848379	0.848379	0	1	0	0	CorrectCommission	1.315113	0.645139	1
270.240479	0.795836	city	4	1	0.764738	0.764738	0	1	0	0	CorrectCommission	0.368996	0.642727	1
271.036285	0.795779	city	7	1	0.650317	0.650317	0	1	0	0	CorrectCommission	0.925298	0.640589	1
271.832092	0.795828	city	6	1	0.750501	0.750501	0	1	0	0	CorrectCommission	0.207950	0.638726	1
272.627899	0.795782	city	5	1	0.748316	0.748316	0	1	0	0	CorrectCommission	0.183229	0.637231	1
273.423706	0.795830	city	9	1	0.798532	0.798532	0	1	0	0	CorrectCommission	0.751260	0.636196	1
274.219543	0.795817	city	2	1	0.899118	0.899118	0	1	0	0	CorrectCommission	1.889059	0.635740	1
275.015350	0.795801	city	8	1	0.748401	0.748401	0	1	0	0	CorrectCommission	0.184193	0.635965	1
275.811127	0.795801	city	7	1	0.748305	0.748305	0	1	0	0	CorrectCommission	0.183107	0.637057	1
276.606934	0.795764	city	6	1	0.765840	0.765840	0	1	0	0	CorrectCommission	0.381457	0.639105	1
277.402710	0.795829	city	3	1	0.748323	0.748323	0	1	0	0	CorrectCommission	0.183313	0.642119	1
278.198517	0.795748	city	6	1	0.847733	0.847733	0	1	0	0	CorrectCommission	1.307810	0.646026	1
278.994446	0.796114	city	10	1	0.798065	0.798065	0	1	0	0	CorrectCommission	0.745979	0.650674	1
279.790405	0.795810	city	5	1	0.797457	0.797457	0	1	0	0	CorrectCommission	0.739104	0.655881	0
280.586029	0.795466	city	4	1	0.801109	0.801109	0	1	0	0	CorrectCommission	0.780413	0.661536	0
281.381683	0.795799	city	1	1	0.748826	0.748826	0	1	0	0	CorrectCommission	0.189005	0.667610	0
282.177490	0.795829	mountain	1	0	0.000000	0.772689	1	0	0	0	CorrectOmission	0.458932	0.674264	0
282.973297	0.795811	city	2	1	0.813851	0.813851	0	1	0	0	CorrectCommission	0.924543	0.681767	0
283.769104	0.795758	city	1	1	0.813466	0.813466	0	1	0	0	CorrectCommission	0.920185	0.690585	0
284.564911	0.795884	city	4	1	0.797854	0.797854	0	1	0	0	CorrectCommission	0.743596	0.701359	0
285.360870	0.796059	city	5	1	0.798920	0.798920	0	1	0	0	CorrectCommission	0.755645	0.714795	0
286.156799	0.795795	city	4	1	0.798179	0.798179	0	1	0	0	CorrectCommission	0.747267	0.731595	0
286.952454	0.795514	city	6	1	0.798335	0.798335	0	1	0	0	CorrectCommission	0.749037	0.752256	0
287.748138	0.795824	city	1	1	0.670282	0.670282	0	1	0	0	CorrectCommission	0.699470	0.776976	0
288.543945	0.795807	city	6	1	0.757498	0.757498	0	1	0	0	CorrectCommission	0.287091	0.805482	0
289.339752	0.795815	city	4	1	0.762619	0.762619	0	1	0	0	CorrectCommission	0.345026	0.837015	0
290.135559	0.795788	city	8	1	0.748281	0.748281	0	1	0	0	CorrectCommission	0.182837	0.870336	0
290.931335	0.795742	city	1	1	0.810266	0.810266	0	1	0	0	CorrectCommission	0.883992	0.903847	0
291.727112	0.795851	city	7	1	0.861952	0.861952	0	1	0	0	CorrectCommission	1.468645	0.935635	0
292.522919	0.795737	city	2	1	0.897591	0.897591	0	1	0	0	CorrectCommission	1.871789	0.963899	0
293.318695	0.795848	mountain	9	0	0.000000	0.880367	1	0	0	0	CorrectOmission	1.676951	0.987174	0
294.114502	0.795752	mountain	6	0	0.000000	0.824395	1	0	0	0	CorrectOmission	1.043811	1.004574	0
294.910309	0.795877	mountain	3	0	0.000000	0.743791	1	0	0	0	CorrectOmission	0.132051	1.015987	0
295.706146	0.795747	city	10	1	0.652673	0.652673	0	1	0	0	CorrectCommission	0.898650	1.022132	0
296.501923	0.795843	city	8	1	0.565157	0.565157	0	1	0	0	CorrectCommission	1.888610	1.024476	0
297.297760	0.795796	city	6	1	0.509646	0.509646	0	1	0	0	CorrectCommission	2.516535	1.025017	0
298.093536	0.795793	city	2	1	0.748349	0.748349	0	1	0	0	CorrectCommission	0.183601	1.026084	0
298.889374	0.795851	city	4	1	0.698800	0.698800	0	1	0	0	CorrectCommission	0.376883	1.030123	0
299.685150	0.795731	city	1	1	0.648463	0.648463	0	1	0	0	CorrectCommission	0.946278	1.039080	0
300.480957	0.795843	city	3	1	0.748138	0.748138	0	1	0	0	CorrectCommission	0.181219	1.054229	0
301.276764	0.795778	city	7	1	0.847827	0.847827	0	1	0	0	CorrectCommission	1.308865	1.075990	0
302.072540	0.795809	city	2	1	0.804486	0.804486	0	1	0	0	CorrectCommission	0.818607	1.103722	0
302.868347	0.795807	city	4	1	0.748382	0.748382	0	1	0	0	CorrectCommission	0.183977	1.135903	0
303.664154	0.795787	city	8	1	0.748311	0.748311	0	1	0	0	CorrectCommission	0.183171	1.170225	0
304.459930	0.795774	city	4	1	0.803027	0.803027	0	1	0	0	CorrectCommission	0.802108	1.203906	0
305.255737	0.795834	mountain	5	0	0.000000	0.993732	1	0	0	0	CorrectOmission	2.959302	1.234030	0
306.051575	0.795846	city	5	1	1.099051	1.099051	0	1	0	0	CorrectCommission	4.150645	1.257851	0
306.847412	0.795800	city	4	1	0.897613	0.897613	0	1	0	0	CorrectCommission	1.872030	1.273117	0
307.643158	0.795708	city	3	1	0.798113	0.798113	0	1	0	0	CorrectCommission	0.746519	1.278343	0
308.438904	0.795814	city	8	1	0.698580	0.698580	0	1	0	0	CorrectCommission	0.379371	1.272603	0
309.234711	0.795795	city	7	1	0.720138	0.720138	0	1	0	0	CorrectCommission	0.135513	1.255572	0
310.030548	0.795887	city	6	1	0.748524	0.748524	0	1	0	0	CorrectCommission	0.185584	1.227420	0
310.826355	0.795727	mountain	10	0	0.000000	0.902043	1	0	0	0	CorrectOmission	1.922140	1.188808	0
311.622131	0.795790	city	8	1	0.997452	0.997452	0	1	0	0	CorrectCommission	3.001380	1.140768	0
312.417938	0.795853	city	2	1	0.851510	0.851510	0	1	0	0	CorrectCommission	1.350526	1.084802	0
313.213745	0.795749	city	5	1	0.848339	0.848339	0	1	0	0	CorrectCommission	1.314658	1.022928	0
314.009705	0.796162	city	6	1	0.898067	0.898067	0	1	0	0	CorrectCommission	1.877169	0.957539	0
314.805542	0.795512	city	4	1	0.713411	0.713411	0	1	0	0	CorrectCommission	0.211600	0.891291	0
315.601196	0.795809	city	6	1	0.759681	0.759681	0	1	0	0	CorrectCommission	0.311785	0.827158	0
316.397003	0.795788	mountain	9	0	0.000000	0.745704	1	0	0	0	CorrectOmission	0.153681	0.768004	0
317.192810	0.795806	city	2	1	0.701829	0.701829	0	1	0	0	CorrectCommission	0.342613	0.716360	0
317.988739	0.796087	city	4	1	0.658406	0.658406	0	1	0	0	CorrectCommission	0.833802	0.674231	0
318.784698	0.795816	city	7	1	0.714456	0.714456	0	1	0	0	CorrectCommission	0.199783	0.642825	1
319.580353	0.795525	city	6	1	0.752719	0.752719	0	1	0	0	CorrectCommission	0.233041	0.622538	1
320.375977	0.795709	city	2	1	0.702544	0.702544	0	1	0	0	CorrectCommission	0.334527	0.612838	1
321.171783	0.795868	mountain	6	0	0.000000	0.707035	1	0	0	0	CorrectOmission	0.283725	0.612346	1
321.967590	0.795787	city	6	1	0.699123	0.699123	0	1	0	0	CorrectCommission	0.373228	0.618987	1
322.763397	0.795797	city	10	1	0.611737	0.611737	0	1	0	0	CorrectCommission	1.361712	0.630191	1
323.559204	0.795852	city	1	1	0.703401	0.703401	0	1	0	0	CorrectCommission	0.324833	0.643133	1
324.355164	0.796064	city	9	1	0.809895	0.809895	0	1	0	0	CorrectCommission	0.879800	0.655212	0
325.151093	0.795794	city	1	1	0.748036	0.748036	0	1	0	0	CorrectCommission	0.180059	0.664142	0
325.946899	0.795810	city	3	1	0.865956	0.865956	0	1	0	0	CorrectCommission	1.513936	0.668266	0
326.742554	0.795490	city	10	1	0.861563	0.861563	0	1	0	0	CorrectCommission	1.464252	0.666528	0
327.538177	0.795768	city	9	1	0.813054	0.813054	0	1	0	0	CorrectCommission	0.915528	0.658695	0
328.333984	0.795816	city	8	1	0.704720	0.704720	0	1	0	0	CorrectCommission	0.309907	0.645196	1
329.129761	0.795762	city	2	1	0.652942	0.652942	0	1	0	0	CorrectCommission	0.895606	0.626981	1
329.925537	0.795809	city	7	1	0.717725	0.717725	0	1	0	0	CorrectCommission	0.162799	0.605409	1
330.721375	0.795840	city	3	1	0.698294	0.698294	0	1	0	0	CorrectCommission	0.382600	0.582105	1
331.517181	0.795765	city	8	1	0.662527	0.662527	0	1	0	0	CorrectCommission	0.787189	0.558702	1
332.312958	0.795797	city	6	1	0.698365	0.698365	0	1	0	0	CorrectCommission	0.381793	0.536802	1
333.108765	0.795851	city	2	1	0.748201	0.748201	0	1	0	0	CorrectCommission	0.181931	0.517861	1
333.904602	0.795779	city	7	1	0.748473	0.748473	0	1	0	0	CorrectCommission	0.185013	0.503123	1
334.700409	0.795822	city	6	1	0.798806	0.798806	0	1	0	0	CorrectCommission	0.754364	0.493595	1
335.496368	0.796117	city	10	1	0.798319	0.798319	0	1	0	0	CorrectCommission	0.748851	0.489981	1
336.292206	0.795541	city	7	1	0.797663	0.797663	0	1	0	0	CorrectCommission	0.741433	0.492752	1
337.087982	0.796035	city	5	1	0.748767	0.748767	0	1	0	0	CorrectCommission	0.188338	0.502060	1
337.883789	0.795560	city	6	1	0.748046	0.748046	0	1	0	0	CorrectCommission	0.180175	0.517672	1
338.679596	0.796069	city	4	1	0.748058	0.748058	0	1	0	0	CorrectCommission	0.180317	0.538930	1
339.475342	0.795442	city	2	1	0.712051	0.712051	0	1	0	0	CorrectCommission	0.226984	0.564771	1
340.271027	0.795902	city	7	1	0.751707	0.751707	0	1	0	0	CorrectCommission	0.221594	0.593720	1
341.066833	0.795744	city	9	1	0.802473	0.802473	0	1	0	0	CorrectCommission	0.795845	0.624077	1
341.862549	0.795694	city	8	1	0.754271	0.754271	0	1	0	0	CorrectCommission	0.250598	0.653976	1
342.658356	0.795890	city	6	1	0.618068	0.618068	0	1	0	0	CorrectCommission	1.290089	0.681701	0
343.454132	0.795684	city	4	1	0.600752	0.600752	0	1	0	0	CorrectCommission	1.485969	0.705745	0
344.249969	0.795977	city	1	1	0.653921	0.653921	0	1	0	0	CorrectCommission	0.884533	0.725124	0
345.045868	0.795825	city	8	1	0.649870	0.649870	0	1	0	0	CorrectCommission	0.930361	0.739508	0
345.841705	0.795850	city	3	1	0.652931	0.652931	0	1	0	0	CorrectCommission	0.895734	0.749231	0
346.637634	0.796008	mountain	9	0	0.000000	0.643164	1	0	0	0	CorrectOmission	1.006211	0.755248	0
347.433411	0.795532	city	5	1	0.649027	0.649027	0	1	0	0	CorrectCommission	0.939892	0.759083	0
348.229034	0.795712	city	7	1	0.698977	0.698977	0	1	0	0	CorrectCommission	0.374881	0.762762	0
349.024811	0.795843	city	8	1	0.748893	0.748893	0	1	0	0	CorrectCommission	0.189756	0.768453	0
349.820618	0.795760	city	7	1	0.752784	0.752784	0	1	0	0	CorrectCommission	0.233772	0.778361	0
350.616577	0.796152	city	6	1	0.702775	0.702775	0	1	0	0	CorrectCommission	0.331909	0.794485	0
351.412384	0.795475	mountain	6	0	0.000000	0.834212	1	0	0	0	CorrectOmission	1.154864	0.818516	0
352.208160	0.796117	city	3	1	0.901296	0.901296	0	1	0	0	CorrectCommission	1.913689	0.851635	0
353.004120	0.795795	city	2	1	0.658226	0.658226	0	1	0	0	CorrectCommission	0.835835	0.894490	0
353.799957	0.795838	city	10	1	0.698014	0.698014	0	1	0	0	CorrectCommission	0.385767	0.947108	0
354.595612	0.795497	city	3	1	0.711124	0.711124	0	1	0	0	CorrectCommission	0.237475	1.008836	0
355.391235	0.795766	city	7	1	0.710361	0.710361	0	1	0	0	CorrectCommission	0.246104	1.078222	0
356.187042	0.795847	city	10	1	0.658491	0.658491	0	1	0	0	CorrectCommission	0.832836	1.153083	0
356.982880	0.795791	city	7	0	0.000000	0.638039	0	0	0	1	OmissionError	1.064192	1.230576	0
357.778809	0.796102	city	6	1	0.613453	0.613453	0	1	0	0	CorrectCommission	1.342301	1.307355	0
358.574615	0.795496	city	4	1	0.549184	0.549184	0	1	0	0	CorrectCommission	2.069292	1.379757	0
359.370270	0.795798	city	10	1	0.499624	0.499624	0	1	0	0	CorrectCommission	2.629901	1.444068	0
360.166077	0.795827	city	6	1	0.511635	0.511635	0	1	0	0	CorrectCommission	2.494033	1.496747	0
360.961914	0.795817	city	10	1	0.599083	0.599083	0	1	0	0	CorrectCommission	1.504846	1.534730	0
361.757690	0.795756	city	1	1	0.701571	0.701571	0	1	0	0	CorrectCommission	0.345535	1.555636	0
362.553619	0.796123	city	2	1	0.748473	0.748473	0	1	0	0	CorrectCommission	0.185003	1.557898	0
363.349457	0.795518	city	7	1	1.097087	1.097087	0	1	0	0	CorrectCommission	4.128420	1.540892	0
364.145050	0.795714	city	2	1	0.947680	0.947680	0	1	0	0	CorrectCommission	2.438375	1.504897	0
364.940857	0.795886	city	9	1	0.954730	0.954730	0	1	0	0	CorrectCommission	2.518124	1.451467	0
365.736694	0.795790	city	7	1	0.847851	0.847851	0	1	0	0	CorrectCommission	1.309136	1.383065	0
366.532623	0.796081	city	4	1	0.847435	0.847435	0	1	0	0	CorrectCommission	1.304437	1.303048	0
367.328430	0.795501	city	1	1	0.798467	0.798467	0	1	0	0	CorrectCommission	0.750520	1.215280	0
368.124054	0.795758	city	9	1	0.847476	0.847476	0	1	0	0	CorrectCommission	1.304897	1.123913	0
368.919891	0.795888	mountain	10	0	0.000000	0.709366	1	0	0	0	CorrectOmission	0.257359	1.032950	0
369.715668	0.795707	city	10	1	0.603369	0.603369	0	1	0	0	CorrectCommission	1.456360	0.946012	0
370.511597	0.796154	city	8	1	0.748718	0.748718	0	1	0	0	CorrectCommission	0.187782	0.865967	0
371.307465	0.795540	city	4	1	0.751801	0.751801	0	1	0	0	CorrectCommission	0.222654	0.794896	0
372.103119	0.795796	city	10	1	0.663198	0.663198	0	1	0	0	CorrectCommission	0.779592	0.733864	0
372.899048	0.796078	city	5	1	0.754817	0.754817	0	1	0	0	CorrectCommission	0.256773	0.683019	0
373.694855	0.795516	city	2	1	0.697972	0.697972	0	1	0	0	CorrectCommission	0.386247	0.641763	1
374.490509	0.795812	city	5	1	0.748443	0.748443	0	1	0	0	CorrectCommission	0.184673	0.608930	1
375.286316	0.795781	city	4	1	0.760823	0.760823	0	1	0	0	CorrectCommission	0.324709	0.583024	1
376.082123	0.795826	city	7	1	0.859488	0.859488	0	1	0	0	CorrectCommission	1.440772	0.562576	1
376.877899	0.795719	city	8	1	0.848177	0.848177	0	1	0	0	CorrectCommission	1.312833	0.546420	1
377.673676	0.795868	city	10	1	0.699041	0.699041	0	1	0	0	CorrectCommission	0.374155	0.533986	1
378.469482	0.795725	city	3	1	0.748314	0.748314	0	1	0	0	CorrectCommission	0.183212	0.525326	1
379.265289	0.795889	city	10	1	0.717550	0.717550	0	1	0	0	CorrectCommission	0.164788	0.521125	1
380.061127	0.795779	city	6	1	0.798040	0.798040	0	1	0	0	CorrectCommission	0.745698	0.522652	1
380.856903	0.795749	city	1	1	0.711972	0.711972	0	1	0	0	CorrectCommission	0.227882	0.531386	1
381.652679	0.795838	city	6	1	0.798099	0.798099	0	1	0	0	CorrectCommission	0.746360	0.549064	1
382.448517	0.795815	city	5	1	0.750095	0.750095	0	1	0	0	CorrectCommission	0.203360	0.577208	1
383.244293	0.795744	city	4	1	0.766641	0.766641	0	1	0	0	CorrectCommission	0.390514	0.616930	1
384.040100	0.795858	city	7	1	0.706950	0.706950	0	1	0	0	CorrectCommission	0.284686	0.668821	0
384.835938	0.795807	city	3	1	0.704957	0.704957	0	1	0	0	CorrectCommission	0.307233	0.732878	0
385.631744	0.795813	city	4	1	0.756638	0.756638	0	1	0	0	CorrectCommission	0.277367	0.808381	0
386.427673	0.796084	city	10	1	0.748225	0.748225	0	1	0	0	CorrectCommission	0.182202	0.894192	0
387.223450	0.795455	city	5	1	0.751319	0.751319	0	1	0	0	CorrectCommission	0.217196	0.988737	0
388.019104	0.795866	city	1	1	0.598870	0.598870	0	1	0	0	CorrectCommission	1.507253	1.090302	0
388.814911	0.795744	city	3	1	0.500241	0.500241	0	1	0	0	CorrectCommission	2.622915	1.197087	0
389.610687	0.795779	city	9	1	0.450509	0.450509	0	1	0	0	CorrectCommission	3.185469	1.307290	0
390.406525	0.795908	city	7	1	0.698684	0.698684	0	1	0	0	CorrectCommission	0.378191	1.419168	0
391.202515	0.796053	city	9	1	0.708133	0.708133	0	1	0	0	CorrectCommission	0.271307	1.531014	0
391.998291	0.795500	mountain	6	0	0.000000	0.887448	1	0	0	0	CorrectOmission	1.757052	1.640780	0
392.793945	0.795850	city	6	1	0.997136	0.997136	0	1	0	0	CorrectCommission	2.997813	1.745951	0
393.589905	0.796062	city	3	1	0.797705	0.797705	0	1	0	0	CorrectCommission	0.741900	1.843574	0
394.385712	0.795543	city	2	1	0.748445	0.748445	0	1	0	0	CorrectCommission	0.184688	1.930420	0
395.181519	0.796056	city	5	1	0.847607	0.847607	0	1	0	0	CorrectCommission	1.306380	2.003091	0
395.977295	0.795533	city	2	1	0.946948	0.946948	0	1	0	0	CorrectCommission	2.430099	2.058375	0
396.772980	0.795791	city	3	1	1.196144	1.196144	0	1	0	0	CorrectCommission	5.248922	2.093775	0
397.568756	0.795792	city	9	1	1.195694	1.195694	0	1	0	0	CorrectCommission	5.243832	2.107800	0
398.364563	0.795809	city	6	0	0.000000	0.854819	0	0	0	1	OmissionError	1.387966	2.100434	0
399.160370	0.795824	city	5	1	0.500034	0.500034	0	1	0	0	CorrectCommission	2.625262	2.073232	0
399.956329	0.796074	city	9	1	0.457849	0.457849	0	1	0	0	CorrectCommission	3.102438	2.028875	0
400.752136	0.795524	city	1	1	0.702647	0.702647	0	1	0	0	CorrectCommission	0.333365	1.970962	0
401.547913	0.796066	city	2	1	0.898209	0.898209	0	1	0	0	CorrectCommission	1.878771	1.903595	0
402.343689	0.795495	city	1	1	0.808974	0.808974	0	1	0	0	CorrectCommission	0.869375	1.830567	0
403.139343	0.795816	city	9	1	0.847990	0.847990	0	1	0	0	CorrectCommission	1.310714	1.755160	0
403.935150	0.795744	city	8	1	0.847790	0.847790	0	1	0	0	CorrectCommission	1.308455	1.679687	0
404.730957	0.795883	city	9	1	0.802237	0.802237	0	1	0	0	CorrectCommission	0.793166	1.605507	0
405.526764	0.795732	mountain	4	0	0.000000	0.892765	1	0	0	0	CorrectOmission	1.817193	1.533131	0
406.322693	0.796152	mountain	6	0	0.000000	0.986564	1	0	0	0	CorrectOmission	2.878216	1.462414	0
407.118530	0.795486	city	6	1	0.950822	0.950822	0	1	0	0	CorrectCommission	2.473919	1.392950	0
407.914154	0.795771	city	10	1	0.652729	0.652729	0	1	0	0	CorrectCommission	0.898017	1.324534	0
408.709961	0.795855	city	8	1	0.599526	0.599526	0	1	0	0	CorrectCommission	1.499831	1.257323	0
409.505768	0.795779	city	3	1	0.661391	0.661391	0	1	0	0	CorrectCommission	0.800033	1.191799	0
410.301697	0.796077	city	1	1	0.798475	0.798475	0	1	0	0	CorrectCommission	0.750615	1.128850	0
411.097504	0.795527	city	10	1	0.797500	0.797500	0	1	0	0	CorrectCommission	0.739589	1.069613	0
411.893188	0.795819	city	6	1	0.848319	0.848319	0	1	0	0	CorrectCommission	1.314431	1.015235	0
412.688995	0.795800	city	9	1	0.797949	0.797949	0	1	0	0	CorrectCommission	0.744665	0.966573	0
413.484802	0.795835	city	3	1	0.748115	0.748115	0	1	0	0	CorrectCommission	0.180955	0.924078	0
414.280762	0.796057	city	7	1	0.698281	0.698281	0	1	0	0	CorrectCommission	0.382745	0.887615	0
415.076691	0.795800	city	9	1	0.648498	0.648498	0	1	0	0	CorrectCommission	0.945873	0.856481	0
415.872345	0.795511	city	5	1	0.648256	0.648256	0	1	0	0	CorrectCommission	0.948620	0.829642	0
416.667999	0.795813	city	9	1	0.797799	0.797799	0	1	0	0	CorrectCommission	0.742967	0.805789	0
417.463806	0.795814	city	6	1	0.648866	0.648866	0	1	0	0	CorrectCommission	0.941722	0.783586	0
418.259613	0.795771	city	4	1	0.604465	0.604465	0	1	0	0	CorrectCommission	1.443963	0.761984	0
419.055542	0.796111	city	9	1	0.655719	0.655719	0	1	0	0	CorrectCommission	0.864192	0.740241	0
419.851501	0.795784	city	8	1	0.652546	0.652546	0	1	0	0	CorrectCommission	0.900084	0.718148	0
420.647278	0.795808	city	4	1	0.663038	0.663038	0	1	0	0	CorrectCommission	0.781411	0.695910	0
421.442963	0.795521	city	2	1	0.698709	0.698709	0	1	0	0	CorrectCommission	0.377912	0.674156	0
422.238739	0.796065	city	7	1	0.698346	0.698346	0	1	0	0	CorrectCommission	0.382014	0.653709	1
423.034515	0.795467	city	3	1	0.697969	0.697969	0	1	0	0	CorrectCommission	0.386283	0.635453	1
423.830139	0.795794	city	1	1	0.711701	0.711701	0	1	0	0	CorrectCommission	0.230945	0.620171	1
424.625977	0.795851	city	2	1	0.764168	0.764168	0	1	0	0	CorrectCommission	0.362550	0.608471	1
425.421906	0.796014	city	9	1	0.802285	0.802285	0	1	0	0	CorrectCommission	0.793717	0.600742	1
426.217651	0.795523	city	10	1	0.799586	0.799586	0	1	0	0	CorrectCommission	0.763181	0.597066	1
427.013367	0.795900	city	1	1	0.800248	0.800248	0	1	0	0	CorrectCommission	0.770666	0.597312	1
427.809235	0.795793	city	6	1	0.804644	0.804644	0	1	0	0	CorrectCommission	0.820392	0.601095	1
428.605011	0.795757	city	8	1	0.755016	0.755016	0	1	0	0	CorrectCommission	0.259016	0.607857	1
429.400818	0.795874	city	2	1	0.698314	0.698314	0	1	0	0	CorrectCommission	0.382373	0.616825	1
430.196625	0.795747	city	3	1	0.798160	0.798160	0	1	0	0	CorrectCommission	0.747055	0.627058	1
430.992523	0.796035	city	7	1	0.799484	0.799484	0	1	0	0	CorrectCommission	0.762032	0.637478	1
431.788330	0.795590	city	1	1	0.747970	0.747970	0	1	0	0	CorrectCommission	0.179313	0.646923	1
432.584045	0.795826	city	6	1	0.698311	0.698311	0	1	0	0	CorrectCommission	0.382411	0.654236	0
433.379852	0.795808	city	9	1	0.658586	0.658586	0	1	0	0	CorrectCommission	0.831769	0.658309	0
434.175659	0.795773	city	5	1	0.655821	0.655821	0	1	0	0	CorrectCommission	0.863046	0.658275	0
434.971436	0.795829	city	10	1	0.648848	0.648848	0	1	0	0	CorrectCommission	0.941918	0.653595	1
435.767273	0.795797	city	3	1	0.797907	0.797907	0	1	0	0	CorrectCommission	0.744187	0.644146	1
436.563049	0.795765	city	6	1	0.947857	0.947857	0	1	0	0	CorrectCommission	2.440374	0.630302	1
437.358856	0.795846	city	8	1	0.748088	0.748088	0	1	0	0	CorrectCommission	0.180652	0.612815	1
438.154633	0.795745	city	2	1	0.748842	0.748842	0	1	0	0	CorrectCommission	0.189181	0.592882	1
438.950378	0.795755	city	5	1	0.748391	0.748391	0	1	0	0	CorrectCommission	0.184081	0.571823	1
439.746185	0.795859	mountain	10	0	0.000000	0.748130	1	0	0	0	CorrectOmission	0.181129	0.550993	1
440.542053	0.795825	city	9	1	0.748249	0.748249	0	1	0	0	CorrectCommission	0.182474	0.531543	1
441.337860	0.795794	city	2	1	0.748938	0.748938	0	1	0	0	CorrectCommission	0.190267	0.514364	1
442.133789	0.796080	city	6	1	0.797728	0.797728	0	1	0	0	CorrectCommission	0.742164	0.500026	1
442.929565	0.795486	city	10	1	0.698116	0.698116	0	1	0	0	CorrectCommission	0.384616	0.488800	1
443.725250	0.795864	city	6	1	0.848425	0.848425	0	1	0	0	CorrectCommission	1.315638	0.480779	1
444.521057	0.795755	city	4	1	0.757268	0.757268	0	1	0	0	CorrectCommission	0.284490	0.475831	1
445.316833	0.795821	city	3	1	0.760901	0.760901	0	1	0	0	CorrectCommission	0.325588	0.473876	1
446.112671	0.795837	city	7	1	0.757907	0.757907	0	1	0	0	CorrectCommission	0.291722	0.474838	1
446.908478	0.795789	city	9	1	0.755786	0.755786	0	1	0	0	CorrectCommission	0.267735	0.478712	1
447.704254	0.795760	city	7	1	0.797666	0.797666	0	1	0	0	CorrectCommission	0.741469	0.485530	1
448.500061	0.795842	city	3	1	0.748094	0.748094	0	1	0	0	CorrectCommission	0.180722	0.495306	1
449.295837	0.795728	city	2	1	0.815058	0.815058	0	1	0	0	CorrectCommission	0.938202	0.508038	1
450.091614	0.795789	city	5	1	0.714100	0.714100	0	1	0	0	CorrectCommission	0.203805	0.523487	1
450.887421	0.795855	city	4	1	0.752506	0.752506	0	1	0	0	CorrectCommission	0.230631	0.541217	1
451.683258	0.795797	city	5	1	0.713439	0.713439	0	1	0	0	CorrectCommission	0.211289	0.560532	1
452.479065	0.795828	city	7	1	0.648829	0.648829	0	1	0	0	CorrectCommission	0.942133	0.580409	1
453.274872	0.795795	city	1	1	0.748215	0.748215	0	1	0	0	CorrectCommission	0.182090	0.599618	1
454.070831	0.796090	city	5	1	0.797734	0.797734	0	1	0	0	CorrectCommission	0.742228	0.616812	1
454.866577	0.795436	city	6	1	0.897037	0.897037	0	1	0	0	CorrectCommission	1.865515	0.630685	1
455.662231	0.795862	city	2	1	0.754331	0.754331	0	1	0	0	CorrectCommission	0.251273	0.640073	1
456.458069	0.795820	mountain	7	0	0.000000	0.724870	1	0	0	0	CorrectOmission	0.081987	0.644219	1
457.253876	0.795771	city	8	1	0.704820	0.704820	0	1	0	0	CorrectCommission	0.308782	0.642760	1
458.049683	0.795838	city	9	0	0.000000	0.590350	0	0	0	1	OmissionError	1.603634	0.635789	1
458.845490	0.795768	city	10	1	0.549162	0.549162	0	1	0	0	CorrectCommission	2.069532	0.623850	1
459.641266	0.795806	city	2	1	0.748962	0.748962	0	1	0	0	CorrectCommission	0.190536	0.607907	1
460.437225	0.796097	city	1	1	0.760019	0.760019	0	1	0	0	CorrectCommission	0.315610	0.589321	1
461.233032	0.795509	city	8	1	0.747778	0.747778	0	1	0	0	CorrectCommission	0.177147	0.569523	1
462.028839	0.796106	city	1	1	0.699193	0.699193	0	1	0	0	CorrectCommission	0.372431	0.549896	1
462.824585	0.795442	city	8	1	0.748122	0.748122	0	1	0	0	CorrectCommission	0.181034	0.531649	1
463.620239	0.795853	city	3	1	0.712682	0.712682	0	1	0	0	CorrectCommission	0.219852	0.515793	1
464.416077	0.795799	city	4	1	0.798501	0.798501	0	1	0	0	CorrectCommission	0.750906	0.503057	1
465.211884	0.795841	city	10	1	0.720255	0.720255	0	1	0	0	CorrectCommission	0.134184	0.493877	1
466.007721	0.795799	city	3	1	0.757812	0.757812	0	1	0	0	CorrectCommission	0.290649	0.488602	1
466.803467	0.795731	city	6	1	0.897537	0.897537	0	1	0	0	CorrectCommission	1.871169	0.487458	1
467.599274	0.795842	city	9	1	0.748304	0.748304	0	1	0	0	CorrectCommission	0.183099	0.490635	1
468.395081	0.795817	city	7	1	0.713661	0.713661	0	1	0	0	CorrectCommission	0.208776	0.498430	1
469.190887	0.795798	city	8	1	0.752993	0.752993	0	1	0	0	CorrectCommission	0.236140	0.511045	1
469.986847	0.796090	city	2	1	0.699199	0.699199	0	1	0	0	CorrectCommission	0.372360	0.528534	1
470.782654	0.795548	city	8	1	0.760393	0.760393	0	1	0	0	CorrectCommission	0.319844	0.550725	1
471.578461	0.796056	city	1	1	0.698521	0.698521	0	1	0	0	CorrectCommission	0.380032	0.577080	1
472.374390	0.795781	city	8	1	0.808388	0.808388	0	1	0	0	CorrectCommission	0.862753	0.606568	1
473.170044	0.795514	city	1	1	0.763687	0.763687	0	1	0	0	CorrectCommission	0.357107	0.637729	1
473.965668	0.795755	city	10	1	0.748169	0.748169	0	1	0	0	CorrectCommission	0.181565	0.668752	0
474.761444	0.795821	city	2	1	0.765204	0.765204	0	1	0	0	CorrectCommission	0.374262	0.697595	0
475.557434	0.796137	city	10	1	0.816890	0.816890	0	1	0	0	CorrectCommission	0.958924	0.722189	0
476.353394	0.795800	city	4	1	0.947507	0.947507	0	1	0	0	CorrectCommission	2.436421	0.740734	0
477.149200	0.795805	city	1	1	0.705192	0.705192	0	1	0	0	CorrectCommission	0.304577	0.752007	0
477.945007	0.795776	city	2	1	0.748649	0.748649	0	1	0	0	CorrectCommission	0.187001	0.755688	0
478.740631	0.795469	city	4	1	0.897015	0.897015	0	1	0	0	CorrectCommission	1.865273	0.752277	0
479.536438	0.796169	city	5	1	0.897571	0.897571	0	1	0	0	CorrectCommission	1.871555	0.743117	0
480.332428	0.795785	city	10	1	0.797471	0.797471	0	1	0	0	CorrectCommission	0.739263	0.730402	0
481.128052	0.795515	city	8	1	0.758718	0.758718	0	1	0	0	CorrectCommission	0.300896	0.716818	0
481.923676	0.795731	city	2	1	0.748301	0.748301	0	1	0	0	CorrectCommission	0.183057	0.705031	0
482.719452	0.795820	mountain	10	1	0.704420	0.704420	0	0	1	0	CommissionError	0.313312	0.697434	0
483.515259	0.795787	city	9	0	0.000000	0.727709	0	0	0	1	OmissionError	0.049868	0.695717	0
484.311218	0.796131	city	10	1	0.748771	0.748771	0	1	0	0	CorrectCommission	0.188377	0.700565	0
485.107208	0.795822	city	5	1	0.698207	0.698207	0	1	0	0	CorrectCommission	0.383586	0.711614	0
485.902863	0.795482	city	4	1	0.798517	0.798517	0	1	0	0	CorrectCommission	0.751095	0.727459	0
486.698517	0.795827	city	7	1	0.798060	0.798060	0	1	0	0	CorrectCommission	0.745916	0.745916	0
