onset	duration	trial_type	image_type	Press	ReactionTime	ReactionTime_Interpolated	CorrectOmission	CorrectCommission	CommissionError	OmissionError	response_type	nonsmoothVarianceTimeCourse	VarianceTimeCourse	In_the_Zone
8.421959	0.796104	city	2	1	0.511868	0.511868	0	1	0	0	CorrectCommission	2.223935	2.223935	0
9.217771	0.795520	city	8	1	0.702417	0.702417	0	1	0	0	CorrectCommission	0.340699	2.028593	0
10.013417	0.795773	city	5	1	0.708254	0.708254	0	1	0	0	CorrectCommission	0.283010	1.838385	0
10.809180	0.795753	city	10	1	0.655262	0.655262	0	1	0	0	CorrectCommission	0.806739	1.658003	0
11.605123	0.796132	city	2	1	0.616054	0.616054	0	1	0	0	CorrectCommission	1.194240	1.491520	0
12.400931	0.795487	city	6	1	0.599050	0.599050	0	1	0	0	CorrectCommission	1.362290	1.342241	0
13.196592	0.795835	mountain	1	1	0.555578	0.555578	0	0	1	0	CommissionError	1.791935	1.212578	0
13.992384	0.795747	mountain	7	0	0.000000	0.620190	1	0	0	0	CorrectOmission	1.153366	1.103997	0
14.788178	0.795842	city	10	1	0.699023	0.699023	0	1	0	0	CorrectCommission	0.374244	1.017069	0
15.584004	0.795810	city	1	1	0.698214	0.698214	0	1	0	0	CorrectCommission	0.382232	0.951467	0
16.379827	0.795838	city	2	1	0.716762	0.716762	0	1	0	0	CorrectCommission	0.198926	0.906011	0
17.175619	0.795746	city	10	1	0.698226	0.698226	0	1	0	0	CorrectCommission	0.382118	0.878713	0
17.971403	0.795821	city	4	1	0.847721	0.847721	0	1	0	0	CorrectCommission	1.095367	0.866842	0
18.767370	0.796111	city	5	1	0.748537	0.748537	0	1	0	0	CorrectCommission	0.115117	0.867053	0
19.563150	0.795450	mountain	4	0	0.000000	0.649137	1	0	0	0	CorrectOmission	0.867271	0.875602	0
20.358807	0.795865	city	10	1	0.649064	0.649064	0	1	0	0	CorrectCommission	0.868000	0.888499	0
21.154606	0.795733	city	7	1	0.847858	0.847858	0	1	0	0	CorrectCommission	1.096729	0.901836	0
21.950407	0.795866	city	10	1	0.848282	0.848282	0	1	0	0	CorrectCommission	1.100912	0.912022	0
22.746370	0.796060	city	3	1	0.798545	0.798545	0	1	0	0	CorrectCommission	0.609360	0.916102	0
23.542139	0.795478	city	7	1	0.847470	0.847470	0	1	0	0	CorrectCommission	1.092895	0.912026	0
24.337952	0.796149	city	2	1	1.047297	1.047297	0	1	0	0	CorrectCommission	3.067816	0.898709	0
25.133749	0.795446	city	9	1	0.915780	0.915780	0	1	0	0	CorrectCommission	1.768012	0.876101	0
25.929550	0.796157	city	4	1	0.797809	0.797809	0	1	0	0	CorrectCommission	0.602085	0.845265	0
26.725391	0.795526	city	3	1	0.748735	0.748735	0	1	0	0	CorrectCommission	0.117077	0.808083	0
27.521048	0.795783	city	6	1	0.712703	0.712703	0	1	0	0	CorrectCommission	0.239039	0.766924	0
28.316996	0.796113	city	7	1	0.699392	0.699392	0	1	0	0	CorrectCommission	0.370591	0.724326	1
29.112801	0.795499	city	2	1	0.799362	0.799362	0	1	0	0	CorrectCommission	0.617428	0.682699	1
29.908596	0.796093	city	3	1	0.757637	0.757637	0	1	0	0	CorrectCommission	0.205049	0.644087	1
30.704403	0.795520	city	1	1	0.815837	0.815837	0	1	0	0	CorrectCommission	0.780252	0.610018	1
31.500063	0.795800	city	8	1	0.799021	0.799021	0	1	0	0	CorrectCommission	0.614055	0.581393	1
32.295860	0.795790	city	1	1	0.798410	0.798410	0	1	0	0	CorrectCommission	0.608021	0.558557	1
33.091789	0.796072	city	5	1	0.797703	0.797703	0	1	0	0	CorrectCommission	0.601035	0.541337	1
33.887573	0.795497	city	8	1	0.800593	0.800593	0	1	0	0	CorrectCommission	0.629596	0.529147	1
34.683258	0.795868	city	7	1	0.748895	0.748895	0	1	0	0	CorrectCommission	0.118653	0.521131	1
35.479046	0.795710	city	4	1	0.798627	0.798627	0	1	0	0	CorrectCommission	0.610165	0.516286	1
36.274837	0.795876	city	6	1	0.757433	0.757433	0	1	0	0	CorrectCommission	0.203041	0.513583	1
37.070808	0.796064	city	4	1	0.748056	0.748056	0	1	0	0	CorrectCommission	0.110362	0.512110	1
37.866577	0.795473	city	10	1	0.766608	0.766608	0	1	0	0	CorrectCommission	0.293720	0.511156	1
38.662231	0.795834	city	2	1	0.866144	0.866144	0	1	0	0	CorrectCommission	1.277454	0.510311	1
39.458061	0.795826	city	8	1	0.807534	0.807534	0	1	0	0	CorrectCommission	0.698199	0.509444	1
40.253864	0.795786	city	7	1	0.859696	0.859696	0	1	0	0	CorrectCommission	1.213723	0.508823	1
41.049675	0.795832	city	9	1	0.798588	0.798588	0	1	0	0	CorrectCommission	0.609784	0.508972	1
41.845470	0.795756	city	3	1	0.749135	0.749135	0	1	0	0	CorrectCommission	0.121028	0.510593	1
42.641281	0.795869	city	8	1	0.752352	0.752352	0	1	0	0	CorrectCommission	0.152824	0.514435	1
43.437111	0.795791	city	7	1	0.715950	0.715950	0	1	0	0	CorrectCommission	0.206948	0.521156	1
44.233032	0.796049	city	2	1	0.747987	0.747987	0	1	0	0	CorrectCommission	0.109678	0.531174	1
45.028824	0.795532	city	4	1	0.747972	0.747972	0	1	0	0	CorrectCommission	0.109532	0.544560	1
45.824451	0.795727	mountain	3	0	0.000000	0.671455	1	0	0	0	CorrectOmission	0.646696	0.561069	1
46.620247	0.795860	city	9	1	0.649449	0.649449	0	1	0	0	CorrectCommission	0.864187	0.580071	1
47.416065	0.795781	city	1	1	0.812966	0.812966	0	1	0	0	CorrectCommission	0.751880	0.600741	1
48.211864	0.795811	city	3	1	0.848328	0.848328	0	1	0	0	CorrectCommission	1.101366	0.622173	1
49.007671	0.795806	city	2	1	0.798132	0.798132	0	1	0	0	CorrectCommission	0.605269	0.643442	1
49.803619	0.796092	city	9	1	0.798004	0.798004	0	1	0	0	CorrectCommission	0.604006	0.663784	1
50.599407	0.795480	city	6	1	0.800700	0.800700	0	1	0	0	CorrectCommission	0.630653	0.682588	1
51.395210	0.796126	city	10	1	0.703370	0.703370	0	1	0	0	CorrectCommission	0.331279	0.699443	1
52.191185	0.795827	city	9	1	0.669721	0.669721	0	1	0	0	CorrectCommission	0.663840	0.714148	1
52.986862	0.795525	city	6	1	0.655438	0.655438	0	1	0	0	CorrectCommission	0.804998	0.726595	0
53.782658	0.796063	city	3	1	0.556321	0.556321	0	1	0	0	CorrectCommission	1.784596	0.736772	0
54.578579	0.795785	mountain	5	0	0.000000	0.653101	1	0	0	0	CorrectOmission	0.828094	0.744633	0
55.374390	0.795833	city	4	1	0.761880	0.761880	0	1	0	0	CorrectCommission	0.246983	0.750136	0
56.170052	0.795490	city	7	1	0.698755	0.698755	0	1	0	0	CorrectCommission	0.376890	0.753112	0
56.965714	0.795837	city	3	1	0.652740	0.652740	0	1	0	0	CorrectCommission	0.831668	0.753312	0
57.761517	0.795770	mountain	9	1	0.708354	0.708354	0	0	1	0	CommissionError	0.282020	0.750445	0
58.557312	0.795818	city	1	1	0.648517	0.648517	0	1	0	0	CorrectCommission	0.873400	0.744340	0
59.353119	0.795797	city	7	1	0.847506	0.847506	0	1	0	0	CorrectCommission	1.093244	0.734971	0
60.148926	0.795821	city	9	1	0.813492	0.813492	0	1	0	0	CorrectCommission	0.757083	0.722629	1
60.944740	0.795809	city	4	1	0.957040	0.957040	0	1	0	0	CorrectCommission	2.175789	0.707990	1
61.740681	0.796066	city	2	1	0.804589	0.804589	0	1	0	0	CorrectCommission	0.669093	0.692043	1
62.536472	0.795524	city	6	1	0.748126	0.748126	0	1	0	0	CorrectCommission	0.111050	0.676199	1
63.332130	0.795792	city	1	1	0.653285	0.653285	0	1	0	0	CorrectCommission	0.826280	0.661990	1
64.127892	0.795734	city	6	1	0.748155	0.748155	0	1	0	0	CorrectCommission	0.111342	0.650823	1
64.923676	0.795823	city	8	1	0.764504	0.764504	0	1	0	0	CorrectCommission	0.272925	0.643924	1
65.719521	0.795878	city	3	1	0.748033	0.748033	0	1	0	0	CorrectCommission	0.110133	0.642041	1
66.515350	0.795767	city	8	1	0.765344	0.765344	0	1	0	0	CorrectCommission	0.281219	0.645407	1
67.311279	0.796092	city	1	1	0.801643	0.801643	0	1	0	0	CorrectCommission	0.639970	0.653675	1
68.107071	0.795493	city	8	1	0.807465	0.807465	0	1	0	0	CorrectCommission	0.697512	0.665945	1
68.902855	0.796077	city	3	1	0.849915	0.849915	0	1	0	0	CorrectCommission	1.117056	0.680974	1
69.698807	0.795829	city	1	1	0.848925	0.848925	0	1	0	0	CorrectCommission	1.107271	0.697245	1
70.494476	0.795516	city	2	1	0.799970	0.799970	0	1	0	0	CorrectCommission	0.623439	0.713206	1
71.290131	0.795784	city	6	1	0.797873	0.797873	0	1	0	0	CorrectCommission	0.602710	0.727409	0
72.086075	0.796113	city	5	1	0.798020	0.798020	0	1	0	0	CorrectCommission	0.604169	0.738689	0
72.881882	0.795493	city	4	1	0.847227	0.847227	0	1	0	0	CorrectCommission	1.090488	0.746231	0
73.677544	0.795841	city	1	1	0.847818	0.847818	0	1	0	0	CorrectCommission	1.096326	0.749626	0
74.473343	0.795750	city	4	1	0.797987	0.797987	0	1	0	0	CorrectCommission	0.603837	0.748875	0
75.269119	0.795807	city	6	1	0.804842	0.804842	0	1	0	0	CorrectCommission	0.671591	0.744378	0
76.064919	0.795789	city	8	1	0.798408	0.798408	0	1	0	0	CorrectCommission	0.608003	0.736839	0
76.860695	0.795768	city	3	1	0.800427	0.800427	0	1	0	0	CorrectCommission	0.627959	0.727169	0
77.656487	0.795812	city	10	1	0.863831	0.863831	0	1	0	0	CorrectCommission	1.254587	0.716418	1
78.452332	0.795879	city	5	1	0.897346	0.897346	0	1	0	0	CorrectCommission	1.585827	0.705562	1
79.248306	0.796063	city	3	1	0.757454	0.757454	0	1	0	0	CorrectCommission	0.203246	0.695488	1
80.044106	0.795535	city	6	1	0.748715	0.748715	0	1	0	0	CorrectCommission	0.116876	0.686896	1
80.839775	0.795805	mountain	10	0	0.000000	0.728454	1	0	0	0	CorrectOmission	0.083366	0.680073	1
81.635574	0.795796	city	1	1	0.698546	0.698546	0	1	0	0	CorrectCommission	0.378952	0.674933	1
82.431366	0.795786	mountain	2	0	0.000000	0.660866	1	0	0	0	CorrectOmission	0.751359	0.671012	1
83.227135	0.795753	city	6	1	0.699208	0.699208	0	1	0	0	CorrectCommission	0.372412	0.667583	1
84.022934	0.795841	city	3	1	0.897370	0.897370	0	1	0	0	CorrectCommission	1.586061	0.663793	1
84.818756	0.795804	city	4	1	0.847740	0.847740	0	1	0	0	CorrectCommission	1.095561	0.658707	1
85.614548	0.795779	city	1	1	0.798273	0.798273	0	1	0	0	CorrectCommission	0.606665	0.651706	1
86.410500	0.796124	city	7	1	0.701920	0.701920	0	1	0	0	CorrectCommission	0.345610	0.642500	1
87.206329	0.795538	city	2	1	0.648196	0.648196	0	1	0	0	CorrectCommission	0.876575	0.631256	1
88.002129	0.796061	city	1	1	0.700654	0.700654	0	1	0	0	CorrectCommission	0.358124	0.618646	1
88.797913	0.795506	city	8	1	0.648169	0.648169	0	1	0	0	CorrectCommission	0.876845	0.605838	1
89.593575	0.795819	city	1	1	0.648635	0.648635	0	1	0	0	CorrectCommission	0.872240	0.594323	1
90.389519	0.796064	city	9	1	0.715925	0.715925	0	1	0	0	CorrectCommission	0.207195	0.585799	1
91.185333	0.795563	city	3	1	0.648605	0.648605	0	1	0	0	CorrectCommission	0.872529	0.581915	1
91.981010	0.795791	city	10	1	0.698263	0.698263	0	1	0	0	CorrectCommission	0.381754	0.584011	1
92.776764	0.795731	city	9	1	0.760044	0.760044	0	1	0	0	CorrectCommission	0.228843	0.592944	1
93.572548	0.795836	city	3	1	0.748314	0.748314	0	1	0	0	CorrectCommission	0.112907	0.608894	1
94.368385	0.795840	city	9	1	0.698410	0.698410	0	1	0	0	CorrectCommission	0.380299	0.631271	1
95.164330	0.796036	city	1	1	0.748108	0.748108	0	1	0	0	CorrectCommission	0.110876	0.658714	1
95.960129	0.795562	mountain	2	0	0.000000	0.706427	1	0	0	0	CorrectOmission	0.301062	0.689259	1
96.755814	0.795810	city	1	1	0.698321	0.698321	0	1	0	0	CorrectCommission	0.381175	0.720615	1
97.551613	0.795791	city	10	1	0.848743	0.848743	0	1	0	0	CorrectCommission	1.105476	0.750404	0
98.347382	0.795747	mountain	8	0	0.000000	0.957597	1	0	0	0	CorrectOmission	2.181302	0.776514	0
99.143318	0.796128	city	3	1	0.953841	0.953841	0	1	0	0	CorrectCommission	2.144174	0.797369	0
99.939148	0.795527	city	10	1	0.766431	0.766431	0	1	0	0	CorrectCommission	0.291966	0.812170	0
100.734810	0.795797	city	5	1	0.862336	0.862336	0	1	0	0	CorrectCommission	1.239812	0.821028	0
101.530739	0.796069	city	9	1	0.797701	0.797701	0	1	0	0	CorrectCommission	0.601016	0.824676	0
102.326523	0.795499	city	3	1	0.749051	0.749051	0	1	0	0	CorrectCommission	0.120199	0.824524	0
103.122162	0.795774	city	7	1	0.798523	0.798523	0	1	0	0	CorrectCommission	0.609133	0.822317	0
103.918114	0.796134	city	8	1	0.797763	0.797763	0	1	0	0	CorrectCommission	0.601624	0.819822	0
104.713936	0.795510	city	1	1	0.818804	0.818804	0	1	0	0	CorrectCommission	0.809577	0.818599	0
105.509605	0.795828	city	10	1	0.900997	0.900997	0	1	0	0	CorrectCommission	1.621910	0.819780	0
106.305405	0.795771	city	5	1	0.807275	0.807275	0	1	0	0	CorrectCommission	0.695635	0.823861	0
107.101196	0.795809	city	10	1	0.805136	0.805136	0	1	0	0	CorrectCommission	0.674491	0.830733	0
107.896980	0.795752	city	8	1	0.748336	0.748336	0	1	0	0	CorrectCommission	0.113125	0.839568	0
108.692772	0.795843	city	7	1	0.800504	0.800504	0	1	0	0	CorrectCommission	0.628718	0.848940	0
109.488602	0.795811	mountain	2	0	0.000000	0.808831	1	0	0	0	CorrectOmission	0.711010	0.856965	0
110.284378	0.795735	city	8	1	0.811927	0.811927	0	1	0	0	CorrectCommission	0.741614	0.861576	0
111.080177	0.795870	city	3	1	0.848406	0.848406	0	1	0	0	CorrectCommission	1.102144	0.860771	0
111.876007	0.795797	city	2	1	0.946985	0.946985	0	1	0	0	CorrectCommission	2.076413	0.852857	0
112.671951	0.796083	city	4	1	0.848389	0.848389	0	1	0	0	CorrectCommission	1.101975	0.836716	0
113.467720	0.795463	city	8	1	0.861399	0.861399	0	1	0	0	CorrectCommission	1.230557	0.812022	0
114.263351	0.795796	mountain	10	0	0.000000	0.841543	1	0	0	0	CorrectOmission	1.034315	0.779184	0
115.059189	0.795881	city	6	1	0.813427	0.813427	0	1	0	0	CorrectCommission	0.756436	0.739407	0
115.855034	0.795801	city	9	1	0.801657	0.801657	0	1	0	0	CorrectCommission	0.640109	0.694485	1
116.650826	0.795782	city	7	1	0.757605	0.757605	0	1	0	0	CorrectCommission	0.204742	0.646608	1
117.446617	0.795801	city	10	1	0.811355	0.811355	0	1	0	0	CorrectCommission	0.735956	0.598268	1
118.242424	0.795812	mountain	4	0	0.000000	0.788557	1	0	0	0	CorrectOmission	0.510639	0.551841	1
119.038246	0.795837	city	8	1	0.748466	0.748466	0	1	0	0	CorrectCommission	0.114413	0.509525	1
119.834015	0.795707	city	9	1	0.750336	0.750336	0	1	0	0	CorrectCommission	0.132900	0.473151	1
120.629951	0.796156	city	8	1	0.754825	0.754825	0	1	0	0	CorrectCommission	0.177263	0.444089	1
121.425926	0.795804	city	2	1	0.715067	0.715067	0	1	0	0	CorrectCommission	0.215676	0.423208	1
122.221718	0.795779	city	4	1	0.847168	0.847168	0	1	0	0	CorrectCommission	1.089910	0.410904	1
123.017372	0.795524	city	5	1	0.751575	0.751575	0	1	0	0	CorrectCommission	0.145143	0.407074	1
123.813026	0.795784	mountain	4	0	0.000000	0.742349	1	0	0	0	CorrectOmission	0.053959	0.411326	1
124.608963	0.796085	city	6	1	0.748316	0.748316	0	1	0	0	CorrectCommission	0.112935	0.422900	1
125.404785	0.795570	city	2	1	0.698304	0.698304	0	1	0	0	CorrectCommission	0.381350	0.440776	1
126.200455	0.795767	city	4	1	0.698521	0.698521	0	1	0	0	CorrectCommission	0.379200	0.463710	1
126.996368	0.796056	city	7	1	0.748999	0.748999	0	1	0	0	CorrectCommission	0.119683	0.490324	1
127.792191	0.795591	city	8	1	0.649205	0.649205	0	1	0	0	CorrectCommission	0.866600	0.519180	1
128.587860	0.795749	city	1	1	0.648696	0.648696	0	1	0	0	CorrectCommission	0.871637	0.548865	1
129.383652	0.795817	city	9	1	0.748491	0.748491	0	1	0	0	CorrectCommission	0.114661	0.578134	1
130.179459	0.795820	city	1	1	0.847446	0.847446	0	1	0	0	CorrectCommission	1.092653	0.606007	1
130.975250	0.795761	city	9	1	0.802606	0.802606	0	1	0	0	CorrectCommission	0.649486	0.631771	1
131.771042	0.795802	city	1	1	0.747981	0.747981	0	1	0	0	CorrectCommission	0.109626	0.655118	1
132.566818	0.795771	city	8	1	0.601724	0.601724	0	1	0	0	CorrectCommission	1.335865	0.676171	1
133.362656	0.795889	city	4	1	0.847802	0.847802	0	1	0	0	CorrectCommission	1.096176	0.695358	1
134.158493	0.795780	city	10	1	0.847491	0.847491	0	1	0	0	CorrectCommission	1.093100	0.713406	1
134.954285	0.795823	city	9	1	0.710511	0.710511	0	1	0	0	CorrectCommission	0.260699	0.731170	0
135.750092	0.795792	city	1	1	0.649256	0.649256	0	1	0	0	CorrectCommission	0.866099	0.749523	0
136.546021	0.796069	city	6	1	0.703191	0.703191	0	1	0	0	CorrectCommission	0.333043	0.769065	0
137.341827	0.795533	city	9	1	0.708013	0.708013	0	1	0	0	CorrectCommission	0.285393	0.790088	0
138.137466	0.795758	city	8	1	0.708358	0.708358	0	1	0	0	CorrectCommission	0.281980	0.812432	0
138.933258	0.795814	city	9	1	0.648549	0.648549	0	1	0	0	CorrectCommission	0.873081	0.835477	0
139.729080	0.795834	city	6	1	0.599563	0.599563	0	1	0	0	CorrectCommission	1.357224	0.858141	0
140.524857	0.795720	city	7	1	0.611865	0.611865	0	1	0	0	CorrectCommission	1.235636	0.879068	0
141.320648	0.795866	city	2	1	0.598830	0.598830	0	1	0	0	CorrectCommission	1.364465	0.896789	0
142.116486	0.795804	city	4	1	0.649251	0.649251	0	1	0	0	CorrectCommission	0.866147	0.909871	0
142.912247	0.795721	city	9	1	0.757843	0.757843	0	1	0	0	CorrectCommission	0.207086	0.917100	0
143.708054	0.795901	city	5	1	0.648613	0.648613	0	1	0	0	CorrectCommission	0.872454	0.917600	0
144.503906	0.795797	city	10	1	0.961564	0.961564	0	1	0	0	CorrectCommission	2.220502	0.910893	0
145.299683	0.795761	city	7	1	0.851401	0.851401	0	1	0	0	CorrectCommission	1.131738	0.896918	0
146.095459	0.795775	city	6	1	0.847926	0.847926	0	1	0	0	CorrectCommission	1.097395	0.876114	0
146.891266	0.795834	city	4	1	0.748386	0.748386	0	1	0	0	CorrectCommission	0.113619	0.849289	0
147.687103	0.795842	mountain	4	0	0.000000	0.831177	1	0	0	0	CorrectOmission	0.931866	0.817543	0
148.482895	0.795757	city	4	1	0.897432	0.897432	0	1	0	0	CorrectCommission	1.586677	0.782058	0
149.278687	0.795809	city	5	1	0.748281	0.748281	0	1	0	0	CorrectCommission	0.112590	0.744112	0
150.074493	0.795802	city	8	1	0.698584	0.698584	0	1	0	0	CorrectCommission	0.378579	0.704998	1
150.870438	0.796097	city	3	1	0.850083	0.850083	0	1	0	0	CorrectCommission	1.118714	0.665882	1
151.666260	0.795538	city	9	1	0.709830	0.709830	0	1	0	0	CorrectCommission	0.267433	0.627808	1
152.462051	0.796062	city	5	1	0.714816	0.714816	0	1	0	0	CorrectCommission	0.218158	0.591792	1
153.257980	0.795776	city	7	1	0.648326	0.648326	0	1	0	0	CorrectCommission	0.875289	0.558719	1
154.053619	0.795524	city	6	1	0.650625	0.650625	0	1	0	0	CorrectCommission	0.852565	0.529390	1
154.849304	0.795835	city	10	1	0.804742	0.804742	0	1	0	0	CorrectCommission	0.670599	0.504546	1
155.645233	0.796036	city	7	1	0.759110	0.759110	0	1	0	0	CorrectCommission	0.219609	0.484823	1
156.441025	0.795531	city	5	1	0.748463	0.748463	0	1	0	0	CorrectCommission	0.114384	0.470671	1
157.236710	0.795840	city	8	1	0.699600	0.699600	0	1	0	0	CorrectCommission	0.368541	0.462303	1
158.032532	0.795802	city	9	1	0.759652	0.759652	0	1	0	0	CorrectCommission	0.224963	0.459612	1
158.828308	0.795756	city	10	1	0.748899	0.748899	0	1	0	0	CorrectCommission	0.118697	0.462154	1
159.624069	0.795758	city	3	1	0.752634	0.752634	0	1	0	0	CorrectCommission	0.155612	0.469206	1
160.419861	0.795822	city	7	1	0.797976	0.797976	0	1	0	0	CorrectCommission	0.603733	0.479831	1
161.215820	0.796126	city	9	1	0.758114	0.758114	0	1	0	0	CorrectCommission	0.209770	0.492948	1
162.011642	0.795515	mountain	6	0	0.000000	0.654868	1	0	0	0	CorrectOmission	0.810635	0.507516	1
162.807465	0.796105	city	3	1	0.599137	0.599137	0	1	0	0	CorrectCommission	1.361430	0.522690	1
163.603287	0.795542	city	7	1	0.701824	0.701824	0	1	0	0	CorrectCommission	0.346563	0.537928	1
164.399063	0.796034	city	10	1	0.698592	0.698592	0	1	0	0	CorrectCommission	0.378500	0.553183	1
165.194824	0.795489	mountain	2	0	0.000000	0.671921	1	0	0	0	CorrectOmission	0.642095	0.568656	1
165.990646	0.796130	city	4	1	0.648579	0.648579	0	1	0	0	CorrectCommission	0.872787	0.584825	1
166.786469	0.795537	city	8	1	0.655335	0.655335	0	1	0	0	CorrectCommission	0.806016	0.602331	1
167.582108	0.795721	city	7	1	0.698534	0.698534	0	1	0	0	CorrectCommission	0.379077	0.621740	1
168.377899	0.795863	city	4	1	0.748322	0.748322	0	1	0	0	CorrectCommission	0.112991	0.643391	1
169.173737	0.795813	mountain	1	0	0.000000	0.715050	1	0	0	0	CorrectOmission	0.215844	0.667261	1
169.969543	0.795810	city	2	1	0.698520	0.698520	0	1	0	0	CorrectCommission	0.379211	0.692840	1
170.765335	0.795781	city	3	1	0.798535	0.798535	0	1	0	0	CorrectCommission	0.609257	0.719196	1
171.561111	0.795757	city	10	1	0.797837	0.797837	0	1	0	0	CorrectCommission	0.602359	0.745024	0
172.356918	0.795871	city	1	1	0.897757	0.897757	0	1	0	0	CorrectCommission	1.589884	0.768877	0
173.152771	0.795811	city	7	1	0.863990	0.863990	0	1	0	0	CorrectCommission	1.256161	0.789289	0
173.948532	0.795733	city	3	1	0.798160	0.798160	0	1	0	0	CorrectCommission	0.605551	0.805063	0
174.744293	0.795785	city	6	1	0.868594	0.868594	0	1	0	0	CorrectCommission	1.301660	0.815362	0
175.540253	0.796133	city	3	1	0.897682	0.897682	0	1	0	0	CorrectCommission	1.589141	0.819776	0
176.336060	0.795487	city	6	1	0.798263	0.798263	0	1	0	0	CorrectCommission	0.606571	0.818327	0
177.131744	0.795858	city	5	1	0.700900	0.700900	0	1	0	0	CorrectCommission	0.355685	0.811489	0
177.927551	0.795783	mountain	4	0	0.000000	0.708274	1	0	0	0	CorrectOmission	0.282815	0.799995	0
178.723358	0.795821	city	10	1	0.797825	0.797825	0	1	0	0	CorrectCommission	0.602244	0.784737	0
179.519180	0.795812	city	6	1	0.946999	0.946999	0	1	0	0	CorrectCommission	2.076551	0.766699	0
180.314941	0.795716	city	3	1	0.747977	0.747977	0	1	0	0	CorrectCommission	0.109585	0.746798	0
181.110733	0.795858	mountain	6	0	0.000000	0.650890	1	0	0	0	CorrectOmission	0.849948	0.726107	0
181.906525	0.795742	city	5	1	0.648628	0.648628	0	1	0	0	CorrectCommission	0.872307	0.705609	1
182.702347	0.795898	mountain	3	0	0.000000	0.734081	1	0	0	0	CorrectOmission	0.027754	0.686321	1
183.498169	0.795757	mountain	7	0	0.000000	0.827108	1	0	0	0	CorrectOmission	0.891653	0.669315	1
184.293945	0.795785	city	3	1	0.847568	0.847568	0	1	0	0	CorrectCommission	1.093858	0.655639	1
185.089752	0.795829	city	2	1	0.715318	0.715318	0	1	0	0	CorrectCommission	0.213196	0.646385	1
185.885544	0.795743	city	4	1	0.848177	0.848177	0	1	0	0	CorrectCommission	1.099879	0.642669	1
186.681320	0.795817	city	3	1	0.752349	0.752349	0	1	0	0	CorrectCommission	0.152788	0.645336	1
187.477142	0.795834	city	6	1	0.804752	0.804752	0	1	0	0	CorrectCommission	0.670701	0.655025	1
188.272964	0.795802	mountain	3	0	0.000000	0.758202	1	0	0	0	CorrectOmission	0.210641	0.671870	1
189.068787	0.795836	city	1	1	0.707737	0.707737	0	1	0	0	CorrectCommission	0.288117	0.695523	1
189.864731	0.796077	city	10	1	0.748394	0.748394	0	1	0	0	CorrectCommission	0.113699	0.724982	0
190.660522	0.795482	city	7	1	0.849740	0.849740	0	1	0	0	CorrectCommission	1.115327	0.758661	0
191.456314	0.796112	city	1	1	0.698531	0.698531	0	1	0	0	CorrectCommission	0.379103	0.794413	0
192.252274	0.795800	city	10	1	0.847895	0.847895	0	1	0	0	CorrectCommission	1.097092	0.829812	0
193.047928	0.795510	city	6	1	0.909610	0.909610	0	1	0	0	CorrectCommission	1.707037	0.862236	0
193.843582	0.795796	city	2	1	0.798682	0.798682	0	1	0	0	CorrectCommission	0.610710	0.889196	0
194.639389	0.795830	city	3	1	0.864906	0.864906	0	1	0	0	CorrectCommission	1.265218	0.908644	0
195.435165	0.795709	city	5	1	0.807168	0.807168	0	1	0	0	CorrectCommission	0.694575	0.919105	0
196.230942	0.795844	city	9	1	0.855060	0.855060	0	1	0	0	CorrectCommission	1.167899	0.919842	0
197.026794	0.795860	mountain	7	0	0.000000	0.925637	1	0	0	0	CorrectOmission	1.865427	0.910859	0
197.822754	0.796070	city	9	1	0.897269	0.897269	0	1	0	0	CorrectCommission	1.585067	0.893023	0
198.618683	0.795780	city	1	1	0.648328	0.648328	0	1	0	0	CorrectCommission	0.875271	0.867889	0
199.414307	0.795463	city	10	1	0.707871	0.707871	0	1	0	0	CorrectCommission	0.286797	0.837542	0
200.210098	0.796143	city	8	1	0.698721	0.698721	0	1	0	0	CorrectCommission	0.377226	0.804336	0
201.005936	0.795507	city	9	1	0.897197	0.897197	0	1	0	0	CorrectCommission	1.584357	0.770622	0
201.801590	0.795812	city	3	1	0.748045	0.748045	0	1	0	0	CorrectCommission	0.110252	0.738467	0
202.597382	0.795790	city	7	1	0.708205	0.708205	0	1	0	0	CorrectCommission	0.283495	0.709652	1
203.393341	0.796113	mountain	6	0	0.000000	0.737994	1	0	0	0	CorrectOmission	0.010915	0.685367	1
204.189148	0.795495	city	2	1	0.797731	0.797731	0	1	0	0	CorrectCommission	0.601307	0.666259	1
204.984772	0.795754	city	9	1	0.847734	0.847734	0	1	0	0	CorrectCommission	1.095502	0.652415	1
205.780548	0.795797	city	7	1	0.850202	0.850202	0	1	0	0	CorrectCommission	1.119888	0.643469	1
206.576370	0.795849	mountain	2	0	0.000000	0.726034	1	0	0	0	CorrectOmission	0.107281	0.638764	1
207.372177	0.795758	city	3	1	0.650883	0.650883	0	1	0	0	CorrectCommission	0.850017	0.637485	1
208.167938	0.795792	city	5	1	0.800398	0.800398	0	1	0	0	CorrectCommission	0.627671	0.638699	1
208.963760	0.795838	mountain	10	0	0.000000	0.732743	1	0	0	0	CorrectOmission	0.040975	0.641570	1
209.759567	0.795787	city	10	1	0.698395	0.698395	0	1	0	0	CorrectCommission	0.380445	0.645373	1
210.555542	0.796152	city	4	1	0.947830	0.947830	0	1	0	0	CorrectCommission	2.084766	0.649519	1
211.351349	0.795453	city	3	1	0.755307	0.755307	0	1	0	0	CorrectCommission	0.182029	0.653594	1
212.146988	0.795838	city	5	1	0.748775	0.748775	0	1	0	0	CorrectCommission	0.117468	0.657459	1
212.942825	0.795823	city	9	1	0.662298	0.662298	0	1	0	0	CorrectCommission	0.737198	0.661092	1
213.738770	0.796087	city	2	1	0.655679	0.655679	0	1	0	0	CorrectCommission	0.802622	0.664558	1
214.534561	0.795497	city	10	1	0.598831	0.598831	0	1	0	0	CorrectCommission	1.364456	0.667935	1
215.330215	0.795789	mountain	9	0	0.000000	0.703387	1	0	0	0	CorrectOmission	0.331115	0.671273	1
216.126160	0.796119	city	6	1	0.807778	0.807778	0	1	0	0	CorrectCommission	0.700606	0.674613	1
216.921967	0.795494	city	1	1	0.750439	0.750439	0	1	0	0	CorrectCommission	0.133912	0.677830	1
217.717636	0.795838	city	8	1	0.715965	0.715965	0	1	0	0	CorrectCommission	0.206803	0.680728	1
218.513458	0.795802	city	6	1	0.867687	0.867687	0	1	0	0	CorrectCommission	1.292703	0.682969	1
219.309265	0.795810	city	2	1	0.804987	0.804987	0	1	0	0	CorrectCommission	0.673026	0.684199	1
220.105026	0.795724	city	1	1	0.848170	0.848170	0	1	0	0	CorrectCommission	1.099812	0.684221	1
220.900818	0.795841	city	4	1	0.707855	0.707855	0	1	0	0	CorrectCommission	0.286952	0.683026	1
221.696625	0.795797	city	8	1	0.649646	0.649646	0	1	0	0	CorrectCommission	0.862241	0.680930	1
222.492432	0.795792	mountain	9	0	0.000000	0.771816	1	0	0	0	CorrectOmission	0.345188	0.678522	1
223.288239	0.795834	city	6	1	0.898157	0.898157	0	1	0	0	CorrectCommission	1.593844	0.676781	1
224.084061	0.795806	mountain	7	0	0.000000	0.852463	1	0	0	0	CorrectOmission	1.142238	0.676937	1
224.879852	0.795774	city	8	1	0.748469	0.748469	0	1	0	0	CorrectCommission	0.114443	0.680412	1
225.675781	0.796099	mountain	2	0	0.000000	0.699911	1	0	0	0	CorrectOmission	0.365468	0.688586	1
226.471588	0.795504	city	1	1	0.699337	0.699337	0	1	0	0	CorrectCommission	0.371135	0.702543	1
227.267258	0.795843	mountain	5	0	0.000000	0.739298	1	0	0	0	CorrectOmission	0.023802	0.722891	1
228.063065	0.795757	city	2	1	0.798164	0.798164	0	1	0	0	CorrectCommission	0.605592	0.749536	0
228.858841	0.795809	city	7	1	0.854309	0.854309	0	1	0	0	CorrectCommission	1.160482	0.781617	0
229.654648	0.795789	city	10	1	0.747965	0.747965	0	1	0	0	CorrectCommission	0.109459	0.817506	0
230.450592	0.796118	city	5	1	0.806856	0.806856	0	1	0	0	CorrectCommission	0.691494	0.854949	0
231.246414	0.795512	city	4	1	0.865923	0.865923	0	1	0	0	CorrectCommission	1.275262	0.891158	0
232.042221	0.796095	city	9	1	0.599745	0.599745	0	1	0	0	CorrectCommission	1.355420	0.923124	0
232.838150	0.795783	city	5	1	0.610576	0.610576	0	1	0	0	CorrectCommission	1.248384	0.947987	0
233.633804	0.795506	city	4	1	0.847900	0.847900	0	1	0	0	CorrectCommission	1.097143	0.963289	0
234.429428	0.795748	city	3	1	0.798110	0.798110	0	1	0	0	CorrectCommission	0.605052	0.967289	0
235.225235	0.795886	city	2	1	0.864380	0.864380	0	1	0	0	CorrectCommission	1.260019	0.959147	0
236.021042	0.795710	city	6	1	0.964633	0.964633	0	1	0	0	CorrectCommission	2.250840	0.938954	0
236.816986	0.796177	city	4	1	0.949827	0.949827	0	1	0	0	CorrectCommission	2.104503	0.907799	0
237.612839	0.795528	mountain	5	0	0.000000	0.813446	1	0	0	0	CorrectOmission	0.756621	0.867628	0
238.408493	0.795784	city	10	1	0.698680	0.698680	0	1	0	0	CorrectCommission	0.377632	0.821089	0
239.204285	0.795794	city	9	1	0.748719	0.748719	0	1	0	0	CorrectCommission	0.116918	0.771186	0
240.000229	0.796102	city	1	1	0.669134	0.669134	0	1	0	0	CorrectCommission	0.669639	0.721001	1
240.796021	0.795479	mountain	6	0	0.000000	0.712382	1	0	0	0	CorrectOmission	0.242214	0.673336	1
241.591675	0.795841	city	9	1	0.761247	0.761247	0	1	0	0	CorrectCommission	0.240729	0.630653	1
242.387634	0.796078	city	6	1	0.698513	0.698513	0	1	0	0	CorrectCommission	0.379277	0.594933	1
243.183578	0.795802	city	9	1	0.657925	0.657925	0	1	0	0	CorrectCommission	0.780416	0.567618	1
243.979202	0.795453	city	5	1	0.698821	0.698821	0	1	0	0	CorrectCommission	0.376232	0.549631	1
244.775009	0.796146	mountain	6	0	0.000000	0.672331	1	0	0	0	CorrectOmission	0.638046	0.541506	1
245.570969	0.795783	city	5	1	0.648662	0.648662	0	1	0	0	CorrectCommission	0.871968	0.543390	1
246.366776	0.795830	city	2	1	0.698025	0.698025	0	1	0	0	CorrectCommission	0.384108	0.555019	1
247.162415	0.795460	mountain	4	0	0.000000	0.729639	1	0	0	0	CorrectOmission	0.071660	0.575828	1
247.958206	0.796121	mountain	3	0	0.000000	0.736592	1	0	0	0	CorrectOmission	0.002935	0.604820	1
248.754028	0.795515	city	1	1	0.711974	0.711974	0	1	0	0	CorrectCommission	0.246246	0.640558	1
249.549698	0.795840	city	2	1	0.648871	0.648871	0	1	0	0	CorrectCommission	0.869904	0.681120	1
250.345520	0.795778	city	1	1	0.649303	0.649303	0	1	0	0	CorrectCommission	0.865632	0.724204	1
251.141266	0.795733	city	9	1	0.648494	0.648494	0	1	0	0	CorrectCommission	0.873626	0.767222	0
251.937027	0.795792	city	2	1	0.655285	0.655285	0	1	0	0	CorrectCommission	0.806512	0.807479	0
252.732834	0.795806	city	4	1	0.755585	0.755585	0	1	0	0	CorrectCommission	0.184768	0.842389	0
253.528809	0.796142	city	5	1	0.699038	0.699038	0	1	0	0	CorrectCommission	0.374093	0.869767	0
254.324631	0.795513	city	4	1	0.997673	0.997673	0	1	0	0	CorrectCommission	2.577381	0.888002	0
255.120438	0.796106	mountain	9	0	0.000000	0.979665	1	0	0	0	CorrectOmission	2.399401	0.896248	0
255.916214	0.795446	city	9	1	0.849100	0.849100	0	1	0	0	CorrectCommission	1.109003	0.894614	0
256.711853	0.795815	city	7	1	0.810067	0.810067	0	1	0	0	CorrectCommission	0.723226	0.884104	0
257.507690	0.795855	city	9	1	0.648698	0.648698	0	1	0	0	CorrectCommission	0.871615	0.866310	0
258.303467	0.795731	city	8	1	0.649347	0.649347	0	1	0	0	CorrectCommission	0.865203	0.843249	0
259.099243	0.795819	city	4	1	0.748884	0.748884	0	1	0	0	CorrectCommission	0.118549	0.817033	0
259.895233	0.796142	city	5	1	0.748485	0.748485	0	1	0	0	CorrectCommission	0.114598	0.789595	0
260.691040	0.795457	city	6	1	0.847221	0.847221	0	1	0	0	CorrectCommission	1.090431	0.762407	0
261.486664	0.795790	city	3	1	0.763500	0.763500	0	1	0	0	CorrectCommission	0.262994	0.736454	0
262.282471	0.795856	city	4	1	0.798241	0.798241	0	1	0	0	CorrectCommission	0.606348	0.712202	1
263.078308	0.795774	city	7	1	0.665973	0.665973	0	1	0	0	CorrectCommission	0.700884	0.689695	1
263.874115	0.795848	city	2	1	0.599672	0.599672	0	1	0	0	CorrectCommission	1.356144	0.668757	1
264.670044	0.796060	city	9	1	0.698536	0.698536	0	1	0	0	CorrectCommission	0.379053	0.649189	1
265.465851	0.795531	city	6	1	0.598684	0.598684	0	1	0	0	CorrectCommission	1.365908	0.631042	1
266.261505	0.795751	city	7	1	0.649242	0.649242	0	1	0	0	CorrectCommission	0.866238	0.614554	1
267.057434	0.796118	city	6	1	0.698578	0.698578	0	1	0	0	CorrectCommission	0.378642	0.600317	1
267.853271	0.795567	city	8	1	0.748316	0.748316	0	1	0	0	CorrectCommission	0.112932	0.589118	1
268.649078	0.796051	city	7	1	0.798396	0.798396	0	1	0	0	CorrectCommission	0.607878	0.581794	1
269.444855	0.795515	city	6	1	0.748019	0.748019	0	1	0	0	CorrectCommission	0.110000	0.579006	1
270.240540	0.795838	city	7	1	0.750796	0.750796	0	1	0	0	CorrectCommission	0.137440	0.581145	1
271.036499	0.796082	city	3	1	0.704029	0.704029	0	1	0	0	CorrectCommission	0.324762	0.588128	1
271.832306	0.795508	city	4	1	0.847221	0.847221	0	1	0	0	CorrectCommission	1.090433	0.599244	1
272.627930	0.795784	city	7	1	0.764437	0.764437	0	1	0	0	CorrectCommission	0.272258	0.613280	1
273.423767	0.795844	city	8	1	0.648756	0.648756	0	1	0	0	CorrectCommission	0.871037	0.628694	1
274.219543	0.795764	city	9	1	0.798450	0.798450	0	1	0	0	CorrectCommission	0.608420	0.643700	1
275.015350	0.795797	city	4	1	0.717628	0.717628	0	1	0	0	CorrectCommission	0.190360	0.656585	1
275.811096	0.795745	city	6	1	0.748835	0.748835	0	1	0	0	CorrectCommission	0.118059	0.665895	1
276.607056	0.796159	city	7	1	0.997427	0.997427	0	1	0	0	CorrectCommission	2.574948	0.670656	1
277.403046	0.795813	mountain	1	0	0.000000	0.822205	1	0	0	0	CorrectOmission	0.843191	0.670431	1
278.198730	0.795526	city	10	1	0.598864	0.598864	0	1	0	0	CorrectCommission	1.364127	0.665548	1
278.994324	0.795710	city	7	1	0.703103	0.703103	0	1	0	0	CorrectCommission	0.333922	0.656861	1
279.790131	0.795875	city	2	1	0.748364	0.748364	0	1	0	0	CorrectCommission	0.113405	0.645709	1
280.585968	0.795785	city	5	1	0.819046	0.819046	0	1	0	0	CorrectCommission	0.811971	0.633606	1
281.381744	0.795817	city	8	1	0.754612	0.754612	0	1	0	0	CorrectCommission	0.175160	0.621958	1
282.177582	0.795818	city	10	1	0.798534	0.798534	0	1	0	0	CorrectCommission	0.609248	0.612001	1
282.973358	0.795747	city	2	1	0.748700	0.748700	0	1	0	0	CorrectCommission	0.116724	0.604460	1
283.769135	0.795811	mountain	2	0	0.000000	0.730221	1	0	0	0	CorrectOmission	0.065905	0.599628	1
284.564941	0.795803	city	4	1	0.698355	0.698355	0	1	0	0	CorrectCommission	0.380844	0.597317	1
285.360748	0.795809	city	1	1	0.608358	0.608358	0	1	0	0	CorrectCommission	1.270297	0.597010	1
286.156708	0.796115	city	10	1	0.898056	0.898056	0	1	0	0	CorrectCommission	1.592837	0.597991	1
286.952515	0.795515	city	6	1	0.712379	0.712379	0	1	0	0	CorrectCommission	0.242243	0.599641	1
287.748169	0.795753	city	8	1	0.798634	0.798634	0	1	0	0	CorrectCommission	0.610230	0.601602	1
288.543945	0.795817	city	6	1	0.748314	0.748314	0	1	0	0	CorrectCommission	0.112908	0.603836	1
289.339752	0.795782	city	9	1	0.698733	0.698733	0	1	0	0	CorrectCommission	0.377110	0.606743	1
290.135529	0.795811	city	5	1	0.606598	0.606598	0	1	0	0	CorrectCommission	1.287696	0.611175	1
290.931366	0.795823	city	7	1	0.648600	0.648600	0	1	0	0	CorrectCommission	0.872579	0.618247	1
291.727325	0.796102	city	2	1	0.698619	0.698619	0	1	0	0	CorrectCommission	0.378235	0.629344	1
292.523224	0.795702	city	7	1	0.797661	0.797661	0	1	0	0	CorrectCommission	0.600618	0.645872	1
293.318878	0.795602	city	5	1	0.698362	0.698362	0	1	0	0	CorrectCommission	0.380778	0.669063	1
294.114563	0.795799	mountain	4	0	0.000000	0.748296	1	0	0	0	CorrectOmission	0.112732	0.699717	1
294.910522	0.796113	city	6	1	0.798199	0.798199	0	1	0	0	CorrectCommission	0.605935	0.738108	0
295.706482	0.795789	city	2	1	0.698807	0.698807	0	1	0	0	CorrectCommission	0.376380	0.783786	0
296.502136	0.795492	city	3	1	0.766762	0.766762	0	1	0	0	CorrectCommission	0.295236	0.835696	0
297.297791	0.795826	city	5	1	0.847521	0.847521	0	1	0	0	CorrectCommission	1.093391	0.892169	0
298.093750	0.796090	city	8	1	0.848424	0.848424	0	1	0	0	CorrectCommission	1.102322	0.951029	0
298.889526	0.795467	city	10	1	0.896989	0.896989	0	1	0	0	CorrectCommission	1.582300	1.009896	0
299.685181	0.795846	city	7	1	0.847976	0.847976	0	1	0	0	CorrectCommission	1.097893	1.066338	0
300.481018	0.795833	city	10	1	0.848257	0.848257	0	1	0	0	CorrectCommission	1.100672	1.118161	0
301.276825	0.795771	city	1	1	0.648752	0.648752	0	1	0	0	CorrectCommission	0.871075	1.163528	0
302.072601	0.795778	city	5	1	0.561863	0.561863	0	1	0	0	CorrectCommission	1.729816	1.201104	0
302.868530	0.796119	city	1	1	0.606408	0.606408	0	1	0	0	CorrectCommission	1.289573	1.230038	0
303.664368	0.795516	city	2	1	0.548984	0.548984	0	1	0	0	CorrectCommission	1.857108	1.250028	0
304.459991	0.795729	city	1	1	0.549155	0.549155	0	1	0	0	CorrectCommission	1.855413	1.261195	0
305.255768	0.795863	city	8	1	0.503402	0.503402	0	1	0	0	CorrectCommission	2.307598	1.263951	0
306.051575	0.795764	city	7	1	0.699957	0.699957	0	1	0	0	CorrectCommission	0.365011	1.258803	0
306.847351	0.795786	city	9	1	0.698609	0.698609	0	1	0	0	CorrectCommission	0.378333	1.246350	0
307.643158	0.795833	city	3	1	0.698661	0.698661	0	1	0	0	CorrectCommission	0.377817	1.227024	0
308.439026	0.795845	city	8	1	0.599669	0.599669	0	1	0	0	CorrectCommission	1.356175	1.201214	0
309.234833	0.795809	city	1	1	0.501780	0.501780	0	1	0	0	CorrectCommission	2.323635	1.169365	0
310.030762	0.796056	city	3	1	0.599507	0.599507	0	1	0	0	CorrectCommission	1.357779	1.132095	0
310.826691	0.795807	city	7	1	0.648629	0.648629	0	1	0	0	CorrectCommission	0.872297	1.090431	0
311.622345	0.795469	city	1	1	0.556272	0.556272	0	1	0	0	CorrectCommission	1.785080	1.045895	0
312.417969	0.795793	city	10	1	0.904245	0.904245	0	1	0	0	CorrectCommission	1.654013	1.000553	0
313.213928	0.796117	city	4	1	0.859860	0.859860	0	1	0	0	CorrectCommission	1.215338	0.957022	0
314.009766	0.795535	city	7	1	0.798371	0.798371	0	1	0	0	CorrectCommission	0.607635	0.918179	0
314.805420	0.795793	city	2	1	0.764956	0.764956	0	1	0	0	CorrectCommission	0.277389	0.886957	0
315.601227	0.795828	mountain	9	0	0.000000	0.748359	1	0	0	0	CorrectOmission	0.113360	0.865979	0
316.397064	0.795824	mountain	2	0	0.000000	0.738522	1	0	0	0	CorrectOmission	0.016136	0.857252	0
317.192963	0.796015	mountain	1	0	0.000000	0.725385	1	0	0	0	CorrectOmission	0.113698	0.861959	0
317.988770	0.795552	city	2	1	0.698890	0.698890	0	1	0	0	CorrectCommission	0.375555	0.880294	0
318.784424	0.795810	city	8	1	0.648978	0.648978	0	1	0	0	CorrectCommission	0.868847	0.911432	0
319.580261	0.795824	city	2	1	0.598807	0.598807	0	1	0	0	CorrectCommission	1.364696	0.953680	0
320.376038	0.795717	city	4	1	0.549839	0.549839	0	1	0	0	CorrectCommission	1.848657	1.004732	0
321.171814	0.795861	city	2	1	0.648624	0.648624	0	1	0	0	CorrectCommission	0.872343	1.061909	0
321.967651	0.795793	city	3	1	0.649288	0.649288	0	1	0	0	CorrectCommission	0.865784	1.122477	0
322.763428	0.795750	city	4	1	0.669659	0.669659	0	1	0	0	CorrectCommission	0.664453	1.183754	0
323.559174	0.795791	city	6	1	0.649213	0.649213	0	1	0	0	CorrectCommission	0.866525	1.243405	0
324.355011	0.795882	city	9	1	0.500417	0.500417	0	1	0	0	CorrectCommission	2.337099	1.299465	0
325.150818	0.795730	city	10	1	0.513678	0.513678	0	1	0	0	CorrectCommission	2.206043	1.350332	0
325.946777	0.796153	city	1	1	0.648638	0.648638	0	1	0	0	CorrectCommission	0.872203	1.394852	0
326.742737	0.795781	city	4	1	0.797699	0.797699	0	1	0	0	CorrectCommission	0.600995	1.432136	0
327.538391	0.795547	mountain	6	0	0.000000	0.994827	1	0	0	0	CorrectOmission	2.549254	1.461521	0
328.334015	0.795710	city	9	1	1.046466	1.046466	0	1	0	0	CorrectCommission	3.059608	1.482381	0
329.129822	0.795896	city	1	1	0.759058	0.759058	0	1	0	0	CorrectCommission	0.219093	1.494126	0
329.925629	0.795715	city	4	1	0.650821	0.650821	0	1	0	0	CorrectCommission	0.850628	1.496273	0
330.721405	0.795808	city	6	1	0.648638	0.648638	0	1	0	0	CorrectCommission	0.872201	1.488302	0
331.517395	0.796159	city	3	1	0.549890	0.549890	0	1	0	0	CorrectCommission	1.848150	1.469909	0
332.313202	0.795454	city	10	1	0.453540	0.453540	0	1	0	0	CorrectCommission	2.800395	1.441103	0
333.108826	0.795842	mountain	4	1	0.450565	0.450565	0	0	1	0	CommissionError	2.829798	1.402360	0
333.904633	0.795779	city	1	1	0.648510	0.648510	0	1	0	0	CorrectCommission	0.873473	1.354774	0
334.700592	0.796127	city	3	1	0.652489	0.652489	0	1	0	0	CorrectCommission	0.834150	1.300179	0
335.496399	0.795485	city	9	1	0.599433	0.599433	0	1	0	0	CorrectCommission	1.358510	1.240971	0
336.292053	0.795816	city	5	1	0.549398	0.549398	0	1	0	0	CorrectCommission	1.853011	1.180012	0
337.087891	0.795831	city	7	1	0.600631	0.600631	0	1	0	0	CorrectCommission	1.346673	1.120380	0
337.883667	0.795775	city	4	1	0.797723	0.797723	0	1	0	0	CorrectCommission	0.601232	1.065119	0
338.679474	0.795825	city	7	1	0.748307	0.748307	0	1	0	0	CorrectCommission	0.112844	1.016975	0
339.475281	0.795800	city	2	1	0.698748	0.698748	0	1	0	0	CorrectCommission	0.376960	0.978063	0
340.271088	0.795760	city	3	1	0.754883	0.754883	0	1	0	0	CorrectCommission	0.177836	0.949671	0
341.066895	0.795858	city	9	1	0.599075	0.599075	0	1	0	0	CorrectCommission	1.362050	0.932190	0
341.862701	0.795746	city	8	1	0.748845	0.748845	0	1	0	0	CorrectCommission	0.118156	0.924976	0
342.658600	0.796083	city	5	1	0.611166	0.611166	0	1	0	0	CorrectCommission	1.242553	0.926663	0
343.454437	0.795566	city	6	1	0.897696	0.897696	0	1	0	0	CorrectCommission	1.589287	0.935144	0
344.250244	0.796050	city	9	1	0.848662	0.848662	0	1	0	0	CorrectCommission	1.104672	0.947916	0
345.046021	0.795517	city	5	1	0.747704	0.747704	0	1	0	0	CorrectCommission	0.106881	0.962258	0
345.841827	0.796102	city	2	1	0.655357	0.655357	0	1	0	0	CorrectCommission	0.805803	0.975490	0
346.637604	0.795460	city	10	1	0.598532	0.598532	0	1	0	0	CorrectCommission	1.367410	0.985238	0
347.433258	0.795858	mountain	2	1	0.550065	0.550065	0	0	1	0	CommissionError	1.846425	0.989546	0
348.229065	0.795741	city	8	1	0.616005	0.616005	0	1	0	0	CorrectCommission	1.194728	0.987065	0
349.024841	0.795838	city	6	1	0.702390	0.702390	0	1	0	0	CorrectCommission	0.340963	0.977150	0
349.820648	0.795771	city	1	1	0.648518	0.648518	0	1	0	0	CorrectCommission	0.873391	0.959856	0
350.616455	0.795837	city	8	1	0.561575	0.561575	0	1	0	0	CorrectCommission	1.732666	0.935894	0
351.412292	0.795815	city	10	1	0.515859	0.515859	0	1	0	0	CorrectCommission	2.184491	0.906617	0
352.208252	0.796096	city	1	1	0.648735	0.648735	0	1	0	0	CorrectCommission	0.871243	0.873839	0
353.004028	0.795497	mountain	6	0	0.000000	0.734970	1	0	0	0	CorrectOmission	0.018969	0.839717	0
353.799683	0.795769	city	2	1	0.758391	0.758391	0	1	0	0	CorrectCommission	0.212509	0.806424	0
354.595490	0.795857	city	3	1	0.702829	0.702829	0	1	0	0	CorrectCommission	0.336629	0.775973	0
355.391449	0.796061	mountain	4	0	0.000000	0.655363	1	0	0	0	CorrectOmission	0.805739	0.750026	0
356.187256	0.795537	city	8	1	0.648591	0.648591	0	1	0	0	CorrectCommission	0.872671	0.729744	0
356.983063	0.796087	city	10	1	0.715107	0.715107	0	1	0	0	CorrectCommission	0.215280	0.715698	1
357.778992	0.795799	city	1	1	0.848451	0.848451	0	1	0	0	CorrectCommission	1.102587	0.707888	1
358.574615	0.795442	city	10	1	0.809364	0.809364	0	1	0	0	CorrectCommission	0.716286	0.705649	1
359.370422	0.796169	city	3	1	0.797852	0.797852	0	1	0	0	CorrectCommission	0.602501	0.707908	1
360.166260	0.795507	city	4	1	0.747805	0.747805	0	1	0	0	CorrectCommission	0.107879	0.713176	1
360.962067	0.796080	city	2	1	0.760561	0.760561	0	1	0	0	CorrectCommission	0.233949	0.719736	1
361.757843	0.795510	city	3	1	0.847559	0.847559	0	1	0	0	CorrectCommission	1.093769	0.725803	0
362.553528	0.795840	city	4	1	0.847782	0.847782	0	1	0	0	CorrectCommission	1.095976	0.729696	0
363.349304	0.795719	mountain	6	0	0.000000	0.862607	1	0	0	0	CorrectOmission	1.242497	0.730006	0
364.145111	0.795867	mountain	7	0	0.000000	0.857513	1	0	0	0	CorrectOmission	1.192145	0.725681	0
364.940948	0.795822	city	4	1	0.797976	0.797976	0	1	0	0	CorrectCommission	0.603732	0.716120	1
365.736847	0.795964	city	8	1	0.649475	0.649475	0	1	0	0	CorrectCommission	0.863930	0.701245	1
366.532593	0.795541	city	4	1	0.811922	0.811922	0	1	0	0	CorrectCommission	0.741559	0.681382	1
367.328278	0.795845	city	10	1	0.753069	0.753069	0	1	0	0	CorrectCommission	0.159910	0.657236	1
368.124115	0.795841	city	8	1	0.652420	0.652420	0	1	0	0	CorrectCommission	0.834832	0.629819	1
368.919952	0.795785	city	10	1	0.698242	0.698242	0	1	0	0	CorrectCommission	0.381955	0.600320	1
369.715729	0.795770	city	5	1	0.848220	0.848220	0	1	0	0	CorrectCommission	1.100304	0.570140	1
370.511536	0.795852	city	2	1	0.798593	0.798593	0	1	0	0	CorrectCommission	0.609833	0.540740	1
371.307495	0.796071	city	10	1	0.699746	0.699746	0	1	0	0	CorrectCommission	0.367091	0.513593	1
372.103271	0.795494	city	2	1	0.748047	0.748047	0	1	0	0	CorrectCommission	0.110275	0.490106	1
372.898956	0.795849	city	5	1	0.757577	0.757577	0	1	0	0	CorrectCommission	0.204463	0.471496	1
373.694763	0.795775	city	7	1	0.797734	0.797734	0	1	0	0	CorrectCommission	0.601340	0.458702	1
374.490540	0.795785	city	2	1	0.798503	0.798503	0	1	0	0	CorrectCommission	0.608941	0.452333	1
375.286346	0.795807	mountain	2	0	0.000000	0.773377	1	0	0	0	CorrectOmission	0.360619	0.452582	1
376.082123	0.795790	city	8	1	0.748075	0.748075	0	1	0	0	CorrectCommission	0.110548	0.459208	1
376.877960	0.795858	city	9	1	0.748313	0.748313	0	1	0	0	CorrectCommission	0.112906	0.471522	1
377.673767	0.795774	city	5	1	0.748202	0.748202	0	1	0	0	CorrectCommission	0.111802	0.488417	1
378.469696	0.796095	city	2	1	0.720152	0.720152	0	1	0	0	CorrectCommission	0.165421	0.508518	1
379.265503	0.795471	city	9	1	0.748522	0.748522	0	1	0	0	CorrectCommission	0.114969	0.530340	1
380.061096	0.795763	city	2	1	0.648588	0.648588	0	1	0	0	CorrectCommission	0.872704	0.552510	1
380.856934	0.795900	city	10	1	0.947928	0.947928	0	1	0	0	CorrectCommission	2.085733	0.573939	1
381.652771	0.795784	city	1	1	0.859459	0.859459	0	1	0	0	CorrectCommission	1.211382	0.593978	1
382.448547	0.795764	mountain	2	0	0.000000	0.784526	1	0	0	0	CorrectOmission	0.470799	0.612656	1
383.244507	0.796128	mountain	5	0	0.000000	0.728868	1	0	0	0	CorrectOmission	0.079277	0.630605	1
384.040466	0.795801	city	9	1	0.698227	0.698227	0	1	0	0	CorrectCommission	0.382108	0.648926	1
384.836121	0.795488	city	4	1	0.698343	0.698343	0	1	0	0	CorrectCommission	0.380957	0.669035	1
385.631744	0.795795	city	5	1	0.649471	0.649471	0	1	0	0	CorrectCommission	0.863969	0.692461	1
386.427551	0.795810	city	4	1	0.699084	0.699084	0	1	0	0	CorrectCommission	0.373636	0.720607	1
387.223389	0.795845	city	6	1	0.847996	0.847996	0	1	0	0	CorrectCommission	1.098087	0.754506	0
388.019196	0.795757	city	4	1	0.670690	0.670690	0	1	0	0	CorrectCommission	0.654263	0.794652	0
388.814941	0.795743	city	3	1	0.698278	0.698278	0	1	0	0	CorrectCommission	0.381606	0.841002	0
389.610748	0.795875	city	5	1	0.766913	0.766913	0	1	0	0	CorrectCommission	0.296730	0.892938	0
390.406555	0.795744	city	10	1	0.809661	0.809661	0	1	0	0	CorrectCommission	0.719216	0.949292	0
391.202332	0.795791	city	6	1	0.847864	0.847864	0	1	0	0	CorrectCommission	1.096789	1.008510	0
391.998138	0.795823	city	3	1	0.599536	0.599536	0	1	0	0	CorrectCommission	1.357495	1.068839	0
392.793915	0.795779	city	8	1	0.648847	0.648847	0	1	0	0	CorrectCommission	0.870137	1.128547	0
393.589752	0.795883	city	1	1	0.612634	0.612634	0	1	0	0	CorrectCommission	1.228044	1.186022	0
394.385559	0.795720	city	9	1	0.499540	0.499540	0	1	0	0	CorrectCommission	2.345768	1.239845	0
395.181305	0.795800	city	4	1	0.499944	0.499944	0	1	0	0	CorrectCommission	2.341778	1.288791	0
395.977142	0.795850	city	1	1	0.552459	0.552459	0	1	0	0	CorrectCommission	1.822759	1.331808	0
396.772980	0.795845	city	10	1	0.700166	0.700166	0	1	0	0	CorrectCommission	0.362941	1.367899	0
397.568939	0.796068	city	6	1	0.748480	0.748480	0	1	0	0	CorrectCommission	0.114549	1.396014	0
398.364868	0.795749	city	3	1	0.605895	0.605895	0	1	0	0	CorrectCommission	1.294640	1.414862	0
399.160492	0.795541	city	8	1	0.863528	0.863528	0	1	0	0	CorrectCommission	1.251594	1.423031	0
399.956207	0.795860	city	10	1	0.613436	0.613436	0	1	0	0	CorrectCommission	1.220110	1.419140	0
400.752045	0.795797	city	7	1	0.469829	0.469829	0	1	0	0	CorrectCommission	2.639411	1.402079	0
401.547943	0.796047	city	3	1	0.404332	0.404332	0	1	0	0	CorrectCommission	3.286729	1.371190	0
402.343719	0.795485	city	6	1	0.549105	0.549105	0	1	0	0	CorrectCommission	1.855908	1.326598	0
403.139343	0.795794	city	3	1	0.599144	0.599144	0	1	0	0	CorrectCommission	1.361369	1.269386	0
403.935333	0.796137	mountain	6	1	0.611321	0.611321	0	0	1	0	CommissionError	1.241019	1.201587	0
404.731140	0.795507	city	9	1	0.901959	0.901959	0	1	0	0	CorrectCommission	1.631420	1.126035	0
405.526825	0.795823	city	10	1	0.748454	0.748454	0	1	0	0	CorrectCommission	0.114294	1.046153	0
406.322571	0.795722	city	3	1	0.766692	0.766692	0	1	0	0	CorrectCommission	0.294550	0.965691	0
407.118347	0.795826	mountain	7	1	0.701910	0.701910	0	0	1	0	CommissionError	0.345709	0.888310	0
407.914337	0.796115	city	2	1	0.901850	0.901850	0	1	0	0	CorrectCommission	1.630336	0.817248	0
408.710297	0.795814	city	10	1	0.698762	0.698762	0	1	0	0	CorrectCommission	0.376820	0.755050	0
409.505981	0.795546	city	3	1	0.766287	0.766287	0	1	0	0	CorrectCommission	0.290542	0.703515	1
410.301636	0.795762	mountain	3	0	0.000000	0.776721	1	0	0	0	CorrectOmission	0.393666	0.663519	1
411.097565	0.796100	city	4	1	0.748152	0.748152	0	1	0	0	CorrectCommission	0.111312	0.635045	1
411.893372	0.795536	city	10	1	0.698667	0.698667	0	1	0	0	CorrectCommission	0.377761	0.617277	1
412.688995	0.795729	city	1	1	0.655123	0.655123	0	1	0	0	CorrectCommission	0.808117	0.608782	1
413.484924	0.796131	mountain	4	0	0.000000	0.760850	1	0	0	0	CorrectOmission	0.236805	0.607673	1
414.280762	0.795511	city	4	1	0.848098	0.848098	0	1	0	0	CorrectCommission	1.099099	0.611954	1
415.076385	0.795742	city	8	1	0.749118	0.749118	0	1	0	0	CorrectCommission	0.120857	0.619577	1
415.872192	0.795889	city	1	1	0.648671	0.648671	0	1	0	0	CorrectCommission	0.871882	0.628700	1
416.667999	0.795725	city	8	1	0.851781	0.851781	0	1	0	0	CorrectCommission	1.135496	0.637766	1
417.463776	0.795839	city	2	1	0.649466	0.649466	0	1	0	0	CorrectCommission	0.864020	0.645643	1
418.259735	0.796065	mountain	8	0	0.000000	0.715003	1	0	0	0	CorrectOmission	0.216305	0.651617	1
419.055542	0.795538	city	7	1	0.798349	0.798349	0	1	0	0	CorrectCommission	0.607421	0.655406	1
419.851227	0.795850	city	8	1	0.649463	0.649463	0	1	0	0	CorrectCommission	0.864056	0.657091	1
420.647034	0.795719	city	1	1	0.649482	0.649482	0	1	0	0	CorrectCommission	0.863867	0.657034	1
421.442810	0.795857	city	6	1	0.702821	0.702821	0	1	0	0	CorrectCommission	0.336706	0.655800	1
422.238800	0.796103	city	8	1	0.598968	0.598968	0	1	0	0	CorrectCommission	1.363105	0.654046	1
423.034576	0.795478	city	7	1	0.698059	0.698059	0	1	0	0	CorrectCommission	0.383771	0.652327	1
423.830353	0.796095	city	8	1	0.698431	0.698431	0	1	0	0	CorrectCommission	0.380088	0.651193	1
424.626190	0.795535	city	10	1	0.702938	0.702938	0	1	0	0	CorrectCommission	0.335546	0.651019	1
425.421844	0.795785	city	6	1	0.797777	0.797777	0	1	0	0	CorrectCommission	0.601760	0.651943	1
426.217590	0.795743	city	7	1	0.799936	0.799936	0	1	0	0	CorrectCommission	0.623098	0.653967	1
427.013397	0.795861	city	5	1	0.699108	0.699108	0	1	0	0	CorrectCommission	0.373402	0.657070	1
427.809204	0.795747	city	8	1	0.848396	0.848396	0	1	0	0	CorrectCommission	1.102041	0.661331	1
428.605042	0.795883	city	1	1	0.700486	0.700486	0	1	0	0	CorrectCommission	0.359785	0.667011	1
429.400848	0.795776	mountain	7	1	0.599694	0.599694	0	0	1	0	CommissionError	1.355928	0.674676	1
430.196655	0.795803	mountain	10	0	0.000000	0.640025	1	0	0	0	CorrectOmission	0.957330	0.685133	1
430.992462	0.795837	city	1	1	0.698572	0.698572	0	1	0	0	CorrectCommission	0.378701	0.699596	1
431.788422	0.796079	city	3	1	0.652428	0.652428	0	1	0	0	CorrectCommission	0.834752	0.719447	1
432.584229	0.795523	mountain	3	0	0.000000	0.684805	1	0	0	0	CorrectOmission	0.514756	0.746132	0
433.379883	0.795777	city	9	1	0.748861	0.748861	0	1	0	0	CorrectCommission	0.118318	0.780902	0
434.175812	0.796088	city	4	1	0.797750	0.797750	0	1	0	0	CorrectCommission	0.601502	0.824623	0
434.971619	0.795518	city	8	1	0.659272	0.659272	0	1	0	0	CorrectCommission	0.767108	0.877479	0
435.767242	0.795745	city	4	1	0.705225	0.705225	0	1	0	0	CorrectCommission	0.312944	0.938906	0
436.563049	0.795846	city	2	1	0.798673	0.798673	0	1	0	0	CorrectCommission	0.610617	1.007496	0
437.358887	0.795828	city	4	1	0.898017	0.898017	0	1	0	0	CorrectCommission	1.592459	1.080950	0
438.154663	0.795736	city	6	1	0.748354	0.748354	0	1	0	0	CorrectCommission	0.113307	1.156264	0
438.950439	0.795842	city	5	1	0.556141	0.556141	0	1	0	0	CorrectCommission	1.786368	1.230005	0
439.746277	0.795809	city	7	1	0.449597	0.449597	0	1	0	0	CorrectCommission	2.839372	1.298420	0
440.542236	0.796098	city	9	1	0.898158	0.898158	0	1	0	0	CorrectCommission	1.593852	1.357891	0
441.337982	0.795445	city	7	1	0.747717	0.747717	0	1	0	0	CorrectCommission	0.107011	1.405293	0
442.133636	0.795837	city	4	1	0.652895	0.652895	0	1	0	0	CorrectCommission	0.830128	1.438235	0
442.929596	0.796098	city	5	1	0.464376	0.464376	0	1	0	0	CorrectCommission	2.693303	1.455188	0
443.725433	0.795536	city	4	1	0.364290	0.364290	0	1	0	0	CorrectCommission	3.682471	1.455651	0
444.521057	0.795740	city	3	1	0.504144	0.504144	0	1	0	0	CorrectCommission	2.300271	1.440233	0
445.316833	0.795796	city	7	1	0.648662	0.648662	0	1	0	0	CorrectCommission	0.871973	1.410557	0
446.112671	0.795870	city	3	1	0.608322	0.608322	0	1	0	0	CorrectCommission	1.270660	1.369026	0
446.908447	0.795732	city	10	1	0.652412	0.652412	0	1	0	0	CorrectCommission	0.834911	1.318367	0
447.704407	0.796171	city	5	1	0.897557	0.897557	0	1	0	0	CorrectCommission	1.587908	1.261463	0
448.500397	0.795782	city	10	1	0.797509	0.797509	0	1	0	0	CorrectCommission	0.599116	1.200962	0
449.296021	0.795507	city	5	1	0.856735	0.856735	0	1	0	0	CorrectCommission	1.184454	1.139116	0
450.091827	0.796106	mountain	5	0	0.000000	0.777050	1	0	0	0	CorrectOmission	0.396918	1.077559	0
450.887787	0.795785	city	9	1	0.658034	0.658034	0	1	0	0	CorrectCommission	0.779339	1.017388	0
451.683411	0.795479	city	8	1	0.599266	0.599266	0	1	0	0	CorrectCommission	1.360164	0.959158	0
452.479095	0.795854	city	7	1	0.649255	0.649255	0	1	0	0	CorrectCommission	0.866109	0.903047	0
453.274933	0.795829	city	10	1	0.550459	0.550459	0	1	0	0	CorrectCommission	1.842527	0.849105	0
454.070862	0.796049	city	9	1	0.698512	0.698512	0	1	0	0	CorrectCommission	0.379296	0.797339	0
454.866791	0.795809	city	3	1	0.611730	0.611730	0	1	0	0	CorrectCommission	1.236978	0.747931	0
455.662598	0.795804	city	2	1	0.797713	0.797713	0	1	0	0	CorrectCommission	0.601135	0.701231	1
456.458282	0.795540	city	10	1	0.747707	0.747707	0	1	0	0	CorrectCommission	0.106911	0.657817	1
457.253906	0.795709	mountain	2	0	0.000000	0.714624	1	0	0	0	CorrectOmission	0.220049	0.618414	1
458.049652	0.795814	city	6	1	0.698428	0.698428	0	1	0	0	CorrectCommission	0.380117	0.583885	1
458.845490	0.795862	city	8	1	0.699081	0.699081	0	1	0	0	CorrectCommission	0.373664	0.555176	1
459.641296	0.795728	city	3	1	0.698415	0.698415	0	1	0	0	CorrectCommission	0.380250	0.533295	1
460.437042	0.795811	city	2	1	0.797914	0.797914	0	1	0	0	CorrectCommission	0.603121	0.519189	1
461.232880	0.795840	city	4	1	0.847467	0.847467	0	1	0	0	CorrectCommission	1.092857	0.513723	1
462.028717	0.795837	city	9	1	0.700496	0.700496	0	1	0	0	CorrectCommission	0.359679	0.517637	1
462.824677	0.796078	city	10	1	0.698509	0.698509	0	1	0	0	CorrectCommission	0.379322	0.531519	1
463.620483	0.795540	city	4	1	0.748620	0.748620	0	1	0	0	CorrectCommission	0.115934	0.555570	1
464.416138	0.795756	city	5	1	0.751178	0.751178	0	1	0	0	CorrectCommission	0.141216	0.589517	1
465.211914	0.795805	city	8	1	0.698305	0.698305	0	1	0	0	CorrectCommission	0.381338	0.632527	1
466.007751	0.795851	city	2	1	0.761162	0.761162	0	1	0	0	CorrectCommission	0.239892	0.683067	1
466.803558	0.795779	mountain	2	0	0.000000	0.806987	1	0	0	0	CorrectOmission	0.692788	0.738953	0
467.599304	0.795727	city	7	1	0.798650	0.798650	0	1	0	0	CorrectCommission	0.610392	0.797424	0
468.395233	0.796148	city	9	1	0.699021	0.699021	0	1	0	0	CorrectCommission	0.374257	0.855365	0
469.191071	0.795508	city	7	1	0.617046	0.617046	0	1	0	0	CorrectCommission	1.184432	0.909530	0
469.986694	0.795736	city	9	1	0.570997	0.570997	0	1	0	0	CorrectCommission	1.639551	0.956871	0
470.782654	0.796162	city	6	1	0.549385	0.549385	0	1	0	0	CorrectCommission	1.853147	0.994804	0
471.578644	0.795807	city	3	1	0.567713	0.567713	0	1	0	0	CorrectCommission	1.672000	1.021547	0
472.374420	0.795798	city	5	1	0.602793	0.602793	0	1	0	0	CorrectCommission	1.325298	1.036200	0
473.170044	0.795449	city	7	1	0.599330	0.599330	0	1	0	0	CorrectCommission	1.359530	1.038802	0
473.965668	0.795798	city	5	1	0.699067	0.699067	0	1	0	0	CorrectCommission	0.373803	1.030262	0
474.761475	0.795816	city	10	1	0.904426	0.904426	0	1	0	0	CorrectCommission	1.655796	1.012186	0
475.557281	0.795792	city	6	1	0.852897	0.852897	0	1	0	0	CorrectCommission	1.146524	0.986555	0
476.353119	0.795849	city	4	1	0.847832	0.847832	0	1	0	0	CorrectCommission	1.096469	0.955575	0
477.148926	0.795756	city	9	1	0.699052	0.699052	0	1	0	0	CorrectCommission	0.373953	0.921381	0
477.944702	0.795796	city	3	1	0.712729	0.712729	0	1	0	0	CorrectCommission	0.238780	0.885821	0
478.740631	0.796111	city	4	1	0.797757	0.797757	0	1	0	0	CorrectCommission	0.601570	0.850409	0
479.536560	0.795750	city	3	1	0.751696	0.751696	0	1	0	0	CorrectCommission	0.146341	0.816225	0
480.332397	0.795869	city	5	1	0.996509	0.996509	0	1	0	0	CorrectCommission	2.565870	0.784008	0
481.128235	0.795824	city	9	1	0.658262	0.658262	0	1	0	0	CorrectCommission	0.777091	0.754083	0
481.923859	0.795452	city	6	1	0.652134	0.652134	0	1	0	0	CorrectCommission	0.837653	0.726672	0
482.719543	0.795880	city	2	1	0.759608	0.759608	0	1	0	0	CorrectCommission	0.224533	0.701750	1
483.515381	0.795797	city	7	1	0.797986	0.797986	0	1	0	0	CorrectCommission	0.603833	0.679180	1
484.311310	0.796095	city	1	1	0.752745	0.752745	0	1	0	0	CorrectCommission	0.156705	0.658701	1
485.107269	0.795789	city	4	1	0.797711	0.797711	0	1	0	0	CorrectCommission	0.601108	0.639938	1
485.903046	0.795801	city	10	1	0.698258	0.698258	0	1	0	0	CorrectCommission	0.381804	0.622402	1
486.698853	0.795788	city	3	1	0.798156	0.798156	0	1	0	0	CorrectCommission	0.605515	0.605515	1
