onset	duration	trial_type	image_type	Press	ReactionTime	ReactionTime_Interpolated	CorrectOmission	CorrectCommission	CommissionError	OmissionError	response_type	nonsmoothVarianceTimeCourse	VarianceTimeCourse	In_the_Zone
8.422009	0.795867	city	9	1	0.698562	0.698562	0	1	0	0	CorrectCommission	0.783676	0.783676	1
9.217821	0.795759	city	2	1	0.698178	0.698178	0	1	0	0	CorrectCommission	0.785657	0.706722	1
10.013627	0.795852	mountain	10	1	0.764248	0.764248	0	0	1	0	CommissionError	0.444305	0.631693	1
10.809487	0.795868	city	4	1	0.947159	0.947159	0	1	0	0	CorrectCommission	0.500705	0.560397	1
11.605165	0.795486	city	10	1	0.858940	0.858940	0	1	0	0	CorrectCommission	0.044917	0.494388	1
12.400965	0.796115	city	6	1	0.897776	0.897776	0	1	0	0	CorrectCommission	0.245564	0.434893	1
13.196779	0.795514	city	5	1	0.797940	0.797940	0	1	0	0	CorrectCommission	0.270238	0.382726	1
13.992429	0.795787	city	1	1	0.797926	0.797926	0	1	0	0	CorrectCommission	0.270309	0.338297	1
14.788326	0.796007	city	6	1	0.861783	0.861783	0	1	0	0	CorrectCommission	0.059608	0.301638	1
15.584208	0.795756	city	9	1	0.897270	0.897270	0	1	0	0	CorrectCommission	0.242953	0.272441	1
16.379911	0.795654	city	10	1	0.813073	0.813073	0	1	0	0	CorrectCommission	0.192054	0.250110	1
17.175653	0.795828	city	3	1	0.801690	0.801690	0	1	0	0	CorrectCommission	0.250864	0.233895	1
17.971460	0.795787	city	5	1	0.847361	0.847361	0	1	0	0	CorrectCommission	0.014901	0.222965	1
18.767387	0.796067	city	10	1	0.859265	0.859265	0	1	0	0	CorrectCommission	0.046601	0.216495	1
19.563187	0.795532	city	6	1	0.946586	0.946586	0	1	0	0	CorrectCommission	0.497744	0.213714	1
20.358938	0.795969	city	8	1	0.847767	0.847767	0	1	0	0	CorrectCommission	0.012806	0.213994	1
21.154846	0.795849	city	1	1	0.897315	0.897315	0	1	0	0	CorrectCommission	0.243183	0.216903	1
21.950626	0.795712	city	8	1	0.797305	0.797305	0	1	0	0	CorrectCommission	0.273517	0.222205	1
22.746462	0.795958	city	2	1	0.797956	0.797956	0	1	0	0	CorrectCommission	0.270152	0.229862	1
23.542332	0.795779	city	8	1	0.797716	0.797716	0	1	0	0	CorrectCommission	0.271393	0.240011	1
24.337959	0.795478	city	4	1	0.798027	0.798027	0	1	0	0	CorrectCommission	0.269788	0.252892	1
25.133614	0.795831	city	10	1	0.847781	0.847781	0	1	0	0	CorrectCommission	0.012733	0.268773	1
25.929445	0.795834	city	2	1	0.857359	0.857359	0	1	0	0	CorrectCommission	0.036753	0.287860	1
26.725346	0.795965	city	7	1	0.947002	0.947002	0	1	0	0	CorrectCommission	0.499892	0.310195	1
27.521240	0.795824	city	8	1	0.897279	0.897279	0	1	0	0	CorrectCommission	0.242998	0.335544	1
28.317095	0.795887	city	7	1	0.812002	0.812002	0	1	0	0	CorrectCommission	0.197586	0.363401	1
29.112804	0.795530	city	10	1	0.747998	0.747998	0	1	0	0	CorrectCommission	0.528266	0.392949	1
29.908594	0.796051	city	2	1	0.797722	0.797722	0	1	0	0	CorrectCommission	0.271363	0.423045	1
30.704525	0.795810	city	5	1	0.897297	0.897297	0	1	0	0	CorrectCommission	0.243090	0.452363	1
31.500294	0.795726	mountain	2	0	0.000000	0.863897	1	0	0	0	CorrectOmission	0.070530	0.479480	1
32.296066	0.795817	city	4	1	0.747941	0.747941	0	1	0	0	CorrectCommission	0.528560	0.503049	1
33.091896	0.795842	city	2	1	0.599844	0.599844	0	1	0	0	CorrectCommission	1.293702	0.521915	1
33.887733	0.795831	mountain	9	0	0.000000	0.629522	1	0	0	0	CorrectOmission	1.140369	0.535299	1
34.683502	0.795714	city	5	1	0.697896	0.697896	0	1	0	0	CorrectCommission	0.787113	0.542902	1
35.479183	0.795648	city	3	1	0.665888	0.665888	0	1	0	0	CorrectCommission	0.952488	0.544941	1
36.274891	0.795769	city	4	1	0.897674	0.897674	0	1	0	0	CorrectCommission	0.245042	0.542069	1
37.070774	0.795991	city	10	1	0.947389	0.947389	0	1	0	0	CorrectCommission	0.501890	0.535297	1
37.866703	0.795870	city	8	1	0.946599	0.946599	0	1	0	0	CorrectCommission	0.497813	0.525784	1
38.662540	0.795806	city	3	1	0.797877	0.797877	0	1	0	0	CorrectCommission	0.270565	0.514706	1
39.458313	0.795737	city	10	1	0.806445	0.806445	0	1	0	0	CorrectCommission	0.226294	0.503097	1
40.254082	0.795803	city	8	1	0.897502	0.897502	0	1	0	0	CorrectCommission	0.244150	0.491735	1
41.049911	0.795856	mountain	8	0	0.000000	0.771298	1	0	0	0	CorrectOmission	0.407883	0.481135	1
41.845737	0.795797	city	2	1	0.660428	0.660428	0	1	0	0	CorrectCommission	0.980697	0.471538	1
42.641556	0.795840	city	5	1	0.797484	0.797484	0	1	0	0	CorrectCommission	0.272594	0.462983	1
43.437355	0.795756	city	7	1	0.946601	0.946601	0	1	0	0	CorrectCommission	0.497820	0.455485	1
44.233105	0.795745	city	10	1	0.996919	0.996919	0	1	0	0	CorrectCommission	0.757792	0.449061	1
45.028873	0.795793	city	6	1	0.897757	0.897757	0	1	0	0	CorrectCommission	0.245470	0.443869	1
45.824703	0.795866	city	4	1	0.759524	0.759524	0	1	0	0	CorrectCommission	0.468715	0.440271	1
46.620518	0.795763	city	6	1	0.748403	0.748403	0	1	0	0	CorrectCommission	0.526169	0.438775	1
47.416187	0.795577	city	4	1	0.748009	0.748009	0	1	0	0	CorrectCommission	0.528204	0.440043	1
48.211895	0.795838	city	6	1	0.825363	0.825363	0	1	0	0	CorrectCommission	0.128558	0.444715	1
49.007801	0.795975	city	2	1	0.748476	0.748476	0	1	0	0	CorrectCommission	0.525796	0.453430	1
49.803741	0.795904	city	8	1	0.848951	0.848951	0	1	0	0	CorrectCommission	0.006688	0.466565	1
50.599545	0.795704	city	7	1	0.900719	0.900719	0	1	0	0	CorrectCommission	0.260771	0.484229	1
51.395340	0.795890	city	9	1	0.949378	0.949378	0	1	0	0	CorrectCommission	0.512170	0.506190	1
52.191158	0.795747	city	3	1	0.962140	0.962140	0	1	0	0	CorrectCommission	0.578103	0.531918	1
52.986927	0.795787	city	1	1	0.897535	0.897535	0	1	0	0	CorrectCommission	0.244320	0.560611	1
53.782749	0.795862	city	3	1	0.956854	0.956854	0	1	0	0	CorrectCommission	0.550794	0.591323	1
54.578457	0.795553	city	10	1	0.947115	0.947115	0	1	0	0	CorrectCommission	0.500478	0.623012	1
55.374245	0.796018	city	2	1	0.997371	0.997371	0	1	0	0	CorrectCommission	0.760124	0.654714	1
56.170132	0.795760	city	8	1	1.150527	1.150527	0	1	0	0	CorrectCommission	1.551408	0.685655	1
56.965832	0.795642	city	9	1	1.107358	1.107358	0	1	0	0	CorrectCommission	1.328373	0.715250	1
57.761658	0.796006	mountain	8	0	0.000000	0.931378	1	0	0	0	CorrectOmission	0.419171	0.743205	1
58.557449	0.795580	city	7	1	0.814075	0.814075	0	1	0	0	CorrectCommission	0.186878	0.769458	1
59.353245	0.796008	city	4	1	0.946935	0.946935	0	1	0	0	CorrectCommission	0.499548	0.794024	1
60.149181	0.795869	city	8	1	0.997024	0.997024	0	1	0	0	CorrectCommission	0.758335	0.816975	0
60.945019	0.795804	city	3	1	0.996347	0.996347	0	1	0	0	CorrectCommission	0.754837	0.838348	0
61.740685	0.795523	city	4	1	1.054735	1.054735	0	1	0	0	CorrectCommission	1.056496	0.858080	0
62.536339	0.795786	city	5	1	1.195699	1.195699	0	1	0	0	CorrectCommission	1.784790	0.875969	0
63.332130	0.795797	city	3	0	0.000000	0.838246	0	0	0	1	OmissionError	0.061994	0.891611	0
64.128067	0.796077	city	7	1	0.499992	0.499992	0	1	0	0	CorrectCommission	1.809591	0.904523	0
64.924019	0.795831	city	10	1	0.698551	0.698551	0	1	0	0	CorrectCommission	0.783734	0.913927	0
65.719826	0.795775	city	2	1	0.797897	0.797897	0	1	0	0	CorrectCommission	0.270461	0.919017	0
66.515594	0.795768	city	10	1	0.947049	0.947049	0	1	0	0	CorrectCommission	0.500136	0.918875	0
67.311348	0.795732	city	4	1	1.096169	1.096169	0	1	0	0	CorrectCommission	1.270568	0.912571	0
68.107010	0.795604	city	7	0	0.000000	1.158779	0	0	0	1	OmissionError	1.594042	0.899254	0
68.902824	0.796018	mountain	4	0	0.000000	1.128075	1	0	0	0	CorrectOmission	1.435411	0.878315	0
69.698647	0.795622	city	4	1	0.997255	0.997255	0	1	0	0	CorrectCommission	0.759528	0.849503	0
70.494431	0.795960	city	6	0	0.000000	0.759516	0	0	0	1	OmissionError	0.468755	0.813028	0
71.290199	0.795570	city	5	1	0.598613	0.598613	0	1	0	0	CorrectCommission	1.300063	0.769579	1
72.085884	0.795798	city	4	1	0.698302	0.698302	0	1	0	0	CorrectCommission	0.785020	0.720330	1
72.881859	0.796155	city	2	1	0.648668	0.648668	0	1	0	0	CorrectCommission	1.041454	0.666985	1
73.677818	0.795764	city	1	1	0.648418	0.648418	0	1	0	0	CorrectCommission	1.042745	0.611573	1
74.473442	0.795491	city	5	1	0.897449	0.897449	0	1	0	0	CorrectCommission	0.243875	0.556338	1
75.269234	0.796090	city	6	1	0.858985	0.858985	0	1	0	0	CorrectCommission	0.045153	0.503593	1
76.065208	0.795850	city	2	1	0.847340	0.847340	0	1	0	0	CorrectCommission	0.015010	0.455433	1
76.860901	0.795535	city	4	1	0.908494	0.908494	0	1	0	0	CorrectCommission	0.300942	0.413549	1
77.656654	0.795973	city	10	1	0.798010	0.798010	0	1	0	0	CorrectCommission	0.269874	0.379065	1
78.452553	0.795823	city	6	1	0.847822	0.847822	0	1	0	0	CorrectCommission	0.012523	0.352481	1
79.248398	0.795876	city	10	1	0.797859	0.797859	0	1	0	0	CorrectCommission	0.270655	0.333633	1
80.044197	0.795716	city	7	1	0.897074	0.897074	0	1	0	0	CorrectCommission	0.241940	0.321688	1
80.839874	0.795640	city	9	1	0.847843	0.847843	0	1	0	0	CorrectCommission	0.012414	0.315393	1
81.635689	0.795983	city	1	1	0.798130	0.798130	0	1	0	0	CorrectCommission	0.269254	0.313156	1
82.431587	0.795825	city	7	1	0.897547	0.897547	0	1	0	0	CorrectCommission	0.244383	0.313310	1
83.227287	0.795570	city	3	1	0.900725	0.900725	0	1	0	0	CorrectCommission	0.260805	0.314339	1
84.023079	0.796011	city	1	1	0.996911	0.996911	0	1	0	0	CorrectCommission	0.757747	0.315064	1
84.819016	0.795861	city	6	1	1.046935	1.046935	0	1	0	0	CorrectCommission	1.016200	0.314741	1
85.614838	0.795788	city	3	1	0.947973	0.947973	0	1	0	0	CorrectCommission	0.504911	0.313168	1
86.410591	0.795724	mountain	5	0	0.000000	0.887928	1	0	0	0	CorrectOmission	0.194684	0.310671	1
87.206284	0.795650	city	4	1	0.847337	0.847337	0	1	0	0	CorrectCommission	0.015026	0.308043	1
88.001991	0.795773	city	3	1	0.806742	0.806742	0	1	0	0	CorrectCommission	0.224764	0.306312	1
88.797768	0.795783	city	5	1	0.798037	0.798037	0	1	0	0	CorrectCommission	0.269735	0.306575	1
89.593689	0.796050	city	8	1	0.847485	0.847485	0	1	0	0	CorrectCommission	0.014262	0.309884	1
90.389595	0.795764	city	7	1	0.810745	0.810745	0	1	0	0	CorrectCommission	0.204080	0.317114	1
91.185425	0.795895	city	10	1	0.847493	0.847493	0	1	0	0	CorrectCommission	0.014222	0.328820	1
91.981255	0.795771	mountain	4	0	0.000000	0.843919	1	0	0	0	CorrectOmission	0.032689	0.345318	1
92.777054	0.795828	city	9	1	0.797852	0.797852	0	1	0	0	CorrectCommission	0.270694	0.366642	1
93.572701	0.795466	city	4	1	0.707121	0.707121	0	1	0	0	CorrectCommission	0.739453	0.392629	1
94.368469	0.796063	mountain	2	0	0.000000	0.704014	1	0	0	0	CorrectOmission	0.755510	0.423003	1
95.164284	0.795570	city	10	1	0.747812	0.747812	0	1	0	0	CorrectCommission	0.529225	0.457443	1
95.960129	0.796128	city	9	1	0.797800	0.797800	0	1	0	0	CorrectCommission	0.270960	0.495649	1
96.756096	0.795792	city	2	1	0.947431	0.947431	0	1	0	0	CorrectCommission	0.502110	0.537226	1
97.551849	0.795720	city	9	1	0.956745	0.956745	0	1	0	0	CorrectCommission	0.550233	0.581670	1
98.347626	0.795842	city	8	1	0.897396	0.897396	0	1	0	0	CorrectCommission	0.243604	0.628331	1
99.143341	0.795581	city	6	1	0.946568	0.946568	0	1	0	0	CorrectCommission	0.497650	0.676305	1
99.939110	0.795963	city	7	1	0.951783	0.951783	0	1	0	0	CorrectCommission	0.524595	0.724383	1
100.734985	0.795784	city	9	1	1.001141	1.001141	0	1	0	0	CorrectCommission	0.779602	0.771104	1
101.530823	0.795883	city	10	1	0.958449	0.958449	0	1	0	0	CorrectCommission	0.559033	0.814785	0
102.326630	0.795745	mountain	5	1	0.449802	0.449802	0	0	1	0	CommissionError	2.068897	0.853645	0
103.122276	0.795538	city	1	1	0.698009	0.698009	0	1	0	0	CorrectCommission	0.786532	0.885901	0
103.917999	0.795907	city	5	1	0.717321	0.717321	0	1	0	0	CorrectCommission	0.686754	0.910087	0
104.713943	0.795984	city	6	1	1.046472	1.046472	0	1	0	0	CorrectCommission	1.013806	0.925079	0
105.509743	0.795615	city	8	1	1.195859	1.195859	0	1	0	0	CorrectCommission	1.785614	0.930269	0
106.305542	0.795985	city	5	1	1.062293	1.062293	0	1	0	0	CorrectCommission	1.095544	0.925565	0
107.101440	0.795804	city	8	1	0.548765	0.548765	0	1	0	0	CorrectCommission	1.557601	0.911602	0
107.897263	0.795848	city	10	1	0.698496	0.698496	0	1	0	0	CorrectCommission	0.784016	0.889573	0
108.693077	0.795783	city	9	1	0.899325	0.899325	0	1	0	0	CorrectCommission	0.253570	0.861248	0
109.488762	0.795592	mountain	6	1	0.999715	0.999715	0	0	1	0	CommissionError	0.772237	0.828822	0
110.284546	0.795971	city	7	0	0.000000	0.716363	0	0	0	1	OmissionError	0.691707	0.794709	1
111.080437	0.795806	city	8	1	0.499151	0.499151	0	1	0	0	CorrectCommission	1.813934	0.761383	1
111.876221	0.795756	city	7	1	0.797963	0.797963	0	1	0	0	CorrectCommission	0.270116	0.731180	1
112.672043	0.795893	mountain	4	0	0.000000	0.786593	1	0	0	0	CorrectOmission	0.328860	0.706205	1
113.467888	0.795804	city	3	1	0.698388	0.698388	0	1	0	0	CorrectCommission	0.784573	0.688006	1
114.263695	0.795800	mountain	3	0	0.000000	0.766696	1	0	0	0	CorrectOmission	0.431662	0.677509	1
115.059464	0.795737	city	5	1	0.847731	0.847731	0	1	0	0	CorrectCommission	0.012990	0.674972	1
115.855209	0.795754	city	10	1	0.797711	0.797711	0	1	0	0	CorrectCommission	0.271421	0.679982	1
116.650993	0.795828	city	4	1	0.947054	0.947054	0	1	0	0	CorrectCommission	0.500162	0.691512	1
117.446854	0.795881	city	7	1	0.897719	0.897719	0	1	0	0	CorrectCommission	0.245270	0.708084	1
118.242645	0.795711	city	1	1	0.947210	0.947210	0	1	0	0	CorrectCommission	0.500969	0.728010	1
119.038414	0.795816	city	5	1	1.046364	1.046364	0	1	0	0	CorrectCommission	1.013249	0.749612	1
119.834213	0.795784	city	7	1	1.206430	1.206430	0	1	0	0	CorrectCommission	1.840230	0.771326	1
120.630066	0.795920	city	1	1	1.345152	1.345152	0	1	0	0	CorrectCommission	2.556942	0.791951	1
121.425911	0.795781	city	3	1	0.797748	0.797748	0	1	0	0	CorrectCommission	0.271228	0.810626	0
122.221695	0.795784	city	8	1	0.947690	0.947690	0	1	0	0	CorrectCommission	0.503447	0.826926	0
123.017342	0.795499	mountain	8	0	0.000000	0.906285	1	0	0	0	CorrectOmission	0.289527	0.840561	0
123.813065	0.795949	city	6	1	0.848004	0.848004	0	1	0	0	CorrectCommission	0.011579	0.851359	0
124.609039	0.796005	city	5	1	0.947320	0.947320	0	1	0	0	CorrectCommission	0.501538	0.859155	0
125.404778	0.795478	city	1	1	1.047552	1.047552	0	1	0	0	CorrectCommission	1.019388	0.863723	0
126.200554	0.796065	city	4	0	0.000000	0.773965	0	0	0	1	OmissionError	0.394105	0.864841	0
126.996391	0.795606	city	1	1	0.462952	0.462952	0	1	0	0	CorrectCommission	2.000959	0.862377	0
127.792198	0.796017	city	9	1	0.450906	0.450906	0	1	0	0	CorrectCommission	2.063191	0.856341	0
128.588120	0.795822	city	6	1	0.598550	0.598550	0	1	0	0	CorrectCommission	1.300389	0.847022	0
129.383926	0.795792	city	2	1	0.648725	0.648725	0	1	0	0	CorrectCommission	1.041157	0.835082	0
130.179718	0.795796	mountain	4	0	0.000000	0.763381	1	0	0	0	CorrectOmission	0.448788	0.821407	0
130.975540	0.795831	city	7	1	0.847863	0.847863	0	1	0	0	CorrectCommission	0.012311	0.806989	0
131.771210	0.795531	city	1	1	0.807517	0.807517	0	1	0	0	CorrectCommission	0.220759	0.792781	1
132.566986	0.796022	city	10	1	0.847473	0.847473	0	1	0	0	CorrectCommission	0.014324	0.779515	1
133.362930	0.795861	city	2	1	0.997181	0.997181	0	1	0	0	CorrectCommission	0.759145	0.767616	1
134.158737	0.795756	city	10	1	1.163324	1.163324	0	1	0	0	CorrectCommission	1.617524	0.757095	1
134.954498	0.795773	city	1	1	0.648674	0.648674	0	1	0	0	CorrectCommission	1.041422	0.747599	1
135.750183	0.795586	city	7	1	0.598952	0.598952	0	1	0	0	CorrectCommission	1.298309	0.738602	1
136.545837	0.795734	city	9	1	0.897257	0.897257	0	1	0	0	CorrectCommission	0.242887	0.729388	1
137.341766	0.796107	mountain	2	0	0.000000	0.801782	1	0	0	0	CorrectOmission	0.250388	0.719288	1
138.137726	0.795812	city	1	1	0.654535	0.654535	0	1	0	0	CorrectCommission	1.011143	0.707747	1
138.933487	0.795722	mountain	1	1	0.797524	0.797524	0	0	1	0	CommissionError	0.272388	0.694569	1
139.729279	0.795856	city	8	1	1.046709	1.046709	0	1	0	0	CorrectCommission	1.015029	0.679961	1
140.525101	0.795792	city	1	1	1.053422	1.053422	0	1	0	0	CorrectCommission	1.049715	0.664566	1
141.320938	0.795884	city	7	1	1.051081	1.051081	0	1	0	0	CorrectCommission	1.037619	0.649422	1
142.116638	0.795517	city	9	1	0.947438	0.947438	0	1	0	0	CorrectCommission	0.502144	0.635889	1
142.912445	0.796089	city	6	1	0.997132	0.997132	0	1	0	0	CorrectCommission	0.758892	0.625472	1
143.708374	0.795764	mountain	2	0	0.000000	0.907810	1	0	0	0	CorrectOmission	0.297410	0.619608	1
144.504120	0.795746	city	9	1	0.798021	0.798021	0	1	0	0	CorrectCommission	0.269821	0.619432	1
145.299942	0.795890	mountain	5	0	0.000000	0.786311	1	0	0	0	CorrectOmission	0.330319	0.625537	1
146.095764	0.795750	mountain	2	0	0.000000	0.833443	1	0	0	0	CorrectOmission	0.086810	0.637840	1
146.891434	0.795593	city	5	1	0.900179	0.900179	0	1	0	0	CorrectCommission	0.257982	0.655520	1
147.687241	0.796031	city	10	1	0.947280	0.947280	0	1	0	0	CorrectCommission	0.501330	0.677016	1
148.483109	0.795709	city	7	1	0.996846	0.996846	0	1	0	0	CorrectCommission	0.757415	0.700167	1
149.278885	0.795833	city	3	1	1.057375	1.057375	0	1	0	0	CorrectCommission	1.070134	0.722447	1
150.074692	0.795781	city	6	0	0.000000	0.744538	0	0	0	1	OmissionError	0.546138	0.741248	1
150.870361	0.795553	city	7	1	0.458407	0.458407	0	1	0	0	CorrectCommission	2.024438	0.754172	1
151.666168	0.796050	city	8	1	0.599051	0.599051	0	1	0	0	CorrectCommission	1.297798	0.759264	1
152.462097	0.795831	city	7	1	0.915155	0.915155	0	1	0	0	CorrectCommission	0.335354	0.755354	1
153.257950	0.795876	city	9	1	0.947242	0.947242	0	1	0	0	CorrectCommission	0.501132	0.742138	1
154.053635	0.795496	city	2	1	1.096046	1.096046	0	1	0	0	CorrectCommission	1.269932	0.720270	1
154.849396	0.796027	city	7	0	0.000000	0.747522	0	0	0	1	OmissionError	0.530720	0.691248	1
155.645340	0.795846	city	8	1	0.461501	0.461501	0	1	0	0	CorrectCommission	2.008455	0.657424	1
156.441177	0.795845	city	7	1	0.797812	0.797812	0	1	0	0	CorrectCommission	0.270901	0.621633	1
157.237015	0.795804	city	9	1	0.897424	0.897424	0	1	0	0	CorrectCommission	0.243746	0.587098	1
158.032822	0.795813	mountain	7	0	0.000000	0.872565	1	0	0	0	CorrectOmission	0.115315	0.556962	1
158.828445	0.795442	city	9	1	0.847740	0.847740	0	1	0	0	CorrectCommission	0.012947	0.534030	1
159.624100	0.795866	city	10	1	0.947450	0.947450	0	1	0	0	CorrectCommission	0.502208	0.520493	1
160.420074	0.796075	mountain	2	0	0.000000	0.923930	1	0	0	0	CorrectOmission	0.380691	0.517662	1
161.215881	0.795538	city	8	1	0.849941	0.849941	0	1	0	0	CorrectCommission	0.001575	0.525889	1
162.011551	0.795809	city	10	1	0.798244	0.798244	0	1	0	0	CorrectCommission	0.268667	0.544559	1
162.807465	0.796017	city	3	1	0.809091	0.809091	0	1	0	0	CorrectCommission	0.212627	0.572155	1
163.603210	0.795491	city	10	1	0.847441	0.847441	0	1	0	0	CorrectCommission	0.014488	0.606497	1
164.399017	0.796124	city	9	1	1.005097	1.005097	0	1	0	0	CorrectCommission	0.800039	0.645031	1
165.195007	0.795845	city	10	1	1.062130	1.062130	0	1	0	0	CorrectCommission	1.094704	0.685169	1
165.990768	0.795678	city	4	0	0.000000	0.732371	0	0	0	1	OmissionError	0.609001	0.724626	1
166.786392	0.795562	city	7	1	0.449933	0.449933	0	1	0	0	CorrectCommission	2.068218	0.761744	1
167.582230	0.796113	mountain	5	1	0.648932	0.648932	0	0	1	0	CommissionError	1.040089	0.795573	1
168.378174	0.795786	mountain	6	0	0.000000	0.975958	1	0	0	0	CorrectOmission	0.649493	0.826013	0
169.173950	0.795762	city	6	1	1.146267	1.146267	0	1	0	0	CorrectCommission	1.529398	0.853627	0
169.969650	0.795625	city	10	0	0.000000	0.875116	0	0	0	1	OmissionError	0.128493	0.879381	0
170.765366	0.795817	city	4	1	0.600132	0.600132	0	1	0	0	CorrectCommission	1.292213	0.904423	0
171.561295	0.796042	city	8	1	0.758943	0.758943	0	1	0	0	CorrectCommission	0.471714	0.929556	0
172.357086	0.795526	city	1	1	0.908500	0.908500	0	1	0	0	CorrectCommission	0.300971	0.955168	0
173.152893	0.796102	city	5	1	0.951589	0.951589	0	1	0	0	CorrectCommission	0.523592	0.980897	0
173.948685	0.795484	city	1	1	0.996687	0.996687	0	1	0	0	CorrectCommission	0.756593	1.005645	0
174.744354	0.795863	city	2	1	1.046835	1.046835	0	1	0	0	CorrectCommission	1.015682	1.027763	0
175.540192	0.795799	city	10	1	1.107559	1.107559	0	1	0	0	CorrectCommission	1.329412	1.045260	0
176.336090	0.795985	city	7	1	1.096928	1.096928	0	1	0	0	CorrectCommission	1.274490	1.056167	0
177.131958	0.795753	city	5	1	1.204302	1.204302	0	1	0	0	CorrectCommission	1.829239	1.058968	0
177.927643	0.795631	city	3	1	1.300208	1.300208	0	1	0	0	CorrectCommission	2.324736	1.052818	0
178.723343	0.795750	mountain	5	0	0.000000	1.156625	1	0	0	0	CorrectOmission	1.582914	1.037854	0
179.519150	0.795877	city	10	1	1.009977	1.009977	0	1	0	0	CorrectCommission	0.825255	1.015181	0
180.315125	0.796079	city	6	1	1.096687	1.096687	0	1	0	0	CorrectCommission	1.273240	0.986784	0
181.110992	0.795655	mountain	2	0	0.000000	0.911987	1	0	0	0	CorrectOmission	0.318988	0.955160	0
181.906647	0.795656	city	3	1	0.748200	0.748200	0	1	0	0	CorrectCommission	0.527222	0.923100	0
182.702469	0.795970	city	7	1	0.897644	0.897644	0	1	0	0	CorrectCommission	0.244887	0.893141	0
183.498367	0.795842	city	3	1	1.001639	1.001639	0	1	0	0	CorrectCommission	0.782176	0.867408	0
184.294205	0.795845	mountain	1	0	0.000000	1.011386	1	0	0	0	CorrectOmission	0.832536	0.847224	0
185.089890	0.795518	mountain	4	0	0.000000	0.979047	1	0	0	0	CorrectOmission	0.665452	0.833149	0
185.885666	0.796018	city	4	1	0.956780	0.956780	0	1	0	0	CorrectCommission	0.550410	0.824963	0
186.681595	0.795849	city	9	1	0.996746	0.996746	0	1	0	0	CorrectCommission	0.756896	0.821734	0
187.477402	0.795765	city	10	1	0.996546	0.996546	0	1	0	0	CorrectCommission	0.755861	0.822177	0
188.273224	0.795891	city	7	1	1.146077	1.146077	0	1	0	0	CorrectCommission	1.528417	0.824835	0
189.069061	0.795784	city	9	0	0.000000	0.861408	0	0	0	1	OmissionError	0.057673	0.828311	0
189.864838	0.795750	city	6	1	0.548902	0.548902	0	1	0	0	CorrectCommission	1.556897	0.831624	0
190.660614	0.795826	city	2	1	0.614919	0.614919	0	1	0	0	CorrectCommission	1.215817	0.834108	0
191.456436	0.795791	city	9	1	0.954771	0.954771	0	1	0	0	CorrectCommission	0.540033	0.835655	0
192.252197	0.795735	city	6	1	1.145838	1.145838	0	1	0	0	CorrectCommission	1.527180	0.836601	0
193.047989	0.795863	city	10	0	0.000000	0.905765	0	0	0	1	OmissionError	0.286842	0.837508	0
193.843796	0.795749	city	8	1	0.663469	0.663469	0	1	0	0	CorrectCommission	0.964985	0.839206	0
194.639496	0.795636	city	3	1	0.847864	0.847864	0	1	0	0	CorrectCommission	0.012305	0.842348	0
195.435211	0.795807	city	7	1	1.046421	1.046421	0	1	0	0	CorrectCommission	1.013542	0.847441	0
196.231094	0.795952	city	6	0	0.000000	0.789687	0	0	0	1	OmissionError	0.312879	0.854613	0
197.026886	0.795638	city	10	1	0.549499	0.549499	0	1	0	0	CorrectCommission	1.553812	0.863712	0
197.822708	0.796005	city	3	1	0.797695	0.797695	0	1	0	0	CorrectCommission	0.271505	0.874149	0
198.618652	0.795873	city	8	1	1.061395	1.061395	0	1	0	0	CorrectCommission	1.090905	0.885189	0
199.414352	0.795531	city	9	1	1.046654	1.046654	0	1	0	0	CorrectCommission	1.014748	0.895829	0
200.210129	0.796023	city	5	1	0.549623	0.549623	0	1	0	0	CorrectCommission	1.553168	0.905067	0
201.006042	0.795819	city	2	1	0.648422	0.648422	0	1	0	0	CorrectCommission	1.042726	0.911923	0
201.801849	0.795777	city	3	1	0.847757	0.847757	0	1	0	0	CorrectCommission	0.012857	0.915670	0
202.597656	0.795837	city	10	1	1.054162	1.054162	0	1	0	0	CorrectCommission	1.053536	0.915829	0
203.393356	0.795578	city	3	1	1.195797	1.195797	0	1	0	0	CorrectCommission	1.785296	0.912147	0
204.189133	0.795984	city	5	1	0.698296	0.698296	0	1	0	0	CorrectCommission	0.785051	0.904735	0
204.984940	0.795613	city	10	1	0.659578	0.659578	0	1	0	0	CorrectCommission	0.985089	0.894087	0
205.780762	0.796034	city	4	1	0.955600	0.955600	0	1	0	0	CorrectCommission	0.544313	0.880968	0
206.576538	0.795535	city	3	1	0.996279	0.996279	0	1	0	0	CorrectCommission	0.754482	0.866502	0
207.372360	0.796082	city	5	1	1.046743	1.046743	0	1	0	0	CorrectCommission	1.015207	0.851949	0
208.168304	0.795827	city	1	0	0.000000	0.698218	0	0	0	1	OmissionError	0.785453	0.838715	0
208.963943	0.795450	city	6	1	0.449131	0.449131	0	1	0	0	CorrectCommission	2.072361	0.828324	0
209.759720	0.796112	city	10	1	0.797913	0.797913	0	1	0	0	CorrectCommission	0.270379	0.822139	0
210.555695	0.795834	city	5	1	0.797641	0.797641	0	1	0	0	CorrectCommission	0.271782	0.821542	0
211.351456	0.795685	city	4	1	0.847169	0.847169	0	1	0	0	CorrectCommission	0.015896	0.827580	0
212.147247	0.795887	city	9	1	0.910888	0.910888	0	1	0	0	CorrectCommission	0.313309	0.840989	0
212.942978	0.795568	city	2	1	0.997398	0.997398	0	1	0	0	CorrectCommission	0.760264	0.862111	0
213.738632	0.795754	city	3	1	1.096437	1.096437	0	1	0	0	CorrectCommission	1.271951	0.890872	0
214.534546	0.796072	city	10	1	1.046743	1.046743	0	1	0	0	CorrectCommission	1.015206	0.926680	0
215.330368	0.795570	city	4	1	1.046506	1.046506	0	1	0	0	CorrectCommission	1.013982	0.968608	0
216.126190	0.796070	city	10	0	0.000000	0.714465	0	0	0	1	OmissionError	0.701510	1.015236	0
216.922089	0.795744	city	7	1	0.449575	0.449575	0	1	0	0	CorrectCommission	2.070071	1.064756	0
217.717911	0.795876	city	4	1	0.650788	0.650788	0	1	0	0	CorrectCommission	1.030499	1.114874	0
218.513672	0.795669	city	1	1	0.847764	0.847764	0	1	0	0	CorrectCommission	0.012824	1.163037	0
219.309479	0.795927	city	4	1	0.965909	0.965909	0	1	0	0	CorrectCommission	0.597575	1.206468	0
220.105316	0.795760	city	6	1	0.948152	0.948152	0	1	0	0	CorrectCommission	0.505834	1.242296	0
220.901062	0.795738	city	4	1	0.449826	0.449826	0	1	0	0	CorrectCommission	2.068775	1.267837	0
221.696823	0.795784	city	6	1	0.300458	0.300458	0	1	0	0	CorrectCommission	2.840482	1.280792	0
222.492630	0.795828	city	7	1	0.400160	0.400160	0	1	0	0	CorrectCommission	2.325374	1.279678	0
223.288452	0.795790	city	9	1	0.505395	0.505395	0	1	0	0	CorrectCommission	1.781673	1.264030	0
224.084274	0.795852	city	6	1	0.467502	0.467502	0	1	0	0	CorrectCommission	1.977452	1.234481	0
224.879990	0.795593	city	9	1	0.698300	0.698300	0	1	0	0	CorrectCommission	0.785030	1.192741	0
225.675751	0.795940	city	2	1	0.660481	0.660481	0	1	0	0	CorrectCommission	0.980419	1.141561	0
226.471542	0.795636	city	4	1	0.665745	0.665745	0	1	0	0	CorrectCommission	0.953224	1.084288	0
227.267380	0.796043	city	1	1	0.853883	0.853883	0	1	0	0	CorrectCommission	0.018792	1.024681	0
228.063309	0.795805	city	10	1	1.164079	1.164079	0	1	0	0	CorrectCommission	1.621422	0.966552	0
228.859116	0.795816	city	6	1	1.102265	1.102265	0	1	0	0	CorrectCommission	1.302064	0.913266	0
229.654770	0.795478	city	7	0	0.000000	0.840403	0	0	0	1	OmissionError	0.050852	0.867637	0
230.450424	0.795848	city	8	1	0.648854	0.648854	0	1	0	0	CorrectCommission	1.040490	0.831674	0
231.246384	0.796050	city	1	1	0.797983	0.797983	0	1	0	0	CorrectCommission	0.270014	0.806417	1
232.042160	0.795507	city	7	1	0.898210	0.898210	0	1	0	0	CorrectCommission	0.247810	0.792050	1
232.837982	0.796128	city	5	1	0.859328	0.859328	0	1	0	0	CorrectCommission	0.046924	0.787893	1
233.633926	0.795785	city	2	1	0.865301	0.865301	0	1	0	0	CorrectCommission	0.077783	0.792666	1
234.429749	0.795833	city	8	1	0.914501	0.914501	0	1	0	0	CorrectCommission	0.331979	0.804696	1
235.225403	0.795495	city	6	1	0.399713	0.399713	0	1	0	0	CorrectCommission	2.327680	0.822140	0
236.021164	0.796036	city	7	1	0.350067	0.350067	0	1	0	0	CorrectCommission	2.584176	0.843173	0
236.817078	0.795793	city	4	1	0.797880	0.797880	0	1	0	0	CorrectCommission	0.270546	0.866207	0
237.612885	0.795815	city	7	1	0.648199	0.648199	0	1	0	0	CorrectCommission	1.043878	0.890010	0
238.408691	0.795790	city	10	1	0.748001	0.748001	0	1	0	0	CorrectCommission	0.528247	0.913424	0
239.204498	0.795837	city	5	1	0.849042	0.849042	0	1	0	0	CorrectCommission	0.006219	0.935425	0
240.000229	0.795598	city	3	1	0.809892	0.809892	0	1	0	0	CorrectCommission	0.208489	0.955085	0
240.795914	0.795793	city	8	1	1.046851	1.046851	0	1	0	0	CorrectCommission	1.015765	0.971459	0
241.591843	0.796046	city	7	1	1.096573	1.096573	0	1	0	0	CorrectCommission	1.272656	0.983547	0
242.387711	0.795715	city	5	1	0.598780	0.598780	0	1	0	0	CorrectCommission	1.299198	0.990560	0
243.183487	0.795820	city	7	1	0.399588	0.399588	0	1	0	0	CorrectCommission	2.328326	0.991914	0
243.979218	0.795635	city	6	1	0.549201	0.549201	0	1	0	0	CorrectCommission	1.555348	0.987398	0
244.775009	0.795955	city	5	1	0.648785	0.648785	0	1	0	0	CorrectCommission	1.040851	0.977374	0
245.570786	0.795596	mountain	7	1	0.798078	0.798078	0	0	1	0	CommissionError	0.269525	0.962709	0
246.366486	0.795813	city	4	1	1.096430	1.096430	0	1	0	0	CorrectCommission	1.271914	0.944755	0
247.162430	0.796079	mountain	8	0	0.000000	1.020762	1	0	0	0	CorrectOmission	0.880973	0.925199	0
247.958313	0.795686	city	2	1	0.858573	0.858573	0	1	0	0	CorrectCommission	0.043024	0.905930	0
248.754120	0.795921	city	5	1	0.897365	0.897365	0	1	0	0	CorrectCommission	0.243441	0.888922	0
249.549835	0.795507	city	8	1	0.399536	0.399536	0	1	0	0	CorrectCommission	2.328594	0.875940	0
250.345490	0.795814	city	6	1	0.649207	0.649207	0	1	0	0	CorrectCommission	1.038668	0.868405	0
251.141449	0.796090	city	8	1	0.798188	0.798188	0	1	0	0	CorrectCommission	0.268954	0.867476	0
251.937347	0.795719	city	10	1	0.797721	0.797721	0	1	0	0	CorrectCommission	0.271370	0.873906	0
252.733093	0.795754	city	9	1	0.947006	0.947006	0	1	0	0	CorrectCommission	0.499914	0.888025	0
253.528946	0.795954	mountain	4	0	0.000000	0.974052	1	0	0	0	CorrectOmission	0.639650	0.909861	0
254.324799	0.795756	mountain	6	1	0.847553	0.847553	0	0	1	0	CommissionError	0.013913	0.939306	0
255.120544	0.795753	city	10	0	0.000000	0.536200	0	0	0	1	OmissionError	1.622521	0.976217	0
255.916321	0.795802	city	8	1	0.449368	0.449368	0	1	0	0	CorrectCommission	2.071138	1.020402	0
256.712128	0.795813	city	4	1	0.996432	0.996432	0	1	0	0	CorrectCommission	0.755274	1.071775	0
257.507935	0.795792	city	5	1	1.245553	1.245553	0	1	0	0	CorrectCommission	2.042361	1.130209	0
258.303650	0.795620	city	4	1	0.748185	0.748185	0	1	0	0	CorrectCommission	0.527296	1.195287	0
259.099335	0.795770	city	7	1	0.698483	0.698483	0	1	0	0	CorrectCommission	0.784084	1.266179	0
259.895264	0.796070	city	2	1	0.897664	0.897664	0	1	0	0	CorrectCommission	0.244986	1.341333	0
260.691193	0.795799	city	4	1	1.102204	1.102204	0	1	0	0	CorrectCommission	1.301746	1.418363	0
261.487000	0.795819	city	7	1	1.101833	1.101833	0	1	0	0	CorrectCommission	1.299830	1.493979	0
262.282745	0.795686	city	6	1	1.097668	1.097668	0	1	0	0	CorrectCommission	1.278311	1.564217	0
263.078491	0.795814	city	10	1	0.599302	0.599302	0	1	0	0	CorrectCommission	1.296503	1.624757	0
263.874329	0.795831	city	9	1	0.311184	0.311184	0	1	0	0	CorrectCommission	2.785068	1.671264	0
264.670013	0.795571	city	3	1	0.349844	0.349844	0	1	0	0	CorrectCommission	2.585329	1.699976	0
265.465851	0.796100	city	2	1	0.318796	0.318796	0	1	0	0	CorrectCommission	2.745739	1.708266	0
266.261658	0.795502	city	10	1	0.350094	0.350094	0	1	0	0	CorrectCommission	2.584041	1.694995	0
267.057312	0.795822	city	7	1	0.350633	0.350633	0	1	0	0	CorrectCommission	2.581252	1.660660	0
267.853241	0.796000	city	10	1	0.352375	0.352375	0	1	0	0	CorrectCommission	2.572256	1.607452	0
268.649139	0.795795	city	9	1	0.449731	0.449731	0	1	0	0	CorrectCommission	2.069263	1.538994	0
269.444977	0.795893	mountain	10	1	0.797586	0.797586	0	0	1	0	CommissionError	0.272069	1.459904	0
270.240784	0.795713	city	3	1	0.759944	0.759944	0	1	0	0	CorrectCommission	0.466545	1.375252	0
271.036438	0.795591	city	9	1	0.963899	0.963899	0	1	0	0	CorrectCommission	0.587191	1.289879	0
271.832245	0.796064	city	10	1	1.161722	1.161722	0	1	0	0	CorrectCommission	1.609249	1.207980	0
272.628174	0.795785	city	1	0	0.000000	0.801697	0	0	0	1	OmissionError	0.250826	1.132605	0
273.423981	0.795836	city	4	1	0.506021	0.506021	0	1	0	0	CorrectCommission	1.778439	1.065623	0
274.219635	0.795473	city	7	1	0.896893	0.896893	0	1	0	0	CorrectCommission	0.241005	1.007567	0
275.015411	0.796035	city	8	1	0.947452	0.947452	0	1	0	0	CorrectCommission	0.502218	0.957905	0
275.811218	0.795620	city	4	1	1.005357	1.005357	0	1	0	0	CorrectCommission	0.801384	0.915250	0
276.607056	0.796020	city	7	1	1.049808	1.049808	0	1	0	0	CorrectCommission	1.031039	0.877697	0
277.402863	0.795602	city	10	1	1.062110	1.062110	0	1	0	0	CorrectCommission	1.094598	0.843259	0
278.198700	0.796079	city	5	1	1.195965	1.195965	0	1	0	0	CorrectCommission	1.786166	0.810109	0
278.994598	0.795688	city	1	0	0.000000	0.894018	0	0	0	1	OmissionError	0.226152	0.776825	1
279.790253	0.795664	city	8	1	0.598571	0.598571	0	1	0	0	CorrectCommission	1.300280	0.742626	1
280.586090	0.795995	city	2	1	0.751927	0.751927	0	1	0	0	CorrectCommission	0.507965	0.707257	1
281.381989	0.795792	city	5	1	0.997331	0.997331	0	1	0	0	CorrectCommission	0.759921	0.671010	1
282.177673	0.795582	mountain	8	0	0.000000	0.939363	1	0	0	0	CorrectOmission	0.460424	0.634548	1
282.973511	0.796079	city	7	1	0.799187	0.799187	0	1	0	0	CorrectCommission	0.263795	0.598764	1
283.769440	0.795795	city	5	1	0.797972	0.797972	0	1	0	0	CorrectCommission	0.270074	0.564602	1
284.565247	0.795831	city	2	1	0.747958	0.747958	0	1	0	0	CorrectCommission	0.528468	0.532911	1
285.360931	0.795534	city	1	1	0.946698	0.946698	0	1	0	0	CorrectCommission	0.498322	0.504336	1
286.156586	0.795758	city	4	1	0.997546	0.997546	0	1	0	0	CorrectCommission	0.761027	0.479285	1
286.952515	0.796099	city	3	1	0.997034	0.997034	0	1	0	0	CorrectCommission	0.758383	0.457961	1
287.748322	0.795517	city	4	1	0.847435	0.847435	0	1	0	0	CorrectCommission	0.014522	0.440304	1
288.544098	0.796037	mountain	5	0	0.000000	0.794809	1	0	0	0	CorrectOmission	0.286416	0.426086	1
289.339996	0.795752	mountain	4	0	0.000000	0.810486	1	0	0	0	CorrectOmission	0.205417	0.414887	1
290.135803	0.795892	city	7	1	0.865799	0.865799	0	1	0	0	CorrectCommission	0.080357	0.406310	1
290.931610	0.795709	mountain	1	0	0.000000	0.932078	1	0	0	0	CorrectOmission	0.422788	0.399968	1
291.727386	0.795826	city	9	1	0.896993	0.896993	0	1	0	0	CorrectCommission	0.241521	0.395663	1
292.523071	0.795549	city	8	1	0.648214	0.648214	0	1	0	0	CorrectCommission	1.043800	0.393462	1
293.318878	0.796097	city	5	1	0.698895	0.698895	0	1	0	0	CorrectCommission	0.781955	0.393687	1
294.114807	0.795733	city	1	1	0.797430	0.797430	0	1	0	0	CorrectCommission	0.272873	0.396955	1
294.910614	0.795880	city	6	1	0.850649	0.850649	0	1	0	0	CorrectCommission	0.002084	0.404067	1
295.706421	0.795757	mountain	9	1	0.946630	0.946630	0	0	1	0	CommissionError	0.497969	0.415833	1
296.502258	0.795893	city	8	1	0.805705	0.805705	0	1	0	0	CorrectCommission	0.230121	0.432931	1
297.298065	0.795707	city	1	1	0.748379	0.748379	0	1	0	0	CorrectCommission	0.526295	0.455666	1
298.093811	0.795783	city	6	1	0.897742	0.897742	0	1	0	0	CorrectCommission	0.245390	0.483814	1
298.889618	0.795828	city	7	1	0.847421	0.847421	0	1	0	0	CorrectCommission	0.014595	0.516510	1
299.685394	0.795763	city	4	1	0.847158	0.847158	0	1	0	0	CorrectCommission	0.015950	0.552186	1
300.481171	0.795799	city	6	1	0.847763	0.847763	0	1	0	0	CorrectCommission	0.012827	0.588667	1
301.277008	0.795840	city	4	1	0.797556	0.797556	0	1	0	0	CorrectCommission	0.272223	0.623368	1
302.072723	0.795613	city	6	1	1.195742	1.195742	0	1	0	0	CorrectCommission	1.785012	0.653554	1
302.868530	0.796024	city	7	1	1.146321	1.146321	0	1	0	0	CorrectCommission	1.529679	0.676634	1
303.664459	0.795822	city	10	1	1.105655	1.105655	0	1	0	0	CorrectCommission	1.319575	0.690559	1
304.460144	0.795553	city	9	1	1.096348	1.096348	0	1	0	0	CorrectCommission	1.271489	0.693995	1
305.255951	0.796014	city	5	1	1.011584	1.011584	0	1	0	0	CorrectCommission	0.833555	0.686494	1
306.051819	0.795773	city	4	1	0.947204	0.947204	0	1	0	0	CorrectCommission	0.500937	0.668471	1
306.847656	0.795866	city	8	1	0.797877	0.797877	0	1	0	0	CorrectCommission	0.270564	0.641113	1
307.643463	0.795763	city	1	1	0.708963	0.708963	0	1	0	0	CorrectCommission	0.729939	0.606198	1
308.439148	0.795611	city	3	1	0.656994	0.656994	0	1	0	0	CorrectCommission	0.998435	0.565835	1
309.234985	0.796048	city	2	1	0.704417	0.704417	0	1	0	0	CorrectCommission	0.753424	0.522253	1
310.030884	0.795775	city	7	1	0.849477	0.849477	0	1	0	0	CorrectCommission	0.003970	0.477586	1
310.826660	0.795766	city	6	1	0.847540	0.847540	0	1	0	0	CorrectCommission	0.013978	0.433724	1
311.622467	0.795852	city	2	1	0.809364	0.809364	0	1	0	0	CorrectCommission	0.211214	0.392185	1
312.418274	0.795772	city	5	1	0.847244	0.847244	0	1	0	0	CorrectCommission	0.015505	0.354103	1
313.214050	0.795754	city	3	1	0.946822	0.946822	0	1	0	0	CorrectCommission	0.498963	0.320244	1
314.009827	0.795813	city	6	1	1.010019	1.010019	0	1	0	0	CorrectCommission	0.825471	0.291071	1
314.805634	0.795802	city	5	1	0.909889	0.909889	0	1	0	0	CorrectCommission	0.308147	0.266805	1
315.601440	0.795774	city	8	1	0.848217	0.848217	0	1	0	0	CorrectCommission	0.010482	0.247536	1
316.397125	0.795628	city	9	1	0.862198	0.862198	0	1	0	0	CorrectCommission	0.061753	0.233223	1
317.192841	0.795811	city	3	1	0.847392	0.847392	0	1	0	0	CorrectCommission	0.014745	0.223708	1
317.988770	0.796014	city	1	1	0.847681	0.847681	0	1	0	0	CorrectCommission	0.013249	0.218716	1
318.784668	0.795790	city	7	1	0.847678	0.847678	0	1	0	0	CorrectCommission	0.013264	0.217848	1
319.580475	0.795843	city	4	1	0.863027	0.863027	0	1	0	0	CorrectCommission	0.066036	0.220555	1
320.376282	0.795786	city	10	1	0.947135	0.947135	0	1	0	0	CorrectCommission	0.500580	0.226185	1
321.171967	0.795538	city	2	1	0.798584	0.798584	0	1	0	0	CorrectCommission	0.266909	0.234049	1
321.967712	0.795993	city	5	1	0.856540	0.856540	0	1	0	0	CorrectCommission	0.032520	0.243459	1
322.763672	0.795876	city	4	1	0.897037	0.897037	0	1	0	0	CorrectCommission	0.241751	0.253816	1
323.559357	0.795548	city	5	1	0.967578	0.967578	0	1	0	0	CorrectCommission	0.606202	0.264649	1
324.355133	0.795959	city	3	1	0.900755	0.900755	0	1	0	0	CorrectCommission	0.260960	0.275640	1
325.150909	0.795594	city	9	1	0.947718	0.947718	0	1	0	0	CorrectCommission	0.503595	0.286693	1
325.946716	0.796071	city	6	1	0.897749	0.897749	0	1	0	0	CorrectCommission	0.245429	0.297853	1
326.742676	0.795837	city	5	1	0.897520	0.897520	0	1	0	0	CorrectCommission	0.244245	0.309344	1
327.538452	0.795722	city	8	1	0.806196	0.806196	0	1	0	0	CorrectCommission	0.227584	0.321467	1
328.334259	0.795892	city	3	1	0.847550	0.847550	0	1	0	0	CorrectCommission	0.013928	0.334533	1
329.130005	0.795582	city	9	1	0.761710	0.761710	0	1	0	0	CorrectCommission	0.457422	0.348815	1
329.925781	0.795938	city	10	1	0.804014	0.804014	0	1	0	0	CorrectCommission	0.238857	0.364483	1
330.721710	0.795933	city	7	1	0.797589	0.797589	0	1	0	0	CorrectCommission	0.272050	0.381620	1
331.517426	0.795517	city	5	1	0.762808	0.762808	0	1	0	0	CorrectCommission	0.451747	0.400220	1
332.313202	0.796039	city	2	1	0.698626	0.698626	0	1	0	0	CorrectCommission	0.783342	0.420262	1
333.109131	0.795806	city	3	1	0.747908	0.747908	0	1	0	0	CorrectCommission	0.528727	0.441749	1
333.904785	0.795525	city	5	1	0.897223	0.897223	0	1	0	0	CorrectCommission	0.242708	0.464792	1
334.700562	0.796011	city	3	1	0.915727	0.915727	0	1	0	0	CorrectCommission	0.338312	0.489593	1
335.496490	0.795841	city	6	1	0.847219	0.847219	0	1	0	0	CorrectCommission	0.015635	0.516526	1
336.292328	0.795858	city	8	1	1.046512	1.046512	0	1	0	0	CorrectCommission	1.014011	0.546249	1
337.088165	0.795777	city	9	1	0.946957	0.946957	0	1	0	0	CorrectCommission	0.499661	0.579548	1
337.883911	0.795742	city	3	1	1.012087	1.012087	0	1	0	0	CorrectCommission	0.836153	0.617320	1
338.679718	0.795873	city	8	1	1.046295	1.046295	0	1	0	0	CorrectCommission	1.012889	0.660453	1
339.475555	0.795818	mountain	5	0	0.000000	0.884316	1	0	0	0	CorrectOmission	0.176028	0.709698	1
340.271332	0.795743	city	3	1	0.754209	0.754209	0	1	0	0	CorrectCommission	0.496172	0.765492	1
341.067139	0.795839	mountain	8	0	0.000000	0.884030	1	0	0	0	CorrectOmission	0.174549	0.827689	0
341.862946	0.795777	city	6	1	1.046391	1.046391	0	1	0	0	CorrectCommission	1.013385	0.895536	0
342.658722	0.795789	city	10	1	1.013901	1.013901	0	1	0	0	CorrectCommission	0.845530	0.967454	0
343.454529	0.795836	city	9	1	1.010676	1.010676	0	1	0	0	CorrectCommission	0.828868	1.041146	0
344.250214	0.795483	city	7	1	1.047107	1.047107	0	1	0	0	CorrectCommission	1.017088	1.113624	0
345.045868	0.795856	city	5	1	1.046435	1.046435	0	1	0	0	CorrectCommission	1.013616	1.181493	0
345.841675	0.795738	city	8	1	1.046588	1.046588	0	1	0	0	CorrectCommission	1.014406	1.241264	0
346.637573	0.796067	city	2	1	0.549059	0.549059	0	1	0	0	CorrectCommission	1.556085	1.289662	0
347.433502	0.795786	city	7	1	0.349992	0.349992	0	1	0	0	CorrectCommission	2.584565	1.324038	0
348.229340	0.795913	city	10	1	0.306967	0.306967	0	1	0	0	CorrectCommission	2.806857	1.342716	0
349.025177	0.795747	mountain	1	1	0.350215	0.350215	0	0	1	0	CommissionError	2.583416	1.345263	0
349.820831	0.795539	city	3	1	0.897527	0.897527	0	1	0	0	CorrectCommission	0.244280	1.332558	0
350.616638	0.796110	city	2	1	0.848117	0.848117	0	1	0	0	CorrectCommission	0.010997	1.306783	0
351.412567	0.795759	city	9	1	0.350292	0.350292	0	1	0	0	CorrectCommission	2.583016	1.271066	0
352.208374	0.795835	mountain	10	1	0.300068	0.300068	0	0	1	0	CommissionError	2.842498	1.229067	0
353.004150	0.795736	city	5	1	0.756831	0.756831	0	1	0	0	CorrectCommission	0.482628	1.184706	0
353.799835	0.795599	mountain	10	0	0.000000	0.776643	1	0	0	0	CorrectOmission	0.380270	1.141704	0
354.595642	0.796047	city	10	1	0.711321	0.711321	0	1	0	0	CorrectCommission	0.717758	1.103006	0
355.391571	0.795813	city	6	1	0.912682	0.912682	0	1	0	0	CorrectCommission	0.322576	1.070503	0
356.187408	0.795818	city	2	1	0.853799	0.853799	0	1	0	0	CorrectCommission	0.018361	1.044902	0
356.983063	0.795508	city	1	1	1.063559	1.063559	0	1	0	0	CorrectCommission	1.102088	1.025751	0
357.778809	0.796010	city	9	1	1.046884	1.046884	0	1	0	0	CorrectCommission	1.015933	1.011523	0
358.574615	0.795596	city	1	1	1.058118	1.058118	0	1	0	0	CorrectCommission	1.073974	1.000070	0
359.370422	0.796035	city	7	1	0.947280	0.947280	0	1	0	0	CorrectCommission	0.501329	0.988975	0
360.166321	0.795739	city	5	1	0.449507	0.449507	0	1	0	0	CorrectCommission	2.070423	0.976058	0
360.962006	0.795634	city	10	1	0.313388	0.313388	0	1	0	0	CorrectCommission	2.773683	0.959567	0
361.757812	0.795971	city	5	1	0.598975	0.598975	0	1	0	0	CorrectCommission	1.298191	0.938626	0
362.553711	0.795813	mountain	2	0	0.000000	0.783422	1	0	0	0	CorrectOmission	0.345246	0.913300	0
363.349426	0.795617	mountain	4	1	0.897410	0.897410	0	0	1	0	CommissionError	0.243676	0.884487	0
364.145233	0.796021	city	9	0	0.000000	0.971622	0	0	0	1	OmissionError	0.627095	0.853701	0
364.941010	0.795527	city	4	1	0.996436	0.996436	0	1	0	0	CorrectCommission	0.755294	0.822811	0
365.736847	0.796147	city	10	1	0.962227	0.962227	0	1	0	0	CorrectCommission	0.578556	0.793827	1
366.532837	0.795819	city	8	1	0.996387	0.996387	0	1	0	0	CorrectCommission	0.755043	0.768604	1
367.328491	0.795489	city	10	1	1.003814	1.003814	0	1	0	0	CorrectCommission	0.793416	0.748653	1
368.124207	0.795980	city	3	0	0.000000	0.832968	0	0	0	1	OmissionError	0.089266	0.735040	1
368.920044	0.795641	city	5	1	0.657754	0.657754	0	1	0	0	CorrectCommission	0.994511	0.728257	1
369.715881	0.796079	city	1	1	0.652079	0.652079	0	1	0	0	CorrectCommission	1.023829	0.728092	1
370.511780	0.795707	city	5	1	0.747816	0.747816	0	1	0	0	CorrectCommission	0.529202	0.733912	1
371.307526	0.795779	city	8	1	0.900515	0.900515	0	1	0	0	CorrectCommission	0.259719	0.744644	1
372.103333	0.795823	city	2	1	0.996441	0.996441	0	1	0	0	CorrectCommission	0.755321	0.758859	1
372.899139	0.795787	city	6	1	0.947157	0.947157	0	1	0	0	CorrectCommission	0.500694	0.774977	1
373.694824	0.795621	city	10	1	0.947747	0.947747	0	1	0	0	CorrectCommission	0.503743	0.791461	1
374.490631	0.795974	city	9	1	1.047195	1.047195	0	1	0	0	CorrectCommission	1.017542	0.806838	1
375.286560	0.795864	city	4	1	1.195742	1.195742	0	1	0	0	CorrectCommission	1.785010	0.819979	0
376.082275	0.795559	city	7	0	0.000000	0.887670	0	0	0	1	OmissionError	0.193354	0.830150	0
376.878052	0.795988	city	6	1	0.549546	0.549546	0	1	0	0	CorrectCommission	1.553570	0.837264	0
377.673950	0.795829	city	5	1	0.607934	0.607934	0	1	0	0	CorrectCommission	1.251904	0.841586	0
378.469757	0.795797	city	7	1	0.599479	0.599479	0	1	0	0	CorrectCommission	1.295587	0.843842	0
379.265594	0.795872	mountain	5	0	0.000000	0.707689	1	0	0	0	CorrectOmission	0.736521	0.845055	0
380.061310	0.795542	city	1	1	0.847757	0.847757	0	1	0	0	CorrectCommission	0.012859	0.846345	0
380.857117	0.796097	mountain	4	0	0.000000	0.934876	1	0	0	0	CorrectOmission	0.437242	0.848679	0
381.653015	0.795687	city	6	1	0.947307	0.947307	0	1	0	0	CorrectCommission	0.501469	0.852671	0
382.448761	0.795826	city	4	1	0.863312	0.863312	0	1	0	0	CorrectCommission	0.067509	0.858511	0
383.244629	0.795871	city	9	1	1.146030	1.146030	0	1	0	0	CorrectCommission	1.528175	0.865973	0
384.040344	0.795553	city	1	1	1.345114	1.345114	0	1	0	0	CorrectCommission	2.556742	0.874354	0
384.835999	0.795809	city	5	1	0.798407	0.798407	0	1	0	0	CorrectCommission	0.267826	0.882725	0
385.631927	0.796050	city	7	1	0.801704	0.801704	0	1	0	0	CorrectCommission	0.250790	0.890193	0
386.427826	0.795702	city	3	1	0.798080	0.798080	0	1	0	0	CorrectCommission	0.269514	0.895853	0
387.223572	0.795785	city	5	1	0.905883	0.905883	0	1	0	0	CorrectCommission	0.287454	0.899095	0
388.019348	0.795810	city	1	1	0.400357	0.400357	0	1	0	0	CorrectCommission	2.324353	0.899705	0
388.815186	0.795860	mountain	8	1	0.300309	0.300309	0	0	1	0	CommissionError	2.841255	0.897829	0
389.610992	0.795753	city	10	1	0.912494	0.912494	0	1	0	0	CorrectCommission	0.321609	0.894056	0
390.406830	0.795900	city	3	1	1.003564	1.003564	0	1	0	0	CorrectCommission	0.792122	0.889386	0
391.202667	0.795786	mountain	1	0	0.000000	0.850011	1	0	0	0	CorrectOmission	0.001214	0.884803	0
391.998322	0.795518	city	9	1	0.699148	0.699148	0	1	0	0	CorrectCommission	0.780649	0.881262	0
392.794006	0.795847	city	10	1	0.798289	0.798289	0	1	0	0	CorrectCommission	0.268433	0.879361	0
393.589905	0.795940	mountain	10	1	0.897557	0.897557	0	0	1	0	CommissionError	0.244433	0.879421	0
394.385803	0.795864	city	10	1	1.046253	1.046253	0	1	0	0	CorrectCommission	1.012674	0.881318	0
395.181610	0.795778	city	6	1	1.096134	1.096134	0	1	0	0	CorrectCommission	1.270384	0.884563	0
395.977386	0.795755	city	9	1	1.055092	1.055092	0	1	0	0	CorrectCommission	1.058342	0.888488	0
396.773163	0.795806	city	2	1	0.549520	0.549520	0	1	0	0	CorrectCommission	1.553704	0.892376	0
397.569000	0.795882	city	6	1	0.599030	0.599030	0	1	0	0	CorrectCommission	1.297910	0.895623	0
398.364838	0.795766	city	2	1	0.648528	0.648528	0	1	0	0	CorrectCommission	1.042176	0.897835	0
399.160645	0.795869	city	6	1	0.798120	0.798120	0	1	0	0	CorrectCommission	0.269307	0.898876	0
399.956451	0.795701	city	5	1	0.648361	0.648361	0	1	0	0	CorrectCommission	1.043041	0.898858	0
400.752197	0.795830	city	2	1	0.748298	0.748298	0	1	0	0	CorrectCommission	0.526716	0.897974	0
401.548004	0.795764	city	7	1	0.897390	0.897390	0	1	0	0	CorrectCommission	0.243570	0.896446	0
402.343719	0.795650	city	3	1	1.096602	1.096602	0	1	0	0	CorrectCommission	1.272803	0.894496	0
403.139526	0.795970	city	10	1	1.096630	1.096630	0	1	0	0	CorrectCommission	1.272949	0.892146	0
403.935455	0.795915	city	1	1	0.996560	0.996560	0	1	0	0	CorrectCommission	0.755935	0.889268	0
404.731323	0.795802	city	5	1	1.062594	1.062594	0	1	0	0	CorrectCommission	1.097103	0.885525	0
405.527069	0.795693	city	7	1	1.145663	1.145663	0	1	0	0	CorrectCommission	1.526276	0.880397	0
406.322815	0.795830	mountain	2	0	0.000000	0.949610	1	0	0	0	CorrectOmission	0.513367	0.873218	0
407.118530	0.795559	city	3	1	0.747889	0.747889	0	1	0	0	CorrectCommission	0.528827	0.863421	0
407.914185	0.795752	city	2	1	0.813953	0.813953	0	1	0	0	CorrectCommission	0.187506	0.850519	0
408.710114	0.796144	city	9	1	0.963333	0.963333	0	1	0	0	CorrectCommission	0.584265	0.834298	0
409.506042	0.795696	city	8	1	1.147523	1.147523	0	1	0	0	CorrectCommission	1.535886	0.814910	0
410.301788	0.795816	city	7	1	1.145632	1.145632	0	1	0	0	CorrectCommission	1.526117	0.792980	1
411.097626	0.795820	city	5	1	1.195764	1.195764	0	1	0	0	CorrectCommission	1.785125	0.769683	1
411.893433	0.795837	city	9	0	0.000000	0.963429	0	0	0	1	OmissionError	0.584765	0.746654	1
412.689178	0.795602	city	8	1	0.748036	0.748036	0	1	0	0	CorrectCommission	0.528066	0.725877	1
413.484985	0.796061	city	2	1	0.848993	0.848993	0	1	0	0	CorrectCommission	0.006471	0.709422	1
414.280914	0.795748	city	7	1	0.948779	0.948779	0	1	0	0	CorrectCommission	0.509075	0.699205	1
415.076630	0.795721	mountain	1	0	0.000000	0.847449	1	0	0	0	CorrectOmission	0.014447	0.696659	1
415.872406	0.795839	city	8	1	0.748208	0.748208	0	1	0	0	CorrectCommission	0.527177	0.702580	1
416.668121	0.795596	city	7	1	0.854261	0.854261	0	1	0	0	CorrectCommission	0.020748	0.716893	1
417.463989	0.796088	city	8	1	0.948096	0.948096	0	1	0	0	CorrectCommission	0.505545	0.738637	1
418.259918	0.795797	city	1	1	1.052706	1.052706	0	1	0	0	CorrectCommission	1.046014	0.765976	1
419.055695	0.795728	city	7	1	1.145695	1.145695	0	1	0	0	CorrectCommission	1.526443	0.796393	1
419.851440	0.795815	city	8	0	0.000000	0.854536	0	0	0	1	OmissionError	0.022166	0.826899	0
420.647156	0.795601	city	1	1	0.550585	0.550585	0	1	0	0	CorrectCommission	1.548199	0.854390	0
421.442871	0.795810	city	2	1	0.605199	0.605199	0	1	0	0	CorrectCommission	1.266035	0.875794	0
422.238770	0.796006	city	8	1	0.762341	0.762341	0	1	0	0	CorrectCommission	0.454159	0.888538	0
423.034698	0.795859	city	6	1	1.097969	1.097969	0	1	0	0	CorrectCommission	1.279864	0.890748	0
423.830505	0.795741	city	5	1	0.996582	0.996582	0	1	0	0	CorrectCommission	0.756047	0.881419	0
424.626160	0.795560	city	3	1	1.195783	1.195783	0	1	0	0	CorrectCommission	1.785222	0.860626	0
425.421936	0.796001	city	7	1	1.154597	1.154597	0	1	0	0	CorrectCommission	1.572436	0.829521	0
426.217834	0.795779	city	6	1	0.648713	0.648713	0	1	0	0	CorrectCommission	1.041219	0.790302	1
427.013672	0.795922	city	10	1	0.603034	0.603034	0	1	0	0	CorrectCommission	1.277222	0.746035	1
427.809540	0.795770	city	9	1	0.896876	0.896876	0	1	0	0	CorrectCommission	0.240918	0.700390	1
428.605255	0.795719	city	6	1	0.847745	0.847745	0	1	0	0	CorrectCommission	0.012918	0.657332	1
429.401062	0.795843	city	9	1	0.797768	0.797768	0	1	0	0	CorrectCommission	0.271126	0.620742	1
430.196777	0.795622	city	6	1	0.848725	0.848725	0	1	0	0	CorrectCommission	0.007856	0.594014	1
430.992615	0.796062	city	1	1	0.748911	0.748911	0	1	0	0	CorrectCommission	0.523544	0.579792	1
431.788513	0.795735	city	9	1	0.814267	0.814267	0	1	0	0	CorrectCommission	0.185882	0.579624	1
432.584259	0.795742	city	8	1	0.797427	0.797427	0	1	0	0	CorrectCommission	0.272886	0.593925	1
433.380096	0.795942	city	3	1	0.812994	0.812994	0	1	0	0	CorrectCommission	0.192462	0.621804	1
434.175964	0.795761	city	6	1	0.912895	0.912895	0	1	0	0	CorrectCommission	0.323678	0.661233	1
434.971710	0.795723	city	10	1	0.996496	0.996496	0	1	0	0	CorrectCommission	0.755607	0.709185	1
435.767517	0.795896	city	6	1	0.963888	0.963888	0	1	0	0	CorrectCommission	0.587137	0.761915	1
436.563324	0.795760	city	9	1	0.950941	0.950941	0	1	0	0	CorrectCommission	0.520244	0.815363	0
437.359100	0.795783	city	3	1	1.046801	1.046801	0	1	0	0	CorrectCommission	1.015508	0.865598	0
438.154907	0.795829	city	2	1	1.157173	1.157173	0	1	0	0	CorrectCommission	1.585744	0.909033	0
438.950684	0.795731	city	9	1	1.115142	1.115142	0	1	0	0	CorrectCommission	1.368592	0.942883	0
439.746368	0.795630	city	6	1	0.599137	0.599137	0	1	0	0	CorrectCommission	1.297356	0.965435	0
440.542175	0.795967	city	4	1	0.403339	0.403339	0	1	0	0	CorrectCommission	2.308950	0.976090	0
441.338104	0.795872	city	9	1	0.598554	0.598554	0	1	0	0	CorrectCommission	1.300368	0.975371	0
442.133942	0.795821	city	10	1	0.659589	0.659589	0	1	0	0	CorrectCommission	0.985029	0.964755	0
442.929626	0.795535	city	2	1	0.649396	0.649396	0	1	0	0	CorrectCommission	1.037694	0.946413	0
443.725372	0.795986	city	1	1	0.804079	0.804079	0	1	0	0	CorrectCommission	0.238523	0.922822	0
444.521301	0.795880	city	2	1	0.806496	0.806496	0	1	0	0	CorrectCommission	0.226033	0.896543	0
445.317017	0.795538	city	9	1	0.908600	0.908600	0	1	0	0	CorrectCommission	0.301491	0.869834	0
446.112823	0.796082	city	3	1	1.008694	1.008694	0	1	0	0	CorrectCommission	0.818626	0.844478	0
446.908783	0.795827	city	7	1	1.046990	1.046990	0	1	0	0	CorrectCommission	1.016481	0.821709	0
447.704559	0.795700	city	2	1	1.199968	1.199968	0	1	0	0	CorrectCommission	1.806846	0.802291	1
448.500183	0.795602	city	4	0	0.000000	0.990405	0	0	0	1	OmissionError	0.724136	0.786543	1
449.295990	0.795998	city	10	1	0.748401	0.748401	0	1	0	0	CorrectCommission	0.526182	0.774550	1
450.091919	0.795860	city	7	1	0.804055	0.804055	0	1	0	0	CorrectCommission	0.238642	0.766196	1
450.887726	0.795731	city	6	1	0.847539	0.847539	0	1	0	0	CorrectCommission	0.013984	0.761364	1
451.683502	0.795840	city	1	1	1.046982	1.046982	0	1	0	0	CorrectCommission	1.016439	0.759939	1
452.479340	0.795810	city	3	1	1.245574	1.245574	0	1	0	0	CorrectCommission	2.042467	0.761833	1
453.275177	0.795861	city	1	1	0.748348	0.748348	0	1	0	0	CorrectCommission	0.526456	0.766968	1
454.070953	0.795688	city	3	1	0.748155	0.748155	0	1	0	0	CorrectCommission	0.527454	0.775308	1
454.866699	0.795842	city	7	1	0.897511	0.897511	0	1	0	0	CorrectCommission	0.244199	0.786646	1
455.662537	0.795806	city	3	1	0.947421	0.947421	0	1	0	0	CorrectCommission	0.502057	0.800566	1
456.458344	0.795805	city	1	1	1.096218	1.096218	0	1	0	0	CorrectCommission	1.270821	0.816379	0
457.254181	0.795872	city	5	0	0.000000	0.855747	0	0	0	1	OmissionError	0.028422	0.833134	0
458.049957	0.795697	mountain	8	1	0.648530	0.648530	0	0	1	0	CommissionError	1.042167	0.849733	0
458.845703	0.795796	city	1	1	0.897091	0.897091	0	1	0	0	CorrectCommission	0.242030	0.864961	0
459.641541	0.795869	city	5	1	0.400428	0.400428	0	1	0	0	CorrectCommission	2.323987	0.877778	0
460.437256	0.795585	city	3	1	0.549672	0.549672	0	1	0	0	CorrectCommission	1.552917	0.887299	0
461.233093	0.796059	city	2	1	0.798372	0.798372	0	1	0	0	CorrectCommission	0.268004	0.893165	0
462.028961	0.795719	city	10	1	0.946934	0.946934	0	1	0	0	CorrectCommission	0.499540	0.895509	0
462.824768	0.795894	city	7	1	1.095882	1.095882	0	1	0	0	CorrectCommission	1.269081	0.894892	0
463.620514	0.795545	city	6	1	1.211363	1.211363	0	1	0	0	CorrectCommission	1.865719	0.892243	0
464.416260	0.795991	mountain	10	0	0.000000	1.015655	1	0	0	0	CorrectOmission	0.854589	0.888690	0
465.212158	0.795763	city	7	1	0.847760	0.847760	0	1	0	0	CorrectCommission	0.012844	0.885404	0
466.007965	0.795889	city	4	1	1.046681	1.046681	0	1	0	0	CorrectCommission	1.014884	0.883367	0
466.803833	0.795817	city	8	1	0.900441	0.900441	0	1	0	0	CorrectCommission	0.259337	0.883077	0
467.599457	0.795441	city	5	1	1.049617	1.049617	0	1	0	0	CorrectCommission	1.030055	0.884579	0
468.395233	0.796117	mountain	1	0	0.000000	0.979356	1	0	0	0	CorrectOmission	0.667049	0.887364	0
469.191071	0.795555	city	3	1	0.906262	0.906262	0	1	0	0	CorrectCommission	0.289411	0.890513	0
469.986877	0.796076	city	2	1	1.046941	1.046941	0	1	0	0	CorrectCommission	1.016232	0.892920	0
470.782776	0.795730	city	4	1	1.096292	1.096292	0	1	0	0	CorrectCommission	1.271200	0.893565	0
471.578583	0.795859	city	6	1	1.097989	1.097989	0	1	0	0	CorrectCommission	1.279968	0.891731	0
472.374390	0.795780	city	7	1	0.598911	0.598911	0	1	0	0	CorrectCommission	1.298526	0.887225	0
473.170166	0.795741	city	10	1	0.561250	0.561250	0	1	0	0	CorrectCommission	1.493098	0.880518	0
473.965942	0.795817	city	5	1	0.599032	0.599032	0	1	0	0	CorrectCommission	1.297896	0.872663	0
474.761719	0.795763	city	6	1	0.648213	0.648213	0	1	0	0	CorrectCommission	1.043804	0.865103	0
475.557526	0.795851	city	8	1	0.748318	0.748318	0	1	0	0	CorrectCommission	0.526609	0.859285	0
476.353363	0.795776	mountain	6	0	0.000000	0.815286	1	0	0	0	CorrectOmission	0.180617	0.856310	0
477.149170	0.795883	city	6	1	0.848555	0.848555	0	1	0	0	CorrectCommission	0.008736	0.856432	0
477.945038	0.795845	city	10	1	0.847561	0.847561	0	1	0	0	CorrectCommission	0.013871	0.858848	0
478.740814	0.795676	mountain	6	1	0.996851	0.996851	0	0	1	0	CommissionError	0.757438	0.861607	0
479.536530	0.795796	city	7	1	0.897953	0.897953	0	1	0	0	CorrectCommission	0.246479	0.861613	0
480.332367	0.795857	city	5	1	1.095967	1.095967	0	1	0	0	CorrectCommission	1.269521	0.855059	0
481.128235	0.795861	city	4	1	1.245009	1.245009	0	1	0	0	CorrectCommission	2.039552	0.837805	0
481.924042	0.795757	mountain	10	0	0.000000	1.195355	1	0	0	0	CorrectOmission	1.783014	0.806078	1
482.719818	0.795803	city	1	1	1.096101	1.096101	0	1	0	0	CorrectCommission	1.270213	0.757115	1
483.515625	0.795792	city	5	1	1.096341	1.096341	0	1	0	0	CorrectCommission	1.271454	0.689588	1
484.311371	0.795734	city	9	0	0.000000	0.814566	0	0	0	1	OmissionError	0.184341	0.603986	1
485.107208	0.795908	city	10	1	0.499610	0.499610	0	1	0	0	CorrectCommission	1.811562	0.502714	1
485.903046	0.795785	city	1	1	0.400310	0.400310	0	1	0	0	CorrectCommission	2.324597	0.389831	1
486.698822	0.795798	city	3	1	0.797840	0.797840	0	1	0	0	CorrectCommission	0.270755	0.270755	1
