onset	duration	trial_type	image_type	Press	ReactionTime	ReactionTime_Interpolated	CorrectOmission	CorrectCommission	CommissionError	OmissionError	response_type	nonsmoothVarianceTimeCourse	VarianceTimeCourse	In_the_Zone
8.417583	0.792297	city	5	1	1.007823	1.007823	0	1	0	0	CorrectCommission	2.688927	2.688927	0
9.209751	0.792039	city	2	1	0.645981	0.645981	0	1	0	0	CorrectCommission	0.843755	2.467377	0
10.002062	0.792583	city	9	1	0.645926	0.645926	0	1	0	0	CorrectCommission	0.844290	2.253081	0
10.794431	0.792154	city	3	1	0.599356	0.599356	0	1	0	0	CorrectCommission	1.298955	2.052526	0
11.586515	0.792016	city	8	1	0.843782	0.843782	0	1	0	0	CorrectCommission	1.087385	1.871034	0
12.378788	0.792529	city	6	1	0.645752	0.645752	0	1	0	0	CorrectCommission	0.845985	1.712345	0
13.171171	0.792237	city	5	1	0.746520	0.746520	0	1	0	0	CorrectCommission	0.137810	1.578430	0
13.963460	0.792341	city	10	1	0.447521	0.447521	0	1	0	0	CorrectCommission	2.781326	1.469494	0
14.755722	0.792183	city	5	1	0.595882	0.595882	0	1	0	0	CorrectCommission	1.332872	1.384057	0
15.547868	0.792109	city	4	1	0.860689	0.860689	0	1	0	0	CorrectCommission	1.252449	1.319553	0
16.340063	0.792281	city	7	1	0.612726	0.612726	0	1	0	0	CorrectCommission	1.168422	1.272416	0
17.132460	0.792513	city	8	1	0.794216	0.794216	0	1	0	0	CorrectCommission	0.603473	1.238568	0
17.924831	0.792228	city	1	1	0.655910	0.655910	0	1	0	0	CorrectCommission	0.746813	1.213757	0
18.717104	0.792319	city	4	1	0.652512	0.652512	0	1	0	0	CorrectCommission	0.779991	1.193840	0
19.509388	0.792246	city	5	1	0.596480	0.596480	0	1	0	0	CorrectCommission	1.327034	1.175055	0
20.301641	0.792265	mountain	1	0	0.000000	0.859309	1	0	0	0	CorrectOmission	1.238983	1.154281	0
21.093760	0.791968	city	4	1	0.992360	0.992360	0	1	0	0	CorrectCommission	2.537967	1.129145	0
21.885899	0.792313	city	8	1	0.546993	0.546993	0	1	0	0	CorrectCommission	1.810174	1.098078	0
22.678299	0.792485	city	1	1	0.614171	0.614171	0	1	0	0	CorrectCommission	1.154320	1.060484	0
23.470556	0.792030	city	9	1	0.744421	0.744421	0	1	0	0	CorrectCommission	0.117319	1.016584	0
24.262850	0.792560	city	3	1	0.596500	0.596500	0	1	0	0	CorrectCommission	1.326835	0.967352	0
25.055250	0.792240	city	2	1	0.610058	0.610058	0	1	0	0	CorrectCommission	1.194468	0.914196	0
25.847494	0.792247	city	4	1	0.694859	0.694859	0	1	0	0	CorrectCommission	0.366559	0.858964	0
26.639719	0.792202	city	8	1	0.602937	0.602937	0	1	0	0	CorrectCommission	1.263993	0.803713	0
27.431969	0.792296	city	1	1	0.653195	0.653195	0	1	0	0	CorrectCommission	0.773318	0.750395	1
28.224148	0.792062	city	8	1	0.744762	0.744762	0	1	0	0	CorrectCommission	0.120652	0.700806	1
29.016418	0.792483	city	10	1	0.744989	0.744989	0	1	0	0	CorrectCommission	0.122864	0.656434	1
29.808670	0.792020	city	8	1	0.744841	0.744841	0	1	0	0	CorrectCommission	0.121421	0.618324	1
30.600914	0.792467	city	6	1	0.893825	0.893825	0	1	0	0	CorrectCommission	1.575962	0.587107	1
31.393169	0.792043	city	2	1	0.755118	0.755118	0	1	0	0	CorrectCommission	0.221760	0.562864	1
32.185463	0.792543	city	4	1	0.794744	0.794744	0	1	0	0	CorrectCommission	0.608628	0.545453	1
32.977833	0.792195	city	8	1	0.744611	0.744611	0	1	0	0	CorrectCommission	0.119174	0.534348	1
33.770107	0.792353	mountain	9	0	0.000000	0.708753	1	0	0	0	CorrectOmission	0.230907	0.528851	1
34.562397	0.792229	city	7	1	0.694791	0.694791	0	1	0	0	CorrectCommission	0.367223	0.528107	1
35.354626	0.792230	city	6	1	0.710343	0.710343	0	1	0	0	CorrectCommission	0.215384	0.531219	1
36.146770	0.792057	city	10	1	0.595994	0.595994	0	1	0	0	CorrectCommission	1.331781	0.537300	1
36.938896	0.792198	city	7	1	0.695467	0.695467	0	1	0	0	CorrectCommission	0.360616	0.545470	1
37.731304	0.792615	city	9	1	0.654827	0.654827	0	1	0	0	CorrectCommission	0.757388	0.555035	1
38.523739	0.792256	city	6	1	0.694854	0.694854	0	1	0	0	CorrectCommission	0.366600	0.565327	1
39.315830	0.791925	city	1	1	0.605198	0.605198	0	1	0	0	CorrectCommission	1.241925	0.575777	1
40.107964	0.792344	city	2	1	0.708935	0.708935	0	1	0	0	CorrectCommission	0.229133	0.585950	1
40.900337	0.792401	city	3	1	0.744882	0.744882	0	1	0	0	CorrectCommission	0.121818	0.595504	1
41.692608	0.792145	city	10	1	0.745077	0.745077	0	1	0	0	CorrectCommission	0.123721	0.604144	1
42.484760	0.792161	city	2	1	0.695616	0.695616	0	1	0	0	CorrectCommission	0.359160	0.611702	1
43.277153	0.792621	mountain	7	1	0.612336	0.612336	0	0	1	0	CommissionError	1.172230	0.618197	1
44.069584	0.792244	city	2	1	0.893676	0.893676	0	1	0	0	CorrectCommission	1.574504	0.623853	1
44.861843	0.792272	city	10	1	0.611563	0.611563	0	1	0	0	CorrectCommission	1.179783	0.629114	1
45.653965	0.791973	city	3	1	0.744821	0.744821	0	1	0	0	CorrectCommission	0.121224	0.634703	1
46.446194	0.792485	city	9	1	0.710517	0.710517	0	1	0	0	CorrectCommission	0.213682	0.641487	1
47.238552	0.792230	city	3	1	0.665363	0.665363	0	1	0	0	CorrectCommission	0.654523	0.650310	1
48.030685	0.792033	city	4	1	0.762244	0.762244	0	1	0	0	CorrectCommission	0.291333	0.661844	1
48.822948	0.792492	city	5	1	0.647123	0.647123	0	1	0	0	CorrectCommission	0.832604	0.676531	1
49.615341	0.792300	city	9	1	0.695426	0.695426	0	1	0	0	CorrectCommission	0.361024	0.694382	1
50.407608	0.792231	city	5	1	0.650051	0.650051	0	1	0	0	CorrectCommission	0.804017	0.715057	1
51.199764	0.792077	city	2	1	0.695436	0.695436	0	1	0	0	CorrectCommission	0.360926	0.737736	1
51.992069	0.792536	mountain	1	0	0.000000	0.688129	1	0	0	0	CorrectOmission	0.432256	0.761293	1
52.784389	0.792107	city	7	1	0.648791	0.648791	0	1	0	0	CorrectCommission	0.816316	0.784425	0
53.576656	0.792427	city	3	1	0.598080	0.598080	0	1	0	0	CorrectCommission	1.311415	0.805802	0
54.368870	0.791999	city	8	1	0.744442	0.744442	0	1	0	0	CorrectCommission	0.117530	0.824310	0
55.161121	0.792505	city	6	1	1.056365	1.056365	0	1	0	0	CorrectCommission	3.162844	0.839192	0
55.953495	0.792240	city	9	1	0.659223	0.659223	0	1	0	0	CorrectCommission	0.714470	0.849988	0
56.745758	0.792290	mountain	9	0	0.000000	0.668849	1	0	0	0	CorrectOmission	0.620489	0.856872	0
57.537933	0.792055	city	4	1	0.794454	0.794454	0	1	0	0	CorrectCommission	0.605792	0.860314	0
58.330177	0.792433	city	6	1	0.745246	0.745246	0	1	0	0	CorrectCommission	0.125379	0.861033	0
59.122532	0.792277	city	9	1	0.596325	0.596325	0	1	0	0	CorrectCommission	1.328550	0.859878	0
59.914677	0.792012	city	6	1	0.744496	0.744496	0	1	0	0	CorrectCommission	0.118051	0.857584	0
60.706936	0.792510	city	1	1	0.609823	0.609823	0	1	0	0	CorrectCommission	1.196765	0.854781	0
61.499378	0.792375	mountain	6	0	0.000000	0.612862	1	0	0	0	CorrectOmission	1.167099	0.851776	0
62.291664	0.792196	city	9	1	0.645895	0.645895	0	1	0	0	CorrectCommission	0.844590	0.848645	0
63.083927	0.792329	city	3	1	0.601208	0.601208	0	1	0	0	CorrectCommission	1.280876	0.845235	0
63.876041	0.791898	city	1	1	0.701184	0.701184	0	1	0	0	CorrectCommission	0.304805	0.841177	0
64.668282	0.792581	city	8	1	0.695414	0.695414	0	1	0	0	CorrectCommission	0.361135	0.835967	0
65.460587	0.792023	city	9	1	0.904288	0.904288	0	1	0	0	CorrectCommission	1.678115	0.829015	0
66.252869	0.792544	city	3	1	0.646429	0.646429	0	1	0	0	CorrectCommission	0.839382	0.819659	0
67.045128	0.791980	city	5	1	0.696388	0.696388	0	1	0	0	CorrectCommission	0.351626	0.807387	0
67.837257	0.792279	city	6	1	0.794810	0.794810	0	1	0	0	CorrectCommission	0.609273	0.791788	0
68.629608	0.792422	city	2	1	0.596203	0.596203	0	1	0	0	CorrectCommission	1.329743	0.772601	0
69.421936	0.792234	city	10	1	0.892993	0.892993	0	1	0	0	CorrectCommission	1.567834	0.749750	1
70.214218	0.792328	city	8	1	0.696378	0.696378	0	1	0	0	CorrectCommission	0.351726	0.723382	1
71.006508	0.792244	city	9	1	0.744727	0.744727	0	1	0	0	CorrectCommission	0.120313	0.693859	1
71.798767	0.792278	city	5	1	0.611137	0.611137	0	1	0	0	CorrectCommission	1.183941	0.661751	1
72.591026	0.792236	city	2	1	0.659085	0.659085	0	1	0	0	CorrectCommission	0.715820	0.627624	1
73.383186	0.792098	city	7	1	0.695485	0.695485	0	1	0	0	CorrectCommission	0.360441	0.592265	1
74.175491	0.792503	city	4	1	0.657236	0.657236	0	1	0	0	CorrectCommission	0.733868	0.556510	1
74.967896	0.792309	city	6	1	0.794381	0.794381	0	1	0	0	CorrectCommission	0.605088	0.521175	1
75.760185	0.792273	city	3	1	0.713644	0.713644	0	1	0	0	CorrectCommission	0.183155	0.487110	1
76.552452	0.792262	city	1	1	0.694974	0.694974	0	1	0	0	CorrectCommission	0.365432	0.455108	1
77.344666	0.792158	city	7	1	0.700464	0.700464	0	1	0	0	CorrectCommission	0.311832	0.425956	1
78.136917	0.792346	city	6	1	0.744936	0.744936	0	1	0	0	CorrectCommission	0.122353	0.400343	1
78.929176	0.792174	city	3	1	0.645221	0.645221	0	1	0	0	CorrectCommission	0.851178	0.378910	1
79.721420	0.792304	city	7	1	0.704791	0.704791	0	1	0	0	CorrectCommission	0.269591	0.362169	1
80.513725	0.792312	city	10	1	0.695338	0.695338	0	1	0	0	CorrectCommission	0.361879	0.350523	1
81.306007	0.792247	city	9	1	0.714457	0.714457	0	1	0	0	CorrectCommission	0.175221	0.344191	1
82.098274	0.792291	city	8	1	0.724110	0.724110	0	1	0	0	CorrectCommission	0.080976	0.343183	1
82.890503	0.792168	city	5	1	0.711257	0.711257	0	1	0	0	CorrectCommission	0.206462	0.347221	1
83.682747	0.792320	city	7	1	0.744519	0.744519	0	1	0	0	CorrectCommission	0.118277	0.355771	1
84.475037	0.792256	city	2	1	0.744861	0.744861	0	1	0	0	CorrectCommission	0.121619	0.368077	1
85.267288	0.792256	city	5	1	0.695056	0.695056	0	1	0	0	CorrectCommission	0.364635	0.383183	1
86.059555	0.792282	city	2	1	0.711155	0.711155	0	1	0	0	CorrectCommission	0.207452	0.400066	1
86.851814	0.792234	city	6	1	0.794316	0.794316	0	1	0	0	CorrectCommission	0.604450	0.417742	1
87.644058	0.792247	city	1	1	0.645492	0.645492	0	1	0	0	CorrectCommission	0.848524	0.435469	1
88.436340	0.792325	city	10	1	0.645847	0.645847	0	1	0	0	CorrectCommission	0.845066	0.452800	1
89.228645	0.792282	city	9	1	0.645769	0.645769	0	1	0	0	CorrectCommission	0.845821	0.469670	1
90.020905	0.792236	city	8	1	0.697257	0.697257	0	1	0	0	CorrectCommission	0.343141	0.486500	1
90.813187	0.792324	mountain	8	0	0.000000	0.720515	1	0	0	0	CorrectOmission	0.116079	0.504159	1
91.605415	0.792132	mountain	4	1	0.744882	0.744882	0	0	1	0	CommissionError	0.121824	0.523827	1
92.397629	0.792296	city	3	1	0.799701	0.799701	0	1	0	0	CorrectCommission	0.657024	0.546838	1
93.189812	0.792066	city	10	1	0.745104	0.745104	0	1	0	0	CorrectCommission	0.123985	0.574481	1
93.982101	0.792521	city	1	1	0.647697	0.647697	0	1	0	0	CorrectCommission	0.826996	0.607810	1
94.774490	0.792262	mountain	7	1	0.645424	0.645424	0	0	1	0	CommissionError	0.849187	0.647314	1
95.566750	0.792258	city	2	1	0.646916	0.646916	0	1	0	0	CorrectCommission	0.834626	0.692829	1
96.358986	0.792208	city	7	1	0.793849	0.793849	0	1	0	0	CorrectCommission	0.599889	0.743324	1
97.151260	0.792340	city	4	1	0.750102	0.750102	0	1	0	0	CorrectCommission	0.172789	0.796894	0
97.943405	0.791944	city	8	1	0.695303	0.695303	0	1	0	0	CorrectCommission	0.362218	0.850798	0
98.735535	0.792327	city	4	1	0.764885	0.764885	0	1	0	0	CorrectCommission	0.317108	0.901638	0
99.527962	0.792515	city	6	1	0.794888	0.794888	0	1	0	0	CorrectCommission	0.610037	0.945745	0
100.320221	0.792015	city	5	1	0.657137	0.657137	0	1	0	0	CorrectCommission	0.734835	0.979574	0
101.112495	0.792530	city	10	1	0.497432	0.497432	0	1	0	0	CorrectCommission	2.294048	1.000223	0
101.904869	0.792216	mountain	3	1	0.992775	0.992775	0	0	1	0	CommissionError	2.542010	1.005811	0
102.697083	0.792216	city	6	1	1.091065	1.091065	0	1	0	0	CorrectCommission	3.501627	0.995879	0
103.489212	0.792032	city	2	1	0.893280	0.893280	0	1	0	0	CorrectCommission	1.570640	0.971404	0
104.281540	0.792632	city	3	1	0.745120	0.745120	0	1	0	0	CorrectCommission	0.124146	0.934822	0
105.073860	0.792003	city	9	1	0.704397	0.704397	0	1	0	0	CorrectCommission	0.273431	0.889558	0
105.866096	0.792480	city	5	1	0.712364	0.712364	0	1	0	0	CorrectCommission	0.195655	0.839523	0
106.658478	0.792279	mountain	1	1	0.694846	0.694846	0	0	1	0	CommissionError	0.366683	0.788662	0
107.450760	0.792284	city	1	1	0.744873	0.744873	0	1	0	0	CorrectCommission	0.121733	0.740476	1
108.242889	0.791972	city	5	1	0.695455	0.695455	0	1	0	0	CorrectCommission	0.360739	0.697651	1
109.035110	0.792471	city	2	1	0.662818	0.662818	0	1	0	0	CorrectCommission	0.679378	0.661899	1
109.827515	0.792331	city	7	1	0.744653	0.744653	0	1	0	0	CorrectCommission	0.119589	0.633966	1
110.619682	0.792010	city	3	1	0.664697	0.664697	0	1	0	0	CorrectCommission	0.661026	0.613894	1
111.411926	0.792478	city	8	0	0.000000	0.624753	0	0	0	1	OmissionError	1.051000	0.601211	1
112.204323	0.792322	city	6	0	0.000000	0.620013	0	0	0	1	OmissionError	1.097284	0.595287	1
112.996605	0.792235	city	1	1	0.645666	0.645666	0	1	0	0	CorrectCommission	0.846828	0.595615	1
113.788872	0.792292	city	2	1	0.696905	0.696905	0	1	0	0	CorrectCommission	0.346583	0.602003	1
114.581093	0.792160	city	7	1	0.794363	0.794363	0	1	0	0	CorrectCommission	0.604910	0.614622	1
115.373207	0.792069	city	10	1	0.708306	0.708306	0	1	0	0	CorrectCommission	0.235274	0.633903	1
116.165512	0.792533	city	5	1	0.699792	0.699792	0	1	0	0	CorrectCommission	0.318391	0.660391	1
116.957794	0.792036	city	10	1	0.695134	0.695134	0	1	0	0	CorrectCommission	0.363870	0.694502	1
117.750038	0.792450	city	7	1	0.812343	0.812343	0	1	0	0	CorrectCommission	0.780444	0.736289	1
118.542427	0.792325	city	8	1	0.756440	0.756440	0	1	0	0	CorrectCommission	0.234663	0.785192	0
119.334717	0.792262	city	2	1	0.813690	0.813690	0	1	0	0	CorrectCommission	0.793602	0.840056	0
120.126968	0.792236	city	3	1	0.794317	0.794317	0	1	0	0	CorrectCommission	0.604462	0.898938	0
120.919212	0.792258	city	1	1	0.794335	0.794335	0	1	0	0	CorrectCommission	0.604637	0.959361	0
121.711464	0.792245	city	3	1	0.857208	0.857208	0	1	0	0	CorrectCommission	1.218469	1.018444	0
122.503731	0.792274	city	7	1	0.942497	0.942497	0	1	0	0	CorrectCommission	2.051152	1.073165	0
123.295853	0.791976	city	4	1	0.596273	0.596273	0	1	0	0	CorrectCommission	1.329058	1.120693	0
124.088104	0.792524	city	3	1	0.596388	0.596388	0	1	0	0	CorrectCommission	1.327929	1.158709	0
124.880508	0.792291	city	5	1	0.612003	0.612003	0	1	0	0	CorrectCommission	1.175486	1.185568	0
125.672699	0.792079	city	3	1	0.596437	0.596437	0	1	0	0	CorrectCommission	1.327449	1.200523	0
126.464844	0.792220	city	10	1	0.547990	0.547990	0	1	0	0	CorrectCommission	1.800448	1.203760	0
127.257225	0.792546	city	1	1	0.563169	0.563169	0	1	0	0	CorrectCommission	1.652247	1.196360	0
128.049515	0.792023	city	7	1	0.596365	0.596365	0	1	0	0	CorrectCommission	1.328154	1.180177	0
128.841614	0.792174	city	8	1	0.893459	0.893459	0	1	0	0	CorrectCommission	1.572387	1.157559	0
129.633835	0.792262	city	4	1	0.607581	0.607581	0	1	0	0	CorrectCommission	1.218657	1.131039	0
130.426224	0.792535	city	3	1	0.608780	0.608780	0	1	0	0	CorrectCommission	1.206944	1.103013	0
131.218628	0.792260	city	4	1	0.744580	0.744580	0	1	0	0	CorrectCommission	0.118876	1.075451	0
132.010880	0.792254	mountain	5	0	0.000000	0.775570	1	0	0	0	CorrectOmission	0.421433	1.049668	0
132.803131	0.792255	city	9	1	0.744791	0.744791	0	1	0	0	CorrectCommission	0.120937	1.026142	0
133.595398	0.792270	city	7	1	0.695284	0.695284	0	1	0	0	CorrectCommission	0.362402	1.004636	0
134.387589	0.792118	city	10	1	0.505529	0.505529	0	1	0	0	CorrectCommission	2.214991	0.984270	0
135.179886	0.792456	city	3	1	0.546826	0.546826	0	1	0	0	CorrectCommission	1.811813	0.963749	0
135.972275	0.792338	city	2	1	0.595911	0.595911	0	1	0	0	CorrectCommission	1.332585	0.941808	0
136.764557	0.792216	city	4	1	0.708564	0.708564	0	1	0	0	CorrectCommission	0.232749	0.917402	0
137.556778	0.792243	mountain	3	1	0.645672	0.645672	0	0	1	0	CommissionError	0.846772	0.889969	0
138.349045	0.792280	mountain	8	1	0.546577	0.546577	0	0	1	0	CommissionError	1.814244	0.859462	0
139.141327	0.792289	city	9	1	0.893103	0.893103	0	1	0	0	CorrectCommission	1.568907	0.826398	0
139.933472	0.791987	city	6	1	0.748181	0.748181	0	1	0	0	CorrectCommission	0.154033	0.791776	0
140.725708	0.792509	city	1	1	0.745116	0.745116	0	1	0	0	CorrectCommission	0.124111	0.756931	1
141.518082	0.792236	city	5	1	0.794464	0.794464	0	1	0	0	CorrectCommission	0.605891	0.723208	1
142.310318	0.792238	mountain	4	0	0.000000	0.708174	1	0	0	0	CorrectOmission	0.236560	0.691774	1
143.102600	0.792307	city	1	1	0.652627	0.652627	0	1	0	0	CorrectCommission	0.778869	0.663527	1
143.894882	0.792270	city	6	1	0.794202	0.794202	0	1	0	0	CorrectCommission	0.603336	0.638905	1
144.687195	0.792340	city	2	1	0.646088	0.646088	0	1	0	0	CorrectCommission	0.842711	0.617935	1
145.479355	0.791989	city	9	1	0.744232	0.744232	0	1	0	0	CorrectCommission	0.115478	0.600300	1
146.271439	0.792168	city	5	1	0.794719	0.794719	0	1	0	0	CorrectCommission	0.608381	0.585490	1
147.063766	0.792503	city	1	1	0.660730	0.660730	0	1	0	0	CorrectCommission	0.699759	0.572877	1
147.856171	0.792286	city	9	1	0.764236	0.764236	0	1	0	0	CorrectCommission	0.310780	0.561997	1
148.648438	0.792276	city	1	1	0.596432	0.596432	0	1	0	0	CorrectCommission	1.327504	0.552702	1
149.440735	0.792318	city	6	1	0.794776	0.794776	0	1	0	0	CorrectCommission	0.608945	0.545062	1
150.233002	0.792210	city	9	1	0.794377	0.794377	0	1	0	0	CorrectCommission	0.605049	0.539634	1
151.025146	0.792072	city	7	1	0.714496	0.714496	0	1	0	0	CorrectCommission	0.174839	0.537248	1
151.817459	0.792558	city	8	1	0.695554	0.695554	0	1	0	0	CorrectCommission	0.359773	0.538890	1
152.609741	0.791989	city	3	1	0.694917	0.694917	0	1	0	0	CorrectCommission	0.365990	0.545573	1
153.401855	0.792255	city	9	1	0.758795	0.758795	0	1	0	0	CorrectCommission	0.257652	0.558170	1
154.194244	0.792533	city	5	1	0.794563	0.794563	0	1	0	0	CorrectCommission	0.606857	0.577269	1
154.986588	0.792153	city	4	1	0.794451	0.794451	0	1	0	0	CorrectCommission	0.605771	0.602963	1
155.778793	0.792243	city	9	1	0.695715	0.695715	0	1	0	0	CorrectCommission	0.358201	0.634788	1
156.571106	0.792389	city	8	1	0.694926	0.694926	0	1	0	0	CorrectCommission	0.365897	0.671700	1
157.363373	0.792152	city	4	1	0.751269	0.751269	0	1	0	0	CorrectCommission	0.184178	0.712097	1
158.155655	0.792411	mountain	7	0	0.000000	0.826751	1	0	0	0	CorrectOmission	0.921109	0.753925	1
158.947983	0.792229	mountain	6	0	0.000000	0.864204	1	0	0	0	CorrectOmission	1.286765	0.794772	0
159.740082	0.791983	city	4	1	0.806461	0.806461	0	1	0	0	CorrectCommission	0.723018	0.832106	0
160.532364	0.792563	city	9	1	0.596354	0.596354	0	1	0	0	CorrectCommission	1.328262	0.863497	0
161.324738	0.792193	city	5	1	0.596236	0.596236	0	1	0	0	CorrectCommission	1.329414	0.886791	0
162.116974	0.792281	city	1	1	0.744373	0.744373	0	1	0	0	CorrectCommission	0.116854	0.900326	0
162.909149	0.792065	city	5	1	0.892957	0.892957	0	1	0	0	CorrectCommission	1.567490	0.903128	0
163.701279	0.792211	city	10	1	0.947339	0.947339	0	1	0	0	CorrectCommission	2.098420	0.894841	0
164.493683	0.792579	city	2	1	0.744505	0.744505	0	1	0	0	CorrectCommission	0.118140	0.875877	0
165.286057	0.792176	city	6	1	0.893120	0.893120	0	1	0	0	CorrectCommission	1.569074	0.847459	0
166.078323	0.792344	city	10	1	0.596280	0.596280	0	1	0	0	CorrectCommission	1.328984	0.811265	0
166.870575	0.792163	city	3	1	0.659056	0.659056	0	1	0	0	CorrectCommission	0.716100	0.769481	0
167.662811	0.792311	city	7	1	0.694970	0.694970	0	1	0	0	CorrectCommission	0.365472	0.724497	1
168.455093	0.792267	city	2	1	0.695426	0.695426	0	1	0	0	CorrectCommission	0.361020	0.678732	1
169.247253	0.792055	city	3	1	0.695478	0.695478	0	1	0	0	CorrectCommission	0.360510	0.634425	1
170.039505	0.792440	city	5	1	0.706901	0.706901	0	1	0	0	CorrectCommission	0.248989	0.593520	1
170.831894	0.792349	city	6	1	0.793986	0.793986	0	1	0	0	CorrectCommission	0.601223	0.557542	1
171.624191	0.792231	city	8	1	0.656665	0.656665	0	1	0	0	CorrectCommission	0.739442	0.527551	1
172.416458	0.792305	city	4	1	0.744445	0.744445	0	1	0	0	CorrectCommission	0.117552	0.504150	1
173.208603	0.791972	city	7	1	0.695136	0.695136	0	1	0	0	CorrectCommission	0.363851	0.487579	1
174.000717	0.792260	city	9	1	0.646153	0.646153	0	1	0	0	CorrectCommission	0.842070	0.477680	1
174.793121	0.792572	city	5	1	0.715580	0.715580	0	1	0	0	CorrectCommission	0.164257	0.473970	1
175.585510	0.792183	city	10	1	0.744862	0.744862	0	1	0	0	CorrectCommission	0.121626	0.475739	1
176.377716	0.792242	mountain	4	1	0.665110	0.665110	0	0	1	0	CommissionError	0.656998	0.482058	1
177.170013	0.792350	mountain	7	0	0.000000	0.668185	1	0	0	0	CorrectOmission	0.626978	0.491856	1
177.962173	0.791967	mountain	10	0	0.000000	0.711124	1	0	0	0	CorrectOmission	0.207754	0.503990	1
178.754395	0.792475	city	2	1	0.750967	0.750967	0	1	0	0	CorrectCommission	0.181234	0.517328	1
179.546783	0.792301	city	8	1	0.744751	0.744751	0	1	0	0	CorrectCommission	0.120547	0.530906	1
180.339050	0.792250	city	7	1	0.795834	0.795834	0	1	0	0	CorrectCommission	0.619273	0.543871	1
181.131180	0.792005	mountain	9	0	0.000000	0.886383	1	0	0	0	CorrectOmission	1.503306	0.555610	1
181.923431	0.792490	city	6	1	0.893794	0.893794	0	1	0	0	CorrectCommission	1.575658	0.565876	1
182.715836	0.792305	city	2	1	0.695463	0.695463	0	1	0	0	CorrectCommission	0.360656	0.574748	1
183.508026	0.792078	city	8	1	0.744336	0.744336	0	1	0	0	CorrectCommission	0.116493	0.582664	1
184.300140	0.792168	city	4	1	0.709661	0.709661	0	1	0	0	CorrectCommission	0.222043	0.590266	1
185.092529	0.792607	city	10	1	0.645997	0.645997	0	1	0	0	CorrectCommission	0.843594	0.598315	1
185.884918	0.792180	city	7	1	0.745022	0.745022	0	1	0	0	CorrectCommission	0.123191	0.607492	1
186.677200	0.792364	city	10	1	0.695349	0.695349	0	1	0	0	CorrectCommission	0.361772	0.618364	1
187.469360	0.791962	city	8	1	0.750825	0.750825	0	1	0	0	CorrectCommission	0.179845	0.631234	1
188.261612	0.792536	city	5	0	0.000000	0.846468	0	0	0	1	OmissionError	1.113614	0.646230	1
189.053848	0.791935	city	1	1	0.893210	0.893210	0	1	0	0	CorrectCommission	1.569958	0.663106	1
189.846130	0.792632	city	8	0	0.000000	0.801983	0	0	0	1	OmissionError	0.679305	0.681446	1
190.638535	0.792197	city	10	1	0.695115	0.695115	0	1	0	0	CorrectCommission	0.364058	0.700753	1
191.430649	0.792031	mountain	7	1	0.694932	0.694932	0	0	1	0	CommissionError	0.365839	0.720404	1
192.222900	0.792472	city	4	1	0.707295	0.707295	0	1	0	0	CorrectCommission	0.245145	0.739838	1
193.015259	0.792229	city	6	1	0.749909	0.749909	0	1	0	0	CorrectCommission	0.170906	0.758600	1
193.807556	0.792366	city	3	1	0.645532	0.645532	0	1	0	0	CorrectCommission	0.848133	0.776418	0
194.599716	0.791943	city	9	1	1.001046	1.001046	0	1	0	0	CorrectCommission	2.622762	0.793217	0
195.391983	0.792608	city	7	1	0.596487	0.596487	0	1	0	0	CorrectCommission	1.326966	0.809085	0
196.184280	0.791986	city	3	1	0.646357	0.646357	0	1	0	0	CorrectCommission	0.840086	0.824346	0
196.976517	0.792485	city	10	1	0.708494	0.708494	0	1	0	0	CorrectCommission	0.233436	0.839259	0
197.768784	0.792046	mountain	4	0	0.000000	0.720535	1	0	0	0	CorrectOmission	0.115881	0.853938	0
198.560928	0.792236	city	8	1	0.695332	0.695332	0	1	0	0	CorrectCommission	0.361942	0.868167	0
199.353180	0.792271	city	2	1	0.645736	0.645736	0	1	0	0	CorrectCommission	0.846142	0.881318	0
200.145584	0.792534	city	7	1	0.893539	0.893539	0	1	0	0	CorrectCommission	1.573171	0.892393	0
200.937851	0.792012	city	10	1	0.658833	0.658833	0	1	0	0	CorrectCommission	0.718275	0.900126	0
201.729965	0.792201	city	3	1	0.744588	0.744588	0	1	0	0	CorrectCommission	0.118950	0.903255	0
202.522339	0.792569	mountain	4	1	0.695952	0.695952	0	0	1	0	CommissionError	0.355881	0.900715	0
203.314728	0.792215	city	4	1	1.091318	1.091318	0	1	0	0	CorrectCommission	3.504091	0.891936	0
204.106873	0.792067	city	1	1	0.596463	0.596463	0	1	0	0	CorrectCommission	1.327202	0.876961	0
204.899185	0.792538	city	8	1	0.645971	0.645971	0	1	0	0	CorrectCommission	0.843852	0.856872	0
205.691406	0.791922	city	6	1	0.861303	0.861303	0	1	0	0	CorrectCommission	1.258446	0.833501	0
206.483536	0.792342	city	9	1	0.759322	0.759322	0	1	0	0	CorrectCommission	0.262802	0.809283	0
207.275925	0.792440	city	5	1	0.655446	0.655446	0	1	0	0	CorrectCommission	0.751347	0.787068	0
208.068329	0.792367	city	8	1	0.745367	0.745367	0	1	0	0	CorrectCommission	0.126555	0.769598	0
208.860504	0.791978	city	6	1	0.751130	0.751130	0	1	0	0	CorrectCommission	0.182823	0.759186	1
209.652740	0.792485	city	3	1	0.697263	0.697263	0	1	0	0	CorrectCommission	0.343086	0.757269	1
210.445129	0.792314	city	7	1	0.695395	0.695395	0	1	0	0	CorrectCommission	0.361323	0.764196	0
211.237411	0.792251	city	5	1	0.645818	0.645818	0	1	0	0	CorrectCommission	0.845346	0.779111	0
212.029694	0.792285	mountain	10	0	0.000000	0.755452	1	0	0	0	CorrectOmission	0.225015	0.799960	0
212.821960	0.792259	city	6	1	0.811857	0.811857	0	1	0	0	CorrectCommission	0.775705	0.823842	0
213.614105	0.792021	city	9	1	0.602595	0.602595	0	1	0	0	CorrectCommission	1.267334	0.847276	0
214.406357	0.792485	city	2	1	0.611781	0.611781	0	1	0	0	CorrectCommission	1.177651	0.866676	0
215.198715	0.792255	city	8	1	0.645287	0.645287	0	1	0	0	CorrectCommission	0.850527	0.878789	0
215.990875	0.792055	city	5	1	0.602325	0.602325	0	1	0	0	CorrectCommission	1.269970	0.881157	0
216.783142	0.792471	city	10	1	0.562137	0.562137	0	1	0	0	CorrectCommission	1.662329	0.872312	0
217.575516	0.792279	mountain	9	1	0.546736	0.546736	0	0	1	0	CommissionError	1.812691	0.852018	0
218.367752	0.792212	mountain	10	1	0.596305	0.596305	0	0	1	0	CommissionError	1.328741	0.821287	0
219.160049	0.792363	city	1	1	0.645424	0.645424	0	1	0	0	CorrectCommission	0.849191	0.782246	0
219.952332	0.792200	city	9	1	0.695093	0.695093	0	1	0	0	CorrectCommission	0.364267	0.737816	1
220.744583	0.792307	city	6	1	0.707993	0.707993	0	1	0	0	CorrectCommission	0.238324	0.691229	1
221.536880	0.792280	city	8	1	0.712657	0.712657	0	1	0	0	CorrectCommission	0.192793	0.645795	1
222.328979	0.791937	city	3	1	0.703973	0.703973	0	1	0	0	CorrectCommission	0.277574	0.604473	1
223.121201	0.792509	city	8	1	0.745237	0.745237	0	1	0	0	CorrectCommission	0.125292	0.569556	1
223.913589	0.792252	city	9	1	0.794232	0.794232	0	1	0	0	CorrectCommission	0.603624	0.542619	1
224.705902	0.792380	city	6	1	0.695408	0.695408	0	1	0	0	CorrectCommission	0.361195	0.524381	1
225.498077	0.791953	city	4	1	0.794356	0.794356	0	1	0	0	CorrectCommission	0.604841	0.514897	1
226.290283	0.792480	city	7	1	0.695094	0.695094	0	1	0	0	CorrectCommission	0.364266	0.513623	1
227.082642	0.792223	city	2	1	0.695399	0.695399	0	1	0	0	CorrectCommission	0.361278	0.519678	1
227.874924	0.792347	mountain	1	0	0.000000	0.741701	1	0	0	0	CorrectOmission	0.090762	0.531982	1
228.667221	0.792258	city	6	1	0.801925	0.801925	0	1	0	0	CorrectCommission	0.678734	0.549444	1
229.459381	0.792041	city	9	1	0.844000	0.844000	0	1	0	0	CorrectCommission	1.089517	0.571069	1
230.251480	0.792181	city	1	1	0.695656	0.695656	0	1	0	0	CorrectCommission	0.358771	0.596026	1
231.043869	0.792585	city	6	1	0.893268	0.893268	0	1	0	0	CorrectCommission	1.570518	0.623639	1
231.836166	0.792025	city	7	1	0.744554	0.744554	0	1	0	0	CorrectCommission	0.118618	0.653211	1
232.628418	0.792469	city	3	1	0.701904	0.701904	0	1	0	0	CorrectCommission	0.297773	0.684106	1
233.420685	0.792052	city	10	1	0.744670	0.744670	0	1	0	0	CorrectCommission	0.119752	0.715516	1
234.212967	0.792510	city	7	1	0.794621	0.794621	0	1	0	0	CorrectCommission	0.607424	0.746500	1
235.005341	0.792244	city	9	1	0.807066	0.807066	0	1	0	0	CorrectCommission	0.728931	0.775949	0
235.797485	0.792044	city	5	1	0.803328	0.803328	0	1	0	0	CorrectCommission	0.692430	0.802720	0
236.589783	0.792552	city	4	1	0.894521	0.894521	0	1	0	0	CorrectCommission	1.582756	0.825754	0
237.382050	0.791988	city	6	1	0.893288	0.893288	0	1	0	0	CorrectCommission	1.570718	0.844199	0
238.174271	0.792439	city	5	1	0.646426	0.646426	0	1	0	0	CorrectCommission	0.839413	0.857605	0
238.966644	0.792316	city	10	1	0.611567	0.611567	0	1	0	0	CorrectCommission	1.179734	0.866005	0
239.758820	0.792031	city	2	1	0.654073	0.654073	0	1	0	0	CorrectCommission	0.764753	0.869837	0
240.550949	0.792237	city	9	1	0.844219	0.844219	0	1	0	0	CorrectCommission	1.091652	0.869999	0
241.343307	0.792481	city	1	1	0.794720	0.794720	0	1	0	0	CorrectCommission	0.608396	0.867598	0
242.135666	0.792247	city	10	1	0.843459	0.843459	0	1	0	0	CorrectCommission	1.084236	0.863816	0
242.927979	0.792381	city	5	0	0.000000	0.765408	0	0	0	1	OmissionError	0.322219	0.859732	0
243.720154	0.791954	city	3	1	0.700932	0.700932	0	1	0	0	CorrectCommission	0.307262	0.856229	0
244.512421	0.792570	mountain	5	0	0.000000	0.790396	1	0	0	0	CorrectOmission	0.566180	0.853860	0
245.304779	0.792168	city	9	1	0.893295	0.893295	0	1	0	0	CorrectCommission	1.570787	0.852843	0
246.096924	0.792110	mountain	3	0	0.000000	0.869124	1	0	0	0	CorrectOmission	1.334800	0.853031	0
246.889236	0.792508	city	7	1	0.794144	0.794144	0	1	0	0	CorrectCommission	0.602774	0.854115	0
247.681595	0.792222	city	3	1	0.744620	0.744620	0	1	0	0	CorrectCommission	0.119268	0.855687	0
248.473724	0.792020	city	1	1	0.794398	0.794398	0	1	0	0	CorrectCommission	0.605245	0.857272	0
249.265854	0.792253	city	3	1	0.893530	0.893530	0	1	0	0	CorrectCommission	1.573078	0.858461	0
250.058258	0.792553	mountain	2	0	0.000000	0.902250	1	0	0	0	CorrectOmission	1.658213	0.858965	0
250.850555	0.792033	mountain	9	0	0.000000	0.856450	1	0	0	0	CorrectOmission	1.211064	0.858687	0
251.642792	0.792442	mountain	10	0	0.000000	0.792021	1	0	0	0	CorrectOmission	0.582044	0.857650	0
252.435120	0.792214	city	8	1	0.744856	0.744856	0	1	0	0	CorrectCommission	0.121569	0.855966	0
253.227280	0.792122	city	1	1	0.750846	0.750846	0	1	0	0	CorrectCommission	0.180052	0.853780	0
254.019562	0.792440	city	7	1	0.794039	0.794039	0	1	0	0	CorrectCommission	0.601744	0.851200	0
254.811813	0.792069	city	2	1	0.794077	0.794077	0	1	0	0	CorrectCommission	0.602115	0.848304	0
255.604111	0.792525	city	10	1	0.943902	0.943902	0	1	0	0	CorrectCommission	2.064860	0.845209	0
256.396515	0.792263	mountain	6	1	0.956849	0.956849	0	0	1	0	CommissionError	2.191262	0.842033	0
257.188782	0.792308	city	2	1	0.748022	0.748022	0	1	0	0	CorrectCommission	0.152475	0.839014	0
257.981079	0.792263	city	5	1	0.800231	0.800231	0	1	0	0	CorrectCommission	0.662202	0.836513	0
258.773285	0.792137	city	3	1	0.744718	0.744718	0	1	0	0	CorrectCommission	0.120225	0.834851	0
259.565491	0.792285	city	6	1	0.807042	0.807042	0	1	0	0	CorrectCommission	0.728695	0.834350	0
260.357819	0.792363	city	8	1	0.646021	0.646021	0	1	0	0	CorrectCommission	0.843368	0.835212	0
261.149963	0.791901	city	4	1	0.706636	0.706636	0	1	0	0	CorrectCommission	0.251572	0.837487	0
261.942200	0.792610	city	9	1	0.566435	0.566435	0	1	0	0	CorrectCommission	1.620368	0.841088	0
262.734589	0.792186	city	3	1	0.602281	0.602281	0	1	0	0	CorrectCommission	1.270402	0.845599	0
263.526733	0.792062	city	1	1	0.647173	0.647173	0	1	0	0	CorrectCommission	0.832119	0.850504	0
264.318909	0.792295	city	6	1	0.744913	0.744913	0	1	0	0	CorrectCommission	0.122121	0.855127	0
265.111298	0.792487	city	3	1	0.794467	0.794467	0	1	0	0	CorrectCommission	0.605922	0.858723	0
265.903656	0.792220	city	2	1	0.843798	0.843798	0	1	0	0	CorrectCommission	1.087539	0.860460	0
266.695801	0.792088	city	1	1	0.844013	0.844013	0	1	0	0	CorrectCommission	1.089641	0.859519	0
267.487976	0.792253	mountain	9	0	0.000000	0.852478	1	0	0	0	CorrectOmission	1.172291	0.855207	0
268.280212	0.792240	mountain	8	0	0.000000	0.856563	1	0	0	0	CorrectOmission	1.212167	0.846999	0
269.072479	0.792304	city	2	1	0.843635	0.843635	0	1	0	0	CorrectCommission	1.085949	0.834562	0
269.864868	0.792427	city	9	1	0.801062	0.801062	0	1	0	0	CorrectCommission	0.670313	0.817797	0
270.657196	0.792281	city	7	1	0.744999	0.744999	0	1	0	0	CorrectCommission	0.122966	0.796803	0
271.449402	0.792082	city	8	1	0.843796	0.843796	0	1	0	0	CorrectCommission	1.087522	0.771863	0
272.241699	0.792544	city	2	1	0.843722	0.843722	0	1	0	0	CorrectCommission	1.086801	0.743378	1
273.033966	0.791985	city	9	1	0.807946	0.807946	0	1	0	0	CorrectCommission	0.737522	0.711886	1
273.826080	0.792263	city	2	1	0.794543	0.794543	0	1	0	0	CorrectCommission	0.606669	0.678038	1
274.618408	0.792396	city	10	1	0.650813	0.650813	0	1	0	0	CorrectCommission	0.796582	0.642643	1
275.410828	0.792390	city	6	1	0.794451	0.794451	0	1	0	0	CorrectCommission	0.605770	0.606593	1
276.203003	0.791987	city	7	1	0.705685	0.705685	0	1	0	0	CorrectCommission	0.260860	0.570903	1
276.995239	0.792478	city	1	1	0.844178	0.844178	0	1	0	0	CorrectCommission	1.091254	0.536655	1
277.787628	0.792300	city	5	1	0.744888	0.744888	0	1	0	0	CorrectCommission	0.121885	0.504929	1
278.579895	0.792231	city	4	1	0.794199	0.794199	0	1	0	0	CorrectCommission	0.603306	0.476951	1
279.372162	0.792314	city	2	1	0.744867	0.744867	0	1	0	0	CorrectCommission	0.121672	0.453884	1
280.164429	0.792186	city	5	1	0.701462	0.701462	0	1	0	0	CorrectCommission	0.302093	0.436860	1
280.956543	0.792078	city	7	1	0.708205	0.708205	0	1	0	0	CorrectCommission	0.236258	0.426922	1
281.748840	0.792500	city	4	1	0.745350	0.745350	0	1	0	0	CorrectCommission	0.126393	0.424978	1
282.541260	0.792335	city	9	1	0.695494	0.695494	0	1	0	0	CorrectCommission	0.360359	0.431716	1
283.333496	0.792126	city	7	1	0.793990	0.793990	0	1	0	0	CorrectCommission	0.601263	0.447613	1
284.125580	0.792098	city	5	1	0.756224	0.756224	0	1	0	0	CorrectCommission	0.232555	0.472744	1
284.917908	0.792513	city	7	1	0.794724	0.794724	0	1	0	0	CorrectCommission	0.608428	0.506852	1
285.710266	0.792237	city	9	0	0.000000	0.751235	0	0	0	1	OmissionError	0.183848	0.549182	1
286.502502	0.792214	city	1	1	0.694990	0.694990	0	1	0	0	CorrectCommission	0.365273	0.598585	1
287.294617	0.792025	city	3	1	0.695220	0.695220	0	1	0	0	CorrectCommission	0.363028	0.653482	1
288.086914	0.792533	city	9	1	0.695529	0.695529	0	1	0	0	CorrectCommission	0.360018	0.711961	1
288.879333	0.792357	city	2	1	0.695365	0.695365	0	1	0	0	CorrectCommission	0.361614	0.771866	0
289.671509	0.791963	city	4	1	0.649066	0.649066	0	1	0	0	CorrectCommission	0.813631	0.831030	0
290.463745	0.792529	city	10	1	0.547261	0.547261	0	1	0	0	CorrectCommission	1.807565	0.887401	0
291.256134	0.792225	city	6	1	0.546536	0.546536	0	1	0	0	CorrectCommission	1.814639	0.939300	0
292.048401	0.792315	city	5	1	0.596376	0.596376	0	1	0	0	CorrectCommission	1.328054	0.985579	0
292.840698	0.792262	city	7	1	0.793912	0.793912	0	1	0	0	CorrectCommission	0.600505	1.025719	0
293.632812	0.791991	city	9	1	0.844969	0.844969	0	1	0	0	CorrectCommission	1.098972	1.059878	0
294.425018	0.792438	city	5	1	0.943470	0.943470	0	1	0	0	CorrectCommission	2.060646	1.088745	0
295.217407	0.792326	city	3	1	0.794411	0.794411	0	1	0	0	CorrectCommission	0.605378	1.113537	0
296.009705	0.792239	city	4	1	0.808268	0.808268	0	1	0	0	CorrectCommission	0.740667	1.135857	0
296.801971	0.792330	mountain	1	1	0.704594	0.704594	0	0	1	0	CommissionError	0.271515	1.157454	0
297.594238	0.792208	city	9	1	0.695239	0.695239	0	1	0	0	CorrectCommission	0.362850	1.180029	0
298.386505	0.792313	city	5	1	1.091617	1.091617	0	1	0	0	CorrectCommission	3.507012	1.205019	0
299.178802	0.792254	city	9	1	0.599865	0.599865	0	1	0	0	CorrectCommission	1.293982	1.233323	0
299.970886	0.791958	city	3	1	0.893510	0.893510	0	1	0	0	CorrectCommission	1.572887	1.265473	0
300.763031	0.792310	city	4	1	0.744611	0.744611	0	1	0	0	CorrectCommission	0.119180	1.301186	0
301.555450	0.792514	city	7	1	0.661653	0.661653	0	1	0	0	CorrectCommission	0.690747	1.339526	0
302.347717	0.792066	city	8	1	0.604822	0.604822	0	1	0	0	CorrectCommission	1.245587	1.378747	0
303.140045	0.792535	city	1	1	0.646820	0.646820	0	1	0	0	CorrectCommission	0.835563	1.416577	0
303.932373	0.792155	city	4	1	0.645210	0.645210	0	1	0	0	CorrectCommission	0.851284	1.450411	0
304.724579	0.792247	city	3	1	0.496880	0.496880	0	1	0	0	CorrectCommission	2.299435	1.477579	0
305.516754	0.792120	city	6	1	0.903937	0.903937	0	1	0	0	CorrectCommission	1.674688	1.495711	0
306.309052	0.792471	mountain	8	0	0.000000	1.059449	1	0	0	0	CorrectOmission	3.192960	1.503159	0
307.101410	0.792234	mountain	2	0	0.000000	1.047332	1	0	0	0	CorrectOmission	3.074653	1.499068	0
307.893585	0.792094	city	7	1	0.951500	0.951500	0	1	0	0	CorrectCommission	2.139042	1.483625	0
308.685883	0.792521	mountain	2	0	0.000000	0.855869	1	0	0	0	CorrectOmission	1.205398	1.457921	0
309.478271	0.792246	city	1	1	0.762754	0.762754	0	1	0	0	CorrectCommission	0.296303	1.423783	0
310.270355	0.791943	mountain	7	0	0.000000	0.674465	1	0	0	0	CorrectOmission	0.565665	1.383401	0
311.062622	0.792560	city	2	1	0.698651	0.698651	0	1	0	0	CorrectCommission	0.329529	1.339017	0
311.855042	0.792316	city	7	1	0.942962	0.942962	0	1	0	0	CorrectCommission	2.055687	1.292672	0
312.647278	0.792148	mountain	1	1	0.546384	0.546384	0	0	1	0	CommissionError	1.816121	1.246025	0
313.439392	0.792070	city	10	1	0.596444	0.596444	0	1	0	0	CorrectCommission	1.327390	1.200323	0
314.231567	0.792273	city	2	1	0.647376	0.647376	0	1	0	0	CorrectCommission	0.830130	1.156381	0
315.023834	0.792262	city	6	1	0.893436	0.893436	0	1	0	0	CorrectCommission	1.572163	1.114670	0
315.816193	0.792463	city	5	1	0.649182	0.649182	0	1	0	0	CorrectCommission	0.812503	1.075309	0
316.608551	0.792236	city	2	1	0.645516	0.645516	0	1	0	0	CorrectCommission	0.848289	1.038406	0
317.400818	0.792338	city	6	1	0.694928	0.694928	0	1	0	0	CorrectCommission	0.365881	1.003972	0
318.193024	0.792030	city	1	1	0.553570	0.553570	0	1	0	0	CorrectCommission	1.745963	0.972118	0
318.985168	0.792295	city	10	1	0.596102	0.596102	0	1	0	0	CorrectCommission	1.330722	0.942944	0
319.777557	0.792477	city	6	1	0.695305	0.695305	0	1	0	0	CorrectCommission	0.362203	0.916582	0
320.569763	0.791955	city	10	1	0.645326	0.645326	0	1	0	0	CorrectCommission	0.850151	0.893203	0
321.362000	0.792482	city	8	1	0.663438	0.663438	0	1	0	0	CorrectCommission	0.673315	0.872849	0
322.154297	0.792117	city	9	1	0.751257	0.751257	0	1	0	0	CorrectCommission	0.184061	0.855436	0
322.946564	0.792451	city	1	1	0.609400	0.609400	0	1	0	0	CorrectCommission	1.200898	0.840775	0
323.738953	0.792294	mountain	9	1	0.654107	0.654107	0	0	1	0	CommissionError	0.764423	0.828478	0
324.531097	0.791981	city	10	1	0.549719	0.549719	0	1	0	0	CorrectCommission	1.783562	0.818101	0
325.323334	0.792538	city	3	1	0.746632	0.746632	0	1	0	0	CorrectCommission	0.138909	0.809164	0
326.115753	0.792256	city	2	1	0.753470	0.753470	0	1	0	0	CorrectCommission	0.205663	0.801374	0
326.908051	0.792346	city	5	1	0.794160	0.794160	0	1	0	0	CorrectCommission	0.602924	0.794540	0
327.700287	0.792167	city	6	1	0.904126	0.904126	0	1	0	0	CorrectCommission	1.676534	0.788622	0
328.492523	0.792262	city	10	1	0.596306	0.596306	0	1	0	0	CorrectCommission	1.328734	0.783758	0
329.284790	0.792266	city	4	1	0.661614	0.661614	0	1	0	0	CorrectCommission	0.691126	0.780225	0
330.076965	0.792081	city	6	1	0.746332	0.746332	0	1	0	0	CorrectCommission	0.135982	0.778361	0
330.869141	0.792294	city	3	1	0.646533	0.646533	0	1	0	0	CorrectCommission	0.838363	0.778451	0
331.661530	0.792491	city	9	1	0.659503	0.659503	0	1	0	0	CorrectCommission	0.711741	0.780535	0
332.453766	0.791949	mountain	8	0	0.000000	0.712227	1	0	0	0	CorrectOmission	0.196989	0.784381	0
333.246033	0.792624	city	2	1	0.794341	0.794341	0	1	0	0	CorrectCommission	0.604689	0.789471	0
334.038300	0.791909	city	7	1	0.895477	0.895477	0	1	0	0	CorrectCommission	1.592089	0.794938	0
334.830536	0.792540	city	4	1	0.744900	0.744900	0	1	0	0	CorrectCommission	0.121993	0.799668	0
335.622925	0.792231	city	9	1	0.647268	0.647268	0	1	0	0	CorrectCommission	0.831184	0.802546	0
336.415161	0.792280	city	6	1	0.645663	0.645663	0	1	0	0	CorrectCommission	0.846854	0.802425	0
337.207336	0.792073	city	1	1	0.598500	0.598500	0	1	0	0	CorrectCommission	1.307316	0.798522	0
337.999603	0.792420	city	8	1	0.610310	0.610310	0	1	0	0	CorrectCommission	1.192011	0.790424	0
338.791840	0.792089	city	5	1	0.561078	0.561078	0	1	0	0	CorrectCommission	1.672667	0.778230	0
339.584015	0.792276	city	1	1	0.695483	0.695483	0	1	0	0	CorrectCommission	0.360466	0.762567	0
340.376404	0.792444	city	9	1	0.695596	0.695596	0	1	0	0	CorrectCommission	0.359360	0.744629	1
341.168762	0.792289	city	3	1	0.645426	0.645426	0	1	0	0	CorrectCommission	0.849169	0.725915	1
341.961029	0.792270	city	8	1	0.647925	0.647925	0	1	0	0	CorrectCommission	0.824771	0.708096	1
342.753296	0.792227	mountain	7	1	0.694795	0.694795	0	0	1	0	CommissionError	0.367181	0.692920	1
343.545471	0.792130	city	10	1	0.744974	0.744974	0	1	0	0	CorrectCommission	0.122725	0.681999	1
344.337738	0.792434	city	4	1	0.695526	0.695526	0	1	0	0	CorrectCommission	0.360048	0.676621	1
345.130127	0.792340	mountain	6	1	0.658510	0.658510	0	0	1	0	CommissionError	0.721431	0.677572	1
345.922394	0.792205	city	9	1	0.602170	0.602170	0	1	0	0	CorrectCommission	1.271478	0.685129	1
346.714661	0.792335	city	6	1	0.696028	0.696028	0	1	0	0	CorrectCommission	0.355142	0.699060	1
347.506836	0.791967	city	5	1	0.695056	0.695056	0	1	0	0	CorrectCommission	0.364628	0.718723	1
348.299103	0.792571	city	2	1	0.654841	0.654841	0	1	0	0	CorrectCommission	0.757248	0.742916	1
349.091461	0.792160	city	10	1	0.648880	0.648880	0	1	0	0	CorrectCommission	0.815446	0.770101	0
349.883667	0.792274	city	4	1	0.746253	0.746253	0	1	0	0	CorrectCommission	0.135211	0.798543	0
350.675842	0.792076	mountain	8	1	0.604961	0.604961	0	0	1	0	CommissionError	1.244236	0.826474	0
351.468109	0.792464	city	3	1	0.744730	0.744730	0	1	0	0	CorrectCommission	0.120339	0.852130	0
352.260376	0.792053	city	7	1	0.904672	0.904672	0	1	0	0	CorrectCommission	1.681857	0.874174	0
353.052673	0.792506	city	6	1	0.910291	0.910291	0	1	0	0	CorrectCommission	1.736718	0.891517	0
353.844940	0.792059	city	4	1	0.843985	0.843985	0	1	0	0	CorrectCommission	1.089373	0.903599	0
354.637177	0.792409	city	5	1	0.794499	0.794499	0	1	0	0	CorrectCommission	0.606238	0.910356	0
355.429443	0.792117	city	10	1	0.951949	0.951949	0	1	0	0	CorrectCommission	2.143426	0.912123	0
356.221710	0.792435	city	1	1	0.694981	0.694981	0	1	0	0	CorrectCommission	0.365366	0.909443	0
357.014130	0.792367	city	5	1	0.696979	0.696979	0	1	0	0	CorrectCommission	0.345853	0.903094	0
357.806396	0.792215	city	3	1	0.694784	0.694784	0	1	0	0	CorrectCommission	0.367286	0.893782	0
358.598541	0.792032	city	4	1	0.843452	0.843452	0	1	0	0	CorrectCommission	1.084168	0.882021	0
359.390778	0.792481	city	7	1	0.596328	0.596328	0	1	0	0	CorrectCommission	1.328521	0.868104	0
360.183167	0.792285	city	1	1	0.698506	0.698506	0	1	0	0	CorrectCommission	0.330952	0.852170	0
360.975433	0.792221	mountain	5	1	0.744609	0.744609	0	0	1	0	CommissionError	0.119154	0.834302	0
361.767670	0.792267	mountain	9	1	0.612086	0.612086	0	0	1	0	CommissionError	1.174673	0.814628	0
362.559845	0.792085	city	6	1	1.012429	1.012429	0	1	0	0	CorrectCommission	2.733901	0.793432	0
363.352020	0.792245	city	4	1	0.805009	0.805009	0	1	0	0	CorrectCommission	0.708845	0.771294	0
364.144409	0.792543	city	6	1	0.794460	0.794460	0	1	0	0	CorrectCommission	0.605856	0.749323	1
364.936646	0.791909	city	10	1	0.700594	0.700594	0	1	0	0	CorrectCommission	0.310568	0.728922	1
365.728851	0.792555	city	5	1	0.713095	0.713095	0	1	0	0	CorrectCommission	0.188516	0.711732	1
366.521149	0.792013	city	4	1	0.755893	0.755893	0	1	0	0	CorrectCommission	0.229319	0.699498	1
367.313446	0.792593	city	8	1	0.596796	0.596796	0	1	0	0	CorrectCommission	1.323952	0.693797	1
368.105743	0.791967	city	7	1	0.694999	0.694999	0	1	0	0	CorrectCommission	0.365192	0.695777	1
368.897858	0.792285	city	1	1	0.745173	0.745173	0	1	0	0	CorrectCommission	0.124668	0.706127	1
369.690247	0.792476	city	7	1	0.794596	0.794596	0	1	0	0	CorrectCommission	0.607185	0.724762	1
370.482635	0.792296	city	8	1	0.695561	0.695561	0	1	0	0	CorrectCommission	0.359699	0.750813	1
371.274902	0.792233	city	9	1	0.844183	0.844183	0	1	0	0	CorrectCommission	1.091304	0.782700	0
372.067108	0.792228	city	1	1	0.705960	0.705960	0	1	0	0	CorrectCommission	0.258175	0.818191	0
372.859344	0.792244	city	8	1	0.844040	0.844040	0	1	0	0	CorrectCommission	1.089905	0.854598	0
373.651642	0.792332	city	3	1	0.794375	0.794375	0	1	0	0	CorrectCommission	0.605025	0.889006	0
374.443787	0.791963	city	2	1	0.843733	0.843733	0	1	0	0	CorrectCommission	1.086910	0.918588	0
375.236023	0.792510	city	4	1	0.893635	0.893635	0	1	0	0	CorrectCommission	1.574101	0.940792	0
376.028442	0.792311	city	7	1	0.600093	0.600093	0	1	0	0	CorrectCommission	1.291761	0.953596	0
376.820740	0.792312	city	1	1	0.552684	0.552684	0	1	0	0	CorrectCommission	1.754617	0.955688	0
377.612976	0.792164	city	9	1	0.596164	0.596164	0	1	0	0	CorrectCommission	1.330119	0.946547	0
378.405121	0.792114	city	8	1	0.615376	0.615376	0	1	0	0	CorrectCommission	1.142551	0.926453	0
379.197418	0.792480	city	1	1	0.659409	0.659409	0	1	0	0	CorrectCommission	0.712655	0.896382	0
379.989807	0.792292	city	4	1	0.794136	0.794136	0	1	0	0	CorrectCommission	0.602690	0.857811	0
380.782043	0.792164	city	7	1	0.695264	0.695264	0	1	0	0	CorrectCommission	0.362600	0.812681	0
381.574249	0.792265	city	1	1	0.562650	0.562650	0	1	0	0	CorrectCommission	1.657320	0.763175	0
382.366455	0.792123	city	3	1	0.695331	0.695331	0	1	0	0	CorrectCommission	0.361942	0.711547	1
383.158722	0.792457	city	1	1	0.662139	0.662139	0	1	0	0	CorrectCommission	0.686007	0.660104	1
383.950989	0.792021	city	6	1	0.794465	0.794465	0	1	0	0	CorrectCommission	0.605901	0.611029	1
384.743134	0.792316	city	7	1	0.698856	0.698856	0	1	0	0	CorrectCommission	0.327533	0.566380	1
385.535522	0.792418	city	2	1	0.794088	0.794088	0	1	0	0	CorrectCommission	0.602221	0.528013	1
386.327850	0.792271	city	1	1	0.695537	0.695537	0	1	0	0	CorrectCommission	0.359935	0.497475	1
387.120117	0.792262	mountain	5	1	0.712912	0.712912	0	0	1	0	CommissionError	0.190301	0.476029	1
387.912292	0.792096	city	10	1	0.713667	0.713667	0	1	0	0	CorrectCommission	0.182934	0.464552	1
388.704468	0.792236	mountain	3	1	0.695165	0.695165	0	0	1	0	CommissionError	0.363568	0.463462	1
389.496704	0.792253	mountain	10	1	0.704081	0.704081	0	0	1	0	CommissionError	0.276517	0.472732	1
390.289032	0.792365	city	1	1	0.745511	0.745511	0	1	0	0	CorrectCommission	0.127959	0.491818	1
391.081390	0.792377	city	4	1	0.744936	0.744936	0	1	0	0	CorrectCommission	0.122347	0.519684	1
391.873688	0.792234	city	6	1	0.744900	0.744900	0	1	0	0	CorrectCommission	0.121997	0.554826	1
392.666016	0.792387	city	9	1	0.645496	0.645496	0	1	0	0	CorrectCommission	0.848488	0.595351	1
393.458191	0.791992	city	7	1	0.662730	0.662730	0	1	0	0	CorrectCommission	0.680236	0.639121	1
394.250305	0.792254	city	2	1	0.600048	0.600048	0	1	0	0	CorrectCommission	1.292201	0.683878	1
395.042725	0.792545	city	4	1	0.663405	0.663405	0	1	0	0	CorrectCommission	0.673642	0.727388	1
395.835114	0.792238	city	6	1	0.645670	0.645670	0	1	0	0	CorrectCommission	0.846794	0.767626	0
396.627228	0.792015	city	9	1	0.645366	0.645366	0	1	0	0	CorrectCommission	0.849757	0.802795	0
397.419464	0.792437	city	1	1	0.613987	0.613987	0	1	0	0	CorrectCommission	1.156109	0.831457	0
398.211823	0.792268	city	10	1	0.744854	0.744854	0	1	0	0	CorrectCommission	0.121546	0.852599	0
399.003998	0.792108	city	2	1	0.794514	0.794514	0	1	0	0	CorrectCommission	0.606379	0.865677	0
399.796295	0.792475	city	7	1	0.992686	0.992686	0	1	0	0	CorrectCommission	2.541150	0.870593	0
400.588684	0.792299	mountain	2	0	0.000000	0.917116	1	0	0	0	CorrectOmission	1.803354	0.867608	0
401.380951	0.792253	city	7	1	0.744528	0.744528	0	1	0	0	CorrectCommission	0.118362	0.857478	0
402.173065	0.791946	city	5	1	0.651645	0.651645	0	1	0	0	CorrectCommission	0.788458	0.841311	0
402.965332	0.792625	city	1	1	0.695523	0.695523	0	1	0	0	CorrectCommission	0.360071	0.820287	0
403.757751	0.792169	city	10	1	0.793917	0.793917	0	1	0	0	CorrectCommission	0.600550	0.795764	0
404.549927	0.792230	city	6	1	0.843744	0.843744	0	1	0	0	CorrectCommission	1.087016	0.769076	0
405.342194	0.792272	city	3	1	0.602466	0.602466	0	1	0	0	CorrectCommission	1.268591	0.741468	1
406.134460	0.792256	city	5	1	0.660464	0.660464	0	1	0	0	CorrectCommission	0.702356	0.714063	1
406.926636	0.792121	city	8	1	0.698375	0.698375	0	1	0	0	CorrectCommission	0.332225	0.687874	1
407.718933	0.792483	city	6	1	0.744772	0.744772	0	1	0	0	CorrectCommission	0.120751	0.663689	1
408.511322	0.792270	city	9	1	0.645643	0.645643	0	1	0	0	CorrectCommission	0.847056	0.642141	1
409.303589	0.792245	city	8	1	0.762368	0.762368	0	1	0	0	CorrectCommission	0.292541	0.623637	1
410.095703	0.792002	mountain	9	1	0.648841	0.648841	0	0	1	0	CommissionError	0.815831	0.608446	1
410.888000	0.792597	mountain	5	1	0.596500	0.596500	0	0	1	0	CommissionError	1.326840	0.596667	1
411.680420	0.792260	city	1	1	0.695346	0.695346	0	1	0	0	CorrectCommission	0.361804	0.588239	1
412.472656	0.792181	city	8	1	0.744318	0.744318	0	1	0	0	CorrectCommission	0.116319	0.583016	1
413.264862	0.792233	city	1	1	0.744777	0.744777	0	1	0	0	CorrectCommission	0.120801	0.580692	1
414.057159	0.792383	city	3	1	0.794499	0.794499	0	1	0	0	CorrectCommission	0.606233	0.580903	1
414.849426	0.792131	city	6	1	0.794076	0.794076	0	1	0	0	CorrectCommission	0.602104	0.583100	1
415.641693	0.792383	city	1	1	0.745244	0.745244	0	1	0	0	CorrectCommission	0.125352	0.586751	1
416.433868	0.792003	city	7	1	0.843901	0.843901	0	1	0	0	CorrectCommission	1.088553	0.591371	1
417.226135	0.792534	city	10	1	0.893919	0.893919	0	1	0	0	CorrectCommission	1.576875	0.596456	1
418.018372	0.791932	city	4	1	0.744812	0.744812	0	1	0	0	CorrectCommission	0.121143	0.601682	1
418.810486	0.792316	city	8	1	0.662510	0.662510	0	1	0	0	CorrectCommission	0.682378	0.606992	1
419.602905	0.792491	city	2	1	0.695061	0.695061	0	1	0	0	CorrectCommission	0.364585	0.612364	1
420.395172	0.792034	city	9	1	0.745144	0.745144	0	1	0	0	CorrectCommission	0.124379	0.617931	1
421.187439	0.792504	city	10	1	0.695145	0.695145	0	1	0	0	CorrectCommission	0.363766	0.623955	1
421.979706	0.792054	city	1	1	0.893182	0.893182	0	1	0	0	CorrectCommission	1.569684	0.630605	1
422.771942	0.792427	city	9	1	0.695628	0.695628	0	1	0	0	CorrectCommission	0.359049	0.637972	1
423.564209	0.792091	city	2	1	0.604922	0.604922	0	1	0	0	CorrectCommission	1.244613	0.646143	1
424.356506	0.792476	city	5	1	0.695108	0.695108	0	1	0	0	CorrectCommission	0.364128	0.655028	1
425.148834	0.792197	city	6	1	0.747864	0.747864	0	1	0	0	CorrectCommission	0.150931	0.664447	1
425.941132	0.792384	city	1	1	0.695627	0.695627	0	1	0	0	CorrectCommission	0.359055	0.674060	1
426.733459	0.792263	city	4	1	0.794053	0.794053	0	1	0	0	CorrectCommission	0.601883	0.683474	1
427.525696	0.792237	city	6	1	0.757261	0.757261	0	1	0	0	CorrectCommission	0.242684	0.692258	1
428.317902	0.792168	city	3	1	0.793815	0.793815	0	1	0	0	CorrectCommission	0.599559	0.700047	1
429.110138	0.792290	city	4	1	1.041463	1.041463	0	1	0	0	CorrectCommission	3.017358	0.706589	1
429.902313	0.792077	city	10	1	0.651856	0.651856	0	1	0	0	CorrectCommission	0.786394	0.711702	1
430.694641	0.792564	city	5	1	0.695324	0.695324	0	1	0	0	CorrectCommission	0.362013	0.715477	1
431.487030	0.792216	city	1	1	0.706356	0.706356	0	1	0	0	CorrectCommission	0.254309	0.717971	1
432.279266	0.792300	city	10	1	0.744363	0.744363	0	1	0	0	CorrectCommission	0.116752	0.719214	1
433.071503	0.792167	city	1	1	0.793805	0.793805	0	1	0	0	CorrectCommission	0.599456	0.719147	1
433.863647	0.792110	city	6	1	0.794527	0.794527	0	1	0	0	CorrectCommission	0.606513	0.717519	1
434.655975	0.792531	city	5	1	0.708837	0.708837	0	1	0	0	CorrectCommission	0.230087	0.713948	1
435.448334	0.792168	city	8	1	0.694882	0.694882	0	1	0	0	CorrectCommission	0.366334	0.708071	1
436.240448	0.792060	city	7	1	1.042213	1.042213	0	1	0	0	CorrectCommission	3.024684	0.699562	1
437.032715	0.792489	city	10	1	0.808211	0.808211	0	1	0	0	CorrectCommission	0.740110	0.688218	1
437.825073	0.792267	city	6	1	0.695148	0.695148	0	1	0	0	CorrectCommission	0.363731	0.674290	1
438.617371	0.792288	mountain	5	0	0.000000	0.765461	1	0	0	0	CorrectOmission	0.322738	0.658262	1
439.409607	0.792226	city	2	1	0.843922	0.843922	0	1	0	0	CorrectCommission	1.088754	0.640834	1
440.201782	0.792070	city	1	1	0.755303	0.755303	0	1	0	0	CorrectCommission	0.223558	0.622901	1
440.994080	0.792544	city	3	1	0.761839	0.761839	0	1	0	0	CorrectCommission	0.287372	0.605412	1
441.786346	0.791994	mountain	4	1	0.645873	0.645873	0	0	1	0	CommissionError	0.844807	0.589252	1
442.578583	0.792473	city	2	1	0.695604	0.695604	0	1	0	0	CorrectCommission	0.359282	0.575032	1
443.370850	0.792046	city	10	1	0.706282	0.706282	0	1	0	0	CorrectCommission	0.255035	0.563168	1
444.163086	0.792419	city	1	1	0.701603	0.701603	0	1	0	0	CorrectCommission	0.300710	0.553777	1
444.955444	0.792300	city	10	1	0.795702	0.795702	0	1	0	0	CorrectCommission	0.617979	0.546771	1
445.747711	0.792230	city	4	1	0.794212	0.794212	0	1	0	0	CorrectCommission	0.603435	0.541962	1
446.539948	0.792263	city	7	1	0.695419	0.695419	0	1	0	0	CorrectCommission	0.361090	0.539119	1
447.332275	0.792401	city	4	1	0.843754	0.843754	0	1	0	0	CorrectCommission	1.087111	0.538187	1
448.124481	0.791989	city	9	1	0.843730	0.843730	0	1	0	0	CorrectCommission	1.086877	0.539260	1
448.916718	0.792535	city	1	1	0.794523	0.794523	0	1	0	0	CorrectCommission	0.606471	0.542648	1
449.709015	0.792003	city	2	1	0.745032	0.745032	0	1	0	0	CorrectCommission	0.123289	0.548840	1
450.501129	0.792266	city	6	1	0.744547	0.744547	0	1	0	0	CorrectCommission	0.118548	0.558353	1
451.293488	0.792418	city	3	1	0.745120	0.745120	0	1	0	0	CorrectCommission	0.124146	0.571581	1
452.085815	0.792255	city	6	1	0.799545	0.799545	0	1	0	0	CorrectCommission	0.655495	0.588694	1
452.878113	0.792322	city	10	1	0.661633	0.661633	0	1	0	0	CorrectCommission	0.690940	0.609493	1
453.670258	0.792011	city	5	1	0.695399	0.695399	0	1	0	0	CorrectCommission	0.361288	0.633273	1
454.462524	0.792477	city	10	1	0.762622	0.762622	0	1	0	0	CorrectCommission	0.295018	0.658985	1
455.254944	0.792352	city	5	1	0.810104	0.810104	0	1	0	0	CorrectCommission	0.758586	0.685228	1
456.047180	0.792142	city	10	1	0.810370	0.810370	0	1	0	0	CorrectCommission	0.761189	0.710333	1
456.839417	0.792334	city	3	1	0.942991	0.942991	0	1	0	0	CorrectCommission	2.055966	0.732582	1
457.631714	0.792289	city	9	1	0.749583	0.749583	0	1	0	0	CorrectCommission	0.167714	0.750344	1
458.424011	0.792300	city	1	1	0.648925	0.648925	0	1	0	0	CorrectCommission	0.815015	0.762458	1
459.216156	0.791964	city	8	1	0.804979	0.804979	0	1	0	0	CorrectCommission	0.708553	0.768042	0
460.008392	0.792506	city	7	1	0.794432	0.794432	0	1	0	0	CorrectCommission	0.605580	0.766913	0
460.800751	0.792221	mountain	8	0	0.000000	0.847838	1	0	0	0	CorrectOmission	1.126985	0.759508	1
461.592987	0.792262	city	3	1	0.893436	0.893436	0	1	0	0	CorrectCommission	1.572159	0.746893	1
462.385162	0.792107	city	6	1	0.859464	0.859464	0	1	0	0	CorrectCommission	1.240493	0.730806	1
463.177490	0.792533	city	10	1	0.800723	0.800723	0	1	0	0	CorrectCommission	0.666999	0.713418	1
463.969879	0.792240	city	3	1	0.714526	0.714526	0	1	0	0	CorrectCommission	0.174542	0.697263	1
464.762115	0.792233	city	4	1	0.695124	0.695124	0	1	0	0	CorrectCommission	0.363964	0.684975	1
465.554382	0.792302	city	5	1	0.706774	0.706774	0	1	0	0	CorrectCommission	0.250231	0.679025	1
466.346649	0.792243	city	6	1	0.750469	0.750469	0	1	0	0	CorrectCommission	0.176370	0.681513	1
467.138794	0.792029	city	10	1	0.661857	0.661857	0	1	0	0	CorrectCommission	0.688758	0.693958	1
467.931030	0.792443	city	9	1	0.794551	0.794551	0	1	0	0	CorrectCommission	0.606744	0.717051	1
468.723419	0.792359	city	5	1	0.695403	0.695403	0	1	0	0	CorrectCommission	0.361241	0.750606	1
469.515686	0.792147	city	3	1	0.646167	0.646167	0	1	0	0	CorrectCommission	0.841935	0.793466	0
470.307892	0.792296	city	10	1	0.605067	0.605067	0	1	0	0	CorrectCommission	1.243201	0.843486	0
471.100067	0.792046	city	8	1	0.701614	0.701614	0	1	0	0	CorrectCommission	0.300606	0.897665	0
471.892212	0.792210	mountain	2	0	0.000000	0.674892	1	0	0	0	CorrectOmission	0.561493	0.952371	0
472.684570	0.792525	city	5	1	0.697626	0.697626	0	1	0	0	CorrectCommission	0.339538	1.003512	0
473.476990	0.792325	city	7	1	0.942542	0.942542	0	1	0	0	CorrectCommission	2.051583	1.046968	0
474.269287	0.792226	city	2	1	0.745843	0.745843	0	1	0	0	CorrectCommission	0.131202	1.078837	0
475.061554	0.792338	city	1	1	0.992888	0.992888	0	1	0	0	CorrectCommission	2.543121	1.096184	0
475.853821	0.792165	city	7	0	0.000000	0.949486	0	0	0	1	OmissionError	2.119378	1.097024	0
476.646027	0.792289	city	1	1	0.893005	0.893005	0	1	0	0	CorrectCommission	1.567952	1.080867	0
477.438202	0.792068	city	2	1	1.100816	1.100816	0	1	0	0	CorrectCommission	3.596824	1.048748	0
478.230377	0.792253	city	5	1	0.762264	0.762264	0	1	0	0	CorrectCommission	0.291522	1.003016	0
479.022644	0.792271	city	2	1	0.745329	0.745329	0	1	0	0	CorrectCommission	0.126187	0.947366	0
479.815002	0.792496	city	7	1	0.794571	0.794571	0	1	0	0	CorrectCommission	0.606941	0.886167	0
480.607269	0.792027	city	10	1	0.794393	0.794393	0	1	0	0	CorrectCommission	0.605199	0.824054	0
481.399414	0.792263	city	5	1	0.763204	0.763204	0	1	0	0	CorrectCommission	0.300701	0.765366	0
482.191681	0.792269	city	7	1	0.794217	0.794217	0	1	0	0	CorrectCommission	0.603483	0.713813	1
482.984100	0.792554	mountain	5	0	0.000000	0.746728	1	0	0	0	CorrectOmission	0.139846	0.671984	1
483.776489	0.792244	city	7	1	0.715236	0.715236	0	1	0	0	CorrectCommission	0.167613	0.641182	1
484.568726	0.792197	city	1	1	0.794240	0.794240	0	1	0	0	CorrectCommission	0.603703	0.621369	1
485.360992	0.792329	city	3	1	0.762938	0.762938	0	1	0	0	CorrectCommission	0.298107	0.611101	1
486.153229	0.792168	mountain	8	1	0.695393	0.695393	0	0	1	0	CommissionError	0.361344	0.607912	1
486.945496	0.792382	city	3	1	0.794729	0.794729	0	1	0	0	CorrectCommission	0.608480	0.608480	1
