onset	duration	trial_type	image_type	Press	ReactionTime	ReactionTime_Interpolated	CorrectOmission	CorrectCommission	CommissionError	OmissionError	response_type	nonsmoothVarianceTimeCourse	VarianceTimeCourse	In_the_Zone
8.421712	0.795750	city	2	1	0.710459	0.710459	0	1	0	0	CorrectCommission	0.393041	0.393041	1
9.217656	0.796139	city	5	1	0.466533	0.466533	0	1	0	0	CorrectCommission	1.788234	0.527760	1
10.013488	0.795523	city	10	1	0.426574	0.426574	0	1	0	0	CorrectCommission	2.145557	0.654275	1
10.809287	0.796075	city	3	1	0.449866	0.449866	0	1	0	0	CorrectCommission	1.937275	0.765174	0
11.605107	0.795565	city	9	1	0.511443	0.511443	0	1	0	0	CorrectCommission	1.386626	0.854495	0
12.400765	0.795751	city	2	1	0.500252	0.500252	0	1	0	0	CorrectCommission	1.486703	0.918229	0
13.196701	0.796121	mountain	9	1	0.798464	0.798464	0	0	1	0	CommissionError	1.180013	0.954513	0
13.992515	0.795506	city	4	1	0.449350	0.449350	0	1	0	0	CorrectCommission	1.941889	0.963707	0
14.788318	0.796102	mountain	10	0	0.000000	0.479843	1	0	0	0	CorrectOmission	1.669211	0.948131	0
15.584096	0.795455	city	1	1	0.598853	0.598853	0	1	0	0	CorrectCommission	0.604974	0.911713	0
16.379753	0.795859	city	5	1	0.515293	0.515293	0	1	0	0	CorrectCommission	1.352200	0.859503	0
17.175585	0.795804	city	1	1	0.602802	0.602802	0	1	0	0	CorrectCommission	0.569662	0.796999	0
17.971382	0.795792	city	6	1	0.598843	0.598843	0	1	0	0	CorrectCommission	0.605071	0.729726	1
18.767166	0.795773	city	4	1	0.648576	0.648576	0	1	0	0	CorrectCommission	0.160336	0.662663	1
19.562967	0.795829	city	5	1	0.648826	0.648826	0	1	0	0	CorrectCommission	0.158103	0.600035	1
20.358780	0.795799	city	3	1	0.649285	0.649285	0	1	0	0	CorrectCommission	0.153999	0.545086	1
21.154591	0.795821	city	9	1	0.648635	0.648635	0	1	0	0	CorrectCommission	0.159808	0.499894	1
21.950531	0.796059	city	4	1	0.702775	0.702775	0	1	0	0	CorrectCommission	0.324330	0.465699	1
22.746296	0.795474	city	6	1	0.699278	0.699278	0	1	0	0	CorrectCommission	0.293060	0.443055	1
23.541956	0.795845	city	10	1	0.648710	0.648710	0	1	0	0	CorrectCommission	0.159143	0.432129	1
24.337795	0.795831	city	2	1	0.648580	0.648580	0	1	0	0	CorrectCommission	0.160302	0.432947	1
25.133615	0.795813	city	10	1	0.798094	0.798094	0	1	0	0	CorrectCommission	1.176708	0.445565	1
25.929398	0.795750	city	1	1	0.748005	0.748005	0	1	0	0	CorrectCommission	0.728795	0.470079	1
26.725334	0.796121	city	2	1	0.698632	0.698632	0	1	0	0	CorrectCommission	0.287279	0.506622	1
27.521160	0.795534	city	7	1	0.714907	0.714907	0	1	0	0	CorrectCommission	0.432822	0.555090	1
28.316776	0.795697	city	1	1	0.665161	0.665161	0	1	0	0	CorrectCommission	0.012027	0.614948	1
29.112701	0.796152	city	9	1	0.651119	0.651119	0	1	0	0	CorrectCommission	0.137600	0.684898	1
29.908684	0.795815	city	5	1	0.598564	0.598564	0	1	0	0	CorrectCommission	0.607559	0.762696	0
30.704346	0.795511	city	8	1	0.650160	0.650160	0	1	0	0	CorrectCommission	0.146174	0.845061	0
31.500147	0.796091	city	9	1	0.698580	0.698580	0	1	0	0	CorrectCommission	0.286819	0.927843	0
32.295956	0.795523	city	5	1	0.747842	0.747842	0	1	0	0	CorrectCommission	0.727332	1.006291	0
33.091579	0.795723	city	8	1	0.705614	0.705614	0	1	0	0	CorrectCommission	0.349715	1.075528	0
33.887363	0.795850	city	9	1	0.847649	0.847649	0	1	0	0	CorrectCommission	1.619847	1.131157	0
34.683197	0.795815	city	8	1	1.096155	1.096155	0	1	0	0	CorrectCommission	3.842069	1.169784	0
35.478981	0.795748	city	7	1	1.260398	1.260398	0	1	0	0	CorrectCommission	5.310794	1.189450	0
36.274925	0.796147	city	5	1	0.748957	0.748957	0	1	0	0	CorrectCommission	0.737309	1.189899	0
37.070908	0.795812	city	4	1	0.747768	0.747768	0	1	0	0	CorrectCommission	0.726669	1.172743	0
37.866707	0.795789	city	8	1	0.748097	0.748097	0	1	0	0	CorrectCommission	0.729611	1.140790	0
38.662376	0.795548	city	10	1	0.650665	0.650665	0	1	0	0	CorrectCommission	0.141660	1.097711	0
39.458172	0.796042	city	2	1	0.658442	0.658442	0	1	0	0	CorrectCommission	0.072116	1.047493	0
40.254086	0.795789	city	8	1	0.698524	0.698524	0	1	0	0	CorrectCommission	0.286318	0.993902	0
41.049896	0.795834	city	4	1	0.800736	0.800736	0	1	0	0	CorrectCommission	1.200330	0.940073	0
41.845566	0.795501	city	9	1	0.854068	0.854068	0	1	0	0	CorrectCommission	1.677245	0.888274	0
42.641193	0.795754	city	6	0	0.000000	0.627001	0	0	0	1	OmissionError	0.353266	0.839926	0
43.437000	0.795864	city	5	1	0.449952	0.449952	0	1	0	0	CorrectCommission	1.936504	0.795777	0
44.232830	0.795793	city	6	1	0.653336	0.653336	0	1	0	0	CorrectCommission	0.117772	0.755927	0
45.028618	0.795782	city	2	1	0.599663	0.599663	0	1	0	0	CorrectCommission	0.597732	0.720329	1
45.824566	0.796115	city	3	1	0.649431	0.649431	0	1	0	0	CorrectCommission	0.152694	0.688800	1
46.620361	0.795476	mountain	9	0	0.000000	0.557691	1	0	0	0	CorrectOmission	0.973061	0.661327	1
47.415989	0.795782	city	7	1	0.499356	0.499356	0	1	0	0	CorrectCommission	1.494715	0.638072	1
48.211807	0.795853	city	6	1	0.649336	0.649336	0	1	0	0	CorrectCommission	0.153539	0.619446	1
49.007648	0.795831	city	4	1	0.667184	0.667184	0	1	0	0	CorrectCommission	0.006061	0.606073	1
49.803467	0.795803	city	5	1	0.616710	0.616710	0	1	0	0	CorrectCommission	0.445291	0.598590	1
50.599232	0.795727	city	3	1	0.599662	0.599662	0	1	0	0	CorrectCommission	0.597748	0.597518	1
51.395164	0.796136	city	4	1	0.648820	0.648820	0	1	0	0	CorrectCommission	0.158152	0.603161	1
52.190968	0.795469	city	5	1	0.598637	0.598637	0	1	0	0	CorrectCommission	0.606909	0.615483	1
52.986633	0.795867	city	2	1	0.553601	0.553601	0	1	0	0	CorrectCommission	1.009639	0.634007	1
53.782475	0.795810	city	5	1	0.613863	0.613863	0	1	0	0	CorrectCommission	0.470757	0.658034	1
54.578259	0.795758	city	3	1	0.658356	0.658356	0	1	0	0	CorrectCommission	0.072883	0.686591	1
55.374031	0.795793	city	2	1	0.748904	0.748904	0	1	0	0	CorrectCommission	0.736827	0.718459	1
56.169804	0.795751	city	6	1	0.748355	0.748355	0	1	0	0	CorrectCommission	0.731921	0.752287	0
56.965614	0.795871	city	1	1	0.617820	0.617820	0	1	0	0	CorrectCommission	0.435370	0.786766	0
57.761440	0.795779	mountain	4	0	0.000000	0.495116	1	0	0	0	CorrectOmission	1.532631	0.820657	0
58.557255	0.795852	city	10	1	0.461644	0.461644	0	1	0	0	CorrectCommission	1.831946	0.852814	0
59.353088	0.795810	city	9	1	0.598806	0.598806	0	1	0	0	CorrectCommission	0.605400	0.882269	0
60.149021	0.796055	city	1	1	0.558509	0.558509	0	1	0	0	CorrectCommission	0.965746	0.908357	0
60.944939	0.795785	city	4	1	0.708090	0.708090	0	1	0	0	CorrectCommission	0.371857	0.930477	0
61.740582	0.795502	mountain	10	0	0.000000	0.612077	1	0	0	0	CorrectOmission	0.486721	0.948299	0
62.536400	0.796131	city	5	1	0.549185	0.549185	0	1	0	0	CorrectCommission	1.049124	0.961582	0
63.332367	0.795801	city	2	1	0.798128	0.798128	0	1	0	0	CorrectCommission	1.177006	0.970246	0
64.128159	0.795789	city	10	1	0.550152	0.550152	0	1	0	0	CorrectCommission	1.040481	0.974364	0
64.923828	0.795545	mountain	2	0	0.000000	0.434096	1	0	0	0	CorrectOmission	2.078294	0.974173	0
65.719490	0.795778	city	3	1	0.500131	0.500131	0	1	0	0	CorrectCommission	1.487784	0.970056	0
66.515419	0.796080	city	1	1	0.798429	0.798429	0	1	0	0	CorrectCommission	1.179697	0.962556	0
67.311363	0.795816	city	4	1	0.648712	0.648712	0	1	0	0	CorrectCommission	0.159125	0.952241	0
68.107002	0.795457	city	5	1	0.648284	0.648284	0	1	0	0	CorrectCommission	0.162946	0.939647	0
68.902641	0.795823	city	4	1	0.748500	0.748500	0	1	0	0	CorrectCommission	0.733216	0.925160	0
69.698601	0.796086	city	3	1	0.798505	0.798505	0	1	0	0	CorrectCommission	1.180379	0.908975	0
70.494377	0.795474	city	7	1	0.748680	0.748680	0	1	0	0	CorrectCommission	0.734828	0.891084	0
71.290039	0.795844	mountain	7	0	0.000000	0.574019	1	0	0	0	CorrectOmission	0.827049	0.871402	0
72.085999	0.796077	city	4	1	0.449626	0.449626	0	1	0	0	CorrectCommission	1.939417	0.849786	0
72.881798	0.795532	city	8	1	0.550604	0.550604	0	1	0	0	CorrectCommission	1.036440	0.826054	0
73.677467	0.795802	city	6	1	0.558610	0.558610	0	1	0	0	CorrectCommission	0.964841	0.800225	0
74.473244	0.795750	city	3	1	0.698326	0.698326	0	1	0	0	CorrectCommission	0.284544	0.772501	0
75.269020	0.795800	city	10	1	0.701511	0.701511	0	1	0	0	CorrectCommission	0.313021	0.743295	1
76.064865	0.795893	city	7	1	0.715502	0.715502	0	1	0	0	CorrectCommission	0.438135	0.713220	1
76.860703	0.795771	city	9	1	0.797769	0.797769	0	1	0	0	CorrectCommission	1.173799	0.683122	1
77.656471	0.795770	city	2	1	0.762936	0.762936	0	1	0	0	CorrectCommission	0.862309	0.653971	1
78.452278	0.795847	city	4	1	0.748408	0.748408	0	1	0	0	CorrectCommission	0.732398	0.626873	1
79.248238	0.796072	city	10	1	0.615331	0.615331	0	1	0	0	CorrectCommission	0.457630	0.602932	1
80.044044	0.795546	city	3	1	0.608371	0.608371	0	1	0	0	CorrectCommission	0.519867	0.583129	1
80.839722	0.795807	city	2	1	0.601618	0.601618	0	1	0	0	CorrectCommission	0.580252	0.568232	1
81.635529	0.795806	city	1	1	0.649332	0.649332	0	1	0	0	CorrectCommission	0.153573	0.558706	1
82.431465	0.796073	city	3	1	0.698769	0.698769	0	1	0	0	CorrectCommission	0.288509	0.554660	1
83.227242	0.795479	city	6	1	0.697993	0.697993	0	1	0	0	CorrectCommission	0.281570	0.555826	1
84.023033	0.796100	city	1	1	0.651665	0.651665	0	1	0	0	CorrectCommission	0.132712	0.561595	1
84.818810	0.795458	city	2	1	0.601253	0.601253	0	1	0	0	CorrectCommission	0.583516	0.571139	1
85.614479	0.795882	city	9	1	0.613489	0.613489	0	1	0	0	CorrectCommission	0.474101	0.583440	1
86.410309	0.795766	mountain	3	0	0.000000	0.548155	1	0	0	0	CorrectOmission	1.058337	0.597465	1
87.206085	0.795796	city	9	1	0.508775	0.508775	0	1	0	0	CorrectCommission	1.410486	0.612403	1
88.001907	0.795850	city	8	1	0.598872	0.598872	0	1	0	0	CorrectCommission	0.604812	0.627508	1
88.797867	0.796069	city	5	1	0.605376	0.605376	0	1	0	0	CorrectCommission	0.546648	0.642392	1
89.593651	0.795490	city	6	1	0.754690	0.754690	0	1	0	0	CorrectCommission	0.788572	0.656879	1
90.389297	0.795813	city	1	1	0.701463	0.701463	0	1	0	0	CorrectCommission	0.312594	0.671099	1
91.185112	0.795816	city	9	1	0.704798	0.704798	0	1	0	0	CorrectCommission	0.342420	0.685420	1
91.980896	0.795741	city	7	1	0.649233	0.649233	0	1	0	0	CorrectCommission	0.154461	0.700421	1
92.776657	0.795789	city	9	1	0.602075	0.602075	0	1	0	0	CorrectCommission	0.576169	0.716817	1
93.572487	0.795866	city	3	1	0.550011	0.550011	0	1	0	0	CorrectCommission	1.041743	0.735411	1
94.368332	0.795831	city	2	1	0.500335	0.500335	0	1	0	0	CorrectCommission	1.485960	0.757004	0
95.164284	0.796062	city	8	1	0.798415	0.798415	0	1	0	0	CorrectCommission	1.179576	0.782327	0
95.960213	0.795805	city	1	1	0.798222	0.798222	0	1	0	0	CorrectCommission	1.177846	0.811929	0
96.756004	0.795774	city	9	1	0.698032	0.698032	0	1	0	0	CorrectCommission	0.281912	0.845983	0
97.551666	0.795545	city	3	1	0.717326	0.717326	0	1	0	0	CorrectCommission	0.454453	0.884161	0
98.347466	0.796052	city	10	1	0.698302	0.698302	0	1	0	0	CorrectCommission	0.284329	0.925456	0
99.143265	0.795554	city	2	1	0.648361	0.648361	0	1	0	0	CorrectCommission	0.162264	0.968229	0
99.938904	0.795731	city	7	1	0.599221	0.599221	0	1	0	0	CorrectCommission	0.601689	1.010277	0
100.734703	0.795856	city	3	1	0.648703	0.648703	0	1	0	0	CorrectCommission	0.159203	1.049023	0
101.530502	0.795741	city	2	1	0.598863	0.598863	0	1	0	0	CorrectCommission	0.604885	1.081948	0
102.326324	0.795904	mountain	10	1	1.357024	1.357024	0	0	1	0	CommissionError	6.174853	1.106834	0
103.122154	0.795759	city	1	1	0.798552	0.798552	0	1	0	0	CorrectCommission	1.180804	1.121958	0
103.917908	0.795744	city	5	1	0.548998	0.548998	0	1	0	0	CorrectCommission	1.050799	1.126885	0
104.713829	0.796107	city	7	1	0.599580	0.599580	0	1	0	0	CorrectCommission	0.598473	1.122006	0
105.509682	0.795588	city	6	1	0.553578	0.553578	0	1	0	0	CorrectCommission	1.009843	1.108667	0
106.305359	0.795769	city	7	1	0.599127	0.599127	0	1	0	0	CorrectCommission	0.602524	1.088901	0
107.101288	0.796091	city	2	1	0.798439	0.798439	0	1	0	0	CorrectCommission	1.179794	1.065149	0
107.897110	0.795548	city	3	1	0.598477	0.598477	0	1	0	0	CorrectCommission	0.608340	1.039859	0
108.692741	0.795721	mountain	5	1	0.549908	0.549908	0	0	1	0	CommissionError	1.042666	1.015266	0
109.488541	0.795880	city	5	1	0.556124	0.556124	0	1	0	0	CorrectCommission	0.987078	0.993016	0
110.284515	0.796068	city	8	1	0.558609	0.558609	0	1	0	0	CorrectCommission	0.964854	0.974090	0
111.080437	0.795779	mountain	10	0	0.000000	0.549071	1	0	0	0	CorrectOmission	1.050143	0.958730	0
111.876091	0.795520	city	9	1	0.556150	0.556150	0	1	0	0	CorrectCommission	0.986841	0.946487	0
112.671745	0.795791	city	7	1	0.608485	0.608485	0	1	0	0	CorrectCommission	0.518842	0.936380	0
113.467567	0.795859	city	10	1	0.713065	0.713065	0	1	0	0	CorrectCommission	0.416343	0.927091	0
114.263397	0.795802	city	7	1	0.749042	0.749042	0	1	0	0	CorrectCommission	0.738069	0.917199	0
115.059151	0.795696	city	2	1	0.797739	0.797739	0	1	0	0	CorrectCommission	1.173531	0.905390	0
115.854942	0.795897	city	1	1	0.799165	0.799165	0	1	0	0	CorrectCommission	1.186281	0.890692	0
116.650757	0.795720	city	10	1	0.908652	0.908652	0	1	0	0	CorrectCommission	2.165357	0.872626	0
117.446533	0.795838	city	9	1	0.847580	0.847580	0	1	0	0	CorrectCommission	1.619222	0.851159	0
118.242355	0.795802	city	5	1	0.712662	0.712662	0	1	0	0	CorrectCommission	0.412741	0.826795	0
119.038315	0.796120	mountain	7	0	0.000000	0.634463	1	0	0	0	CorrectOmission	0.286542	0.800451	0
119.834091	0.795438	city	2	1	0.613155	0.613155	0	1	0	0	CorrectCommission	0.477081	0.773029	0
120.629761	0.795901	city	9	1	0.648912	0.648912	0	1	0	0	CorrectCommission	0.157330	0.745502	1
121.425743	0.796067	city	10	1	0.611562	0.611562	0	1	0	0	CorrectCommission	0.491333	0.718770	1
122.221527	0.795504	city	1	1	0.598606	0.598606	0	1	0	0	CorrectCommission	0.607185	0.693550	1
123.017151	0.795742	city	10	1	0.611135	0.611135	0	1	0	0	CorrectCommission	0.495149	0.670383	1
123.812943	0.795840	city	6	1	0.847914	0.847914	0	1	0	0	CorrectCommission	1.622211	0.649799	1
124.608765	0.795805	city	9	1	0.749409	0.749409	0	1	0	0	CorrectCommission	0.741343	0.632305	1
125.404579	0.795818	city	1	1	0.598923	0.598923	0	1	0	0	CorrectCommission	0.604356	0.618609	1
126.200531	0.796093	city	6	1	0.715239	0.715239	0	1	0	0	CorrectCommission	0.435785	0.609520	1
126.996338	0.795509	city	8	1	0.598603	0.598603	0	1	0	0	CorrectCommission	0.607214	0.605944	1
127.791985	0.795798	city	7	1	0.612318	0.612318	0	1	0	0	CorrectCommission	0.484566	0.608750	1
128.587769	0.795757	city	3	1	0.599074	0.599074	0	1	0	0	CorrectCommission	0.603004	0.618612	1
129.383545	0.795804	city	9	1	0.648859	0.648859	0	1	0	0	CorrectCommission	0.157811	0.635782	1
130.179352	0.795808	city	10	1	0.648885	0.648885	0	1	0	0	CorrectCommission	0.157578	0.659973	1
130.975189	0.795852	city	3	1	0.707740	0.707740	0	1	0	0	CorrectCommission	0.368728	0.690255	1
131.770981	0.795749	city	1	1	0.617953	0.617953	0	1	0	0	CorrectCommission	0.434183	0.725029	1
132.566757	0.795803	city	2	1	0.648959	0.648959	0	1	0	0	CorrectCommission	0.156913	0.762154	0
133.362595	0.795869	city	5	1	0.748406	0.748406	0	1	0	0	CorrectCommission	0.732379	0.799240	0
134.158401	0.795729	city	6	1	0.854755	0.854755	0	1	0	0	CorrectCommission	1.683390	0.833816	0
134.954147	0.795791	city	2	1	0.947114	0.947114	0	1	0	0	CorrectCommission	2.509292	0.863712	0
135.749969	0.795850	city	3	0	0.000000	0.690262	0	0	0	1	OmissionError	0.212430	0.887315	0
136.545929	0.796074	city	7	1	0.513762	0.513762	0	1	0	0	CorrectCommission	1.365894	0.903837	0
137.341751	0.795566	city	9	1	0.847177	0.847177	0	1	0	0	CorrectCommission	1.615626	0.913110	0
138.137405	0.795731	city	1	1	0.599194	0.599194	0	1	0	0	CorrectCommission	0.601930	0.915699	0
138.933182	0.795832	city	2	1	0.565794	0.565794	0	1	0	0	CorrectCommission	0.900603	0.912686	0
139.729019	0.795848	mountain	6	0	0.000000	0.568551	1	0	0	0	CorrectOmission	0.875950	0.905374	0
140.524826	0.795752	city	2	1	0.611485	0.611485	0	1	0	0	CorrectCommission	0.492018	0.895137	0
141.320602	0.795809	city	8	1	0.698617	0.698617	0	1	0	0	CorrectCommission	0.287147	0.883152	0
142.116409	0.795806	city	1	1	0.599624	0.599624	0	1	0	0	CorrectCommission	0.598087	0.870364	0
142.912354	0.796082	city	2	1	0.552883	0.552883	0	1	0	0	CorrectCommission	1.016056	0.857424	0
143.708176	0.795536	city	10	1	0.511521	0.511521	0	1	0	0	CorrectCommission	1.385935	0.844776	0
144.503815	0.795772	city	1	1	0.549162	0.549162	0	1	0	0	CorrectCommission	1.049331	0.832759	0
145.299622	0.795835	mountain	4	1	0.747982	0.747982	0	0	1	0	CommissionError	0.728586	0.821729	0
146.095581	0.796067	city	6	1	0.508400	0.508400	0	1	0	0	CorrectCommission	1.413845	0.812110	0
146.891373	0.795519	city	5	1	0.551158	0.551158	0	1	0	0	CorrectCommission	1.031480	0.804373	0
147.687164	0.796072	city	4	1	0.649416	0.649416	0	1	0	0	CorrectCommission	0.152828	0.799047	0
148.482971	0.795547	city	2	1	0.748643	0.748643	0	1	0	0	CorrectCommission	0.734495	0.796568	0
149.278793	0.796081	city	3	1	0.699113	0.699113	0	1	0	0	CorrectCommission	0.291585	0.797133	0
150.074722	0.795775	city	4	1	0.748059	0.748059	0	1	0	0	CorrectCommission	0.729275	0.800582	0
150.870377	0.795540	city	8	1	0.698057	0.698057	0	1	0	0	CorrectCommission	0.282135	0.806327	0
151.666046	0.795810	city	10	1	0.599694	0.599694	0	1	0	0	CorrectCommission	0.597454	0.813402	0
152.461823	0.795736	city	4	1	0.757510	0.757510	0	1	0	0	CorrectCommission	0.813791	0.820482	0
153.257614	0.795849	city	2	1	0.517677	0.517677	0	1	0	0	CorrectCommission	1.330879	0.826192	0
154.053436	0.795785	city	9	1	0.798606	0.798606	0	1	0	0	CorrectCommission	1.181286	0.829147	0
154.849228	0.795815	city	8	1	0.798671	0.798671	0	1	0	0	CorrectCommission	1.181863	0.828238	0
155.645187	0.796098	city	1	1	0.851127	0.851127	0	1	0	0	CorrectCommission	1.650945	0.822757	0
156.440964	0.795442	city	8	1	0.747799	0.747799	0	1	0	0	CorrectCommission	0.726951	0.812427	0
157.236755	0.796157	mountain	8	0	0.000000	0.733611	1	0	0	0	CorrectOmission	0.600072	0.797441	0
158.032608	0.795538	city	7	1	0.715123	0.715123	0	1	0	0	CorrectCommission	0.434750	0.778343	0
158.828278	0.795811	city	1	1	0.598898	0.598898	0	1	0	0	CorrectCommission	0.604573	0.755925	0
159.624069	0.795776	city	6	1	0.556165	0.556165	0	1	0	0	CorrectCommission	0.986712	0.731272	1
160.419861	0.795801	city	3	1	0.609998	0.609998	0	1	0	0	CorrectCommission	0.505319	0.705381	1
161.215652	0.795772	city	8	1	0.598835	0.598835	0	1	0	0	CorrectCommission	0.605143	0.679333	1
162.011429	0.795774	mountain	10	1	0.615348	0.615348	0	0	1	0	CommissionError	0.457472	0.654273	1
162.807251	0.795878	city	1	1	0.608158	0.608158	0	1	0	0	CorrectCommission	0.521770	0.631456	1
163.603073	0.795772	city	3	1	0.599621	0.599621	0	1	0	0	CorrectCommission	0.598108	0.612264	1
164.399017	0.796109	city	9	1	0.897586	0.897586	0	1	0	0	CorrectCommission	2.066401	0.598203	1
165.194824	0.795510	mountain	3	1	0.648570	0.648570	0	0	1	0	CommissionError	0.160391	0.590827	1
165.990616	0.796081	city	3	1	0.649226	0.649226	0	1	0	0	CorrectCommission	0.154529	0.591740	1
166.786423	0.795532	city	8	1	0.658401	0.658401	0	1	0	0	CorrectCommission	0.072479	0.602216	1
167.582230	0.796072	city	6	1	0.650527	0.650527	0	1	0	0	CorrectCommission	0.142891	0.622976	1
168.378006	0.795498	city	2	1	0.602989	0.602989	0	1	0	0	CorrectCommission	0.567994	0.654007	1
169.173813	0.796092	city	4	1	0.665757	0.665757	0	1	0	0	CorrectCommission	0.006701	0.694305	1
169.969574	0.795456	city	9	1	0.598920	0.598920	0	1	0	0	CorrectCommission	0.604382	0.741893	1
170.765244	0.795861	city	4	1	0.599114	0.599114	0	1	0	0	CorrectCommission	0.602648	0.793778	0
171.561050	0.795761	city	1	1	0.562306	0.562306	0	1	0	0	CorrectCommission	0.931798	0.846247	0
172.356995	0.796131	city	6	1	0.699910	0.699910	0	1	0	0	CorrectCommission	0.298712	0.895186	0
173.152817	0.795510	city	7	1	0.602551	0.602551	0	1	0	0	CorrectCommission	0.571912	0.936560	0
173.948486	0.795832	city	4	1	0.608646	0.608646	0	1	0	0	CorrectCommission	0.517403	0.966903	0
174.744308	0.795803	mountain	4	1	1.352062	1.352062	0	0	1	0	CommissionError	6.130484	0.983729	0
175.540253	0.796084	city	10	1	0.798454	0.798454	0	1	0	0	CorrectCommission	1.179927	0.985726	0
176.336044	0.795507	city	3	1	0.648572	0.648572	0	1	0	0	CorrectCommission	0.160375	0.973393	0
177.131683	0.795772	city	6	1	0.751975	0.751975	0	1	0	0	CorrectCommission	0.764293	0.948531	0
177.927475	0.795817	city	5	1	0.748314	0.748314	0	1	0	0	CorrectCommission	0.731559	0.914048	0
178.723297	0.795830	city	2	1	0.798694	0.798694	0	1	0	0	CorrectCommission	1.182069	0.873699	0
179.519104	0.795773	city	5	1	0.698246	0.698246	0	1	0	0	CorrectCommission	0.283827	0.831565	0
180.314911	0.795841	city	2	1	0.649278	0.649278	0	1	0	0	CorrectCommission	0.154056	0.791667	0
181.110718	0.795765	city	7	1	0.748690	0.748690	0	1	0	0	CorrectCommission	0.734915	0.757513	0
181.906494	0.795795	city	1	1	0.761718	0.761718	0	1	0	0	CorrectCommission	0.851417	0.731740	1
182.702438	0.796080	city	3	1	0.658140	0.658140	0	1	0	0	CorrectCommission	0.074813	0.716034	1
183.498199	0.795466	city	2	1	0.598559	0.598559	0	1	0	0	CorrectCommission	0.607611	0.711019	1
184.294022	0.796159	city	7	1	0.650805	0.650805	0	1	0	0	CorrectCommission	0.140403	0.716220	1
185.089859	0.795530	city	3	1	0.747836	0.747836	0	1	0	0	CorrectCommission	0.727279	0.730282	1
185.885529	0.795807	city	5	1	0.558146	0.558146	0	1	0	0	CorrectCommission	0.968995	0.751063	0
186.681305	0.795751	city	10	1	0.551877	0.551877	0	1	0	0	CorrectCommission	1.025055	0.775946	0
187.477066	0.795765	city	8	1	0.599094	0.599094	0	1	0	0	CorrectCommission	0.602821	0.802076	0
188.273010	0.796127	city	2	1	0.602988	0.602988	0	1	0	0	CorrectCommission	0.568000	0.826626	0
189.068832	0.795516	city	1	1	0.549769	0.549769	0	1	0	0	CorrectCommission	1.043901	0.847035	0
189.864502	0.795810	city	9	1	0.650366	0.650366	0	1	0	0	CorrectCommission	0.144327	0.861216	0
190.660309	0.795827	mountain	7	1	0.452826	0.452826	0	0	1	0	CommissionError	1.910801	0.867837	0
191.456100	0.795758	city	1	1	0.500102	0.500102	0	1	0	0	CorrectCommission	1.488045	0.866344	0
192.251892	0.795819	city	6	1	0.400278	0.400278	0	1	0	0	CorrectCommission	2.380705	0.857037	0
193.047714	0.795807	city	3	1	0.598845	0.598845	0	1	0	0	CorrectCommission	0.605050	0.841149	0
193.843536	0.795832	city	10	1	0.598915	0.598915	0	1	0	0	CorrectCommission	0.604419	0.820786	0
194.639313	0.795737	city	3	1	0.659699	0.659699	0	1	0	0	CorrectCommission	0.060872	0.798473	0
195.435074	0.795797	mountain	4	0	0.000000	0.653759	1	0	0	0	CorrectOmission	0.113986	0.777007	0
196.230881	0.795799	city	5	1	0.599164	0.599164	0	1	0	0	CorrectCommission	0.602200	0.759077	0
197.026855	0.796147	city	2	1	0.513979	0.513979	0	1	0	0	CorrectCommission	1.363950	0.747016	1
197.822830	0.795811	city	3	1	0.568269	0.568269	0	1	0	0	CorrectCommission	0.878470	0.742503	1
198.618637	0.795803	city	10	1	0.608117	0.608117	0	1	0	0	CorrectCommission	0.522140	0.746441	1
199.414261	0.795434	city	3	1	0.660348	0.660348	0	1	0	0	CorrectCommission	0.055070	0.758813	0
200.210037	0.796128	city	2	1	0.698391	0.698391	0	1	0	0	CorrectCommission	0.285127	0.778734	0
201.005844	0.795499	mountain	2	0	0.000000	0.688246	1	0	0	0	CorrectOmission	0.194405	0.804470	0
201.801666	0.796146	city	9	1	0.698657	0.698657	0	1	0	0	CorrectCommission	0.287501	0.833704	0
202.597458	0.795437	city	4	1	0.798368	0.798368	0	1	0	0	CorrectCommission	1.179154	0.863771	0
203.393112	0.795868	city	7	1	0.506259	0.506259	0	1	0	0	CorrectCommission	1.432987	0.891938	0
204.188965	0.795819	city	4	1	0.409606	0.409606	0	1	0	0	CorrectCommission	2.297295	0.915730	0
204.984909	0.796081	city	5	1	0.500076	0.500076	0	1	0	0	CorrectCommission	1.488281	0.933183	0
205.780838	0.795766	city	7	1	0.511346	0.511346	0	1	0	0	CorrectCommission	1.387497	0.943041	0
206.576492	0.795564	city	4	1	0.648756	0.648756	0	1	0	0	CorrectCommission	0.158724	0.944711	0
207.372147	0.795728	city	5	1	0.549829	0.549829	0	1	0	0	CorrectCommission	1.043371	0.938385	0
208.168091	0.796146	city	8	1	0.699063	0.699063	0	1	0	0	CorrectCommission	0.291136	0.924754	0
208.963913	0.795511	city	5	1	0.548820	0.548820	0	1	0	0	CorrectCommission	1.052391	0.905083	0
209.759552	0.795755	city	9	1	0.764908	0.764908	0	1	0	0	CorrectCommission	0.879944	0.880922	0
210.555344	0.795838	city	4	1	0.549055	0.549055	0	1	0	0	CorrectCommission	1.050285	0.854135	0
211.351151	0.795789	city	7	1	0.515759	0.515759	0	1	0	0	CorrectCommission	1.348036	0.826730	0
212.147110	0.796107	city	10	1	0.502580	0.502580	0	1	0	0	CorrectCommission	1.465887	0.800765	0
212.942871	0.795443	city	2	1	0.598560	0.598560	0	1	0	0	CorrectCommission	0.607600	0.778148	0
213.738510	0.795825	mountain	1	0	0.000000	0.631352	1	0	0	0	CorrectOmission	0.314362	0.760597	0
214.534485	0.796108	city	3	1	0.648613	0.648613	0	1	0	0	CorrectCommission	0.160008	0.749394	1
215.330261	0.795471	city	6	1	0.698000	0.698000	0	1	0	0	CorrectCommission	0.281630	0.745329	1
216.125931	0.795849	city	7	1	0.698730	0.698730	0	1	0	0	CorrectCommission	0.288161	0.748583	1
216.921768	0.795825	city	6	1	0.649561	0.649561	0	1	0	0	CorrectCommission	0.151527	0.758707	0
217.717575	0.795787	city	10	1	0.559785	0.559785	0	1	0	0	CorrectCommission	0.954334	0.774668	0
218.513367	0.795803	city	7	1	0.797815	0.797815	0	1	0	0	CorrectCommission	1.174208	0.794903	0
219.309189	0.795837	city	2	1	0.748121	0.748121	0	1	0	0	CorrectCommission	0.729832	0.817587	0
220.105133	0.796062	city	5	1	0.847570	0.847570	0	1	0	0	CorrectCommission	1.619136	0.840735	0
220.900925	0.795507	city	9	1	0.798159	0.798159	0	1	0	0	CorrectCommission	1.177285	0.862349	0
221.696594	0.795833	city	2	1	0.602639	0.602639	0	1	0	0	CorrectCommission	0.571127	0.880628	0
222.492416	0.795811	city	1	1	0.599435	0.599435	0	1	0	0	CorrectCommission	0.599771	0.894095	0
223.288193	0.795737	city	8	1	0.549108	0.549108	0	1	0	0	CorrectCommission	1.049817	0.901620	0
224.083969	0.795836	city	7	1	0.560752	0.560752	0	1	0	0	CorrectCommission	0.945690	0.902481	0
224.879807	0.795820	city	4	1	0.555752	0.555752	0	1	0	0	CorrectCommission	0.990407	0.896377	0
225.675598	0.795786	city	7	1	0.599251	0.599251	0	1	0	0	CorrectCommission	0.601418	0.883458	0
226.471390	0.795786	mountain	9	0	0.000000	0.472288	1	0	0	0	CorrectOmission	1.736768	0.864318	0
227.267197	0.795817	city	10	1	0.410259	0.410259	0	1	0	0	CorrectCommission	2.291451	0.839840	0
228.063004	0.795817	city	4	1	0.648562	0.648562	0	1	0	0	CorrectCommission	0.160465	0.811228	0
228.858948	0.796073	city	1	1	0.648513	0.648513	0	1	0	0	CorrectCommission	0.160897	0.780000	0
229.654739	0.795507	city	6	1	0.649162	0.649162	0	1	0	0	CorrectCommission	0.155101	0.747662	1
230.450546	0.796093	city	8	1	0.748353	0.748353	0	1	0	0	CorrectCommission	0.731901	0.715752	1
231.246475	0.795781	city	2	1	0.549821	0.549821	0	1	0	0	CorrectCommission	1.043443	0.685659	1
232.042282	0.795824	city	1	1	0.599393	0.599393	0	1	0	0	CorrectCommission	0.600154	0.658559	1
232.838089	0.795780	city	9	1	0.748529	0.748529	0	1	0	0	CorrectCommission	0.733476	0.635402	1
233.633743	0.795535	city	1	1	0.666182	0.666182	0	1	0	0	CorrectCommission	0.002894	0.616791	1
234.429398	0.795786	city	10	1	0.798568	0.798568	0	1	0	0	CorrectCommission	1.180947	0.603062	1
235.225204	0.795809	city	7	1	0.611727	0.611727	0	1	0	0	CorrectCommission	0.489854	0.594139	1
236.021011	0.795800	city	1	1	0.656057	0.656057	0	1	0	0	CorrectCommission	0.093440	0.589721	1
236.816818	0.795812	city	6	1	0.667581	0.667581	0	1	0	0	CorrectCommission	0.009611	0.589329	1
237.612579	0.795730	city	1	1	0.611246	0.611246	0	1	0	0	CorrectCommission	0.494156	0.592232	1
238.408371	0.795848	city	2	1	0.798633	0.798633	0	1	0	0	CorrectCommission	1.181524	0.597638	1
239.204208	0.795829	city	10	1	0.599722	0.599722	0	1	0	0	CorrectCommission	0.597209	0.604793	1
240.000000	0.795743	city	1	1	0.599179	0.599179	0	1	0	0	CorrectCommission	0.602066	0.613099	1
240.795807	0.795891	city	5	1	0.599758	0.599758	0	1	0	0	CorrectCommission	0.596889	0.622111	1
241.591599	0.795688	city	4	1	0.848200	0.848200	0	1	0	0	CorrectCommission	1.624773	0.631572	1
242.387390	0.795887	city	5	1	0.699106	0.699106	0	1	0	0	CorrectCommission	0.291522	0.641435	1
243.183228	0.795773	city	7	1	0.660692	0.660692	0	1	0	0	CorrectCommission	0.051989	0.651863	1
243.979034	0.795856	city	5	1	0.599259	0.599259	0	1	0	0	CorrectCommission	0.601347	0.663083	1
244.774841	0.795747	city	6	1	0.648500	0.648500	0	1	0	0	CorrectCommission	0.161015	0.675304	1
245.570618	0.795822	city	5	1	0.554441	0.554441	0	1	0	0	CorrectCommission	1.002128	0.688778	1
246.366440	0.795827	city	4	1	0.549049	0.549049	0	1	0	0	CorrectCommission	1.050341	0.703623	1
247.162247	0.795772	city	7	1	0.613448	0.613448	0	1	0	0	CorrectCommission	0.474461	0.719858	1
247.958023	0.795799	city	8	1	0.797770	0.797770	0	1	0	0	CorrectCommission	1.173808	0.737325	1
248.753799	0.795749	city	1	1	0.598893	0.598893	0	1	0	0	CorrectCommission	0.604618	0.755631	0
249.549622	0.795881	city	3	1	0.748953	0.748953	0	1	0	0	CorrectCommission	0.737273	0.774228	0
250.345581	0.796043	city	8	1	0.699196	0.699196	0	1	0	0	CorrectCommission	0.292324	0.792348	0
251.141357	0.795522	city	7	1	0.710610	0.710610	0	1	0	0	CorrectCommission	0.394393	0.809121	0
251.937027	0.795804	city	8	1	0.897642	0.897642	0	1	0	0	CorrectCommission	2.066902	0.823543	0
252.732849	0.795836	city	3	1	0.698327	0.698327	0	1	0	0	CorrectCommission	0.284555	0.834561	0
253.528656	0.795767	city	8	1	0.598834	0.598834	0	1	0	0	CorrectCommission	0.605149	0.841418	0
254.324448	0.795845	city	3	1	0.549325	0.549325	0	1	0	0	CorrectCommission	1.047872	0.843590	0
255.120407	0.796065	city	6	1	0.798409	0.798409	0	1	0	0	CorrectCommission	1.179519	0.840954	0
255.916336	0.795782	city	10	1	0.502869	0.502869	0	1	0	0	CorrectCommission	1.463299	0.833861	0
256.712006	0.795549	city	7	1	0.603119	0.603119	0	1	0	0	CorrectCommission	0.566832	0.823213	0
257.507782	0.796048	city	5	1	0.456568	0.456568	0	1	0	0	CorrectCommission	1.877340	0.810355	0
258.303589	0.795566	city	7	1	0.704822	0.704822	0	1	0	0	CorrectCommission	0.342635	0.796844	0
259.099243	0.795704	city	2	1	0.608947	0.608947	0	1	0	0	CorrectCommission	0.514710	0.784424	0
259.895020	0.795861	mountain	6	0	0.000000	0.600480	1	0	0	0	CorrectOmission	0.590429	0.774615	0
260.690857	0.795834	city	7	1	0.648701	0.648701	0	1	0	0	CorrectCommission	0.159223	0.768609	0
261.486694	0.795791	mountain	4	0	0.000000	0.722891	1	0	0	0	CorrectOmission	0.504212	0.767054	0
262.282440	0.795725	city	3	1	0.748046	0.748046	0	1	0	0	CorrectCommission	0.729161	0.770026	0
263.078186	0.795799	city	6	1	0.649163	0.649163	0	1	0	0	CorrectCommission	0.155091	0.776974	0
263.874054	0.795887	city	9	1	0.599459	0.599459	0	1	0	0	CorrectCommission	0.599562	0.786923	0
264.670013	0.796070	city	6	1	0.749006	0.749006	0	1	0	0	CorrectCommission	0.737744	0.798599	0
265.465820	0.795507	mountain	3	1	0.499235	0.499235	0	0	1	0	CommissionError	1.495798	0.810648	0
266.261627	0.796111	city	1	1	0.453677	0.453677	0	1	0	0	CorrectCommission	1.903197	0.821858	0
267.057404	0.795485	city	5	1	0.466188	0.466188	0	1	0	0	CorrectCommission	1.791315	0.831268	0
267.853058	0.795796	city	6	1	0.698355	0.698355	0	1	0	0	CorrectCommission	0.284805	0.838290	0
268.648865	0.795846	city	9	1	0.648510	0.648510	0	1	0	0	CorrectCommission	0.160924	0.842695	0
269.444824	0.796043	city	7	1	0.599622	0.599622	0	1	0	0	CorrectCommission	0.598099	0.844402	0
270.240753	0.795838	city	3	1	0.714664	0.714664	0	1	0	0	CorrectCommission	0.430642	0.843512	0
271.036438	0.795494	city	5	1	0.655089	0.655089	0	1	0	0	CorrectCommission	0.102100	0.840174	0
271.832092	0.795833	city	6	1	0.851269	0.851269	0	1	0	0	CorrectCommission	1.652212	0.834579	0
272.628021	0.796050	mountain	10	1	0.797712	0.797712	0	0	1	0	CommissionError	1.173286	0.826854	0
273.423828	0.795517	city	10	1	0.763207	0.763207	0	1	0	0	CorrectCommission	0.864729	0.817243	0
274.219482	0.795798	city	3	1	0.911616	0.911616	0	1	0	0	CorrectCommission	2.191861	0.806087	0
275.015289	0.795839	city	8	1	0.699172	0.699172	0	1	0	0	CorrectCommission	0.292105	0.793719	0
275.811249	0.796079	city	5	1	0.605108	0.605108	0	1	0	0	CorrectCommission	0.549045	0.780678	0
276.607025	0.795483	city	8	1	0.664247	0.664247	0	1	0	0	CorrectCommission	0.020199	0.767408	0
277.402679	0.795802	city	6	1	0.798579	0.798579	0	1	0	0	CorrectCommission	1.181038	0.754273	0
278.198486	0.795829	city	7	1	0.700272	0.700272	0	1	0	0	CorrectCommission	0.301947	0.741398	1
278.994446	0.796081	city	6	1	0.748477	0.748477	0	1	0	0	CorrectCommission	0.733013	0.728728	1
279.790253	0.795530	city	8	1	0.601582	0.601582	0	1	0	0	CorrectCommission	0.580573	0.715877	1
280.585938	0.795820	city	5	1	0.603275	0.603275	0	1	0	0	CorrectCommission	0.565433	0.702260	1
281.381866	0.796066	city	4	1	0.798394	0.798394	0	1	0	0	CorrectCommission	1.179392	0.687155	1
282.177643	0.795464	city	2	1	0.601094	0.601094	0	1	0	0	CorrectCommission	0.584937	0.669807	1
282.973419	0.796127	city	6	1	0.559225	0.559225	0	1	0	0	CorrectCommission	0.959346	0.649645	1
283.769409	0.795809	city	5	1	0.598593	0.598593	0	1	0	0	CorrectCommission	0.607303	0.626351	1
284.565033	0.795437	mountain	5	0	0.000000	0.564018	1	0	0	0	CorrectOmission	0.916488	0.599990	1
285.360809	0.796134	city	2	1	0.551200	0.551200	0	1	0	0	CorrectCommission	1.031106	0.571060	1
286.156616	0.795465	mountain	2	0	0.000000	0.655842	1	0	0	0	CorrectOmission	0.095363	0.540458	1
286.952301	0.795897	city	3	1	0.748134	0.748134	0	1	0	0	CorrectCommission	0.729945	0.509483	1
287.748138	0.795778	city	2	1	0.698267	0.698267	0	1	0	0	CorrectCommission	0.284020	0.479507	1
288.544037	0.796069	city	3	1	0.615690	0.615690	0	1	0	0	CorrectCommission	0.454418	0.451991	1
289.339996	0.795824	city	5	1	0.663188	0.663188	0	1	0	0	CorrectCommission	0.029668	0.428239	1
290.135681	0.795517	city	8	1	0.698345	0.698345	0	1	0	0	CorrectCommission	0.284711	0.409304	1
290.931305	0.795783	city	10	1	0.648715	0.648715	0	1	0	0	CorrectCommission	0.159098	0.395901	1
291.727112	0.795821	city	2	1	0.648828	0.648828	0	1	0	0	CorrectCommission	0.158084	0.388320	1
292.522888	0.795733	city	3	1	0.648829	0.648829	0	1	0	0	CorrectCommission	0.158076	0.386557	1
293.318848	0.796146	city	6	1	0.703039	0.703039	0	1	0	0	CorrectCommission	0.326687	0.390262	1
294.114685	0.795528	city	2	1	0.747695	0.747695	0	1	0	0	CorrectCommission	0.726018	0.398866	1
294.910339	0.795801	city	6	1	0.748026	0.748026	0	1	0	0	CorrectCommission	0.728981	0.411580	1
295.706268	0.796079	city	1	1	0.648528	0.648528	0	1	0	0	CorrectCommission	0.160767	0.427561	1
296.502045	0.795468	city	6	1	0.600668	0.600668	0	1	0	0	CorrectCommission	0.588746	0.445910	1
297.297852	0.796128	mountain	10	1	0.648620	0.648620	0	0	1	0	CommissionError	0.159941	0.465637	1
298.093811	0.795817	city	3	1	0.617462	0.617462	0	1	0	0	CorrectCommission	0.438568	0.485739	1
298.889618	0.795801	city	6	1	0.748047	0.748047	0	1	0	0	CorrectCommission	0.729170	0.505125	1
299.685272	0.795474	city	5	1	0.655262	0.655262	0	1	0	0	CorrectCommission	0.100549	0.522695	1
300.481079	0.796139	city	3	1	0.649062	0.649062	0	1	0	0	CorrectCommission	0.155990	0.537422	1
301.276886	0.795499	city	1	1	0.652181	0.652181	0	1	0	0	CorrectCommission	0.128099	0.548392	1
302.072510	0.795767	city	10	1	0.947881	0.947881	0	1	0	0	CorrectCommission	2.516149	0.554884	1
302.868286	0.795771	city	8	1	0.748945	0.748945	0	1	0	0	CorrectCommission	0.737195	0.556425	1
303.664093	0.795844	city	5	1	0.661202	0.661202	0	1	0	0	CorrectCommission	0.047429	0.553114	1
304.459930	0.795791	mountain	7	1	0.798715	0.798715	0	0	1	0	CommissionError	1.182257	0.545397	1
305.255737	0.795856	city	5	1	0.698833	0.698833	0	1	0	0	CorrectCommission	0.289081	0.534098	1
306.051544	0.795763	city	4	1	0.698550	0.698550	0	1	0	0	CorrectCommission	0.286547	0.520472	1
306.847351	0.795841	city	9	1	0.651469	0.651469	0	1	0	0	CorrectCommission	0.134468	0.506019	1
307.643188	0.795806	city	8	1	0.567671	0.567671	0	1	0	0	CorrectCommission	0.883818	0.492373	1
308.438934	0.795713	city	4	1	0.608387	0.608387	0	1	0	0	CorrectCommission	0.519723	0.481131	1
309.234863	0.796159	city	3	1	0.698404	0.698404	0	1	0	0	CorrectCommission	0.285240	0.473800	1
310.030701	0.795486	city	7	1	0.660434	0.660434	0	1	0	0	CorrectCommission	0.054301	0.471619	1
310.826324	0.795759	city	2	1	0.699248	0.699248	0	1	0	0	CorrectCommission	0.292789	0.475487	1
311.622284	0.796151	city	4	1	0.748114	0.748114	0	1	0	0	CorrectCommission	0.729768	0.485808	1
312.418091	0.795516	city	10	1	0.611018	0.611018	0	1	0	0	CorrectCommission	0.496194	0.502509	1
313.213898	0.796095	city	4	1	0.698766	0.698766	0	1	0	0	CorrectCommission	0.288482	0.525021	1
314.009674	0.795457	mountain	9	1	0.649214	0.649214	0	0	1	0	CommissionError	0.154634	0.552291	1
314.805298	0.795785	city	2	1	0.663192	0.663192	0	1	0	0	CorrectCommission	0.029639	0.582887	1
315.601135	0.795890	mountain	10	1	0.748376	0.748376	0	0	1	0	CommissionError	0.732108	0.615077	1
316.396942	0.795717	city	4	1	0.797974	0.797974	0	1	0	0	CorrectCommission	1.175636	0.646984	1
317.192749	0.795896	city	8	1	0.699286	0.699286	0	1	0	0	CorrectCommission	0.293133	0.676806	1
317.988617	0.795811	mountain	9	0	0.000000	0.541454	1	0	0	0	CorrectOmission	1.118263	0.703006	1
318.784393	0.795772	city	1	1	0.499563	0.499563	0	1	0	0	CorrectCommission	1.492864	0.724362	1
319.580170	0.795790	city	10	1	0.748701	0.748701	0	1	0	0	CorrectCommission	0.735013	0.740033	1
320.376099	0.796052	city	8	1	0.748021	0.748021	0	1	0	0	CorrectCommission	0.728938	0.749735	1
321.171906	0.795534	city	3	1	0.560088	0.560088	0	1	0	0	CorrectCommission	0.951628	0.753594	0
321.967560	0.795775	city	7	1	0.798275	0.798275	0	1	0	0	CorrectCommission	1.178326	0.751971	0
322.763336	0.795807	city	4	1	0.751457	0.751457	0	1	0	0	CorrectCommission	0.759661	0.745442	1
323.559143	0.795775	city	6	1	0.698736	0.698736	0	1	0	0	CorrectCommission	0.288213	0.734653	1
324.354950	0.795889	city	2	1	0.698296	0.698296	0	1	0	0	CorrectCommission	0.284277	0.720231	1
325.150757	0.795719	city	3	1	0.698487	0.698487	0	1	0	0	CorrectCommission	0.285987	0.702657	1
325.946533	0.795834	city	4	1	0.798748	0.798748	0	1	0	0	CorrectCommission	1.182552	0.682342	1
326.742523	0.796105	city	7	1	0.602806	0.602806	0	1	0	0	CorrectCommission	0.569626	0.659638	1
327.538330	0.795521	city	10	1	0.514624	0.514624	0	1	0	0	CorrectCommission	1.358180	0.635025	1
328.333984	0.795817	city	1	1	0.598787	0.598787	0	1	0	0	CorrectCommission	0.605567	0.609077	1
329.129944	0.796086	city	4	1	0.561513	0.561513	0	1	0	0	CorrectCommission	0.938882	0.582610	1
329.925842	0.795703	city	8	1	0.558450	0.558450	0	1	0	0	CorrectCommission	0.966274	0.556627	1
330.721497	0.795598	city	2	1	0.648327	0.648327	0	1	0	0	CorrectCommission	0.162562	0.532298	1
331.517181	0.795766	city	1	1	0.655891	0.655891	0	1	0	0	CorrectCommission	0.094929	0.510874	1
332.313110	0.796137	city	2	1	0.658326	0.658326	0	1	0	0	CorrectCommission	0.073152	0.493454	1
333.108948	0.795522	mountain	8	0	0.000000	0.654995	1	0	0	0	CorrectOmission	0.102934	0.480919	1
333.904572	0.795719	city	6	1	0.650412	0.650412	0	1	0	0	CorrectCommission	0.143923	0.473798	1
334.700500	0.796136	city	4	1	0.649087	0.649087	0	1	0	0	CorrectCommission	0.155771	0.472306	1
335.496338	0.795557	city	10	1	0.555799	0.555799	0	1	0	0	CorrectCommission	0.989978	0.476271	1
336.292023	0.795790	city	8	1	0.798190	0.798190	0	1	0	0	CorrectCommission	1.177563	0.485218	1
337.087952	0.796062	city	10	1	0.660823	0.660823	0	1	0	0	CorrectCommission	0.050819	0.498514	1
337.883759	0.795531	mountain	7	0	0.000000	0.681604	1	0	0	0	CorrectOmission	0.135011	0.515463	1
338.679382	0.795744	city	5	1	0.698414	0.698414	0	1	0	0	CorrectCommission	0.285332	0.535290	1
339.475159	0.795796	city	1	1	0.549135	0.549135	0	1	0	0	CorrectCommission	1.049574	0.557228	1
340.271118	0.796163	city	10	1	0.599472	0.599472	0	1	0	0	CorrectCommission	0.599446	0.580496	1
341.066956	0.795499	mountain	6	0	0.000000	0.592299	1	0	0	0	CorrectOmission	0.663586	0.604358	1
341.862610	0.795823	city	10	1	0.613458	0.613458	0	1	0	0	CorrectCommission	0.474371	0.628012	1
342.658447	0.795811	city	2	1	0.748791	0.748791	0	1	0	0	CorrectCommission	0.735821	0.650580	1
343.454376	0.796076	city	9	1	0.600167	0.600167	0	1	0	0	CorrectCommission	0.593231	0.671067	1
344.250183	0.795532	city	5	1	0.648637	0.648637	0	1	0	0	CorrectCommission	0.159788	0.688448	1
345.045868	0.795805	city	2	1	0.599699	0.599699	0	1	0	0	CorrectCommission	0.597416	0.701681	1
345.841614	0.795706	city	1	1	0.552332	0.552332	0	1	0	0	CorrectCommission	1.020987	0.709814	1
346.637390	0.795869	city	4	1	0.854679	0.854679	0	1	0	0	CorrectCommission	1.682705	0.712103	1
347.433380	0.796095	city	6	1	0.603269	0.603269	0	1	0	0	CorrectCommission	0.565487	0.708144	1
348.229187	0.795522	city	1	1	0.548752	0.548752	0	1	0	0	CorrectCommission	1.052996	0.698020	1
349.024841	0.795766	city	4	1	0.563841	0.563841	0	1	0	0	CorrectCommission	0.918065	0.682236	1
349.820770	0.796103	mountain	5	1	0.798458	0.798458	0	0	1	0	CommissionError	1.179957	0.661736	1
350.616547	0.795469	city	7	1	0.648645	0.648645	0	1	0	0	CorrectCommission	0.159717	0.637769	1
351.412231	0.795870	city	3	1	0.615363	0.615363	0	1	0	0	CorrectCommission	0.457338	0.611799	1
352.208069	0.795808	city	6	1	0.707184	0.707184	0	1	0	0	CorrectCommission	0.363756	0.585267	1
353.003815	0.795711	city	1	1	0.698677	0.698677	0	1	0	0	CorrectCommission	0.287682	0.559489	1
353.799591	0.795853	city	10	1	0.698295	0.698295	0	1	0	0	CorrectCommission	0.284266	0.535525	1
354.595581	0.796096	city	7	1	0.748295	0.748295	0	1	0	0	CorrectCommission	0.731383	0.514109	1
355.391388	0.795554	city	9	1	0.717140	0.717140	0	1	0	0	CorrectCommission	0.452787	0.495648	1
356.187073	0.795784	city	2	1	0.607688	0.607688	0	1	0	0	CorrectCommission	0.525971	0.480324	1
356.982819	0.795720	city	10	1	0.599158	0.599158	0	1	0	0	CorrectCommission	0.602251	0.468078	1
357.778625	0.795890	city	6	1	0.657892	0.657892	0	1	0	0	CorrectCommission	0.077032	0.458775	1
358.574493	0.795816	city	8	1	0.602692	0.602692	0	1	0	0	CorrectCommission	0.570645	0.452294	1
359.370422	0.796055	city	7	1	0.606227	0.606227	0	1	0	0	CorrectCommission	0.539040	0.448565	1
360.166168	0.795457	city	2	1	0.599351	0.599351	0	1	0	0	CorrectCommission	0.600525	0.447651	1
360.961853	0.795878	city	6	1	0.699401	0.699401	0	1	0	0	CorrectCommission	0.294156	0.449690	1
361.757629	0.795723	city	10	1	0.648552	0.648552	0	1	0	0	CorrectCommission	0.160550	0.454929	1
362.553436	0.795846	city	1	1	0.601457	0.601457	0	1	0	0	CorrectCommission	0.581691	0.463600	1
363.349396	0.796116	city	2	1	0.648656	0.648656	0	1	0	0	CorrectCommission	0.159619	0.475802	1
364.145233	0.795539	city	8	1	0.748094	0.748094	0	1	0	0	CorrectCommission	0.729591	0.491462	1
364.940857	0.795693	city	10	1	0.599133	0.599133	0	1	0	0	CorrectCommission	0.602477	0.510269	1
365.736633	0.795894	city	4	1	0.698682	0.698682	0	1	0	0	CorrectCommission	0.287729	0.531624	1
366.532562	0.795938	city	5	1	0.663041	0.663041	0	1	0	0	CorrectCommission	0.030988	0.554652	1
367.328491	0.795915	city	9	1	0.649140	0.649140	0	1	0	0	CorrectCommission	0.155297	0.578224	1
368.124359	0.795813	city	2	1	0.549068	0.549068	0	1	0	0	CorrectCommission	1.050175	0.601092	1
368.920166	0.795810	mountain	7	1	0.509290	0.509290	0	0	1	0	CommissionError	1.405878	0.621978	1
369.715820	0.795488	city	4	1	0.648581	0.648581	0	1	0	0	CorrectCommission	0.160292	0.639783	1
370.511475	0.795821	city	1	1	0.601933	0.601933	0	1	0	0	CorrectCommission	0.577436	0.653729	1
371.307434	0.796086	city	3	1	0.499447	0.499447	0	1	0	0	CorrectCommission	1.493898	0.663372	1
372.103180	0.795462	city	5	1	0.555650	0.555650	0	1	0	0	CorrectCommission	0.991315	0.668672	1
372.898834	0.795830	city	6	1	0.748197	0.748197	0	1	0	0	CorrectCommission	0.730504	0.670074	1
373.694641	0.795776	city	3	1	0.702175	0.702175	0	1	0	0	CorrectCommission	0.318964	0.668395	1
374.490601	0.796126	city	9	1	0.606085	0.606085	0	1	0	0	CorrectCommission	0.540308	0.664670	1
375.286407	0.795514	city	10	1	0.562931	0.562931	0	1	0	0	CorrectCommission	0.926201	0.659998	1
376.082092	0.795813	city	6	1	0.648592	0.648592	0	1	0	0	CorrectCommission	0.160193	0.655437	1
376.877899	0.795844	mountain	6	0	0.000000	0.596330	1	0	0	0	CorrectOmission	0.627539	0.651890	1
377.673706	0.795756	city	1	1	0.561268	0.561268	0	1	0	0	CorrectCommission	0.941075	0.649947	1
378.469635	0.796097	city	10	1	0.698530	0.698530	0	1	0	0	CorrectCommission	0.286364	0.649913	1
379.265411	0.795478	city	1	1	0.649339	0.649339	0	1	0	0	CorrectCommission	0.153512	0.651855	1
380.061096	0.795867	mountain	6	0	0.000000	0.560890	1	0	0	0	CorrectOmission	0.944453	0.655598	1
380.856934	0.795806	city	5	1	0.556254	0.556254	0	1	0	0	CorrectCommission	0.985913	0.660803	1
381.652710	0.795763	city	6	1	0.758501	0.758501	0	1	0	0	CorrectCommission	0.822653	0.667094	1
382.448486	0.795791	city	2	1	0.613718	0.613718	0	1	0	0	CorrectCommission	0.472046	0.674207	1
383.244293	0.795823	mountain	2	0	0.000000	0.709009	1	0	0	0	CorrectOmission	0.380076	0.682024	1
384.040100	0.795796	city	8	1	0.767356	0.767356	0	1	0	0	CorrectCommission	0.901833	0.690607	1
384.835907	0.795820	city	4	1	0.511741	0.511741	0	1	0	0	CorrectCommission	1.383962	0.700152	1
385.631714	0.795773	city	6	1	0.598893	0.598893	0	1	0	0	CorrectCommission	0.604622	0.710991	1
386.427521	0.795853	city	4	1	0.698772	0.698772	0	1	0	0	CorrectCommission	0.288533	0.723519	1
387.223297	0.795700	city	10	1	0.649270	0.649270	0	1	0	0	CorrectCommission	0.154133	0.738074	1
388.019073	0.795857	city	7	1	0.703640	0.703640	0	1	0	0	CorrectCommission	0.332060	0.754868	0
388.814880	0.795764	city	9	1	0.847533	0.847533	0	1	0	0	CorrectCommission	1.618808	0.773864	0
389.610840	0.796148	city	1	1	0.798055	0.798055	0	1	0	0	CorrectCommission	1.176352	0.794744	0
390.406647	0.795443	mountain	7	0	0.000000	0.657196	1	0	0	0	CorrectOmission	0.083253	0.816956	0
391.202271	0.795800	city	9	1	0.549423	0.549423	0	1	0	0	CorrectCommission	1.047002	0.839762	0
391.998230	0.796139	city	5	1	0.599198	0.599198	0	1	0	0	CorrectCommission	0.601892	0.862165	0
392.794037	0.795473	city	2	1	0.599260	0.599260	0	1	0	0	CorrectCommission	0.601336	0.883149	0
393.589722	0.795872	mountain	6	0	0.000000	0.566756	1	0	0	0	CorrectOmission	0.892002	0.901680	0
394.385529	0.795767	city	10	1	0.513727	0.513727	0	1	0	0	CorrectCommission	1.366209	0.916849	0
395.181305	0.795801	city	1	1	0.452214	0.452214	0	1	0	0	CorrectCommission	1.916279	0.927960	0
395.977234	0.796058	city	8	1	0.549084	0.549084	0	1	0	0	CorrectCommission	1.050033	0.934620	0
396.773041	0.795550	city	7	1	0.649209	0.649209	0	1	0	0	CorrectCommission	0.154679	0.936776	0
397.568756	0.795832	city	3	1	0.798090	0.798090	0	1	0	0	CorrectCommission	1.176671	0.934651	0
398.364532	0.795766	city	2	1	0.798162	0.798162	0	1	0	0	CorrectCommission	1.177316	0.928631	0
399.160339	0.795811	city	3	1	0.798197	0.798197	0	1	0	0	CorrectCommission	1.177629	0.919302	0
399.956268	0.796052	city	1	1	0.698649	0.698649	0	1	0	0	CorrectCommission	0.287433	0.907278	0
400.752197	0.795837	city	10	1	0.797515	0.797515	0	1	0	0	CorrectCommission	1.171531	0.893186	0
401.547882	0.795526	city	9	1	0.549224	0.549224	0	1	0	0	CorrectCommission	1.048776	0.877484	0
402.343689	0.796098	city	8	1	0.651394	0.651394	0	1	0	0	CorrectCommission	0.135136	0.860492	0
403.139587	0.795692	city	10	1	0.797871	0.797871	0	1	0	0	CorrectCommission	1.174713	0.842528	0
403.935242	0.795624	city	4	1	0.798706	0.798706	0	1	0	0	CorrectCommission	1.182181	0.823748	0
404.730957	0.795785	city	8	1	0.798599	0.798599	0	1	0	0	CorrectCommission	1.181220	0.804334	0
405.526855	0.796045	city	7	1	0.660722	0.660722	0	1	0	0	CorrectCommission	0.051725	0.784581	0
406.322693	0.795598	city	6	1	0.748704	0.748704	0	1	0	0	CorrectCommission	0.735042	0.764939	0
407.118347	0.795741	city	5	1	0.748207	0.748207	0	1	0	0	CorrectCommission	0.730601	0.746024	1
407.914276	0.796119	city	6	1	0.866533	0.866533	0	1	0	0	CorrectCommission	1.788708	0.728755	1
408.710114	0.795514	mountain	4	1	0.651027	0.651027	0	0	1	0	CommissionError	0.138418	0.714211	1
409.505737	0.795761	city	3	1	0.698795	0.698795	0	1	0	0	CorrectCommission	0.288735	0.703712	1
410.301697	0.796126	city	1	1	0.755103	0.755103	0	1	0	0	CorrectCommission	0.792264	0.698538	1
411.097473	0.795458	city	4	1	0.798397	0.798397	0	1	0	0	CorrectCommission	1.179418	0.699842	1
411.893127	0.795834	city	10	1	0.648929	0.648929	0	1	0	0	CorrectCommission	0.157182	0.708468	1
412.688934	0.795790	city	7	1	0.657987	0.657987	0	1	0	0	CorrectCommission	0.076179	0.724839	1
413.484894	0.796099	city	4	1	0.648844	0.648844	0	1	0	0	CorrectCommission	0.157939	0.748758	1
414.280701	0.795545	city	2	1	0.549120	0.549120	0	1	0	0	CorrectCommission	1.049705	0.779374	0
415.076355	0.795736	city	1	1	0.598898	0.598898	0	1	0	0	CorrectCommission	0.604573	0.815075	0
415.872131	0.795838	mountain	4	0	0.000000	0.563888	1	0	0	0	CorrectOmission	0.917651	0.853706	0
416.667969	0.795843	mountain	10	1	0.551005	0.551005	0	0	1	0	CommissionError	1.032850	0.892625	0
417.463776	0.795772	mountain	3	1	0.667168	0.667168	0	0	1	0	CommissionError	0.005916	0.928997	0
418.259552	0.795740	mountain	6	1	0.897480	0.897480	0	0	1	0	CommissionError	2.065451	0.960018	0
419.055359	0.795899	city	10	0	0.000000	0.845151	0	0	0	1	OmissionError	1.597507	0.983076	0
419.851196	0.795788	city	1	1	0.748897	0.748897	0	1	0	0	CorrectCommission	0.736766	0.996196	0
420.646973	0.795771	city	8	1	0.847433	0.847433	0	1	0	0	CorrectCommission	1.617909	0.998095	0
421.442749	0.795793	city	3	1	0.798165	0.798165	0	1	0	0	CorrectCommission	1.177335	0.988243	0
422.238556	0.795810	city	5	1	0.816880	0.816880	0	1	0	0	CorrectCommission	1.344697	0.967015	0
423.034393	0.795855	city	10	1	0.797862	0.797862	0	1	0	0	CorrectCommission	1.174629	0.935603	0
423.830231	0.795801	city	2	1	0.847720	0.847720	0	1	0	0	CorrectCommission	1.620476	0.895841	0
424.626007	0.795754	city	1	1	0.747978	0.747978	0	1	0	0	CorrectCommission	0.728553	0.850056	0
425.421906	0.796076	city	9	1	0.651682	0.651682	0	1	0	0	CorrectCommission	0.132559	0.800838	0
426.217712	0.795495	city	7	1	0.699160	0.699160	0	1	0	0	CorrectCommission	0.292001	0.750826	0
427.013367	0.795851	city	2	1	0.648634	0.648634	0	1	0	0	CorrectCommission	0.159821	0.702450	1
427.809204	0.795810	city	4	1	0.566316	0.566316	0	1	0	0	CorrectCommission	0.895932	0.657837	1
428.604980	0.795744	city	10	1	0.549050	0.549050	0	1	0	0	CorrectCommission	1.050336	0.618652	1
429.400787	0.795879	city	2	1	0.552655	0.552655	0	1	0	0	CorrectCommission	1.018100	0.586204	1
430.196594	0.795718	mountain	10	1	0.655813	0.655813	0	0	1	0	CommissionError	0.095621	0.561260	1
430.992401	0.795874	mountain	2	0	0.000000	0.678761	1	0	0	0	CorrectOmission	0.109587	0.544239	1
431.788208	0.795792	city	3	1	0.662837	0.662837	0	1	0	0	CorrectCommission	0.032813	0.535155	1
432.584167	0.796077	city	1	1	0.649379	0.649379	0	1	0	0	CorrectCommission	0.153160	0.533732	1
433.380096	0.795795	city	8	1	0.649087	0.649087	0	1	0	0	CorrectCommission	0.155767	0.539464	1
434.175903	0.795809	city	6	1	0.764661	0.764661	0	1	0	0	CorrectCommission	0.877739	0.551743	1
434.971558	0.795515	city	9	1	0.798210	0.798210	0	1	0	0	CorrectCommission	1.177745	0.569942	1
435.767181	0.795732	mountain	2	0	0.000000	0.765700	1	0	0	0	CorrectOmission	0.887022	0.593414	1
436.562988	0.795877	city	10	1	0.698801	0.698801	0	1	0	0	CorrectCommission	0.288790	0.621635	1
437.358948	0.796062	mountain	4	0	0.000000	0.629186	1	0	0	0	CorrectOmission	0.333734	0.654094	1
438.154907	0.795825	city	5	1	0.598632	0.598632	0	1	0	0	CorrectCommission	0.606958	0.690195	1
438.950531	0.795440	city	8	1	0.648917	0.648917	0	1	0	0	CorrectCommission	0.157292	0.729263	1
439.746185	0.795901	mountain	2	0	0.000000	0.552991	1	0	0	0	CorrectOmission	1.015091	0.770478	0
440.541992	0.795703	city	3	1	0.518174	0.518174	0	1	0	0	CorrectCommission	1.326438	0.812793	0
441.337799	0.795886	city	4	1	0.751784	0.751784	0	1	0	0	CorrectCommission	0.762583	0.854947	0
442.133636	0.795792	city	7	1	0.652038	0.652038	0	1	0	0	CorrectCommission	0.129382	0.895614	0
442.929413	0.795780	city	9	1	0.601493	0.601493	0	1	0	0	CorrectCommission	0.581374	0.933402	0
443.725189	0.795772	city	4	1	0.549814	0.549814	0	1	0	0	CorrectCommission	1.043498	0.966932	0
444.520996	0.795836	city	2	1	0.997600	0.997600	0	1	0	0	CorrectCommission	2.960758	0.995021	0
445.316986	0.796113	city	5	1	0.698783	0.698783	0	1	0	0	CorrectCommission	0.288635	1.016700	0
446.112793	0.795497	city	8	1	0.801924	0.801924	0	1	0	0	CorrectCommission	1.210954	1.031511	0
446.908447	0.795809	city	2	1	0.897669	0.897669	0	1	0	0	CorrectCommission	2.067138	1.039258	0
447.704224	0.795776	city	5	1	0.811008	0.811008	0	1	0	0	CorrectCommission	1.292190	1.040094	0
448.500153	0.796097	mountain	6	0	0.000000	0.687355	1	0	0	0	CorrectOmission	0.186434	1.034489	0
449.295990	0.795541	city	5	1	0.598583	0.598583	0	1	0	0	CorrectCommission	0.607397	1.023081	0
450.091644	0.795776	city	1	1	0.616567	0.616567	0	1	0	0	CorrectCommission	0.446570	1.006520	0
450.887451	0.795816	city	6	1	0.760881	0.760881	0	1	0	0	CorrectCommission	0.843933	0.985521	0
451.683380	0.796090	city	5	1	0.961894	0.961894	0	1	0	0	CorrectCommission	2.641464	0.960692	0
452.479156	0.795449	city	9	1	0.797985	0.797985	0	1	0	0	CorrectCommission	1.175729	0.932595	0
453.274811	0.795842	city	2	1	0.605798	0.605798	0	1	0	0	CorrectCommission	0.542870	0.901923	0
454.070648	0.795817	city	3	1	0.764562	0.764562	0	1	0	0	CorrectCommission	0.876853	0.869383	0
454.866455	0.795802	city	4	1	0.750837	0.750837	0	1	0	0	CorrectCommission	0.754119	0.835736	0
455.662384	0.796085	city	7	1	0.748198	0.748198	0	1	0	0	CorrectCommission	0.730519	0.801802	0
456.458191	0.795488	city	3	1	0.653184	0.653184	0	1	0	0	CorrectCommission	0.119130	0.768450	0
457.253815	0.795766	city	7	1	0.798268	0.798268	0	1	0	0	CorrectCommission	1.178260	0.736570	1
458.049622	0.795843	city	6	1	0.748168	0.748168	0	1	0	0	CorrectCommission	0.730252	0.706975	1
458.845459	0.795864	mountain	4	0	0.000000	0.739938	1	0	0	0	CorrectOmission	0.656653	0.680442	1
459.641266	0.795754	mountain	7	1	0.748330	0.748330	0	0	1	0	CommissionError	0.731697	0.657592	1
460.437012	0.795747	city	9	1	0.748098	0.748098	0	1	0	0	CorrectCommission	0.729619	0.638909	1
461.232971	0.796155	city	3	1	0.650155	0.650155	0	1	0	0	CorrectCommission	0.146219	0.624727	1
462.028778	0.795464	city	6	1	0.748588	0.748588	0	1	0	0	CorrectCommission	0.734007	0.615125	1
462.824402	0.795791	city	2	1	0.663304	0.663304	0	1	0	0	CorrectCommission	0.028634	0.610063	1
463.620239	0.795892	city	4	1	0.698638	0.698638	0	1	0	0	CorrectCommission	0.287333	0.609469	1
464.416107	0.795805	city	2	1	0.714715	0.714715	0	1	0	0	CorrectCommission	0.431102	0.613149	1
465.211884	0.795761	city	6	1	0.748845	0.748845	0	1	0	0	CorrectCommission	0.736302	0.620970	1
466.007660	0.795791	city	9	1	0.897284	0.897284	0	1	0	0	CorrectCommission	2.063697	0.632855	1
466.803436	0.795758	city	3	1	0.648772	0.648772	0	1	0	0	CorrectCommission	0.158583	0.648755	1
467.599243	0.795890	city	8	1	0.599332	0.599332	0	1	0	0	CorrectCommission	0.600691	0.668754	1
468.395233	0.796069	city	3	1	0.599727	0.599727	0	1	0	0	CorrectCommission	0.597164	0.692769	1
469.191010	0.795499	city	10	1	0.652115	0.652115	0	1	0	0	CorrectCommission	0.128693	0.720527	1
469.986664	0.795812	mountain	10	1	0.747984	0.747984	0	0	1	0	CommissionError	0.728605	0.751513	0
470.782471	0.795788	city	5	1	0.713222	0.713222	0	1	0	0	CorrectCommission	0.417752	0.784804	0
471.578278	0.795798	city	2	1	0.658354	0.658354	0	1	0	0	CorrectCommission	0.072898	0.819134	0
472.374084	0.795833	city	10	1	0.748889	0.748889	0	1	0	0	CorrectCommission	0.736693	0.852947	0
473.169891	0.795783	city	6	1	0.897295	0.897295	0	1	0	0	CorrectCommission	2.063792	0.884453	0
473.965820	0.796070	city	4	1	0.847465	0.847465	0	1	0	0	CorrectCommission	1.618196	0.911870	0
474.761627	0.795542	city	10	1	0.698231	0.698231	0	1	0	0	CorrectCommission	0.283699	0.933659	0
475.557434	0.796087	mountain	3	0	0.000000	0.820857	1	0	0	0	CorrectOmission	1.380262	0.948646	0
476.353210	0.795464	city	2	1	0.896979	0.896979	0	1	0	0	CorrectCommission	2.060972	0.956035	0
477.148987	0.796076	city	5	1	0.608235	0.608235	0	1	0	0	CorrectCommission	0.521078	0.955560	0
477.944794	0.795564	city	3	1	0.657844	0.657844	0	1	0	0	CorrectCommission	0.077462	0.947476	0
478.740479	0.795774	city	7	1	0.847840	0.847840	0	1	0	0	CorrectCommission	1.621549	0.932440	0
479.536285	0.795864	city	1	1	0.801319	0.801319	0	1	0	0	CorrectCommission	1.205542	0.911298	0
480.332245	0.796071	city	7	1	0.819493	0.819493	0	1	0	0	CorrectCommission	1.368059	0.885196	0
481.128052	0.795511	city	2	1	0.698899	0.698899	0	1	0	0	CorrectCommission	0.289665	0.855270	0
481.923706	0.795776	city	3	1	0.751163	0.751163	0	1	0	0	CorrectCommission	0.757036	0.822595	0
482.719513	0.795838	city	8	1	0.747982	0.747982	0	1	0	0	CorrectCommission	0.728586	0.788069	0
483.515289	0.795744	city	10	1	0.649474	0.649474	0	1	0	0	CorrectCommission	0.152307	0.752397	0
484.311096	0.795872	city	7	1	0.804501	0.804501	0	1	0	0	CorrectCommission	1.234002	0.716110	1
485.106934	0.795774	mountain	7	0	0.000000	0.803685	1	0	0	0	CorrectOmission	1.226698	0.679478	1
485.902710	0.795812	city	4	1	0.713082	0.713082	0	1	0	0	CorrectCommission	0.416501	0.642685	1
486.698669	0.796091	city	2	1	0.598753	0.598753	0	1	0	0	CorrectCommission	0.605869	0.605869	1
