onset	duration	trial_type	image_type	Press	ReactionTime	ReactionTime_Interpolated	CorrectOmission	CorrectCommission	CommissionError	OmissionError	response_type	nonsmoothVarianceTimeCourse	VarianceTimeCourse	In_the_Zone
8.421610	0.795853	mountain	10	0	0.000000	1.346089	1	0	0	0	CorrectOmission	3.466861	3.466861	0
9.217415	0.795758	city	7	1	1.047444	1.047444	0	1	0	0	CorrectCommission	1.446345	3.076810	0
10.013208	0.795828	city	1	1	0.748799	0.748799	0	1	0	0	CorrectCommission	0.574172	2.699614	0
10.809027	0.795808	city	8	1	0.655682	0.655682	0	1	0	0	CorrectCommission	1.204163	2.347016	0
11.604804	0.795748	city	2	1	0.699208	0.699208	0	1	0	0	CorrectCommission	0.909682	2.028667	0
12.400589	0.795822	city	10	1	0.698341	0.698341	0	1	0	0	CorrectCommission	0.915549	1.751584	0
13.196418	0.795836	city	5	1	0.798890	0.798890	0	1	0	0	CorrectCommission	0.235273	1.519662	0
13.992225	0.795779	city	9	1	0.798560	0.798560	0	1	0	0	CorrectCommission	0.237502	1.333720	0
14.788021	0.795813	city	6	1	0.798440	0.798440	0	1	0	0	CorrectCommission	0.238320	1.191737	0
15.583803	0.795750	city	1	1	0.649404	0.649404	0	1	0	0	CorrectCommission	1.246638	1.089424	0
16.379587	0.795820	city	8	1	0.749105	0.749105	0	1	0	0	CorrectCommission	0.572097	1.020796	0
17.175409	0.795823	city	7	1	0.748088	0.748088	0	1	0	0	CorrectCommission	0.578981	0.979067	0
17.971375	0.796108	city	4	1	0.698300	0.698300	0	1	0	0	CorrectCommission	0.915824	0.957269	0
18.767191	0.795523	city	6	1	0.603815	0.603815	0	1	0	0	CorrectCommission	1.555075	0.948902	0
19.562836	0.795767	city	5	1	0.598886	0.598886	0	1	0	0	CorrectCommission	1.588425	0.948303	0
20.358614	0.795792	city	1	1	0.649644	0.649644	0	1	0	0	CorrectCommission	1.245012	0.951008	0
21.154417	0.795812	city	9	1	0.702626	0.702626	0	1	0	0	CorrectCommission	0.886557	0.953806	0
21.950384	0.796123	city	1	1	0.698467	0.698467	0	1	0	0	CorrectCommission	0.914695	0.954660	0
22.746347	0.795804	city	6	1	0.752497	0.752497	0	1	0	0	CorrectCommission	0.549153	0.952481	0
23.541985	0.795473	city	8	1	0.714728	0.714728	0	1	0	0	CorrectCommission	0.804683	0.946950	0
24.337608	0.795773	city	6	1	0.699066	0.699066	0	1	0	0	CorrectCommission	0.910642	0.938143	0
25.133570	0.796150	city	1	1	0.648591	0.648591	0	1	0	0	CorrectCommission	1.252135	0.926429	0
25.929394	0.795499	mountain	2	0	0.000000	0.643096	1	0	0	0	CorrectOmission	1.289313	0.912251	0
26.725050	0.795814	city	1	1	0.754890	0.754890	0	1	0	0	CorrectCommission	0.532962	0.896066	0
27.520859	0.795804	city	2	1	1.056281	1.056281	0	1	0	0	CorrectCommission	1.506132	0.878287	0
28.316662	0.795800	city	1	1	0.914925	0.914925	0	1	0	0	CorrectCommission	0.549775	0.859144	0
29.112476	0.795828	city	10	1	0.899282	0.899282	0	1	0	0	CorrectCommission	0.443939	0.838877	0
29.908285	0.795792	city	1	1	0.898407	0.898407	0	1	0	0	CorrectCommission	0.438024	0.817665	0
30.704042	0.795724	city	6	1	1.046812	1.046812	0	1	0	0	CorrectCommission	1.442070	0.795734	0
31.499830	0.795851	city	3	1	0.763520	0.763520	0	1	0	0	CorrectCommission	0.474570	0.773341	0
32.295654	0.795798	city	4	1	0.698651	0.698651	0	1	0	0	CorrectCommission	0.913451	0.750972	0
33.091465	0.795819	city	1	1	0.648736	0.648736	0	1	0	0	CorrectCommission	1.251158	0.729169	0
33.887272	0.795793	city	7	1	0.648661	0.648661	0	1	0	0	CorrectCommission	1.251662	0.708691	1
34.683033	0.795735	city	2	1	0.847477	0.847477	0	1	0	0	CorrectCommission	0.093447	0.690411	1
35.478817	0.795827	city	1	1	0.847767	0.847767	0	1	0	0	CorrectCommission	0.095412	0.675357	1
36.274612	0.795768	city	10	1	0.898349	0.898349	0	1	0	0	CorrectCommission	0.437632	0.664552	1
37.070454	0.795915	city	9	1	0.897443	0.897443	0	1	0	0	CorrectCommission	0.431498	0.658953	1
37.866306	0.795788	mountain	5	0	0.000000	0.758989	1	0	0	0	CorrectOmission	0.505227	0.659395	1
38.662090	0.795780	city	10	1	0.665340	0.665340	0	1	0	0	CorrectCommission	1.138822	0.666518	1
39.457886	0.795810	city	7	1	0.798846	0.798846	0	1	0	0	CorrectCommission	0.235567	0.680711	1
40.253685	0.795790	city	1	1	0.649249	0.649249	0	1	0	0	CorrectCommission	1.247683	0.702035	1
41.049469	0.795779	city	8	1	0.748339	0.748339	0	1	0	0	CorrectCommission	0.577278	0.730073	0
41.845268	0.795815	city	10	1	0.749370	0.749370	0	1	0	0	CorrectCommission	0.570306	0.763993	0
42.641098	0.795848	city	2	1	0.897353	0.897353	0	1	0	0	CorrectCommission	0.430888	0.802451	0
43.437038	0.796033	city	1	1	0.848144	0.848144	0	1	0	0	CorrectCommission	0.097962	0.843598	0
44.232811	0.795515	city	3	1	0.897566	0.897566	0	1	0	0	CorrectCommission	0.432332	0.885222	0
45.028481	0.795822	city	4	1	0.707738	0.707738	0	1	0	0	CorrectCommission	0.851973	0.924833	0
45.824265	0.795746	city	8	1	0.607605	0.607605	0	1	0	0	CorrectCommission	1.529430	0.959991	0
46.620087	0.795896	city	7	1	0.599444	0.599444	0	1	0	0	CorrectCommission	1.584647	0.988517	0
47.415932	0.795798	mountain	2	1	0.501538	0.501538	0	0	1	0	CommissionError	2.247040	1.008770	0
48.211861	0.796058	city	7	1	0.648804	0.648804	0	1	0	0	CorrectCommission	1.250697	1.019730	0
49.007607	0.795435	city	5	1	0.598607	0.598607	0	1	0	0	CorrectCommission	1.590312	1.021272	0
49.803253	0.795857	city	7	1	0.798231	0.798231	0	1	0	0	CorrectCommission	0.239728	1.013982	0
50.599068	0.795769	mountain	7	0	0.000000	0.722286	1	0	0	0	CorrectOmission	0.753544	0.999161	0
51.395016	0.796130	city	8	1	0.599460	0.599460	0	1	0	0	CorrectCommission	1.584539	0.978494	0
52.190861	0.795559	city	7	1	0.658442	0.658442	0	1	0	0	CorrectCommission	1.185492	0.953882	0
52.986515	0.795749	city	2	1	0.797999	0.797999	0	1	0	0	CorrectCommission	0.241299	0.927255	0
53.782269	0.795762	city	5	1	0.809772	0.809772	0	1	0	0	CorrectCommission	0.161647	0.900294	0
54.578083	0.795864	city	6	1	1.103693	1.103693	0	1	0	0	CorrectCommission	1.826909	0.874249	0
55.373920	0.795815	city	8	1	0.897798	0.897798	0	1	0	0	CorrectCommission	0.433898	0.849840	0
56.169739	0.795816	city	2	1	0.748569	0.748569	0	1	0	0	CorrectCommission	0.575725	0.827429	0
56.965500	0.795705	city	7	1	0.748683	0.748683	0	1	0	0	CorrectCommission	0.574954	0.806996	0
57.761421	0.796142	city	5	1	0.598984	0.598984	0	1	0	0	CorrectCommission	1.587761	0.788263	0
58.557240	0.795489	city	7	1	0.714697	0.714697	0	1	0	0	CorrectCommission	0.804889	0.770847	0
59.353043	0.796117	city	6	1	0.847534	0.847534	0	1	0	0	CorrectCommission	0.093833	0.754478	0
60.148830	0.795459	city	7	1	0.799295	0.799295	0	1	0	0	CorrectCommission	0.232534	0.739067	0
60.944500	0.795884	city	2	1	0.649771	0.649771	0	1	0	0	CorrectCommission	1.244153	0.724738	0
61.740334	0.795782	mountain	9	0	0.000000	0.591560	1	0	0	0	CorrectOmission	1.637987	0.711812	1
62.536137	0.795829	city	2	1	0.650303	0.650303	0	1	0	0	CorrectCommission	1.240557	0.700802	1
63.331902	0.795700	city	10	1	0.851641	0.851641	0	1	0	0	CorrectCommission	0.121619	0.692252	1
64.127846	0.796179	city	9	1	0.858170	0.858170	0	1	0	0	CorrectCommission	0.165791	0.686640	1
64.923660	0.795453	city	4	1	0.847550	0.847550	0	1	0	0	CorrectCommission	0.093941	0.684073	1
65.719284	0.795805	city	2	1	0.802634	0.802634	0	1	0	0	CorrectCommission	0.209941	0.684309	1
66.515114	0.795851	mountain	8	1	0.897412	0.897412	0	0	1	0	CommissionError	0.431288	0.686660	1
67.310944	0.795807	mountain	2	0	0.000000	0.768198	1	0	0	0	CorrectOmission	0.442922	0.690094	1
68.106735	0.795774	city	6	1	0.606356	0.606356	0	1	0	0	CorrectCommission	1.537880	0.693312	1
68.902542	0.795836	city	7	1	0.603250	0.603250	0	1	0	0	CorrectCommission	1.558895	0.694936	1
69.698341	0.795770	mountain	8	0	0.000000	0.704575	1	0	0	0	CorrectOmission	0.873372	0.693803	1
70.494102	0.795757	city	7	1	0.798126	0.798126	0	1	0	0	CorrectCommission	0.240439	0.689117	1
71.289879	0.795785	mountain	8	0	0.000000	0.771700	1	0	0	0	CorrectOmission	0.419228	0.680611	1
72.085709	0.795882	city	10	1	0.698924	0.698924	0	1	0	0	CorrectCommission	0.911606	0.668493	1
72.881538	0.795771	mountain	9	0	0.000000	0.653423	1	0	0	0	CorrectOmission	1.219443	0.653564	1
73.677345	0.795847	city	10	1	0.698429	0.698429	0	1	0	0	CorrectCommission	0.914953	0.637085	1
74.473152	0.795762	city	4	1	0.897170	0.897170	0	1	0	0	CorrectCommission	0.429650	0.620629	1
75.268944	0.795826	city	10	1	0.755003	0.755003	0	1	0	0	CorrectCommission	0.532198	0.605823	1
76.064743	0.795774	city	7	1	0.847778	0.847778	0	1	0	0	CorrectCommission	0.095486	0.594131	1
76.860527	0.795799	city	1	1	0.847650	0.847650	0	1	0	0	CorrectCommission	0.094618	0.586673	1
77.656357	0.795854	city	3	1	0.912970	0.912970	0	1	0	0	CorrectCommission	0.536545	0.583997	1
78.452141	0.795714	city	8	1	0.798091	0.798091	0	1	0	0	CorrectCommission	0.240676	0.585954	1
79.247925	0.795858	city	3	1	0.666947	0.666947	0	1	0	0	CorrectCommission	1.127949	0.591744	1
80.043724	0.795740	city	10	1	0.798898	0.798898	0	1	0	0	CorrectCommission	0.235217	0.599924	1
80.839523	0.795855	city	7	1	0.798884	0.798884	0	1	0	0	CorrectCommission	0.235312	0.608718	1
81.635368	0.795839	city	8	1	0.698742	0.698742	0	1	0	0	CorrectCommission	0.912835	0.616120	1
82.431190	0.795811	city	7	1	0.701082	0.701082	0	1	0	0	CorrectCommission	0.897004	0.620123	1
83.227127	0.796065	mountain	7	1	0.797896	0.797896	0	0	1	0	CommissionError	0.241998	0.619090	1
84.022934	0.795536	mountain	1	0	0.000000	0.660901	1	0	0	0	CorrectOmission	1.168854	0.611951	1
84.818573	0.795753	city	1	1	0.559123	0.559123	0	1	0	0	CorrectCommission	1.857445	0.598326	1
85.614334	0.795767	mountain	8	0	0.000000	0.761588	1	0	0	0	CorrectOmission	0.487646	0.578599	1
86.410156	0.795874	city	3	1	0.948192	0.948192	0	1	0	0	CorrectCommission	0.774850	0.554002	1
87.205986	0.795792	city	1	1	0.798834	0.798834	0	1	0	0	CorrectCommission	0.235649	0.526367	1
88.001801	0.795832	city	4	1	0.862334	0.862334	0	1	0	0	CorrectCommission	0.193968	0.498017	1
88.797585	0.795739	city	5	1	0.747951	0.747951	0	1	0	0	CorrectCommission	0.579903	0.471395	1
89.593330	0.795753	city	7	1	0.854102	0.854102	0	1	0	0	CorrectCommission	0.138272	0.448779	1
90.389122	0.795830	city	8	1	0.848040	0.848040	0	1	0	0	CorrectCommission	0.097259	0.432081	1
91.184959	0.795844	city	4	1	0.858526	0.858526	0	1	0	0	CorrectCommission	0.168203	0.422602	1
91.980797	0.795835	city	6	1	0.798095	0.798095	0	1	0	0	CorrectCommission	0.240652	0.420928	1
92.776573	0.795707	city	5	1	0.806748	0.806748	0	1	0	0	CorrectCommission	0.182111	0.426849	1
93.572357	0.795862	city	7	1	0.798976	0.798976	0	1	0	0	CorrectCommission	0.234690	0.439453	1
94.368164	0.795747	city	9	1	0.797862	0.797862	0	1	0	0	CorrectCommission	0.242227	0.457225	1
95.163925	0.795782	city	1	1	0.798396	0.798396	0	1	0	0	CorrectCommission	0.238616	0.478233	1
95.959747	0.795867	city	10	1	0.947368	0.947368	0	1	0	0	CorrectCommission	0.769275	0.500362	1
96.755585	0.795801	city	7	1	1.046510	1.046510	0	1	0	0	CorrectCommission	1.440027	0.521491	1
97.551407	0.795841	city	1	1	0.798216	0.798216	0	1	0	0	CorrectCommission	0.239830	0.539763	1
98.347214	0.795778	mountain	8	0	0.000000	0.711488	1	0	0	0	CorrectOmission	0.826600	0.553786	1
99.143005	0.795804	city	5	1	0.705334	0.705334	0	1	0	0	CorrectCommission	0.868237	0.562555	1
99.938812	0.795814	city	10	1	0.698763	0.698763	0	1	0	0	CorrectCommission	0.912695	0.565625	1
100.734589	0.795736	city	2	1	0.847574	0.847574	0	1	0	0	CorrectCommission	0.094108	0.563071	1
101.530525	0.796134	city	10	1	0.847676	0.847676	0	1	0	0	CorrectCommission	0.094793	0.555456	1
102.326340	0.795495	city	8	1	0.748863	0.748863	0	1	0	0	CorrectCommission	0.573736	0.543649	1
103.122147	0.796123	city	10	1	0.613324	0.613324	0	1	0	0	CorrectCommission	1.490743	0.528821	1
103.917923	0.795428	city	6	1	0.698049	0.698049	0	1	0	0	CorrectCommission	0.917527	0.512261	1
104.713554	0.795841	city	7	1	0.849116	0.849116	0	1	0	0	CorrectCommission	0.104536	0.495350	1
105.509407	0.795862	city	9	1	0.847913	0.847913	0	1	0	0	CorrectCommission	0.096399	0.479381	1
106.305367	0.796058	city	10	1	0.798416	0.798416	0	1	0	0	CorrectCommission	0.238476	0.465390	1
107.101151	0.795502	city	3	1	0.748957	0.748957	0	1	0	0	CorrectCommission	0.573101	0.454085	1
107.896957	0.796122	city	1	1	0.811450	0.811450	0	1	0	0	CorrectCommission	0.150293	0.445771	1
108.692741	0.795436	city	7	1	0.897116	0.897116	0	1	0	0	CorrectCommission	0.429283	0.440340	1
109.488403	0.795895	city	1	1	0.797847	0.797847	0	1	0	0	CorrectCommission	0.242329	0.437259	1
110.284241	0.795770	city	3	1	0.897926	0.897926	0	1	0	0	CorrectCommission	0.434769	0.435690	1
111.080017	0.795790	city	4	1	0.849029	0.849029	0	1	0	0	CorrectCommission	0.103950	0.434590	1
111.875824	0.795823	mountain	3	0	0.000000	0.773188	1	0	0	0	CorrectOmission	0.409161	0.432895	1
112.671600	0.795736	city	5	1	0.698599	0.698599	0	1	0	0	CorrectCommission	0.913805	0.429653	1
113.467369	0.795790	city	1	1	0.653457	0.653457	0	1	0	0	CorrectCommission	1.219218	0.424185	1
114.263161	0.795800	city	3	1	0.798308	0.798308	0	1	0	0	CorrectCommission	0.239209	0.416155	1
115.059013	0.795910	city	7	1	0.752002	0.752002	0	1	0	0	CorrectCommission	0.552499	0.405737	1
115.854866	0.795791	city	9	1	0.810173	0.810173	0	1	0	0	CorrectCommission	0.158938	0.393446	1
116.650612	0.795705	city	8	1	0.947061	0.947061	0	1	0	0	CorrectCommission	0.767198	0.380136	1
117.446533	0.796130	city	6	1	0.848148	0.848148	0	1	0	0	CorrectCommission	0.097986	0.366798	1
118.242378	0.795565	city	3	1	0.809085	0.809085	0	1	0	0	CorrectCommission	0.166296	0.354597	1
119.038063	0.795802	mountain	4	0	0.000000	0.829878	1	0	0	0	CorrectOmission	0.025617	0.344591	1
119.833839	0.795747	city	3	1	0.847770	0.847770	0	1	0	0	CorrectCommission	0.095431	0.337705	1
120.629601	0.795774	city	9	1	0.800003	0.800003	0	1	0	0	CorrectCommission	0.227742	0.334663	1
121.425415	0.795864	mountain	10	1	0.754225	0.754225	0	0	1	0	CommissionError	0.537462	0.336032	1
122.221252	0.795814	city	6	1	0.798321	0.798321	0	1	0	0	CorrectCommission	0.239123	0.342237	1
123.017044	0.795756	city	3	1	0.906500	0.906500	0	1	0	0	CorrectCommission	0.492774	0.353590	1
123.812828	0.795818	city	5	1	0.798461	0.798461	0	1	0	0	CorrectCommission	0.238175	0.370322	1
124.608772	0.796075	city	3	1	0.899961	0.899961	0	1	0	0	CorrectCommission	0.448533	0.392569	1
125.404587	0.795548	city	5	1	0.897057	0.897057	0	1	0	0	CorrectCommission	0.428888	0.420320	1
126.200249	0.795771	city	9	1	0.897787	0.897787	0	1	0	0	CorrectCommission	0.433828	0.453374	1
126.996040	0.795812	mountain	6	0	0.000000	0.864524	1	0	0	0	CorrectOmission	0.208782	0.491264	1
127.792000	0.796105	city	1	1	0.847634	0.847634	0	1	0	0	CorrectCommission	0.094508	0.533147	1
128.587769	0.795443	city	6	1	0.897482	0.897482	0	1	0	0	CorrectCommission	0.431762	0.577771	1
129.383438	0.795879	city	8	1	0.797859	0.797859	0	1	0	0	CorrectCommission	0.242250	0.623496	1
130.179260	0.795794	city	5	1	0.748627	0.748627	0	1	0	0	CorrectCommission	0.575333	0.668414	1
130.975067	0.795801	city	6	1	1.009111	1.009111	0	1	0	0	CorrectCommission	1.187004	0.710448	1
131.770859	0.795774	mountain	10	1	0.997026	0.997026	0	0	1	0	CommissionError	1.105239	0.747600	0
132.566803	0.796130	city	8	0	0.000000	0.755028	0	0	0	1	OmissionError	0.532024	0.778142	0
133.362625	0.795505	city	4	1	0.549936	0.549936	0	1	0	0	CorrectCommission	1.919598	0.800814	0
134.158264	0.795765	city	1	1	0.648568	0.648568	0	1	0	0	CorrectCommission	1.252295	0.814807	0
134.954041	0.795806	city	5	1	0.947734	0.947734	0	1	0	0	CorrectCommission	0.771749	0.819991	0
135.749817	0.795753	city	7	1	0.953974	0.953974	0	1	0	0	CorrectCommission	0.813968	0.816762	0
136.545639	0.795881	city	1	1	0.999564	0.999564	0	1	0	0	CorrectCommission	1.122408	0.805936	0
137.341492	0.795824	city	10	1	0.953829	0.953829	0	1	0	0	CorrectCommission	0.812987	0.788613	0
138.137436	0.796048	city	3	1	0.847860	0.847860	0	1	0	0	CorrectCommission	0.096038	0.766067	0
138.933228	0.795538	city	9	1	0.708323	0.708323	0	1	0	0	CorrectCommission	0.848017	0.739642	0
139.728897	0.795819	city	1	1	0.748893	0.748893	0	1	0	0	CorrectCommission	0.573534	0.710619	1
140.524841	0.796053	city	6	1	0.812523	0.812523	0	1	0	0	CorrectCommission	0.143034	0.680318	1
141.320633	0.795552	city	8	1	0.706767	0.706767	0	1	0	0	CorrectCommission	0.858540	0.650130	1
142.116272	0.795700	city	3	1	0.601044	0.601044	0	1	0	0	CorrectCommission	1.573823	0.621507	1
142.912048	0.795866	city	1	1	0.649736	0.649736	0	1	0	0	CorrectCommission	1.244392	0.596048	1
143.707886	0.795802	city	8	1	0.800608	0.800608	0	1	0	0	CorrectCommission	0.223646	0.575462	1
144.503830	0.796107	city	2	1	0.847604	0.847604	0	1	0	0	CorrectCommission	0.094309	0.561465	1
145.299637	0.795500	city	5	1	0.897976	0.897976	0	1	0	0	CorrectCommission	0.435108	0.555518	1
146.095261	0.795756	city	3	1	0.847615	0.847615	0	1	0	0	CorrectCommission	0.094382	0.558573	1
146.891083	0.795871	city	8	1	0.815981	0.815981	0	1	0	0	CorrectCommission	0.119639	0.570942	1
147.686874	0.795718	city	3	1	0.810064	0.810064	0	1	0	0	CorrectCommission	0.159672	0.592065	1
148.482651	0.795843	mountain	8	0	0.000000	0.809912	1	0	0	0	CorrectOmission	0.160699	0.620440	1
149.278458	0.795771	city	4	1	0.798251	0.798251	0	1	0	0	CorrectCommission	0.239594	0.653727	1
150.074280	0.795866	city	6	1	0.757806	0.757806	0	1	0	0	CorrectCommission	0.513233	0.688970	1
150.870117	0.795811	city	9	1	0.699957	0.699957	0	1	0	0	CorrectCommission	0.904616	0.722869	0
151.665878	0.795716	city	8	1	0.649478	0.649478	0	1	0	0	CorrectCommission	1.246139	0.752213	0
152.461685	0.795884	city	7	1	0.599766	0.599766	0	1	0	0	CorrectCommission	1.582472	0.774298	0
153.257538	0.795820	city	1	1	0.598868	0.598868	0	1	0	0	CorrectCommission	1.588546	0.787217	0
154.053314	0.795727	city	3	1	0.549366	0.549366	0	1	0	0	CorrectCommission	1.923453	0.790062	0
154.849075	0.795813	city	8	1	0.698844	0.698844	0	1	0	0	CorrectCommission	0.912144	0.782977	0
155.644897	0.795820	city	10	1	0.763178	0.763178	0	1	0	0	CorrectCommission	0.476889	0.767102	0
156.440720	0.795837	city	9	1	0.797952	0.797952	0	1	0	0	CorrectCommission	0.241620	0.744240	0
157.236526	0.795781	city	6	1	0.848240	0.848240	0	1	0	0	CorrectCommission	0.098610	0.716599	1
158.032288	0.795733	city	3	1	0.748718	0.748718	0	1	0	0	CorrectCommission	0.574718	0.686485	1
158.828079	0.795845	city	9	1	0.763669	0.763669	0	1	0	0	CorrectCommission	0.473567	0.655978	1
159.623917	0.795820	city	6	1	0.699468	0.699468	0	1	0	0	CorrectCommission	0.907923	0.626777	1
160.419724	0.795809	city	2	1	0.698519	0.698519	0	1	0	0	CorrectCommission	0.914344	0.600129	1
161.215530	0.795799	mountain	1	1	0.847738	0.847738	0	0	1	0	CommissionError	0.095211	0.576828	1
162.011322	0.795777	city	2	1	0.748435	0.748435	0	1	0	0	CorrectCommission	0.576628	0.557309	1
162.807098	0.795799	city	8	1	0.705867	0.705867	0	1	0	0	CorrectCommission	0.864630	0.541679	1
163.602890	0.795763	city	2	1	0.898673	0.898673	0	1	0	0	CorrectCommission	0.439822	0.529899	1
164.398682	0.795816	city	3	1	0.897907	0.897907	0	1	0	0	CorrectCommission	0.434635	0.521895	1
165.194473	0.795790	city	5	1	0.809081	0.809081	0	1	0	0	CorrectCommission	0.166325	0.517596	1
165.990295	0.795836	city	3	1	0.898055	0.898055	0	1	0	0	CorrectCommission	0.435641	0.517008	1
166.786087	0.795760	city	7	1	0.798909	0.798909	0	1	0	0	CorrectCommission	0.235145	0.520205	1
167.581909	0.795893	city	1	1	0.707623	0.707623	0	1	0	0	CorrectCommission	0.852748	0.527325	1
168.377731	0.795749	mountain	2	0	0.000000	0.722180	1	0	0	0	CorrectOmission	0.754263	0.538447	1
169.173492	0.795757	city	4	1	0.762446	0.762446	0	1	0	0	CorrectCommission	0.481837	0.553693	1
169.969299	0.795879	city	3	1	0.748290	0.748290	0	1	0	0	CorrectCommission	0.577614	0.572977	1
170.765289	0.796091	city	4	1	0.804832	0.804832	0	1	0	0	CorrectCommission	0.195074	0.596042	1
171.561096	0.795512	city	3	1	0.798299	0.798299	0	1	0	0	CorrectCommission	0.239270	0.622386	1
172.356766	0.795832	city	7	1	0.748044	0.748044	0	1	0	0	CorrectCommission	0.579274	0.651273	1
173.152527	0.795701	city	3	1	0.951050	0.951050	0	1	0	0	CorrectCommission	0.794186	0.681719	1
173.948318	0.795888	mountain	7	0	0.000000	0.938052	1	0	0	0	CorrectOmission	0.706244	0.712556	1
174.744293	0.796047	city	3	1	0.904845	0.904845	0	1	0	0	CorrectCommission	0.481580	0.742529	0
175.540085	0.795534	city	5	1	1.047226	1.047226	0	1	0	0	CorrectCommission	1.444874	0.770334	0
176.335739	0.795784	city	7	1	0.954192	0.954192	0	1	0	0	CorrectCommission	0.815439	0.794705	0
177.131531	0.795777	city	4	1	0.947746	0.947746	0	1	0	0	CorrectCommission	0.771833	0.814536	0
177.927322	0.795835	city	1	1	0.665517	0.665517	0	1	0	0	CorrectCommission	1.137621	0.828897	0
178.723160	0.795811	city	8	1	0.649675	0.649675	0	1	0	0	CorrectCommission	1.244806	0.837116	0
179.519089	0.796062	city	4	1	0.698406	0.698406	0	1	0	0	CorrectCommission	0.915109	0.838713	0
180.314880	0.795534	mountain	6	0	0.000000	0.739613	1	0	0	0	CorrectOmission	0.636318	0.833495	0
181.110565	0.795813	city	4	1	0.749122	0.749122	0	1	0	0	CorrectCommission	0.571981	0.821552	0
181.906357	0.795767	city	6	1	0.702761	0.702761	0	1	0	0	CorrectCommission	0.885646	0.803242	0
182.702164	0.795857	city	1	1	0.698356	0.698356	0	1	0	0	CorrectCommission	0.915445	0.779230	0
183.497986	0.795784	city	3	1	0.848221	0.848221	0	1	0	0	CorrectCommission	0.098479	0.750510	0
184.293777	0.795808	city	2	1	1.247640	1.247640	0	1	0	0	CorrectCommission	2.800798	0.718434	0
185.089569	0.795777	city	5	1	0.897663	0.897663	0	1	0	0	CorrectCommission	0.432987	0.684474	1
185.885376	0.795847	city	2	1	0.748061	0.748061	0	1	0	0	CorrectCommission	0.579163	0.650470	1
186.681198	0.795773	city	8	0	0.000000	0.804193	0	0	0	1	OmissionError	0.199398	0.618204	1
187.477127	0.796101	city	6	1	0.897272	0.897272	0	1	0	0	CorrectCommission	0.430340	0.589341	1
188.272903	0.795451	city	2	1	0.858511	0.858511	0	1	0	0	CorrectCommission	0.168103	0.565218	1
189.068527	0.795781	city	5	1	0.848845	0.848845	0	1	0	0	CorrectCommission	0.102705	0.546712	1
189.864334	0.795842	city	9	1	0.897637	0.897637	0	1	0	0	CorrectCommission	0.432812	0.534123	1
190.660141	0.795775	city	10	1	0.851375	0.851375	0	1	0	0	CorrectCommission	0.119824	0.527159	1
191.455948	0.795827	city	7	1	0.912740	0.912740	0	1	0	0	CorrectCommission	0.534991	0.525065	1
192.251785	0.795851	city	5	1	0.812122	0.812122	0	1	0	0	CorrectCommission	0.145752	0.526724	1
193.047607	0.795801	city	3	1	0.961785	0.961785	0	1	0	0	CorrectCommission	0.866810	0.530866	1
193.843414	0.795805	city	6	1	1.096622	1.096622	0	1	0	0	CorrectCommission	1.779066	0.536236	1
194.639191	0.795752	city	2	1	0.848070	0.848070	0	1	0	0	CorrectCommission	0.097457	0.541779	1
195.434982	0.795847	city	4	1	0.909197	0.909197	0	1	0	0	CorrectCommission	0.511024	0.546831	1
196.230804	0.795796	city	2	1	0.949675	0.949675	0	1	0	0	CorrectCommission	0.784881	0.551018	1
197.026581	0.795739	city	1	1	0.901295	0.901295	0	1	0	0	CorrectCommission	0.457557	0.554327	1
197.822357	0.795828	mountain	7	0	0.000000	0.902491	1	0	0	0	CorrectOmission	0.465655	0.557000	1
198.618317	0.796086	mountain	8	0	0.000000	0.914374	1	0	0	0	CorrectOmission	0.546048	0.559399	1
199.414093	0.795472	city	10	1	0.898051	0.898051	0	1	0	0	CorrectCommission	0.435610	0.561882	1
200.209900	0.796140	city	3	1	0.814629	0.814629	0	1	0	0	CorrectCommission	0.128787	0.564812	1
201.005890	0.795820	city	8	1	0.897306	0.897306	0	1	0	0	CorrectCommission	0.430574	0.568465	1
201.801544	0.795513	mountain	9	0	0.000000	0.761962	1	0	0	0	CorrectOmission	0.485110	0.572929	1
202.597214	0.795814	city	2	1	0.698946	0.698946	0	1	0	0	CorrectCommission	0.911454	0.578328	1
203.393005	0.795765	city	7	1	0.998605	0.998605	0	1	0	0	CorrectCommission	1.115924	0.584754	1
204.188812	0.795851	city	4	1	0.956832	0.956832	0	1	0	0	CorrectCommission	0.833299	0.592371	1
204.984589	0.795716	city	2	1	0.899702	0.899702	0	1	0	0	CorrectCommission	0.446786	0.601361	1
205.780396	0.795877	city	5	1	0.798537	0.798537	0	1	0	0	CorrectCommission	0.237661	0.611908	1
206.576202	0.795729	city	8	1	0.751779	0.751779	0	1	0	0	CorrectCommission	0.554005	0.624105	1
207.371979	0.795844	city	9	1	0.915785	0.915785	0	1	0	0	CorrectCommission	0.555595	0.637816	1
208.167801	0.795791	mountain	2	0	0.000000	0.934094	1	0	0	0	CorrectOmission	0.679467	0.652715	1
208.963593	0.795786	city	10	1	0.897926	0.897926	0	1	0	0	CorrectCommission	0.434770	0.668085	1
209.759384	0.795801	city	5	1	0.898501	0.898501	0	1	0	0	CorrectCommission	0.438660	0.682939	1
210.555191	0.795812	city	10	1	0.798290	0.798290	0	1	0	0	CorrectCommission	0.239333	0.696073	1
211.351013	0.795847	mountain	8	0	0.000000	0.947243	1	0	0	0	CorrectOmission	0.768424	0.706201	1
212.146851	0.795812	city	6	1	1.096397	1.096397	0	1	0	0	CorrectCommission	1.777542	0.712201	1
212.942795	0.796071	city	4	1	0.996789	0.996789	0	1	0	0	CorrectCommission	1.103635	0.713257	1
213.738571	0.795505	city	6	1	0.947028	0.947028	0	1	0	0	CorrectCommission	0.766973	0.709105	1
214.534225	0.795787	city	3	1	0.847485	0.847485	0	1	0	0	CorrectCommission	0.093505	0.700085	1
215.330017	0.795794	city	4	1	1.149777	1.149777	0	1	0	0	CorrectCommission	2.138695	0.687137	1
216.125839	0.795857	city	6	1	0.948040	0.948040	0	1	0	0	CorrectCommission	0.773818	0.671578	1
216.921661	0.795788	city	3	1	0.798156	0.798156	0	1	0	0	CorrectCommission	0.240237	0.655160	1
217.717438	0.795753	city	10	1	0.848187	0.848187	0	1	0	0	CorrectCommission	0.098254	0.639665	1
218.513199	0.795768	city	1	1	0.854571	0.854571	0	1	0	0	CorrectCommission	0.141446	0.626636	1
219.308975	0.795802	city	4	1	0.956380	0.956380	0	1	0	0	CorrectCommission	0.830243	0.617261	1
220.104782	0.795819	city	9	1	0.864440	0.864440	0	1	0	0	CorrectCommission	0.208215	0.612153	1
220.900620	0.795855	city	3	1	0.848624	0.848624	0	1	0	0	CorrectCommission	0.101211	0.611364	1
221.696426	0.795732	city	1	1	0.797915	0.797915	0	1	0	0	CorrectCommission	0.241869	0.614497	1
222.492233	0.795893	city	9	1	0.862745	0.862745	0	1	0	0	CorrectCommission	0.196746	0.620865	1
223.288025	0.795705	city	4	1	1.199381	1.199381	0	1	0	0	CorrectCommission	2.474298	0.629688	1
224.083801	0.795846	city	10	1	0.963772	0.963772	0	1	0	0	CorrectCommission	0.880257	0.640222	1
224.879654	0.795853	city	2	1	0.897715	0.897715	0	1	0	0	CorrectCommission	0.433342	0.652161	1
225.675461	0.795749	city	8	1	0.748410	0.748410	0	1	0	0	CorrectCommission	0.576799	0.665464	1
226.471252	0.795837	city	4	1	0.750363	0.750363	0	1	0	0	CorrectCommission	0.563586	0.680376	1
227.267075	0.795811	city	1	1	0.748310	0.748310	0	1	0	0	CorrectCommission	0.577474	0.697303	1
228.062881	0.795790	city	10	1	0.897990	0.897990	0	1	0	0	CorrectCommission	0.435198	0.716632	1
228.858658	0.795770	mountain	3	1	0.749228	0.749228	0	0	1	0	CommissionError	0.571264	0.738526	0
229.654434	0.795803	city	4	1	0.699030	0.699030	0	1	0	0	CorrectCommission	0.910886	0.762677	0
230.450256	0.795835	city	10	1	0.749102	0.749102	0	1	0	0	CorrectCommission	0.572119	0.788262	0
231.246078	0.795818	mountain	2	0	0.000000	0.848105	1	0	0	0	CorrectOmission	0.097698	0.813946	0
232.041885	0.795782	city	2	1	0.947054	0.947054	0	1	0	0	CorrectCommission	0.767146	0.838015	0
232.837646	0.795729	city	6	1	0.996962	0.996962	0	1	0	0	CorrectCommission	1.104807	0.858397	0
233.633438	0.795878	city	8	1	0.911939	0.911939	0	1	0	0	CorrectCommission	0.529573	0.873120	0
234.429245	0.795729	city	2	1	1.196169	1.196169	0	1	0	0	CorrectCommission	2.452567	0.880552	0
235.225006	0.795800	city	7	1	1.146344	1.146344	0	1	0	0	CorrectCommission	2.115465	0.879568	0
236.020828	0.795839	city	10	1	0.862083	0.862083	0	1	0	0	CorrectCommission	0.192268	0.869848	0
236.816818	0.796120	city	5	1	0.714369	0.714369	0	1	0	0	CorrectCommission	0.807109	0.851912	0
237.612625	0.795490	city	6	1	1.050602	1.050602	0	1	0	0	CorrectCommission	1.467711	0.826956	0
238.408279	0.795827	city	8	1	0.899724	0.899724	0	1	0	0	CorrectCommission	0.446933	0.796814	0
239.204102	0.795807	city	1	1	0.898340	0.898340	0	1	0	0	CorrectCommission	0.437565	0.763677	0
239.999893	0.795790	city	8	1	0.997533	0.997533	0	1	0	0	CorrectCommission	1.108668	0.729820	0
240.795670	0.795752	city	1	1	0.897956	0.897956	0	1	0	0	CorrectCommission	0.434972	0.697254	1
241.591431	0.795789	city	3	1	0.864046	0.864046	0	1	0	0	CorrectCommission	0.205547	0.667687	1
242.387253	0.795852	city	7	1	0.848052	0.848052	0	1	0	0	CorrectCommission	0.097339	0.642277	1
243.183228	0.796105	city	4	1	0.897574	0.897574	0	1	0	0	CorrectCommission	0.432383	0.621585	1
243.979034	0.795485	city	9	1	0.996894	0.996894	0	1	0	0	CorrectCommission	1.104346	0.605594	1
244.774673	0.795802	city	4	1	0.914310	0.914310	0	1	0	0	CorrectCommission	0.545617	0.593768	1
245.570480	0.795822	city	9	1	0.901265	0.901265	0	1	0	0	CorrectCommission	0.457355	0.585280	1
246.366333	0.795889	city	7	1	0.907074	0.907074	0	1	0	0	CorrectCommission	0.496660	0.579083	1
247.162140	0.795728	city	8	1	0.996701	0.996701	0	1	0	0	CorrectCommission	1.103040	0.574096	1
247.957870	0.795734	city	3	1	0.797852	0.797852	0	1	0	0	CorrectCommission	0.242298	0.569321	1
248.753677	0.795867	mountain	8	0	0.000000	0.731575	1	0	0	0	CorrectOmission	0.690697	0.564003	1
249.549500	0.795784	city	10	1	0.798041	0.798041	0	1	0	0	CorrectCommission	0.241013	0.557624	1
250.345291	0.795788	city	3	1	0.997419	0.997419	0	1	0	0	CorrectCommission	1.107895	0.549990	1
251.141068	0.795782	city	8	1	0.897511	0.897511	0	1	0	0	CorrectCommission	0.431957	0.541201	1
251.936874	0.795822	city	7	1	0.798726	0.798726	0	1	0	0	CorrectCommission	0.236381	0.531658	1
252.732849	0.796112	city	2	1	0.797762	0.797762	0	1	0	0	CorrectCommission	0.242906	0.522004	1
253.528625	0.795449	city	6	1	1.096387	1.096387	0	1	0	0	CorrectCommission	1.777480	0.513113	1
254.324265	0.795840	mountain	10	1	0.859689	0.859689	0	0	1	0	CommissionError	0.176073	0.505857	1
255.120071	0.795777	city	5	1	0.863999	0.863999	0	1	0	0	CorrectCommission	0.205231	0.501153	1
255.915878	0.795836	city	1	1	0.797804	0.797804	0	1	0	0	CorrectCommission	0.242622	0.499710	1
256.711700	0.795799	city	9	1	0.798432	0.798432	0	1	0	0	CorrectCommission	0.238369	0.501943	1
257.507507	0.795836	city	5	1	0.811993	0.811993	0	1	0	0	CorrectCommission	0.146624	0.507848	1
258.303284	0.795713	city	8	1	0.748182	0.748182	0	1	0	0	CorrectCommission	0.578344	0.516987	1
259.099091	0.795893	city	5	1	0.712799	0.712799	0	1	0	0	CorrectCommission	0.817733	0.528500	1
259.894958	0.795812	city	2	1	0.797780	0.797780	0	1	0	0	CorrectCommission	0.242780	0.541129	1
260.690735	0.795762	city	8	1	0.897299	0.897299	0	1	0	0	CorrectCommission	0.430525	0.553425	1
261.486633	0.796058	city	6	1	0.797651	0.797651	0	1	0	0	CorrectCommission	0.243656	0.563849	1
262.282593	0.795824	mountain	2	0	0.000000	0.675920	1	0	0	0	CorrectOmission	1.067243	0.571045	1
263.078217	0.795458	city	7	1	0.665048	0.665048	0	1	0	0	CorrectCommission	1.140795	0.574001	1
263.873901	0.795878	city	10	1	0.897979	0.897979	0	1	0	0	CorrectCommission	0.435128	0.572280	1
264.669861	0.796074	city	2	1	1.009930	1.009930	0	1	0	0	CorrectCommission	1.192544	0.566069	1
265.465668	0.795532	mountain	6	0	0.000000	0.992330	1	0	0	0	CorrectOmission	1.073470	0.556160	1
266.261353	0.795813	mountain	2	0	0.000000	0.908737	1	0	0	0	CorrectOmission	0.507911	0.543962	1
267.057129	0.795776	mountain	1	0	0.000000	0.822708	1	0	0	0	CorrectOmission	0.074130	0.531345	1
267.852936	0.795817	city	5	1	0.797800	0.797800	0	1	0	0	CorrectCommission	0.242647	0.520345	1
268.648773	0.795827	city	7	1	0.897571	0.897571	0	1	0	0	CorrectCommission	0.432364	0.512996	1
269.444550	0.795751	mountain	8	0	0.000000	0.864252	1	0	0	0	CorrectOmission	0.206945	0.511092	1
270.240356	0.795853	city	9	1	0.798357	0.798357	0	1	0	0	CorrectCommission	0.238877	0.516054	1
271.036163	0.795768	city	10	1	0.800397	0.800397	0	1	0	0	CorrectCommission	0.225073	0.528713	1
271.831940	0.795789	city	6	1	0.798038	0.798038	0	1	0	0	CorrectCommission	0.241040	0.549359	1
272.627747	0.795798	city	8	1	0.897795	0.897795	0	1	0	0	CorrectCommission	0.433878	0.577718	1
273.423553	0.795847	city	4	1	0.897796	0.897796	0	1	0	0	CorrectCommission	0.433887	0.612925	1
274.219360	0.795753	city	10	1	1.096169	1.096169	0	1	0	0	CorrectCommission	1.776001	0.653705	1
275.015106	0.795752	city	1	1	0.898444	0.898444	0	1	0	0	CorrectCommission	0.438272	0.698341	1
275.810913	0.795867	city	3	1	0.912144	0.912144	0	1	0	0	CorrectCommission	0.530960	0.744925	0
276.606720	0.795750	city	9	1	0.749703	0.749703	0	1	0	0	CorrectCommission	0.568054	0.791296	0
277.402527	0.795844	city	10	1	0.797883	0.797883	0	1	0	0	CorrectCommission	0.242085	0.835275	0
278.198486	0.796070	city	7	1	0.705235	0.705235	0	1	0	0	CorrectCommission	0.868908	0.874764	0
278.994293	0.795525	city	8	1	0.605228	0.605228	0	1	0	0	CorrectCommission	1.545512	0.907874	0
279.789917	0.795760	city	4	1	0.648588	0.648588	0	1	0	0	CorrectCommission	1.252155	0.933088	0
280.585876	0.796152	city	3	1	0.749233	0.749233	0	1	0	0	CorrectCommission	0.571236	0.949442	0
281.381683	0.795446	city	6	1	1.096460	1.096460	0	1	0	0	CorrectCommission	1.777972	0.956661	0
282.177338	0.795882	city	1	1	1.146078	1.146078	0	1	0	0	CorrectCommission	2.113669	0.955078	0
282.973175	0.795801	city	6	1	0.649597	0.649597	0	1	0	0	CorrectCommission	1.245329	0.945651	0
283.768982	0.795805	city	1	1	0.996830	0.996830	0	1	0	0	CorrectCommission	1.103911	0.929906	0
284.564789	0.795789	city	5	1	0.897266	0.897266	0	1	0	0	CorrectCommission	0.430299	0.909619	0
285.360535	0.795720	city	10	1	0.897241	0.897241	0	1	0	0	CorrectCommission	0.430134	0.886677	0
286.156342	0.795867	city	8	1	0.849421	0.849421	0	1	0	0	CorrectCommission	0.106604	0.862814	0
286.952179	0.795824	city	5	1	0.798626	0.798626	0	1	0	0	CorrectCommission	0.237056	0.839489	0
287.747986	0.795816	city	6	1	0.659518	0.659518	0	1	0	0	CorrectCommission	1.178208	0.817783	0
288.543762	0.795707	mountain	8	0	0.000000	0.862478	1	0	0	0	CorrectOmission	0.194941	0.798399	0
289.339539	0.795845	city	7	1	1.097012	1.097012	0	1	0	0	CorrectCommission	1.781707	0.781762	0
290.135376	0.795852	city	4	1	1.052626	1.052626	0	1	0	0	CorrectCommission	1.481409	0.767999	0
290.931213	0.795816	city	9	1	1.013872	1.013872	0	1	0	0	CorrectCommission	1.219213	0.757181	0
291.727020	0.795796	mountain	4	0	0.000000	0.868798	1	0	0	0	CorrectOmission	0.237698	0.749200	0
292.522797	0.795776	city	6	1	0.749021	0.749021	0	1	0	0	CorrectCommission	0.572664	0.743957	0
293.318604	0.795811	city	3	0	0.000000	0.786159	0	0	0	1	OmissionError	0.321406	0.741166	0
294.114380	0.795733	city	1	1	0.848112	0.848112	0	1	0	0	CorrectCommission	0.097744	0.740417	0
294.910187	0.795878	city	9	1	0.802781	0.802781	0	1	0	0	CorrectCommission	0.208944	0.741183	0
295.706024	0.795793	city	6	1	0.862125	0.862125	0	1	0	0	CorrectCommission	0.192554	0.742783	0
296.501801	0.795801	city	10	0	0.000000	0.665794	0	0	0	1	OmissionError	1.135752	0.744507	0
297.297577	0.795725	city	3	1	0.500101	0.500101	0	1	0	0	CorrectCommission	2.256764	0.745717	0
298.093353	0.795810	city	9	1	0.651363	0.651363	0	1	0	0	CorrectCommission	1.233386	0.745945	0
298.889191	0.795865	city	4	1	1.046542	1.046542	0	1	0	0	CorrectCommission	1.440245	0.745072	0
299.684998	0.795787	city	6	1	0.847487	0.847487	0	1	0	0	CorrectCommission	0.093516	0.743174	0
300.480957	0.796111	mountain	4	0	0.000000	0.848741	1	0	0	0	CorrectOmission	0.102001	0.740608	0
301.276764	0.795535	city	5	1	0.902986	0.902986	0	1	0	0	CorrectCommission	0.469000	0.737809	0
302.072449	0.795796	city	9	1	0.862903	0.862903	0	1	0	0	CorrectCommission	0.197812	0.735232	0
302.868256	0.795806	city	2	1	0.759352	0.759352	0	1	0	0	CorrectCommission	0.502773	0.733236	0
303.664001	0.795704	city	7	1	1.046467	1.046467	0	1	0	0	CorrectCommission	1.439740	0.732013	0
304.459778	0.795886	city	3	1	0.899894	0.899894	0	1	0	0	CorrectCommission	0.448083	0.731573	0
305.255615	0.795777	city	7	1	0.996802	0.996802	0	1	0	0	CorrectCommission	1.103725	0.731768	0
306.051422	0.795826	mountain	10	1	1.046464	1.046464	0	0	1	0	CommissionError	1.439716	0.732288	0
306.847382	0.796061	city	8	0	0.000000	0.847094	0	0	0	1	OmissionError	0.090854	0.732705	0
307.643158	0.795541	city	10	1	0.698007	0.698007	0	1	0	0	CorrectCommission	0.917806	0.732628	0
308.438843	0.795802	city	5	1	0.898520	0.898520	0	1	0	0	CorrectCommission	0.438788	0.731585	0
309.234619	0.795761	city	10	1	0.897547	0.897547	0	1	0	0	CorrectCommission	0.432203	0.729226	0
310.030396	0.795764	city	4	1	1.009086	1.009086	0	1	0	0	CorrectCommission	1.186832	0.725211	0
310.826202	0.795872	mountain	1	0	0.000000	0.913544	1	0	0	0	CorrectOmission	0.540429	0.719305	0
311.622040	0.795777	city	9	1	0.748348	0.748348	0	1	0	0	CorrectCommission	0.577218	0.711432	1
312.417847	0.795842	city	5	1	0.650929	0.650929	0	1	0	0	CorrectCommission	1.236321	0.701643	1
313.213623	0.795704	city	8	1	0.809698	0.809698	0	1	0	0	CorrectCommission	0.162150	0.690166	1
314.009399	0.795898	city	2	1	1.063495	1.063495	0	1	0	0	CorrectCommission	1.554943	0.677421	1
314.805389	0.796045	city	6	1	0.996794	0.996794	0	1	0	0	CorrectCommission	1.103670	0.663870	1
315.601166	0.795529	city	9	1	0.847315	0.847315	0	1	0	0	CorrectCommission	0.092349	0.650170	1
316.396973	0.796105	city	3	1	0.798449	0.798449	0	1	0	0	CorrectCommission	0.238259	0.637002	1
317.192780	0.795487	city	4	1	0.748776	0.748776	0	1	0	0	CorrectCommission	0.574327	0.625008	1
317.988434	0.795833	city	7	1	0.847695	0.847695	0	1	0	0	CorrectCommission	0.094920	0.614763	1
318.784393	0.796065	city	5	1	0.898546	0.898546	0	1	0	0	CorrectCommission	0.438960	0.606739	1
319.580200	0.795558	city	2	1	1.061244	1.061244	0	1	0	0	CorrectCommission	1.539713	0.601255	1
320.375854	0.795764	city	6	1	0.948003	0.948003	0	1	0	0	CorrectCommission	0.773570	0.598466	1
321.171631	0.795752	city	3	1	0.804509	0.804509	0	1	0	0	CorrectCommission	0.197256	0.598403	1
321.967407	0.795836	city	7	1	0.857190	0.857190	0	1	0	0	CorrectCommission	0.159163	0.601006	1
322.763214	0.795760	city	5	1	0.898355	0.898355	0	1	0	0	CorrectCommission	0.437666	0.606066	1
323.559021	0.795838	city	2	1	0.947114	0.947114	0	1	0	0	CorrectCommission	0.767556	0.613218	1
324.354828	0.795795	city	9	1	0.997285	0.997285	0	1	0	0	CorrectCommission	1.106989	0.622044	1
325.150787	0.796129	city	3	1	0.797775	0.797775	0	1	0	0	CorrectCommission	0.242819	0.632005	1
325.946594	0.795503	city	5	1	0.698431	0.698431	0	1	0	0	CorrectCommission	0.914941	0.642549	1
326.742249	0.795765	city	3	1	0.798144	0.798144	0	1	0	0	CorrectCommission	0.240317	0.653004	1
327.538055	0.795857	city	9	1	0.798569	0.798569	0	1	0	0	CorrectCommission	0.237441	0.662719	1
328.334015	0.796076	city	5	1	0.648633	0.648633	0	1	0	0	CorrectCommission	1.251852	0.671064	1
329.129791	0.795436	city	9	1	0.748135	0.748135	0	1	0	0	CorrectCommission	0.578658	0.677472	1
329.925415	0.795839	mountain	5	0	0.000000	0.680005	1	0	0	0	CorrectOmission	1.039606	0.681532	1
330.721222	0.795806	city	1	1	0.662729	0.662729	0	1	0	0	CorrectCommission	1.156488	0.683042	1
331.517029	0.795763	city	2	1	0.914796	0.914796	0	1	0	0	CorrectCommission	0.548904	0.681997	1
332.312805	0.795800	city	6	1	0.848125	0.848125	0	1	0	0	CorrectCommission	0.097835	0.678623	1
333.108795	0.796168	city	8	1	0.708114	0.708114	0	1	0	0	CorrectCommission	0.849430	0.673379	1
333.904633	0.795508	city	9	1	0.699021	0.699021	0	1	0	0	CorrectCommission	0.910947	0.666865	1
334.700287	0.795809	city	7	1	0.716267	0.716267	0	1	0	0	CorrectCommission	0.794268	0.659819	1
335.496063	0.795742	city	8	1	0.700582	0.700582	0	1	0	0	CorrectCommission	0.900386	0.653043	1
336.291840	0.795840	city	6	1	0.804412	0.804412	0	1	0	0	CorrectCommission	0.197914	0.647321	1
337.087646	0.795740	city	9	1	0.897364	0.897364	0	1	0	0	CorrectCommission	0.430968	0.643370	1
337.883423	0.795811	city	4	1	0.947501	0.947501	0	1	0	0	CorrectCommission	0.770171	0.641709	1
338.679260	0.795880	city	9	1	0.847766	0.847766	0	1	0	0	CorrectCommission	0.095406	0.642687	1
339.475098	0.795778	city	5	1	0.747973	0.747973	0	1	0	0	CorrectCommission	0.579761	0.646405	1
340.271027	0.796105	city	9	1	0.698960	0.698960	0	1	0	0	CorrectCommission	0.911363	0.652689	1
341.066833	0.795511	city	10	1	0.648542	0.648542	0	1	0	0	CorrectCommission	1.252466	0.661126	1
341.862518	0.795824	city	4	1	0.755329	0.755329	0	1	0	0	CorrectCommission	0.529986	0.671055	1
342.658264	0.795707	city	5	1	0.766851	0.766851	0	1	0	0	CorrectCommission	0.452039	0.681704	1
343.454041	0.795803	city	7	1	0.797993	0.797993	0	1	0	0	CorrectCommission	0.241339	0.692173	1
344.249878	0.795871	city	1	1	0.748274	0.748274	0	1	0	0	CorrectCommission	0.577722	0.701570	1
345.045715	0.795805	city	9	1	0.800156	0.800156	0	1	0	0	CorrectCommission	0.226711	0.709081	1
345.841461	0.795727	city	4	1	0.650981	0.650981	0	1	0	0	CorrectCommission	1.235970	0.714109	1
346.637238	0.795810	mountain	3	1	0.563721	0.563721	0	0	1	0	CommissionError	1.826333	0.716290	1
347.433075	0.795887	city	6	1	0.710555	0.710555	0	1	0	0	CorrectCommission	0.832916	0.715584	1
348.228912	0.795774	city	8	1	0.748457	0.748457	0	1	0	0	CorrectCommission	0.576482	0.712337	1
349.024689	0.795783	city	1	1	0.700144	0.700144	0	1	0	0	CorrectCommission	0.903347	0.707132	1
349.820496	0.795800	city	9	1	0.699286	0.699286	0	1	0	0	CorrectCommission	0.909153	0.700673	1
350.616272	0.795756	city	2	1	0.848601	0.848601	0	1	0	0	CorrectCommission	0.101054	0.693691	1
351.412079	0.795870	city	9	1	0.849701	0.849701	0	1	0	0	CorrectCommission	0.108497	0.686788	1
352.207886	0.795777	city	8	1	0.947817	0.947817	0	1	0	0	CorrectCommission	0.772307	0.680309	1
353.003693	0.795794	city	6	1	0.849645	0.849645	0	1	0	0	CorrectCommission	0.108114	0.674385	1
353.799469	0.795777	city	4	1	0.998268	0.998268	0	1	0	0	CorrectCommission	1.113639	0.668934	1
354.595245	0.795782	city	8	1	0.798389	0.798389	0	1	0	0	CorrectCommission	0.238661	0.663708	1
355.391052	0.795833	mountain	9	1	0.648959	0.648959	0	0	1	0	CommissionError	1.249646	0.658556	1
356.187042	0.796146	city	3	1	0.601314	0.601314	0	1	0	0	CorrectCommission	1.571995	0.653471	1
356.983002	0.795749	city	1	1	0.961416	0.961416	0	1	0	0	CorrectCommission	0.864315	0.648699	1
357.778656	0.795565	city	5	1	0.854528	0.854528	0	1	0	0	CorrectCommission	0.141150	0.644877	1
358.574341	0.795816	city	1	1	0.755443	0.755443	0	1	0	0	CorrectCommission	0.529218	0.642888	1
359.370148	0.795806	city	7	1	0.798664	0.798664	0	1	0	0	CorrectCommission	0.236801	0.643898	1
360.165924	0.795745	city	9	1	0.797993	0.797993	0	1	0	0	CorrectCommission	0.241339	0.649091	1
360.961731	0.795843	city	2	1	0.996830	0.996830	0	1	0	0	CorrectCommission	1.103911	0.659576	1
361.757538	0.795769	city	6	1	0.906600	0.906600	0	1	0	0	CorrectCommission	0.493451	0.676179	1
362.553314	0.795821	city	5	1	0.808066	0.808066	0	1	0	0	CorrectCommission	0.173193	0.699449	1
363.349121	0.795790	city	8	1	0.947260	0.947260	0	1	0	0	CorrectCommission	0.768541	0.729512	0
364.144897	0.795744	city	6	1	0.959181	0.959181	0	1	0	0	CorrectCommission	0.849191	0.766034	0
364.940674	0.795803	city	1	1	0.797920	0.797920	0	1	0	0	CorrectCommission	0.241835	0.808352	0
365.736481	0.795845	city	2	1	0.997075	0.997075	0	1	0	0	CorrectCommission	1.105569	0.855592	0
366.532349	0.795840	city	3	1	0.897577	0.897577	0	1	0	0	CorrectCommission	0.432403	0.906682	0
367.328156	0.795817	city	10	1	0.859345	0.859345	0	1	0	0	CorrectCommission	0.173741	0.960601	0
368.123962	0.795796	city	9	1	1.262932	1.262932	0	1	0	0	CorrectCommission	2.904257	1.016437	0
368.919708	0.795705	city	6	1	1.001739	1.001739	0	1	0	0	CorrectCommission	1.137125	1.073334	0
369.715485	0.795846	city	10	1	0.709687	0.709687	0	1	0	0	CorrectCommission	0.838787	1.130708	0
370.511353	0.795839	city	7	1	0.665778	0.665778	0	1	0	0	CorrectCommission	1.135859	1.188015	0
371.307129	0.795737	city	10	1	0.567859	0.567859	0	1	0	0	CorrectCommission	1.798337	1.244578	0
372.102936	0.795876	mountain	7	0	0.000000	0.791297	1	0	0	0	CorrectOmission	0.286642	1.299519	0
372.898712	0.795708	city	4	1	0.997423	0.997423	0	1	0	0	CorrectCommission	1.107925	1.351708	0
373.694489	0.795808	city	10	1	0.847567	0.847567	0	1	0	0	CorrectCommission	0.094059	1.399633	0
374.490448	0.796141	city	8	1	1.346097	1.346097	0	1	0	0	CorrectCommission	3.466915	1.441557	0
375.286285	0.795518	city	4	1	1.047311	1.047311	0	1	0	0	CorrectCommission	1.445445	1.475449	0
376.081940	0.795771	city	8	1	1.047438	1.047438	0	1	0	0	CorrectCommission	1.446305	1.499572	0
376.877747	0.795826	city	9	1	1.048006	1.048006	0	1	0	0	CorrectCommission	1.450151	1.512425	0
377.673553	0.795846	city	7	0	0.000000	1.122035	0	0	0	1	OmissionError	1.951004	1.513141	0
378.469391	0.795792	mountain	2	0	0.000000	1.195905	1	0	0	0	CorrectOmission	2.450776	1.501620	0
379.265198	0.795804	city	2	1	1.195994	1.195994	0	1	0	0	CorrectCommission	2.451378	1.478654	0
380.061005	0.795809	city	7	1	1.048681	1.048681	0	1	0	0	CorrectCommission	1.454719	1.445938	0
380.856934	0.796073	city	4	1	1.047250	1.047250	0	1	0	0	CorrectCommission	1.445032	1.405847	0
381.652710	0.795462	city	1	1	0.996870	0.996870	0	1	0	0	CorrectCommission	1.104187	1.361180	0
382.448334	0.795813	city	10	1	0.947818	0.947818	0	1	0	0	CorrectCommission	0.772314	1.314863	0
383.244141	0.795798	city	1	1	0.947342	0.947342	0	1	0	0	CorrectCommission	0.769098	1.269558	0
384.039917	0.795766	city	9	1	1.001567	1.001567	0	1	0	0	CorrectCommission	1.135961	1.227379	0
384.835724	0.795853	city	7	1	0.997159	0.997159	0	1	0	0	CorrectCommission	1.106138	1.189712	0
385.631561	0.795808	city	1	1	1.055920	1.055920	0	1	0	0	CorrectCommission	1.503696	1.157035	0
386.427368	0.795791	city	5	1	0.947227	0.947227	0	1	0	0	CorrectCommission	0.768319	1.129063	0
387.223145	0.795770	city	7	1	0.847884	0.847884	0	1	0	0	CorrectCommission	0.096199	1.104887	0
388.018982	0.795878	city	3	1	0.804887	0.804887	0	1	0	0	CorrectCommission	0.194701	1.083223	0
388.814819	0.795805	city	2	1	1.204886	1.204886	0	1	0	0	CorrectCommission	2.511538	1.062643	0
389.610596	0.795794	city	6	1	1.146730	1.146730	0	1	0	0	CorrectCommission	2.118078	1.041893	0
390.406403	0.795779	city	10	1	0.996969	0.996969	0	1	0	0	CorrectCommission	1.104851	1.020213	0
391.202148	0.795741	city	9	1	1.096899	1.096899	0	1	0	0	CorrectCommission	1.780941	0.997530	0
391.997955	0.795855	city	10	1	0.858015	0.858015	0	1	0	0	CorrectCommission	0.164746	0.974319	0
392.793762	0.795752	city	9	1	0.765558	0.765558	0	1	0	0	CorrectCommission	0.460785	0.951842	0
393.589539	0.795838	mountain	8	1	0.699601	0.699601	0	0	1	0	CommissionError	0.907021	0.931786	0
394.385376	0.795801	city	10	1	0.912178	0.912178	0	1	0	0	CorrectCommission	0.531193	0.916098	0
395.181152	0.795760	city	6	1	0.997359	0.997359	0	1	0	0	CorrectCommission	1.107489	0.906718	0
395.977081	0.796129	city	2	0	0.000000	0.845887	0	0	0	1	OmissionError	0.082689	0.905267	0
396.772888	0.795475	city	1	0	0.000000	0.662036	0	0	0	1	OmissionError	1.161176	0.912880	0
397.568726	0.796156	city	8	1	0.650078	0.650078	0	1	0	0	CorrectCommission	1.242077	0.929890	0
398.364502	0.795447	city	4	1	1.014287	1.014287	0	1	0	0	CorrectCommission	1.222017	0.955733	0
399.160156	0.795818	city	5	1	0.749724	0.749724	0	1	0	0	CorrectCommission	0.567909	0.988866	0
399.955963	0.795821	city	1	1	0.800702	0.800702	0	1	0	0	CorrectCommission	0.223015	1.026811	0
400.751801	0.795832	city	2	1	0.798507	0.798507	0	1	0	0	CorrectCommission	0.237861	1.066276	0
401.547577	0.795725	city	1	1	0.748868	0.748868	0	1	0	0	CorrectCommission	0.573702	1.103421	0
402.343506	0.796166	mountain	2	0	0.000000	0.914294	1	0	0	0	CorrectOmission	0.545506	1.134292	0
403.139313	0.795442	city	4	1	1.146413	1.146413	0	1	0	0	CorrectCommission	2.115933	1.155305	0
403.935120	0.796157	city	9	0	0.000000	1.296852	0	0	0	1	OmissionError	3.133747	1.163655	0
404.730957	0.795492	city	8	1	1.309867	1.309867	0	1	0	0	CorrectCommission	3.221798	1.157836	0
405.526611	0.795826	mountain	8	0	0.000000	1.129711	1	0	0	0	CorrectOmission	2.002938	1.137958	0
406.322571	0.796092	city	7	1	0.898040	0.898040	0	1	0	0	CorrectCommission	0.435541	1.105718	0
407.118530	0.795813	city	10	1	0.756507	0.756507	0	1	0	0	CorrectCommission	0.522017	1.064237	0
407.914185	0.795530	city	1	1	0.757421	0.757421	0	1	0	0	CorrectCommission	0.515832	1.017715	0
408.709991	0.796057	mountain	1	0	0.000000	0.710562	1	0	0	0	CorrectOmission	0.832862	0.970920	0
409.505737	0.795458	city	10	1	0.698048	0.698048	0	1	0	0	CorrectCommission	0.917528	0.928688	0
410.301392	0.795847	city	3	1	0.801997	0.801997	0	1	0	0	CorrectCommission	0.214250	0.895327	0
411.097229	0.795822	city	10	1	0.897877	0.897877	0	1	0	0	CorrectCommission	0.434432	0.874236	0
411.893005	0.795752	city	4	0	0.000000	0.954012	0	0	0	1	OmissionError	0.814224	0.867497	0
412.688812	0.795871	city	3	1	0.947373	0.947373	0	1	0	0	CorrectCommission	0.769306	0.875715	0
413.484650	0.795788	mountain	6	0	0.000000	0.854928	1	0	0	0	CorrectOmission	0.143858	0.898058	0
414.280426	0.795780	city	3	1	0.797903	0.797903	0	1	0	0	CorrectCommission	0.241948	0.932397	0
415.076233	0.795783	city	5	1	0.897525	0.897525	0	1	0	0	CorrectCommission	0.432056	0.975480	0
415.872040	0.795856	city	3	1	0.996846	0.996846	0	1	0	0	CorrectCommission	1.104022	1.023404	0
416.667816	0.795716	city	1	1	1.047067	1.047067	0	1	0	0	CorrectCommission	1.443796	1.072023	0
417.463776	0.796158	city	6	1	1.146238	1.146238	0	1	0	0	CorrectCommission	2.114749	1.117393	0
418.259583	0.795469	city	8	1	1.159379	1.159379	0	1	0	0	CorrectCommission	2.203655	1.156105	0
419.055206	0.795797	city	2	0	0.000000	0.982982	0	0	0	1	OmissionError	1.010220	1.185560	0
419.851013	0.795793	mountain	3	0	0.000000	0.735364	1	0	0	0	CorrectOmission	0.665065	1.204146	0
420.646820	0.795828	city	8	0	0.000000	0.534843	0	0	0	1	OmissionError	2.021710	1.211159	0
421.442627	0.795789	city	5	1	0.499737	0.499737	0	1	0	0	CorrectCommission	2.259226	1.206676	0
422.238586	0.796135	city	3	1	0.748363	0.748363	0	1	0	0	CorrectCommission	0.577122	1.191493	0
423.034393	0.795477	city	4	1	0.947122	0.947122	0	1	0	0	CorrectCommission	0.767605	1.166976	0
423.830048	0.795812	city	5	1	1.005222	1.005222	0	1	0	0	CorrectCommission	1.160691	1.134752	0
424.625854	0.795816	city	1	1	1.047514	1.047514	0	1	0	0	CorrectCommission	1.446824	1.096649	0
425.421631	0.795762	city	8	1	0.914073	0.914073	0	1	0	0	CorrectCommission	0.544010	1.054525	0
426.217468	0.795876	city	4	1	1.046567	1.046567	0	1	0	0	CorrectCommission	1.440411	1.010363	0
427.013245	0.795706	city	1	1	0.963910	0.963910	0	1	0	0	CorrectCommission	0.881192	0.966137	0
427.808990	0.795808	city	7	1	0.997044	0.997044	0	1	0	0	CorrectCommission	1.105362	0.923954	0
428.604828	0.795859	city	2	0	0.000000	0.737430	0	0	0	1	OmissionError	0.651085	0.885923	0
429.400665	0.795813	city	5	1	0.553342	0.553342	0	1	0	0	CorrectCommission	1.896557	0.854228	0
430.196472	0.795764	city	3	1	0.813051	0.813051	0	1	0	0	CorrectCommission	0.139463	0.830894	0
430.992218	0.795754	city	5	1	0.798055	0.798055	0	1	0	0	CorrectCommission	0.240921	0.817756	0
431.788055	0.795887	city	4	1	0.897323	0.897323	0	1	0	0	CorrectCommission	0.430688	0.816164	0
432.583893	0.795806	city	2	1	0.897335	0.897335	0	1	0	0	CorrectCommission	0.430771	0.826817	0
433.379669	0.795755	city	7	0	0.000000	0.913765	0	0	0	1	OmissionError	0.541930	0.849685	0
434.175446	0.795771	city	10	1	0.897388	0.897388	0	1	0	0	CorrectCommission	0.431124	0.883856	0
434.971222	0.795810	city	5	1	0.798976	0.798976	0	1	0	0	CorrectCommission	0.234688	0.927679	0
435.767059	0.795866	mountain	6	0	0.000000	0.709664	1	0	0	0	CorrectOmission	0.838939	0.978783	0
436.562897	0.795812	city	10	0	0.000000	0.639727	0	0	0	1	OmissionError	1.312108	1.034320	0
437.358826	0.796067	city	3	0	0.000000	0.599440	0	0	0	1	OmissionError	1.584676	1.091276	0
438.154602	0.795486	city	8	1	0.599079	0.599079	0	1	0	0	CorrectCommission	1.587120	1.146679	0
438.950287	0.795851	city	3	1	0.648919	0.648919	0	1	0	0	CorrectCommission	1.249920	1.197864	0
439.746094	0.795769	city	9	1	0.451683	0.451683	0	1	0	0	CorrectCommission	2.584340	1.242712	0
440.541870	0.795781	city	3	1	0.916732	0.916732	0	1	0	0	CorrectCommission	0.562002	1.279635	0
441.337646	0.795770	city	6	1	1.007233	1.007233	0	1	0	0	CorrectCommission	1.174295	1.307792	0
442.133453	0.795825	city	2	1	1.050479	1.050479	0	1	0	0	CorrectCommission	1.466880	1.326839	0
442.929230	0.795777	city	5	1	1.009655	1.009655	0	1	0	0	CorrectCommission	1.190684	1.337017	0
443.725067	0.795849	city	2	0	0.000000	0.751613	0	0	0	1	OmissionError	0.555134	1.339033	0
444.520844	0.795752	mountain	5	0	0.000000	0.480388	1	0	0	0	CorrectOmission	2.390132	1.334053	0
445.316650	0.795860	city	5	1	0.400021	0.400021	0	1	0	0	CorrectCommission	2.933867	1.323374	0
446.112488	0.795797	city	9	1	0.714548	0.714548	0	1	0	0	CorrectCommission	0.805898	1.308532	0
446.908264	0.795751	city	2	1	0.997044	0.997044	0	1	0	0	CorrectCommission	1.105361	1.291144	0
447.704071	0.795838	city	5	1	0.897763	0.897763	0	1	0	0	CorrectCommission	0.433665	1.272691	0
448.499878	0.795785	city	3	1	1.096120	1.096120	0	1	0	0	CorrectCommission	1.775670	1.254413	0
449.295685	0.795825	city	7	0	0.000000	0.797162	0	0	0	1	OmissionError	0.246964	1.237083	0
450.091492	0.795809	city	8	1	0.500475	0.500475	0	1	0	0	CorrectCommission	2.254234	1.221194	0
450.887299	0.795823	city	1	1	0.705644	0.705644	0	1	0	0	CorrectCommission	0.866140	1.206597	0
451.683105	0.795783	city	4	0	0.000000	0.863954	0	0	0	1	OmissionError	0.204925	1.192853	0
452.478882	0.795778	mountain	3	0	0.000000	0.978825	1	0	0	0	CorrectOmission	0.982099	1.179253	0
453.274841	0.796128	city	8	0	0.000000	1.053677	0	0	0	1	OmissionError	1.488519	1.164899	0
454.070648	0.795448	city	2	0	0.000000	1.091930	0	0	0	1	OmissionError	1.747323	1.148994	0
454.866302	0.795861	city	8	0	0.000000	1.097003	0	0	0	1	OmissionError	1.781648	1.130999	0
455.662079	0.795734	city	7	0	0.000000	1.072317	0	0	0	1	OmissionError	1.614631	1.110735	0
456.457855	0.795803	city	5	0	0.000000	1.021292	0	0	0	1	OmissionError	1.269411	1.088481	0
457.253815	0.796147	city	2	1	0.947346	0.947346	0	1	0	0	CorrectCommission	0.769125	1.064833	0
458.049683	0.795549	city	10	1	0.853901	0.853901	0	1	0	0	CorrectCommission	0.136910	1.040725	0
458.845306	0.795730	city	5	1	0.897171	0.897171	0	1	0	0	CorrectCommission	0.429661	1.017190	0
459.641266	0.796147	city	9	1	1.154675	1.154675	0	1	0	0	CorrectCommission	2.171834	0.995135	0
460.437073	0.795505	city	3	1	0.916191	0.916191	0	1	0	0	CorrectCommission	0.558342	0.975166	0
461.232697	0.795741	city	8	1	0.899882	0.899882	0	1	0	0	CorrectCommission	0.447997	0.957679	0
462.028503	0.795878	city	6	1	0.948061	0.948061	0	1	0	0	CorrectCommission	0.773959	0.942575	0
462.824310	0.795723	city	4	1	1.047406	1.047406	0	1	0	0	CorrectCommission	1.446088	0.929336	0
463.620117	0.795894	city	7	1	0.947033	0.947033	0	1	0	0	CorrectCommission	0.767006	0.917213	0
464.415955	0.795751	city	5	1	0.864087	0.864087	0	1	0	0	CorrectCommission	0.205828	0.905340	0
465.211731	0.795828	city	2	1	1.146306	1.146306	0	1	0	0	CorrectCommission	2.115209	0.892896	0
466.007690	0.796093	city	6	1	0.949216	0.949216	0	1	0	0	CorrectCommission	0.781774	0.879099	0
466.803467	0.795478	city	2	1	0.797499	0.797499	0	1	0	0	CorrectCommission	0.244686	0.863678	0
467.599121	0.795783	city	10	1	0.653580	0.653580	0	1	0	0	CorrectCommission	1.218381	0.846803	0
468.394928	0.795874	city	7	1	0.699355	0.699355	0	1	0	0	CorrectCommission	0.908690	0.829213	0
469.190765	0.795754	city	3	1	0.649279	0.649279	0	1	0	0	CorrectCommission	1.247483	0.812242	0
469.986542	0.795848	city	5	1	0.650890	0.650890	0	1	0	0	CorrectCommission	1.236586	0.797719	0
470.782501	0.796038	mountain	7	0	0.000000	0.782762	1	0	0	0	CorrectOmission	0.344392	0.787757	0
471.578278	0.795517	city	3	1	0.897549	0.897549	0	1	0	0	CorrectCommission	0.432218	0.784528	0
472.373901	0.795763	city	10	1	0.847907	0.847907	0	1	0	0	CorrectCommission	0.096361	0.789894	0
473.169708	0.795836	city	9	1	0.761624	0.761624	0	1	0	0	CorrectCommission	0.487399	0.805134	0
473.965515	0.795775	city	6	1	0.658131	0.658131	0	1	0	0	CorrectCommission	1.187595	0.830666	0
474.761322	0.795841	city	7	1	0.698672	0.698672	0	1	0	0	CorrectCommission	0.913307	0.865717	0
475.557159	0.795812	mountain	4	0	0.000000	0.779223	1	0	0	0	CorrectOmission	0.368331	0.908306	0
476.352936	0.795753	city	4	1	0.847774	0.847774	0	1	0	0	CorrectCommission	0.095456	0.955210	0
477.148743	0.795846	city	5	1	0.852315	0.852315	0	1	0	0	CorrectCommission	0.126180	1.001969	0
477.944519	0.795737	city	10	0	0.000000	0.759511	0	0	0	1	OmissionError	0.501696	1.043309	0
478.740326	0.795847	city	6	1	0.599001	0.599001	0	1	0	0	CorrectCommission	1.587643	1.073554	0
479.536133	0.795766	city	3	1	0.400425	0.400425	0	1	0	0	CorrectCommission	2.931134	1.087131	0
480.331940	0.795878	city	1	1	0.359015	0.359015	0	1	0	0	CorrectCommission	3.211296	1.079094	0
481.127777	0.795774	city	10	1	0.549335	0.549335	0	1	0	0	CorrectCommission	1.923664	1.045660	0
481.923523	0.795742	mountain	2	0	0.000000	0.793659	1	0	0	0	CorrectOmission	0.270661	0.984624	0
482.719360	0.795899	city	10	1	0.996748	0.996748	0	1	0	0	CorrectCommission	1.103357	0.895450	0
483.515198	0.795807	city	2	1	1.063361	1.063361	0	1	0	0	CorrectCommission	1.554036	0.779341	0
484.311005	0.795794	city	6	0	0.000000	0.801401	0	0	0	1	OmissionError	0.218283	0.639253	1
485.106750	0.795717	city	10	1	0.550067	0.550067	0	1	0	0	CorrectCommission	1.918711	0.479727	1
485.902557	0.795887	city	8	1	0.648558	0.648558	0	1	0	0	CorrectCommission	1.252362	0.306461	1
486.698395	0.795799	city	1	1	0.815028	0.815028	0	1	0	0	CorrectCommission	0.126090	0.126090	1
