onset	duration	trial_type	image_type	Press	ReactionTime	ReactionTime_Interpolated	CorrectOmission	CorrectCommission	CommissionError	OmissionError	response_type	nonsmoothVarianceTimeCourse	VarianceTimeCourse	In_the_Zone
8.421667	0.795788	city	4	1	0.599644	0.599644	0	1	0	0	CorrectCommission	1.190836	1.190836	0
9.217444	0.795767	city	7	1	0.599257	0.599257	0	1	0	0	CorrectCommission	1.193991	1.134837	0
10.013222	0.795787	city	9	1	0.649044	0.649044	0	1	0	0	CorrectCommission	0.787451	1.079593	0
10.809036	0.795843	city	4	1	0.648592	0.648592	0	1	0	0	CorrectCommission	0.791141	1.025834	0
11.604839	0.795763	city	3	1	0.601364	0.601364	0	1	0	0	CorrectCommission	1.176788	0.974212	0
12.400617	0.795791	city	2	1	0.599762	0.599762	0	1	0	0	CorrectCommission	1.189873	0.925262	0
13.196577	0.796131	city	6	1	0.599673	0.599673	0	1	0	0	CorrectCommission	1.190600	0.879372	0
13.992389	0.795493	mountain	6	0	0.000000	0.663826	1	0	0	0	CorrectOmission	0.666745	0.836791	0
14.788038	0.795806	mountain	4	0	0.000000	0.734133	1	0	0	0	CorrectOmission	0.092641	0.797602	0
15.583998	0.796111	city	4	1	0.752505	0.752505	0	1	0	0	CorrectCommission	0.057377	0.761739	0
16.379950	0.795793	city	7	1	0.660853	0.660853	0	1	0	0	CorrectCommission	0.691025	0.729012	1
17.175613	0.795533	city	3	1	0.599432	0.599432	0	1	0	0	CorrectCommission	1.192564	0.699207	1
17.971281	0.795802	city	5	1	0.599145	0.599145	0	1	0	0	CorrectCommission	1.194912	0.672117	1
18.767221	0.796081	city	8	1	0.752757	0.752757	0	1	0	0	CorrectCommission	0.059432	0.647700	1
19.563005	0.795488	city	2	1	0.598584	0.598584	0	1	0	0	CorrectCommission	1.199486	0.626196	1
20.358807	0.796113	city	5	1	0.648750	0.648750	0	1	0	0	CorrectCommission	0.789849	0.607975	1
21.154747	0.795765	city	7	1	0.698458	0.698458	0	1	0	0	CorrectCommission	0.383954	0.593685	1
21.950541	0.795825	city	3	1	0.698350	0.698350	0	1	0	0	CorrectCommission	0.384833	0.584068	1
22.746359	0.795809	city	10	1	0.700413	0.700413	0	1	0	0	CorrectCommission	0.367994	0.579810	1
23.541981	0.795437	city	7	1	0.747770	0.747770	0	1	0	0	CorrectCommission	0.018713	0.581380	1
24.337605	0.795810	city	4	1	0.798171	0.798171	0	1	0	0	CorrectCommission	0.430269	0.588886	1
25.133574	0.796127	city	7	1	0.798517	0.798517	0	1	0	0	CorrectCommission	0.433094	0.601954	1
25.929394	0.795515	city	9	1	0.658318	0.658318	0	1	0	0	CorrectCommission	0.711720	0.619719	1
26.725073	0.795843	city	2	1	0.649454	0.649454	0	1	0	0	CorrectCommission	0.784106	0.640736	1
27.520874	0.795758	city	10	1	0.652039	0.652039	0	1	0	0	CorrectCommission	0.762992	0.663194	1
28.316641	0.795779	mountain	8	0	0.000000	0.765662	1	0	0	0	CorrectOmission	0.164809	0.685042	1
29.112474	0.795886	city	9	1	0.847552	0.847552	0	1	0	0	CorrectCommission	0.833492	0.704201	1
29.908287	0.795742	city	2	1	0.754939	0.754939	0	1	0	0	CorrectCommission	0.077252	0.718776	1
30.704062	0.795804	city	8	1	0.950236	0.950236	0	1	0	0	CorrectCommission	1.671976	0.727355	1
31.499884	0.795840	city	1	1	0.897300	0.897300	0	1	0	0	CorrectCommission	1.239723	0.729062	1
32.295670	0.795736	city	5	1	0.998661	0.998661	0	1	0	0	CorrectCommission	2.067396	0.723804	1
33.091442	0.795805	city	1	1	0.798162	0.798162	0	1	0	0	CorrectCommission	0.430197	0.712133	1
33.887268	0.795850	city	3	1	0.800559	0.800559	0	1	0	0	CorrectCommission	0.449771	0.695253	1
34.683067	0.795746	city	5	1	0.897985	0.897985	0	1	0	0	CorrectCommission	1.245312	0.674660	1
35.479015	0.796153	city	8	1	0.749450	0.749450	0	1	0	0	CorrectCommission	0.032425	0.651943	1
36.274834	0.795483	city	1	1	0.748049	0.748049	0	1	0	0	CorrectCommission	0.020986	0.628638	1
37.070484	0.795813	mountain	6	0	0.000000	0.716080	1	0	0	0	CorrectOmission	0.240055	0.605922	1
37.866264	0.795749	city	5	1	0.712885	0.712885	0	1	0	0	CorrectCommission	0.266150	0.584525	1
38.662209	0.796140	city	1	1	0.797801	0.797801	0	1	0	0	CorrectCommission	0.427247	0.564812	1
39.458031	0.795505	city	7	1	0.698659	0.698659	0	1	0	0	CorrectCommission	0.382316	0.546849	1
40.253681	0.795796	mountain	8	0	0.000000	0.872645	1	0	0	0	CorrectOmission	1.038396	0.530629	1
41.049511	0.795862	city	3	1	0.996754	0.996754	0	1	0	0	CorrectCommission	2.051827	0.516205	1
41.845299	0.795714	city	10	1	0.747979	0.747979	0	1	0	0	CorrectCommission	0.020421	0.503802	1
42.641094	0.795879	city	1	1	0.798066	0.798066	0	1	0	0	CorrectCommission	0.429408	0.494034	1
43.436920	0.795778	city	7	1	0.809795	0.809795	0	1	0	0	CorrectCommission	0.525186	0.487655	1
44.232716	0.795812	city	9	1	0.748679	0.748679	0	1	0	0	CorrectCommission	0.026134	0.485517	1
45.028515	0.795786	city	8	1	0.709653	0.709653	0	1	0	0	CorrectCommission	0.292538	0.488395	1
45.824303	0.795790	city	9	1	0.752817	0.752817	0	1	0	0	CorrectCommission	0.059922	0.496743	1
46.620251	0.796107	city	4	1	0.762581	0.762581	0	1	0	0	CorrectCommission	0.139654	0.510518	1
47.416042	0.795475	city	7	1	0.748405	0.748405	0	1	0	0	CorrectCommission	0.023898	0.529093	1
48.211670	0.795779	mountain	5	0	0.000000	0.795682	1	0	0	0	CorrectOmission	0.409943	0.551214	1
49.007465	0.795810	city	7	1	0.847652	0.847652	0	1	0	0	CorrectCommission	0.834308	0.575143	1
49.803429	0.796122	city	2	1	0.847554	0.847554	0	1	0	0	CorrectCommission	0.833510	0.598792	1
50.599266	0.795548	city	6	1	0.897645	0.897645	0	1	0	0	CorrectCommission	1.242538	0.620033	1
51.394909	0.795737	city	8	1	0.804863	0.804863	0	1	0	0	CorrectCommission	0.484915	0.636921	1
52.190681	0.795813	city	5	1	0.947367	0.947367	0	1	0	0	CorrectCommission	1.648551	0.647899	1
52.986511	0.795841	city	2	1	0.798090	0.798090	0	1	0	0	CorrectCommission	0.429610	0.651968	1
53.782333	0.795810	city	9	1	0.798493	0.798493	0	1	0	0	CorrectCommission	0.432896	0.648861	1
54.578144	0.795806	city	7	1	0.713010	0.713010	0	1	0	0	CorrectCommission	0.265131	0.638908	1
55.373951	0.795811	city	1	1	0.599070	0.599070	0	1	0	0	CorrectCommission	1.195522	0.623094	1
56.169720	0.795725	city	10	1	0.898106	0.898106	0	1	0	0	CorrectCommission	1.246300	0.602837	1
56.965637	0.796112	city	6	1	0.802829	0.802829	0	1	0	0	CorrectCommission	0.468306	0.579915	1
57.761612	0.795834	city	9	1	0.797495	0.797495	0	1	0	0	CorrectCommission	0.424745	0.556283	1
58.557278	0.795494	city	6	1	0.809432	0.809432	0	1	0	0	CorrectCommission	0.522218	0.533775	1
59.352898	0.795749	city	1	1	0.749197	0.749197	0	1	0	0	CorrectCommission	0.030364	0.514083	1
60.148853	0.796161	city	8	1	0.770313	0.770313	0	1	0	0	CorrectCommission	0.202787	0.498599	1
60.944824	0.795779	city	10	1	0.701364	0.701364	0	1	0	0	CorrectCommission	0.360224	0.488238	1
61.740475	0.795526	city	1	1	0.698249	0.698249	0	1	0	0	CorrectCommission	0.385664	0.483477	1
62.536144	0.795813	city	8	1	0.760575	0.760575	0	1	0	0	CorrectCommission	0.123274	0.484357	1
63.331951	0.795797	city	1	1	0.798449	0.798449	0	1	0	0	CorrectCommission	0.432537	0.490572	1
64.127747	0.795791	city	4	1	0.859868	0.859868	0	1	0	0	CorrectCommission	0.934060	0.501506	1
64.923698	0.796109	city	9	1	0.851701	0.851701	0	1	0	0	CorrectCommission	0.867377	0.516340	1
65.719650	0.795799	city	10	1	0.751561	0.751561	0	1	0	0	CorrectCommission	0.049666	0.534170	1
66.515297	0.795497	city	3	1	0.654134	0.654134	0	1	0	0	CorrectCommission	0.745892	0.554089	1
67.310951	0.795815	city	1	1	0.748125	0.748125	0	1	0	0	CorrectCommission	0.021606	0.575173	1
68.106773	0.795824	city	9	1	0.848348	0.848348	0	1	0	0	CorrectCommission	0.839994	0.596602	1
68.902557	0.795739	city	10	1	0.648607	0.648607	0	1	0	0	CorrectCommission	0.791021	0.617640	1
69.698479	0.796112	city	4	1	0.748831	0.748831	0	1	0	0	CorrectCommission	0.027375	0.637730	1
70.494308	0.795552	mountain	5	1	0.599814	0.599814	0	0	1	0	CommissionError	1.189442	0.656527	1
71.289986	0.795802	city	5	1	0.605741	0.605741	0	1	0	0	CorrectCommission	1.141048	0.673867	1
72.085747	0.795717	city	8	1	0.649247	0.649247	0	1	0	0	CorrectCommission	0.785791	0.689894	1
72.881508	0.795798	city	10	1	0.648955	0.648955	0	1	0	0	CorrectCommission	0.788176	0.704918	1
73.677338	0.795869	city	4	1	0.748727	0.748727	0	1	0	0	CorrectCommission	0.026524	0.719500	1
74.473145	0.795738	city	6	1	0.797850	0.797850	0	1	0	0	CorrectCommission	0.427648	0.734377	1
75.268951	0.795880	city	1	1	0.947294	0.947294	0	1	0	0	CorrectCommission	1.647950	0.750375	1
76.064934	0.796084	city	4	1	0.847775	0.847775	0	1	0	0	CorrectCommission	0.835312	0.768279	0
76.860718	0.795488	city	8	1	0.697973	0.697973	0	1	0	0	CorrectCommission	0.387915	0.788847	0
77.656387	0.795845	city	7	1	0.797841	0.797841	0	1	0	0	CorrectCommission	0.427577	0.812612	0
78.452339	0.796052	city	6	1	0.847710	0.847710	0	1	0	0	CorrectCommission	0.834782	0.839732	0
79.248093	0.795456	city	7	1	0.859656	0.859656	0	1	0	0	CorrectCommission	0.932335	0.869900	0
80.043739	0.795843	city	3	1	0.811282	0.811282	0	1	0	0	CorrectCommission	0.537329	0.902305	0
80.839561	0.795805	city	10	1	0.848288	0.848288	0	1	0	0	CorrectCommission	0.839508	0.935627	0
81.635368	0.795808	city	4	1	0.899003	0.899003	0	1	0	0	CorrectCommission	1.253629	0.968025	0
82.431328	0.796103	city	7	1	0.897587	0.897587	0	1	0	0	CorrectCommission	1.242064	0.997312	0
83.227097	0.795444	city	10	1	0.847207	0.847207	0	1	0	0	CorrectCommission	0.830677	1.021194	0
84.022903	0.796172	city	1	1	0.797849	0.797849	0	1	0	0	CorrectCommission	0.427636	1.037455	0
84.818710	0.795443	city	10	1	0.946952	0.946952	0	1	0	0	CorrectCommission	1.645162	1.044212	0
85.614380	0.795888	city	2	1	0.847560	0.847560	0	1	0	0	CorrectCommission	0.833563	1.040157	0
86.410187	0.795722	city	6	1	1.013893	1.013893	0	1	0	0	CorrectCommission	2.191774	1.024891	0
87.205963	0.795842	city	1	1	1.096466	1.096466	0	1	0	0	CorrectCommission	2.866037	0.998899	0
88.001808	0.795836	city	9	0	0.000000	0.805089	0	0	0	1	OmissionError	0.486756	0.963637	0
88.797760	0.796066	city	2	1	0.551575	0.551575	0	1	0	0	CorrectCommission	1.583345	0.921520	0
89.593697	0.795807	city	8	1	0.747739	0.747739	0	1	0	0	CorrectCommission	0.018454	0.875438	0
90.389320	0.795441	city	10	1	0.801478	0.801478	0	1	0	0	CorrectCommission	0.457268	0.828641	0
91.184959	0.795838	city	4	1	0.757670	0.757670	0	1	0	0	CorrectCommission	0.099551	0.784205	0
91.980766	0.795780	city	3	1	0.748997	0.748997	0	1	0	0	CorrectCommission	0.028730	0.744793	1
92.776573	0.795831	city	1	1	0.848407	0.848407	0	1	0	0	CorrectCommission	0.840474	0.712292	1
93.572365	0.795752	city	2	1	0.848443	0.848443	0	1	0	0	CorrectCommission	0.840770	0.687702	1
94.368317	0.796158	city	4	1	0.848445	0.848445	0	1	0	0	CorrectCommission	0.840790	0.671127	1
95.164139	0.795486	city	7	1	0.797568	0.797568	0	1	0	0	CorrectCommission	0.425346	0.661781	1
95.959770	0.795780	city	5	1	0.798546	0.798546	0	1	0	0	CorrectCommission	0.433333	0.658208	1
96.755730	0.796132	city	8	1	0.749294	0.749294	0	1	0	0	CorrectCommission	0.031153	0.658460	1
97.551575	0.795558	city	6	1	0.798338	0.798338	0	1	0	0	CorrectCommission	0.431629	0.660413	1
98.347237	0.795773	city	7	1	0.901603	0.901603	0	1	0	0	CorrectCommission	1.274857	0.661999	1
99.143013	0.795777	city	9	1	0.947287	0.947287	0	1	0	0	CorrectCommission	1.647900	0.661480	1
99.938828	0.795851	city	10	1	0.748969	0.748969	0	1	0	0	CorrectCommission	0.028504	0.657654	1
100.734612	0.795714	city	7	1	0.620206	0.620206	0	1	0	0	CorrectCommission	1.022930	0.650023	1
101.530403	0.795862	city	3	1	0.550276	0.550276	0	1	0	0	CorrectCommission	1.593955	0.638697	1
102.326378	0.796100	city	6	1	0.698499	0.698499	0	1	0	0	CorrectCommission	0.383616	0.624376	1
103.122154	0.795453	city	8	1	0.704052	0.704052	0	1	0	0	CorrectCommission	0.338279	0.608287	1
103.917809	0.795856	city	7	1	0.798101	0.798101	0	1	0	0	CorrectCommission	0.429694	0.591811	1
104.713646	0.795820	city	8	1	0.710768	0.710768	0	1	0	0	CorrectCommission	0.283435	0.576333	1
105.509422	0.795733	city	1	1	0.797890	0.797890	0	1	0	0	CorrectCommission	0.427977	0.563127	1
106.305229	0.795881	city	4	1	0.765359	0.765359	0	1	0	0	CorrectCommission	0.162333	0.553086	1
107.101067	0.795786	city	1	1	0.809789	0.809789	0	1	0	0	CorrectCommission	0.525139	0.546750	1
107.896851	0.795782	city	3	1	0.797773	0.797773	0	1	0	0	CorrectCommission	0.427017	0.544175	1
108.692650	0.795818	city	7	1	0.851983	0.851983	0	1	0	0	CorrectCommission	0.869674	0.545063	1
109.488449	0.795773	city	10	1	0.847399	0.847399	0	1	0	0	CorrectCommission	0.832242	0.548800	1
110.284248	0.795830	city	3	1	0.748086	0.748086	0	1	0	0	CorrectCommission	0.021290	0.554617	1
111.080063	0.795798	mountain	6	0	0.000000	0.664588	1	0	0	0	CorrectOmission	0.660527	0.561752	1
111.875870	0.795814	city	1	1	0.660073	0.660073	0	1	0	0	CorrectCommission	0.697392	0.569467	1
112.671654	0.795760	city	2	1	0.797711	0.797711	0	1	0	0	CorrectCommission	0.426515	0.577225	1
113.467445	0.795825	city	4	1	0.799865	0.799865	0	1	0	0	CorrectCommission	0.444100	0.584763	1
114.263245	0.795771	city	7	1	0.897503	0.897503	0	1	0	0	CorrectCommission	1.241374	0.592162	1
115.059052	0.795846	city	2	1	0.847751	0.847751	0	1	0	0	CorrectCommission	0.835120	0.599743	1
115.855011	0.796075	city	8	1	0.748003	0.748003	0	1	0	0	CorrectCommission	0.020613	0.608062	1
116.650772	0.795439	city	1	1	0.698761	0.698761	0	1	0	0	CorrectCommission	0.381477	0.617866	1
117.446411	0.795840	city	5	1	0.599667	0.599667	0	1	0	0	CorrectCommission	1.190643	0.629951	1
118.242393	0.796131	city	6	1	0.648854	0.648854	0	1	0	0	CorrectCommission	0.789006	0.645024	1
119.038177	0.795429	city	7	1	0.747951	0.747951	0	1	0	0	CorrectCommission	0.020190	0.663626	1
119.833794	0.795801	city	6	1	0.698634	0.698634	0	1	0	0	CorrectCommission	0.382513	0.686067	1
120.629776	0.796176	city	5	1	0.705312	0.705312	0	1	0	0	CorrectCommission	0.327989	0.712255	1
121.425621	0.795503	mountain	4	0	0.000000	0.650314	1	0	0	0	CorrectOmission	0.777084	0.741721	1
122.221405	0.796069	mountain	6	0	0.000000	0.606959	1	0	0	0	CorrectOmission	1.131102	0.773569	0
123.017220	0.795566	city	1	1	0.648567	0.648567	0	1	0	0	CorrectCommission	0.791350	0.806533	0
123.812904	0.795802	city	10	1	0.848455	0.848455	0	1	0	0	CorrectCommission	0.840870	0.839059	0
124.608658	0.795710	city	3	1	0.814524	0.814524	0	1	0	0	CorrectCommission	0.563796	0.869376	0
125.404442	0.795844	city	8	1	0.897955	0.897955	0	1	0	0	CorrectCommission	1.245069	0.895593	0
126.200264	0.795807	city	3	1	0.947774	0.947774	0	1	0	0	CorrectCommission	1.651870	0.915811	0
126.996086	0.795836	mountain	2	0	0.000000	0.864638	1	0	0	0	CorrectOmission	0.973014	0.928309	0
127.792023	0.796042	city	6	1	0.748281	0.748281	0	1	0	0	CorrectCommission	0.022885	0.931730	0
128.587799	0.795515	city	10	1	0.698436	0.698436	0	1	0	0	CorrectCommission	0.384133	0.925157	0
129.383484	0.795836	city	4	1	1.047008	1.047008	0	1	0	0	CorrectCommission	2.462185	0.908261	0
130.179260	0.795739	mountain	6	0	0.000000	1.012362	1	0	0	0	CorrectOmission	2.179274	0.881341	0
130.975021	0.795777	city	7	1	0.799245	0.799245	0	1	0	0	CorrectCommission	0.439033	0.845516	0
131.770844	0.795854	city	10	1	0.612405	0.612405	0	1	0	0	CorrectCommission	1.086633	0.802616	0
132.566696	0.795857	city	1	1	0.665929	0.665929	0	1	0	0	CorrectCommission	0.649570	0.755000	1
133.362656	0.796052	city	2	1	0.649370	0.649370	0	1	0	0	CorrectCommission	0.784790	0.705435	1
134.158417	0.795495	city	1	1	0.698773	0.698773	0	1	0	0	CorrectCommission	0.381384	0.656823	1
134.954071	0.795805	city	6	1	0.698307	0.698307	0	1	0	0	CorrectCommission	0.385188	0.611947	1
135.749893	0.795836	city	8	1	0.748267	0.748267	0	1	0	0	CorrectCommission	0.022768	0.573217	1
136.545700	0.795776	city	6	1	0.698259	0.698259	0	1	0	0	CorrectCommission	0.385576	0.542530	1
137.341461	0.795746	city	10	1	0.748093	0.748093	0	1	0	0	CorrectCommission	0.021352	0.521063	1
138.137238	0.795801	city	8	1	0.702633	0.702633	0	1	0	0	CorrectCommission	0.349858	0.509376	1
138.933075	0.795893	city	9	1	0.763779	0.763779	0	1	0	0	CorrectCommission	0.149432	0.507367	1
139.728882	0.795703	city	8	1	0.618089	0.618089	0	1	0	0	CorrectCommission	1.040219	0.514484	1
140.524643	0.795823	city	1	1	0.755354	0.755354	0	1	0	0	CorrectCommission	0.080637	0.529854	1
141.320496	0.795889	city	3	1	0.807156	0.807156	0	1	0	0	CorrectCommission	0.503637	0.552445	1
142.116318	0.795748	city	7	1	0.860384	0.860384	0	1	0	0	CorrectCommission	0.938275	0.581153	1
142.912094	0.795808	city	6	1	0.848340	0.848340	0	1	0	0	CorrectCommission	0.839930	0.614891	1
143.708054	0.796101	city	8	1	0.748084	0.748084	0	1	0	0	CorrectCommission	0.021274	0.652650	1
144.503860	0.795505	city	7	1	0.598559	0.598559	0	1	0	0	CorrectCommission	1.199690	0.693477	1
145.299484	0.795755	city	2	1	0.662557	0.662557	0	1	0	0	CorrectCommission	0.677106	0.736373	1
146.095413	0.796118	city	1	1	0.804659	0.804659	0	1	0	0	CorrectCommission	0.483250	0.780322	0
146.891373	0.795787	city	9	1	0.748455	0.748455	0	1	0	0	CorrectCommission	0.024308	0.824111	0
147.687042	0.795563	city	5	1	0.598615	0.598615	0	1	0	0	CorrectCommission	1.199236	0.866401	0
148.482712	0.795761	city	4	1	0.699167	0.699167	0	1	0	0	CorrectCommission	0.378162	0.905782	0
149.278473	0.795759	city	5	1	0.599704	0.599704	0	1	0	0	CorrectCommission	1.190342	0.940920	0
150.074280	0.795864	city	7	1	0.509169	0.509169	0	1	0	0	CorrectCommission	1.929620	0.970592	0
150.870102	0.795777	city	1	1	0.499368	0.499368	0	1	0	0	CorrectCommission	2.009650	0.993873	0
151.665894	0.795808	city	8	1	0.549187	0.549187	0	1	0	0	CorrectCommission	1.602846	1.010258	0
152.461700	0.795808	city	1	1	0.699026	0.699026	0	1	0	0	CorrectCommission	0.379317	1.019656	0
153.257675	0.796124	city	3	1	0.814779	0.814779	0	1	0	0	CorrectCommission	0.565879	1.022405	0
154.053452	0.795444	city	6	1	0.748416	0.748416	0	1	0	0	CorrectCommission	0.023983	1.019144	0
154.849075	0.795796	city	8	1	0.599136	0.599136	0	1	0	0	CorrectCommission	1.194980	1.010756	0
155.644913	0.795890	city	2	1	0.419012	0.419012	0	1	0	0	CorrectCommission	2.665815	0.998169	0
156.440735	0.795763	city	10	1	0.599046	0.599046	0	1	0	0	CorrectCommission	1.195719	0.982371	0
157.236542	0.795839	city	8	1	0.648640	0.648640	0	1	0	0	CorrectCommission	0.790752	0.964368	0
158.032349	0.795773	city	9	1	0.710430	0.710430	0	1	0	0	CorrectCommission	0.286192	0.945069	0
158.828140	0.795796	city	3	1	0.663124	0.663124	0	1	0	0	CorrectCommission	0.672480	0.925297	0
159.624069	0.796092	mountain	5	0	0.000000	0.766309	1	0	0	0	CorrectOmission	0.170092	0.905736	0
160.419846	0.795457	city	6	1	0.897642	0.897642	0	1	0	0	CorrectCommission	1.242516	0.887088	0
161.215515	0.795857	mountain	4	0	0.000000	0.934782	1	0	0	0	CorrectOmission	1.545783	0.870070	0
162.011353	0.795843	city	7	1	0.899118	0.899118	0	1	0	0	CorrectCommission	1.254567	0.855538	0
162.807312	0.796063	city	10	1	0.812044	0.812044	0	1	0	0	CorrectCommission	0.543546	0.844496	0
163.603058	0.795437	city	9	1	0.849809	0.849809	0	1	0	0	CorrectCommission	0.851927	0.838090	0
164.398712	0.795863	city	7	1	0.648957	0.648957	0	1	0	0	CorrectCommission	0.788165	0.837546	0
165.194519	0.795760	city	5	1	0.698286	0.698286	0	1	0	0	CorrectCommission	0.385362	0.844067	0
165.990479	0.796147	city	10	1	0.665851	0.665851	0	1	0	0	CorrectCommission	0.650210	0.858721	0
166.786438	0.795780	city	9	1	0.847548	0.847548	0	1	0	0	CorrectCommission	0.833464	0.882256	0
167.582138	0.795614	city	3	1	0.698691	0.698691	0	1	0	0	CorrectCommission	0.382048	0.915030	0
168.377945	0.796006	city	5	1	0.757451	0.757451	0	1	0	0	CorrectCommission	0.097763	0.956925	0
169.173721	0.795534	city	1	1	0.946780	0.946780	0	1	0	0	CorrectCommission	1.643756	1.007292	0
169.969498	0.796035	city	8	1	0.854506	0.854506	0	1	0	0	CorrectCommission	0.890278	1.064895	0
170.765442	0.795848	city	5	1	0.809491	0.809491	0	1	0	0	CorrectCommission	0.522702	1.128029	0
171.561096	0.795469	city	6	1	0.946987	0.946987	0	1	0	0	CorrectCommission	1.645444	1.194499	0
172.356735	0.795798	city	5	1	0.953695	0.953695	0	1	0	0	CorrectCommission	1.700225	1.261599	0
173.152542	0.795818	city	6	1	0.950963	0.950963	0	1	0	0	CorrectCommission	1.677913	1.326284	0
173.948334	0.795772	city	4	1	0.959423	0.959423	0	1	0	0	CorrectCommission	1.746992	1.385339	0
174.744141	0.795836	city	10	1	0.814669	0.814669	0	1	0	0	CorrectCommission	0.564986	1.435432	0
175.539963	0.795793	city	9	1	0.650439	0.650439	0	1	0	0	CorrectCommission	0.776064	1.473402	0
176.335754	0.795811	city	7	1	0.599300	0.599300	0	1	0	0	CorrectCommission	1.193646	1.496355	0
177.131729	0.796117	city	5	1	0.367829	0.367829	0	1	0	0	CorrectCommission	3.083753	1.502045	0
177.927521	0.795489	city	2	1	0.450121	0.450121	0	1	0	0	CorrectCommission	2.411784	1.489047	0
178.723190	0.795831	city	5	1	0.500154	0.500154	0	1	0	0	CorrectCommission	2.003233	1.457115	0
179.519135	0.796068	city	1	1	0.465632	0.465632	0	1	0	0	CorrectCommission	2.285131	1.407298	0
180.314896	0.795446	mountain	8	1	0.399703	0.399703	0	0	1	0	CommissionError	2.823480	1.341885	0
181.110550	0.795855	city	9	1	0.897492	0.897492	0	1	0	0	CorrectCommission	1.241284	1.264237	0
181.906387	0.795842	city	3	1	0.702648	0.702648	0	1	0	0	CorrectCommission	0.349736	1.178602	0
182.702347	0.796070	city	5	1	0.810446	0.810446	0	1	0	0	CorrectCommission	0.530500	1.089675	0
183.498108	0.795440	city	8	1	0.764547	0.764547	0	1	0	0	CorrectCommission	0.155706	1.002113	0
184.293747	0.795858	city	10	1	0.698590	0.698590	0	1	0	0	CorrectCommission	0.382874	0.920246	0
185.089554	0.795754	city	5	1	0.649406	0.649406	0	1	0	0	CorrectCommission	0.784493	0.847708	0
185.885361	0.795864	mountain	2	0	0.000000	0.624744	1	0	0	0	CorrectOmission	0.985879	0.787224	0
186.681183	0.795779	city	10	1	0.649381	0.649381	0	1	0	0	CorrectCommission	0.784698	0.740529	1
187.476990	0.795837	city	3	1	0.748097	0.748097	0	1	0	0	CorrectCommission	0.021379	0.708355	1
188.272781	0.795732	city	8	1	0.767048	0.767048	0	1	0	0	CorrectCommission	0.176131	0.690513	1
189.068558	0.795809	city	7	1	0.898206	0.898206	0	1	0	0	CorrectCommission	1.247121	0.685941	1
189.864380	0.795834	city	8	1	0.798629	0.798629	0	1	0	0	CorrectCommission	0.434007	0.692847	1
190.660217	0.795843	city	4	1	0.811522	0.811522	0	1	0	0	CorrectCommission	0.539285	0.708985	1
191.455978	0.795703	city	5	1	0.748294	0.748294	0	1	0	0	CorrectCommission	0.022989	0.731704	1
192.251755	0.795835	mountain	1	0	0.000000	0.679547	1	0	0	0	CorrectOmission	0.538370	0.758235	1
193.047577	0.795812	city	7	1	0.648542	0.648542	0	1	0	0	CorrectCommission	0.791552	0.785779	0
193.843414	0.795857	city	9	1	0.698536	0.698536	0	1	0	0	CorrectCommission	0.383319	0.811736	0
194.639236	0.795785	city	5	1	0.501567	0.501567	0	1	0	0	CorrectCommission	1.991699	0.833876	0
195.435013	0.795767	city	8	1	0.500255	0.500255	0	1	0	0	CorrectCommission	2.002407	0.850450	0
196.230957	0.796126	city	1	1	0.598921	0.598921	0	1	0	0	CorrectCommission	1.196740	0.860367	0
197.026901	0.795767	city	9	1	0.804069	0.804069	0	1	0	0	CorrectCommission	0.478426	0.863205	0
197.822556	0.795535	city	1	1	0.616394	0.616394	0	1	0	0	CorrectCommission	1.054062	0.859082	0
198.618210	0.795777	city	10	1	0.713163	0.713163	0	1	0	0	CorrectCommission	0.263879	0.848612	0
199.414139	0.796091	city	7	1	0.857339	0.857339	0	1	0	0	CorrectCommission	0.913412	0.832798	0
200.209946	0.795519	mountain	5	0	0.000000	0.862142	1	0	0	0	CorrectOmission	0.952631	0.812789	0
201.005661	0.795903	city	8	1	0.751475	0.751475	0	1	0	0	CorrectCommission	0.048961	0.789841	0
201.801605	0.795990	city	5	1	0.549240	0.549240	0	1	0	0	CorrectCommission	1.602416	0.765218	0
202.597366	0.795525	mountain	6	0	0.000000	0.600917	1	0	0	0	CorrectOmission	1.180437	0.740032	1
203.393021	0.795807	city	4	1	0.702319	0.702319	0	1	0	0	CorrectCommission	0.352425	0.715356	1
204.188843	0.795835	city	3	1	0.649258	0.649258	0	1	0	0	CorrectCommission	0.785706	0.692084	1
204.984726	0.795930	mountain	10	0	0.000000	0.713317	1	0	0	0	CorrectOmission	0.262624	0.670964	1
205.780457	0.795510	city	6	1	0.799968	0.799968	0	1	0	0	CorrectCommission	0.444940	0.652620	1
206.584457	0.812511	city	7	1	0.814684	0.814684	0	1	0	0	CorrectCommission	0.565104	0.637495	1
207.388611	0.795797	city	6	1	0.851962	0.851962	0	1	0	0	CorrectCommission	0.869508	0.625935	1
208.184387	0.795761	city	5	1	0.848352	0.848352	0	1	0	0	CorrectCommission	0.840024	0.618127	1
208.980347	0.796129	mountain	6	0	0.000000	0.747224	1	0	0	0	CorrectOmission	0.014250	0.614174	1
209.776169	0.795535	city	5	1	0.698347	0.698347	0	1	0	0	CorrectCommission	0.384859	0.614073	1
210.571838	0.795805	city	4	1	0.851490	0.851490	0	1	0	0	CorrectCommission	0.865655	0.617668	1
211.367645	0.795787	city	9	1	0.798034	0.798034	0	1	0	0	CorrectCommission	0.429152	0.624743	1
212.163422	0.795776	city	4	1	0.851220	0.851220	0	1	0	0	CorrectCommission	0.863444	0.634977	1
212.959229	0.795840	city	7	1	0.798635	0.798635	0	1	0	0	CorrectCommission	0.434054	0.647934	1
213.755188	0.796078	city	3	1	0.606011	0.606011	0	1	0	0	CorrectCommission	1.138845	0.663133	1
214.550964	0.795490	city	8	1	0.698107	0.698107	0	1	0	0	CorrectCommission	0.386823	0.679983	1
215.346588	0.795752	city	6	1	0.698291	0.698291	0	1	0	0	CorrectCommission	0.385318	0.697759	1
216.142548	0.796170	city	9	1	0.698402	0.698402	0	1	0	0	CorrectCommission	0.384410	0.715625	1
216.938370	0.795466	city	8	1	0.698706	0.698706	0	1	0	0	CorrectCommission	0.381932	0.732614	1
217.734024	0.795830	city	10	1	0.561223	0.561223	0	1	0	0	CorrectCommission	1.504568	0.747645	1
218.529846	0.795839	city	2	1	0.996698	0.996698	0	1	0	0	CorrectCommission	2.051371	0.759608	0
219.325638	0.795717	city	1	1	0.748884	0.748884	0	1	0	0	CorrectCommission	0.027808	0.767373	0
220.121429	0.795876	city	7	1	0.699076	0.699076	0	1	0	0	CorrectCommission	0.378905	0.770012	0
220.917252	0.795769	city	4	1	0.713937	0.713937	0	1	0	0	CorrectCommission	0.257561	0.766724	0
221.713028	0.795800	mountain	1	0	0.000000	0.627137	1	0	0	0	CorrectOmission	0.966334	0.757004	1
222.508850	0.795822	city	9	1	0.551459	0.551459	0	1	0	0	CorrectCommission	1.584299	0.740686	1
223.304672	0.795820	city	1	1	0.599682	0.599682	0	1	0	0	CorrectCommission	1.190527	0.718067	1
224.100616	0.796069	city	7	1	0.602796	0.602796	0	1	0	0	CorrectCommission	1.165092	0.689925	1
224.896408	0.795521	city	3	1	0.655468	0.655468	0	1	0	0	CorrectCommission	0.734997	0.657475	1
225.692047	0.795745	city	2	1	0.700471	0.700471	0	1	0	0	CorrectCommission	0.367519	0.622319	1
226.487839	0.795846	city	9	1	0.810538	0.810538	0	1	0	0	CorrectCommission	0.531255	0.586315	1
227.283798	0.796086	city	2	1	0.749190	0.749190	0	1	0	0	CorrectCommission	0.030303	0.551403	1
228.079575	0.795443	city	8	1	0.748547	0.748547	0	1	0	0	CorrectCommission	0.025057	0.519464	1
228.875366	0.796161	city	6	1	0.699002	0.699002	0	1	0	0	CorrectCommission	0.379513	0.492191	1
229.671356	0.795802	city	2	1	0.599195	0.599195	0	1	0	0	CorrectCommission	1.194504	0.470886	1
230.467010	0.795522	city	4	1	0.748545	0.748545	0	1	0	0	CorrectCommission	0.025038	0.456477	1
231.262680	0.795810	city	3	1	0.713042	0.713042	0	1	0	0	CorrectCommission	0.264868	0.449457	1
232.058472	0.795763	city	4	1	0.798565	0.798565	0	1	0	0	CorrectCommission	0.433489	0.449817	1
232.854279	0.795852	city	10	1	0.748303	0.748303	0	1	0	0	CorrectCommission	0.023063	0.457124	1
233.650085	0.795764	city	9	1	0.797995	0.797995	0	1	0	0	CorrectCommission	0.428832	0.470583	1
234.445847	0.795757	city	5	1	0.712751	0.712751	0	1	0	0	CorrectCommission	0.267242	0.489088	1
235.241638	0.795831	city	2	1	0.798741	0.798741	0	1	0	0	CorrectCommission	0.434926	0.511332	1
236.037445	0.795776	city	8	1	0.798274	0.798274	0	1	0	0	CorrectCommission	0.431110	0.535921	1
236.833237	0.795826	city	2	1	0.848361	0.848361	0	1	0	0	CorrectCommission	0.840102	0.561539	1
237.629059	0.795800	city	7	1	0.798057	0.798057	0	1	0	0	CorrectCommission	0.429334	0.586994	1
238.424881	0.795859	city	4	1	0.898078	0.898078	0	1	0	0	CorrectCommission	1.246074	0.611327	1
239.220840	0.796053	city	5	1	0.648485	0.648485	0	1	0	0	CorrectCommission	0.792016	0.633815	1
240.016602	0.795477	city	4	1	0.847528	0.847528	0	1	0	0	CorrectCommission	0.833301	0.653974	1
240.812256	0.795831	city	10	1	0.850123	0.850123	0	1	0	0	CorrectCommission	0.854491	0.671499	1
241.608093	0.795827	mountain	2	0	0.000000	0.761231	1	0	0	0	CorrectOmission	0.128628	0.686226	1
242.403870	0.795725	city	5	1	0.703302	0.703302	0	1	0	0	CorrectCommission	0.344400	0.698086	1
243.199661	0.795875	city	10	1	0.798787	0.798787	0	1	0	0	CorrectCommission	0.435298	0.707072	1
243.995468	0.795720	city	6	1	0.897315	0.897315	0	1	0	0	CorrectCommission	1.239843	0.713163	1
244.791367	0.796104	city	8	1	0.799341	0.799341	0	1	0	0	CorrectCommission	0.439821	0.716404	1
245.587204	0.795565	city	4	1	0.946998	0.946998	0	1	0	0	CorrectCommission	1.645534	0.717028	1
246.382858	0.795739	mountain	1	0	0.000000	0.853718	1	0	0	0	CorrectOmission	0.883842	0.715338	1
247.178680	0.795897	city	2	1	0.699841	0.699841	0	1	0	0	CorrectCommission	0.372664	0.711968	1
247.974533	0.795803	city	10	1	0.665706	0.665706	0	1	0	0	CorrectCommission	0.651391	0.707681	1
248.770294	0.795733	mountain	3	0	0.000000	0.635390	1	0	0	0	CorrectOmission	0.898944	0.703408	1
249.566086	0.795844	mountain	4	0	0.000000	0.636913	1	0	0	0	CorrectOmission	0.886507	0.700159	1
250.361893	0.795776	city	10	1	0.698298	0.698298	0	1	0	0	CorrectCommission	0.385264	0.698930	1
251.157654	0.795762	city	8	1	0.847565	0.847565	0	1	0	0	CorrectCommission	0.833601	0.700635	1
251.953476	0.795866	city	2	1	0.748916	0.748916	0	1	0	0	CorrectCommission	0.028070	0.705966	1
252.749298	0.795779	mountain	3	0	0.000000	0.699745	1	0	0	0	CorrectOmission	0.373445	0.715414	1
253.545105	0.795840	city	5	1	0.749424	0.749424	0	1	0	0	CorrectCommission	0.032216	0.729228	1
254.340927	0.795810	city	4	1	0.947326	0.947326	0	1	0	0	CorrectCommission	1.648217	0.747458	1
255.136688	0.795715	city	8	1	0.610765	0.610765	0	1	0	0	CorrectCommission	1.100021	0.769951	0
255.932480	0.795863	city	4	1	0.699181	0.699181	0	1	0	0	CorrectCommission	0.378047	0.796518	0
256.728302	0.795780	mountain	1	0	0.000000	0.632284	1	0	0	0	CorrectOmission	0.924308	0.826920	0
257.524109	0.795801	city	6	1	0.652981	0.652981	0	1	0	0	CorrectCommission	0.755302	0.860818	0
258.319885	0.795755	city	2	1	1.004181	1.004181	0	1	0	0	CorrectCommission	2.112475	0.897791	0
259.115692	0.795864	city	10	1	0.715277	0.715277	0	1	0	0	CorrectCommission	0.246619	0.937150	0
259.911499	0.795742	city	5	1	0.752152	0.752152	0	1	0	0	CorrectCommission	0.054490	0.978055	0
260.707275	0.795846	mountain	3	0	0.000000	0.691878	1	0	0	0	CorrectOmission	0.437685	1.019245	0
261.503265	0.796094	city	9	1	0.751306	0.751306	0	1	0	0	CorrectCommission	0.047587	1.059054	0
262.299072	0.795523	city	7	1	1.147289	1.147289	0	1	0	0	CorrectCommission	3.281038	1.095597	0
263.094879	0.796089	city	5	1	0.818759	0.818759	0	1	0	0	CorrectCommission	0.598382	1.126636	0
263.890686	0.795530	city	2	1	0.568233	0.568233	0	1	0	0	CorrectCommission	1.447322	1.150189	0
264.686310	0.795735	city	5	1	0.514365	0.514365	0	1	0	0	CorrectCommission	1.887188	1.164380	0
265.482117	0.795864	city	8	1	0.602787	0.602787	0	1	0	0	CorrectCommission	1.165167	1.167764	0
266.277954	0.795822	mountain	1	1	0.549499	0.549499	0	0	1	0	CommissionError	1.600297	1.159483	0
267.073730	0.795766	city	9	1	0.569353	0.569353	0	1	0	0	CorrectCommission	1.438180	1.139365	0
267.869537	0.795813	city	1	1	0.848245	0.848245	0	1	0	0	CorrectCommission	0.839150	1.107965	0
268.665314	0.795775	city	7	1	0.946998	0.946998	0	1	0	0	CorrectCommission	1.645538	1.066520	0
269.461151	0.795848	city	5	1	0.898113	0.898113	0	1	0	0	CorrectCommission	1.246357	1.016843	0
270.256958	0.795782	city	10	1	0.854479	0.854479	0	1	0	0	CorrectCommission	0.890063	0.961262	0
271.052734	0.795763	mountain	4	0	0.000000	0.843952	1	0	0	0	CorrectOmission	0.804097	0.902418	0
271.848541	0.795856	city	9	1	0.798676	0.798676	0	1	0	0	CorrectCommission	0.434392	0.843072	0
272.644348	0.795754	city	6	1	0.650799	0.650799	0	1	0	0	CorrectCommission	0.773119	0.785990	0
273.440277	0.796105	city	5	1	0.599654	0.599654	0	1	0	0	CorrectCommission	1.190752	0.733753	1
274.236237	0.795800	city	4	1	0.747748	0.747748	0	1	0	0	CorrectCommission	0.018531	0.688608	1
275.031860	0.795507	city	9	1	0.847470	0.847470	0	1	0	0	CorrectCommission	0.832826	0.652402	1
275.827515	0.795793	city	6	1	0.699246	0.699246	0	1	0	0	CorrectCommission	0.377522	0.626314	1
276.623322	0.795822	city	7	1	0.748152	0.748152	0	1	0	0	CorrectCommission	0.021833	0.611061	1
277.419159	0.795828	city	1	1	0.698290	0.698290	0	1	0	0	CorrectCommission	0.385327	0.606668	1
278.214935	0.795724	city	7	1	0.748469	0.748469	0	1	0	0	CorrectCommission	0.024419	0.612497	1
279.010742	0.795892	city	3	1	0.804648	0.804648	0	1	0	0	CorrectCommission	0.483156	0.627489	1
279.806580	0.795754	city	10	1	0.649261	0.649261	0	1	0	0	CorrectCommission	0.785681	0.649983	1
280.602356	0.795827	city	2	1	0.847795	0.847795	0	1	0	0	CorrectCommission	0.835479	0.678120	1
281.398163	0.795791	city	7	1	0.751025	0.751025	0	1	0	0	CorrectCommission	0.045287	0.709993	1
282.194092	0.796092	city	3	1	0.549309	0.549309	0	1	0	0	CorrectCommission	1.601854	0.743736	1
282.989899	0.795506	city	9	1	0.600561	0.600561	0	1	0	0	CorrectCommission	1.183344	0.777676	0
283.785706	0.796115	city	1	1	0.662407	0.662407	0	1	0	0	CorrectCommission	0.678333	0.810540	0
284.581512	0.795493	city	9	1	0.648572	0.648572	0	1	0	0	CorrectCommission	0.791305	0.841435	0
285.377167	0.795798	city	2	1	0.613280	0.613280	0	1	0	0	CorrectCommission	1.079491	0.869825	0
286.173126	0.796103	city	5	1	0.698360	0.698360	0	1	0	0	CorrectCommission	0.384753	0.895499	0
286.968872	0.795440	mountain	10	0	0.000000	0.862171	1	0	0	0	CorrectOmission	0.952869	0.918482	0
287.764557	0.795893	city	4	1	0.898125	0.898125	0	1	0	0	CorrectCommission	1.246454	0.938899	0
288.560547	0.796072	city	10	1	0.599634	0.599634	0	1	0	0	CorrectCommission	1.190915	0.956909	0
289.356323	0.795526	city	2	1	0.563566	0.563566	0	1	0	0	CorrectCommission	1.485437	0.972622	0
290.151978	0.795764	city	7	1	0.701257	0.701257	0	1	0	0	CorrectCommission	0.361095	0.985981	0
290.947754	0.795755	city	3	1	0.748509	0.748509	0	1	0	0	CorrectCommission	0.024747	0.996790	0
291.743561	0.795884	city	6	1	0.998908	0.998908	0	1	0	0	CorrectCommission	2.069419	1.004673	0
292.539398	0.795799	city	7	1	0.651132	0.651132	0	1	0	0	CorrectCommission	0.770398	1.009019	0
293.335205	0.795829	city	10	1	0.797957	0.797957	0	1	0	0	CorrectCommission	0.428522	1.009241	0
294.131165	0.796063	city	7	1	1.046870	1.046870	0	1	0	0	CorrectCommission	2.461057	1.004757	0
294.926910	0.795456	mountain	1	0	0.000000	0.897125	1	0	0	0	CorrectOmission	1.238287	0.994984	0
295.722565	0.795829	city	10	1	0.748328	0.748328	0	1	0	0	CorrectCommission	0.023265	0.979664	0
296.518372	0.795814	city	4	1	1.000087	1.000087	0	1	0	0	CorrectCommission	2.079041	0.958882	0
297.314148	0.795741	city	8	1	0.702825	0.702825	0	1	0	0	CorrectCommission	0.348297	0.932864	0
298.109985	0.795883	city	6	1	0.669310	0.669310	0	1	0	0	CorrectCommission	0.621969	0.902363	0
298.905792	0.795778	city	1	1	0.599043	0.599043	0	1	0	0	CorrectCommission	1.195740	0.868440	0
299.701569	0.795740	city	6	1	0.599700	0.599700	0	1	0	0	CorrectCommission	1.190378	0.832454	0
300.497345	0.795818	mountain	6	0	0.000000	0.815435	1	0	0	0	CorrectOmission	0.571239	0.796062	0
301.293213	0.795893	city	3	1	0.948757	0.948757	0	1	0	0	CorrectCommission	1.659898	0.761129	0
302.089050	0.795795	city	9	1	0.702173	0.702173	0	1	0	0	CorrectCommission	0.353615	0.729492	1
302.884827	0.795771	city	4	1	0.762774	0.762774	0	1	0	0	CorrectCommission	0.141228	0.702882	1
303.680634	0.795837	city	5	1	0.698680	0.698680	0	1	0	0	CorrectCommission	0.382140	0.682749	1
304.476562	0.796057	city	6	1	0.698269	0.698269	0	1	0	0	CorrectCommission	0.385496	0.670086	1
305.272339	0.795497	mountain	4	0	0.000000	0.774430	1	0	0	0	CorrectOmission	0.236409	0.665398	1
306.068146	0.796111	city	6	1	0.812629	0.812629	0	1	0	0	CorrectCommission	0.548325	0.668699	1
306.864105	0.795808	city	3	1	0.698330	0.698330	0	1	0	0	CorrectCommission	0.384997	0.679541	1
307.659912	0.795789	city	8	1	0.608147	0.608147	0	1	0	0	CorrectCommission	1.121405	0.697191	1
308.455658	0.795705	city	4	1	0.797449	0.797449	0	1	0	0	CorrectCommission	0.424368	0.720774	1
309.251465	0.795910	city	5	1	0.652697	0.652697	0	1	0	0	CorrectCommission	0.757620	0.749469	1
310.047180	0.795508	city	1	1	0.812146	0.812146	0	1	0	0	CorrectCommission	0.544378	0.782619	0
310.842957	0.796063	city	2	1	0.812240	0.812240	0	1	0	0	CorrectCommission	0.545153	0.819857	0
311.638885	0.795805	city	9	1	1.106062	1.106062	0	1	0	0	CorrectCommission	2.944397	0.860962	0
312.434570	0.795523	city	3	1	0.797608	0.797608	0	1	0	0	CorrectCommission	0.425674	0.905686	0
313.230225	0.795817	city	7	1	0.665991	0.665991	0	1	0	0	CorrectCommission	0.649069	0.953868	0
314.026031	0.795779	city	5	1	0.758028	0.758028	0	1	0	0	CorrectCommission	0.102475	1.004778	0
314.821991	0.796114	city	1	1	0.798450	0.798450	0	1	0	0	CorrectCommission	0.432549	1.057161	0
315.617798	0.795522	city	5	1	0.847548	0.847548	0	1	0	0	CorrectCommission	0.833462	1.109022	0
316.413422	0.795734	city	10	1	0.900099	0.900099	0	1	0	0	CorrectCommission	1.262574	1.157612	0
317.209198	0.795841	city	7	1	0.951507	0.951507	0	1	0	0	CorrectCommission	1.682357	1.199666	0
318.005005	0.795775	city	4	1	0.801312	0.801312	0	1	0	0	CorrectCommission	0.455916	1.231749	0
318.800842	0.795867	city	7	1	0.549166	0.549166	0	1	0	0	CorrectCommission	1.603021	1.250725	0
319.596649	0.795749	city	4	1	0.499589	0.499589	0	1	0	0	CorrectCommission	2.007851	1.254123	0
320.392395	0.795764	city	7	1	0.406626	0.406626	0	1	0	0	CorrectCommission	2.766952	1.240703	0
321.188202	0.795854	city	2	1	0.400253	0.400253	0	1	0	0	CorrectCommission	2.818989	1.210667	0
321.984192	0.796082	city	5	1	0.456931	0.456931	0	1	0	0	CorrectCommission	2.356180	1.165809	0
322.779999	0.795535	city	4	1	0.650542	0.650542	0	1	0	0	CorrectCommission	0.775220	1.109439	0
323.575623	0.795738	city	2	1	0.748145	0.748145	0	1	0	0	CorrectCommission	0.021771	1.045954	0
324.371429	0.795868	city	1	1	0.797858	0.797858	0	1	0	0	CorrectCommission	0.427709	0.980424	0
325.167267	0.795782	mountain	6	0	0.000000	0.732241	1	0	0	0	CorrectOmission	0.108095	0.917911	0
325.963196	0.796088	city	3	1	0.699546	0.699546	0	1	0	0	CorrectCommission	0.375072	0.863043	0
326.758972	0.795505	city	2	1	0.848024	0.848024	0	1	0	0	CorrectCommission	0.837346	0.819509	0
327.554657	0.795859	city	1	1	0.748312	0.748312	0	1	0	0	CorrectCommission	0.023136	0.789758	0
328.350464	0.795720	city	4	1	0.649575	0.649575	0	1	0	0	CorrectCommission	0.783118	0.774936	0
329.146240	0.795814	city	7	1	0.660609	0.660609	0	1	0	0	CorrectCommission	0.693019	0.774708	0
329.942047	0.795821	city	8	1	0.665801	0.665801	0	1	0	0	CorrectCommission	0.650618	0.787648	0
330.737823	0.795756	city	5	1	0.599108	0.599108	0	1	0	0	CorrectCommission	1.195208	0.811304	0
331.533600	0.795788	city	4	1	0.755464	0.755464	0	1	0	0	CorrectCommission	0.081535	0.842529	0
332.329437	0.795872	city	7	1	0.798109	0.798109	0	1	0	0	CorrectCommission	0.429761	0.877827	0
333.125275	0.795815	city	5	1	0.649543	0.649543	0	1	0	0	CorrectCommission	0.783377	0.913568	0
333.921234	0.796080	city	6	1	0.965925	0.965925	0	1	0	0	CorrectCommission	1.800086	0.946399	0
334.717010	0.795498	city	9	1	0.602839	0.602839	0	1	0	0	CorrectCommission	1.164747	0.973380	0
335.512665	0.795817	city	6	1	0.549749	0.549749	0	1	0	0	CorrectCommission	1.598257	0.992411	0
336.308472	0.795803	city	1	1	0.598754	0.598754	0	1	0	0	CorrectCommission	1.198102	1.002162	0
337.104309	0.795831	mountain	9	0	0.000000	0.848896	1	0	0	0	CorrectOmission	0.844470	1.002256	0
337.900085	0.795773	city	2	1	1.003722	1.003722	0	1	0	0	CorrectCommission	2.108728	0.993217	0
338.695862	0.795728	city	1	1	0.766780	0.766780	0	1	0	0	CorrectCommission	0.173940	0.976278	0
339.491608	0.795800	city	7	1	0.947764	0.947764	0	1	0	0	CorrectCommission	1.651794	0.953362	0
340.287445	0.795854	city	3	1	0.897598	0.897598	0	1	0	0	CorrectCommission	1.242151	0.926643	0
341.083435	0.796120	city	9	1	0.798041	0.798041	0	1	0	0	CorrectCommission	0.429209	0.898451	0
341.879242	0.795481	city	5	1	0.649408	0.649408	0	1	0	0	CorrectCommission	0.784483	0.870919	0
342.674866	0.795799	city	3	1	0.798548	0.798548	0	1	0	0	CorrectCommission	0.433348	0.845719	0
343.470673	0.795814	mountain	1	0	0.000000	0.741200	1	0	0	0	CorrectOmission	0.034938	0.823960	0
344.266479	0.795824	city	2	1	0.699993	0.699993	0	1	0	0	CorrectCommission	0.371423	0.806101	0
345.062317	0.795795	city	10	1	0.897556	0.897556	0	1	0	0	CorrectCommission	1.241811	0.792025	0
345.858124	0.795824	city	8	1	0.648819	0.648819	0	1	0	0	CorrectCommission	0.789292	0.781101	0
346.653900	0.795765	mountain	1	0	0.000000	0.588530	1	0	0	0	CorrectOmission	1.281588	0.772528	0
347.449677	0.795745	city	2	1	0.658151	0.658151	0	1	0	0	CorrectCommission	0.713084	0.765420	0
348.245483	0.795864	city	6	1	0.799144	0.799144	0	1	0	0	CorrectCommission	0.438216	0.759091	1
349.041290	0.795780	city	5	1	0.947566	0.947566	0	1	0	0	CorrectCommission	1.650176	0.753186	1
349.837067	0.795765	city	10	1	0.798124	0.798124	0	1	0	0	CorrectCommission	0.429884	0.747663	1
350.632874	0.795830	city	5	1	0.847853	0.847853	0	1	0	0	CorrectCommission	0.835951	0.742960	1
351.428680	0.795831	city	3	1	0.801746	0.801746	0	1	0	0	CorrectCommission	0.459462	0.739643	1
352.224518	0.795834	city	2	1	0.798558	0.798558	0	1	0	0	CorrectCommission	0.433428	0.738511	1
353.020325	0.795759	city	1	1	0.897164	0.897164	0	1	0	0	CorrectCommission	1.238607	0.740296	1
353.816101	0.795829	mountain	4	0	0.000000	0.839175	1	0	0	0	CorrectOmission	0.765090	0.745514	1
354.611938	0.795810	city	3	1	0.748306	0.748306	0	1	0	0	CorrectCommission	0.023089	0.754460	1
355.407745	0.795807	city	8	1	0.748273	0.748273	0	1	0	0	CorrectCommission	0.022816	0.767096	0
356.203522	0.795781	mountain	7	0	0.000000	0.822731	1	0	0	0	CorrectOmission	0.630819	0.783065	0
356.999298	0.795748	city	4	1	0.897933	0.897933	0	1	0	0	CorrectCommission	1.244886	0.801771	0
357.795105	0.795864	mountain	1	0	0.000000	0.900127	1	0	0	0	CorrectOmission	1.262806	0.822466	0
358.591064	0.796060	mountain	8	0	0.000000	0.872241	1	0	0	0	CorrectOmission	1.035096	0.844474	0
359.386871	0.795526	city	1	1	0.857200	0.857200	0	1	0	0	CorrectCommission	0.912276	0.867240	0
360.182526	0.795799	city	7	1	0.897930	0.897930	0	1	0	0	CorrectCommission	1.244865	0.890365	0
360.978485	0.796097	city	3	1	0.797764	0.797764	0	1	0	0	CorrectCommission	0.426942	0.913593	0
361.774414	0.795808	city	9	1	0.914197	0.914197	0	1	0	0	CorrectCommission	1.377696	0.936835	0
362.570099	0.795512	city	4	1	0.797669	0.797669	0	1	0	0	CorrectCommission	0.426166	0.959943	0
363.365875	0.796068	city	2	1	0.658457	0.658457	0	1	0	0	CorrectCommission	0.710587	0.982784	0
364.161804	0.795815	city	3	1	0.649043	0.649043	0	1	0	0	CorrectCommission	0.787458	1.005038	0
364.957489	0.795508	city	10	1	0.648929	0.648929	0	1	0	0	CorrectCommission	0.788393	1.026243	0
365.753143	0.795811	city	4	1	0.997555	0.997555	0	1	0	0	CorrectCommission	2.058368	1.045884	0
366.548920	0.795771	city	9	1	0.698509	0.698509	0	1	0	0	CorrectCommission	0.383536	1.063378	0
367.344727	0.795845	city	10	1	0.549164	0.549164	0	1	0	0	CorrectCommission	1.603035	1.078376	0
368.140533	0.795762	city	5	1	0.552298	0.552298	0	1	0	0	CorrectCommission	1.577444	1.090641	0
368.936340	0.795829	city	4	1	0.648826	0.648826	0	1	0	0	CorrectCommission	0.789235	1.100255	0
369.732117	0.795754	city	5	1	0.648517	0.648517	0	1	0	0	CorrectCommission	0.791754	1.107589	0
370.528046	0.796106	city	6	1	0.997487	0.997487	0	1	0	0	CorrectCommission	2.057811	1.113158	0
371.323853	0.795473	city	2	1	0.660780	0.660780	0	1	0	0	CorrectCommission	0.691623	1.117517	0
372.119507	0.795840	city	1	1	0.499456	0.499456	0	1	0	0	CorrectCommission	2.008932	1.121210	0
372.915344	0.795820	city	4	1	0.698807	0.698807	0	1	0	0	CorrectCommission	0.381100	1.124391	0
373.711121	0.795753	city	1	1	0.798545	0.798545	0	1	0	0	CorrectCommission	0.433321	1.126921	0
374.507080	0.796151	city	5	1	0.613812	0.613812	0	1	0	0	CorrectCommission	1.075145	1.128051	0
375.302856	0.795452	city	9	1	0.660609	0.660609	0	1	0	0	CorrectCommission	0.693015	1.126560	0
376.098541	0.795891	city	4	1	0.699259	0.699259	0	1	0	0	CorrectCommission	0.377416	1.120931	0
376.894379	0.795800	city	10	1	0.561578	0.561578	0	1	0	0	CorrectCommission	1.501669	1.109609	0
377.690155	0.795727	city	6	1	0.452419	0.452419	0	1	0	0	CorrectCommission	2.393025	1.091177	0
378.485931	0.795827	city	5	1	0.449642	0.449642	0	1	0	0	CorrectCommission	2.415695	1.064801	0
379.281769	0.795835	city	3	1	0.506590	0.506590	0	1	0	0	CorrectCommission	1.950681	1.030415	0
380.077728	0.796080	city	10	1	0.699195	0.699195	0	1	0	0	CorrectCommission	0.377936	0.988838	0
380.873505	0.795503	city	6	1	0.797663	0.797663	0	1	0	0	CorrectCommission	0.426121	0.941764	0
381.669159	0.795825	city	8	1	0.849400	0.849400	0	1	0	0	CorrectCommission	0.848583	0.891505	0
382.464966	0.795755	city	5	1	0.701755	0.701755	0	1	0	0	CorrectCommission	0.357030	0.840768	0
383.260895	0.796103	city	6	1	0.860071	0.860071	0	1	0	0	CorrectCommission	0.935725	0.792360	0
384.056732	0.795561	mountain	8	0	0.000000	0.864000	1	0	0	0	CorrectOmission	0.967802	0.748853	1
384.852539	0.796064	mountain	10	0	0.000000	0.798371	1	0	0	0	CorrectOmission	0.431903	0.712310	1
385.648285	0.795456	city	8	1	0.748017	0.748017	0	1	0	0	CorrectCommission	0.020730	0.684108	1
386.444092	0.796143	city	9	1	0.797769	0.797769	0	1	0	0	CorrectCommission	0.426988	0.664878	1
387.239929	0.795505	city	3	1	0.748016	0.748016	0	1	0	0	CorrectCommission	0.020723	0.654418	1
388.035553	0.795791	city	5	1	0.748415	0.748415	0	1	0	0	CorrectCommission	0.023976	0.651888	1
388.831390	0.795854	city	6	1	0.956768	0.956768	0	1	0	0	CorrectCommission	1.725315	0.655973	1
389.627350	0.796064	city	5	1	0.653454	0.653454	0	1	0	0	CorrectCommission	0.751437	0.665022	1
390.423126	0.795517	mountain	1	0	0.000000	0.641805	1	0	0	0	CorrectOmission	0.846560	0.677486	1
391.218781	0.795746	city	2	1	0.698235	0.698235	0	1	0	0	CorrectCommission	0.385771	0.691893	1
392.014557	0.795848	city	1	1	0.599160	0.599160	0	1	0	0	CorrectCommission	1.194784	0.707054	1
392.810394	0.795789	city	8	1	0.702720	0.702720	0	1	0	0	CorrectCommission	0.349152	0.722040	1
393.606171	0.795814	mountain	10	0	0.000000	0.831916	1	0	0	0	CorrectOmission	0.705820	0.736257	1
394.401978	0.795784	city	7	1	0.897523	0.897523	0	1	0	0	CorrectCommission	1.241545	0.749247	1
395.197815	0.795851	city	1	1	0.810316	0.810316	0	1	0	0	CorrectCommission	0.529439	0.760604	0
395.993744	0.796063	city	8	1	0.809505	0.809505	0	1	0	0	CorrectCommission	0.522814	0.769971	0
396.789551	0.795532	city	6	1	0.847448	0.847448	0	1	0	0	CorrectCommission	0.832645	0.776873	0
397.585205	0.795748	city	2	1	0.698722	0.698722	0	1	0	0	CorrectCommission	0.381801	0.780743	0
398.380981	0.795835	city	9	1	0.898178	0.898178	0	1	0	0	CorrectCommission	1.246892	0.780958	0
399.176819	0.795835	city	6	1	0.663396	0.663396	0	1	0	0	CorrectCommission	0.670255	0.776867	0
399.972626	0.795781	city	7	1	0.862494	0.862494	0	1	0	0	CorrectCommission	0.955504	0.768002	0
400.768402	0.795781	city	10	1	0.848276	0.848276	0	1	0	0	CorrectCommission	0.839406	0.754168	1
401.564209	0.795802	city	5	1	0.963876	0.963876	0	1	0	0	CorrectCommission	1.783359	0.735614	1
402.359985	0.795790	mountain	10	0	0.000000	0.783899	1	0	0	0	CorrectOmission	0.313725	0.713052	1
403.155792	0.795811	city	8	1	0.611039	0.611039	0	1	0	0	CorrectCommission	1.097789	0.687880	1
403.951599	0.795795	city	5	1	0.747992	0.747992	0	1	0	0	CorrectCommission	0.020524	0.661922	1
404.747559	0.796095	city	7	1	0.848426	0.848426	0	1	0	0	CorrectCommission	0.840631	0.637511	1
405.543335	0.795505	city	4	1	0.864513	0.864513	0	1	0	0	CorrectCommission	0.971991	0.617223	1
406.339142	0.796095	city	5	1	0.748091	0.748091	0	1	0	0	CorrectCommission	0.021330	0.603647	1
407.134949	0.795519	city	10	1	0.797410	0.797410	0	1	0	0	CorrectCommission	0.424057	0.599249	1
407.930603	0.795746	city	3	1	0.699895	0.699895	0	1	0	0	CorrectCommission	0.372218	0.605950	1
408.726349	0.795798	city	8	1	0.750891	0.750891	0	1	0	0	CorrectCommission	0.044196	0.624957	1
409.522186	0.795830	city	9	1	0.699193	0.699193	0	1	0	0	CorrectCommission	0.377950	0.656535	1
410.317993	0.795823	mountain	1	0	0.000000	0.764607	1	0	0	0	CorrectOmission	0.156198	0.699869	1
411.113800	0.795762	city	4	1	0.847544	0.847544	0	1	0	0	CorrectCommission	0.833427	0.753045	1
411.909576	0.795796	city	9	1	0.848413	0.848413	0	1	0	0	CorrectCommission	0.840523	0.813076	0
412.705536	0.796153	mountain	10	0	0.000000	0.803837	1	0	0	0	CorrectOmission	0.476535	0.876196	0
413.501343	0.795442	city	1	1	0.797801	0.797801	0	1	0	0	CorrectCommission	0.427245	0.938170	0
414.297150	0.796166	city	10	1	0.914288	0.914288	0	1	0	0	CorrectCommission	1.378435	0.994596	0
415.092987	0.795526	city	9	1	0.648623	0.648623	0	1	0	0	CorrectCommission	0.790891	1.041372	0
415.888794	0.796070	city	3	1	0.499715	0.499715	0	1	0	0	CorrectCommission	2.006817	1.075216	0
416.684723	0.795804	city	2	1	0.399963	0.399963	0	1	0	0	CorrectCommission	2.821356	1.093900	0
417.480347	0.795454	city	5	1	0.549423	0.549423	0	1	0	0	CorrectCommission	1.600918	1.096603	0
418.276001	0.795856	city	10	1	0.499621	0.499621	0	1	0	0	CorrectCommission	2.007585	1.084005	0
419.071991	0.796086	mountain	10	0	0.000000	0.599284	1	0	0	0	CorrectOmission	1.193771	1.058010	0
419.867767	0.795457	city	1	1	0.698871	0.698871	0	1	0	0	CorrectCommission	0.380584	1.021660	0
420.663422	0.795855	city	2	1	0.648839	0.648839	0	1	0	0	CorrectCommission	0.789129	0.978604	0
421.459381	0.796095	city	7	1	0.798009	0.798009	0	1	0	0	CorrectCommission	0.428947	0.932677	0
422.255157	0.795462	city	1	1	0.648351	0.648351	0	1	0	0	CorrectCommission	0.793111	0.887460	0
423.050842	0.795894	mountain	4	0	0.000000	0.666561	1	0	0	0	CorrectOmission	0.644409	0.845881	0
423.846680	0.795752	mountain	6	0	0.000000	0.763615	1	0	0	0	CorrectOmission	0.148092	0.810047	0
424.642426	0.795752	city	2	1	0.850483	0.850483	0	1	0	0	CorrectCommission	0.857431	0.781127	0
425.438202	0.795814	mountain	5	0	0.000000	0.838141	1	0	0	0	CorrectOmission	0.756649	0.759284	0
426.234039	0.795865	city	1	1	0.798106	0.798106	0	1	0	0	CorrectCommission	0.429733	0.743994	1
427.029877	0.795802	city	10	1	0.801895	0.801895	0	1	0	0	CorrectCommission	0.460674	0.734170	1
427.825684	0.795802	city	9	1	0.649021	0.649021	0	1	0	0	CorrectCommission	0.787637	0.728499	1
428.621613	0.796079	city	2	1	0.517698	0.517698	0	1	0	0	CorrectCommission	1.859980	0.725676	1
429.417419	0.795513	city	7	1	0.848242	0.848242	0	1	0	0	CorrectCommission	0.839130	0.724543	1
430.213074	0.795786	city	1	1	0.750474	0.750474	0	1	0	0	CorrectCommission	0.040792	0.724354	1
431.008881	0.795849	city	4	1	0.847795	0.847795	0	1	0	0	CorrectCommission	0.835481	0.724816	1
431.804810	0.796005	city	2	1	0.715516	0.715516	0	1	0	0	CorrectCommission	0.244665	0.725905	1
432.600586	0.795547	city	4	1	0.912878	0.912878	0	1	0	0	CorrectCommission	1.366928	0.727967	1
433.396240	0.795801	city	1	1	0.859823	0.859823	0	1	0	0	CorrectCommission	0.933695	0.731471	1
434.192200	0.796094	city	7	1	0.797714	0.797714	0	1	0	0	CorrectCommission	0.426539	0.736923	1
434.988037	0.795562	city	8	1	0.698478	0.698478	0	1	0	0	CorrectCommission	0.383794	0.744846	1
435.783691	0.795756	city	7	1	0.701573	0.701573	0	1	0	0	CorrectCommission	0.358517	0.755474	1
436.579468	0.795822	city	1	1	0.649549	0.649549	0	1	0	0	CorrectCommission	0.783323	0.768854	0
437.375275	0.795777	city	7	1	0.847622	0.847622	0	1	0	0	CorrectCommission	0.834070	0.784755	0
438.171204	0.796106	mountain	9	0	0.000000	0.863735	1	0	0	0	CorrectOmission	0.965641	0.802684	0
438.967010	0.795502	city	5	1	0.847173	0.847173	0	1	0	0	CorrectCommission	0.830400	0.821940	0
439.762665	0.795767	city	8	1	0.947221	0.947221	0	1	0	0	CorrectCommission	1.647358	0.841646	0
440.558594	0.796116	city	5	1	0.748549	0.748549	0	1	0	0	CorrectCommission	0.025074	0.860779	0
441.354401	0.795520	city	6	1	0.857631	0.857631	0	1	0	0	CorrectCommission	0.915795	0.878368	0
442.150055	0.795782	city	9	1	0.748941	0.748941	0	1	0	0	CorrectCommission	0.028273	0.893333	0
442.945862	0.795821	city	5	1	0.599015	0.599015	0	1	0	0	CorrectCommission	1.195968	0.904702	0
443.741821	0.796087	mountain	4	1	0.450428	0.450428	0	0	1	0	CommissionError	2.409280	0.911550	0
444.537628	0.795523	city	8	1	0.612836	0.612836	0	1	0	0	CorrectCommission	1.083115	0.913099	0
445.333282	0.795812	city	10	1	0.748487	0.748487	0	1	0	0	CorrectCommission	0.024563	0.908829	0
446.129242	0.796071	city	8	1	0.947790	0.947790	0	1	0	0	CorrectCommission	1.652007	0.898398	0
446.925049	0.795534	city	4	1	0.851522	0.851522	0	1	0	0	CorrectCommission	0.865915	0.881614	0
447.720703	0.795803	city	8	1	0.698211	0.698211	0	1	0	0	CorrectCommission	0.385969	0.858675	0
448.516510	0.795789	city	7	1	0.602098	0.602098	0	1	0	0	CorrectCommission	1.170793	0.830011	0
449.312286	0.795795	city	10	1	0.710531	0.710531	0	1	0	0	CorrectCommission	0.285367	0.796314	0
450.108093	0.795829	city	7	1	1.003813	1.003813	0	1	0	0	CorrectCommission	2.109471	0.758663	1
450.903900	0.795773	city	5	1	0.748037	0.748037	0	1	0	0	CorrectCommission	0.020892	0.718425	1
451.699707	0.795839	city	9	1	0.611108	0.611108	0	1	0	0	CorrectCommission	1.097221	0.677428	1
452.495483	0.795726	city	7	1	0.649361	0.649361	0	1	0	0	CorrectCommission	0.784862	0.637714	1
453.291290	0.795874	mountain	9	0	0.000000	0.671948	1	0	0	0	CorrectOmission	0.600422	0.601564	1
454.087097	0.795712	city	3	1	0.698528	0.698528	0	1	0	0	CorrectCommission	0.383380	0.571303	1
454.882843	0.795813	city	1	1	0.748759	0.748759	0	1	0	0	CorrectCommission	0.026784	0.549114	1
455.678680	0.795852	city	2	1	0.760109	0.760109	0	1	0	0	CorrectCommission	0.119469	0.536868	1
456.474670	0.796101	city	10	1	0.713016	0.713016	0	1	0	0	CorrectCommission	0.265077	0.535876	1
457.270447	0.795454	city	2	1	0.797820	0.797820	0	1	0	0	CorrectCommission	0.427401	0.546730	1
458.066071	0.795789	city	6	1	0.748902	0.748902	0	1	0	0	CorrectCommission	0.027952	0.569274	1
458.862030	0.796143	city	8	1	0.698771	0.698771	0	1	0	0	CorrectCommission	0.381397	0.602473	1
459.657867	0.795552	city	5	1	0.651292	0.651292	0	1	0	0	CorrectCommission	0.769096	0.644509	1
460.453552	0.795787	city	8	1	0.698366	0.698366	0	1	0	0	CorrectCommission	0.384709	0.692900	1
461.249481	0.796058	city	4	1	0.814632	0.814632	0	1	0	0	CorrectCommission	0.564681	0.744651	1
462.045258	0.795548	city	6	1	0.698952	0.698952	0	1	0	0	CorrectCommission	0.379918	0.796566	0
462.840942	0.795797	mountain	10	1	0.549133	0.549133	0	0	1	0	CommissionError	1.603285	0.845568	0
463.636871	0.796085	city	7	1	0.953802	0.953802	0	1	0	0	CorrectCommission	1.701097	0.888812	0
464.432678	0.795516	city	9	1	0.666732	0.666732	0	1	0	0	CorrectCommission	0.643014	0.924080	0
465.228333	0.795789	city	6	1	0.599053	0.599053	0	1	0	0	CorrectCommission	1.195662	0.949951	0
466.024109	0.795738	mountain	4	1	0.499610	0.499610	0	0	1	0	CommissionError	2.007677	0.965733	0
466.819885	0.795802	mountain	9	1	0.649969	0.649969	0	0	1	0	CommissionError	0.779896	0.971628	0
467.615692	0.795854	city	2	1	0.912180	0.912180	0	1	0	0	CorrectCommission	1.361224	0.968549	0
468.411530	0.795831	city	8	1	0.851412	0.851412	0	1	0	0	CorrectCommission	0.865016	0.957973	0
469.207367	0.795806	city	2	1	0.847742	0.847742	0	1	0	0	CorrectCommission	0.835049	0.941712	0
470.003113	0.795717	mountain	1	0	0.000000	0.688470	1	0	0	0	CorrectOmission	0.465510	0.921671	0
470.798920	0.795903	city	10	1	0.599179	0.599179	0	1	0	0	CorrectCommission	1.194631	0.899626	0
471.594910	0.796057	city	3	1	0.805451	0.805451	0	1	0	0	CorrectCommission	0.489714	0.876978	0
472.390686	0.795502	city	5	1	0.847533	0.847533	0	1	0	0	CorrectCommission	0.833337	0.854711	0
473.186340	0.795798	city	3	1	0.897314	0.897314	0	1	0	0	CorrectCommission	1.239831	0.833227	0
473.982147	0.795809	city	9	1	0.798621	0.798621	0	1	0	0	CorrectCommission	0.433943	0.812393	0
474.777924	0.795771	city	10	1	0.817129	0.817129	0	1	0	0	CorrectCommission	0.585075	0.791626	0
475.573730	0.795809	city	4	1	0.914153	0.914153	0	1	0	0	CorrectCommission	1.377336	0.769954	0
476.369537	0.795834	city	7	1	0.760268	0.760268	0	1	0	0	CorrectCommission	0.120761	0.746135	1
477.165527	0.796099	city	3	1	0.698612	0.698612	0	1	0	0	CorrectCommission	0.382696	0.718963	1
477.961456	0.795764	city	10	1	0.613218	0.613218	0	1	0	0	CorrectCommission	1.079994	0.687291	1
478.757080	0.795527	mountain	10	0	0.000000	0.578998	1	0	0	0	CorrectOmission	1.359419	0.650208	1
479.552765	0.795795	mountain	2	0	0.000000	0.592448	1	0	0	0	CorrectOmission	1.249592	0.607207	1
480.348572	0.795818	city	8	1	0.650063	0.650063	0	1	0	0	CorrectCommission	0.779134	0.558181	1
481.144379	0.795796	city	2	1	0.748336	0.748336	0	1	0	0	CorrectCommission	0.023333	0.503438	1
481.940308	0.796109	city	9	1	0.848541	0.848541	0	1	0	0	CorrectCommission	0.841571	0.443657	1
482.736084	0.795448	city	5	1	0.760288	0.760288	0	1	0	0	CorrectCommission	0.120928	0.379622	1
483.531738	0.795808	city	6	1	0.748348	0.748348	0	1	0	0	CorrectCommission	0.023432	0.312259	1
484.327545	0.795834	city	3	1	0.748901	0.748901	0	1	0	0	CorrectCommission	0.027944	0.242480	1
485.123322	0.795747	city	8	1	0.798660	0.798660	0	1	0	0	CorrectCommission	0.434263	0.171044	1
485.919281	0.796165	mountain	6	0	0.000000	0.788597	1	0	0	0	CorrectOmission	0.352091	0.098595	1
486.715149	0.795537	city	8	1	0.748623	0.748623	0	1	0	0	CorrectCommission	0.025673	0.025673	1
