onset	duration	trial_type	image_type	Press	ReactionTime	ReactionTime_Interpolated	CorrectOmission	CorrectCommission	CommissionError	OmissionError	response_type	nonsmoothVarianceTimeCourse	VarianceTimeCourse	In_the_Zone
8.421753	0.795747	city	7	1	0.760696	0.760696	0	1	0	0	CorrectCommission	0.243205	0.243205	1
9.217534	0.795815	city	8	1	0.510767	0.510767	0	1	0	0	CorrectCommission	1.766131	0.330625	1
10.013354	0.795827	mountain	1	1	0.599796	0.599796	0	0	1	0	CommissionError	1.223641	0.413217	1
10.809308	0.796081	city	1	1	0.549546	0.549546	0	1	0	0	CorrectCommission	1.529839	0.486874	1
11.605250	0.795803	city	8	1	0.607628	0.607628	0	1	0	0	CorrectCommission	1.175918	0.548587	1
12.400921	0.795538	city	3	1	0.698686	0.698686	0	1	0	0	CorrectCommission	0.621063	0.596875	1
13.196540	0.795700	city	5	1	1.047142	1.047142	0	1	0	0	CorrectCommission	1.502237	0.631756	1
13.992333	0.795887	city	10	1	0.797912	0.797912	0	1	0	0	CorrectCommission	0.016434	0.654661	1
14.788177	0.795799	city	8	1	0.616353	0.616353	0	1	0	0	CorrectCommission	1.122752	0.668164	1
15.583984	0.795818	city	2	1	0.648804	0.648804	0	1	0	0	CorrectCommission	0.925014	0.675339	1
16.379793	0.795798	city	8	1	0.765985	0.765985	0	1	0	0	CorrectCommission	0.210981	0.679383	1
17.175573	0.795764	city	10	1	0.748085	0.748085	0	1	0	0	CorrectCommission	0.320048	0.683135	1
17.971361	0.795810	city	1	1	0.749154	0.749154	0	1	0	0	CorrectCommission	0.313538	0.688555	1
18.767168	0.795803	mountain	3	0	0.000000	0.814861	1	0	0	0	CorrectOmission	0.086844	0.696646	1
19.562958	0.795777	city	3	1	0.847768	0.847768	0	1	0	0	CorrectCommission	0.287364	0.707366	1
20.358763	0.795832	mountain	8	1	0.750438	0.750438	0	0	1	0	CommissionError	0.305715	0.719732	1
21.154718	0.796079	city	9	1	0.766794	0.766794	0	1	0	0	CorrectCommission	0.206045	0.732240	1
21.950506	0.795500	city	8	1	1.145651	1.145651	0	1	0	0	CorrectCommission	2.102493	0.743188	1
22.746296	0.796079	city	4	1	1.195922	1.195922	0	1	0	0	CorrectCommission	2.408815	0.750990	1
23.542110	0.795551	city	10	0	0.000000	1.046732	0	0	0	1	OmissionError	1.499735	0.754591	1
24.337784	0.795794	mountain	2	0	0.000000	0.847614	1	0	0	0	CorrectOmission	0.286423	0.753624	1
25.133545	0.795728	city	7	1	0.748102	0.748102	0	1	0	0	CorrectCommission	0.319950	0.748415	1
25.929342	0.795867	city	4	1	0.897728	0.897728	0	1	0	0	CorrectCommission	0.591787	0.739799	1
26.725176	0.795801	city	7	1	0.805684	0.805684	0	1	0	0	CorrectCommission	0.030925	0.728886	1
27.521118	0.796082	city	6	1	0.948068	0.948068	0	1	0	0	CorrectCommission	0.898533	0.716945	1
28.317039	0.795763	city	7	1	0.750578	0.750578	0	1	0	0	CorrectCommission	0.304861	0.705072	1
29.112675	0.795507	city	6	1	0.613171	0.613171	0	1	0	0	CorrectCommission	1.142141	0.694113	1
29.908487	0.796119	city	8	1	0.699267	0.699267	0	1	0	0	CorrectCommission	0.617523	0.684520	1
30.704290	0.795487	city	9	1	0.851102	0.851102	0	1	0	0	CorrectCommission	0.307676	0.676424	1
31.500111	0.796153	city	3	1	0.857035	0.857035	0	1	0	0	CorrectCommission	0.343828	0.669704	1
32.295933	0.795488	city	2	1	1.100400	1.100400	0	1	0	0	CorrectCommission	1.826761	0.664010	1
33.091595	0.795838	city	5	1	0.857150	0.857150	0	1	0	0	CorrectCommission	0.344529	0.658884	1
33.887383	0.795734	city	9	1	0.996871	0.996871	0	1	0	0	CorrectCommission	1.195909	0.654007	1
34.683147	0.795799	city	4	1	0.748422	0.748422	0	1	0	0	CorrectCommission	0.317995	0.649029	1
35.478939	0.795783	city	1	1	0.805873	0.805873	0	1	0	0	CorrectCommission	0.032076	0.643756	1
36.274776	0.795893	city	5	1	0.850531	0.850531	0	1	0	0	CorrectCommission	0.304197	0.638066	1
37.070610	0.795774	city	2	1	0.997586	0.997586	0	1	0	0	CorrectCommission	1.200268	0.631846	1
37.866409	0.795823	city	8	1	0.964148	0.964148	0	1	0	0	CorrectCommission	0.996519	0.624971	1
38.662224	0.795808	city	10	1	0.847566	0.847566	0	1	0	0	CorrectCommission	0.286130	0.617328	1
39.457989	0.795721	city	2	1	0.897299	0.897299	0	1	0	0	CorrectCommission	0.589175	0.608735	1
40.253780	0.795860	city	3	1	0.860591	0.860591	0	1	0	0	CorrectCommission	0.365499	0.598917	1
41.049625	0.795830	city	9	1	0.996846	0.996846	0	1	0	0	CorrectCommission	1.195758	0.587610	1
41.845558	0.796032	city	4	1	0.854626	0.854626	0	1	0	0	CorrectCommission	0.329148	0.574512	1
42.641338	0.795531	city	1	1	0.720010	0.720010	0	1	0	0	CorrectCommission	0.491125	0.559419	1
43.437012	0.795815	city	7	1	0.959479	0.959479	0	1	0	0	CorrectCommission	0.968065	0.542148	1
44.232803	0.795772	city	3	1	0.859531	0.859531	0	1	0	0	CorrectCommission	0.359038	0.522631	1
45.028740	0.796101	city	2	1	0.813210	0.813210	0	1	0	0	CorrectCommission	0.076784	0.500970	1
45.824535	0.795485	city	4	1	0.946878	0.946878	0	1	0	0	CorrectCommission	0.891280	0.477435	1
46.620216	0.795877	city	8	1	0.698414	0.698414	0	1	0	0	CorrectCommission	0.622718	0.452420	1
47.416008	0.795706	city	1	1	0.749135	0.749135	0	1	0	0	CorrectCommission	0.313651	0.426523	1
48.211800	0.795881	city	5	1	0.698632	0.698632	0	1	0	0	CorrectCommission	0.621390	0.400485	1
49.007767	0.796053	city	6	1	0.901040	0.901040	0	1	0	0	CorrectCommission	0.611972	0.375156	1
49.803558	0.795528	city	7	1	0.801490	0.801490	0	1	0	0	CorrectCommission	0.005372	0.351406	1
50.599232	0.795815	city	5	1	0.810864	0.810864	0	1	0	0	CorrectCommission	0.062487	0.330143	1
51.395180	0.796086	city	10	1	0.847628	0.847628	0	1	0	0	CorrectCommission	0.286512	0.312157	1
52.191116	0.795783	city	1	1	0.813803	0.813803	0	1	0	0	CorrectCommission	0.080397	0.298150	1
52.986771	0.795528	city	9	1	0.850387	0.850387	0	1	0	0	CorrectCommission	0.303322	0.288713	1
53.782574	0.796080	city	7	1	0.797802	0.797802	0	1	0	0	CorrectCommission	0.017104	0.284270	1
54.578369	0.795508	city	1	1	0.848156	0.848156	0	1	0	0	CorrectCommission	0.289726	0.285067	1
55.374001	0.795757	city	8	1	0.759340	0.759340	0	1	0	0	CorrectCommission	0.251470	0.291211	1
56.169804	0.795847	city	7	1	0.699384	0.699384	0	1	0	0	CorrectCommission	0.616808	0.302681	1
56.965611	0.795770	city	6	1	0.799584	0.799584	0	1	0	0	CorrectCommission	0.006243	0.319274	1
57.761406	0.795815	city	7	1	0.748367	0.748367	0	1	0	0	CorrectCommission	0.318330	0.340650	1
58.557240	0.795857	city	4	1	0.848447	0.848447	0	1	0	0	CorrectCommission	0.291500	0.366203	1
59.353062	0.795787	city	7	1	0.798330	0.798330	0	1	0	0	CorrectCommission	0.013884	0.395147	1
60.148991	0.796066	city	10	1	0.711388	0.711388	0	1	0	0	CorrectCommission	0.543664	0.426463	1
60.944752	0.795461	city	1	1	0.756984	0.756984	0	1	0	0	CorrectCommission	0.265828	0.458851	1
61.740433	0.795899	city	7	1	0.897583	0.897583	0	1	0	0	CorrectCommission	0.590904	0.490905	1
62.536285	0.795807	city	8	1	0.748789	0.748789	0	1	0	0	CorrectCommission	0.315762	0.521097	1
63.332088	0.795797	city	5	1	0.848194	0.848194	0	1	0	0	CorrectCommission	0.289959	0.547900	1
64.127846	0.795717	city	1	1	0.997021	0.997021	0	1	0	0	CorrectCommission	1.196827	0.569954	1
64.923607	0.795814	city	2	1	1.062099	1.062099	0	1	0	0	CorrectCommission	1.593375	0.586130	1
65.719406	0.795776	city	3	1	0.897563	0.897563	0	1	0	0	CorrectCommission	0.590785	0.595707	1
66.515381	0.796171	city	2	1	0.755425	0.755425	0	1	0	0	CorrectCommission	0.275325	0.598434	1
67.311180	0.795433	city	4	1	0.900505	0.900505	0	1	0	0	CorrectCommission	0.608714	0.594550	1
68.106827	0.795862	city	9	1	0.655884	0.655884	0	1	0	0	CorrectCommission	0.881871	0.584702	1
68.902634	0.795750	city	1	1	0.652849	0.652849	0	1	0	0	CorrectCommission	0.900365	0.569919	1
69.698441	0.795859	city	7	1	0.798164	0.798164	0	1	0	0	CorrectCommission	0.014900	0.551531	1
70.494415	0.796103	mountain	8	0	0.000000	0.916504	1	0	0	0	CorrectOmission	0.706200	0.531054	1
71.290207	0.795477	city	9	1	0.914505	0.914505	0	1	0	0	CorrectCommission	0.694017	0.509979	1
72.085991	0.796094	city	2	1	0.698800	0.698800	0	1	0	0	CorrectCommission	0.620368	0.489700	1
72.881950	0.795823	city	8	1	0.847276	0.847276	0	1	0	0	CorrectCommission	0.284366	0.471412	1
73.677612	0.795491	city	5	1	0.798305	0.798305	0	1	0	0	CorrectCommission	0.014038	0.455990	1
74.473259	0.795808	city	2	1	0.748138	0.748138	0	1	0	0	CorrectCommission	0.319730	0.443930	1
75.269073	0.795814	city	3	1	0.848258	0.848258	0	1	0	0	CorrectCommission	0.290347	0.435324	1
76.065018	0.796087	city	9	1	0.804347	0.804347	0	1	0	0	CorrectCommission	0.022782	0.429925	1
76.860786	0.795448	mountain	6	1	0.649655	0.649655	0	0	1	0	CommissionError	0.919830	0.427224	1
77.656441	0.795856	city	2	1	0.699129	0.699129	0	1	0	0	CorrectCommission	0.618362	0.426477	1
78.452400	0.796070	city	7	1	0.800976	0.800976	0	1	0	0	CorrectCommission	0.002236	0.426939	1
79.248199	0.795515	city	3	1	0.903383	0.903383	0	1	0	0	CorrectCommission	0.626250	0.427901	1
80.043846	0.795786	city	10	1	0.847652	0.847652	0	1	0	0	CorrectCommission	0.286654	0.428732	1
80.839676	0.795869	city	7	1	0.947174	0.947174	0	1	0	0	CorrectCommission	0.893089	0.429031	1
81.635635	0.796047	city	5	1	0.856816	0.856816	0	1	0	0	CorrectCommission	0.342492	0.428508	1
82.431572	0.795828	city	1	1	0.947067	0.947067	0	1	0	0	CorrectCommission	0.892432	0.427086	1
83.227371	0.795777	city	4	1	0.847934	0.847934	0	1	0	0	CorrectCommission	0.288372	0.424775	1
84.023026	0.795522	city	5	1	0.810967	0.810967	0	1	0	0	CorrectCommission	0.063118	0.421669	1
84.818695	0.795822	city	4	1	0.847601	0.847601	0	1	0	0	CorrectCommission	0.286346	0.417832	1
85.614655	0.796097	city	7	1	0.757437	0.757437	0	1	0	0	CorrectCommission	0.263066	0.413280	1
86.410583	0.795763	city	3	1	0.748002	0.748002	0	1	0	0	CorrectCommission	0.320556	0.407973	1
87.206245	0.795559	city	4	1	0.806363	0.806363	0	1	0	0	CorrectCommission	0.035065	0.401881	1
88.001930	0.795818	city	8	1	0.656529	0.656529	0	1	0	0	CorrectCommission	0.877942	0.395003	1
88.797714	0.795747	city	10	1	0.599756	0.599756	0	1	0	0	CorrectCommission	1.223885	0.387365	1
89.593468	0.795758	city	2	1	0.848399	0.848399	0	1	0	0	CorrectCommission	0.291208	0.379130	1
90.389420	0.796148	city	6	1	0.864423	0.864423	0	1	0	0	CorrectCommission	0.388848	0.370626	1
91.185394	0.795804	city	7	1	0.859352	0.859352	0	1	0	0	CorrectCommission	0.357951	0.362258	1
91.981056	0.795508	city	10	1	0.797555	0.797555	0	1	0	0	CorrectCommission	0.018610	0.354446	1
92.776703	0.795789	city	5	1	0.804445	0.804445	0	1	0	0	CorrectCommission	0.023377	0.347573	1
93.572502	0.795805	city	8	1	0.847703	0.847703	0	1	0	0	CorrectCommission	0.286964	0.341941	1
94.368279	0.795752	city	10	1	0.749059	0.749059	0	1	0	0	CorrectCommission	0.314113	0.337708	1
95.164101	0.795888	city	2	1	0.802339	0.802339	0	1	0	0	CorrectCommission	0.010544	0.334926	1
95.959923	0.795760	city	1	1	0.706661	0.706661	0	1	0	0	CorrectCommission	0.572463	0.333618	1
96.755730	0.795852	city	6	1	0.797916	0.797916	0	1	0	0	CorrectCommission	0.016410	0.333761	1
97.551537	0.795759	city	2	1	0.652260	0.652260	0	1	0	0	CorrectCommission	0.903952	0.335456	1
98.347298	0.795775	city	3	1	0.654423	0.654423	0	1	0	0	CorrectCommission	0.890776	0.338835	1
99.143105	0.795829	city	10	1	0.748057	0.748057	0	1	0	0	CorrectCommission	0.320223	0.344218	1
99.938934	0.795836	city	6	1	0.801799	0.801799	0	1	0	0	CorrectCommission	0.007250	0.351995	1
100.734734	0.795761	city	7	1	0.748174	0.748174	0	1	0	0	CorrectCommission	0.319508	0.362557	1
101.530487	0.795750	city	9	1	0.801444	0.801444	0	1	0	0	CorrectCommission	0.005092	0.376211	1
102.326302	0.795875	city	4	1	0.814445	0.814445	0	1	0	0	CorrectCommission	0.084308	0.393104	1
103.122276	0.796070	city	7	1	0.748504	0.748504	0	1	0	0	CorrectCommission	0.317496	0.413125	1
103.918076	0.795532	city	2	1	0.803335	0.803335	0	1	0	0	CorrectCommission	0.016609	0.435913	1
104.713753	0.795818	city	5	1	0.851799	0.851799	0	1	0	0	CorrectCommission	0.311924	0.460908	1
105.509697	0.796068	mountain	6	0	0.000000	0.707036	1	0	0	0	CorrectOmission	0.570182	0.487346	1
106.305473	0.795495	city	9	1	0.563395	0.563395	0	1	0	0	CorrectCommission	1.445449	0.514375	1
107.101105	0.795758	city	6	1	0.615226	0.615226	0	1	0	0	CorrectCommission	1.129620	0.541169	1
107.896912	0.795867	city	2	1	0.749798	0.749798	0	1	0	0	CorrectCommission	0.309615	0.567009	1
108.692764	0.795828	city	7	1	0.750886	0.750886	0	1	0	0	CorrectCommission	0.302982	0.591267	1
109.488564	0.795783	city	2	1	0.897586	0.897586	0	1	0	0	CorrectCommission	0.590924	0.613400	1
110.284363	0.795804	city	4	1	0.847683	0.847683	0	1	0	0	CorrectCommission	0.286843	0.632892	1
111.080162	0.795794	city	6	1	0.748324	0.748324	0	1	0	0	CorrectCommission	0.318595	0.649263	1
111.875961	0.795808	city	2	1	0.664949	0.664949	0	1	0	0	CorrectCommission	0.826637	0.662026	1
112.671776	0.795822	city	8	1	0.648616	0.648616	0	1	0	0	CorrectCommission	0.926162	0.670699	1
113.467583	0.795790	city	10	1	0.666562	0.666562	0	1	0	0	CorrectCommission	0.816806	0.674822	1
114.263374	0.795803	city	1	1	0.558845	0.558845	0	1	0	0	CorrectCommission	1.473175	0.674060	1
115.059174	0.795789	city	9	1	0.648535	0.648535	0	1	0	0	CorrectCommission	0.926652	0.668173	1
115.854958	0.795773	city	4	1	0.748886	0.748886	0	1	0	0	CorrectCommission	0.315169	0.657118	1
116.650726	0.795778	city	5	1	0.711472	0.711472	0	1	0	0	CorrectCommission	0.543151	0.641085	1
117.446548	0.795856	city	3	1	0.698622	0.698622	0	1	0	0	CorrectCommission	0.621450	0.620443	1
118.242378	0.795809	city	5	1	0.754737	0.754737	0	1	0	0	CorrectCommission	0.279520	0.595756	1
119.038185	0.795800	city	10	1	0.960132	0.960132	0	1	0	0	CorrectCommission	0.972047	0.567782	1
119.833939	0.795715	city	6	1	0.947160	0.947160	0	1	0	0	CorrectCommission	0.892998	0.537432	1
120.629738	0.795877	city	9	1	0.708859	0.708859	0	1	0	0	CorrectCommission	0.559073	0.505791	1
121.425575	0.795799	city	4	1	0.812428	0.812428	0	1	0	0	CorrectCommission	0.072017	0.474101	1
122.221336	0.795727	mountain	8	0	0.000000	0.888726	1	0	0	0	CorrectOmission	0.536936	0.443729	1
123.017159	0.795909	city	5	1	0.897409	0.897409	0	1	0	0	CorrectCommission	0.589847	0.416018	1
123.812981	0.795733	city	7	1	0.798133	0.798133	0	1	0	0	CorrectCommission	0.015087	0.392373	1
124.608757	0.795827	city	2	1	0.897304	0.897304	0	1	0	0	CorrectCommission	0.589204	0.374149	1
125.404549	0.795747	city	7	1	0.798152	0.798152	0	1	0	0	CorrectCommission	0.014971	0.362541	1
126.200333	0.795819	city	3	1	0.812289	0.812289	0	1	0	0	CorrectCommission	0.071175	0.358589	1
126.996170	0.795865	city	10	1	0.748139	0.748139	0	1	0	0	CorrectCommission	0.319722	0.363024	1
127.791992	0.795770	city	2	1	0.748076	0.748076	0	1	0	0	CorrectCommission	0.320105	0.376247	1
128.587769	0.795788	city	4	1	0.801458	0.801458	0	1	0	0	CorrectCommission	0.005175	0.398247	1
129.383713	0.796104	city	3	1	0.798513	0.798513	0	1	0	0	CorrectCommission	0.012772	0.428571	1
130.179520	0.795510	city	10	1	0.897038	0.897038	0	1	0	0	CorrectCommission	0.587587	0.466305	1
130.975143	0.795745	city	8	1	0.797909	0.797909	0	1	0	0	CorrectCommission	0.016450	0.510117	1
131.770966	0.795892	mountain	9	1	0.650491	0.650491	0	0	1	0	CommissionError	0.914736	0.558370	1
132.566803	0.795768	city	8	1	0.648735	0.648735	0	1	0	0	CorrectCommission	0.925432	0.609140	1
133.362595	0.795838	city	5	1	0.658468	0.658468	0	1	0	0	CorrectCommission	0.866126	0.660423	1
134.158401	0.795780	city	10	1	0.798778	0.798778	0	1	0	0	CorrectCommission	0.011157	0.710234	1
134.954208	0.795821	city	5	1	0.897994	0.897994	0	1	0	0	CorrectCommission	0.593409	0.756832	1
135.750015	0.795788	city	9	1	0.947022	0.947022	0	1	0	0	CorrectCommission	0.892158	0.798761	0
136.545822	0.795824	city	2	1	1.015630	1.015630	0	1	0	0	CorrectCommission	1.310218	0.834984	0
137.341766	0.796062	city	6	1	1.149939	1.149939	0	1	0	0	CorrectCommission	2.128622	0.864979	0
138.137512	0.795449	city	1	0	0.000000	0.828983	0	0	0	1	OmissionError	0.172894	0.888723	0
138.933182	0.795882	city	9	1	0.499833	0.499833	0	1	0	0	CorrectCommission	1.832761	0.906829	0
139.729034	0.795811	city	7	1	0.609561	0.609561	0	1	0	0	CorrectCommission	1.164137	0.920141	0
140.524811	0.795756	city	5	1	0.751038	0.751038	0	1	0	0	CorrectCommission	0.302055	0.929813	0
141.320618	0.795839	city	3	1	0.858326	0.858326	0	1	0	0	CorrectCommission	0.351695	0.937075	0
142.116425	0.795803	city	7	1	0.897378	0.897378	0	1	0	0	CorrectCommission	0.589658	0.943000	0
142.912231	0.795781	city	5	1	1.013864	1.013864	0	1	0	0	CorrectCommission	1.299457	0.948432	0
143.708160	0.796077	city	2	1	0.953667	0.953667	0	1	0	0	CorrectCommission	0.932650	0.953859	0
144.504105	0.795816	city	3	1	0.949173	0.949173	0	1	0	0	CorrectCommission	0.905266	0.959479	0
145.299759	0.795513	city	10	1	0.954119	0.954119	0	1	0	0	CorrectCommission	0.935406	0.965150	0
146.095398	0.795756	city	3	1	0.997487	0.997487	0	1	0	0	CorrectCommission	1.199665	0.970484	0
146.891205	0.795841	city	8	1	1.057516	1.057516	0	1	0	0	CorrectCommission	1.565450	0.974936	0
147.687012	0.795790	city	7	1	0.997736	0.997736	0	1	0	0	CorrectCommission	1.201183	0.977881	0
148.482819	0.795805	mountain	7	0	0.000000	0.847150	1	0	0	0	CorrectOmission	0.283597	0.978777	0
149.278763	0.796108	city	6	1	0.798940	0.798940	0	1	0	0	CorrectCommission	0.010166	0.977172	0
150.074570	0.795492	city	2	1	1.046289	1.046289	0	1	0	0	CorrectCommission	1.497038	0.972795	0
150.870239	0.795843	city	8	1	1.099478	1.099478	0	1	0	0	CorrectCommission	1.821142	0.965534	0
151.666016	0.795711	city	4	1	1.001566	1.001566	0	1	0	0	CorrectCommission	1.224522	0.955585	0
152.461792	0.795856	city	3	1	0.947583	0.947583	0	1	0	0	CorrectCommission	0.895580	0.943398	0
153.257629	0.795826	city	10	0	0.000000	0.743570	0	0	0	1	OmissionError	0.347561	0.929579	0
154.053421	0.795746	city	8	1	0.567957	0.567957	0	1	0	0	CorrectCommission	1.417649	0.914860	0
154.849365	0.796146	city	10	1	0.599174	0.599174	0	1	0	0	CorrectCommission	1.227432	0.899882	0
155.645203	0.795522	city	2	1	0.668199	0.668199	0	1	0	0	CorrectCommission	0.806831	0.885281	0
156.440872	0.795813	city	8	1	0.748513	0.748513	0	1	0	0	CorrectCommission	0.317445	0.871448	0
157.236801	0.796054	city	7	1	0.864109	0.864109	0	1	0	0	CorrectCommission	0.386935	0.858509	0
158.032730	0.795789	city	5	1	0.897377	0.897377	0	1	0	0	CorrectCommission	0.589653	0.846292	0
158.828400	0.795549	mountain	4	0	0.000000	0.725178	1	0	0	0	CorrectOmission	0.459631	0.834362	0
159.624191	0.796061	city	1	1	0.549340	0.549340	0	1	0	0	CorrectCommission	1.531091	0.822123	0
160.420135	0.795799	mountain	1	0	0.000000	0.571690	1	0	0	0	CorrectOmission	1.394902	0.808834	0
161.215759	0.795458	city	6	1	0.651650	0.651650	0	1	0	0	CorrectCommission	0.907674	0.793887	0
162.011414	0.795853	city	10	1	0.648639	0.648639	0	1	0	0	CorrectCommission	0.926019	0.776818	1
162.807236	0.795807	city	9	1	0.663593	0.663593	0	1	0	0	CorrectCommission	0.834896	0.757412	1
163.603027	0.795766	city	5	1	0.648945	0.648945	0	1	0	0	CorrectCommission	0.924156	0.735707	1
164.398972	0.796129	city	1	1	0.797859	0.797859	0	1	0	0	CorrectCommission	0.016756	0.711989	1
165.194794	0.795506	mountain	6	0	0.000000	0.731982	1	0	0	0	CorrectOmission	0.418174	0.686824	1
165.990448	0.795809	mountain	10	1	0.699179	0.699179	0	0	1	0	CommissionError	0.618055	0.660899	1
166.786392	0.796067	city	2	1	0.947317	0.947317	0	1	0	0	CorrectCommission	0.893955	0.635077	1
167.582321	0.795809	city	3	1	0.996565	0.996565	0	1	0	0	CorrectCommission	1.194044	0.610246	1
168.378006	0.795551	city	2	1	0.897295	0.897295	0	1	0	0	CorrectCommission	0.589150	0.587292	1
169.173813	0.796073	city	10	1	0.897317	0.897317	0	1	0	0	CorrectCommission	0.589286	0.567140	1
169.969742	0.795759	city	6	1	0.847935	0.847935	0	1	0	0	CorrectCommission	0.288380	0.550550	1
170.765381	0.795539	city	4	1	0.808986	0.808986	0	1	0	0	CorrectCommission	0.051048	0.538190	1
171.561050	0.795797	city	10	1	0.848253	0.848253	0	1	0	0	CorrectCommission	0.290315	0.530423	1
172.356827	0.795758	city	7	1	0.863878	0.863878	0	1	0	0	CorrectCommission	0.385530	0.527350	1
173.152618	0.795826	mountain	5	0	0.000000	0.742321	1	0	0	0	CorrectOmission	0.355175	0.528853	1
173.948608	0.796137	city	4	1	0.698328	0.698328	0	1	0	0	CorrectCommission	0.623244	0.534567	1
174.744431	0.795532	city	6	1	0.946648	0.946648	0	1	0	0	CorrectCommission	0.889879	0.544011	1
175.540115	0.795812	city	10	1	0.748326	0.748326	0	1	0	0	CorrectCommission	0.318581	0.556537	1
176.335876	0.795728	city	7	1	0.660522	0.660522	0	1	0	0	CorrectCommission	0.853609	0.571606	1
177.131638	0.795800	city	5	1	0.798358	0.798358	0	1	0	0	CorrectCommission	0.013716	0.588603	1
177.927475	0.795858	city	1	1	0.947463	0.947463	0	1	0	0	CorrectCommission	0.894849	0.607106	1
178.723312	0.795807	city	6	1	0.898156	0.898156	0	1	0	0	CorrectCommission	0.594398	0.626767	1
179.519104	0.795797	mountain	2	0	0.000000	0.698745	1	0	0	0	CorrectOmission	0.620698	0.647386	1
180.314896	0.795771	city	2	1	0.598901	0.598901	0	1	0	0	CorrectCommission	1.229092	0.668859	1
181.110657	0.795771	city	7	1	0.848293	0.848293	0	1	0	0	CorrectCommission	0.290560	0.691052	1
181.906616	0.796132	city	8	1	0.948014	0.948014	0	1	0	0	CorrectCommission	0.898203	0.713874	1
182.702454	0.795552	city	10	1	0.866961	0.866961	0	1	0	0	CorrectCommission	0.404316	0.737030	1
183.498077	0.795698	city	8	1	0.797858	0.797858	0	1	0	0	CorrectCommission	0.016762	0.760100	1
184.293869	0.795867	city	7	1	0.997129	0.997129	0	1	0	0	CorrectCommission	1.197483	0.782477	1
185.089706	0.795815	city	5	0	0.000000	0.714970	0	0	0	1	OmissionError	0.521834	0.803292	0
185.885651	0.796077	city	2	1	0.449538	0.449538	0	1	0	0	CorrectCommission	2.139230	0.821624	0
186.681458	0.795525	city	6	1	0.698987	0.698987	0	1	0	0	CorrectCommission	0.619224	0.836471	0
187.477249	0.796069	city	9	1	0.750123	0.750123	0	1	0	0	CorrectCommission	0.307634	0.847019	0
188.273041	0.795512	city	7	1	0.609453	0.609453	0	1	0	0	CorrectCommission	1.164793	0.852642	0
189.068710	0.795835	city	2	1	0.848901	0.848901	0	1	0	0	CorrectCommission	0.294266	0.853007	0
189.864517	0.795765	city	6	1	1.146001	1.146001	0	1	0	0	CorrectCommission	2.104625	0.848257	0
190.660431	0.796085	city	9	0	0.000000	0.780934	0	0	0	1	OmissionError	0.119888	0.838886	0
191.456390	0.795836	city	1	1	0.449460	0.449460	0	1	0	0	CorrectCommission	2.139703	0.825935	0
192.252045	0.795458	city	7	1	0.847339	0.847339	0	1	0	0	CorrectCommission	0.284747	0.810646	0
193.047684	0.795824	city	1	1	0.666153	0.666153	0	1	0	0	CorrectCommission	0.819297	0.794612	0
193.843521	0.795845	city	2	1	0.648661	0.648661	0	1	0	0	CorrectCommission	0.925886	0.779368	1
194.639328	0.795774	city	8	1	0.748766	0.748766	0	1	0	0	CorrectCommission	0.315902	0.766303	1
195.435089	0.795758	city	10	1	0.658090	0.658090	0	1	0	0	CorrectCommission	0.868431	0.756490	1
196.230896	0.795836	city	1	1	0.798722	0.798722	0	1	0	0	CorrectCommission	0.011496	0.750455	1
197.026855	0.796104	city	4	1	0.850548	0.850548	0	1	0	0	CorrectCommission	0.304302	0.748281	1
197.822662	0.795503	city	10	1	0.813998	0.813998	0	1	0	0	CorrectCommission	0.081587	0.749519	1
198.618286	0.795753	mountain	9	0	0.000000	0.634182	1	0	0	0	CorrectOmission	1.014112	0.753400	1
199.414108	0.795895	city	4	1	0.499787	0.499787	0	1	0	0	CorrectCommission	1.833037	0.758920	1
200.209915	0.795696	city	9	1	0.599502	0.599502	0	1	0	0	CorrectCommission	1.225429	0.765156	1
201.005692	0.795880	city	7	1	0.860788	0.860788	0	1	0	0	CorrectCommission	0.366699	0.771445	1
201.801529	0.795770	city	5	1	0.608262	0.608262	0	1	0	0	CorrectCommission	1.172051	0.777444	1
202.597321	0.795812	city	3	1	0.709463	0.709463	0	1	0	0	CorrectCommission	0.555389	0.783151	1
203.393143	0.795836	city	4	1	0.897761	0.897761	0	1	0	0	CorrectCommission	0.591993	0.788906	0
204.188919	0.795712	city	10	1	0.661306	0.661306	0	1	0	0	CorrectCommission	0.848834	0.795264	0
204.984833	0.796141	city	5	1	0.648704	0.648704	0	1	0	0	CorrectCommission	0.925623	0.802793	0
205.780670	0.795529	city	4	1	0.657681	0.657681	0	1	0	0	CorrectCommission	0.870921	0.811928	0
206.576309	0.795752	city	9	1	0.847588	0.847588	0	1	0	0	CorrectCommission	0.286267	0.822807	0
207.372086	0.795792	city	2	1	0.705281	0.705281	0	1	0	0	CorrectCommission	0.580873	0.835133	0
208.167923	0.795870	city	1	1	0.858835	0.858835	0	1	0	0	CorrectCommission	0.354798	0.848214	0
208.963745	0.795783	city	3	1	0.997021	0.997021	0	1	0	0	CorrectCommission	1.196824	0.860973	0
209.759537	0.795794	mountain	10	1	0.909267	0.909267	0	0	1	0	CommissionError	0.662101	0.872066	0
210.555344	0.795838	city	2	1	1.096306	1.096306	0	1	0	0	CorrectCommission	1.801815	0.880144	0
211.351166	0.795812	mountain	9	0	0.000000	0.894487	1	0	0	0	CorrectOmission	0.572043	0.883926	0
212.146942	0.795725	city	4	1	0.598793	0.598793	0	1	0	0	CorrectCommission	1.229751	0.882565	0
212.942719	0.795838	city	7	1	0.504208	0.504208	0	1	0	0	CorrectCommission	1.806100	0.875561	0
213.738678	0.796083	mountain	10	1	0.659563	0.659563	0	0	1	0	CommissionError	0.859453	0.862983	0
214.534454	0.795459	city	1	1	0.752298	0.752298	0	1	0	0	CorrectCommission	0.294379	0.845450	0
215.330124	0.795888	city	5	1	1.004682	1.004682	0	1	0	0	CorrectCommission	1.243505	0.823998	0
216.125931	0.795731	city	7	1	0.708976	0.708976	0	1	0	0	CorrectCommission	0.558361	0.799918	0
216.921738	0.795867	mountain	2	0	0.000000	0.693086	1	0	0	0	CorrectOmission	0.655183	0.774738	1
217.717560	0.795786	city	7	1	0.748607	0.748607	0	1	0	0	CorrectCommission	0.316867	0.749976	1
218.513367	0.795815	city	1	1	0.667134	0.667134	0	1	0	0	CorrectCommission	0.813321	0.727092	1
219.309174	0.795819	city	7	1	0.648623	0.648623	0	1	0	0	CorrectCommission	0.926118	0.707363	1
220.104950	0.795716	city	9	1	0.851233	0.851233	0	1	0	0	CorrectCommission	0.308476	0.691785	1
220.900726	0.795834	city	6	1	1.047281	1.047281	0	1	0	0	CorrectCommission	1.503085	0.681028	1
221.696518	0.795764	city	7	1	0.758436	0.758436	0	1	0	0	CorrectCommission	0.256979	0.675370	1
222.492355	0.795891	city	9	1	0.748381	0.748381	0	1	0	0	CorrectCommission	0.318246	0.674841	1
223.288162	0.795747	city	6	1	0.798703	0.798703	0	1	0	0	CorrectCommission	0.011612	0.679057	1
224.084106	0.796121	city	7	1	0.997574	0.997574	0	1	0	0	CorrectCommission	1.200193	0.687406	1
224.879913	0.795513	city	8	1	0.806525	0.806525	0	1	0	0	CorrectCommission	0.036053	0.698987	1
225.675583	0.795820	city	6	1	0.714681	0.714681	0	1	0	0	CorrectCommission	0.523597	0.712882	1
226.471359	0.795730	mountain	4	1	0.653017	0.653017	0	0	1	0	CommissionError	0.899342	0.728112	1
227.267136	0.795827	city	2	1	0.599330	0.599330	0	1	0	0	CorrectCommission	1.226478	0.743775	1
228.062973	0.795841	city	3	1	0.657734	0.657734	0	1	0	0	CorrectCommission	0.870599	0.759176	1
228.858932	0.796083	mountain	5	0	0.000000	0.569563	1	0	0	0	CorrectOmission	1.407864	0.773870	1
229.654861	0.795783	city	4	1	0.558336	0.558336	0	1	0	0	CorrectCommission	1.476275	0.787629	1
230.450516	0.795514	city	2	1	0.847572	0.847572	0	1	0	0	CorrectCommission	0.286168	0.800385	0
231.246170	0.795793	city	1	1	0.798223	0.798223	0	1	0	0	CorrectCommission	0.014536	0.812268	0
232.041977	0.795836	city	2	1	0.708636	0.708636	0	1	0	0	CorrectCommission	0.560429	0.823455	0
232.837936	0.796076	city	10	1	0.798061	0.798061	0	1	0	0	CorrectCommission	0.015522	0.834012	0
233.633728	0.795496	city	6	1	0.812171	0.812171	0	1	0	0	CorrectCommission	0.070454	0.844015	0
234.429398	0.795854	city	3	1	1.295855	1.295855	0	1	0	0	CorrectCommission	3.017754	0.853503	0
235.225357	0.796047	mountain	6	0	0.000000	1.121684	1	0	0	0	CorrectOmission	1.956451	0.862430	0
236.021103	0.795455	city	3	1	0.764539	0.764539	0	1	0	0	CorrectCommission	0.219786	0.870926	0
236.816727	0.795809	city	1	1	0.699305	0.699305	0	1	0	0	CorrectCommission	0.617288	0.879167	0
237.612579	0.795896	city	10	1	0.996766	0.996766	0	1	0	0	CorrectCommission	1.195270	0.887275	0
238.408569	0.796071	city	9	1	0.797759	0.797759	0	1	0	0	CorrectCommission	0.017367	0.895269	0
239.204330	0.795442	city	6	1	0.700932	0.700932	0	1	0	0	CorrectCommission	0.607373	0.903176	0
240.000107	0.796128	city	10	1	0.701418	0.701418	0	1	0	0	CorrectCommission	0.604412	0.910734	0
240.796082	0.795807	city	5	1	0.648396	0.648396	0	1	0	0	CorrectCommission	0.927497	0.917543	0
241.591873	0.795790	city	4	1	1.146098	1.146098	0	1	0	0	CorrectCommission	2.105218	0.923067	0
242.387558	0.795565	city	2	0	0.000000	0.871254	0	0	0	1	OmissionError	0.430469	0.926666	0
243.183380	0.796070	city	1	1	0.509943	0.509943	0	1	0	0	CorrectCommission	1.771153	0.927889	0
243.979126	0.795448	city	9	1	0.748247	0.748247	0	1	0	0	CorrectCommission	0.319061	0.926264	0
244.774765	0.795816	city	6	1	0.951357	0.951357	0	1	0	0	CorrectCommission	0.918578	0.921672	0
245.570602	0.795855	city	2	1	0.850712	0.850712	0	1	0	0	CorrectCommission	0.305300	0.914238	0
246.366425	0.795810	mountain	9	0	0.000000	0.584886	1	0	0	0	CorrectOmission	1.314496	0.904369	0
247.162247	0.795810	city	5	1	0.418288	0.418288	0	1	0	0	CorrectCommission	2.329648	0.892739	0
247.958038	0.795783	city	2	1	0.615329	0.615329	0	1	0	0	CorrectCommission	1.128993	0.880197	0
248.753830	0.795803	city	9	1	0.798103	0.798103	0	1	0	0	CorrectCommission	0.015270	0.867756	0
249.549622	0.795773	city	6	1	0.847901	0.847901	0	1	0	0	CorrectCommission	0.288174	0.856351	0
250.345566	0.796116	city	3	1	0.754813	0.754813	0	1	0	0	CorrectCommission	0.279057	0.846711	0
251.141525	0.795799	city	7	1	0.648992	0.648992	0	1	0	0	CorrectCommission	0.923865	0.839298	0
251.937164	0.795502	city	8	1	0.648294	0.648294	0	1	0	0	CorrectCommission	0.928118	0.834175	0
252.732834	0.795823	city	9	1	0.897594	0.897594	0	1	0	0	CorrectCommission	0.590974	0.831154	0
253.528778	0.796054	mountain	6	0	0.000000	0.673755	1	0	0	0	CorrectOmission	0.772978	0.829841	0
254.324722	0.795840	city	9	1	0.449608	0.449608	0	1	0	0	CorrectCommission	2.138801	0.829669	0
255.120377	0.795469	city	3	1	0.697987	0.697987	0	1	0	0	CorrectCommission	0.625321	0.829996	0
255.915985	0.795767	city	6	1	0.810248	0.810248	0	1	0	0	CorrectCommission	0.058736	0.830384	0
256.711792	0.795812	city	4	1	1.047702	1.047702	0	1	0	0	CorrectCommission	1.505649	0.830512	0
257.507599	0.795848	city	6	0	0.000000	0.796487	0	0	0	1	OmissionError	0.025113	0.830212	0
258.303436	0.795815	city	5	1	0.549115	0.549115	0	1	0	0	CorrectCommission	1.532460	0.829660	0
259.099243	0.795797	city	4	1	0.798098	0.798098	0	1	0	0	CorrectCommission	0.015302	0.829067	0
259.895050	0.795776	city	6	1	0.951317	0.951317	0	1	0	0	CorrectCommission	0.918330	0.828957	0
260.690979	0.796129	city	9	1	1.096510	1.096510	0	1	0	0	CorrectCommission	1.803054	0.829827	0
261.486816	0.795511	mountain	6	0	0.000000	0.789170	1	0	0	0	CorrectOmission	0.069700	0.832162	0
262.282471	0.795798	city	5	1	0.499668	0.499668	0	1	0	0	CorrectCommission	1.833761	0.836431	0
263.078247	0.795787	city	2	1	0.698374	0.698374	0	1	0	0	CorrectCommission	0.622963	0.842814	0
263.874054	0.795839	city	10	1	0.754580	0.754580	0	1	0	0	CorrectCommission	0.280472	0.851268	0
264.669830	0.795710	city	3	1	0.752896	0.752896	0	1	0	0	CorrectCommission	0.290735	0.861420	0
265.465790	0.796162	city	6	1	0.897383	0.897383	0	1	0	0	CorrectCommission	0.589689	0.872582	0
266.261597	0.795480	city	1	1	0.798337	0.798337	0	1	0	0	CorrectCommission	0.013845	0.883859	0
267.057251	0.795813	mountain	4	0	0.000000	0.596720	1	0	0	0	CorrectOmission	1.242382	0.894284	0
267.853058	0.795795	city	5	1	0.450121	0.450121	0	1	0	0	CorrectCommission	2.135674	0.902914	0
268.648865	0.795842	city	2	1	0.516127	0.516127	0	1	0	0	CorrectCommission	1.733475	0.909003	0
269.444641	0.795714	city	1	1	0.599113	0.599113	0	1	0	0	CorrectCommission	1.227802	0.912141	0
270.240570	0.796156	city	4	1	0.997652	0.997652	0	1	0	0	CorrectCommission	1.200672	0.912256	0
271.036560	0.795776	city	8	1	0.847229	0.847229	0	1	0	0	CorrectCommission	0.284080	0.909592	0
271.832214	0.795575	city	1	1	0.804349	0.804349	0	1	0	0	CorrectCommission	0.022790	0.904482	0
272.627899	0.795767	city	8	1	0.897764	0.897764	0	1	0	0	CorrectCommission	0.592012	0.897404	0
273.423645	0.795740	city	2	1	0.997505	0.997505	0	1	0	0	CorrectCommission	1.199774	0.888735	0
274.219452	0.795894	city	8	1	0.947848	0.947848	0	1	0	0	CorrectCommission	0.897192	0.878720	0
275.015289	0.795763	city	3	0	0.000000	0.678304	0	0	0	1	OmissionError	0.745255	0.867613	0
275.811035	0.795736	city	5	1	0.506041	0.506041	0	1	0	0	CorrectCommission	1.794932	0.855571	0
276.606842	0.795873	city	6	1	0.748225	0.748225	0	1	0	0	CorrectCommission	0.319200	0.842819	0
277.402832	0.796084	city	2	0	0.000000	0.670302	0	0	0	1	OmissionError	0.794019	0.829820	0
278.198639	0.795518	city	3	1	0.570812	0.570812	0	1	0	0	CorrectCommission	1.400254	0.817122	0
278.994415	0.796086	mountain	9	1	0.748294	0.748294	0	0	1	0	CommissionError	0.318776	0.805572	0
279.790375	0.795811	city	8	1	0.549237	0.549237	0	1	0	0	CorrectCommission	1.531720	0.796186	0
280.586029	0.795501	city	5	1	0.698267	0.698267	0	1	0	0	CorrectCommission	0.623614	0.789966	0
281.381836	0.796080	city	3	1	0.847603	0.847603	0	1	0	0	CorrectCommission	0.286359	0.787861	0
282.177765	0.795799	city	5	0	0.000000	0.762106	0	0	0	1	OmissionError	0.234613	0.790537	0
282.973450	0.795557	city	9	1	0.648284	0.648284	0	1	0	0	CorrectCommission	0.928181	0.798232	0
283.769104	0.795779	city	4	1	0.712646	0.712646	0	1	0	0	CorrectCommission	0.535996	0.810648	0
284.564911	0.795812	city	1	1	0.760398	0.760398	0	1	0	0	CorrectCommission	0.245024	0.826992	0
285.360718	0.795820	city	4	1	0.851269	0.851269	0	1	0	0	CorrectCommission	0.308698	0.846029	0
286.156525	0.795778	city	5	1	1.146340	1.146340	0	1	0	0	CorrectCommission	2.106693	0.866242	0
286.952423	0.796052	city	8	0	0.000000	0.811964	0	0	0	1	OmissionError	0.069195	0.886075	0
287.748260	0.795574	city	1	1	0.449528	0.449528	0	1	0	0	CorrectCommission	2.139290	0.904235	0
288.543884	0.795709	city	4	1	0.660416	0.660416	0	1	0	0	CorrectCommission	0.854255	0.919704	0
289.339661	0.795851	mountain	5	0	0.000000	0.621969	1	0	0	0	CorrectOmission	1.088529	0.932115	0
290.135498	0.795782	mountain	9	1	0.549585	0.549585	0	0	1	0	CommissionError	1.529596	0.941561	0
290.931274	0.795820	city	4	1	0.658662	0.658662	0	1	0	0	CorrectCommission	0.864944	0.948629	0
291.727264	0.796116	city	9	1	0.898278	0.898278	0	1	0	0	CorrectCommission	0.595138	0.954275	0
292.523071	0.795491	city	3	1	0.946798	0.946798	0	1	0	0	CorrectCommission	0.890795	0.959569	0
293.318695	0.795768	mountain	7	0	0.000000	0.818907	1	0	0	0	CorrectOmission	0.111500	0.965445	0
294.114655	0.796139	mountain	6	1	0.648729	0.648729	0	0	1	0	CommissionError	0.925473	0.972654	0
294.910614	0.795801	city	3	0	0.000000	0.570386	0	0	0	1	OmissionError	1.402851	0.981516	0
295.706268	0.795503	city	6	1	0.598604	0.598604	0	1	0	0	CorrectCommission	1.230902	0.991902	0
296.501923	0.795793	city	3	1	0.748110	0.748110	0	1	0	0	CorrectCommission	0.319896	1.003328	0
297.297852	0.796109	mountain	10	1	0.648676	0.648676	0	0	1	0	CommissionError	0.925792	1.015007	0
298.093658	0.795500	city	6	1	1.095902	1.095902	0	1	0	0	CorrectCommission	1.799351	1.026002	0
298.889343	0.795846	city	5	0	0.000000	0.954810	0	0	0	1	OmissionError	0.939618	1.035448	0
299.685150	0.795765	city	4	1	0.648767	0.648767	0	1	0	0	CorrectCommission	0.925238	1.042698	0
300.480927	0.795815	city	5	1	0.601138	0.601138	0	1	0	0	CorrectCommission	1.215462	1.047407	0
301.276733	0.795800	city	7	1	0.897559	0.897559	0	1	0	0	CorrectCommission	0.590763	1.049620	0
302.072510	0.795732	city	8	1	1.205823	1.205823	0	1	0	0	CorrectCommission	2.469148	1.049748	0
302.868286	0.795797	city	5	0	0.000000	0.929364	0	0	0	1	OmissionError	0.784562	1.048415	0
303.664246	0.796152	city	4	1	0.661717	0.661717	0	1	0	0	CorrectCommission	0.846331	1.046446	0
304.460083	0.795497	city	9	1	0.996416	0.996416	0	1	0	0	CorrectCommission	1.193137	1.044613	0
305.255737	0.795832	city	6	1	0.756988	0.756988	0	1	0	0	CorrectCommission	0.265799	1.043423	0
306.051514	0.795720	city	7	1	0.601830	0.601830	0	1	0	0	CorrectCommission	1.211249	1.043111	0
306.847443	0.796121	city	10	1	0.650636	0.650636	0	1	0	0	CorrectCommission	0.913850	1.043405	0
307.643250	0.795536	city	1	1	0.753109	0.753109	0	1	0	0	CorrectCommission	0.289437	1.043650	0
308.438965	0.795836	city	2	1	0.897389	0.897389	0	1	0	0	CorrectCommission	0.589724	1.042913	0
309.234741	0.795756	city	3	1	0.997008	0.997008	0	1	0	0	CorrectCommission	1.196746	1.040045	0
310.030518	0.795759	city	5	1	1.196020	1.196020	0	1	0	0	CorrectCommission	2.409416	1.033922	0
310.826294	0.795821	city	10	1	1.195814	1.195814	0	1	0	0	CorrectCommission	2.408157	1.023693	0
311.622101	0.795780	city	1	0	0.000000	0.959752	0	0	0	1	OmissionError	0.969727	1.008868	0
312.418060	0.796172	city	5	1	0.754980	0.754980	0	1	0	0	CorrectCommission	0.278036	0.989493	0
313.213928	0.795516	city	7	1	0.848646	0.848646	0	1	0	0	CorrectCommission	0.292710	0.966049	0
314.009552	0.795757	city	4	1	1.047336	1.047336	0	1	0	0	CorrectCommission	1.503420	0.939425	0
314.805328	0.795817	city	10	1	0.816997	0.816997	0	1	0	0	CorrectCommission	0.099859	0.910768	0
315.601135	0.795795	city	1	1	0.947906	0.947906	0	1	0	0	CorrectCommission	0.897549	0.881458	0
316.396973	0.795846	city	6	1	1.097146	1.097146	0	1	0	0	CorrectCommission	1.806930	0.852849	0
317.192932	0.796071	city	5	0	0.000000	0.898050	0	0	0	1	OmissionError	0.593751	0.826200	0
317.988739	0.795539	city	3	1	0.649138	0.649138	0	1	0	0	CorrectCommission	0.922979	0.802639	0
318.784393	0.795782	mountain	3	1	0.648929	0.648929	0	0	1	0	CommissionError	0.924253	0.782979	1
319.580170	0.795812	city	4	1	0.800552	0.800552	0	1	0	0	CorrectCommission	0.000348	0.767637	1
320.375977	0.795787	mountain	6	0	0.000000	0.882472	1	0	0	0	CorrectOmission	0.498831	0.756732	1
321.171783	0.795790	city	2	1	0.897457	0.897457	0	1	0	0	CorrectCommission	0.590138	0.749938	1
321.967560	0.795807	city	3	1	0.848270	0.848270	0	1	0	0	CorrectCommission	0.290421	0.746699	1
322.763397	0.795818	city	4	1	0.915140	0.915140	0	1	0	0	CorrectCommission	0.697891	0.746332	1
323.559174	0.795777	city	1	1	1.047692	1.047692	0	1	0	0	CorrectCommission	1.505584	0.748101	1
324.354980	0.795790	city	4	1	0.897283	0.897283	0	1	0	0	CorrectCommission	0.589081	0.751389	1
325.150909	0.796121	city	1	1	0.900827	0.900827	0	1	0	0	CorrectCommission	0.610673	0.755918	1
325.946716	0.795494	city	2	1	1.098698	1.098698	0	1	0	0	CorrectCommission	1.816386	0.761675	1
326.742340	0.795749	city	8	0	0.000000	0.864557	0	0	0	1	OmissionError	0.389663	0.768877	1
327.538147	0.795853	city	9	1	0.651341	0.651341	0	1	0	0	CorrectCommission	0.909552	0.777975	1
328.333984	0.795834	city	4	1	0.911988	0.911988	0	1	0	0	CorrectCommission	0.678685	0.789365	0
329.129761	0.795710	mountain	6	0	0.000000	0.846985	1	0	0	0	CorrectOmission	0.282589	0.803296	0
329.925537	0.795855	city	7	1	0.698433	0.698433	0	1	0	0	CorrectCommission	0.622601	0.819665	0
330.721375	0.795813	city	1	1	0.708437	0.708437	0	1	0	0	CorrectCommission	0.561644	0.837891	0
331.517212	0.795842	city	7	1	0.750019	0.750019	0	1	0	0	CorrectCommission	0.308266	0.856873	0
332.313019	0.795782	city	9	1	0.897161	0.897161	0	1	0	0	CorrectCommission	0.588334	0.875113	0
333.108795	0.795779	city	2	1	0.998480	0.998480	0	1	0	0	CorrectCommission	1.205713	0.890842	0
333.904572	0.795759	city	1	1	1.049441	1.049441	0	1	0	0	CorrectCommission	1.516242	0.902277	0
334.700348	0.795814	city	10	1	1.096252	1.096252	0	1	0	0	CorrectCommission	1.801483	0.907977	0
335.496185	0.795856	city	2	1	1.053827	1.053827	0	1	0	0	CorrectCommission	1.542967	0.907045	0
336.291992	0.795764	city	9	0	0.000000	0.786559	0	0	0	1	OmissionError	0.085609	0.899297	0
337.087952	0.796121	city	6	1	0.549906	0.549906	0	1	0	0	CorrectCommission	1.527640	0.885373	0
337.883728	0.795439	city	4	1	0.599324	0.599324	0	1	0	0	CorrectCommission	1.226519	0.866496	0
338.679352	0.795812	city	1	1	0.648747	0.648747	0	1	0	0	CorrectCommission	0.925362	0.844428	0
339.475189	0.795859	city	10	1	0.848351	0.848351	0	1	0	0	CorrectCommission	0.290915	0.821180	0
340.270996	0.795770	city	5	1	0.710941	0.710941	0	1	0	0	CorrectCommission	0.546385	0.798701	0
341.066925	0.796061	city	3	1	0.699548	0.699548	0	1	0	0	CorrectCommission	0.615807	0.778547	1
341.862701	0.795530	city	2	1	0.701936	0.701936	0	1	0	0	CorrectCommission	0.601258	0.761796	1
342.658417	0.795853	city	9	1	0.754942	0.754942	0	1	0	0	CorrectCommission	0.278267	0.748921	1
343.454224	0.795794	city	4	1	0.699023	0.699023	0	1	0	0	CorrectCommission	0.619007	0.739721	1
344.250000	0.795773	city	3	1	0.748284	0.748284	0	1	0	0	CorrectCommission	0.318839	0.733558	1
345.045807	0.795838	city	7	1	0.847821	0.847821	0	1	0	0	CorrectCommission	0.287687	0.729565	1
345.841644	0.795823	city	6	1	1.057133	1.057133	0	1	0	0	CorrectCommission	1.563112	0.726818	1
346.637604	0.796065	city	10	1	1.155261	1.155261	0	1	0	0	CorrectCommission	2.161052	0.724609	1
347.433380	0.795504	city	5	0	0.000000	0.968285	0	0	0	1	OmissionError	1.021727	0.722560	1
348.229034	0.795802	city	2	1	0.748735	0.748735	0	1	0	0	CorrectCommission	0.316091	0.720758	1
349.024811	0.795742	city	10	1	0.749139	0.749139	0	1	0	0	CorrectCommission	0.313628	0.719667	1
349.820587	0.795860	city	3	1	0.760066	0.760066	0	1	0	0	CorrectCommission	0.247047	0.719863	1
350.616455	0.795827	city	4	1	0.897373	0.897373	0	1	0	0	CorrectCommission	0.589628	0.721957	1
351.412262	0.795779	city	6	1	0.897520	0.897520	0	1	0	0	CorrectCommission	0.590520	0.726368	1
352.208038	0.795821	city	9	1	0.748045	0.748045	0	1	0	0	CorrectCommission	0.320297	0.733249	1
353.003845	0.795784	city	10	1	0.648678	0.648678	0	1	0	0	CorrectCommission	0.925783	0.742353	1
353.799622	0.795736	city	4	1	0.901209	0.901209	0	1	0	0	CorrectCommission	0.613004	0.753192	1
354.595551	0.796129	city	2	1	0.649393	0.649393	0	1	0	0	CorrectCommission	0.921421	0.765035	1
355.391388	0.795570	city	5	1	0.666341	0.666341	0	1	0	0	CorrectCommission	0.818155	0.777208	1
356.187012	0.795697	mountain	1	1	0.698983	0.698983	0	0	1	0	CommissionError	0.619250	0.789161	0
356.982788	0.795852	city	6	0	0.000000	0.562435	0	0	0	1	OmissionError	1.451299	0.800652	0
357.778778	0.796115	city	7	1	0.499728	0.499728	0	1	0	0	CorrectCommission	1.833396	0.811808	0
358.574615	0.795530	city	1	1	0.753896	0.753896	0	1	0	0	CorrectCommission	0.284640	0.823112	0
359.370270	0.795790	city	5	1	0.847878	0.847878	0	1	0	0	CorrectCommission	0.288031	0.835407	0
360.166016	0.795731	city	2	1	0.997047	0.997047	0	1	0	0	CorrectCommission	1.196986	0.849608	0
360.961823	0.795875	mountain	3	0	0.000000	0.786510	1	0	0	0	CorrectOmission	0.085911	0.866492	0
361.757660	0.795783	city	10	1	0.598808	0.598808	0	1	0	0	CorrectCommission	1.229659	0.886603	0
362.553467	0.795804	city	1	1	0.816486	0.816486	0	1	0	0	CorrectCommission	0.096745	0.909945	0
363.349396	0.796087	city	8	1	0.860948	0.860948	0	1	0	0	CorrectCommission	0.367675	0.936084	0
364.145203	0.795514	city	9	1	1.146540	1.146540	0	1	0	0	CorrectCommission	2.107913	0.964024	0
364.940857	0.795807	city	1	0	0.000000	0.852855	0	0	0	1	OmissionError	0.318360	0.992312	0
365.736633	0.795755	city	10	1	0.601329	0.601329	0	1	0	0	CorrectCommission	1.214300	1.019377	0
366.532562	0.796086	city	6	1	1.013398	1.013398	0	1	0	0	CorrectCommission	1.296616	1.043551	0
367.328369	0.795541	city	4	1	1.146102	1.146102	0	1	0	0	CorrectCommission	2.105244	1.063351	0
368.124084	0.795858	city	3	0	0.000000	0.847079	0	0	0	1	OmissionError	0.283164	1.077654	0
368.919891	0.795793	city	1	1	0.565896	0.565896	0	1	0	0	CorrectCommission	1.430208	1.085875	0
369.715668	0.795747	city	2	1	0.752122	0.752122	0	1	0	0	CorrectCommission	0.295454	1.087855	0
370.511475	0.795833	city	9	1	1.295233	1.295233	0	1	0	0	CorrectCommission	3.013965	1.084016	0
371.307281	0.795795	city	4	1	1.050369	1.050369	0	1	0	0	CorrectCommission	1.521901	1.075030	0
372.103210	0.796105	city	5	0	0.000000	0.791186	0	0	0	1	OmissionError	0.057420	1.061957	0
372.899170	0.795798	city	4	1	0.648229	0.648229	0	1	0	0	CorrectCommission	0.928518	1.045916	0
373.694946	0.795771	city	6	1	0.752046	0.752046	0	1	0	0	CorrectCommission	0.295913	1.027867	0
374.490601	0.795491	city	10	1	0.648351	0.648351	0	1	0	0	CorrectCommission	0.927771	1.008592	0
375.286346	0.796041	mountain	3	0	0.000000	0.559430	1	0	0	0	CorrectOmission	1.469608	0.988539	0
376.082306	0.795879	city	5	1	0.553315	0.553315	0	1	0	0	CorrectCommission	1.506868	0.967927	0
376.878021	0.795542	city	8	1	0.698040	0.698040	0	1	0	0	CorrectCommission	0.624994	0.946774	0
377.673676	0.795748	city	10	1	0.814230	0.814230	0	1	0	0	CorrectCommission	0.082998	0.924957	0
378.469482	0.795871	city	4	1	1.000147	1.000147	0	1	0	0	CorrectCommission	1.215876	0.902395	0
379.265259	0.795711	city	10	1	1.145912	1.145912	0	1	0	0	CorrectCommission	2.104085	0.879056	0
380.061035	0.795815	city	6	0	0.000000	0.971336	0	0	0	1	OmissionError	1.040316	0.855101	0
380.856842	0.795812	city	2	1	0.797976	0.797976	0	1	0	0	CorrectCommission	0.016040	0.830991	0
381.652802	0.796108	city	4	1	0.947391	0.947391	0	1	0	0	CorrectCommission	0.894407	0.807318	0
382.448639	0.795532	city	10	0	0.000000	0.752656	0	0	0	1	OmissionError	0.292200	0.784809	1
383.244446	0.796091	city	6	1	0.560365	0.560365	0	1	0	0	CorrectCommission	1.463913	0.764301	1
384.040222	0.795498	city	10	1	0.717111	0.717111	0	1	0	0	CorrectCommission	0.508786	0.746521	1
384.835907	0.795852	city	1	1	0.810329	0.810329	0	1	0	0	CorrectCommission	0.059228	0.732053	1
385.631683	0.795721	city	10	1	0.949942	0.949942	0	1	0	0	CorrectCommission	0.909955	0.721318	1
386.427490	0.795870	city	2	1	0.898137	0.898137	0	1	0	0	CorrectCommission	0.594280	0.714338	1
387.223328	0.795782	city	7	1	0.949242	0.949242	0	1	0	0	CorrectCommission	0.905689	0.710923	1
388.019104	0.795793	city	6	1	0.915431	0.915431	0	1	0	0	CorrectCommission	0.699662	0.710509	1
388.815033	0.796094	city	9	1	0.710805	0.710805	0	1	0	0	CorrectCommission	0.547211	0.712308	1
389.610840	0.795509	city	8	1	0.747811	0.747811	0	1	0	0	CorrectCommission	0.321721	0.715414	1
390.406494	0.795773	city	9	0	0.000000	0.692388	0	0	0	1	OmissionError	0.659436	0.718797	1
391.202423	0.796120	mountain	2	0	0.000000	0.622307	1	0	0	0	CorrectOmission	1.086469	0.721432	1
391.998230	0.795494	city	9	1	0.615338	0.615338	0	1	0	0	CorrectCommission	1.128936	0.722421	1
392.793915	0.795848	city	6	1	0.749250	0.749250	0	1	0	0	CorrectCommission	0.312953	0.721025	1
393.589722	0.795787	city	10	1	0.897730	0.897730	0	1	0	0	CorrectCommission	0.591803	0.716854	1
394.385651	0.796080	city	6	1	1.107132	1.107132	0	1	0	0	CorrectCommission	1.867780	0.709755	1
395.181427	0.795455	city	4	0	0.000000	0.921012	0	0	0	1	OmissionError	0.733672	0.699866	1
395.977081	0.795834	city	1	1	0.698496	0.698496	0	1	0	0	CorrectCommission	0.622215	0.687716	1
396.772919	0.795845	city	5	1	0.798709	0.798709	0	1	0	0	CorrectCommission	0.011577	0.674051	1
397.568726	0.795763	city	10	1	0.797879	0.797879	0	1	0	0	CorrectCommission	0.016634	0.659949	1
398.364502	0.795825	city	7	1	0.996986	0.996986	0	1	0	0	CorrectCommission	1.196611	0.646728	1
399.160461	0.796060	city	8	1	0.997250	0.997250	0	1	0	0	CorrectCommission	1.198218	0.635853	1
399.956268	0.795575	city	6	1	0.797614	0.797614	0	1	0	0	CorrectCommission	0.018248	0.629044	1
400.751923	0.795733	city	7	1	0.954894	0.954894	0	1	0	0	CorrectCommission	0.940130	0.628155	1
401.547729	0.795852	city	9	1	0.898604	0.898604	0	1	0	0	CorrectCommission	0.597129	0.635065	1
402.343536	0.795802	mountain	4	0	0.000000	0.739459	1	0	0	0	CorrectOmission	0.372614	0.651639	1
403.139465	0.796048	city	7	1	0.649014	0.649014	0	1	0	0	CorrectCommission	0.923735	0.679374	1
403.935272	0.795523	city	5	1	0.798825	0.798825	0	1	0	0	CorrectCommission	0.010870	0.719278	1
404.730927	0.795824	city	6	0	0.000000	0.860387	0	0	0	1	OmissionError	0.364258	0.771642	1
405.526764	0.795837	city	4	1	0.854393	0.854393	0	1	0	0	CorrectCommission	0.327731	0.835876	0
406.322540	0.795702	city	8	1	0.801533	0.801533	0	1	0	0	CorrectCommission	0.005633	0.910334	0
407.118317	0.795844	city	10	1	0.599328	0.599328	0	1	0	0	CorrectCommission	1.226492	0.992460	0
407.914154	0.795847	city	7	1	0.847910	0.847910	0	1	0	0	CorrectCommission	0.288228	1.078720	0
408.709961	0.795804	city	4	1	1.195940	1.195940	0	1	0	0	CorrectCommission	2.408928	1.165063	0
409.505768	0.795763	city	2	0	0.000000	1.003929	0	0	0	1	OmissionError	1.238921	1.247054	0
410.301697	0.796100	city	1	1	0.649226	0.649226	0	1	0	0	CorrectCommission	0.922440	1.320520	0
411.097504	0.795532	city	2	1	0.509181	0.509181	0	1	0	0	CorrectCommission	1.775799	1.381771	0
411.893158	0.795803	city	5	1	0.457094	0.457094	0	1	0	0	CorrectCommission	2.093186	1.427913	0
412.689117	0.796073	city	7	1	0.300459	0.300459	0	1	0	0	CorrectCommission	3.047631	1.457183	0
413.484894	0.795493	city	10	1	0.399930	0.399930	0	1	0	0	CorrectCommission	2.441512	1.469010	0
414.280548	0.795814	city	2	1	0.515785	0.515785	0	1	0	0	CorrectCommission	1.735555	1.464131	0
415.076355	0.795784	city	10	1	0.649957	0.649957	0	1	0	0	CorrectCommission	0.917985	1.444275	0
415.872162	0.795861	city	1	1	0.857708	0.857708	0	1	0	0	CorrectCommission	0.347931	1.411959	0
416.667999	0.795776	city	2	1	1.049642	1.049642	0	1	0	0	CorrectCommission	1.517468	1.370150	0
417.463898	0.796063	city	5	1	1.197825	1.197825	0	1	0	0	CorrectCommission	2.420412	1.321972	0
418.259705	0.795536	city	8	0	0.000000	0.906661	0	0	0	1	OmissionError	0.646224	1.270451	0
419.055511	0.796072	city	9	1	0.613372	0.613372	0	1	0	0	CorrectCommission	1.140917	1.218363	0
419.851288	0.795512	city	1	1	0.755177	0.755177	0	1	0	0	CorrectCommission	0.276835	1.167991	0
420.646942	0.795800	city	9	1	1.195689	1.195689	0	1	0	0	CorrectCommission	2.407396	1.121157	0
421.442749	0.795788	city	8	0	0.000000	0.871256	0	0	0	1	OmissionError	0.430487	1.079067	0
422.238525	0.795790	city	3	1	0.500313	0.500313	0	1	0	0	CorrectCommission	1.829832	1.042536	0
423.034332	0.795788	city	5	1	0.801294	0.801294	0	1	0	0	CorrectCommission	0.004174	1.011791	0
423.830292	0.796132	city	1	1	0.848303	0.848303	0	1	0	0	CorrectCommission	0.290622	0.986807	0
424.626129	0.795538	mountain	5	0	0.000000	0.664954	1	0	0	0	CorrectOmission	0.826605	0.967147	0
425.421783	0.795755	city	5	1	0.598967	0.598967	0	1	0	0	CorrectCommission	1.228689	0.952246	0
426.217560	0.795852	city	10	1	0.998065	0.998065	0	1	0	0	CorrectCommission	1.203185	0.941378	0
427.013367	0.795719	mountain	6	0	0.000000	1.007901	1	0	0	0	CorrectOmission	1.263122	0.933886	0
427.809113	0.795803	city	6	1	0.851570	0.851570	0	1	0	0	CorrectCommission	0.310530	0.929208	0
428.604919	0.795811	city	7	1	0.752167	0.752167	0	1	0	0	CorrectCommission	0.295179	0.926953	0
429.400726	0.795803	city	8	1	1.195980	1.195980	0	1	0	0	CorrectCommission	2.409173	0.926871	0
430.196716	0.796134	city	4	0	0.000000	0.938362	0	0	0	1	OmissionError	0.839391	0.928796	0
430.992523	0.795527	city	5	1	0.611687	0.611687	0	1	0	0	CorrectCommission	1.151183	0.932791	0
431.788177	0.795735	city	6	1	0.848331	0.848331	0	1	0	0	CorrectCommission	0.290792	0.938882	0
432.583954	0.795827	city	8	0	0.000000	0.735237	0	0	0	1	OmissionError	0.398337	0.947155	0
433.379791	0.795841	mountain	5	1	0.607114	0.607114	0	0	1	0	CommissionError	1.179047	0.957648	0
434.175629	0.795831	city	6	1	0.798670	0.798670	0	1	0	0	CorrectCommission	0.011815	0.970340	0
434.971405	0.795757	city	3	0	0.000000	0.686957	0	0	0	1	OmissionError	0.692527	0.985276	0
435.767212	0.795823	city	2	1	0.499713	0.499713	0	1	0	0	CorrectCommission	1.833487	1.002544	0
436.563019	0.795825	mountain	5	0	0.000000	0.464673	1	0	0	0	CorrectOmission	2.047002	1.022311	0
437.358826	0.795776	city	9	1	0.605796	0.605796	0	1	0	0	CorrectCommission	1.187082	1.044878	0
438.154755	0.796073	city	7	1	0.947039	0.947039	0	1	0	0	CorrectCommission	0.892261	1.070527	0
438.950562	0.795544	city	9	1	0.947232	0.947232	0	1	0	0	CorrectCommission	0.893439	1.099436	0
439.746216	0.795772	city	1	1	0.916457	0.916457	0	1	0	0	CorrectCommission	0.705911	1.131438	0
440.542023	0.795815	city	10	1	0.996967	0.996967	0	1	0	0	CorrectCommission	1.196499	1.165883	0
441.337799	0.795746	city	8	1	0.897281	0.897281	0	1	0	0	CorrectCommission	0.589066	1.201540	0
442.133575	0.795846	city	2	1	0.898280	0.898280	0	1	0	0	CorrectCommission	0.595157	1.236519	0
442.929565	0.796102	city	3	1	0.905303	0.905303	0	1	0	0	CorrectCommission	0.637946	1.268437	0
443.725372	0.795544	city	6	1	0.996562	0.996562	0	1	0	0	CorrectCommission	1.194027	1.294621	0
444.521027	0.795753	city	3	1	1.100290	1.100290	0	1	0	0	CorrectCommission	1.826087	1.312493	0
445.316803	0.795771	city	8	1	1.346437	1.346437	0	1	0	0	CorrectCommission	3.325970	1.319972	0
446.112579	0.795821	mountain	2	0	0.000000	1.244465	1	0	0	0	CorrectOmission	2.704613	1.315759	0
446.908417	0.795805	city	6	1	1.049182	1.049182	0	1	0	0	CorrectCommission	1.514668	1.299622	0
447.704224	0.795837	city	3	0	0.000000	1.015396	0	0	0	1	OmissionError	1.308791	1.272472	0
448.500031	0.795777	city	7	1	0.947232	0.947232	0	1	0	0	CorrectCommission	0.893442	1.236136	0
449.295837	0.795812	city	6	1	0.648820	0.648820	0	1	0	0	CorrectCommission	0.924916	1.193199	0
450.091583	0.795731	city	3	0	0.000000	0.652787	0	0	0	1	OmissionError	0.900744	1.146518	0
450.887390	0.795859	city	9	1	0.716960	0.716960	0	1	0	0	CorrectCommission	0.509706	1.098978	0
451.683380	0.796111	city	4	1	0.599168	0.599168	0	1	0	0	CorrectCommission	1.227468	1.053160	0
452.479187	0.795484	city	3	1	0.701839	0.701839	0	1	0	0	CorrectCommission	0.601849	1.011053	0
453.274841	0.795824	city	1	1	0.947110	0.947110	0	1	0	0	CorrectCommission	0.892696	0.974062	0
454.070648	0.795836	city	8	0	0.000000	0.761643	0	0	0	1	OmissionError	0.237433	0.942947	0
454.866455	0.795727	city	2	1	0.560352	0.560352	0	1	0	0	CorrectCommission	1.463991	0.918071	0
455.662201	0.795822	city	7	1	0.758148	0.758148	0	1	0	0	CorrectCommission	0.258730	0.899392	0
456.458038	0.795835	city	3	1	1.195968	1.195968	0	1	0	0	CorrectCommission	2.409096	0.886742	0
457.253845	0.795795	mountain	10	0	0.000000	0.907318	1	0	0	0	CorrectOmission	0.650227	0.879743	0
458.049774	0.796058	city	2	1	0.553993	0.553993	0	1	0	0	CorrectCommission	1.502738	0.878040	0
458.845703	0.795806	city	5	1	0.797787	0.797787	0	1	0	0	CorrectCommission	0.017197	0.881065	0
459.641357	0.795475	city	2	1	0.748039	0.748039	0	1	0	0	CorrectCommission	0.320330	0.888083	0
460.436981	0.795797	city	7	1	0.748087	0.748087	0	1	0	0	CorrectCommission	0.320039	0.897980	0
461.232788	0.795817	city	10	1	0.798332	0.798332	0	1	0	0	CorrectCommission	0.013874	0.909241	0
462.028656	0.795866	mountain	8	0	0.000000	0.630813	1	0	0	0	CorrectOmission	1.034642	0.920058	0
462.824432	0.795711	mountain	4	1	0.598936	0.598936	0	0	1	0	CommissionError	1.228878	0.928388	0
463.620239	0.795881	city	1	1	1.056110	1.056110	0	1	0	0	CorrectCommission	1.556881	0.932228	0
464.416199	0.796055	city	4	1	1.205244	1.205244	0	1	0	0	CorrectCommission	2.465619	0.929947	0
465.212006	0.795557	city	1	0	0.000000	0.835829	0	0	0	1	OmissionError	0.214614	0.920496	0
466.007660	0.795769	city	8	1	0.462431	0.462431	0	1	0	0	CorrectCommission	2.060667	0.903678	0
466.803467	0.795850	city	5	1	0.599613	0.599613	0	1	0	0	CorrectCommission	1.224758	0.879993	0
467.599274	0.795744	mountain	1	1	0.748920	0.748920	0	0	1	0	CommissionError	0.314965	0.850884	0
468.395081	0.795864	city	1	1	0.748262	0.748262	0	1	0	0	CorrectCommission	0.318973	0.818426	0
469.190857	0.795698	city	5	1	0.797998	0.797998	0	1	0	0	CorrectCommission	0.015906	0.785020	1
469.986786	0.796170	city	2	1	1.004188	1.004188	0	1	0	0	CorrectCommission	1.240498	0.753256	1
470.782623	0.795501	city	6	1	1.015784	1.015784	0	1	0	0	CorrectCommission	1.311159	0.725483	1
471.578430	0.796103	mountain	5	0	0.000000	0.876300	1	0	0	0	CorrectOmission	0.461220	0.703713	1
472.374207	0.795464	city	6	1	0.748026	0.748026	0	1	0	0	CorrectCommission	0.320408	0.689333	1
473.169861	0.795847	city	3	0	0.000000	0.793255	0	0	0	1	OmissionError	0.044812	0.683005	1
473.965698	0.795790	city	4	1	0.847942	0.847942	0	1	0	0	CorrectCommission	0.288419	0.684552	1
474.761475	0.795774	city	9	1	0.748043	0.748043	0	1	0	0	CorrectCommission	0.320304	0.693045	1
475.557404	0.796120	city	5	1	0.648554	0.648554	0	1	0	0	CorrectCommission	0.926535	0.706854	1
476.353271	0.795597	city	6	1	0.847246	0.847246	0	1	0	0	CorrectCommission	0.284183	0.723937	1
477.148926	0.795699	city	4	0	0.000000	0.620473	0	0	0	1	OmissionError	1.097647	0.742003	1
477.944641	0.795751	city	3	1	0.449716	0.449716	0	1	0	0	CorrectCommission	2.138146	0.758631	1
478.740601	0.796173	city	10	1	0.816456	0.816456	0	1	0	0	CorrectCommission	0.096566	0.771596	1
479.536591	0.795773	city	2	1	0.901144	0.901144	0	1	0	0	CorrectCommission	0.612603	0.779093	1
480.332214	0.795505	city	10	1	1.054615	1.054615	0	1	0	0	CorrectCommission	1.547770	0.779611	1
481.127838	0.795768	city	6	0	0.000000	0.867885	0	0	0	1	OmissionError	0.409942	0.772178	1
481.923645	0.795806	city	10	1	0.759065	0.759065	0	1	0	0	CorrectCommission	0.253143	0.756397	1
482.719452	0.795796	city	6	1	1.146267	1.146267	0	1	0	0	CorrectCommission	2.106249	0.732410	1
483.515289	0.795878	city	10	0	0.000000	1.020598	0	0	0	1	OmissionError	1.340493	0.700729	1
484.311249	0.796048	city	6	1	0.799052	0.799052	0	1	0	0	CorrectCommission	0.009487	0.662389	1
485.107056	0.795561	city	5	1	0.898622	0.898622	0	1	0	0	CorrectCommission	0.597238	0.618806	1
485.902710	0.795786	mountain	7	0	0.000000	0.845031	1	0	0	0	CorrectOmission	0.270684	0.571574	1
486.698486	0.795737	city	5	1	0.714859	0.714859	0	1	0	0	CorrectCommission	0.522508	0.522508	1
