onset	duration	trial_type	image_type	Press	ReactionTime	ReactionTime_Interpolated	CorrectOmission	CorrectCommission	CommissionError	OmissionError	response_type	nonsmoothVarianceTimeCourse	VarianceTimeCourse	In_the_Zone
8.421537	0.795875	city	4	1	1.047156	1.047156	0	1	0	0	CorrectCommission	2.812700	2.812700	0
9.217509	0.796068	city	1	1	0.798408	0.798408	0	1	0	0	CorrectCommission	0.385616	2.514502	0
10.013323	0.795560	city	9	1	0.751965	0.751965	0	1	0	0	CorrectCommission	0.067532	2.226056	0
10.808999	0.795794	city	7	1	0.716802	0.716802	0	1	0	0	CorrectCommission	0.410629	1.956116	0
11.604801	0.795809	city	10	1	0.857073	0.857073	0	1	0	0	CorrectCommission	0.958026	1.711670	0
12.400594	0.795777	city	8	1	0.748278	0.748278	0	1	0	0	CorrectCommission	0.103507	1.497446	0
13.196383	0.795800	mountain	8	0	0.000000	0.639474	1	0	0	0	CorrectOmission	1.165130	1.315768	0
13.992192	0.795820	city	1	1	0.649551	0.649551	0	1	0	0	CorrectCommission	1.066806	1.166554	0
14.787982	0.795759	city	3	1	0.897400	0.897400	0	1	0	0	CorrectCommission	1.351503	1.047895	0
15.583745	0.795767	city	9	1	0.753837	0.753837	0	1	0	0	CorrectCommission	0.049270	0.956497	0
16.379570	0.795883	city	7	1	0.648946	0.648946	0	1	0	0	CorrectCommission	1.072712	0.888451	0
17.175386	0.795748	city	2	1	0.649079	0.649079	0	1	0	0	CorrectCommission	1.071417	0.839691	0
17.971182	0.795845	city	1	1	0.661972	0.661972	0	1	0	0	CorrectCommission	0.945619	0.806613	0
18.766994	0.795779	city	9	1	0.748647	0.748647	0	1	0	0	CorrectCommission	0.099911	0.786295	0
19.562771	0.795772	city	2	1	0.903011	0.903011	0	1	0	0	CorrectCommission	1.406249	0.776810	0
20.358702	0.796093	city	4	1	0.797725	0.797725	0	1	0	0	CorrectCommission	0.378952	0.777007	0
21.154514	0.795531	city	1	1	0.699160	0.699160	0	1	0	0	CorrectCommission	0.582769	0.786518	0
21.950190	0.795820	city	7	1	0.748226	0.748226	0	1	0	0	CorrectCommission	0.104023	0.805308	0
22.746147	0.796094	mountain	8	0	0.000000	0.836693	1	0	0	0	CorrectOmission	0.759168	0.833486	0
23.541918	0.795447	city	4	1	0.896993	0.896993	0	1	0	0	CorrectCommission	1.347527	0.870797	0
24.337580	0.795876	city	7	1	0.861557	0.861557	0	1	0	0	CorrectCommission	1.001776	0.916456	0
25.133429	0.795823	city	10	1	0.797841	0.797841	0	1	0	0	CorrectCommission	0.380083	0.968916	0
25.929190	0.795699	city	4	1	0.797761	0.797761	0	1	0	0	CorrectCommission	0.379301	1.025849	0
26.724981	0.795886	city	6	1	0.698910	0.698910	0	1	0	0	CorrectCommission	0.585204	1.084180	0
27.520800	0.795748	city	8	1	0.601485	0.601485	0	1	0	0	CorrectCommission	1.535803	1.140275	0
28.316566	0.795786	city	2	1	0.649040	0.649040	0	1	0	0	CorrectCommission	1.071799	1.190248	0
29.112381	0.795842	city	7	1	0.648943	0.648943	0	1	0	0	CorrectCommission	1.072745	1.230480	0
29.908197	0.795791	mountain	1	0	0.000000	0.584400	1	0	0	0	CorrectOmission	1.702502	1.258071	0
30.704149	0.796113	city	6	1	0.510718	0.510718	0	1	0	0	CorrectCommission	2.421432	1.271207	0
31.499929	0.795446	mountain	1	0	0.000000	0.483203	1	0	0	0	CorrectOmission	2.689895	1.269550	0
32.295605	0.795903	city	4	1	0.499432	0.499432	0	1	0	0	CorrectCommission	2.531552	1.254388	0
33.091454	0.795796	city	10	1	0.556978	0.556978	0	1	0	0	CorrectCommission	1.970065	1.228600	0
33.887207	0.795715	city	6	1	0.748051	0.748051	0	1	0	0	CorrectCommission	0.105731	1.196297	0
34.682995	0.795856	city	7	1	0.699194	0.699194	0	1	0	0	CorrectCommission	0.582436	1.162346	0
35.478783	0.795724	city	3	1	0.798905	0.798905	0	1	0	0	CorrectCommission	0.390463	1.131696	0
36.274597	0.795902	city	2	1	0.798683	0.798683	0	1	0	0	CorrectCommission	0.388303	1.108867	0
37.070450	0.795806	city	5	1	0.698941	0.698941	0	1	0	0	CorrectCommission	0.584901	1.097305	0
37.866211	0.795710	city	1	1	0.614759	0.614759	0	1	0	0	CorrectCommission	1.406283	1.099112	0
38.662140	0.796153	city	4	1	0.748832	0.748832	0	1	0	0	CorrectCommission	0.098104	1.114767	0
39.457966	0.795495	city	6	1	0.652103	0.652103	0	1	0	0	CorrectCommission	1.041908	1.143322	0
40.253624	0.795820	city	5	1	0.698374	0.698374	0	1	0	0	CorrectCommission	0.590436	1.182406	0
41.049442	0.795816	city	8	1	0.661260	0.661260	0	1	0	0	CorrectCommission	0.952563	1.228730	0
41.845234	0.795769	city	5	1	0.599050	0.599050	0	1	0	0	CorrectCommission	1.559555	1.278446	0
42.641178	0.796116	city	8	1	0.549875	0.549875	0	1	0	0	CorrectCommission	2.039363	1.327665	0
43.436951	0.795428	city	5	1	0.550334	0.550334	0	1	0	0	CorrectCommission	2.034890	1.372848	0
44.232754	0.796177	city	6	1	0.516975	0.516975	0	1	0	0	CorrectCommission	2.360377	1.411163	0
45.028576	0.795474	city	1	1	0.549133	0.549133	0	1	0	0	CorrectCommission	2.046605	1.440571	0
45.824215	0.795800	city	6	1	0.649394	0.649394	0	1	0	0	CorrectCommission	1.068344	1.459947	0
46.620182	0.796133	city	2	1	0.698762	0.698762	0	1	0	0	CorrectCommission	0.586650	1.468944	0
47.415989	0.795482	city	7	1	0.648340	0.648340	0	1	0	0	CorrectCommission	1.078625	1.467853	0
48.211601	0.795740	city	3	1	0.599884	0.599884	0	1	0	0	CorrectCommission	1.551422	1.457390	0
49.007416	0.795888	city	10	1	0.504024	0.504024	0	1	0	0	CorrectCommission	2.486746	1.438567	0
49.803230	0.795743	city	5	1	0.598902	0.598902	0	1	0	0	CorrectCommission	1.561002	1.412552	0
50.599022	0.795844	city	2	1	0.549151	0.549151	0	1	0	0	CorrectCommission	2.046431	1.380632	0
51.394848	0.795807	city	8	1	0.600516	0.600516	0	1	0	0	CorrectCommission	1.545253	1.344103	0
52.190655	0.795806	city	4	1	0.699122	0.699122	0	1	0	0	CorrectCommission	0.583135	1.304183	0
52.986427	0.795736	city	5	1	0.651011	0.651011	0	1	0	0	CorrectCommission	1.052562	1.261969	0
53.782242	0.795891	city	9	1	0.698930	0.698930	0	1	0	0	CorrectCommission	0.585011	1.218355	0
54.578068	0.795761	city	5	1	0.598756	0.598756	0	1	0	0	CorrectCommission	1.562429	1.174100	0
55.373825	0.795753	city	7	1	0.600075	0.600075	0	1	0	0	CorrectCommission	1.549560	1.129671	0
56.169598	0.795799	mountain	9	1	0.599517	0.599517	0	0	1	0	CommissionError	1.554998	1.085429	0
56.965580	0.796164	city	9	1	0.698822	0.698822	0	1	0	0	CorrectCommission	0.586063	1.041565	0
57.761398	0.795473	city	1	1	0.698292	0.698292	0	1	0	0	CorrectCommission	0.591233	0.998232	0
58.557026	0.795781	city	8	1	0.798506	0.798506	0	1	0	0	CorrectCommission	0.386577	0.955539	0
59.352814	0.795793	city	9	1	0.902044	0.902044	0	1	0	0	CorrectCommission	1.396812	0.913605	0
60.148792	0.796169	city	3	1	0.897950	0.897950	0	1	0	0	CorrectCommission	1.356870	0.872581	0
60.944595	0.795434	city	6	1	0.909180	0.909180	0	1	0	0	CorrectCommission	1.466442	0.832767	0
61.740211	0.795802	city	8	1	0.748541	0.748541	0	1	0	0	CorrectCommission	0.100949	0.794556	0
62.536011	0.795799	city	6	1	0.698630	0.698630	0	1	0	0	CorrectCommission	0.587937	0.758472	1
63.331860	0.795896	mountain	9	0	0.000000	0.673524	1	0	0	0	CorrectOmission	0.832896	0.725040	1
64.127686	0.795750	city	7	1	0.699252	0.699252	0	1	0	0	CorrectCommission	0.581865	0.694777	1
64.923439	0.795765	city	5	1	0.801842	0.801842	0	1	0	0	CorrectCommission	0.419119	0.668139	1
65.719269	0.795892	city	4	1	0.766519	0.766519	0	1	0	0	CorrectCommission	0.074465	0.645428	1
66.515083	0.795737	city	9	1	0.648777	0.648777	0	1	0	0	CorrectCommission	1.074363	0.626758	1
67.310844	0.795790	mountain	10	0	0.000000	0.692177	1	0	0	0	CorrectOmission	0.650901	0.612036	1
68.106804	0.796126	city	3	1	0.755632	0.755632	0	1	0	0	CorrectCommission	0.031753	0.601008	1
68.902626	0.795518	city	7	1	0.698057	0.698057	0	1	0	0	CorrectCommission	0.593524	0.593254	1
69.698265	0.795753	city	1	1	0.899533	0.899533	0	1	0	0	CorrectCommission	1.372309	0.588183	1
70.494041	0.795802	city	4	1	0.847892	0.847892	0	1	0	0	CorrectCommission	0.868440	0.585025	1
71.289879	0.795868	city	8	1	0.749139	0.749139	0	1	0	0	CorrectCommission	0.095110	0.582978	1
72.085716	0.795818	city	9	1	0.749770	0.749770	0	1	0	0	CorrectCommission	0.088957	0.581125	1
72.881508	0.795763	city	2	1	0.765168	0.765168	0	1	0	0	CorrectCommission	0.061284	0.578502	1
73.677292	0.795797	city	7	1	0.648887	0.648887	0	1	0	0	CorrectCommission	1.073286	0.574213	1
74.473106	0.795843	city	9	1	0.699115	0.699115	0	1	0	0	CorrectCommission	0.583200	0.567500	1
75.268913	0.795770	mountain	4	0	0.000000	0.689650	1	0	0	0	CorrectOmission	0.675556	0.557938	1
76.064667	0.795733	mountain	2	0	0.000000	0.660010	1	0	0	0	CorrectOmission	0.964762	0.545500	1
76.860458	0.795852	city	10	1	0.649713	0.649713	0	1	0	0	CorrectCommission	1.065226	0.530586	1
77.656311	0.795851	city	8	1	0.698280	0.698280	0	1	0	0	CorrectCommission	0.591355	0.514106	1
78.452126	0.795784	city	10	1	0.698391	0.698391	0	1	0	0	CorrectCommission	0.590269	0.497414	1
79.247910	0.795784	city	8	1	0.748728	0.748728	0	1	0	0	CorrectCommission	0.099120	0.482171	1
80.043671	0.795737	city	5	1	0.699328	0.699328	0	1	0	0	CorrectCommission	0.581129	0.470106	1
80.839630	0.796169	city	9	1	0.748933	0.748933	0	1	0	0	CorrectCommission	0.097116	0.462864	1
81.635475	0.795534	city	7	1	0.747755	0.747755	0	1	0	0	CorrectCommission	0.108614	0.461777	1
82.431137	0.795781	city	9	1	0.748649	0.748649	0	1	0	0	CorrectCommission	0.099894	0.467660	1
83.226891	0.795728	city	2	1	0.749515	0.749515	0	1	0	0	CorrectCommission	0.091437	0.480841	1
84.022705	0.795895	city	1	1	0.748102	0.748102	0	1	0	0	CorrectCommission	0.105227	0.501000	1
84.818535	0.795768	mountain	6	1	0.699009	0.699009	0	0	1	0	CommissionError	0.584234	0.527386	1
85.614334	0.795829	mountain	8	0	0.000000	0.798233	1	0	0	0	CorrectOmission	0.383912	0.558888	1
86.410149	0.795800	city	6	1	0.897509	0.897509	0	1	0	0	CorrectCommission	1.352568	0.594219	1
87.205940	0.795785	city	8	1	0.848574	0.848574	0	1	0	0	CorrectCommission	0.875093	0.632058	1
88.001717	0.795771	city	10	1	0.698991	0.698991	0	1	0	0	CorrectCommission	0.584410	0.671266	1
88.797508	0.795808	city	4	1	0.865327	0.865327	0	1	0	0	CorrectCommission	1.038559	0.710894	1
89.593292	0.795769	city	9	1	0.698365	0.698365	0	1	0	0	CorrectCommission	0.590518	0.750132	1
90.389122	0.795884	city	5	1	0.802527	0.802527	0	1	0	0	CorrectCommission	0.425811	0.788377	0
91.185097	0.796068	city	2	1	0.847843	0.847843	0	1	0	0	CorrectCommission	0.867962	0.825076	0
91.981033	0.795806	city	9	1	0.797444	0.797444	0	1	0	0	CorrectCommission	0.376210	0.859629	0
92.776817	0.795760	mountain	1	0	0.000000	0.842456	1	0	0	0	CorrectOmission	0.815401	0.891430	0
93.572472	0.795552	mountain	8	0	0.000000	0.902697	1	0	0	0	CorrectOmission	1.403184	0.919803	0
94.368149	0.795794	city	3	1	0.897985	0.897985	0	1	0	0	CorrectCommission	1.357208	0.944074	0
95.163948	0.795812	city	1	1	0.748138	0.748138	0	1	0	0	CorrectCommission	0.104878	0.963677	0
95.959892	0.796076	city	6	1	0.997416	0.997416	0	1	0	0	CorrectCommission	2.327375	0.978266	0
96.755707	0.795554	city	7	1	0.897572	0.897572	0	1	0	0	CorrectCommission	1.353174	0.987659	0
97.551514	0.796064	city	1	1	0.766573	0.766573	0	1	0	0	CorrectCommission	0.074996	0.992116	0
98.347290	0.795489	city	7	1	0.957995	0.957995	0	1	0	0	CorrectCommission	1.942736	0.992208	0
99.142952	0.795836	city	10	1	0.798494	0.798494	0	1	0	0	CorrectCommission	0.386458	0.988682	0
99.938728	0.795716	city	7	1	0.906630	0.906630	0	1	0	0	CorrectCommission	1.441562	0.982616	0
100.734535	0.795895	mountain	5	0	0.000000	0.862094	1	0	0	0	CorrectOmission	1.007008	0.975007	0
101.530334	0.795706	city	4	1	0.748418	0.748418	0	1	0	0	CorrectCommission	0.102145	0.966866	0
102.326103	0.795819	city	1	1	0.649138	0.649138	0	1	0	0	CorrectCommission	1.070839	0.958989	0
103.121925	0.795837	city	2	1	0.908670	0.908670	0	1	0	0	CorrectCommission	1.461464	0.951822	0
103.917755	0.795822	mountain	10	0	0.000000	0.855128	1	0	0	0	CorrectOmission	0.939044	0.945488	0
104.713554	0.795780	city	9	1	0.748443	0.748443	0	1	0	0	CorrectCommission	0.101902	0.939799	0
105.509354	0.795814	city	10	1	0.848547	0.848547	0	1	0	0	CorrectCommission	0.874829	0.934318	0
106.305176	0.795821	city	9	1	0.948007	0.948007	0	1	0	0	CorrectCommission	1.845278	0.928342	0
107.100990	0.795807	city	10	1	0.699329	0.699329	0	1	0	0	CorrectCommission	0.581111	0.921087	0
107.896790	0.795804	city	3	1	0.699129	0.699129	0	1	0	0	CorrectCommission	0.583070	0.911915	0
108.692596	0.795810	mountain	10	0	0.000000	0.640613	1	0	0	0	CorrectOmission	1.154021	0.900300	0
109.488388	0.795774	city	8	1	0.598923	0.598923	0	1	0	0	CorrectCommission	1.560792	0.886001	0
110.284157	0.795762	city	10	1	0.649203	0.649203	0	1	0	0	CorrectCommission	1.070209	0.869117	0
111.079956	0.795831	city	4	1	0.699328	0.699328	0	1	0	0	CorrectCommission	0.581127	0.850119	0
111.875786	0.795829	city	10	1	0.699147	0.699147	0	1	0	0	CorrectCommission	0.582890	0.829793	0
112.671738	0.796068	city	4	1	0.906197	0.906197	0	1	0	0	CorrectCommission	1.437335	0.809233	0
113.467491	0.795447	city	1	1	0.748730	0.748730	0	1	0	0	CorrectCommission	0.099099	0.789638	0
114.263123	0.795817	city	5	1	0.808227	0.808227	0	1	0	0	CorrectCommission	0.481421	0.772414	0
115.058929	0.795790	city	9	1	0.897317	0.897317	0	1	0	0	CorrectCommission	1.350690	0.758945	1
115.854744	0.795841	mountain	6	0	0.000000	0.778586	1	0	0	0	CorrectOmission	0.192207	0.750446	1
116.650543	0.795760	city	2	1	0.649275	0.649275	0	1	0	0	CorrectCommission	1.069505	0.748134	1
117.446350	0.795859	city	5	1	0.706625	0.706625	0	1	0	0	CorrectCommission	0.509923	0.752863	1
118.242157	0.795752	city	10	1	0.765153	0.765153	0	1	0	0	CorrectCommission	0.061138	0.765261	1
119.037941	0.795807	city	8	1	0.847682	0.847682	0	1	0	0	CorrectCommission	0.866393	0.785570	0
119.833900	0.796123	city	10	1	0.698540	0.698540	0	1	0	0	CorrectCommission	0.588810	0.813538	0
120.629715	0.795507	city	8	1	0.648861	0.648861	0	1	0	0	CorrectCommission	1.073544	0.848469	0
121.425362	0.795782	city	1	1	0.648885	0.648885	0	1	0	0	CorrectCommission	1.073306	0.889141	0
122.221138	0.795765	city	10	1	0.698673	0.698673	0	1	0	0	CorrectCommission	0.587518	0.933845	0
123.016922	0.795804	city	6	1	0.700899	0.700899	0	1	0	0	CorrectCommission	0.565801	0.980466	0
123.812729	0.795807	city	4	1	0.698833	0.698833	0	1	0	0	CorrectCommission	0.585951	1.026536	0
124.608536	0.795820	city	1	1	0.651032	0.651032	0	1	0	0	CorrectCommission	1.052358	1.069460	0
125.404388	0.795877	city	8	1	0.599581	0.599581	0	1	0	0	CorrectCommission	1.554373	1.106701	0
126.200203	0.795757	city	2	1	0.598777	0.598777	0	1	0	0	CorrectCommission	1.562222	1.135991	0
126.996002	0.795833	city	3	1	0.598867	0.598867	0	1	0	0	CorrectCommission	1.561343	1.155557	0
127.791824	0.795809	city	7	1	0.601274	0.601274	0	1	0	0	CorrectCommission	1.537855	1.164313	0
128.587616	0.795776	city	9	1	0.549365	0.549365	0	1	0	0	CorrectCommission	2.044344	1.161898	0
129.383408	0.795826	mountain	8	1	0.549061	0.549061	0	0	1	0	CommissionError	2.047312	1.148656	0
130.179214	0.795770	mountain	3	0	0.000000	0.664076	1	0	0	0	CorrectOmission	0.925082	1.125527	0
130.975006	0.795828	city	6	1	0.748290	0.748290	0	1	0	0	CorrectCommission	0.103394	1.093957	0
131.770966	0.796094	city	9	1	0.655580	0.655580	0	1	0	0	CorrectCommission	1.007983	1.055595	0
132.566910	0.795795	city	4	1	0.700590	0.700590	0	1	0	0	CorrectCommission	0.568809	1.012013	0
133.362564	0.795510	city	1	1	0.614249	0.614249	0	1	0	0	CorrectCommission	1.411257	0.964772	0
134.158218	0.795784	city	8	1	0.713269	0.713269	0	1	0	0	CorrectCommission	0.445105	0.915167	0
134.954025	0.795842	city	10	1	0.661615	0.661615	0	1	0	0	CorrectCommission	0.949094	0.864341	0
135.749817	0.795737	mountain	1	0	0.000000	0.596129	1	0	0	0	CorrectOmission	1.588061	0.813248	0
136.545578	0.795772	city	7	1	0.599049	0.599049	0	1	0	0	CorrectCommission	1.559566	0.762756	1
137.341370	0.795810	city	8	1	0.752618	0.752618	0	1	0	0	CorrectCommission	0.061169	0.713785	1
138.137192	0.795847	city	4	1	0.716928	0.716928	0	1	0	0	CorrectCommission	0.409400	0.667368	1
138.932999	0.795763	city	5	1	0.699877	0.699877	0	1	0	0	CorrectCommission	0.575767	0.624567	1
139.728790	0.795826	city	1	1	0.748268	0.748268	0	1	0	0	CorrectCommission	0.103609	0.586510	1
140.524612	0.795814	city	8	1	0.716321	0.716321	0	1	0	0	CorrectCommission	0.415319	0.554325	1
141.320404	0.795781	city	1	1	0.798922	0.798922	0	1	0	0	CorrectCommission	0.390630	0.529001	1
142.116196	0.795802	city	4	1	0.797926	0.797926	0	1	0	0	CorrectCommission	0.380911	0.511349	1
142.912064	0.795922	city	1	1	0.648959	0.648959	0	1	0	0	CorrectCommission	1.072589	0.501844	1
143.707855	0.795664	city	3	1	0.715993	0.715993	0	1	0	0	CorrectCommission	0.418525	0.500548	1
144.503616	0.795855	city	10	1	0.754202	0.754202	0	1	0	0	CorrectCommission	0.045707	0.507100	1
145.299591	0.796087	city	2	1	0.748767	0.748767	0	1	0	0	CorrectCommission	0.098741	0.520639	1
146.095398	0.795546	city	7	1	0.748146	0.748146	0	1	0	0	CorrectCommission	0.104798	0.539792	1
146.891083	0.795799	mountain	7	0	0.000000	0.768226	1	0	0	0	CorrectOmission	0.091127	0.562813	1
147.686829	0.795700	city	4	1	0.748583	0.748583	0	1	0	0	CorrectCommission	0.100535	0.587670	1
148.482758	0.796165	mountain	2	0	0.000000	0.628793	1	0	0	0	CorrectOmission	1.269352	0.612260	1
149.278610	0.795528	city	7	1	0.549074	0.549074	0	1	0	0	CorrectCommission	2.047178	0.634512	1
150.074249	0.795769	city	8	1	0.649648	0.649648	0	1	0	0	CorrectCommission	1.065866	0.652660	1
150.870041	0.795821	city	3	1	0.797958	0.797958	0	1	0	0	CorrectCommission	0.381227	0.665426	1
151.665878	0.795826	city	10	1	0.804383	0.804383	0	1	0	0	CorrectCommission	0.443919	0.672075	1
152.461670	0.795764	city	6	1	0.811002	0.811002	0	1	0	0	CorrectCommission	0.508494	0.672438	1
153.257599	0.796114	city	4	1	0.698339	0.698339	0	1	0	0	CorrectCommission	0.590771	0.666936	1
154.053391	0.795447	city	1	1	0.648175	0.648175	0	1	0	0	CorrectCommission	1.080238	0.656490	1
154.848999	0.795792	mountain	6	0	0.000000	0.662276	1	0	0	0	CorrectOmission	0.942644	0.642558	1
155.644806	0.795821	city	2	1	0.699018	0.699018	0	1	0	0	CorrectCommission	0.584146	0.626962	1
156.440796	0.796143	city	8	1	0.716774	0.716774	0	1	0	0	CorrectCommission	0.410900	0.611808	1
157.236618	0.795499	city	3	1	0.649297	0.649297	0	1	0	0	CorrectCommission	1.069283	0.599302	1
158.032242	0.795753	mountain	5	0	0.000000	0.719681	1	0	0	0	CorrectOmission	0.382535	0.591531	1
158.828186	0.796125	city	7	1	0.797839	0.797839	0	1	0	0	CorrectCommission	0.380065	0.590339	1
159.623978	0.795473	city	2	1	0.753684	0.753684	0	1	0	0	CorrectCommission	0.050764	0.597071	1
160.419662	0.795885	city	9	1	0.748169	0.748169	0	1	0	0	CorrectCommission	0.104573	0.612443	1
161.215500	0.795804	city	8	1	0.754329	0.754329	0	1	0	0	CorrectCommission	0.044470	0.636480	1
162.011276	0.795735	city	6	1	0.897492	0.897492	0	1	0	0	CorrectCommission	1.352397	0.668487	1
162.807068	0.795841	city	10	1	0.798735	0.798735	0	1	0	0	CorrectCommission	0.388806	0.707010	1
163.602875	0.795770	mountain	9	0	0.000000	0.732333	1	0	0	0	CorrectOmission	0.259091	0.750156	1
164.398636	0.795778	city	4	1	0.698931	0.698931	0	1	0	0	CorrectCommission	0.584996	0.795607	0
165.194458	0.795861	city	1	1	0.699176	0.699176	0	1	0	0	CorrectCommission	0.582612	0.840924	0
165.990280	0.795766	mountain	7	0	0.000000	0.591960	1	0	0	0	CorrectOmission	1.628731	0.883736	0
166.786224	0.796121	city	6	1	0.600270	0.600270	0	1	0	0	CorrectCommission	1.547656	0.921907	0
167.582031	0.795495	city	2	1	0.947087	0.947087	0	1	0	0	CorrectCommission	1.836306	0.953809	0
168.377701	0.795853	city	9	1	0.947416	0.947416	0	1	0	0	CorrectCommission	1.839521	0.978306	0
169.173645	0.796044	city	10	1	0.748098	0.748098	0	1	0	0	CorrectCommission	0.105268	0.994760	0
169.969437	0.795519	city	8	1	0.698874	0.698874	0	1	0	0	CorrectCommission	0.585558	1.003027	0
170.765091	0.795787	city	5	1	0.748698	0.748698	0	1	0	0	CorrectCommission	0.099411	1.003209	0
171.560852	0.795743	mountain	6	0	0.000000	0.624573	1	0	0	0	CorrectOmission	1.310526	0.995671	0
172.356628	0.795816	city	6	1	0.599667	0.599667	0	1	0	0	CorrectCommission	1.553538	0.980907	0
173.152466	0.795866	city	2	1	0.947150	0.947150	0	1	0	0	CorrectCommission	1.836921	0.959590	0
173.948456	0.796100	city	4	1	0.897977	0.897977	0	1	0	0	CorrectCommission	1.357130	0.932530	0
174.744247	0.795494	city	3	1	0.698277	0.698277	0	1	0	0	CorrectCommission	0.591381	0.900704	0
175.539917	0.795845	city	6	1	0.715531	0.715531	0	1	0	0	CorrectCommission	0.423032	0.865290	0
176.335693	0.795694	city	9	1	0.648645	0.648645	0	1	0	0	CorrectCommission	1.075650	0.827569	0
177.131454	0.795827	city	1	1	0.649370	0.649370	0	1	0	0	CorrectCommission	1.068570	0.788984	0
177.927292	0.795870	city	9	1	0.748838	0.748838	0	1	0	0	CorrectCommission	0.098050	0.750975	1
178.723129	0.795807	city	6	1	0.648783	0.648783	0	1	0	0	CorrectCommission	1.074302	0.715020	1
179.518936	0.795781	city	2	1	0.798533	0.798533	0	1	0	0	CorrectCommission	0.386837	0.682392	1
180.314713	0.795795	city	4	1	0.852714	0.852714	0	1	0	0	CorrectCommission	0.915487	0.654259	1
181.110504	0.795771	city	10	1	0.798392	0.798392	0	1	0	0	CorrectCommission	0.385457	0.631479	1
181.906311	0.795847	city	6	1	0.749626	0.749626	0	1	0	0	CorrectCommission	0.090363	0.614654	1
182.702103	0.795743	city	2	1	0.807214	0.807214	0	1	0	0	CorrectCommission	0.471535	0.604047	1
183.498032	0.796104	city	4	1	0.797739	0.797739	0	1	0	0	CorrectCommission	0.379092	0.599615	1
184.293839	0.795507	city	7	1	0.819459	0.819459	0	1	0	0	CorrectCommission	0.591011	0.601134	1
185.089523	0.795864	city	5	1	0.848539	0.848539	0	1	0	0	CorrectCommission	0.874755	0.608207	1
185.885300	0.795694	city	10	1	0.705775	0.705775	0	1	0	0	CorrectCommission	0.518218	0.620358	1
186.681244	0.796184	city	8	1	0.712203	0.712203	0	1	0	0	CorrectCommission	0.455499	0.637253	1
187.477081	0.795502	city	1	1	0.847763	0.847763	0	1	0	0	CorrectCommission	0.867183	0.658565	1
188.272720	0.795772	city	8	1	0.847878	0.847878	0	1	0	0	CorrectCommission	0.868302	0.684048	1
189.068481	0.795766	city	1	1	0.798782	0.798782	0	1	0	0	CorrectCommission	0.389270	0.713492	1
189.864273	0.795814	city	7	1	0.709627	0.709627	0	1	0	0	CorrectCommission	0.480633	0.746652	1
190.660110	0.795845	mountain	4	0	0.000000	0.672496	1	0	0	0	CorrectOmission	0.842931	0.783196	0
191.456085	0.796102	city	5	1	0.748100	0.748100	0	1	0	0	CorrectCommission	0.105244	0.822593	0
192.251892	0.795513	city	6	1	0.997153	0.997153	0	1	0	0	CorrectCommission	2.324807	0.864125	0
193.047546	0.795802	city	1	1	0.748289	0.748289	0	1	0	0	CorrectCommission	0.103408	0.906728	0
193.843338	0.795802	city	6	1	0.749011	0.749011	0	1	0	0	CorrectCommission	0.096360	0.949232	0
194.639145	0.795792	mountain	9	1	0.864222	0.864222	0	0	1	0	CommissionError	1.027778	0.990180	0
195.434921	0.795780	city	6	1	0.907017	0.907017	0	1	0	0	CorrectCommission	1.445331	1.028025	0
196.230728	0.795832	city	8	1	0.904553	0.904553	0	1	0	0	CorrectCommission	1.421297	1.061200	0
197.026535	0.795777	city	7	1	0.947449	0.947449	0	1	0	0	CorrectCommission	1.839839	1.088272	0
197.822311	0.795757	city	10	1	0.858901	0.858901	0	1	0	0	CorrectCommission	0.975854	1.107966	0
198.618118	0.795869	city	8	1	0.897657	0.897657	0	1	0	0	CorrectCommission	1.354010	1.119354	0
199.413971	0.795823	city	6	1	0.947340	0.947340	0	1	0	0	CorrectCommission	1.838779	1.121794	0
200.209732	0.795718	mountain	2	0	0.000000	0.824114	1	0	0	0	CorrectOmission	0.636440	1.114910	0
201.005676	0.796150	city	9	1	0.750112	0.750112	0	1	0	0	CorrectCommission	0.085618	1.098756	0
201.801498	0.795520	city	7	1	0.947465	0.947465	0	1	0	0	CorrectCommission	1.839995	1.073714	0
202.597168	0.795809	city	5	1	0.897865	0.897865	0	1	0	0	CorrectCommission	1.356038	1.040452	0
203.392944	0.795738	city	7	1	0.898372	0.898372	0	1	0	0	CorrectCommission	1.360983	1.000119	0
204.188736	0.795858	city	6	1	0.908874	0.908874	0	1	0	0	CorrectCommission	1.463450	0.954222	0
204.984573	0.795804	mountain	1	0	0.000000	0.714216	1	0	0	0	CorrectOmission	0.435857	0.904654	0
205.780380	0.795806	city	8	1	0.598934	0.598934	0	1	0	0	CorrectCommission	1.560693	0.853674	0
206.576172	0.795778	city	4	1	0.847558	0.847558	0	1	0	0	CorrectCommission	0.865183	0.803675	0
207.371964	0.795813	city	3	1	0.748640	0.748640	0	1	0	0	CorrectCommission	0.099979	0.757163	1
208.167786	0.795833	city	6	1	0.807938	0.807938	0	1	0	0	CorrectCommission	0.478600	0.716577	1
208.963562	0.795733	city	2	1	0.801794	0.801794	0	1	0	0	CorrectCommission	0.418654	0.683989	1
209.759369	0.795857	city	10	1	0.748482	0.748482	0	1	0	0	CorrectCommission	0.101521	0.660999	1
210.555191	0.795805	city	5	1	0.698320	0.698320	0	1	0	0	CorrectCommission	0.590964	0.648747	1
211.350967	0.795734	city	3	1	0.702399	0.702399	0	1	0	0	CorrectCommission	0.551161	0.647780	1
212.146744	0.795818	city	9	1	0.748425	0.748425	0	1	0	0	CorrectCommission	0.102076	0.658134	1
212.942551	0.795816	city	6	1	0.749085	0.749085	0	1	0	0	CorrectCommission	0.095639	0.679431	1
213.738388	0.795829	city	2	0	0.000000	0.647816	0	0	0	1	OmissionError	1.083739	0.710987	1
214.534195	0.795801	mountain	10	1	0.599124	0.599124	0	0	1	0	CommissionError	1.558838	0.751836	1
215.329956	0.795726	city	8	1	0.757514	0.757514	0	1	0	0	CorrectCommission	0.013398	0.800870	0
216.125748	0.795847	mountain	1	0	0.000000	0.686026	1	0	0	0	CorrectOmission	0.710912	0.856912	0
216.921585	0.795818	city	1	1	0.649872	0.649872	0	1	0	0	CorrectCommission	1.063674	0.918428	0
217.717361	0.795754	city	10	1	0.914262	0.914262	0	1	0	0	CorrectCommission	1.516021	0.983664	0
218.513153	0.795823	city	9	1	0.897837	0.897837	0	1	0	0	CorrectCommission	1.355764	1.050538	0
219.308990	0.795856	city	5	1	0.748125	0.748125	0	1	0	0	CorrectCommission	0.105008	1.116530	0
220.104797	0.795745	city	10	1	0.801597	0.801597	0	1	0	0	CorrectCommission	0.416728	1.178810	0
220.900574	0.795826	city	1	1	0.848656	0.848656	0	1	0	0	CorrectCommission	0.875895	1.234293	0
221.696365	0.795760	city	10	1	0.848999	0.848999	0	1	0	0	CorrectCommission	0.879245	1.279913	0
222.492142	0.795780	city	9	1	0.897333	0.897333	0	1	0	0	CorrectCommission	1.350848	1.312999	0
223.287964	0.795851	city	1	1	1.196461	1.196461	0	1	0	0	CorrectCommission	4.269493	1.331555	0
224.083786	0.795812	city	7	1	1.003903	1.003903	0	1	0	0	CorrectCommission	2.390665	1.334499	0
224.879562	0.795732	city	8	1	0.997451	0.997451	0	1	0	0	CorrectCommission	2.327713	1.322060	0
225.675354	0.795866	city	4	1	0.947426	0.947426	0	1	0	0	CorrectCommission	1.839616	1.295554	0
226.471329	0.796086	mountain	5	0	0.000000	0.839088	1	0	0	0	CorrectOmission	0.782535	1.257220	0
227.267166	0.795569	city	5	1	0.748191	0.748191	0	1	0	0	CorrectCommission	0.104356	1.209988	0
228.062836	0.795782	city	2	1	0.750495	0.750495	0	1	0	0	CorrectCommission	0.081883	1.156963	0
228.858627	0.795782	city	9	1	0.847846	0.847846	0	1	0	0	CorrectCommission	0.867993	1.101061	0
229.654373	0.795734	city	10	1	0.864411	0.864411	0	1	0	0	CorrectCommission	1.029617	1.044739	0
230.450195	0.795891	mountain	7	0	0.000000	0.668037	1	0	0	0	CorrectOmission	0.886442	0.989929	0
231.246033	0.795795	city	1	1	0.549119	0.549119	0	1	0	0	CorrectCommission	2.046739	0.937946	0
232.041824	0.795774	city	10	1	0.798055	0.798055	0	1	0	0	CorrectCommission	0.382172	0.889551	0
232.837570	0.795738	city	7	1	0.847863	0.847863	0	1	0	0	CorrectCommission	0.868162	0.845377	0
233.633377	0.795864	city	8	1	0.897721	0.897721	0	1	0	0	CorrectCommission	1.354629	0.805853	0
234.429184	0.795750	city	9	1	0.848236	0.848236	0	1	0	0	CorrectCommission	0.871800	0.771452	0
235.224960	0.795808	mountain	7	0	0.000000	0.746598	1	0	0	0	CorrectOmission	0.119908	0.742861	1
236.020813	0.795888	city	9	1	0.699821	0.699821	0	1	0	0	CorrectCommission	0.576319	0.720903	1
236.816650	0.795804	city	4	1	0.814922	0.814922	0	1	0	0	CorrectCommission	0.546743	0.706493	1
237.612457	0.795788	city	6	1	0.748049	0.748049	0	1	0	0	CorrectCommission	0.105750	0.700506	1
238.408234	0.795779	city	2	1	0.847926	0.847926	0	1	0	0	CorrectCommission	0.868770	0.703639	1
239.204041	0.795843	city	6	1	0.847851	0.847851	0	1	0	0	CorrectCommission	0.868039	0.716222	1
239.999817	0.795710	city	10	1	0.757367	0.757367	0	1	0	0	CorrectCommission	0.014825	0.738051	1
240.795609	0.795872	city	3	1	0.847596	0.847596	0	1	0	0	CorrectCommission	0.865550	0.768310	0
241.591461	0.795817	city	9	1	0.761849	0.761849	0	1	0	0	CorrectCommission	0.028899	0.805521	0
242.387238	0.795750	city	6	1	0.898251	0.898251	0	1	0	0	CorrectCommission	1.359800	0.847691	0
243.183167	0.796116	city	7	1	0.858440	0.858440	0	1	0	0	CorrectCommission	0.971356	0.892339	0
243.979126	0.795785	city	10	1	0.805755	0.805755	0	1	0	0	CorrectCommission	0.457303	0.936718	0
244.774780	0.795542	city	6	1	0.706935	0.706935	0	1	0	0	CorrectCommission	0.506902	0.978098	0
245.570419	0.795722	city	1	1	0.549067	0.549067	0	1	0	0	CorrectCommission	2.047248	1.013933	0
246.366180	0.795815	city	2	1	0.599108	0.599108	0	1	0	0	CorrectCommission	1.558992	1.042041	0
247.162170	0.796147	city	5	1	0.649099	0.649099	0	1	0	0	CorrectCommission	1.071216	1.060929	0
247.957977	0.795464	mountain	5	0	0.000000	0.592318	1	0	0	0	CorrectOmission	1.625246	1.069879	0
248.753632	0.795858	mountain	10	1	0.601002	0.601002	0	0	1	0	CommissionError	1.540514	1.068871	0
249.549454	0.795769	city	9	1	0.847390	0.847390	0	1	0	0	CorrectCommission	0.863545	1.058725	0
250.345245	0.795835	city	3	1	0.947232	0.947232	0	1	0	0	CorrectCommission	1.837717	1.040895	0
251.141037	0.795727	mountain	2	0	0.000000	0.832434	1	0	0	0	CorrectOmission	0.717616	1.017143	0
251.936829	0.795869	city	6	1	0.700749	0.700749	0	1	0	0	CorrectCommission	0.567256	0.989568	0
252.732635	0.795754	city	2	1	0.749929	0.749929	0	1	0	0	CorrectCommission	0.087401	0.960285	0
253.528412	0.795778	city	3	1	0.849919	0.849919	0	1	0	0	CorrectCommission	0.888215	0.931292	0
254.324219	0.795844	city	4	1	0.997721	0.997721	0	1	0	0	CorrectCommission	2.330350	0.904305	0
255.120056	0.795843	city	5	1	0.750739	0.750739	0	1	0	0	CorrectCommission	0.079494	0.880738	0
255.915878	0.795797	city	1	1	0.848244	0.848244	0	1	0	0	CorrectCommission	0.871874	0.861794	0
256.711700	0.795814	mountain	5	0	0.000000	0.750567	1	0	0	0	CorrectOmission	0.081176	0.848207	0
257.507446	0.795703	city	4	1	0.714558	0.714558	0	1	0	0	CorrectCommission	0.432525	0.840474	0
258.303223	0.795843	city	10	1	0.997064	0.997064	0	1	0	0	CorrectCommission	2.323945	0.838709	0
259.099060	0.795822	city	8	1	0.762619	0.762619	0	1	0	0	CorrectCommission	0.036416	0.842666	0
259.894867	0.795822	mountain	2	0	0.000000	0.650773	1	0	0	0	CorrectOmission	1.054890	0.851866	0
260.690704	0.795829	city	3	1	0.666906	0.666906	0	1	0	0	CorrectCommission	0.897477	0.865298	0
261.486511	0.795782	city	9	1	0.816398	0.816398	0	1	0	0	CorrectCommission	0.561152	0.881684	0
262.282288	0.795776	city	8	1	0.766119	0.766119	0	1	0	0	CorrectCommission	0.070568	0.899430	0
263.078033	0.795738	city	10	1	0.798542	0.798542	0	1	0	0	CorrectCommission	0.386922	0.916678	0
263.873871	0.795906	city	9	1	0.698588	0.698588	0	1	0	0	CorrectCommission	0.588347	0.931510	0
264.669708	0.795792	city	3	1	0.956089	0.956089	0	1	0	0	CorrectCommission	1.924143	0.942234	0
265.465485	0.795723	city	2	1	1.048765	1.048765	0	1	0	0	CorrectCommission	2.828395	0.947493	0
266.261230	0.795792	mountain	7	0	0.000000	0.833406	1	0	0	0	CorrectOmission	0.727099	0.946566	0
267.057007	0.795791	city	10	1	0.652319	0.652319	0	1	0	0	CorrectCommission	1.039797	0.939565	0
267.852875	0.795902	mountain	7	1	0.847811	0.847811	0	0	1	0	CommissionError	0.867653	0.927223	0
268.648682	0.795760	city	9	1	0.848074	0.848074	0	1	0	0	CorrectCommission	0.870220	0.910956	0
269.444489	0.795800	city	2	1	0.848226	0.848226	0	1	0	0	CorrectCommission	0.871701	0.892591	0
270.240295	0.795824	city	10	1	0.848087	0.848087	0	1	0	0	CorrectCommission	0.870341	0.874082	0
271.036102	0.795801	city	8	1	0.866317	0.866317	0	1	0	0	CorrectCommission	1.048221	0.857223	0
271.831909	0.795793	city	5	1	0.748223	0.748223	0	1	0	0	CorrectCommission	0.104048	0.843336	0
272.627686	0.795800	city	7	1	0.763127	0.763127	0	1	0	0	CorrectCommission	0.041371	0.833247	0
273.423462	0.795760	city	5	1	0.817594	0.817594	0	1	0	0	CorrectCommission	0.572816	0.827018	0
274.219269	0.795810	city	3	1	0.852627	0.852627	0	1	0	0	CorrectCommission	0.914644	0.824067	0
275.015106	0.795853	city	10	1	0.899702	0.899702	0	1	0	0	CorrectCommission	1.373959	0.823345	0
275.810913	0.795767	mountain	1	0	0.000000	0.761274	1	0	0	0	CorrectOmission	0.023296	0.823416	0
276.606720	0.795849	city	7	1	0.599532	0.599532	0	1	0	0	CorrectCommission	1.554852	0.822967	0
277.402496	0.795713	mountain	5	0	0.000000	0.576663	1	0	0	0	CorrectOmission	1.777987	0.820796	0
278.198273	0.795868	city	3	1	0.655305	0.655305	0	1	0	0	CorrectCommission	1.010668	0.816231	0
278.994110	0.795799	city	6	1	0.798093	0.798093	0	1	0	0	CorrectCommission	0.382547	0.809186	0
279.789917	0.795830	city	4	1	0.857561	0.857561	0	1	0	0	CorrectCommission	0.962788	0.800121	0
280.585724	0.795776	city	6	1	0.804382	0.804382	0	1	0	0	CorrectCommission	0.443906	0.789921	0
281.381531	0.795791	city	9	1	0.857611	0.857611	0	1	0	0	CorrectCommission	0.963273	0.779812	0
282.177277	0.795739	city	4	1	0.799156	0.799156	0	1	0	0	CorrectCommission	0.392917	0.771034	0
282.973053	0.795811	city	1	1	0.816325	0.816325	0	1	0	0	CorrectCommission	0.560434	0.764691	1
283.769043	0.796153	city	3	1	0.855954	0.855954	0	1	0	0	CorrectCommission	0.947104	0.761584	1
284.565002	0.795775	city	6	1	0.897138	0.897138	0	1	0	0	CorrectCommission	1.348939	0.761989	1
285.360809	0.795822	city	10	1	0.747868	0.747868	0	1	0	0	CorrectCommission	0.107510	0.765591	1
286.156433	0.795443	city	3	1	0.755316	0.755316	0	1	0	0	CorrectCommission	0.034843	0.771540	0
286.952087	0.795875	mountain	8	0	0.000000	0.801678	1	0	0	0	CorrectOmission	0.417524	0.778439	0
287.747955	0.795823	city	1	1	0.847708	0.847708	0	1	0	0	CorrectCommission	0.866651	0.784533	0
288.543732	0.795751	city	9	1	0.854159	0.854159	0	1	0	0	CorrectCommission	0.929594	0.787939	0
289.339661	0.796107	city	2	1	0.897599	0.897599	0	1	0	0	CorrectCommission	1.353444	0.786908	0
290.135437	0.795462	city	9	1	0.997538	0.997538	0	1	0	0	CorrectCommission	2.328565	0.780026	0
290.931122	0.795890	city	4	1	0.848549	0.848549	0	1	0	0	CorrectCommission	0.874850	0.766426	1
291.726959	0.795768	city	1	1	0.760383	0.760383	0	1	0	0	CorrectCommission	0.014598	0.745980	1
292.522888	0.796099	city	8	1	0.754501	0.754501	0	1	0	0	CorrectCommission	0.042788	0.719246	1
293.318665	0.795454	city	5	1	0.898074	0.898074	0	1	0	0	CorrectCommission	1.358079	0.687455	1
294.114288	0.795789	city	2	1	0.897408	0.897408	0	1	0	0	CorrectCommission	1.351578	0.652302	1
294.910126	0.795907	city	6	1	0.798093	0.798093	0	1	0	0	CorrectCommission	0.382544	0.615855	1
295.705963	0.795790	city	1	1	0.698696	0.698696	0	1	0	0	CorrectCommission	0.587292	0.580324	1
296.501709	0.795707	city	8	1	0.798334	0.798334	0	1	0	0	CorrectCommission	0.384890	0.547776	1
297.297516	0.795885	city	10	1	0.748412	0.748412	0	1	0	0	CorrectCommission	0.102209	0.519888	1
298.093353	0.795763	city	5	1	0.752612	0.752612	0	1	0	0	CorrectCommission	0.061219	0.497826	1
298.889160	0.795845	city	8	1	0.797874	0.797874	0	1	0	0	CorrectCommission	0.380407	0.482055	1
299.684937	0.795711	city	4	1	0.798835	0.798835	0	1	0	0	CorrectCommission	0.389786	0.472339	1
300.480682	0.795817	city	5	1	0.749206	0.749206	0	1	0	0	CorrectCommission	0.094452	0.467796	1
301.276489	0.795796	mountain	7	0	0.000000	0.757503	1	0	0	0	CorrectOmission	0.013505	0.467065	1
302.072327	0.795887	city	10	1	0.798912	0.798912	0	1	0	0	CorrectCommission	0.390533	0.468490	1
302.868195	0.795819	city	3	1	0.848622	0.848622	0	1	0	0	CorrectCommission	0.875567	0.470406	1
303.663940	0.795708	city	2	1	0.909384	0.909384	0	1	0	0	CorrectCommission	1.468435	0.471335	1
304.459747	0.795851	city	4	1	0.847686	0.847686	0	1	0	0	CorrectCommission	0.866436	0.470198	1
305.255554	0.795819	city	3	1	0.748005	0.748005	0	1	0	0	CorrectCommission	0.106177	0.466511	1
306.051392	0.795825	city	6	1	0.847851	0.847851	0	1	0	0	CorrectCommission	0.868038	0.460328	1
306.847168	0.795742	city	8	1	0.748078	0.748078	0	1	0	0	CorrectCommission	0.105461	0.452151	1
307.642975	0.795864	city	2	1	0.797887	0.797887	0	1	0	0	CorrectCommission	0.380534	0.442873	1
308.438812	0.795779	city	6	1	0.747969	0.747969	0	1	0	0	CorrectCommission	0.106526	0.433596	1
309.234589	0.795778	city	4	1	0.806340	0.806340	0	1	0	0	CorrectCommission	0.463007	0.425455	1
310.030365	0.795804	city	2	1	0.798767	0.798767	0	1	0	0	CorrectCommission	0.389122	0.419432	1
310.826141	0.795739	city	7	1	0.748390	0.748390	0	1	0	0	CorrectCommission	0.102414	0.416220	1
311.621948	0.795897	city	8	1	0.699472	0.699472	0	1	0	0	CorrectCommission	0.579716	0.416220	1
312.417816	0.795797	city	7	1	0.748418	0.748418	0	1	0	0	CorrectCommission	0.102149	0.419463	1
313.213745	0.796080	city	10	1	0.700900	0.700900	0	1	0	0	CorrectCommission	0.565784	0.425728	1
314.009521	0.795455	city	1	1	0.699040	0.699040	0	1	0	0	CorrectCommission	0.583931	0.434545	1
314.805176	0.795861	city	2	1	0.712654	0.712654	0	1	0	0	CorrectCommission	0.451102	0.445331	1
315.600983	0.795738	mountain	10	0	0.000000	0.757333	1	0	0	0	CorrectOmission	0.015158	0.457529	1
316.396729	0.795802	mountain	9	0	0.000000	0.810055	1	0	0	0	CorrectOmission	0.499261	0.470663	1
317.192566	0.795845	city	1	1	0.847797	0.847797	0	1	0	0	CorrectCommission	0.867513	0.484398	1
317.988373	0.795788	city	3	1	0.847535	0.847535	0	1	0	0	CorrectCommission	0.864957	0.498648	1
318.784149	0.795776	city	4	1	0.749137	0.749137	0	1	0	0	CorrectCommission	0.095126	0.513594	1
319.579956	0.795787	city	5	1	0.748844	0.748844	0	1	0	0	CorrectCommission	0.097990	0.529716	1
320.375763	0.795845	city	1	1	0.898747	0.898747	0	1	0	0	CorrectCommission	1.364643	0.547691	1
321.171600	0.795826	city	3	1	0.699363	0.699363	0	1	0	0	CorrectCommission	0.580786	0.568212	1
321.967407	0.795777	city	5	1	0.749055	0.749055	0	1	0	0	CorrectCommission	0.095931	0.592062	1
322.763214	0.795839	city	4	1	0.748050	0.748050	0	1	0	0	CorrectCommission	0.105732	0.619869	1
323.559021	0.795772	city	5	1	0.662818	0.662818	0	1	0	0	CorrectCommission	0.937365	0.651904	1
324.354797	0.795826	city	1	1	0.699600	0.699600	0	1	0	0	CorrectCommission	0.578471	0.687983	1
325.150574	0.795722	city	4	1	0.847780	0.847780	0	1	0	0	CorrectCommission	0.867347	0.727414	1
325.946381	0.795893	city	6	1	0.717189	0.717189	0	1	0	0	CorrectCommission	0.406850	0.768920	0
326.742218	0.795767	city	1	1	0.648810	0.648810	0	1	0	0	CorrectCommission	1.074040	0.810679	0
327.537994	0.795782	city	2	1	0.748599	0.748599	0	1	0	0	CorrectCommission	0.100379	0.850383	0
328.333801	0.795820	city	3	1	0.698436	0.698436	0	1	0	0	CorrectCommission	0.589826	0.885542	0
329.129608	0.795794	city	10	1	0.649191	0.649191	0	1	0	0	CorrectCommission	1.070323	0.913606	0
329.925415	0.795819	city	6	1	0.648599	0.648599	0	1	0	0	CorrectCommission	1.076099	0.932316	0
330.721191	0.795740	city	1	1	0.508819	0.508819	0	1	0	0	CorrectCommission	2.439962	0.939984	0
331.517120	0.796140	city	5	1	0.549782	0.549782	0	1	0	0	CorrectCommission	2.040273	0.935741	0
332.312927	0.795479	city	1	1	0.615364	0.615364	0	1	0	0	CorrectCommission	1.400378	0.919630	0
333.108582	0.795835	city	4	1	0.847807	0.847807	0	1	0	0	CorrectCommission	0.867615	0.892672	0
333.904419	0.795807	city	5	1	0.748412	0.748412	0	1	0	0	CorrectCommission	0.102201	0.856730	0
334.700195	0.795758	city	2	1	0.698642	0.698642	0	1	0	0	CorrectCommission	0.587820	0.814325	0
335.495972	0.795819	city	3	1	0.617078	0.617078	0	1	0	0	CorrectCommission	1.383653	0.768356	0
336.291779	0.795796	city	6	1	0.750557	0.750557	0	1	0	0	CorrectCommission	0.081275	0.721839	1
337.087616	0.795829	city	4	1	0.808182	0.808182	0	1	0	0	CorrectCommission	0.480985	0.677752	1
337.883423	0.795819	city	9	1	0.811133	0.811133	0	1	0	0	CorrectCommission	0.509778	0.638614	1
338.679199	0.795728	city	3	1	0.698258	0.698258	0	1	0	0	CorrectCommission	0.591565	0.606489	1
339.474976	0.795828	mountain	2	0	0.000000	0.727407	1	0	0	0	CorrectOmission	0.307153	0.582796	1
340.270782	0.795773	city	1	1	0.807696	0.807696	0	1	0	0	CorrectCommission	0.476239	0.568279	1
341.066559	0.795812	city	2	1	0.848240	0.848240	0	1	0	0	CorrectCommission	0.871833	0.562921	1
341.862396	0.795827	city	10	1	0.800821	0.800821	0	1	0	0	CorrectCommission	0.409156	0.565998	1
342.658203	0.795778	mountain	4	0	0.000000	0.761557	1	0	0	0	CorrectOmission	0.026057	0.576185	1
343.453979	0.795793	city	4	1	0.753031	0.753031	0	1	0	0	CorrectCommission	0.057137	0.591616	1
344.249786	0.795846	city	6	1	0.797822	0.797822	0	1	0	0	CorrectCommission	0.379903	0.610034	1
345.045593	0.795765	mountain	2	0	0.000000	0.756047	1	0	0	0	CorrectOmission	0.027712	0.629013	1
345.841400	0.795822	city	9	1	0.798571	0.798571	0	1	0	0	CorrectCommission	0.387209	0.646219	1
346.637207	0.795810	city	8	1	1.096264	1.096264	0	1	0	0	CorrectCommission	3.291856	0.659600	1
347.433044	0.795847	city	1	1	0.848272	0.848272	0	1	0	0	CorrectCommission	0.872152	0.667578	1
348.228851	0.795786	city	8	1	0.808765	0.808765	0	1	0	0	CorrectCommission	0.486674	0.669392	1
349.024658	0.795832	city	10	1	0.699115	0.699115	0	1	0	0	CorrectCommission	0.583205	0.664986	1
349.820435	0.795695	city	5	1	0.698298	0.698298	0	1	0	0	CorrectCommission	0.591172	0.654976	1
350.616180	0.795822	city	10	1	0.650684	0.650684	0	1	0	0	CorrectCommission	1.055753	0.640566	1
351.412018	0.795847	mountain	6	0	0.000000	0.724678	1	0	0	0	CorrectOmission	0.333778	0.623349	1
352.207855	0.795820	city	6	1	0.798335	0.798335	0	1	0	0	CorrectCommission	0.384900	0.605078	1
353.003662	0.795785	city	9	1	0.749706	0.749706	0	1	0	0	CorrectCommission	0.089574	0.587401	1
353.799438	0.795782	city	7	1	0.664147	0.664147	0	1	0	0	CorrectCommission	0.924393	0.571781	1
354.595215	0.795777	city	10	1	0.806677	0.806677	0	1	0	0	CorrectCommission	0.466297	0.559239	1
355.391022	0.795831	city	3	1	0.798925	0.798925	0	1	0	0	CorrectCommission	0.390664	0.550409	1
356.186829	0.795793	city	5	1	0.797903	0.797903	0	1	0	0	CorrectCommission	0.380691	0.545482	1
356.982635	0.795784	city	7	1	0.749164	0.749164	0	1	0	0	CorrectCommission	0.094869	0.544303	1
357.778473	0.795873	city	2	1	0.847634	0.847634	0	1	0	0	CorrectCommission	0.865922	0.546446	1
358.574249	0.795720	city	1	1	0.807254	0.807254	0	1	0	0	CorrectCommission	0.471924	0.551296	1
359.370056	0.795866	city	10	1	0.873700	0.873700	0	1	0	0	CorrectCommission	1.120258	0.558236	1
360.165863	0.795786	city	5	1	0.803969	0.803969	0	1	0	0	CorrectCommission	0.439873	0.566625	1
360.961823	0.796103	city	1	1	0.797791	0.797791	0	1	0	0	CorrectCommission	0.379594	0.575962	1
361.757629	0.795524	city	2	1	0.797876	0.797876	0	1	0	0	CorrectCommission	0.380428	0.585765	1
362.553253	0.795718	city	4	1	0.847581	0.847581	0	1	0	0	CorrectCommission	0.865404	0.595613	1
363.349060	0.795904	city	6	1	0.712802	0.712802	0	1	0	0	CorrectCommission	0.449660	0.605148	1
364.144897	0.795762	city	1	1	0.649549	0.649549	0	1	0	0	CorrectCommission	1.066829	0.613950	1
364.940704	0.795831	city	2	1	0.750203	0.750203	0	1	0	0	CorrectCommission	0.084733	0.621648	1
365.736450	0.795711	city	7	1	0.798339	0.798339	0	1	0	0	CorrectCommission	0.384944	0.627915	1
366.532227	0.795840	city	4	1	0.847974	0.847974	0	1	0	0	CorrectCommission	0.869241	0.632417	1
367.328094	0.795855	city	3	1	0.798571	0.798571	0	1	0	0	CorrectCommission	0.387209	0.634909	1
368.123871	0.795705	mountain	8	0	0.000000	0.858835	1	0	0	0	CorrectOmission	0.975210	0.635306	1
368.919617	0.795796	city	1	1	0.913581	0.913581	0	1	0	0	CorrectCommission	1.509378	0.633671	1
369.715485	0.795918	city	3	1	0.847626	0.847626	0	1	0	0	CorrectCommission	0.865851	0.630197	1
370.511322	0.795755	city	9	1	0.798646	0.798646	0	1	0	0	CorrectCommission	0.387935	0.625274	1
371.307068	0.795732	mountain	10	0	0.000000	0.740202	1	0	0	0	CorrectOmission	0.182314	0.619321	1
372.102844	0.795863	city	6	1	0.710590	0.710590	0	1	0	0	CorrectCommission	0.471240	0.612772	1
372.898682	0.795819	city	9	1	0.748106	0.748106	0	1	0	0	CorrectCommission	0.105190	0.605967	1
373.694489	0.795787	city	1	1	0.698862	0.698862	0	1	0	0	CorrectCommission	0.585677	0.599128	1
374.490295	0.795817	city	7	1	0.847816	0.847816	0	1	0	0	CorrectCommission	0.867697	0.592336	1
375.286072	0.795753	city	9	1	0.804391	0.804391	0	1	0	0	CorrectCommission	0.443996	0.585542	1
376.081879	0.795840	city	8	1	0.901523	0.901523	0	1	0	0	CorrectCommission	1.391726	0.578682	1
376.877716	0.795824	city	7	1	0.816724	0.816724	0	1	0	0	CorrectCommission	0.564332	0.571616	1
377.673492	0.795722	city	10	1	0.764201	0.764201	0	1	0	0	CorrectCommission	0.051857	0.564353	1
378.469421	0.796170	city	2	1	0.848143	0.848143	0	1	0	0	CorrectCommission	0.870888	0.556976	1
379.265381	0.795757	city	1	1	0.797398	0.797398	0	1	0	0	CorrectCommission	0.375764	0.549637	1
380.061066	0.795576	city	6	1	0.848345	0.848345	0	1	0	0	CorrectCommission	0.872866	0.542614	1
380.856873	0.796051	city	1	1	0.748864	0.748864	0	1	0	0	CorrectCommission	0.097794	0.536218	1
381.652649	0.795489	city	4	1	0.748565	0.748565	0	1	0	0	CorrectCommission	0.100706	0.530766	1
382.448456	0.796125	city	9	1	0.702969	0.702969	0	1	0	0	CorrectCommission	0.545595	0.526533	1
383.244232	0.795465	city	5	1	0.648627	0.648627	0	1	0	0	CorrectCommission	1.075827	0.523659	1
384.039886	0.795830	city	1	1	0.649034	0.649034	0	1	0	0	CorrectCommission	1.071852	0.522093	1
384.835724	0.795807	city	4	1	0.748529	0.748529	0	1	0	0	CorrectCommission	0.101065	0.521660	1
385.631500	0.795752	city	5	1	0.748309	0.748309	0	1	0	0	CorrectCommission	0.103213	0.522007	1
386.427307	0.795883	city	2	1	0.762533	0.762533	0	1	0	0	CorrectCommission	0.035580	0.522574	1
387.223114	0.795715	mountain	6	0	0.000000	0.816396	1	0	0	0	CorrectOmission	0.561133	0.522733	1
388.019043	0.796164	city	7	1	0.848737	0.848737	0	1	0	0	CorrectCommission	0.876690	0.521860	1
388.814880	0.795519	city	4	1	0.798395	0.798395	0	1	0	0	CorrectCommission	0.385493	0.519498	1
389.610535	0.795800	city	2	1	0.847641	0.847641	0	1	0	0	CorrectCommission	0.865993	0.515430	1
390.406311	0.795720	city	4	1	0.848273	0.848273	0	1	0	0	CorrectCommission	0.872155	0.509774	1
391.202087	0.795828	city	9	1	0.848203	0.848203	0	1	0	0	CorrectCommission	0.871478	0.503074	1
391.997925	0.795868	city	1	1	0.798079	0.798079	0	1	0	0	CorrectCommission	0.382403	0.496262	1
392.793732	0.795765	city	5	1	0.698551	0.698551	0	1	0	0	CorrectCommission	0.588706	0.490637	1
393.589508	0.795760	city	2	1	0.750031	0.750031	0	1	0	0	CorrectCommission	0.086409	0.487598	1
394.385315	0.795880	city	9	1	0.748510	0.748510	0	1	0	0	CorrectCommission	0.101250	0.488521	1
395.181122	0.795718	city	8	1	0.798520	0.798520	0	1	0	0	CorrectCommission	0.386707	0.494549	1
395.976898	0.795836	city	3	1	0.709504	0.709504	0	1	0	0	CorrectCommission	0.481834	0.506303	1
396.772705	0.795769	city	2	1	0.757144	0.757144	0	1	0	0	CorrectCommission	0.017007	0.523838	1
397.568512	0.795835	city	9	1	0.698761	0.698761	0	1	0	0	CorrectCommission	0.586656	0.546514	1
398.364349	0.795821	city	8	1	0.698663	0.698663	0	1	0	0	CorrectCommission	0.587615	0.573005	1
399.160156	0.795811	city	6	1	0.748092	0.748092	0	1	0	0	CorrectCommission	0.105328	0.601464	1
399.956116	0.796091	city	5	1	0.665877	0.665877	0	1	0	0	CorrectCommission	0.907512	0.629628	1
400.751923	0.795531	city	9	1	0.699060	0.699060	0	1	0	0	CorrectCommission	0.583742	0.655067	1
401.547577	0.795801	city	1	1	0.699296	0.699296	0	1	0	0	CorrectCommission	0.581442	0.675542	1
402.343353	0.795761	city	6	1	0.848179	0.848179	0	1	0	0	CorrectCommission	0.871242	0.689235	1
403.139130	0.795778	city	4	1	0.906917	0.906917	0	1	0	0	CorrectCommission	1.444360	0.695016	1
403.934906	0.795788	city	7	1	0.997544	0.997544	0	1	0	0	CorrectCommission	2.328620	0.692572	1
404.730743	0.795874	city	5	1	0.848998	0.848998	0	1	0	0	CorrectCommission	0.879235	0.682440	1
405.526733	0.796081	mountain	1	0	0.000000	0.778069	1	0	0	0	CorrectOmission	0.187167	0.666072	1
406.322479	0.795436	city	9	1	0.758221	0.758221	0	1	0	0	CorrectCommission	0.006493	0.645564	1
407.118164	0.795897	city	4	1	0.762919	0.762919	0	1	0	0	CorrectCommission	0.039345	0.623416	1
407.913971	0.795775	city	7	1	0.847829	0.847829	0	1	0	0	CorrectCommission	0.867824	0.602287	1
408.709778	0.795783	city	9	1	0.847768	0.847768	0	1	0	0	CorrectCommission	0.867231	0.584747	1
409.505554	0.795805	city	1	1	0.759910	0.759910	0	1	0	0	CorrectCommission	0.009983	0.573043	1
410.301361	0.795813	city	8	1	0.848186	0.848186	0	1	0	0	CorrectCommission	0.871314	0.568904	1
411.097198	0.795826	city	10	1	0.764200	0.764200	0	1	0	0	CorrectCommission	0.051845	0.573337	1
411.893005	0.795812	city	7	1	0.802257	0.802257	0	1	0	0	CorrectCommission	0.423174	0.586651	1
412.688782	0.795760	city	6	1	0.748021	0.748021	0	1	0	0	CorrectCommission	0.106021	0.608322	1
413.484589	0.795825	city	5	1	0.798094	0.798094	0	1	0	0	CorrectCommission	0.382553	0.637086	1
414.280396	0.795794	city	4	1	0.897513	0.897513	0	1	0	0	CorrectCommission	1.352604	0.671032	1
415.076141	0.795720	city	10	1	0.750270	0.750270	0	1	0	0	CorrectCommission	0.084074	0.707676	1
415.871918	0.795815	city	3	1	0.699599	0.699599	0	1	0	0	CorrectCommission	0.578482	0.744310	1
416.667725	0.795798	city	10	1	0.658345	0.658345	0	1	0	0	CorrectCommission	0.981006	0.778143	0
417.463531	0.795840	city	7	1	0.702282	0.702282	0	1	0	0	CorrectCommission	0.552300	0.806606	0
418.259369	0.795778	city	3	1	0.600368	0.600368	0	1	0	0	CorrectCommission	1.546697	0.827653	0
419.055145	0.795822	city	5	1	0.599987	0.599987	0	1	0	0	CorrectCommission	1.550411	0.839890	0
419.850952	0.795775	city	1	1	0.648673	0.648673	0	1	0	0	CorrectCommission	1.075379	0.842826	0
420.646759	0.795852	city	3	1	0.599153	0.599153	0	1	0	0	CorrectCommission	1.558548	0.836890	0
421.442596	0.795831	city	1	1	0.648630	0.648630	0	1	0	0	CorrectCommission	1.075791	0.823355	0
422.238434	0.795801	city	3	1	0.699363	0.699363	0	1	0	0	CorrectCommission	0.580785	0.804278	0
423.034180	0.795733	mountain	7	1	0.748028	0.748028	0	0	1	0	CommissionError	0.105951	0.782203	0
423.829956	0.795800	city	5	1	0.897403	0.897403	0	1	0	0	CorrectCommission	1.351526	0.759842	1
424.625763	0.795796	city	3	1	0.813640	0.813640	0	1	0	0	CorrectCommission	0.534235	0.739774	1
425.421539	0.795783	mountain	8	0	0.000000	0.758838	1	0	0	0	CorrectOmission	0.000479	0.724195	1
426.217377	0.795904	city	10	1	0.748484	0.748484	0	1	0	0	CorrectCommission	0.101505	0.714674	1
427.013245	0.795796	city	7	1	0.798065	0.798065	0	1	0	0	CorrectCommission	0.382272	0.712065	1
427.809021	0.795758	city	5	1	0.847815	0.847815	0	1	0	0	CorrectCommission	0.867687	0.716420	1
428.604950	0.796117	city	7	1	0.847507	0.847507	0	1	0	0	CorrectCommission	0.864688	0.727128	1
429.400757	0.795515	city	6	1	0.897403	0.897403	0	1	0	0	CorrectCommission	1.351529	0.743013	1
430.196411	0.795800	city	8	1	0.712807	0.712807	0	1	0	0	CorrectCommission	0.449610	0.762474	1
430.992249	0.795819	city	4	1	0.748351	0.748351	0	1	0	0	CorrectCommission	0.102796	0.783752	0
431.788025	0.795768	city	9	1	0.705258	0.705258	0	1	0	0	CorrectCommission	0.523262	0.804994	0
432.583801	0.795805	mountain	3	0	0.000000	0.601927	1	0	0	0	CorrectOmission	1.531481	0.824435	0
433.379608	0.795765	city	3	1	0.600192	0.600192	0	1	0	0	CorrectCommission	1.548416	0.840478	0
434.175415	0.795839	city	7	1	0.861885	0.861885	0	1	0	0	CorrectCommission	1.004973	0.851833	0
434.971222	0.795785	city	6	1	0.848403	0.848403	0	1	0	0	CorrectCommission	0.873424	0.857570	0
435.767029	0.795858	mountain	3	0	0.000000	0.742368	1	0	0	0	CorrectOmission	0.161178	0.857054	0
436.562836	0.795742	mountain	9	0	0.000000	0.642855	1	0	0	0	CorrectOmission	1.132146	0.850008	0
437.358612	0.795823	city	1	1	0.648938	0.648938	0	1	0	0	CorrectCommission	1.072789	0.836499	0
438.154419	0.795766	city	6	1	0.859692	0.859692	0	1	0	0	CorrectCommission	0.983580	0.816921	0
438.950195	0.795781	mountain	9	0	0.000000	0.725761	1	0	0	0	CorrectOmission	0.323211	0.792022	0
439.746002	0.795873	city	10	1	0.556072	0.556072	0	1	0	0	CorrectCommission	1.978896	0.762896	1
440.541840	0.795803	city	7	1	0.659554	0.659554	0	1	0	0	CorrectCommission	0.969209	0.730827	1
441.337799	0.796087	city	9	1	0.715665	0.715665	0	1	0	0	CorrectCommission	0.421722	0.697376	1
442.133575	0.795456	city	10	1	0.698837	0.698837	0	1	0	0	CorrectCommission	0.585916	0.664169	1
442.929199	0.795839	mountain	6	0	0.000000	0.751010	1	0	0	0	CorrectOmission	0.076855	0.632767	1
443.725189	0.796102	city	2	1	0.809800	0.809800	0	1	0	0	CorrectCommission	0.496771	0.604593	1
444.520996	0.795543	city	7	1	0.812824	0.812824	0	1	0	0	CorrectCommission	0.526274	0.580733	1
445.316650	0.795727	city	6	1	0.761679	0.761679	0	1	0	0	CorrectCommission	0.027248	0.561897	1
446.112427	0.795824	city	5	1	0.710024	0.710024	0	1	0	0	CorrectCommission	0.476766	0.548453	1
446.908203	0.795776	city	3	1	0.866469	0.866469	0	1	0	0	CorrectCommission	1.049700	0.540345	1
447.704010	0.795820	city	10	1	0.799128	0.799128	0	1	0	0	CorrectCommission	0.392646	0.537247	1
448.499847	0.795823	city	3	1	0.749062	0.749062	0	1	0	0	CorrectCommission	0.095866	0.538763	1
449.295654	0.795830	city	7	1	0.698313	0.698313	0	1	0	0	CorrectCommission	0.591029	0.544437	1
450.091461	0.795789	mountain	4	0	0.000000	0.683034	1	0	0	0	CorrectOmission	0.740107	0.553808	1
450.887238	0.795715	mountain	10	1	0.700549	0.700549	0	0	1	0	CommissionError	0.569211	0.566596	1
451.683014	0.795885	city	5	1	0.748182	0.748182	0	1	0	0	CorrectCommission	0.104452	0.582772	1
452.479004	0.796097	city	9	1	0.914195	0.914195	0	1	0	0	CorrectCommission	1.515376	0.602525	1
453.274811	0.795503	city	6	1	0.799765	0.799765	0	1	0	0	CorrectCommission	0.398858	0.626121	1
454.070465	0.795797	city	8	1	0.707248	0.707248	0	1	0	0	CorrectCommission	0.503846	0.653966	1
454.866241	0.795741	city	7	1	0.812388	0.812388	0	1	0	0	CorrectCommission	0.522026	0.686274	1
455.662018	0.795854	city	9	1	0.751355	0.751355	0	1	0	0	CorrectCommission	0.073489	0.723045	1
456.457855	0.795819	city	3	1	0.662371	0.662371	0	1	0	0	CorrectCommission	0.941718	0.763951	1
457.253662	0.795784	city	4	1	0.712808	0.712808	0	1	0	0	CorrectCommission	0.449603	0.808071	0
458.049469	0.795814	city	8	1	0.798441	0.798441	0	1	0	0	CorrectCommission	0.385940	0.854103	0
458.845245	0.795768	city	9	1	0.899213	0.899213	0	1	0	0	CorrectCommission	1.369191	0.900299	0
459.641022	0.795761	city	2	1	0.897222	0.897222	0	1	0	0	CorrectCommission	1.349760	0.944562	0
460.436829	0.795826	city	5	1	0.853249	0.853249	0	1	0	0	CorrectCommission	0.920714	0.984682	0
461.232635	0.795781	city	1	1	0.898116	0.898116	0	1	0	0	CorrectCommission	1.358490	1.018518	0
462.028412	0.795796	mountain	6	0	0.000000	0.836107	1	0	0	0	CorrectOmission	0.753454	1.044102	0
462.824219	0.795805	city	10	1	0.699084	0.699084	0	1	0	0	CorrectCommission	0.583503	1.059931	0
463.620056	0.795875	mountain	9	0	0.000000	0.518911	1	0	0	0	CorrectOmission	2.341493	1.065016	0
464.415894	0.795805	city	3	1	0.500365	0.500365	0	1	0	0	CorrectCommission	2.522445	1.058895	0
465.211700	0.795795	city	7	1	0.848227	0.848227	0	1	0	0	CorrectCommission	0.871707	1.041772	0
466.007446	0.795746	city	6	1	0.797866	0.797866	0	1	0	0	CorrectCommission	0.380327	1.014467	0
466.803223	0.795802	city	7	1	0.848342	0.848342	0	1	0	0	CorrectCommission	0.872832	0.978187	0
467.599030	0.795787	city	8	1	0.897917	0.897917	0	1	0	0	CorrectCommission	1.356543	0.934419	0
468.394867	0.795877	city	5	1	0.800004	0.800004	0	1	0	0	CorrectCommission	0.401188	0.884829	0
469.190674	0.795725	city	6	1	0.904660	0.904660	0	1	0	0	CorrectCommission	1.422333	0.831218	0
469.986481	0.795885	city	4	1	0.759716	0.759716	0	1	0	0	CorrectCommission	0.008096	0.775222	0
470.782288	0.795762	city	8	1	0.648746	0.648746	0	1	0	0	CorrectCommission	1.074665	0.718592	1
471.578094	0.795818	city	7	1	0.615005	0.615005	0	1	0	0	CorrectCommission	1.403885	0.662974	1
472.373901	0.795822	city	1	1	0.751291	0.751291	0	1	0	0	CorrectCommission	0.074111	0.610077	1
473.169708	0.795786	city	4	1	0.698530	0.698530	0	1	0	0	CorrectCommission	0.588914	0.561796	1
473.965515	0.795812	city	7	1	0.748435	0.748435	0	1	0	0	CorrectCommission	0.101976	0.520046	1
474.761292	0.795747	city	10	1	0.717234	0.717234	0	1	0	0	CorrectCommission	0.406416	0.487008	1
475.557068	0.795833	city	9	1	0.752678	0.752678	0	1	0	0	CorrectCommission	0.060582	0.465096	1
476.352905	0.795822	city	1	1	0.662542	0.662542	0	1	0	0	CorrectCommission	0.940055	0.456975	1
477.148834	0.796066	city	9	1	0.764359	0.764359	0	1	0	0	CorrectCommission	0.053392	0.465485	1
477.944672	0.795572	mountain	6	0	0.000000	0.769537	1	0	0	0	CorrectOmission	0.103920	0.493663	1
478.740326	0.795754	city	4	1	0.755280	0.755280	0	1	0	0	CorrectCommission	0.035187	0.544463	1
479.536102	0.795777	city	8	1	0.798791	0.798791	0	1	0	0	CorrectCommission	0.389355	0.620650	1
480.331909	0.795853	city	1	1	0.748621	0.748621	0	1	0	0	CorrectCommission	0.100167	0.724531	1
481.127716	0.795782	mountain	2	0	0.000000	0.756731	1	0	0	0	CorrectOmission	0.021032	0.857696	0
481.923523	0.795795	city	10	1	0.798121	0.798121	0	1	0	0	CorrectCommission	0.382820	1.020734	0
482.719299	0.795748	city	3	1	0.847790	0.847790	0	1	0	0	CorrectCommission	0.867450	1.213108	0
483.515076	0.795817	mountain	5	0	0.000000	0.903339	1	0	0	0	CorrectOmission	1.409444	1.432940	0
484.310913	0.795856	city	4	1	0.898339	0.898339	0	1	0	0	CorrectCommission	1.360667	1.676949	0
485.106720	0.795798	city	8	1	0.766367	0.766367	0	1	0	0	CorrectCommission	0.072982	1.940497	0
485.902679	0.796088	mountain	2	0	0.000000	0.634394	1	0	0	0	CorrectOmission	1.214702	2.217883	0
486.698486	0.795526	mountain	4	0	0.000000	0.502421	1	0	0	0	CorrectOmission	2.502387	2.502387	0
