onset	duration	trial_type	image_type	Press	ReactionTime	ReactionTime_Interpolated	CorrectOmission	CorrectCommission	CommissionError	OmissionError	response_type	nonsmoothVarianceTimeCourse	VarianceTimeCourse	In_the_Zone
8.421772	0.795859	city	3	1	0.950037	0.950037	0	1	0	0	CorrectCommission	1.343387	1.343387	0
9.217613	0.795824	city	6	1	0.602139	0.602139	0	1	0	0	CorrectCommission	0.985560	1.270837	0
10.013376	0.795702	mountain	5	1	0.748561	0.748561	0	0	1	0	CommissionError	0.005361	1.199147	0
10.809154	0.795852	city	3	1	0.599721	0.599721	0	1	0	0	CorrectCommission	1.001747	1.129188	0
11.605003	0.795848	mountain	1	1	0.417036	0.417036	0	0	1	0	CommissionError	2.224706	1.061706	0
12.400807	0.795760	mountain	10	0	0.000000	0.527733	1	0	0	0	CorrectOmission	1.483660	0.997410	0
13.196609	0.795844	city	7	1	0.699084	0.699084	0	1	0	0	CorrectCommission	0.336574	0.936988	0
13.992417	0.795772	city	5	1	0.698362	0.698362	0	1	0	0	CorrectCommission	0.341411	0.881035	0
14.788198	0.795791	mountain	5	0	0.000000	0.689823	1	0	0	0	CorrectOmission	0.398576	0.829998	0
15.584010	0.795831	city	5	1	0.648517	0.648517	0	1	0	0	CorrectCommission	0.675091	0.784161	1
16.379959	0.796068	city	7	1	0.549495	0.549495	0	1	0	0	CorrectCommission	1.337977	0.743657	1
17.175894	0.795802	city	4	1	0.662342	0.662342	0	1	0	0	CorrectCommission	0.582543	0.708394	1
17.971687	0.795782	city	2	1	0.598567	0.598567	0	1	0	0	CorrectCommission	1.009472	0.678157	1
18.767490	0.795823	city	1	1	0.750417	0.750417	0	1	0	0	CorrectCommission	0.007066	0.652468	1
19.563152	0.795502	city	5	1	0.717136	0.717136	0	1	0	0	CorrectCommission	0.215732	0.630717	1
20.358770	0.795737	city	10	1	0.651586	0.651586	0	1	0	0	CorrectCommission	0.654548	0.612152	1
21.154570	0.795861	city	6	1	0.798113	0.798113	0	1	0	0	CorrectCommission	0.326360	0.595912	1
21.950380	0.795762	city	5	1	0.599838	0.599838	0	1	0	0	CorrectCommission	1.000961	0.581253	1
22.746305	0.796088	city	6	1	0.848271	0.848271	0	1	0	0	CorrectCommission	0.662134	0.567520	1
23.542143	0.795586	city	8	1	0.798369	0.798369	0	1	0	0	CorrectCommission	0.328073	0.554312	1
24.337828	0.795782	city	1	1	0.947629	0.947629	0	1	0	0	CorrectCommission	1.327270	0.541484	1
25.133615	0.795795	city	3	0	0.000000	0.773167	0	0	0	1	OmissionError	0.159360	0.529221	1
25.929417	0.795808	city	1	1	0.599688	0.599688	0	1	0	0	CorrectCommission	1.001966	0.518088	1
26.725212	0.795781	city	4	1	0.751899	0.751899	0	1	0	0	CorrectCommission	0.016986	0.508787	1
27.520979	0.795754	mountain	10	0	0.000000	0.709081	1	0	0	0	CorrectOmission	0.269651	0.502247	1
28.316803	0.795894	city	4	1	0.648908	0.648908	0	1	0	0	CorrectCommission	0.672471	0.499312	1
29.112633	0.795767	city	6	1	0.749053	0.749053	0	1	0	0	CorrectCommission	0.002070	0.500628	1
29.908440	0.795846	city	7	1	0.660523	0.660523	0	1	0	0	CorrectCommission	0.594720	0.506602	1
30.704243	0.795760	city	1	1	0.698966	0.698966	0	1	0	0	CorrectCommission	0.337368	0.517329	1
31.500044	0.795843	city	9	1	0.798236	0.798236	0	1	0	0	CorrectCommission	0.327182	0.532574	1
32.295818	0.795710	city	1	1	0.699773	0.699773	0	1	0	0	CorrectCommission	0.331962	0.551767	1
33.091576	0.795802	city	10	1	0.848337	0.848337	0	1	0	0	CorrectCommission	0.662574	0.574136	1
33.887547	0.796138	city	4	1	0.847814	0.847814	0	1	0	0	CorrectCommission	0.659072	0.598776	1
34.683380	0.795532	city	5	1	0.797804	0.797804	0	1	0	0	CorrectCommission	0.324291	0.624854	1
35.479057	0.795823	city	9	1	0.948627	0.948627	0	1	0	0	CorrectCommission	1.333949	0.651609	1
36.274830	0.795717	city	6	0	0.000000	0.700874	0	0	0	1	OmissionError	0.324591	0.678480	1
37.070583	0.795793	city	8	1	0.514227	0.514227	0	1	0	0	CorrectCommission	1.574072	0.705118	1
37.866417	0.795877	city	9	1	0.848365	0.848365	0	1	0	0	CorrectCommission	0.662764	0.731249	1
38.662220	0.795727	city	3	0	0.000000	0.869546	0	0	0	1	OmissionError	0.804553	0.756790	1
39.458031	0.795895	city	5	1	0.748207	0.748207	0	1	0	0	CorrectCommission	0.007730	0.781538	1
40.254013	0.796074	mountain	2	0	0.000000	0.654788	1	0	0	0	CorrectOmission	0.633109	0.805273	0
41.049797	0.795490	city	10	1	0.655371	0.655371	0	1	0	0	CorrectCommission	0.629207	0.827584	0
41.845455	0.795829	city	7	1	0.816038	0.816038	0	1	0	0	CorrectCommission	0.446353	0.847894	0
42.641235	0.795732	city	10	1	0.947617	0.947617	0	1	0	0	CorrectCommission	1.327189	0.865655	0
43.437027	0.795846	city	6	1	0.997535	0.997535	0	1	0	0	CorrectCommission	1.661359	0.880300	0
44.232819	0.795744	city	7	1	0.951895	0.951895	0	1	0	0	CorrectCommission	1.355828	0.891456	0
45.028599	0.795810	city	3	0	0.000000	0.709937	0	0	0	1	OmissionError	0.263927	0.899032	0
45.824413	0.795822	city	1	1	0.499365	0.499365	0	1	0	0	CorrectCommission	1.673565	0.903290	0
46.620232	0.795817	mountain	3	0	0.000000	0.547886	1	0	0	0	CorrectOmission	1.348750	0.904733	0
47.416195	0.796111	city	10	1	0.699373	0.699373	0	1	0	0	CorrectCommission	0.334640	0.904151	0
48.212135	0.795770	city	5	1	0.797702	0.797702	0	1	0	0	CorrectCommission	0.323607	0.902498	0
49.007938	0.795834	city	6	1	0.847373	0.847373	0	1	0	0	CorrectCommission	0.656118	0.900679	0
49.803581	0.795449	city	2	1	0.950561	0.950561	0	1	0	0	CorrectCommission	1.346900	0.899431	0
50.599232	0.795858	city	4	0	0.000000	0.692499	0	0	0	1	OmissionError	0.380661	0.899192	0
51.395035	0.795741	city	7	1	0.499699	0.499699	0	1	0	0	CorrectCommission	1.671331	0.900119	0
52.190838	0.795867	city	8	1	0.798676	0.798676	0	1	0	0	CorrectCommission	0.330127	0.901974	0
52.986813	0.796085	city	10	1	0.847752	0.847752	0	1	0	0	CorrectCommission	0.658656	0.904299	0
53.782581	0.795449	city	6	1	0.996486	0.996486	0	1	0	0	CorrectCommission	1.654338	0.906392	0
54.578388	0.796168	city	9	0	0.000000	0.788802	0	0	0	1	OmissionError	0.264029	0.907350	0
55.374226	0.795505	city	2	1	0.549125	0.549125	0	1	0	0	CorrectCommission	1.340452	0.906482	0
56.169884	0.795809	city	10	1	0.601881	0.601881	0	1	0	0	CorrectCommission	0.987288	0.903191	0
56.965683	0.795794	city	5	1	0.748863	0.748863	0	1	0	0	CorrectCommission	0.003340	0.897233	0
57.761471	0.795779	city	4	1	0.996649	0.996649	0	1	0	0	CorrectCommission	1.655424	0.888783	0
58.557419	0.796114	city	8	1	1.046713	1.046713	0	1	0	0	CorrectCommission	1.990573	0.878394	0
59.353245	0.795539	city	7	0	0.000000	0.897658	0	0	0	1	OmissionError	0.992747	0.867098	0
60.148899	0.795769	city	6	1	0.711711	0.711711	0	1	0	0	CorrectCommission	0.252049	0.856295	0
60.944675	0.795789	city	4	1	0.651098	0.651098	0	1	0	0	CorrectCommission	0.657811	0.847545	0
61.740635	0.796123	city	7	1	0.698736	0.698736	0	1	0	0	CorrectCommission	0.338904	0.842345	0
62.536449	0.795510	mountain	1	0	0.000000	0.675819	1	0	0	0	CorrectOmission	0.492324	0.841994	0
63.332245	0.796077	city	7	1	0.617997	0.617997	0	1	0	0	CorrectCommission	0.879403	0.847303	0
64.128052	0.795540	city	2	1	0.560923	0.560923	0	1	0	0	CorrectCommission	1.261474	0.858473	0
64.923721	0.795797	mountain	5	0	0.000000	0.611742	1	0	0	0	CorrectOmission	0.921277	0.875097	0
65.719513	0.795795	city	4	1	0.698276	0.698276	0	1	0	0	CorrectCommission	0.341983	0.896103	0
66.515320	0.795815	city	3	1	0.748352	0.748352	0	1	0	0	CorrectCommission	0.006763	0.919791	0
67.311111	0.795759	city	4	1	0.847836	0.847836	0	1	0	0	CorrectCommission	0.659219	0.944034	0
68.106865	0.795754	city	9	1	1.013684	1.013684	0	1	0	0	CorrectCommission	1.769463	0.966504	0
68.902824	0.796164	city	10	1	0.997676	0.997676	0	1	0	0	CorrectCommission	1.662298	0.984920	0
69.698654	0.795497	city	8	0	0.000000	0.737209	0	0	0	1	OmissionError	0.081353	0.997466	0
70.494308	0.795811	city	4	1	0.450067	0.450067	0	1	0	0	CorrectCommission	2.003585	1.002969	0
71.290253	0.796082	mountain	8	1	0.354030	0.354030	0	0	1	0	CommissionError	2.646491	1.000853	0
72.086197	0.795802	city	3	1	0.598824	0.598824	0	1	0	0	CorrectCommission	1.007753	0.991418	0
72.881866	0.795542	city	2	1	0.698101	0.698101	0	1	0	0	CorrectCommission	0.343156	0.975691	0
73.677521	0.795753	city	8	1	0.848587	0.848587	0	1	0	0	CorrectCommission	0.664245	0.955145	0
74.473450	0.796116	city	9	1	0.847495	0.847495	0	1	0	0	CorrectCommission	0.656937	0.931480	0
75.269272	0.795528	city	2	0	0.000000	0.890114	0	0	0	1	OmissionError	0.942242	0.906343	0
76.064941	0.795808	mountain	4	0	0.000000	0.924117	1	0	0	0	CorrectOmission	1.169873	0.881112	0
76.860733	0.795770	city	8	1	0.897180	0.897180	0	1	0	0	CorrectCommission	0.989544	0.856770	0
77.656654	0.796077	city	4	1	0.756975	0.756975	0	1	0	0	CorrectCommission	0.050967	0.833886	0
78.452477	0.795572	city	10	1	0.747792	0.747792	0	1	0	0	CorrectCommission	0.010506	0.812644	0
79.248291	0.796052	city	8	1	0.748242	0.748242	0	1	0	0	CorrectCommission	0.007496	0.792964	1
80.044083	0.795537	city	10	1	1.046821	1.046821	0	1	0	0	CorrectCommission	1.991295	0.774727	1
80.839745	0.795781	city	8	1	1.108332	1.108332	0	1	0	0	CorrectCommission	2.403072	0.757874	1
81.635529	0.795789	city	10	0	0.000000	0.839484	0	0	0	1	OmissionError	0.603307	0.742605	1
82.431297	0.795753	city	9	1	0.599605	0.599605	0	1	0	0	CorrectCommission	1.002522	0.729470	1
83.227097	0.795837	city	3	1	0.748027	0.748027	0	1	0	0	CorrectCommission	0.008937	0.719155	1
84.022934	0.795844	city	5	1	0.699022	0.699022	0	1	0	0	CorrectCommission	0.336995	0.712446	1
84.818718	0.795720	city	2	1	0.649481	0.649481	0	1	0	0	CorrectCommission	0.668639	0.709894	1
85.614502	0.795847	city	4	1	0.750890	0.750890	0	1	0	0	CorrectCommission	0.010227	0.711664	1
86.410339	0.795828	city	10	1	0.748393	0.748393	0	1	0	0	CorrectCommission	0.006488	0.717479	1
87.206146	0.795784	mountain	7	0	0.000000	0.673262	1	0	0	0	CorrectOmission	0.509440	0.726596	1
88.002068	0.796060	city	9	1	0.598875	0.598875	0	1	0	0	CorrectCommission	1.007408	0.737806	1
88.797859	0.795534	city	4	1	0.598612	0.598612	0	1	0	0	CorrectCommission	1.009173	0.749712	1
89.593552	0.795843	city	1	1	0.598967	0.598967	0	1	0	0	CorrectCommission	1.006792	0.761053	1
90.389503	0.796053	city	10	1	0.549873	0.549873	0	1	0	0	CorrectCommission	1.335447	0.770910	1
91.185257	0.795464	city	1	1	0.509175	0.509175	0	1	0	0	CorrectCommission	1.607897	0.778850	1
91.981071	0.796165	city	9	1	0.599110	0.599110	0	1	0	0	CorrectCommission	1.005835	0.785046	1
92.777054	0.795799	city	7	1	0.648659	0.648659	0	1	0	0	CorrectCommission	0.674138	0.790229	1
93.572701	0.795497	city	1	1	0.712743	0.712743	0	1	0	0	CorrectCommission	0.245141	0.795483	1
94.368355	0.795802	city	8	1	0.765200	0.765200	0	1	0	0	CorrectCommission	0.106025	0.801988	0
95.164146	0.795785	mountain	10	0	0.000000	0.648644	1	0	0	0	CorrectOmission	0.674239	0.810738	0
95.959930	0.795775	city	7	1	0.560620	0.560620	0	1	0	0	CorrectCommission	1.263503	0.822255	0
96.755753	0.795884	city	5	1	0.698672	0.698672	0	1	0	0	CorrectCommission	0.339336	0.836437	0
97.551582	0.795768	city	9	1	0.719997	0.719997	0	1	0	0	CorrectCommission	0.196581	0.852537	0
98.347511	0.796094	mountain	1	0	0.000000	0.629990	1	0	0	0	CorrectOmission	0.799120	0.869182	0
99.143318	0.795510	city	10	1	0.549535	0.549535	0	1	0	0	CorrectCommission	1.337709	0.884621	0
99.938972	0.795798	city	4	1	0.599518	0.599518	0	1	0	0	CorrectCommission	1.003106	0.896934	0
100.734772	0.795805	city	3	1	0.598929	0.598929	0	1	0	0	CorrectCommission	1.007051	0.904437	0
101.530571	0.795794	city	1	1	0.506080	0.506080	0	1	0	0	CorrectCommission	1.628610	0.905861	0
102.326385	0.795837	city	4	1	0.500164	0.500164	0	1	0	0	CorrectCommission	1.668213	0.900552	0
103.122185	0.795759	city	5	1	0.602666	0.602666	0	1	0	0	CorrectCommission	0.982032	0.888594	0
103.918114	0.796102	city	2	1	0.598850	0.598850	0	1	0	0	CorrectCommission	1.007576	0.870762	0
104.713936	0.795544	city	4	1	0.614467	0.614467	0	1	0	0	CorrectCommission	0.903035	0.848316	0
105.509735	0.796052	city	6	1	0.655486	0.655486	0	1	0	0	CorrectCommission	0.628435	0.822784	0
106.305489	0.795451	city	5	1	0.766824	0.766824	0	1	0	0	CorrectCommission	0.116897	0.795757	1
107.101143	0.795866	city	1	1	0.798126	0.798126	0	1	0	0	CorrectCommission	0.326447	0.768629	1
107.896973	0.795785	city	10	1	0.811163	0.811163	0	1	0	0	CorrectCommission	0.413721	0.742413	1
108.692772	0.795814	city	6	1	0.897512	0.897512	0	1	0	0	CorrectCommission	0.991769	0.717737	1
109.488579	0.795801	city	10	1	0.897222	0.897222	0	1	0	0	CorrectCommission	0.989824	0.694826	1
110.284393	0.795831	city	5	1	0.864008	0.864008	0	1	0	0	CorrectCommission	0.767482	0.673656	1
111.080200	0.795771	mountain	10	1	0.899552	0.899552	0	0	1	0	CommissionError	1.005425	0.654089	1
111.875984	0.795797	city	6	0	0.000000	0.788249	0	0	0	1	OmissionError	0.260324	0.636043	1
112.671783	0.795812	city	10	1	0.648648	0.648648	0	1	0	0	CorrectCommission	0.674211	0.619603	1
113.467583	0.795788	city	2	1	0.599299	0.599299	0	1	0	0	CorrectCommission	1.004572	0.605024	1
114.263390	0.795824	city	7	1	0.648652	0.648652	0	1	0	0	CorrectCommission	0.674184	0.592821	1
115.059196	0.795789	city	4	1	0.748077	0.748077	0	1	0	0	CorrectCommission	0.008599	0.583751	1
115.854996	0.795802	city	8	1	0.710720	0.710720	0	1	0	0	CorrectCommission	0.258684	0.578607	1
116.650795	0.795798	city	1	1	0.699007	0.699007	0	1	0	0	CorrectCommission	0.337094	0.578108	1
117.446594	0.795806	city	5	1	0.897968	0.897968	0	1	0	0	CorrectCommission	0.994819	0.582834	1
118.242363	0.795736	city	8	1	0.848237	0.848237	0	1	0	0	CorrectCommission	0.661905	0.593060	1
119.038162	0.795849	city	7	1	0.797814	0.797814	0	1	0	0	CorrectCommission	0.324354	0.608691	1
119.833992	0.795812	city	4	1	0.800354	0.800354	0	1	0	0	CorrectCommission	0.341357	0.629200	1
120.629951	0.796117	city	5	1	0.749900	0.749900	0	1	0	0	CorrectCommission	0.003606	0.653672	1
121.425896	0.795767	city	2	1	0.610744	0.610744	0	1	0	0	CorrectCommission	0.927955	0.680880	1
122.221680	0.795801	city	7	1	0.648269	0.648269	0	1	0	0	CorrectCommission	0.676748	0.709318	1
123.017349	0.795530	city	3	1	0.650337	0.650337	0	1	0	0	CorrectCommission	0.662905	0.737434	1
123.813019	0.795822	city	6	1	0.511448	0.511448	0	1	0	0	CorrectCommission	1.592678	0.763780	1
124.608841	0.795821	city	2	1	0.603256	0.603256	0	1	0	0	CorrectCommission	0.978086	0.787097	1
125.404640	0.795767	city	6	1	0.847674	0.847674	0	1	0	0	CorrectCommission	0.658133	0.806541	0
126.200432	0.795821	city	10	0	0.000000	0.698102	0	0	0	1	OmissionError	0.343153	0.821687	0
126.996368	0.796061	city	7	1	0.500092	0.500092	0	1	0	0	CorrectCommission	1.668700	0.832550	0
127.792168	0.795535	mountain	10	1	0.599196	0.599196	0	0	1	0	CommissionError	1.005264	0.839515	0
128.587830	0.795779	city	9	1	0.847523	0.847523	0	1	0	0	CorrectCommission	0.657128	0.843352	0
129.383759	0.796075	city	1	1	0.847603	0.847603	0	1	0	0	CorrectCommission	0.657659	0.845020	0
130.179703	0.795834	city	4	1	0.996719	0.996719	0	1	0	0	CorrectCommission	1.655894	0.845524	0
130.975525	0.795796	city	5	1	0.765660	0.765660	0	1	0	0	CorrectCommission	0.109106	0.845671	0
131.771164	0.795491	mountain	7	0	0.000000	0.784867	1	0	0	0	CorrectOmission	0.237682	0.846117	0
132.566788	0.795763	city	6	1	0.897604	0.897604	0	1	0	0	CorrectCommission	0.992382	0.847175	0
133.362747	0.796144	city	7	1	0.947135	0.947135	0	1	0	0	CorrectCommission	1.323960	0.848726	0
134.158554	0.795461	city	10	1	0.848003	0.848003	0	1	0	0	CorrectCommission	0.660341	0.850307	0
134.954208	0.795858	city	3	1	0.798376	0.798376	0	1	0	0	CorrectCommission	0.328120	0.851227	0
135.750183	0.796092	mountain	10	0	0.000000	0.641281	1	0	0	0	CorrectOmission	0.723528	0.850660	0
136.545975	0.795492	city	7	1	0.516257	0.516257	0	1	0	0	CorrectCommission	1.560486	0.847780	0
137.341599	0.795763	city	8	1	0.562840	0.562840	0	1	0	0	CorrectCommission	1.248639	0.841924	0
138.137405	0.795856	city	4	1	0.648607	0.648607	0	1	0	0	CorrectCommission	0.674491	0.832780	0
138.933228	0.795787	city	8	1	0.598851	0.598851	0	1	0	0	CorrectCommission	1.007575	0.820382	0
139.729019	0.795797	city	9	1	0.600712	0.600712	0	1	0	0	CorrectCommission	0.995111	0.805122	0
140.524811	0.795766	city	3	1	0.617442	0.617442	0	1	0	0	CorrectCommission	0.883115	0.787759	1
141.320755	0.796130	mountain	6	1	0.599162	0.599162	0	0	1	0	CommissionError	1.005487	0.769186	1
142.116562	0.795490	city	9	1	0.701524	0.701524	0	1	0	0	CorrectCommission	0.320244	0.750430	1
142.912247	0.795860	city	3	1	0.699075	0.699075	0	1	0	0	CorrectCommission	0.336638	0.732421	1
143.708054	0.795777	city	8	1	0.847742	0.847742	0	1	0	0	CorrectCommission	0.658590	0.715899	1
144.503998	0.796106	mountain	7	0	0.000000	0.693119	1	0	0	0	CorrectOmission	0.376509	0.701299	1
145.299820	0.795523	city	10	1	0.553695	0.553695	0	1	0	0	CorrectCommission	1.309859	0.688810	1
146.095428	0.795717	city	7	1	0.747960	0.747960	0	1	0	0	CorrectCommission	0.009386	0.678402	1
146.891220	0.795855	city	9	1	0.757456	0.757456	0	1	0	0	CorrectCommission	0.054183	0.669993	1
147.687073	0.795843	city	10	1	1.013665	1.013665	0	1	0	0	CorrectCommission	1.769338	0.663371	1
148.482849	0.795716	city	6	0	0.000000	0.910216	0	0	0	1	OmissionError	1.076811	0.658453	1
149.278625	0.795822	city	9	1	0.698592	0.698592	0	1	0	0	CorrectCommission	0.339869	0.655467	1
150.074600	0.796128	mountain	5	0	0.000000	0.630280	1	0	0	0	CorrectOmission	0.797174	0.654872	1
150.870422	0.795542	city	10	1	0.648979	0.648979	0	1	0	0	CorrectCommission	0.671997	0.657333	1
151.666092	0.795791	city	8	1	0.698389	0.698389	0	1	0	0	CorrectCommission	0.341233	0.663691	1
152.461853	0.795719	mountain	2	0	0.000000	0.690520	1	0	0	0	CorrectOmission	0.393909	0.674805	1
153.257645	0.795875	city	3	1	0.699267	0.699267	0	1	0	0	CorrectCommission	0.335351	0.691356	1
154.053482	0.795798	city	4	1	0.798525	0.798525	0	1	0	0	CorrectCommission	0.329116	0.713645	1
154.849274	0.795795	city	7	1	0.848445	0.848445	0	1	0	0	CorrectCommission	0.663296	0.741474	1
155.645081	0.795816	city	9	1	0.997314	0.997314	0	1	0	0	CorrectCommission	1.659880	0.774057	1
156.440887	0.795799	city	1	0	0.000000	0.731827	0	0	0	1	OmissionError	0.117381	0.809927	0
157.236694	0.795793	city	10	1	0.499596	0.499596	0	1	0	0	CorrectCommission	1.672018	0.847078	0
158.032501	0.795828	city	1	1	0.748233	0.748233	0	1	0	0	CorrectCommission	0.007558	0.882894	0
158.828293	0.795766	city	7	1	0.747954	0.747954	0	1	0	0	CorrectCommission	0.009427	0.914558	0
159.624222	0.796095	city	4	1	0.648541	0.648541	0	1	0	0	CorrectCommission	0.674932	0.939290	0
160.420044	0.795534	city	6	1	0.598905	0.598905	0	1	0	0	CorrectCommission	1.007208	0.954484	0
161.215668	0.795724	mountain	5	1	1.206530	1.206530	0	0	1	0	CommissionError	3.060442	0.958204	0
162.011429	0.795805	mountain	7	0	0.000000	1.165331	1	0	0	0	CorrectOmission	2.784639	0.949405	0
162.807236	0.795799	city	2	1	0.851098	0.851098	0	1	0	0	CorrectCommission	0.681059	0.928188	0
163.603058	0.795851	mountain	9	0	0.000000	0.639624	1	0	0	0	CorrectOmission	0.734623	0.895897	0
164.398895	0.795820	city	5	1	0.599299	0.599299	0	1	0	0	CorrectCommission	1.004576	0.854881	0
165.194717	0.795816	city	10	1	0.798513	0.798513	0	1	0	0	CorrectCommission	0.329034	0.808190	0
165.990494	0.795736	city	6	1	0.854325	0.854325	0	1	0	0	CorrectCommission	0.702657	0.759389	1
166.786407	0.796097	city	10	1	0.797748	0.797748	0	1	0	0	CorrectCommission	0.323916	0.712053	1
167.582230	0.795534	city	9	1	0.815323	0.815323	0	1	0	0	CorrectCommission	0.441569	0.669401	1
168.377899	0.795810	city	4	1	0.858800	0.858800	0	1	0	0	CorrectCommission	0.732620	0.633976	1
169.173721	0.795826	city	3	1	0.797791	0.797791	0	1	0	0	CorrectCommission	0.324205	0.607411	1
169.969543	0.795819	city	5	1	0.748090	0.748090	0	1	0	0	CorrectCommission	0.008512	0.590372	1
170.765335	0.795770	city	7	1	0.708070	0.708070	0	1	0	0	CorrectCommission	0.276420	0.582496	1
171.561127	0.795814	city	10	1	0.661338	0.661338	0	1	0	0	CorrectCommission	0.589259	0.582507	1
172.356934	0.795816	city	8	1	0.750498	0.750498	0	1	0	0	CorrectCommission	0.007609	0.588480	1
173.152740	0.795775	city	7	1	0.748284	0.748284	0	1	0	0	CorrectCommission	0.007215	0.598118	1
173.948517	0.795783	city	3	1	0.801961	0.801961	0	1	0	0	CorrectCommission	0.352119	0.609091	1
174.744324	0.795843	mountain	4	1	1.348765	1.348765	0	0	1	0	CommissionError	4.012610	0.619256	1
175.540115	0.795726	city	4	1	0.797832	0.797832	0	1	0	0	CorrectCommission	0.324477	0.626849	1
176.335907	0.795855	city	9	1	0.748967	0.748967	0	1	0	0	CorrectCommission	0.002643	0.630935	1
177.131714	0.795756	city	1	1	0.698771	0.698771	0	1	0	0	CorrectCommission	0.338673	0.631054	1
177.927490	0.795821	city	3	1	0.797807	0.797807	0	1	0	0	CorrectCommission	0.324309	0.627309	1
178.723328	0.795831	city	2	1	0.699418	0.699418	0	1	0	0	CorrectCommission	0.334345	0.620203	1
179.519119	0.795755	mountain	1	1	0.549122	0.549122	0	0	1	0	CommissionError	1.340477	0.610557	1
180.314911	0.795837	city	4	1	0.698766	0.698766	0	1	0	0	CorrectCommission	0.338705	0.599379	1
181.110703	0.795757	city	3	1	0.605658	0.605658	0	1	0	0	CorrectCommission	0.962001	0.587831	1
181.906509	0.795835	city	8	1	0.649345	0.649345	0	1	0	0	CorrectCommission	0.669546	0.577081	1
182.702301	0.795774	city	6	1	0.748885	0.748885	0	1	0	0	CorrectCommission	0.003192	0.568275	1
183.498123	0.795871	mountain	7	0	0.000000	0.699848	1	0	0	0	CorrectOmission	0.331465	0.562484	1
184.294083	0.796026	city	10	1	0.699931	0.699931	0	1	0	0	CorrectCommission	0.330907	0.560703	1
185.089844	0.795522	city	4	1	0.946833	0.946833	0	1	0	0	CorrectCommission	1.321943	0.563853	1
185.885498	0.795766	city	5	1	0.864761	0.864761	0	1	0	0	CorrectCommission	0.772525	0.572662	1
186.681305	0.795855	mountain	1	0	0.000000	0.754980	1	0	0	0	CorrectOmission	0.037610	0.587723	1
187.477280	0.796096	city	4	1	0.707419	0.707419	0	1	0	0	CorrectCommission	0.280777	0.609378	1
188.273102	0.795533	city	8	1	0.812010	0.812010	0	1	0	0	CorrectCommission	0.419386	0.637575	1
189.068893	0.796059	city	6	1	0.748288	0.748288	0	1	0	0	CorrectCommission	0.007186	0.671804	1
189.864700	0.795563	city	2	1	0.652521	0.652521	0	1	0	0	CorrectCommission	0.648288	0.711092	1
190.660370	0.795760	city	1	1	0.608363	0.608363	0	1	0	0	CorrectCommission	0.943895	0.753928	1
191.456161	0.795826	city	8	1	0.599106	0.599106	0	1	0	0	CorrectCommission	1.005866	0.798368	1
192.251968	0.795806	city	3	1	0.599319	0.599319	0	1	0	0	CorrectCommission	1.004440	0.842011	0
193.047729	0.795720	city	6	1	0.953658	0.953658	0	1	0	0	CorrectCommission	1.367629	0.882321	0
193.843521	0.795849	city	10	0	0.000000	0.843421	0	0	0	1	OmissionError	0.629663	0.916711	0
194.639328	0.795781	city	1	1	0.660951	0.660951	0	1	0	0	CorrectCommission	0.591850	0.942765	0
195.435287	0.796128	city	6	1	0.798595	0.798595	0	1	0	0	CorrectCommission	0.329582	0.958449	0
196.231094	0.795490	city	3	1	0.900535	0.900535	0	1	0	0	CorrectCommission	1.012006	0.962345	0
197.026749	0.795809	city	8	1	1.295459	1.295459	0	1	0	0	CorrectCommission	3.655764	0.953765	0
197.822540	0.795761	mountain	10	0	0.000000	1.044602	1	0	0	0	CorrectOmission	1.976441	0.932838	0
198.618484	0.796156	city	6	1	0.698418	0.698418	0	1	0	0	CorrectCommission	0.341036	0.900709	0
199.414459	0.795764	city	9	1	0.807359	0.807359	0	1	0	0	CorrectCommission	0.388256	0.859341	0
200.210098	0.795541	city	7	1	0.897438	0.897438	0	1	0	0	CorrectCommission	0.991275	0.811245	0
201.005753	0.795745	mountain	4	0	0.000000	0.820697	1	0	0	0	CorrectOmission	0.477543	0.759248	1
201.801559	0.795889	city	7	1	0.699281	0.699281	0	1	0	0	CorrectCommission	0.335259	0.706325	1
202.597397	0.795782	city	1	1	0.655335	0.655335	0	1	0	0	CorrectCommission	0.629448	0.655260	1
203.393188	0.795803	city	9	1	0.848622	0.848622	0	1	0	0	CorrectCommission	0.664485	0.608491	1
204.188965	0.795737	city	3	1	0.798683	0.798683	0	1	0	0	CorrectCommission	0.330172	0.568028	1
204.984772	0.795884	city	1	1	0.760349	0.760349	0	1	0	0	CorrectCommission	0.073549	0.535400	1
205.780563	0.795713	city	9	1	0.798557	0.798557	0	1	0	0	CorrectCommission	0.329330	0.511590	1
206.576340	0.795828	city	6	1	0.768325	0.768325	0	1	0	0	CorrectCommission	0.126943	0.497182	1
207.372177	0.795850	city	1	1	0.616745	0.616745	0	1	0	0	CorrectCommission	0.887780	0.492414	1
208.167999	0.795775	city	7	1	0.660637	0.660637	0	1	0	0	CorrectCommission	0.593957	0.497183	1
208.963791	0.795822	city	4	1	0.857184	0.857184	0	1	0	0	CorrectCommission	0.721801	0.511234	1
209.759613	0.795814	city	5	1	0.748942	0.748942	0	1	0	0	CorrectCommission	0.002813	0.534061	1
210.555405	0.795775	city	4	1	0.810857	0.810857	0	1	0	0	CorrectCommission	0.411673	0.564968	1
211.351334	0.796088	mountain	10	0	0.000000	0.733369	1	0	0	0	CorrectOmission	0.107063	0.602961	1
212.147141	0.795511	city	4	1	0.665110	0.665110	0	1	0	0	CorrectCommission	0.564010	0.646750	1
212.942810	0.795839	city	3	1	0.754716	0.754716	0	1	0	0	CorrectCommission	0.035840	0.694695	1
213.738617	0.795781	city	8	1	0.801081	0.801081	0	1	0	0	CorrectCommission	0.346223	0.744913	1
214.534378	0.795725	city	9	1	1.046524	1.046524	0	1	0	0	CorrectCommission	1.989309	0.795169	1
215.330185	0.795896	city	8	0	0.000000	0.987667	0	0	0	1	OmissionError	1.595299	0.843110	0
216.126022	0.795772	city	1	1	0.848920	0.848920	0	1	0	0	CorrectCommission	0.666474	0.886527	0
216.921799	0.795802	city	4	1	0.854692	0.854692	0	1	0	0	CorrectCommission	0.705116	0.923389	0
217.717606	0.795793	city	8	1	0.848575	0.848575	0	1	0	0	CorrectCommission	0.664167	0.951992	0
218.513397	0.795782	city	7	1	0.897574	0.897574	0	1	0	0	CorrectCommission	0.992186	0.971131	0
219.309189	0.795814	city	8	1	0.957403	0.957403	0	1	0	0	CorrectCommission	1.392698	0.980172	0
220.104996	0.795795	city	4	1	1.097020	1.097020	0	1	0	0	CorrectCommission	2.327344	0.979125	0
220.900955	0.796121	city	9	0	0.000000	0.848366	0	0	0	1	OmissionError	0.662771	0.968639	0
221.696777	0.795523	city	3	1	0.550243	0.550243	0	1	0	0	CorrectCommission	1.332972	0.950054	0
222.492416	0.795771	mountain	6	0	0.000000	0.541450	1	0	0	0	CorrectOmission	1.391832	0.925108	0
223.288223	0.795848	city	8	1	0.698335	0.698335	0	1	0	0	CorrectCommission	0.341589	0.895815	0
224.084030	0.795765	city	6	1	0.897245	0.897245	0	1	0	0	CorrectCommission	0.989980	0.864393	0
224.879822	0.795796	city	8	1	0.764909	0.764909	0	1	0	0	CorrectCommission	0.104080	0.832883	0
225.675629	0.795813	city	3	1	0.658450	0.658450	0	1	0	0	CorrectCommission	0.608597	0.803110	0
226.471420	0.795782	city	6	1	0.649344	0.649344	0	1	0	0	CorrectCommission	0.669555	0.776532	1
227.267197	0.795779	city	5	1	0.657504	0.657504	0	1	0	0	CorrectCommission	0.614931	0.754288	1
228.063156	0.796134	city	4	1	0.851485	0.851485	0	1	0	0	CorrectCommission	0.683645	0.737087	1
228.858963	0.795469	city	10	1	0.947199	0.947199	0	1	0	0	CorrectCommission	1.324388	0.725347	1
229.654633	0.795863	city	5	1	0.847822	0.847822	0	1	0	0	CorrectCommission	0.659127	0.719195	1
230.450577	0.796048	city	2	1	0.807105	0.807105	0	1	0	0	CorrectCommission	0.386554	0.718698	1
231.246368	0.795539	city	6	1	0.861613	0.861613	0	1	0	0	CorrectCommission	0.751449	0.723820	1
232.042175	0.796056	mountain	2	0	0.000000	0.739077	1	0	0	0	CorrectOmission	0.068851	0.734410	1
232.837967	0.795541	city	1	1	0.598802	0.598802	0	1	0	0	CorrectCommission	1.007903	0.750307	1
233.633652	0.795807	city	3	1	0.600092	0.600092	0	1	0	0	CorrectCommission	0.999261	0.771252	1
234.429459	0.795822	city	10	1	0.798527	0.798527	0	1	0	0	CorrectCommission	0.329127	0.796914	1
235.225250	0.795748	city	8	1	0.812552	0.812552	0	1	0	0	CorrectCommission	0.423017	0.826860	0
236.021027	0.795828	city	10	1	0.898653	0.898653	0	1	0	0	CorrectCommission	0.999407	0.860492	0
236.816864	0.795827	city	9	1	0.947703	0.947703	0	1	0	0	CorrectCommission	1.327766	0.897021	0
237.612640	0.795728	city	7	1	0.947782	0.947782	0	1	0	0	CorrectCommission	1.328291	0.935430	0
238.408401	0.795788	city	2	0	0.000000	0.747147	0	0	0	1	OmissionError	0.014828	0.974589	0
239.204193	0.795818	city	3	1	0.551991	0.551991	0	1	0	0	CorrectCommission	1.321269	1.013279	0
240.000015	0.795825	city	10	1	0.568506	0.568506	0	1	0	0	CorrectCommission	1.210712	1.050102	0
240.795837	0.795813	city	7	1	0.748040	0.748040	0	1	0	0	CorrectCommission	0.008850	1.083825	0
241.591644	0.795812	city	9	1	0.946971	0.946971	0	1	0	0	CorrectCommission	1.322863	1.113437	0
242.387604	0.796080	city	2	1	1.195747	1.195747	0	1	0	0	CorrectCommission	2.988258	1.138160	0
243.183548	0.795810	city	7	0	0.000000	0.930688	0	0	0	1	OmissionError	1.213857	1.157615	0
243.979218	0.795536	city	5	1	0.613431	0.613431	0	1	0	0	CorrectCommission	0.909966	1.171954	0
244.774857	0.795757	city	7	1	0.705618	0.705618	0	1	0	0	CorrectCommission	0.292837	1.181699	0
245.570648	0.795818	city	4	1	0.996811	0.996811	0	1	0	0	CorrectCommission	1.656512	1.187713	0
246.366592	0.796072	city	7	1	1.058635	1.058635	0	1	0	0	CorrectCommission	2.070380	1.190954	0
247.162384	0.795515	mountain	1	0	0.000000	1.005466	1	0	0	0	CorrectOmission	1.714451	1.192441	0
247.958206	0.796117	city	7	1	0.898161	0.898161	0	1	0	0	CorrectCommission	0.996111	1.193017	0
248.753998	0.795458	city	9	1	0.797573	0.797573	0	1	0	0	CorrectCommission	0.322740	1.193214	0
249.549652	0.795875	city	7	1	0.748943	0.748943	0	1	0	0	CorrectCommission	0.002805	1.193175	0
250.345490	0.795801	city	6	1	0.707400	0.707400	0	1	0	0	CorrectCommission	0.280906	1.192585	0
251.141281	0.795757	city	2	1	0.502599	0.502599	0	1	0	0	CorrectCommission	1.651918	1.190771	0
251.937057	0.795799	city	3	1	0.403932	0.403932	0	1	0	0	CorrectCommission	2.312429	1.186880	0
252.732834	0.795759	mountain	6	1	0.449928	0.449928	0	0	1	0	CommissionError	2.004512	1.180055	0
253.528656	0.795882	city	5	1	0.467555	0.467555	0	1	0	0	CorrectCommission	1.886515	1.169615	0
254.324631	0.796064	mountain	10	1	0.466989	0.466989	0	0	1	0	CommissionError	1.890304	1.155124	0
255.120438	0.795560	city	9	1	0.797591	0.797591	0	1	0	0	CorrectCommission	0.322864	1.136406	0
255.916122	0.795795	city	4	1	0.798453	0.798453	0	1	0	0	CorrectCommission	0.328634	1.113619	0
256.711914	0.795782	city	2	1	0.897492	0.897492	0	1	0	0	CorrectCommission	0.991638	1.086973	0
257.507690	0.795801	city	9	0	0.000000	0.681946	0	0	0	1	OmissionError	0.451308	1.056662	0
258.303497	0.795784	city	10	1	0.549338	0.549338	0	1	0	0	CorrectCommission	1.339030	1.023029	0
259.099304	0.795834	city	5	1	0.897195	0.897195	0	1	0	0	CorrectCommission	0.989644	0.986333	0
259.895111	0.795796	city	2	1	0.947241	0.947241	0	1	0	0	CorrectCommission	1.324669	0.946991	0
260.690887	0.795744	city	1	1	0.947204	0.947204	0	1	0	0	CorrectCommission	1.324425	0.905697	0
261.486816	0.796113	city	5	1	0.947011	0.947011	0	1	0	0	CorrectCommission	1.323129	0.863461	0
262.282623	0.795510	city	9	1	0.947722	0.947722	0	1	0	0	CorrectCommission	1.327894	0.821777	0
263.078308	0.795830	city	5	0	0.000000	0.765332	0	0	0	1	OmissionError	0.106909	0.782479	1
263.874084	0.795771	city	8	1	0.649009	0.649009	0	1	0	0	CorrectCommission	0.671796	0.747772	1
264.669891	0.795804	city	4	1	0.847924	0.847924	0	1	0	0	CorrectCommission	0.659810	0.719900	1
265.465698	0.795832	city	3	1	0.800837	0.800837	0	1	0	0	CorrectCommission	0.344593	0.701012	1
266.261505	0.795799	city	7	1	0.759184	0.759184	0	1	0	0	CorrectCommission	0.065753	0.692838	1
267.057434	0.796066	city	9	1	0.650319	0.650319	0	1	0	0	CorrectCommission	0.663030	0.696462	1
267.853210	0.795465	city	2	1	0.714340	0.714340	0	1	0	0	CorrectCommission	0.234447	0.712103	1
268.648895	0.795873	city	7	1	0.748843	0.748843	0	1	0	0	CorrectCommission	0.003470	0.739032	1
269.444855	0.796090	city	2	1	0.698612	0.698612	0	1	0	0	CorrectCommission	0.339739	0.775624	1
270.240662	0.795509	city	8	1	0.859477	0.859477	0	1	0	0	CorrectCommission	0.737148	0.819426	0
271.036469	0.796080	city	2	1	0.946903	0.946903	0	1	0	0	CorrectCommission	1.322411	0.867495	0
271.832397	0.795800	city	6	1	0.997108	0.997108	0	1	0	0	CorrectCommission	1.658499	0.916574	0
272.628021	0.795463	mountain	6	0	0.000000	0.698817	1	0	0	0	CorrectOmission	0.338362	0.963490	0
273.423706	0.795887	city	10	1	0.449978	0.449978	0	1	0	0	CorrectCommission	2.004178	1.005455	0
274.219513	0.795761	city	7	1	0.648537	0.648537	0	1	0	0	CorrectCommission	0.674955	1.040106	0
275.015472	0.796104	city	1	1	0.997003	0.997003	0	1	0	0	CorrectCommission	1.657794	1.065902	0
275.811218	0.795444	city	5	1	1.046876	1.046876	0	1	0	0	CorrectCommission	1.991660	1.081932	0
276.606903	0.795892	mountain	9	0	0.000000	0.789657	1	0	0	0	CorrectOmission	0.269747	1.088024	0
277.402710	0.795738	city	2	1	0.549044	0.549044	0	1	0	0	CorrectCommission	1.340994	1.084698	0
278.198517	0.795853	city	5	1	0.648738	0.648738	0	1	0	0	CorrectCommission	0.673613	1.072904	0
278.994476	0.796093	city	9	1	0.996843	0.996843	0	1	0	0	CorrectCommission	1.656727	1.054020	0
279.790283	0.795492	city	7	1	0.947043	0.947043	0	1	0	0	CorrectCommission	1.323346	1.029628	0
280.585938	0.795802	city	5	1	0.965424	0.965424	0	1	0	0	CorrectCommission	1.446398	1.001521	0
281.381683	0.795743	city	7	0	0.000000	0.818955	0	0	0	1	OmissionError	0.465879	0.971496	0
282.177490	0.795857	city	6	1	0.649480	0.649480	0	1	0	0	CorrectCommission	0.668647	0.941360	0
282.973480	0.796096	city	2	1	0.598844	0.598844	0	1	0	0	CorrectCommission	1.007617	0.912791	0
283.769287	0.795547	city	5	1	0.698877	0.698877	0	1	0	0	CorrectCommission	0.337960	0.887353	0
284.564941	0.795760	city	4	1	0.946953	0.946953	0	1	0	0	CorrectCommission	1.322745	0.866490	0
285.360748	0.795852	city	1	0	0.000000	0.743600	0	0	0	1	OmissionError	0.038571	0.851372	0
286.156555	0.795760	city	2	1	0.499661	0.499661	0	1	0	0	CorrectCommission	1.671583	0.843074	0
286.952362	0.795837	mountain	2	0	0.000000	0.625979	1	0	0	0	CorrectOmission	0.825968	0.842276	0
287.748138	0.795704	city	8	1	0.799778	0.799778	0	1	0	0	CorrectCommission	0.337505	0.849423	0
288.544037	0.796138	city	10	1	0.698284	0.698284	0	1	0	0	CorrectCommission	0.341934	0.864538	0
289.339874	0.795538	city	3	1	0.648613	0.648613	0	1	0	0	CorrectCommission	0.674449	0.887136	0
290.135559	0.795832	mountain	3	1	0.598849	0.598849	0	0	1	0	CommissionError	1.007582	0.916245	0
290.931488	0.796006	city	4	1	0.600540	0.600540	0	1	0	0	CorrectCommission	0.996265	0.950336	0
291.727295	0.795570	city	8	1	0.648304	0.648304	0	1	0	0	CorrectCommission	0.676517	0.987403	0
292.522980	0.795821	city	5	1	0.847516	0.847516	0	1	0	0	CorrectCommission	0.657076	1.025023	0
293.318756	0.795760	city	3	1	0.946990	0.946990	0	1	0	0	CorrectCommission	1.322990	1.060535	0
294.114685	0.796103	city	9	1	0.897572	0.897572	0	1	0	0	CorrectCommission	0.992168	1.091313	0
294.910492	0.795499	city	10	1	0.996730	0.996730	0	1	0	0	CorrectCommission	1.655966	1.115029	0
295.706177	0.795832	city	8	1	0.996725	0.996725	0	1	0	0	CorrectCommission	1.655936	1.129830	0
296.501984	0.795810	city	9	1	0.959254	0.959254	0	1	0	0	CorrectCommission	1.405094	1.134623	0
297.297943	0.796077	city	6	1	0.962600	0.962600	0	1	0	0	CorrectCommission	1.427490	1.129200	0
298.093719	0.795483	city	8	1	0.946731	0.946731	0	1	0	0	CorrectCommission	1.321260	1.114280	0
298.889343	0.795812	city	3	1	0.956207	0.956207	0	1	0	0	CorrectCommission	1.384693	1.091483	0
299.685181	0.795807	city	9	1	1.047218	1.047218	0	1	0	0	CorrectCommission	1.993955	1.063082	0
300.480957	0.795775	city	2	0	0.000000	0.821606	0	0	0	1	OmissionError	0.483629	1.031711	0
301.276733	0.795790	city	7	1	0.599117	0.599117	0	1	0	0	CorrectCommission	1.005793	1.000219	0
302.072571	0.795851	city	1	1	0.699496	0.699496	0	1	0	0	CorrectCommission	0.333822	0.971089	0
302.868347	0.795746	city	6	1	0.712835	0.712835	0	1	0	0	CorrectCommission	0.244525	0.946365	0
303.664124	0.795778	city	5	1	0.798165	0.798165	0	1	0	0	CorrectCommission	0.326708	0.927303	0
304.459930	0.795849	city	7	1	0.798261	0.798261	0	1	0	0	CorrectCommission	0.327349	0.914366	0
305.255768	0.795810	city	2	1	0.855085	0.855085	0	1	0	0	CorrectCommission	0.707745	0.907291	0
306.051697	0.796085	city	6	1	1.112733	1.112733	0	1	0	0	CorrectCommission	2.432531	0.905186	0
306.847534	0.795564	city	5	0	0.000000	0.954500	0	0	0	1	OmissionError	1.373264	0.906715	0
307.643188	0.795750	city	6	1	0.698657	0.698657	0	1	0	0	CorrectCommission	0.339433	0.910431	0
308.439117	0.796089	city	1	1	0.663478	0.663478	0	1	0	0	CorrectCommission	0.574936	0.914894	0
309.235077	0.795820	city	6	1	0.847084	0.847084	0	1	0	0	CorrectCommission	0.654187	0.918777	0
310.030731	0.795510	city	4	1	1.046289	1.046289	0	1	0	0	CorrectCommission	1.987735	0.920996	0
310.826355	0.795740	city	6	0	0.000000	0.839450	0	0	0	1	OmissionError	0.603081	0.920666	0
311.622162	0.795897	city	3	1	0.599208	0.599208	0	1	0	0	CorrectCommission	1.005181	0.917282	0
312.417999	0.795771	city	1	1	0.698205	0.698205	0	1	0	0	CorrectCommission	0.342459	0.910473	0
313.213776	0.795781	city	5	1	0.599004	0.599004	0	1	0	0	CorrectCommission	1.006548	0.900101	0
314.009583	0.795831	city	4	1	0.962766	0.962766	0	1	0	0	CorrectCommission	1.428601	0.886142	0
314.805389	0.795763	city	1	1	0.615360	0.615360	0	1	0	0	CorrectCommission	0.897052	0.868700	0
315.601318	0.796071	city	3	1	0.798588	0.798588	0	1	0	0	CorrectCommission	0.329535	0.848020	0
316.397125	0.795541	city	2	1	0.549089	0.549089	0	1	0	0	CorrectCommission	1.340696	0.824440	0
317.192810	0.795829	city	1	1	0.555857	0.555857	0	1	0	0	CorrectCommission	1.295386	0.798335	1
317.988617	0.795787	city	3	1	0.903944	0.903944	0	1	0	0	CorrectCommission	1.034824	0.770216	1
318.784424	0.795838	city	7	1	0.847848	0.847848	0	1	0	0	CorrectCommission	0.659300	0.740637	1
319.580200	0.795733	city	9	0	0.000000	0.757089	0	0	0	1	OmissionError	0.051728	0.710193	1
320.375977	0.795829	city	4	1	0.713288	0.713288	0	1	0	0	CorrectCommission	0.241493	0.679468	1
321.171783	0.795793	city	2	1	0.798066	0.798066	0	1	0	0	CorrectCommission	0.326040	0.649014	1
321.967621	0.795851	city	8	1	0.599321	0.599321	0	1	0	0	CorrectCommission	1.004428	0.619357	1
322.763550	0.796026	city	10	1	0.611913	0.611913	0	1	0	0	CorrectCommission	0.920128	0.590988	1
323.559326	0.795537	city	1	1	0.598900	0.598900	0	1	0	0	CorrectCommission	1.007245	0.564411	1
324.355011	0.795792	city	4	1	0.861931	0.861931	0	1	0	0	CorrectCommission	0.753575	0.540135	1
325.150818	0.795814	city	8	1	0.701161	0.701161	0	1	0	0	CorrectCommission	0.322671	0.518740	1
325.946777	0.796112	city	6	1	0.748325	0.748325	0	1	0	0	CorrectCommission	0.006944	0.500759	1
326.742584	0.795529	city	3	1	0.702937	0.702937	0	1	0	0	CorrectCommission	0.310783	0.486626	1
327.538391	0.796061	city	5	1	0.749463	0.749463	0	1	0	0	CorrectCommission	0.000679	0.476579	1
328.334290	0.795747	city	2	1	0.710026	0.710026	0	1	0	0	CorrectCommission	0.263325	0.470751	1
329.129944	0.795591	city	5	1	0.648401	0.648401	0	1	0	0	CorrectCommission	0.675867	0.469013	1
329.925598	0.795710	city	3	1	0.649210	0.649210	0	1	0	0	CorrectCommission	0.670450	0.471087	1
330.721558	0.796163	city	8	1	0.650884	0.650884	0	1	0	0	CorrectCommission	0.659245	0.476549	1
331.517365	0.795511	city	5	1	0.751574	0.751574	0	1	0	0	CorrectCommission	0.014810	0.484853	1
332.313019	0.795788	mountain	8	1	0.612660	0.612660	0	0	1	0	CommissionError	0.915133	0.495424	1
333.108826	0.795821	city	5	1	0.713250	0.713250	0	1	0	0	CorrectCommission	0.241743	0.507638	1
333.904602	0.795737	mountain	4	0	0.000000	0.689620	1	0	0	0	CorrectOmission	0.399935	0.520928	1
334.700562	0.796149	city	3	1	0.649058	0.649058	0	1	0	0	CorrectCommission	0.671469	0.534746	1
335.496368	0.795505	city	8	1	0.698856	0.698856	0	1	0	0	CorrectCommission	0.338103	0.548592	1
336.292023	0.795803	city	6	1	0.898437	0.898437	0	1	0	0	CorrectCommission	0.997963	0.562035	1
337.087799	0.795742	city	5	1	0.862072	0.862072	0	1	0	0	CorrectCommission	0.754518	0.574673	1
337.883575	0.795812	city	2	1	0.748305	0.748305	0	1	0	0	CorrectCommission	0.007078	0.586149	1
338.679382	0.795793	city	9	1	0.851012	0.851012	0	1	0	0	CorrectCommission	0.680482	0.596106	1
339.475189	0.795798	mountain	9	0	0.000000	0.723989	1	0	0	0	CorrectOmission	0.169853	0.604157	1
340.271027	0.795864	city	4	1	0.559338	0.559338	0	1	0	0	CorrectCommission	1.272086	0.609979	1
341.066833	0.795802	city	10	1	0.549160	0.549160	0	1	0	0	CorrectCommission	1.340223	0.613229	1
341.862762	0.796048	city	9	1	0.701290	0.701290	0	1	0	0	CorrectCommission	0.321808	0.613694	1
342.658569	0.795523	city	10	1	0.699048	0.699048	0	1	0	0	CorrectCommission	0.336817	0.611309	1
343.454254	0.795872	mountain	3	1	0.648832	0.648832	0	0	1	0	CommissionError	0.672983	0.606167	1
344.250061	0.795731	city	2	1	0.748399	0.748399	0	1	0	0	CorrectCommission	0.006443	0.598550	1
345.045990	0.796136	city	1	1	0.847570	0.847570	0	1	0	0	CorrectCommission	0.657441	0.589062	1
345.841827	0.795521	city	4	1	0.946761	0.946761	0	1	0	0	CorrectCommission	1.321458	0.578528	1
346.637482	0.795813	city	9	1	0.897341	0.897341	0	1	0	0	CorrectCommission	0.990622	0.568021	1
347.433411	0.796063	city	5	1	0.848613	0.848613	0	1	0	0	CorrectCommission	0.664422	0.558860	1
348.229340	0.795743	city	8	1	0.797697	0.797697	0	1	0	0	CorrectCommission	0.323571	0.552490	1
349.024994	0.795570	city	3	1	0.707055	0.707055	0	1	0	0	CorrectCommission	0.283214	0.550372	1
349.820648	0.795770	city	6	1	0.798556	0.798556	0	1	0	0	CorrectCommission	0.329322	0.553795	1
350.616455	0.795811	city	10	1	0.748306	0.748306	0	1	0	0	CorrectCommission	0.007071	0.563764	1
351.412262	0.795819	city	5	1	0.748060	0.748060	0	1	0	0	CorrectCommission	0.008714	0.580901	1
352.208069	0.795798	city	2	1	0.660673	0.660673	0	1	0	0	CorrectCommission	0.593714	0.605348	1
353.003845	0.795767	city	1	1	0.600016	0.600016	0	1	0	0	CorrectCommission	0.999774	0.636748	1
353.799652	0.795867	mountain	10	1	0.748564	0.748564	0	0	1	0	CommissionError	0.005344	0.674289	1
354.595490	0.795764	city	7	1	0.608641	0.608641	0	1	0	0	CorrectCommission	0.942036	0.716817	1
355.391296	0.795856	mountain	2	0	0.000000	0.585858	1	0	0	0	CorrectOmission	1.094553	0.762823	1
356.187103	0.795741	city	1	1	0.598771	0.598771	0	1	0	0	CorrectCommission	1.008108	0.810591	0
356.983032	0.796121	city	8	1	0.565936	0.565936	0	1	0	0	CorrectCommission	1.227914	0.858320	0
357.778809	0.795435	city	4	1	0.698350	0.698350	0	1	0	0	CorrectCommission	0.341489	0.904143	0
358.574463	0.795895	city	3	1	0.648709	0.648709	0	1	0	0	CorrectCommission	0.673807	0.946278	0
359.370300	0.795779	city	9	1	0.847839	0.847839	0	1	0	0	CorrectCommission	0.659239	0.983050	0
360.166229	0.796091	city	2	1	0.947099	0.947099	0	1	0	0	CorrectCommission	1.323719	1.013028	0
360.962036	0.795497	city	9	1	0.996447	0.996447	0	1	0	0	CorrectCommission	1.654074	1.035045	0
361.757690	0.795800	city	5	1	0.947033	0.947033	0	1	0	0	CorrectCommission	1.323277	1.048374	0
362.553467	0.795803	city	4	1	0.947934	0.947934	0	1	0	0	CorrectCommission	1.329309	1.052781	0
363.349274	0.795806	city	3	1	0.997015	0.997015	0	1	0	0	CorrectCommission	1.657877	1.048471	0
364.145050	0.795747	city	2	1	0.947405	0.947405	0	1	0	0	CorrectCommission	1.325771	1.036112	0
364.940826	0.795812	city	1	1	0.963951	0.963951	0	1	0	0	CorrectCommission	1.436536	1.016840	0
365.736816	0.796149	mountain	8	0	0.000000	0.808999	1	0	0	0	CorrectOmission	0.399234	0.992062	0
366.532623	0.795456	city	8	1	0.698373	0.698373	0	1	0	0	CorrectCommission	0.341338	0.963519	0
367.328308	0.795891	city	6	1	0.847895	0.847895	0	1	0	0	CorrectCommission	0.659617	0.932978	0
368.124115	0.795771	city	1	1	0.648542	0.648542	0	1	0	0	CorrectCommission	0.674922	0.902258	0
368.919891	0.795728	city	5	1	0.549817	0.549817	0	1	0	0	CorrectCommission	1.335825	0.873253	0
369.715668	0.795857	city	10	1	0.549152	0.549152	0	1	0	0	CorrectCommission	1.340275	0.847771	0
370.511505	0.795799	city	1	1	0.606185	0.606185	0	1	0	0	CorrectCommission	0.958476	0.827542	0
371.307312	0.795841	city	7	1	0.648802	0.648802	0	1	0	0	CorrectCommission	0.673180	0.814253	0
372.103119	0.795764	city	10	1	0.665544	0.665544	0	1	0	0	CorrectCommission	0.561103	0.809294	0
372.898895	0.795758	mountain	6	0	0.000000	0.655143	1	0	0	0	CorrectOmission	0.630730	0.813686	0
373.694702	0.795870	city	2	1	0.666400	0.666400	0	1	0	0	CorrectCommission	0.555375	0.827921	0
374.490509	0.795772	city	5	1	0.748114	0.748114	0	1	0	0	CorrectCommission	0.008350	0.851796	0
375.286438	0.796089	city	4	1	0.807823	0.807823	0	1	0	0	CorrectCommission	0.391360	0.884360	0
376.082397	0.795800	city	1	1	0.797493	0.797493	0	1	0	0	CorrectCommission	0.322207	0.923816	0
376.878021	0.795467	city	10	1	0.896970	0.896970	0	1	0	0	CorrectCommission	0.988139	0.967634	0
377.673828	0.796143	city	8	1	1.047249	1.047249	0	1	0	0	CorrectCommission	1.994162	1.012691	0
378.469635	0.795469	city	1	1	0.950705	0.950705	0	1	0	0	CorrectCommission	1.347863	1.055517	0
379.265320	0.795876	city	2	0	0.000000	0.652376	0	0	0	1	OmissionError	0.649260	1.092692	0
380.061096	0.795720	city	3	1	0.502536	0.502536	0	1	0	0	CorrectCommission	1.652339	1.121074	0
380.856903	0.795861	mountain	1	1	0.851462	0.851462	0	0	1	0	CommissionError	0.683491	1.138163	0
381.652740	0.795826	city	2	1	1.199441	1.199441	0	1	0	0	CorrectCommission	3.012986	1.142285	0
382.448547	0.795797	city	9	0	0.000000	0.918803	0	0	0	1	OmissionError	1.134300	1.132685	0
383.244324	0.795775	city	4	1	0.665696	0.665696	0	1	0	0	CorrectCommission	0.560085	1.109866	0
384.040100	0.795753	city	9	1	1.096268	1.096268	0	1	0	0	CorrectCommission	2.322312	1.075329	0
384.835876	0.795804	city	6	1	0.960442	0.960442	0	1	0	0	CorrectCommission	1.413046	1.031367	0
385.631683	0.795810	city	4	0	0.000000	0.705490	0	0	0	1	OmissionError	0.293692	0.981012	0
386.427521	0.795890	city	3	1	0.549551	0.549551	0	1	0	0	CorrectCommission	1.337606	0.927618	0
387.223511	0.796044	city	9	1	0.710762	0.710762	0	1	0	0	CorrectCommission	0.258403	0.874428	0
388.019257	0.795457	city	1	1	0.698725	0.698725	0	1	0	0	CorrectCommission	0.338983	0.824406	0
388.814911	0.795872	city	9	1	0.648559	0.648559	0	1	0	0	CorrectCommission	0.674812	0.779838	1
389.610748	0.795780	city	6	1	0.649030	0.649030	0	1	0	0	CorrectCommission	0.671653	0.742157	1
390.406555	0.795835	city	8	1	0.656110	0.656110	0	1	0	0	CorrectCommission	0.624259	0.711864	1
391.202515	0.796063	city	5	1	0.648640	0.648640	0	1	0	0	CorrectCommission	0.674264	0.688538	1
391.998322	0.795551	city	8	1	0.747782	0.747782	0	1	0	0	CorrectCommission	0.010575	0.670938	1
392.793976	0.795812	city	9	1	0.698527	0.698527	0	1	0	0	CorrectCommission	0.340307	0.657229	1
393.589935	0.796058	city	2	1	0.698386	0.698386	0	1	0	0	CorrectCommission	0.341247	0.645215	1
394.385834	0.795758	city	5	1	0.648998	0.648998	0	1	0	0	CorrectCommission	0.671868	0.632704	1
395.181458	0.795524	city	3	1	0.698371	0.698371	0	1	0	0	CorrectCommission	0.341348	0.617781	1
395.977173	0.795848	mountain	2	1	1.349753	1.349753	0	0	1	0	CommissionError	4.019227	0.599106	1
396.773102	0.796047	mountain	5	1	0.798466	0.798466	0	0	1	0	CommissionError	0.328719	0.575970	1
397.568909	0.795532	city	1	1	0.748492	0.748492	0	1	0	0	CorrectCommission	0.005823	0.548688	1
398.364655	0.796002	city	3	1	0.752961	0.752961	0	1	0	0	CorrectCommission	0.024095	0.518263	1
399.160431	0.795547	city	5	0	0.000000	0.768426	0	0	0	1	OmissionError	0.127619	0.486203	1
399.956299	0.796157	city	1	1	0.763952	0.763952	0	1	0	0	CorrectCommission	0.097671	0.454476	1
400.752075	0.795443	mountain	4	0	0.000000	0.708607	1	0	0	0	CorrectOmission	0.272828	0.425248	1
401.547760	0.795876	city	10	1	0.658389	0.658389	0	1	0	0	CorrectCommission	0.609002	0.400574	1
402.343719	0.796062	mountain	10	0	0.000000	0.669297	1	0	0	0	CorrectOmission	0.535979	0.382274	1
403.139648	0.795795	city	1	1	0.698305	0.698305	0	1	0	0	CorrectCommission	0.341792	0.371784	1
403.935303	0.795496	city	2	1	0.702385	0.702385	0	1	0	0	CorrectCommission	0.314477	0.369972	1
404.730957	0.795845	city	9	1	0.748819	0.748819	0	1	0	0	CorrectCommission	0.003637	0.377161	1
405.526764	0.795738	city	6	1	0.750664	0.750664	0	1	0	0	CorrectCommission	0.008714	0.393060	1
406.322540	0.795824	city	3	1	0.715443	0.715443	0	1	0	0	CorrectCommission	0.227064	0.416747	1
407.118500	0.796137	city	8	1	0.748952	0.748952	0	1	0	0	CorrectCommission	0.002742	0.446762	1
407.914307	0.795436	mountain	7	0	0.000000	0.748124	1	0	0	0	CorrectOmission	0.008289	0.481320	1
408.709930	0.795812	city	4	1	0.701805	0.701805	0	1	0	0	CorrectCommission	0.318364	0.518478	1
409.505737	0.795842	city	10	1	0.598843	0.598843	0	1	0	0	CorrectCommission	1.007627	0.556353	1
410.301575	0.795821	city	4	1	0.997631	0.997631	0	1	0	0	CorrectCommission	1.662001	0.593362	1
411.097412	0.795819	city	6	1	0.851653	0.851653	0	1	0	0	CorrectCommission	0.684775	0.628378	1
411.893188	0.795761	city	2	1	0.615516	0.615516	0	1	0	0	CorrectCommission	0.896014	0.660928	1
412.688995	0.795825	city	5	1	0.599733	0.599733	0	1	0	0	CorrectCommission	1.001666	0.691110	1
413.484802	0.795788	city	2	1	0.599598	0.599598	0	1	0	0	CorrectCommission	1.002573	0.719409	1
414.280579	0.795818	mountain	7	1	0.748250	0.748250	0	0	1	0	CommissionError	0.007443	0.746737	1
415.076538	0.796080	city	1	1	0.716304	0.716304	0	1	0	0	CorrectCommission	0.221303	0.774113	1
415.872314	0.795482	city	6	1	0.648326	0.648326	0	1	0	0	CorrectCommission	0.676367	0.802347	0
416.668121	0.796137	city	2	1	0.608290	0.608290	0	1	0	0	CorrectCommission	0.944386	0.831883	0
417.463959	0.795525	city	1	1	0.565620	0.565620	0	1	0	0	CorrectCommission	1.230030	0.862701	0
418.259613	0.795789	city	8	1	0.698546	0.698546	0	1	0	0	CorrectCommission	0.340182	0.894219	0
419.055420	0.795813	city	1	1	0.764681	0.764681	0	1	0	0	CorrectCommission	0.102551	0.925406	0
419.851227	0.795800	city	8	1	0.961639	0.961639	0	1	0	0	CorrectCommission	1.421060	0.954914	0
420.647003	0.795778	city	6	1	1.053389	1.053389	0	1	0	0	CorrectCommission	2.035266	0.981157	0
421.442841	0.795842	city	9	1	0.964671	0.964671	0	1	0	0	CorrectCommission	1.441354	1.002684	0
422.238647	0.795780	city	8	1	0.807583	0.807583	0	1	0	0	CorrectCommission	0.389753	1.018417	0
423.034424	0.795767	city	1	1	0.599340	0.599340	0	1	0	0	CorrectCommission	1.004295	1.027809	0
423.830353	0.796117	city	9	1	0.501735	0.501735	0	1	0	0	CorrectCommission	1.657702	1.030882	0
424.626312	0.795772	city	7	1	0.598519	0.598519	0	1	0	0	CorrectCommission	1.009791	1.028312	0
425.421967	0.795537	city	5	1	0.499897	0.499897	0	1	0	0	CorrectCommission	1.670001	1.021407	0
426.217621	0.795770	city	9	1	0.649271	0.649271	0	1	0	0	CorrectCommission	0.670042	1.011821	0
427.013428	0.795861	city	2	1	0.549465	0.549465	0	1	0	0	CorrectCommission	1.338180	1.001373	0
427.809387	0.796071	city	4	1	0.648861	0.648861	0	1	0	0	CorrectCommission	0.672784	0.991675	0
428.605164	0.795498	city	7	1	0.654973	0.654973	0	1	0	0	CorrectCommission	0.631873	0.983970	0
429.400848	0.795830	city	1	1	0.599093	0.599093	0	1	0	0	CorrectCommission	1.005949	0.978821	0
430.196655	0.795814	city	6	1	0.660598	0.660598	0	1	0	0	CorrectCommission	0.594214	0.975980	0
430.992462	0.795776	city	10	1	0.705188	0.705188	0	1	0	0	CorrectCommission	0.295716	0.974382	0
431.788239	0.795794	city	2	1	0.698713	0.698713	0	1	0	0	CorrectCommission	0.339060	0.972304	0
432.584015	0.795740	city	9	1	0.949656	0.949656	0	1	0	0	CorrectCommission	1.340839	0.967569	0
433.379791	0.795843	city	4	1	0.898579	0.898579	0	1	0	0	CorrectCommission	0.998910	0.957895	0
434.175598	0.795752	city	7	1	0.953855	0.953855	0	1	0	0	CorrectCommission	1.368948	0.941336	0
434.971558	0.796155	city	4	1	1.207149	1.207149	0	1	0	0	CorrectCommission	3.064584	0.916571	0
435.767365	0.795504	city	1	0	0.000000	0.937374	0	0	0	1	OmissionError	1.258617	0.883153	0
436.563171	0.796116	city	6	1	0.599547	0.599547	0	1	0	0	CorrectCommission	1.002911	0.841812	0
437.358978	0.795484	mountain	3	1	0.648686	0.648686	0	0	1	0	CommissionError	0.673960	0.794160	1
438.154633	0.795780	city	9	1	0.698618	0.698618	0	1	0	0	CorrectCommission	0.339699	0.742592	1
438.950439	0.795858	city	8	1	0.748946	0.748946	0	1	0	0	CorrectCommission	0.002781	0.689985	1
439.746338	0.795973	city	6	1	0.750571	0.750571	0	1	0	0	CorrectCommission	0.008098	0.639367	1
440.542114	0.795548	city	3	1	0.649068	0.649068	0	1	0	0	CorrectCommission	0.671404	0.593510	1
441.337982	0.796164	city	5	1	0.602091	0.602091	0	1	0	0	CorrectCommission	0.985882	0.554631	1
442.133820	0.795535	city	8	1	0.752426	0.752426	0	1	0	0	CorrectCommission	0.020511	0.524284	1
442.929443	0.795740	city	4	1	0.812827	0.812827	0	1	0	0	CorrectCommission	0.424857	0.503217	1
443.725250	0.795847	city	7	0	0.000000	0.741080	0	0	0	1	OmissionError	0.055445	0.491351	1
444.521027	0.795719	city	10	1	0.698912	0.698912	0	1	0	0	CorrectCommission	0.337729	0.487908	1
445.316803	0.795820	city	7	1	0.848052	0.848052	0	1	0	0	CorrectCommission	0.660665	0.491541	1
446.112793	0.796155	city	5	1	0.748307	0.748307	0	1	0	0	CorrectCommission	0.007061	0.500507	1
446.908630	0.795532	city	9	1	0.797531	0.797531	0	1	0	0	CorrectCommission	0.322459	0.512941	1
447.704285	0.795770	mountain	10	0	0.000000	0.676668	1	0	0	0	CorrectOmission	0.486637	0.527033	1
448.500061	0.795786	city	8	1	0.554284	0.554284	0	1	0	0	CorrectCommission	1.305919	0.541196	1
449.295868	0.795833	city	2	1	0.598943	0.598943	0	1	0	0	CorrectCommission	1.006956	0.554194	1
450.091675	0.795793	city	9	1	0.864469	0.864469	0	1	0	0	CorrectCommission	0.770564	0.565268	1
450.887604	0.796045	mountain	7	1	0.702739	0.702739	0	0	1	0	CommissionError	0.312108	0.574113	1
451.683533	0.795799	city	8	1	0.648373	0.648373	0	1	0	0	CorrectCommission	0.676055	0.580841	1
452.479218	0.795590	city	6	1	0.709191	0.709191	0	1	0	0	CorrectCommission	0.268915	0.585807	1
453.274902	0.795751	city	4	1	0.813550	0.813550	0	1	0	0	CorrectCommission	0.429699	0.589606	1
454.070831	0.796118	city	2	1	0.663354	0.663354	0	1	0	0	CorrectCommission	0.575763	0.592876	1
454.866608	0.795478	mountain	10	1	0.651185	0.651185	0	0	1	0	CommissionError	0.657231	0.596247	1
455.662292	0.795839	city	6	1	0.655621	0.655621	0	1	0	0	CorrectCommission	0.627533	0.600248	1
456.458099	0.795811	city	5	1	0.649897	0.649897	0	1	0	0	CorrectCommission	0.665851	0.605241	1
457.254028	0.796059	city	10	1	0.598985	0.598985	0	1	0	0	CorrectCommission	1.006674	0.611465	1
458.049988	0.795811	city	8	1	0.698875	0.698875	0	1	0	0	CorrectCommission	0.337977	0.618924	1
458.845612	0.795453	city	7	1	0.747764	0.747764	0	1	0	0	CorrectCommission	0.010695	0.627510	1
459.641418	0.796150	mountain	4	0	0.000000	0.648424	1	0	0	0	CorrectOmission	0.675715	0.637021	1
460.437378	0.795804	city	8	1	0.599165	0.599165	0	1	0	0	CorrectCommission	1.005467	0.647101	1
461.233032	0.795517	city	4	1	0.798301	0.798301	0	1	0	0	CorrectCommission	0.327616	0.657377	1
462.028717	0.795799	city	7	1	0.648563	0.648563	0	1	0	0	CorrectCommission	0.674781	0.667596	1
462.824493	0.795770	city	6	1	0.504034	0.504034	0	1	0	0	CorrectCommission	1.642312	0.677472	1
463.620270	0.795771	city	9	1	0.649624	0.649624	0	1	0	0	CorrectCommission	0.667683	0.686856	1
464.416229	0.796145	city	3	1	0.749144	0.749144	0	1	0	0	CorrectCommission	0.001458	0.695773	1
465.212189	0.795805	city	10	1	0.658442	0.658442	0	1	0	0	CorrectCommission	0.608651	0.704385	1
466.007843	0.795471	city	2	1	0.651824	0.651824	0	1	0	0	CorrectCommission	0.652954	0.712918	1
466.803467	0.795827	city	1	1	0.649123	0.649123	0	1	0	0	CorrectCommission	0.671033	0.721727	1
467.599304	0.795802	city	6	1	0.961741	0.961741	0	1	0	0	CorrectCommission	1.421741	0.731226	1
468.395081	0.795797	city	9	1	0.847871	0.847871	0	1	0	0	CorrectCommission	0.659454	0.741821	1
469.190887	0.795795	mountain	6	0	0.000000	0.704709	1	0	0	0	CorrectOmission	0.298921	0.753862	1
469.986694	0.795841	city	1	1	0.599619	0.599619	0	1	0	0	CorrectCommission	1.002430	0.767561	1
470.782532	0.795793	city	10	1	0.599964	0.599964	0	1	0	0	CorrectCommission	1.000123	0.782854	1
471.578308	0.795785	city	2	1	0.749376	0.749376	0	1	0	0	CorrectCommission	0.000095	0.799379	1
472.374115	0.795813	city	6	1	0.949823	0.949823	0	1	0	0	CorrectCommission	1.341957	0.816455	0
473.169891	0.795731	city	3	0	0.000000	0.783643	0	0	0	1	OmissionError	0.229491	0.833012	0
473.965698	0.795866	city	7	1	0.650006	0.650006	0	1	0	0	CorrectCommission	0.665124	0.847838	0
474.761658	0.796085	city	9	1	0.948081	0.948081	0	1	0	0	CorrectCommission	1.330293	0.859522	0
475.557465	0.795525	city	6	1	0.858629	0.858629	0	1	0	0	CorrectCommission	0.731470	0.866742	0
476.353119	0.795781	city	9	1	0.798064	0.798064	0	1	0	0	CorrectCommission	0.326031	0.868493	0
477.148926	0.795825	city	2	1	1.146065	1.146065	0	1	0	0	CorrectCommission	2.655668	0.864190	0
477.944733	0.795777	city	7	0	0.000000	0.890473	0	0	0	1	OmissionError	0.944646	0.853715	0
478.740479	0.795754	city	4	1	0.551513	0.551513	0	1	0	0	CorrectCommission	1.324469	0.837741	0
479.536285	0.795833	city	7	1	0.649410	0.649410	0	1	0	0	CorrectCommission	0.669111	0.817423	0
480.332123	0.795851	city	2	1	0.648687	0.648687	0	1	0	0	CorrectCommission	0.673953	0.794381	1
481.127960	0.795821	city	5	1	0.660639	0.660639	0	1	0	0	CorrectCommission	0.593939	0.770395	1
481.923737	0.795756	city	1	1	0.698700	0.698700	0	1	0	0	CorrectCommission	0.339147	0.747302	1
482.719666	0.796108	city	4	1	0.702420	0.702420	0	1	0	0	CorrectCommission	0.314246	0.726613	1
483.515625	0.795784	city	10	1	0.648344	0.648344	0	1	0	0	CorrectCommission	0.676245	0.709330	1
484.311310	0.795609	city	4	1	0.767933	0.767933	0	1	0	0	CorrectCommission	0.124320	0.695859	1
485.106964	0.795694	city	8	1	0.617470	0.617470	0	1	0	0	CorrectCommission	0.882927	0.685977	1
485.902740	0.795834	city	2	1	0.549363	0.549363	0	1	0	0	CorrectCommission	1.338861	0.678820	1
486.698578	0.795821	city	9	1	0.648807	0.648807	0	1	0	0	CorrectCommission	0.673151	0.673151	1
