onset	duration	trial_type	image_type	Press	ReactionTime	ReactionTime_Interpolated	CorrectOmission	CorrectCommission	CommissionError	OmissionError	response_type	nonsmoothVarianceTimeCourse	VarianceTimeCourse	In_the_Zone
8.421519	0.795831	city	3	1	0.898058	0.898058	0	1	0	0	CorrectCommission	0.651589	0.651589	1
9.217297	0.795723	city	1	1	0.657847	0.657847	0	1	0	0	CorrectCommission	1.128510	0.664140	1
10.013060	0.795804	city	3	1	0.898103	0.898103	0	1	0	0	CorrectCommission	0.651920	0.675962	1
10.808887	0.795851	city	6	1	0.915339	0.915339	0	1	0	0	CorrectCommission	0.779646	0.686415	1
11.604693	0.795762	city	1	1	0.652267	0.652267	0	1	0	0	CorrectCommission	1.169864	0.694944	1
12.400503	0.795859	mountain	7	0	0.000000	0.680390	1	0	0	0	CorrectOmission	0.961453	0.701101	1
13.196483	0.796100	city	9	1	0.809040	0.809040	0	1	0	0	CorrectCommission	0.008090	0.704558	1
13.992272	0.795480	mountain	1	1	0.847546	0.847546	0	0	1	0	CommissionError	0.277261	0.705150	1
14.787929	0.795833	city	5	1	0.648886	0.648886	0	1	0	0	CorrectCommission	1.194919	0.702772	1
15.583736	0.795781	city	6	1	0.947707	0.947707	0	1	0	0	CorrectCommission	1.019513	0.697412	1
16.379547	0.795841	city	4	1	0.754099	0.754099	0	1	0	0	CorrectCommission	0.415227	0.689263	1
17.175375	0.795813	city	5	1	0.713639	0.713639	0	1	0	0	CorrectCommission	0.715062	0.678641	1
17.971125	0.795688	city	6	1	1.015742	1.015742	0	1	0	0	CorrectCommission	1.523690	0.665941	1
18.766895	0.795853	city	4	1	0.748816	0.748816	0	1	0	0	CorrectCommission	0.454377	0.651683	1
19.562748	0.795853	city	6	1	0.847904	0.847904	0	1	0	0	CorrectCommission	0.279916	0.636598	1
20.358570	0.795789	city	3	1	0.749913	0.749913	0	1	0	0	CorrectCommission	0.446251	0.621458	1
21.154343	0.795756	city	4	1	0.760673	0.760673	0	1	0	0	CorrectCommission	0.366514	0.607086	1
21.950129	0.795817	city	7	1	0.717581	0.717581	0	1	0	0	CorrectCommission	0.685847	0.594399	1
22.745949	0.795826	mountain	5	0	0.000000	0.677473	1	0	0	0	CorrectOmission	0.983075	0.584298	1
23.541779	0.795833	city	10	1	0.700816	0.700816	0	1	0	0	CorrectCommission	0.810088	0.577604	1
24.337591	0.795794	city	6	1	0.848080	0.848080	0	1	0	0	CorrectCommission	0.281224	0.575024	1
25.133337	0.795696	city	9	1	0.799310	0.799310	0	1	0	0	CorrectCommission	0.080191	0.577090	1
25.929111	0.795853	city	1	1	0.803777	0.803777	0	1	0	0	CorrectCommission	0.047086	0.584055	1
26.724930	0.795782	mountain	3	0	0.000000	0.710489	1	0	0	0	CorrectOmission	0.738407	0.595772	1
27.520731	0.795823	city	1	1	0.648861	0.648861	0	1	0	0	CorrectCommission	1.195105	0.611744	1
28.316542	0.795796	city	4	1	0.748311	0.748311	0	1	0	0	CorrectCommission	0.458126	0.631110	1
29.112354	0.795829	city	5	1	0.748585	0.748585	0	1	0	0	CorrectCommission	0.456089	0.652740	1
29.908178	0.795819	city	9	1	0.808214	0.808214	0	1	0	0	CorrectCommission	0.014211	0.675286	1
30.703972	0.795771	city	2	1	0.847335	0.847335	0	1	0	0	CorrectCommission	0.275702	0.697437	1
31.499912	0.796109	city	6	1	0.648641	0.648641	0	1	0	0	CorrectCommission	1.196732	0.718003	1
32.295731	0.795525	city	5	1	0.598823	0.598823	0	1	0	0	CorrectCommission	1.565911	0.736107	1
33.091404	0.795823	city	3	1	0.947719	0.947719	0	1	0	0	CorrectCommission	1.019598	0.751423	1
33.887180	0.795730	city	9	1	0.698851	0.698851	0	1	0	0	CorrectCommission	0.824646	0.764284	1
34.682961	0.795830	city	2	0	0.000000	0.650165	0	0	0	1	OmissionError	1.185440	0.775611	0
35.661163	1.160576	mountain	6	0	0.000000	0.700978	1	0	0	0	CorrectOmission	0.808889	0.786760	0
36.639351	0.795797	city	4	1	0.750608	0.750608	0	1	0	0	CorrectCommission	0.441099	0.799367	0
37.435123	0.795750	city	8	1	0.698375	0.698375	0	1	0	0	CorrectCommission	0.828177	0.815039	0
38.230907	0.795814	city	6	1	0.714816	0.714816	0	1	0	0	CorrectCommission	0.706341	0.834934	0
39.026711	0.795797	city	5	1	0.798156	0.798156	0	1	0	0	CorrectCommission	0.088740	0.859578	0
39.822536	0.795852	city	7	1	0.848646	0.848646	0	1	0	0	CorrectCommission	0.285419	0.888596	0
40.618340	0.795758	city	9	1	0.898150	0.898150	0	1	0	0	CorrectCommission	0.652271	0.920652	0
41.414143	0.795844	city	5	1	0.997806	0.997806	0	1	0	0	CorrectCommission	1.390776	0.953496	0
42.209938	0.795750	city	3	1	0.847552	0.847552	0	1	0	0	CorrectCommission	0.277309	0.984241	0
43.005730	0.795831	city	1	1	0.649224	0.649224	0	1	0	0	CorrectCommission	1.192416	1.009787	0
43.801544	0.795798	city	7	1	0.599030	0.599030	0	1	0	0	CorrectCommission	1.564381	1.027083	0
44.597313	0.795741	city	3	1	0.555985	0.555985	0	1	0	0	CorrectCommission	1.883368	1.033663	0
45.393082	0.795794	city	7	1	0.553497	0.553497	0	1	0	0	CorrectCommission	1.901804	1.028004	0
46.188923	0.795894	city	9	1	0.499733	0.499733	0	1	0	0	CorrectCommission	2.300227	1.009768	0
46.984756	0.795771	city	2	1	0.649655	0.649655	0	1	0	0	CorrectCommission	1.189218	0.979813	0
47.780560	0.795833	city	8	1	0.750800	0.750800	0	1	0	0	CorrectCommission	0.439680	0.940167	0
48.576500	0.796045	city	3	1	0.748958	0.748958	0	1	0	0	CorrectCommission	0.453328	0.893701	0
49.372288	0.795533	city	8	1	0.748493	0.748493	0	1	0	0	CorrectCommission	0.456777	0.843733	0
50.167953	0.795804	mountain	1	0	0.000000	0.707495	1	0	0	0	CorrectOmission	0.760589	0.793638	0
50.963890	0.796068	city	6	1	0.699616	0.699616	0	1	0	0	CorrectCommission	0.818982	0.746528	1
51.759655	0.795463	city	2	1	0.798503	0.798503	0	1	0	0	CorrectCommission	0.086175	0.704903	1
52.555325	0.795870	city	5	1	0.700099	0.700099	0	1	0	0	CorrectCommission	0.815403	0.670503	1
53.351307	0.796097	city	8	1	0.810064	0.810064	0	1	0	0	CorrectCommission	0.000498	0.644168	1
54.147121	0.795531	city	3	1	0.698730	0.698730	0	1	0	0	CorrectCommission	0.825548	0.625995	1
54.942791	0.795814	city	1	1	0.802213	0.802213	0	1	0	0	CorrectCommission	0.058677	0.615345	1
55.738602	0.795801	city	3	1	0.947390	0.947390	0	1	0	0	CorrectCommission	1.017161	0.611206	1
56.534378	0.795751	city	5	1	0.847646	0.847646	0	1	0	0	CorrectCommission	0.278006	0.612285	1
57.330307	0.796109	city	2	1	0.897611	0.897611	0	1	0	0	CorrectCommission	0.648276	0.617402	1
58.126099	0.795473	city	5	1	0.648543	0.648543	0	1	0	0	CorrectCommission	1.197457	0.625548	1
58.921715	0.795766	city	7	1	0.760256	0.760256	0	1	0	0	CorrectCommission	0.369605	0.636062	1
59.717533	0.795868	city	10	1	0.748193	0.748193	0	1	0	0	CorrectCommission	0.459000	0.648736	1
60.513390	0.795840	city	1	1	0.648886	0.648886	0	1	0	0	CorrectCommission	1.194916	0.663648	1
61.309322	0.796028	mountain	2	0	0.000000	0.673851	1	0	0	0	CorrectOmission	1.009911	0.681047	1
62.105099	0.795527	mountain	8	0	0.000000	0.748494	1	0	0	0	CorrectOmission	0.456766	0.701272	1
62.900738	0.795748	city	3	1	0.798221	0.798221	0	1	0	0	CorrectCommission	0.088262	0.724504	1
63.696514	0.795808	city	1	1	0.748438	0.748438	0	1	0	0	CorrectCommission	0.457180	0.750560	1
64.492325	0.795806	city	10	1	0.899347	0.899347	0	1	0	0	CorrectCommission	0.661141	0.778853	0
65.288124	0.795802	mountain	2	0	0.000000	0.788885	1	0	0	0	CorrectOmission	0.157443	0.808368	0
66.083931	0.795800	city	9	1	0.648527	0.648527	0	1	0	0	CorrectCommission	1.197577	0.837719	0
66.879768	0.795879	city	7	1	0.709747	0.709747	0	1	0	0	CorrectCommission	0.743902	0.865300	0
67.675560	0.795712	city	6	1	0.650619	0.650619	0	1	0	0	CorrectCommission	1.182079	0.889508	0
68.471321	0.795802	city	8	1	0.599308	0.599308	0	1	0	0	CorrectCommission	1.562320	0.908970	0
69.267120	0.795804	mountain	10	1	0.600165	0.600165	0	0	1	0	CommissionError	1.555965	0.922774	0
70.062965	0.795875	city	8	1	0.649685	0.649685	0	1	0	0	CorrectCommission	1.188995	0.930570	0
70.858788	0.795770	city	3	1	0.610241	0.610241	0	1	0	0	CorrectCommission	1.481296	0.932643	0
71.654594	0.795850	city	4	1	0.848585	0.848585	0	1	0	0	CorrectCommission	0.284967	0.929789	0
72.450378	0.795713	city	5	1	0.713865	0.713865	0	1	0	0	CorrectCommission	0.713388	0.923312	0
73.246178	0.795891	city	1	1	0.850788	0.850788	0	1	0	0	CorrectCommission	0.301291	0.914671	0
74.042000	0.795759	city	7	1	0.996796	0.996796	0	1	0	0	CorrectCommission	1.383286	0.905404	0
74.837936	0.796112	city	9	1	0.698314	0.698314	0	1	0	0	CorrectCommission	0.828629	0.896817	0
75.633713	0.795439	mountain	4	0	0.000000	0.698271	1	0	0	0	CorrectOmission	0.828947	0.889957	0
76.429375	0.795885	city	9	1	0.748049	0.748049	0	1	0	0	CorrectCommission	0.460066	0.885458	0
77.225204	0.795771	city	3	1	0.599029	0.599029	0	1	0	0	CorrectCommission	1.564384	0.883533	0
78.020966	0.795745	city	6	1	0.698595	0.698595	0	1	0	0	CorrectCommission	0.826546	0.883948	0
78.816742	0.795816	city	7	1	0.798433	0.798433	0	1	0	0	CorrectCommission	0.086688	0.886125	0
79.612595	0.795889	city	5	1	0.699004	0.699004	0	1	0	0	CorrectCommission	0.823518	0.889258	0
80.408424	0.795774	city	9	1	0.962785	0.962785	0	1	0	0	CorrectCommission	1.131249	0.892360	0
81.204185	0.795741	city	8	1	0.897537	0.897537	0	1	0	0	CorrectCommission	0.647722	0.894492	0
81.999992	0.795880	city	3	1	0.553258	0.553258	0	1	0	0	CorrectCommission	1.903576	0.894817	0
82.795807	0.795746	city	2	1	0.748261	0.748261	0	1	0	0	CorrectCommission	0.458497	0.892730	0
83.591599	0.795832	city	8	1	0.961650	0.961650	0	1	0	0	CorrectCommission	1.122837	0.887962	0
84.387428	0.795824	city	2	1	0.649275	0.649275	0	1	0	0	CorrectCommission	1.192032	0.880511	0
85.183197	0.795717	city	6	1	0.648775	0.648775	0	1	0	0	CorrectCommission	1.195737	0.870673	0
85.978996	0.795886	city	5	1	0.761925	0.761925	0	1	0	0	CorrectCommission	0.357236	0.858971	0
86.774796	0.795713	city	6	1	0.748646	0.748646	0	1	0	0	CorrectCommission	0.455640	0.846096	0
87.570580	0.795856	city	10	1	0.699585	0.699585	0	1	0	0	CorrectCommission	0.819206	0.832796	0
88.366432	0.795838	mountain	1	1	0.648592	0.648592	0	0	1	0	CommissionError	1.197095	0.819770	0
89.162384	0.796075	mountain	7	0	0.000000	0.672118	1	0	0	0	CorrectOmission	1.022752	0.807635	0
89.958176	0.795500	city	1	1	0.758834	0.758834	0	1	0	0	CorrectCommission	0.380139	0.796876	0
90.753815	0.795778	city	2	1	0.897410	0.897410	0	1	0	0	CorrectCommission	0.646786	0.787887	0
91.549614	0.795819	city	3	1	0.749076	0.749076	0	1	0	0	CorrectCommission	0.452457	0.780814	0
92.345390	0.795745	city	4	1	0.898281	0.898281	0	1	0	0	CorrectCommission	0.653235	0.775693	0
93.141205	0.795874	city	2	1	1.098276	1.098276	0	1	0	0	CorrectCommission	2.135316	0.772418	1
93.937035	0.795792	city	4	1	0.847801	0.847801	0	1	0	0	CorrectCommission	0.279154	0.770766	1
94.732841	0.795822	city	9	1	0.848117	0.848117	0	1	0	0	CorrectCommission	0.281496	0.770539	1
95.528664	0.795816	city	6	1	0.797816	0.797816	0	1	0	0	CorrectCommission	0.091261	0.771408	1
96.324478	0.795816	city	1	1	0.599051	0.599051	0	1	0	0	CorrectCommission	1.564224	0.773102	0
97.120415	0.796058	city	4	1	0.847735	0.847735	0	1	0	0	CorrectCommission	0.278668	0.775251	0
97.916176	0.795461	city	9	1	0.997188	0.997188	0	1	0	0	CorrectCommission	1.386197	0.777636	0
98.711823	0.795841	city	4	1	0.700137	0.700137	0	1	0	0	CorrectCommission	0.815117	0.780038	0
99.507797	0.796108	city	6	1	0.702030	0.702030	0	1	0	0	CorrectCommission	0.801091	0.782333	0
100.303574	0.795438	city	1	1	0.897317	0.897317	0	1	0	0	CorrectCommission	0.646098	0.784519	0
101.099213	0.795851	city	3	1	0.710760	0.710760	0	1	0	0	CorrectCommission	0.736398	0.786662	0
101.895050	0.795811	city	5	1	0.755054	0.755054	0	1	0	0	CorrectCommission	0.408155	0.788862	0
102.690826	0.795742	city	3	1	0.655848	0.655848	0	1	0	0	CorrectCommission	1.143327	0.791260	0
103.486778	0.796171	city	1	1	0.648899	0.648899	0	1	0	0	CorrectCommission	1.194819	0.793904	0
104.282768	0.795800	city	2	1	0.848140	0.848140	0	1	0	0	CorrectCommission	0.281668	0.796800	0
105.078384	0.795444	city	8	0	0.000000	0.740016	0	0	0	1	OmissionError	0.519595	0.799853	0
105.874023	0.795830	city	5	1	0.598872	0.598872	0	1	0	0	CorrectCommission	1.565547	0.802805	0
106.669998	0.796123	mountain	1	0	0.000000	0.699057	1	0	0	0	CorrectOmission	0.823125	0.805250	0
107.465828	0.795530	city	2	1	0.847204	0.847204	0	1	0	0	CorrectCommission	0.274728	0.806763	0
108.261452	0.795725	city	4	1	0.849949	0.849949	0	1	0	0	CorrectCommission	0.295069	0.806907	0
109.057236	0.795840	mountain	9	0	0.000000	0.700193	1	0	0	0	CorrectOmission	0.814701	0.805334	0
109.853027	0.795747	city	7	1	0.599154	0.599154	0	1	0	0	CorrectCommission	1.563458	0.801919	0
110.648987	0.796170	city	5	1	0.748047	0.748047	0	1	0	0	CorrectCommission	0.460078	0.796753	0
111.444817	0.795485	city	2	1	1.048584	1.048584	0	1	0	0	CorrectCommission	1.767066	0.790377	0
112.240448	0.795772	city	8	1	0.704936	0.704936	0	1	0	0	CorrectCommission	0.779559	0.783560	0
113.036270	0.795879	city	2	1	0.951435	0.951435	0	1	0	0	CorrectCommission	1.047139	0.777422	0
113.832237	0.796052	mountain	6	0	0.000000	0.907401	1	0	0	0	CorrectOmission	0.720821	0.773080	0
114.627998	0.795479	city	2	1	0.797875	0.797875	0	1	0	0	CorrectCommission	0.090824	0.771579	1
115.423645	0.795808	city	4	1	0.847901	0.847901	0	1	0	0	CorrectCommission	0.279893	0.773650	0
116.219482	0.795862	city	10	1	0.750637	0.750637	0	1	0	0	CorrectCommission	0.440886	0.779548	0
117.015297	0.795769	city	7	1	0.848168	0.848168	0	1	0	0	CorrectCommission	0.281872	0.788980	0
117.811050	0.795749	city	9	1	0.649027	0.649027	0	1	0	0	CorrectCommission	1.193873	0.801124	0
118.606865	0.795865	city	2	1	0.851473	0.851473	0	1	0	0	CorrectCommission	0.306369	0.814685	0
119.402687	0.795787	city	10	1	0.648652	0.648652	0	1	0	0	CorrectCommission	1.196648	0.828205	0
120.198479	0.795788	city	3	1	0.649004	0.649004	0	1	0	0	CorrectCommission	1.194046	0.840096	0
120.994255	0.795775	mountain	6	0	0.000000	0.580133	1	0	0	0	CorrectOmission	1.704415	0.848991	0
121.790062	0.795841	city	1	1	0.599407	0.599407	0	1	0	0	CorrectCommission	1.561584	0.853871	0
122.586037	0.796100	city	2	1	0.864192	0.864192	0	1	0	0	CorrectCommission	0.400618	0.854225	0
123.381828	0.795492	city	1	1	0.848240	0.848240	0	1	0	0	CorrectCommission	0.282410	0.850055	0
124.177475	0.795802	city	4	1	0.898270	0.898270	0	1	0	0	CorrectCommission	0.653156	0.841807	0
124.973251	0.795751	city	2	1	1.003690	1.003690	0	1	0	0	CorrectCommission	1.434377	0.830301	0
125.769043	0.795818	city	10	1	0.698438	0.698438	0	1	0	0	CorrectCommission	0.827708	0.816548	0
126.564880	0.795858	city	7	1	0.756786	0.756786	0	1	0	0	CorrectCommission	0.395319	0.801697	0
127.360680	0.795752	city	6	1	0.748394	0.748394	0	1	0	0	CorrectCommission	0.457505	0.786763	0
128.156494	0.795880	mountain	6	0	0.000000	0.634427	1	0	0	0	CorrectOmission	1.302067	0.772614	0
128.952286	0.795703	city	3	1	0.605023	0.605023	0	1	0	0	CorrectCommission	1.519968	0.759728	1
129.748062	0.795844	city	8	1	0.850321	0.850321	0	1	0	0	CorrectCommission	0.297827	0.748268	1
130.543884	0.795798	city	5	1	0.847856	0.847856	0	1	0	0	CorrectCommission	0.279560	0.738071	1
131.339676	0.795796	city	3	1	0.850491	0.850491	0	1	0	0	CorrectCommission	0.299088	0.728616	1
132.135513	0.795865	city	9	1	0.755438	0.755438	0	1	0	0	CorrectCommission	0.405305	0.719126	1
132.931335	0.795782	city	10	1	0.864787	0.864787	0	1	0	0	CorrectCommission	0.405031	0.708760	1
133.727127	0.795793	city	7	1	0.947139	0.947139	0	1	0	0	CorrectCommission	1.015304	0.696714	1
134.522903	0.795766	city	3	1	0.599245	0.599245	0	1	0	0	CorrectCommission	1.562787	0.682451	1
135.318863	0.796140	city	1	1	0.648779	0.648779	0	1	0	0	CorrectCommission	1.195709	0.665842	1
136.114639	0.795439	city	3	1	0.648593	0.648593	0	1	0	0	CorrectCommission	1.197089	0.647295	1
136.910294	0.795855	city	5	1	0.764847	0.764847	0	1	0	0	CorrectCommission	0.335583	0.627694	1
137.706146	0.795848	city	10	1	0.747989	0.747989	0	1	0	0	CorrectCommission	0.460507	0.608368	1
138.501938	0.795746	city	7	1	0.848181	0.848181	0	1	0	0	CorrectCommission	0.281972	0.590803	1
139.297729	0.795828	city	4	1	0.798007	0.798007	0	1	0	0	CorrectCommission	0.089849	0.576535	1
140.093552	0.795828	city	3	1	0.748735	0.748735	0	1	0	0	CorrectCommission	0.454983	0.566899	1
140.889328	0.795711	city	8	1	0.811676	0.811676	0	1	0	0	CorrectCommission	0.011447	0.562843	1
141.685257	0.796160	city	7	1	0.698486	0.698486	0	1	0	0	CorrectCommission	0.827354	0.564864	1
142.481232	0.795782	mountain	5	0	0.000000	0.834521	1	0	0	0	CorrectOmission	0.180744	0.572835	1
143.276871	0.795494	city	4	1	0.946915	0.946915	0	1	0	0	CorrectCommission	1.013646	0.586213	1
144.072510	0.795788	city	9	1	0.762802	0.762802	0	1	0	0	CorrectCommission	0.350738	0.603997	1
144.868469	0.796143	city	8	1	0.798554	0.798554	0	1	0	0	CorrectCommission	0.085796	0.625001	1
145.664307	0.795531	city	9	1	0.897372	0.897372	0	1	0	0	CorrectCommission	0.646504	0.647888	1
146.459976	0.795802	city	1	1	0.605619	0.605619	0	1	0	0	CorrectCommission	1.515552	0.671339	1
147.255753	0.795750	city	2	1	0.906487	0.906487	0	1	0	0	CorrectCommission	0.714050	0.694189	1
148.051514	0.795769	city	8	1	0.599470	0.599470	0	1	0	0	CorrectCommission	1.561119	0.715534	1
148.847321	0.795841	city	1	1	0.798516	0.798516	0	1	0	0	CorrectCommission	0.086074	0.734593	1
149.643127	0.795766	city	3	1	0.799052	0.799052	0	1	0	0	CorrectCommission	0.082103	0.750823	1
150.438904	0.795785	city	6	1	0.958210	0.958210	0	1	0	0	CorrectCommission	1.097347	0.763737	1
151.234695	0.795804	city	9	1	0.750469	0.750469	0	1	0	0	CorrectCommission	0.442127	0.772824	0
152.030518	0.795849	city	1	1	0.648999	0.648999	0	1	0	0	CorrectCommission	1.194084	0.777616	0
152.826324	0.795760	city	8	1	0.997121	0.997121	0	1	0	0	CorrectCommission	1.385695	0.777616	0
153.622147	0.795880	city	6	1	0.759347	0.759347	0	1	0	0	CorrectCommission	0.376343	0.772428	0
154.417953	0.795731	city	2	1	0.655543	0.655543	0	1	0	0	CorrectCommission	1.145584	0.761795	1
155.213745	0.795858	city	8	1	0.847995	0.847995	0	1	0	0	CorrectCommission	0.280591	0.745716	1
156.009567	0.795784	city	6	1	0.700737	0.700737	0	1	0	0	CorrectCommission	0.810673	0.724531	1
156.805359	0.795792	city	9	1	0.606160	0.606160	0	1	0	0	CorrectCommission	1.511542	0.698993	1
157.601151	0.795794	city	8	1	0.698271	0.698271	0	1	0	0	CorrectCommission	0.828947	0.670332	1
158.396942	0.795803	mountain	7	1	0.704510	0.704510	0	0	1	0	CommissionError	0.782711	0.640296	1
159.192749	0.795804	city	5	1	0.749102	0.749102	0	1	0	0	CorrectCommission	0.452264	0.610940	1
159.988571	0.795836	city	7	1	0.897720	0.897720	0	1	0	0	CorrectCommission	0.649078	0.584560	1
160.784363	0.795757	city	1	1	0.802388	0.802388	0	1	0	0	CorrectCommission	0.057385	0.563417	1
161.580170	0.795848	city	8	1	0.855356	0.855356	0	1	0	0	CorrectCommission	0.335139	0.549584	1
162.375961	0.795755	city	6	1	0.798764	0.798764	0	1	0	0	CorrectCommission	0.084235	0.544598	1
163.171783	0.795865	city	2	1	0.866122	0.866122	0	1	0	0	CorrectCommission	0.414923	0.549420	1
163.967728	0.796037	city	3	1	0.848175	0.848175	0	1	0	0	CorrectCommission	0.281927	0.564125	1
164.763474	0.795459	city	8	1	0.847898	0.847898	0	1	0	0	CorrectCommission	0.279870	0.588047	1
165.559158	0.795902	city	4	1	0.906700	0.906700	0	1	0	0	CorrectCommission	0.715631	0.619717	1
166.354980	0.795736	city	1	1	0.848448	0.848448	0	1	0	0	CorrectCommission	0.283952	0.657081	1
167.150772	0.795867	city	8	1	0.798241	0.798241	0	1	0	0	CorrectCommission	0.088111	0.697738	1
167.946609	0.795790	city	10	1	0.899603	0.899603	0	1	0	0	CorrectCommission	0.663035	0.739104	1
168.742371	0.795726	city	1	1	1.096555	1.096555	0	1	0	0	CorrectCommission	2.122563	0.778752	0
169.538147	0.795848	city	5	0	0.000000	0.756304	0	0	0	1	OmissionError	0.398887	0.814576	0
170.333969	0.795785	city	4	1	0.449885	0.449885	0	1	0	0	CorrectCommission	2.669624	0.845087	0
171.129791	0.795864	mountain	7	1	0.748333	0.748333	0	0	1	0	CommissionError	0.457957	0.869278	0
171.925629	0.795796	city	3	1	0.859594	0.859594	0	1	0	0	CorrectCommission	0.366549	0.886867	0
172.721390	0.795753	city	1	1	0.648614	0.648614	0	1	0	0	CorrectCommission	1.196935	0.898013	0
173.517334	0.796131	city	4	1	0.947332	0.947332	0	1	0	0	CorrectCommission	1.016733	0.903171	0
174.313171	0.795526	city	6	1	0.897207	0.897207	0	1	0	0	CorrectCommission	0.645278	0.902984	0
175.108810	0.795757	city	9	1	0.848219	0.848219	0	1	0	0	CorrectCommission	0.282250	0.898132	0
175.904602	0.795841	mountain	2	0	0.000000	0.684364	1	0	0	0	CorrectOmission	0.932005	0.889207	0
176.700378	0.795710	city	9	1	0.614601	0.614601	0	1	0	0	CorrectCommission	1.448989	0.876618	0
177.496155	0.795833	city	7	1	0.847888	0.847888	0	1	0	0	CorrectCommission	0.279797	0.860621	0
178.291977	0.795810	city	8	1	1.146634	1.146634	0	1	0	0	CorrectCommission	2.493675	0.841431	0
179.087799	0.795822	city	4	1	0.897662	0.897662	0	1	0	0	CorrectCommission	0.648651	0.819073	0
179.883575	0.795749	city	5	1	0.703345	0.703345	0	1	0	0	CorrectCommission	0.791349	0.793703	0
180.679352	0.795812	city	1	1	0.848644	0.848644	0	1	0	0	CorrectCommission	0.285398	0.765440	1
181.475189	0.795840	city	6	1	0.847661	0.847661	0	1	0	0	CorrectCommission	0.278114	0.734516	1
182.270996	0.795793	city	4	1	0.897645	0.897645	0	1	0	0	CorrectCommission	0.648522	0.701281	1
183.066803	0.795823	city	3	1	0.766596	0.766596	0	1	0	0	CorrectCommission	0.322622	0.666193	1
183.862625	0.795801	mountain	9	0	0.000000	0.644608	1	0	0	0	CorrectOmission	1.226622	0.629942	1
184.658386	0.795740	city	3	1	0.599410	0.599410	0	1	0	0	CorrectCommission	1.561561	0.593392	1
185.454178	0.795835	city	2	1	0.698733	0.698733	0	1	0	0	CorrectCommission	0.825524	0.557709	1
186.250031	0.795870	city	9	1	0.798052	0.798052	0	1	0	0	CorrectCommission	0.089517	0.524183	1
187.045837	0.795758	mountain	10	0	0.000000	0.835155	1	0	0	0	CorrectOmission	0.185442	0.494312	1
187.841782	0.796110	mountain	9	0	0.000000	0.832736	1	0	0	0	CorrectOmission	0.167511	0.469501	1
188.637604	0.795538	city	5	1	0.813484	0.813484	0	1	0	0	CorrectCommission	0.024847	0.451116	1
189.433243	0.795733	city	3	1	0.800092	0.800092	0	1	0	0	CorrectCommission	0.074394	0.440287	1
190.228989	0.795782	city	8	1	0.849553	0.849553	0	1	0	0	CorrectCommission	0.292138	0.437819	1
191.024796	0.795833	city	4	1	0.897787	0.897787	0	1	0	0	CorrectCommission	0.649581	0.444089	1
191.820770	0.796112	city	3	1	0.864213	0.864213	0	1	0	0	CorrectCommission	0.400777	0.459066	1
192.616562	0.795450	mountain	9	0	0.000000	0.867618	1	0	0	0	CorrectOmission	0.426012	0.482275	1
193.412216	0.795854	city	7	1	0.849200	0.849200	0	1	0	0	CorrectCommission	0.289521	0.512773	1
194.208038	0.795809	city	1	1	0.750155	0.750155	0	1	0	0	CorrectCommission	0.444459	0.549161	1
195.003845	0.795808	city	10	1	0.797786	0.797786	0	1	0	0	CorrectCommission	0.091487	0.589704	1
195.799622	0.795731	mountain	7	0	0.000000	0.872110	1	0	0	0	CorrectOmission	0.459297	0.632291	1
196.595383	0.795804	city	6	1	0.947114	0.947114	0	1	0	0	CorrectCommission	1.015118	0.674606	1
197.391190	0.795817	city	7	1	0.996784	0.996784	0	1	0	0	CorrectCommission	1.383204	0.714212	1
198.187012	0.795810	city	9	1	0.898359	0.898359	0	1	0	0	CorrectCommission	0.653814	0.748714	1
198.982849	0.795867	city	6	1	0.859682	0.859682	0	1	0	0	CorrectCommission	0.367200	0.775932	0
199.778687	0.795796	city	8	1	0.761670	0.761670	0	1	0	0	CorrectCommission	0.359124	0.794011	0
200.574448	0.795728	city	9	1	1.145877	1.145877	0	1	0	0	CorrectCommission	2.488061	0.801606	0
201.370239	0.795850	city	5	0	0.000000	0.923850	0	0	0	1	OmissionError	0.842720	0.797897	0
202.166046	0.795783	city	1	1	0.667227	0.667227	0	1	0	0	CorrectCommission	1.058998	0.782902	0
202.961853	0.795825	city	5	1	0.947645	0.947645	0	1	0	0	CorrectCommission	1.019053	0.757385	1
203.757645	0.795749	city	9	1	0.946951	0.946951	0	1	0	0	CorrectCommission	1.013912	0.722890	1
204.553436	0.795847	city	3	1	0.864026	0.864026	0	1	0	0	CorrectCommission	0.399394	0.681589	1
205.349258	0.795799	city	9	1	0.963742	0.963742	0	1	0	0	CorrectCommission	1.138341	0.636283	1
206.145065	0.795800	city	1	1	0.798471	0.798471	0	1	0	0	CorrectCommission	0.086413	0.590080	1
206.940857	0.795799	city	10	1	0.910003	0.910003	0	1	0	0	CorrectCommission	0.740103	0.546333	1
207.736633	0.795741	city	3	1	0.798107	0.798107	0	1	0	0	CorrectCommission	0.089106	0.508312	1
208.532578	0.796167	mountain	9	0	0.000000	0.777413	1	0	0	0	CorrectOmission	0.242464	0.479008	1
209.328384	0.795441	mountain	8	0	0.000000	0.807491	1	0	0	0	CorrectOmission	0.019564	0.460865	1
210.124023	0.795832	mountain	7	0	0.000000	0.847915	1	0	0	0	CorrectOmission	0.279998	0.455622	1
210.919876	0.795870	city	6	1	0.858256	0.858256	0	1	0	0	CorrectCommission	0.356630	0.464129	1
211.715668	0.795706	city	1	1	0.798086	0.798086	0	1	0	0	CorrectCommission	0.089263	0.486238	1
212.511429	0.795829	mountain	7	1	0.848601	0.848601	0	0	1	0	CommissionError	0.285082	0.520808	1
213.307236	0.795784	city	3	0	0.000000	0.841898	0	0	0	1	OmissionError	0.235410	0.565748	1
214.103043	0.795837	mountain	10	0	0.000000	0.800956	1	0	0	0	CorrectOmission	0.067996	0.618073	1
214.898880	0.795821	city	9	1	0.748752	0.748752	0	1	0	0	CorrectCommission	0.454857	0.674251	1
215.694702	0.795827	city	8	1	0.708264	0.708264	0	1	0	0	CorrectCommission	0.754890	0.730417	1
216.490646	0.796064	city	10	1	0.698532	0.698532	0	1	0	0	CorrectCommission	0.827010	0.782806	0
217.286407	0.795467	city	2	1	0.946779	0.946779	0	1	0	0	CorrectCommission	1.012638	0.828181	0
218.082047	0.795794	city	10	0	0.000000	1.137396	0	0	0	1	OmissionError	2.425213	0.864077	0
218.877853	0.795833	city	7	1	1.145919	1.145919	0	1	0	0	CorrectCommission	2.488372	0.889050	0
219.673676	0.795810	city	9	1	0.847885	0.847885	0	1	0	0	CorrectCommission	0.279776	0.902969	0
220.469482	0.795787	city	1	1	0.649205	0.649205	0	1	0	0	CorrectCommission	1.192550	0.906964	0
221.265259	0.795766	city	9	1	0.847851	0.847851	0	1	0	0	CorrectCommission	0.279522	0.903127	0
222.061050	0.795833	city	3	1	0.758058	0.758058	0	1	0	0	CorrectCommission	0.385891	0.894505	0
222.856857	0.795783	city	4	1	1.046747	1.046747	0	1	0	0	CorrectCommission	1.753457	0.884521	0
223.652695	0.795871	city	3	1	0.947123	0.947123	0	1	0	0	CorrectCommission	1.015182	0.876705	0
224.448502	0.795754	city	1	1	0.847537	0.847537	0	1	0	0	CorrectCommission	0.277197	0.874391	0
225.244308	0.795849	city	3	1	0.848356	0.848356	0	1	0	0	CorrectCommission	0.283264	0.880371	0
226.040100	0.795752	city	10	1	0.748476	0.748476	0	1	0	0	CorrectCommission	0.456901	0.896609	0
226.835861	0.795766	mountain	8	0	0.000000	0.773211	1	0	0	0	CorrectOmission	0.273600	0.924075	0
227.631638	0.795792	city	10	1	0.897633	0.897633	0	1	0	0	CorrectCommission	0.648438	0.962701	0
228.427444	0.795812	city	5	1	1.096815	1.096815	0	1	0	0	CorrectCommission	2.124485	1.011333	0
229.223282	0.795880	city	6	0	0.000000	0.839646	0	0	0	1	OmissionError	0.218720	1.067795	0
230.019104	0.795760	city	3	1	0.599163	0.599163	0	1	0	0	CorrectCommission	1.563390	1.129203	0
230.814880	0.795793	city	1	1	0.848404	0.848404	0	1	0	0	CorrectCommission	0.283619	1.191971	0
231.610672	0.795781	city	6	1	0.897628	0.897628	0	1	0	0	CorrectCommission	0.648397	1.252280	0
232.406494	0.795853	mountain	9	0	0.000000	1.109679	1	0	0	0	CorrectOmission	2.219819	1.306251	0
233.202286	0.795752	city	6	1	1.198524	1.198524	0	1	0	0	CorrectCommission	2.878206	1.350267	0
233.998077	0.795832	city	5	0	0.000000	0.878126	0	0	0	1	OmissionError	0.503880	1.381317	0
234.793900	0.795798	city	8	1	0.549180	0.549180	0	1	0	0	CorrectCommission	1.933797	1.397365	0
235.589859	0.796125	city	1	1	0.612378	0.612378	0	1	0	0	CorrectCommission	1.465463	1.397233	0
236.385681	0.795534	city	5	1	1.046204	1.046204	0	1	0	0	CorrectCommission	1.749433	1.380912	0
237.181320	0.795732	city	8	1	1.295781	1.295781	0	1	0	0	CorrectCommission	3.598937	1.349508	0
237.977127	0.795872	city	9	1	1.056375	1.056375	0	1	0	0	CorrectCommission	1.824803	1.304903	0
238.772949	0.795771	city	5	1	0.698254	0.698254	0	1	0	0	CorrectCommission	0.829072	1.249807	0
239.568848	0.796047	city	4	1	0.847531	0.847531	0	1	0	0	CorrectCommission	0.277151	1.187238	0
240.364670	0.795585	mountain	1	0	0.000000	0.790057	1	0	0	0	CorrectOmission	0.148759	1.120181	0
241.160339	0.795749	city	4	1	0.699311	0.699311	0	1	0	0	CorrectCommission	0.821242	1.051404	0
241.956116	0.795803	city	8	1	0.748768	0.748768	0	1	0	0	CorrectCommission	0.454736	0.983220	0
242.752075	0.796120	city	9	1	0.996836	0.996836	0	1	0	0	CorrectCommission	1.383590	0.917475	0
243.547867	0.795474	city	5	1	0.600283	0.600283	0	1	0	0	CorrectCommission	1.555090	0.855497	0
244.343536	0.795842	city	4	1	0.947356	0.947356	0	1	0	0	CorrectCommission	1.016912	0.798235	0
245.139359	0.795823	mountain	10	1	0.710387	0.710387	0	0	1	0	CommissionError	0.739163	0.746396	1
245.935150	0.795768	city	7	1	0.715731	0.715731	0	1	0	0	CorrectCommission	0.699557	0.700437	1
246.730927	0.795754	mountain	8	0	0.000000	0.813652	1	0	0	0	CorrectOmission	0.026090	0.660742	1
247.526703	0.795809	city	9	1	0.859982	0.859982	0	1	0	0	CorrectCommission	0.369423	0.627500	1
248.322495	0.795785	city	8	1	0.710555	0.710555	0	1	0	0	CorrectCommission	0.737913	0.600747	1
249.118332	0.795883	city	4	1	0.800186	0.800186	0	1	0	0	CorrectCommission	0.073700	0.580290	1
249.914185	0.795820	mountain	7	0	0.000000	0.860105	1	0	0	0	CorrectOmission	0.370337	0.565683	1
250.709961	0.795734	city	4	1	0.849552	0.849552	0	1	0	0	CorrectCommission	0.292131	0.556144	1
251.505707	0.795767	city	2	0	0.000000	0.727765	0	0	0	1	OmissionError	0.610383	0.550754	1
252.301498	0.795806	city	8	1	0.661050	0.661050	0	1	0	0	CorrectCommission	1.104777	0.548352	1
253.097321	0.795851	city	10	1	0.815715	0.815715	0	1	0	0	CorrectCommission	0.041377	0.547720	1
253.893158	0.795803	city	6	1	0.911738	0.911738	0	1	0	0	CorrectCommission	0.752961	0.547778	1
254.688934	0.795768	city	2	1	0.915785	0.915785	0	1	0	0	CorrectCommission	0.782955	0.547455	1
255.484756	0.795858	city	6	1	0.748111	0.748111	0	1	0	0	CorrectCommission	0.459605	0.546023	1
256.280548	0.795737	city	1	1	0.660639	0.660639	0	1	0	0	CorrectCommission	1.107825	0.543141	1
257.076324	0.795823	city	9	1	0.748697	0.748697	0	1	0	0	CorrectCommission	0.455265	0.538822	1
257.872162	0.795842	city	8	1	0.848314	0.848314	0	1	0	0	CorrectCommission	0.282957	0.533445	1
258.667969	0.795748	city	5	1	0.711119	0.711119	0	1	0	0	CorrectCommission	0.733735	0.527727	1
259.463745	0.795830	city	7	1	0.801875	0.801875	0	1	0	0	CorrectCommission	0.061187	0.522631	1
260.259552	0.795803	city	10	1	0.748299	0.748299	0	1	0	0	CorrectCommission	0.458210	0.519361	1
261.055389	0.795840	city	5	1	0.748063	0.748063	0	1	0	0	CorrectCommission	0.459957	0.519180	1
261.851166	0.795726	city	8	1	0.947389	0.947389	0	1	0	0	CorrectCommission	1.017154	0.523372	1
262.646973	0.795875	city	2	1	0.799689	0.799689	0	1	0	0	CorrectCommission	0.077386	0.533052	1
263.442932	0.796070	city	3	1	0.897273	0.897273	0	1	0	0	CorrectCommission	0.645765	0.549131	1
264.238739	0.795512	city	6	1	0.897194	0.897194	0	1	0	0	CorrectCommission	0.645186	0.572008	1
265.034363	0.795730	mountain	5	0	0.000000	0.856222	1	0	0	0	CorrectOmission	0.341556	0.601532	1
265.830139	0.795843	city	4	1	0.798450	0.798450	0	1	0	0	CorrectCommission	0.086566	0.636841	1
266.625946	0.795798	city	5	1	0.747974	0.747974	0	1	0	0	CorrectCommission	0.460620	0.676410	1
267.421753	0.795811	city	3	1	0.847692	0.847692	0	1	0	0	CorrectCommission	0.278348	0.717987	1
268.217590	0.795835	city	8	1	0.865613	0.865613	0	1	0	0	CorrectCommission	0.411150	0.758844	1
269.013397	0.795804	city	10	1	0.606323	0.606323	0	1	0	0	CorrectCommission	1.510334	0.796025	0
269.809204	0.795767	city	8	1	0.761373	0.761373	0	1	0	0	CorrectCommission	0.361329	0.826620	0
270.605011	0.795853	city	5	1	0.704404	0.704404	0	1	0	0	CorrectCommission	0.783499	0.848303	0
271.400818	0.795764	city	6	1	1.112850	1.112850	0	1	0	0	CorrectCommission	2.243312	0.859496	0
272.196747	0.796097	city	2	1	1.205448	1.205448	0	1	0	0	CorrectCommission	2.929519	0.859656	0
272.992676	0.795772	city	1	1	0.699075	0.699075	0	1	0	0	CorrectCommission	0.822988	0.849462	0
273.788330	0.795555	mountain	6	0	0.000000	0.656206	1	0	0	0	CorrectOmission	1.140671	0.830738	0
274.584015	0.795823	city	5	1	0.798319	0.798319	0	1	0	0	CorrectCommission	0.087533	0.806107	0
275.379822	0.795785	mountain	8	0	0.000000	0.846893	1	0	0	0	CorrectOmission	0.272427	0.778707	0
276.175598	0.795719	city	1	1	0.848030	0.848030	0	1	0	0	CorrectCommission	0.280852	0.751650	1
276.971375	0.795856	city	2	1	0.847832	0.847832	0	1	0	0	CorrectCommission	0.279383	0.727696	1
277.767181	0.795773	city	10	1	0.799402	0.799402	0	1	0	0	CorrectCommission	0.079507	0.708923	1
278.563141	0.796108	city	4	1	0.997762	0.997762	0	1	0	0	CorrectCommission	1.390446	0.696466	1
279.358948	0.795557	city	9	1	0.848171	0.848171	0	1	0	0	CorrectCommission	0.281892	0.690442	1
280.154602	0.795758	city	7	1	0.897822	0.897822	0	1	0	0	CorrectCommission	0.649840	0.690196	1
280.950439	0.795860	city	8	1	0.811100	0.811100	0	1	0	0	CorrectCommission	0.007181	0.694344	1
281.746216	0.795696	city	9	1	0.996592	0.996592	0	1	0	0	CorrectCommission	1.381775	0.701140	1
282.541992	0.795870	city	10	1	0.898111	0.898111	0	1	0	0	CorrectCommission	0.651980	0.708685	1
283.337799	0.795781	city	1	1	0.897529	0.897529	0	1	0	0	CorrectCommission	0.647668	0.715356	1
284.133759	0.796097	city	4	1	1.003689	1.003689	0	1	0	0	CorrectCommission	1.434373	0.719880	1
284.929565	0.795510	city	7	1	0.997185	0.997185	0	1	0	0	CorrectCommission	1.386171	0.721503	1
285.725189	0.795755	city	5	1	0.909593	0.909593	0	1	0	0	CorrectCommission	0.737064	0.720092	1
286.520996	0.795853	mountain	8	0	0.000000	0.853178	1	0	0	0	CorrectOmission	0.319001	0.715929	1
287.316833	0.795828	city	3	1	0.848084	0.848084	0	1	0	0	CorrectCommission	0.281254	0.709710	1
288.112671	0.795821	city	8	1	0.914456	0.914456	0	1	0	0	CorrectCommission	0.773101	0.702307	1
288.908447	0.795769	city	2	0	0.000000	0.761921	0	0	0	1	OmissionError	0.357263	0.694616	1
289.704254	0.795817	city	5	1	0.664825	0.664825	0	1	0	0	CorrectCommission	1.076802	0.687468	1
290.500031	0.795779	city	8	1	0.897510	0.897510	0	1	0	0	CorrectCommission	0.647522	0.681571	1
291.295837	0.795783	city	4	1	0.847449	0.847449	0	1	0	0	CorrectCommission	0.276548	0.677452	1
292.091644	0.795850	city	5	1	0.847876	0.847876	0	1	0	0	CorrectCommission	0.279710	0.675489	1
292.887451	0.795777	city	4	1	1.046852	1.046852	0	1	0	0	CorrectCommission	1.754230	0.675871	1
293.683258	0.795832	city	8	1	0.748399	0.748399	0	1	0	0	CorrectCommission	0.457469	0.678581	1
294.479065	0.795778	city	2	1	0.915325	0.915325	0	1	0	0	CorrectCommission	0.779546	0.683554	1
295.274841	0.795781	city	8	1	0.748104	0.748104	0	1	0	0	CorrectCommission	0.459659	0.690545	1
296.070618	0.795793	mountain	2	0	0.000000	0.728451	1	0	0	0	CorrectOmission	0.605298	0.699087	1
296.866425	0.795806	city	9	1	0.760556	0.760556	0	1	0	0	CorrectCommission	0.367384	0.708569	1
297.662384	0.796123	city	3	1	0.748607	0.748607	0	1	0	0	CorrectCommission	0.455928	0.718201	1
298.458191	0.795467	city	9	1	0.897919	0.897919	0	1	0	0	CorrectCommission	0.650555	0.727113	1
299.253998	0.796134	city	2	1	0.749260	0.749260	0	1	0	0	CorrectCommission	0.451091	0.734334	1
300.049805	0.795506	city	10	1	0.948496	0.948496	0	1	0	0	CorrectCommission	1.025357	0.739020	1
300.845459	0.795790	city	2	1	1.146159	1.146159	0	1	0	0	CorrectCommission	2.490151	0.740554	1
301.641235	0.795746	city	8	1	0.760218	0.760218	0	1	0	0	CorrectCommission	0.369886	0.738629	1
302.437042	0.795894	city	1	1	0.898644	0.898644	0	1	0	0	CorrectCommission	0.655928	0.733472	1
303.232880	0.795767	city	5	1	0.847695	0.847695	0	1	0	0	CorrectCommission	0.278367	0.725695	1
304.028656	0.795824	city	9	1	0.903062	0.903062	0	1	0	0	CorrectCommission	0.688670	0.716381	1
304.824493	0.795806	city	1	1	0.698609	0.698609	0	1	0	0	CorrectCommission	0.826442	0.706892	1
305.620270	0.795747	city	5	1	0.956703	0.956703	0	1	0	0	CorrectCommission	1.086177	0.698779	1
306.416046	0.795827	city	3	1	0.866486	0.866486	0	1	0	0	CorrectCommission	0.417622	0.693635	1
307.211853	0.795784	city	4	1	0.897448	0.897448	0	1	0	0	CorrectCommission	0.647063	0.692921	1
308.007660	0.795830	city	1	1	0.748356	0.748356	0	1	0	0	CorrectCommission	0.457790	0.697804	1
308.803619	0.796092	city	3	1	0.847669	0.847669	0	1	0	0	CorrectCommission	0.278176	0.708993	1
309.599426	0.795531	city	10	1	0.851685	0.851685	0	1	0	0	CorrectCommission	0.307936	0.726698	1
310.395081	0.795783	city	8	1	0.947385	0.947385	0	1	0	0	CorrectCommission	1.017126	0.750530	1
311.190857	0.795765	city	3	1	0.810929	0.810929	0	1	0	0	CorrectCommission	0.005908	0.779537	0
311.986664	0.795828	city	4	1	0.698873	0.698873	0	1	0	0	CorrectCommission	0.824485	0.812338	0
312.782501	0.795838	city	3	1	0.655010	0.655010	0	1	0	0	CorrectCommission	1.149539	0.847155	0
313.578308	0.795803	city	2	1	0.549288	0.549288	0	1	0	0	CorrectCommission	1.932997	0.882031	0
314.374115	0.795769	city	1	1	0.708426	0.708426	0	1	0	0	CorrectCommission	0.753691	0.914897	0
315.169891	0.795818	city	9	1	0.848253	0.848253	0	1	0	0	CorrectCommission	0.282502	0.943876	0
315.965851	0.796081	city	7	1	0.704611	0.704611	0	1	0	0	CorrectCommission	0.781961	0.967264	0
316.761627	0.795506	city	8	1	0.599312	0.599312	0	1	0	0	CorrectCommission	1.562289	0.983705	0
317.557281	0.795794	city	2	1	0.660457	0.660457	0	1	0	0	CorrectCommission	1.109172	0.992254	0
318.353088	0.795781	city	9	1	0.660371	0.660371	0	1	0	0	CorrectCommission	1.109810	0.992478	0
319.148895	0.795848	city	3	1	0.549421	0.549421	0	1	0	0	CorrectCommission	1.932010	0.984523	0
319.944672	0.795703	city	4	1	0.649586	0.649586	0	1	0	0	CorrectCommission	1.189730	0.968994	0
320.740417	0.795818	mountain	8	1	0.699327	0.699327	0	0	1	0	CommissionError	0.821120	0.947018	0
321.536255	0.795843	city	2	1	0.909130	0.909130	0	1	0	0	CorrectCommission	0.733639	0.920056	0
322.332062	0.795777	city	4	1	0.897626	0.897626	0	1	0	0	CorrectCommission	0.648383	0.889754	0
323.127838	0.795791	city	2	1	1.012969	1.012969	0	1	0	0	CorrectCommission	1.503140	0.857819	0
323.923645	0.795829	city	6	1	0.798451	0.798451	0	1	0	0	CorrectCommission	0.086554	0.825810	0
324.719635	0.796096	city	8	1	0.748393	0.748393	0	1	0	0	CorrectCommission	0.457517	0.795140	0
325.515411	0.795467	city	9	1	0.996657	0.996657	0	1	0	0	CorrectCommission	1.382260	0.766887	1
326.311066	0.795871	city	4	1	0.749542	0.749542	0	1	0	0	CorrectCommission	0.448999	0.741704	1
327.106934	0.795823	city	7	1	0.798314	0.798314	0	1	0	0	CorrectCommission	0.087575	0.720054	1
327.902679	0.795721	city	6	1	0.709874	0.709874	0	1	0	0	CorrectCommission	0.742963	0.702015	1
328.698456	0.795824	city	1	1	0.615079	0.615079	0	1	0	0	CorrectCommission	1.445445	0.687500	1
329.494293	0.795819	city	8	1	0.798201	0.798201	0	1	0	0	CorrectCommission	0.088410	0.676292	1
330.290070	0.795756	city	10	1	0.699366	0.699366	0	1	0	0	CorrectCommission	0.820835	0.668228	1
331.085876	0.795871	city	2	1	0.766847	0.766847	0	1	0	0	CorrectCommission	0.320758	0.663121	1
331.881714	0.795811	city	4	1	0.659672	0.659672	0	1	0	0	CorrectCommission	1.114986	0.660930	1
332.677521	0.795753	city	2	1	0.749008	0.749008	0	1	0	0	CorrectCommission	0.452958	0.661676	1
333.473297	0.795809	mountain	4	0	0.000000	0.711716	1	0	0	0	CorrectOmission	0.729314	0.665438	1
334.269073	0.795765	city	1	1	0.699036	0.699036	0	1	0	0	CorrectCommission	0.823277	0.672239	1
335.064850	0.795804	city	4	1	0.862210	0.862210	0	1	0	0	CorrectCommission	0.385930	0.681962	1
335.860687	0.795848	city	8	1	0.764599	0.764599	0	1	0	0	CorrectCommission	0.337422	0.694357	1
336.656494	0.795758	city	7	1	0.704832	0.704832	0	1	0	0	CorrectCommission	0.780324	0.708898	1
337.452301	0.795846	city	2	1	0.761033	0.761033	0	1	0	0	CorrectCommission	0.363845	0.724824	1
338.248108	0.795793	city	7	1	0.961125	0.961125	0	1	0	0	CorrectCommission	1.118948	0.741217	1
339.043915	0.795806	city	5	1	0.798573	0.798573	0	1	0	0	CorrectCommission	0.085652	0.757000	1
339.839722	0.795825	city	6	1	0.897645	0.897645	0	1	0	0	CorrectCommission	0.648529	0.771142	1
340.635681	0.796087	city	4	1	1.098886	1.098886	0	1	0	0	CorrectCommission	2.139837	0.782628	0
341.431488	0.795506	city	3	0	0.000000	0.777735	0	0	0	1	OmissionError	0.240073	0.790638	0
342.227142	0.795800	city	4	1	0.504076	0.504076	0	1	0	0	CorrectCommission	2.268044	0.794742	0
343.022949	0.795809	city	7	1	0.847791	0.847791	0	1	0	0	CorrectCommission	0.279079	0.794610	0
343.818756	0.795827	city	1	1	0.700854	0.700854	0	1	0	0	CorrectCommission	0.809809	0.790385	0
344.614532	0.795717	city	5	1	0.748755	0.748755	0	1	0	0	CorrectCommission	0.454831	0.782365	0
345.410309	0.795816	city	6	1	0.807324	0.807324	0	1	0	0	CorrectCommission	0.020807	0.771044	1
346.206146	0.795880	city	10	1	0.907214	0.907214	0	1	0	0	CorrectCommission	0.719435	0.757073	1
347.001923	0.795702	city	2	1	0.911366	0.911366	0	1	0	0	CorrectCommission	0.750202	0.741244	1
347.797699	0.795848	city	9	1	0.997320	0.997320	0	1	0	0	CorrectCommission	1.387176	0.724471	1
348.593536	0.795789	city	4	1	0.949668	0.949668	0	1	0	0	CorrectCommission	1.034042	0.707802	1
349.389313	0.795771	city	8	1	1.047525	1.047525	0	1	0	0	CorrectCommission	1.759220	0.692383	1
350.185089	0.795809	city	1	1	0.797923	0.797923	0	1	0	0	CorrectCommission	0.090471	0.679328	1
350.980927	0.795845	city	5	1	0.849697	0.849697	0	1	0	0	CorrectCommission	0.293207	0.669726	1
351.776733	0.795747	city	1	1	0.798111	0.798111	0	1	0	0	CorrectCommission	0.089078	0.664309	1
352.572540	0.795861	city	8	1	0.808995	0.808995	0	1	0	0	CorrectCommission	0.008418	0.663459	1
353.368378	0.795819	city	4	1	0.748122	0.748122	0	1	0	0	CorrectCommission	0.459523	0.667044	1
354.164154	0.795738	city	1	1	0.703246	0.703246	0	1	0	0	CorrectCommission	0.792079	0.674406	1
354.959961	0.795878	city	6	1	0.898120	0.898120	0	1	0	0	CorrectCommission	0.652043	0.684500	1
355.755768	0.795743	city	1	1	0.698693	0.698693	0	1	0	0	CorrectCommission	0.825822	0.695949	1
356.551544	0.795807	city	5	1	0.897742	0.897742	0	1	0	0	CorrectCommission	0.649247	0.707358	1
357.347351	0.795847	city	7	1	0.955093	0.955093	0	1	0	0	CorrectCommission	1.074249	0.717488	1
358.143158	0.795762	mountain	5	0	0.000000	0.730272	1	0	0	0	CorrectOmission	0.591804	0.725382	1
358.938965	0.795846	city	7	1	0.615615	0.615615	0	1	0	0	CorrectCommission	1.441472	0.730665	1
359.734802	0.795804	city	4	1	1.003461	1.003461	0	1	0	0	CorrectCommission	1.432684	0.733419	1
360.530579	0.795783	city	8	1	0.748949	0.748949	0	1	0	0	CorrectCommission	0.453396	0.734289	1
361.326355	0.795756	city	3	1	0.699316	0.699316	0	1	0	0	CorrectCommission	0.821205	0.734287	1
362.122162	0.795821	city	5	1	0.748381	0.748381	0	1	0	0	CorrectCommission	0.457606	0.734521	1
362.917938	0.795757	city	2	1	0.813585	0.813585	0	1	0	0	CorrectCommission	0.025591	0.736064	1
363.713715	0.795791	city	4	1	0.859038	0.859038	0	1	0	0	CorrectCommission	0.362428	0.739649	1
364.509521	0.795822	city	9	1	0.897957	0.897957	0	1	0	0	CorrectCommission	0.650836	0.745543	1
365.305328	0.795782	mountain	10	0	0.000000	0.743765	1	0	0	0	CorrectOmission	0.491808	0.753482	1
366.101166	0.795910	city	3	1	0.660452	0.660452	0	1	0	0	CorrectCommission	1.109208	0.762750	1
366.897003	0.795787	city	10	1	0.912004	0.912004	0	1	0	0	CorrectCommission	0.754932	0.772252	1
367.692810	0.795779	city	5	1	1.013760	1.013760	0	1	0	0	CorrectCommission	1.509000	0.780812	0
368.488556	0.795742	mountain	9	0	0.000000	0.890597	1	0	0	0	CorrectOmission	0.596295	0.787247	0
369.284363	0.795839	city	2	1	0.703359	0.703359	0	1	0	0	CorrectCommission	0.791243	0.790728	0
370.080139	0.795753	mountain	8	1	0.612889	0.612889	0	0	1	0	CommissionError	1.461677	0.790818	0
370.875916	0.795807	city	2	1	0.798289	0.798289	0	1	0	0	CorrectCommission	0.087762	0.787586	0
371.671753	0.795818	city	7	1	0.947819	0.947819	0	1	0	0	CorrectCommission	1.020340	0.781667	0
372.467712	0.796150	city	9	1	0.959747	0.959747	0	1	0	0	CorrectCommission	1.108734	0.774067	0
373.263519	0.795442	mountain	5	0	0.000000	0.939540	1	0	0	0	CorrectOmission	0.958991	0.766106	1
374.059174	0.795866	city	2	1	0.848633	0.848633	0	1	0	0	CorrectCommission	0.285318	0.759233	1
374.854980	0.795780	city	8	1	0.648460	0.648460	0	1	0	0	CorrectCommission	1.198078	0.754763	1
375.650757	0.795753	city	6	1	0.748987	0.748987	0	1	0	0	CorrectCommission	0.453110	0.753652	1
376.446716	0.796158	city	2	1	0.754988	0.754988	0	1	0	0	CorrectCommission	0.408645	0.756367	1
377.242523	0.795447	city	3	1	0.798361	0.798361	0	1	0	0	CorrectCommission	0.087225	0.762748	1
378.038147	0.795794	city	6	1	0.903431	0.903431	0	1	0	0	CorrectCommission	0.691401	0.772063	1
378.833984	0.795909	city	4	1	0.864240	0.864240	0	1	0	0	CorrectCommission	0.400978	0.783047	0
379.629822	0.795765	mountain	3	0	0.000000	0.700301	1	0	0	0	CorrectOmission	0.813903	0.794167	0
380.425598	0.795784	city	9	1	0.648882	0.648882	0	1	0	0	CorrectCommission	1.194951	0.803782	0
381.221405	0.795799	mountain	3	1	0.947249	0.947249	0	0	1	0	CommissionError	1.016122	0.810492	0
382.017365	0.796119	city	8	0	0.000000	1.068268	0	0	0	1	OmissionError	1.912940	0.813334	0
382.813171	0.795499	city	9	1	1.007446	1.007446	0	1	0	0	CorrectCommission	1.462209	0.811888	0
383.608795	0.795786	city	10	1	0.760288	0.760288	0	1	0	0	CorrectCommission	0.369366	0.806419	0
384.404602	0.795813	city	5	1	0.897448	0.897448	0	1	0	0	CorrectCommission	0.647066	0.797858	0
385.200409	0.795790	city	4	1	0.898043	0.898043	0	1	0	0	CorrectCommission	0.651476	0.787483	0
385.996216	0.795833	city	9	1	0.952735	0.952735	0	1	0	0	CorrectCommission	1.056776	0.776798	0
386.792053	0.795806	city	1	1	0.847609	0.847609	0	1	0	0	CorrectCommission	0.277732	0.767334	1
387.587860	0.795811	city	2	1	0.797928	0.797928	0	1	0	0	CorrectCommission	0.090436	0.760430	1
388.383667	0.795806	city	5	1	0.847682	0.847682	0	1	0	0	CorrectCommission	0.278269	0.757113	1
389.179443	0.795753	city	3	1	0.947657	0.947657	0	1	0	0	CorrectCommission	1.019146	0.757954	1
389.975220	0.795791	city	10	1	0.947847	0.947847	0	1	0	0	CorrectCommission	1.020554	0.763119	1
390.771027	0.795834	city	9	1	1.002809	1.002809	0	1	0	0	CorrectCommission	1.427848	0.772472	0
391.566833	0.795822	city	2	1	0.748405	0.748405	0	1	0	0	CorrectCommission	0.457426	0.785647	0
392.362793	0.796067	mountain	2	0	0.000000	0.736211	1	0	0	0	CorrectOmission	0.547794	0.802165	0
393.158569	0.795483	city	10	1	0.848114	0.848114	0	1	0	0	CorrectCommission	0.281475	0.821440	0
393.954254	0.795874	mountain	8	0	0.000000	0.966005	1	0	0	0	CorrectOmission	1.155113	0.842817	0
394.750092	0.795791	city	7	1	0.997194	0.997194	0	1	0	0	CorrectCommission	1.386243	0.865574	0
395.545868	0.795802	city	2	1	0.848993	0.848993	0	1	0	0	CorrectCommission	0.287988	0.888882	0
396.341675	0.795801	city	9	1	0.997397	0.997397	0	1	0	0	CorrectCommission	1.387745	0.911823	0
397.137451	0.795742	city	7	1	0.961850	0.961850	0	1	0	0	CorrectCommission	1.124320	0.933261	0
397.933228	0.795816	city	6	1	0.804475	0.804475	0	1	0	0	CorrectCommission	0.041920	0.951931	0
398.729034	0.795815	city	2	1	0.748396	0.748396	0	1	0	0	CorrectCommission	0.457493	0.966568	0
399.524872	0.795821	city	7	1	0.549182	0.549182	0	1	0	0	CorrectCommission	1.933777	0.975818	0
400.320679	0.795794	mountain	9	1	0.599861	0.599861	0	0	1	0	CommissionError	1.558222	0.978507	0
401.116455	0.795800	city	2	1	0.797926	0.797926	0	1	0	0	CorrectCommission	0.090446	0.973907	0
401.912262	0.795788	city	5	1	0.599130	0.599130	0	1	0	0	CorrectCommission	1.563640	0.961842	0
402.708069	0.795825	city	2	1	0.549324	0.549324	0	1	0	0	CorrectCommission	1.932725	0.942697	0
403.503845	0.795765	mountain	8	1	0.549495	0.549495	0	0	1	0	CommissionError	1.931462	0.917570	0
404.299652	0.795814	city	10	1	0.710619	0.710619	0	1	0	0	CorrectCommission	0.737444	0.888261	0
405.095459	0.795813	mountain	5	0	0.000000	0.773078	1	0	0	0	CorrectOmission	0.274586	0.857054	0
405.891235	0.795741	city	2	1	0.798346	0.798346	0	1	0	0	CorrectCommission	0.087333	0.826433	0
406.687012	0.795808	city	1	1	0.847897	0.847897	0	1	0	0	CorrectCommission	0.279866	0.798867	0
407.482819	0.795784	city	5	1	0.948816	0.948816	0	1	0	0	CorrectCommission	1.027732	0.776567	0
408.278625	0.795877	city	7	1	0.947183	0.947183	0	1	0	0	CorrectCommission	1.015629	0.761251	1
409.074432	0.795735	city	8	1	0.798883	0.798883	0	1	0	0	CorrectCommission	0.083360	0.754134	1
409.870209	0.795811	city	5	1	0.699153	0.699153	0	1	0	0	CorrectCommission	0.822408	0.755795	1
410.666046	0.795865	city	3	1	0.864509	0.864509	0	1	0	0	CorrectCommission	0.402968	0.766129	1
411.461884	0.795784	city	9	1	0.812489	0.812489	0	1	0	0	CorrectCommission	0.017474	0.784487	0
412.257782	0.796002	city	5	1	0.665619	0.665619	0	1	0	0	CorrectCommission	1.070915	0.809721	0
413.053589	0.795599	city	6	1	0.902013	0.902013	0	1	0	0	CorrectCommission	0.680897	0.840293	0
413.849304	0.795832	city	2	1	1.096889	1.096889	0	1	0	0	CorrectCommission	2.125035	0.874408	0
414.645111	0.795780	city	10	1	0.909977	0.909977	0	1	0	0	CorrectCommission	0.739916	0.909998	0
415.440887	0.795818	city	7	1	0.954438	0.954438	0	1	0	0	CorrectCommission	1.069396	0.944969	0
416.236694	0.795767	city	5	1	0.909735	0.909735	0	1	0	0	CorrectCommission	0.738121	0.977145	0
417.032471	0.795785	city	10	1	0.798144	0.798144	0	1	0	0	CorrectCommission	0.088833	1.004332	0
417.828247	0.795782	city	3	1	0.748477	0.748477	0	1	0	0	CorrectCommission	0.456892	1.024489	0
418.624054	0.795805	city	5	1	0.916712	0.916712	0	1	0	0	CorrectCommission	0.789821	1.035904	0
419.419830	0.795796	city	10	1	1.201876	1.201876	0	1	0	0	CorrectCommission	2.903049	1.037313	0
420.215668	0.795844	city	1	0	0.000000	1.127728	0	0	0	1	OmissionError	2.353570	1.028087	0
421.011505	0.795843	city	3	1	0.959830	0.959830	0	1	0	0	CorrectCommission	1.109353	1.008489	0
421.807465	0.796071	city	5	1	0.963745	0.963745	0	1	0	0	CorrectCommission	1.138363	0.979708	0
422.603241	0.795475	city	4	1	0.946946	0.946946	0	1	0	0	CorrectCommission	1.013875	0.943733	0
423.398895	0.795843	city	7	0	0.000000	0.753487	0	0	0	1	OmissionError	0.419766	0.903159	0
424.194702	0.795779	city	6	1	0.648617	0.648617	0	1	0	0	CorrectCommission	1.196908	0.860947	0
424.990509	0.795835	city	5	1	0.897588	0.897588	0	1	0	0	CorrectCommission	0.648100	0.820035	0
425.786346	0.795800	city	1	1	0.798000	0.798000	0	1	0	0	CorrectCommission	0.089903	0.783092	0
426.582092	0.795708	city	4	1	0.851551	0.851551	0	1	0	0	CorrectCommission	0.306945	0.752257	1
427.377899	0.795901	city	5	1	0.847702	0.847702	0	1	0	0	CorrectCommission	0.278419	0.728891	1
428.173706	0.795756	mountain	6	0	0.000000	0.881144	1	0	0	0	CorrectOmission	0.526247	0.713567	1
428.969513	0.795825	mountain	5	0	0.000000	0.912345	1	0	0	0	CorrectOmission	0.757460	0.706159	1
429.765472	0.796092	city	3	1	0.901770	0.901770	0	1	0	0	CorrectCommission	0.679094	0.705939	1
430.561249	0.795498	city	10	1	0.809886	0.809886	0	1	0	0	CorrectCommission	0.001820	0.711871	1
431.356934	0.795838	city	2	1	1.049285	1.049285	0	1	0	0	CorrectCommission	1.772265	0.722778	1
432.152740	0.795803	city	3	1	0.961097	0.961097	0	1	0	0	CorrectCommission	1.118739	0.737483	1
432.948486	0.795690	city	5	1	0.909317	0.909317	0	1	0	0	CorrectCommission	0.735025	0.755129	1
433.744232	0.795804	city	6	1	0.947125	0.947125	0	1	0	0	CorrectCommission	1.015201	0.775166	0
434.540039	0.795805	city	9	1	0.850333	0.850333	0	1	0	0	CorrectCommission	0.297919	0.797312	0
435.335907	0.795895	city	2	1	0.897367	0.897367	0	1	0	0	CorrectCommission	0.646464	0.821461	0
436.131714	0.795723	city	1	1	0.797841	0.797841	0	1	0	0	CorrectCommission	0.091077	0.847649	0
436.927490	0.795816	city	2	1	0.748569	0.748569	0	1	0	0	CorrectCommission	0.456208	0.875870	0
437.723297	0.795836	city	8	1	1.047387	1.047387	0	1	0	0	CorrectCommission	1.758196	0.906045	0
438.519104	0.795748	mountain	2	0	0.000000	0.939931	1	0	0	0	CorrectOmission	0.961890	0.937952	0
439.314880	0.795812	city	4	1	0.702388	0.702388	0	1	0	0	CorrectCommission	0.798437	0.971364	0
440.110718	0.795886	mountain	3	1	0.610943	0.610943	0	0	1	0	CommissionError	1.476097	1.005905	0
440.906525	0.795710	city	1	1	0.662804	0.662804	0	1	0	0	CorrectCommission	1.091781	1.041138	0
441.702301	0.795818	city	2	1	0.956965	0.956965	0	1	0	0	CorrectCommission	1.088123	1.076566	0
442.498260	0.796102	city	7	1	0.947555	0.947555	0	1	0	0	CorrectCommission	1.018389	1.111561	0
443.294067	0.795558	city	9	1	0.849244	0.849244	0	1	0	0	CorrectCommission	0.289850	1.145425	0
444.089722	0.795723	city	3	1	0.649079	0.649079	0	1	0	0	CorrectCommission	1.193490	1.177366	0
444.885651	0.796156	mountain	1	1	0.613872	0.613872	0	0	1	0	CommissionError	1.454390	1.206420	0
445.681641	0.795805	city	8	1	0.548870	0.548870	0	1	0	0	CorrectCommission	1.936092	1.231596	0
446.477295	0.795500	city	1	1	0.560101	0.560101	0	1	0	0	CorrectCommission	1.852868	1.251818	0
447.272949	0.795794	city	7	1	0.847836	0.847836	0	1	0	0	CorrectCommission	0.279411	1.266055	0
448.068878	0.796108	city	1	1	0.698387	0.698387	0	1	0	0	CorrectCommission	0.828088	1.273505	0
448.864716	0.795517	city	7	0	0.000000	0.515778	0	0	0	1	OmissionError	2.181321	1.273410	0
449.660339	0.795734	city	2	1	0.499395	0.499395	0	1	0	0	CorrectCommission	2.302732	1.265302	0
450.456116	0.795855	city	4	1	0.848621	0.848621	0	1	0	0	CorrectCommission	0.285233	1.249123	0
451.251953	0.795790	city	9	1	1.096454	1.096454	0	1	0	0	CorrectCommission	2.121808	1.225247	0
452.047729	0.795763	city	1	1	1.005203	1.005203	0	1	0	0	CorrectCommission	1.445592	1.194307	0
452.843506	0.795811	city	4	1	0.997128	0.997128	0	1	0	0	CorrectCommission	1.385749	1.157327	0
453.639313	0.795806	city	8	1	0.798551	0.798551	0	1	0	0	CorrectCommission	0.085820	1.115635	0
454.435150	0.795846	city	6	1	0.648710	0.648710	0	1	0	0	CorrectCommission	1.196218	1.070761	0
455.230988	0.795824	city	5	1	0.698687	0.698687	0	1	0	0	CorrectCommission	0.825861	1.024164	0
456.026764	0.795776	city	10	1	1.047099	1.047099	0	1	0	0	CorrectCommission	1.756066	0.977428	0
456.822571	0.795788	city	8	1	1.047625	1.047625	0	1	0	0	CorrectCommission	1.759960	0.932007	0
457.618378	0.795821	city	6	1	0.814857	0.814857	0	1	0	0	CorrectCommission	0.035020	0.889265	0
458.414154	0.795739	city	2	1	0.798782	0.798782	0	1	0	0	CorrectCommission	0.084108	0.850445	0
459.209930	0.795847	city	6	1	0.748771	0.748771	0	1	0	0	CorrectCommission	0.454713	0.816516	0
460.005737	0.795759	city	4	1	0.859363	0.859363	0	1	0	0	CorrectCommission	0.364833	0.788268	0
460.801544	0.795844	city	1	1	1.046627	1.046627	0	1	0	0	CorrectCommission	1.752567	0.766229	1
461.597382	0.795813	city	4	1	0.897816	0.897816	0	1	0	0	CorrectCommission	0.649791	0.750659	1
462.393188	0.795823	mountain	1	1	0.748197	0.748197	0	0	1	0	CommissionError	0.458968	0.741701	1
463.188995	0.795783	city	5	1	0.615231	0.615231	0	1	0	0	CorrectCommission	1.444323	0.739192	1
463.984924	0.796099	city	8	1	0.802135	0.802135	0	1	0	0	CorrectCommission	0.059260	0.742755	1
464.780884	0.795806	city	10	1	0.797478	0.797478	0	1	0	0	CorrectCommission	0.093770	0.751905	1
465.576508	0.795466	city	4	1	0.896990	0.896990	0	1	0	0	CorrectCommission	0.643673	0.765985	1
466.372162	0.795832	city	2	1	0.749723	0.749723	0	1	0	0	CorrectCommission	0.447662	0.784140	0
467.167969	0.795773	city	7	1	0.897627	0.897627	0	1	0	0	CorrectCommission	0.648395	0.805508	0
467.963776	0.795862	city	8	1	0.748424	0.748424	0	1	0	0	CorrectCommission	0.457283	0.829259	0
468.759613	0.795793	city	9	1	1.146245	1.146245	0	1	0	0	CorrectCommission	2.490789	0.854595	0
469.555420	0.795802	city	10	0	0.000000	1.055581	0	0	0	1	OmissionError	1.818918	0.880784	0
470.351166	0.795728	city	7	1	0.798850	0.798850	0	1	0	0	CorrectCommission	0.083604	0.907184	0
471.147125	0.796150	city	9	1	0.698469	0.698469	0	1	0	0	CorrectCommission	0.827483	0.933351	0
471.942963	0.795545	city	7	1	0.859606	0.859606	0	1	0	0	CorrectCommission	0.366635	0.958539	0
472.738617	0.795727	city	8	1	0.948983	0.948983	0	1	0	0	CorrectCommission	1.028970	0.981846	0
473.534546	0.796133	mountain	7	0	0.000000	0.863639	1	0	0	0	CorrectOmission	0.396522	1.002224	0
474.330322	0.795461	city	10	1	0.847927	0.847927	0	1	0	0	CorrectCommission	0.280090	1.018406	0
475.125946	0.795780	city	8	1	1.146203	1.146203	0	1	0	0	CorrectCommission	2.490477	1.029103	0
475.921753	0.795840	city	6	1	0.897397	0.897397	0	1	0	0	CorrectCommission	0.646690	1.032980	0
476.717560	0.795783	city	1	0	0.000000	1.030882	0	0	0	1	OmissionError	1.635889	1.029004	0
477.513367	0.795826	city	6	1	1.160061	1.160061	0	1	0	0	CorrectCommission	2.593173	1.016432	0
478.309174	0.795768	city	10	1	0.898336	0.898336	0	1	0	0	CorrectCommission	0.653643	0.994868	0
479.105011	0.795898	city	6	1	0.997991	0.997991	0	1	0	0	CorrectCommission	1.392148	0.964533	0
479.900848	0.795776	city	1	1	0.804440	0.804440	0	1	0	0	CorrectCommission	0.042173	0.925911	0
480.696625	0.795819	city	4	1	0.997135	0.997135	0	1	0	0	CorrectCommission	1.385805	0.879851	0
481.492462	0.795809	city	3	1	0.862123	0.862123	0	1	0	0	CorrectCommission	0.385291	0.827245	0
482.288208	0.795729	city	10	1	0.658411	0.658411	0	1	0	0	CorrectCommission	1.124329	0.769141	1
483.084137	0.796118	city	2	1	0.809245	0.809245	0	1	0	0	CorrectCommission	0.006568	0.706475	1
483.879944	0.795485	city	5	1	0.801560	0.801560	0	1	0	0	CorrectCommission	0.063521	0.640111	1
484.675598	0.795845	city	4	1	1.001192	1.001192	0	1	0	0	CorrectCommission	1.415868	0.570851	1
485.471405	0.795724	city	2	1	0.797878	0.797878	0	1	0	0	CorrectCommission	0.090807	0.499408	1
486.267151	0.795806	city	3	1	0.301207	0.301207	0	1	0	0	CorrectCommission	3.771416	0.426512	1
487.062988	0.795841	city	8	1	0.762531	0.762531	0	1	0	0	CorrectCommission	0.352748	0.352748	1
