onset	duration	trial_type	image_type	Press	ReactionTime	ReactionTime_Interpolated	CorrectOmission	CorrectCommission	CommissionError	OmissionError	response_type	nonsmoothVarianceTimeCourse	VarianceTimeCourse	In_the_Zone
8.421728	0.795702	city	6	1	0.800295	0.800295	0	1	0	0	CorrectCommission	0.328756	0.328756	1
9.217517	0.795875	city	1	1	0.705673	0.705673	0	1	0	0	CorrectCommission	1.292578	0.436169	1
10.013357	0.795804	city	6	1	0.613493	0.613493	0	1	0	0	CorrectCommission	2.231536	0.537389	1
10.809149	0.795780	mountain	9	1	0.798545	0.798545	0	0	1	0	CommissionError	0.346582	0.626864	1
11.604946	0.795815	city	7	1	0.701139	0.701139	0	1	0	0	CorrectCommission	1.338765	0.700270	0
12.400740	0.795771	mountain	5	1	0.610611	0.610611	0	0	1	0	CommissionError	2.260887	0.754758	0
13.196548	0.795844	city	2	1	0.748471	0.748471	0	1	0	0	CorrectCommission	0.856641	0.789242	0
13.992519	0.796098	city	6	1	0.751387	0.751387	0	1	0	0	CorrectCommission	0.826931	0.804431	0
14.788309	0.795481	mountain	5	0	0.000000	0.698492	1	0	0	0	CorrectOmission	1.365727	0.802507	0
15.583962	0.795826	city	3	1	0.699033	0.699033	0	1	0	0	CorrectCommission	1.360213	0.786778	0
16.379917	0.796084	city	7	1	0.862261	0.862261	0	1	0	0	CorrectCommission	0.302427	0.761247	0
17.175694	0.795466	mountain	4	0	0.000000	0.821950	1	0	0	0	CorrectOmission	0.108176	0.730152	0
17.971365	0.795878	city	8	1	0.748327	0.748327	0	1	0	0	CorrectCommission	0.858106	0.697445	0
18.767157	0.795706	city	2	1	0.811616	0.811616	0	1	0	0	CorrectCommission	0.213444	0.666475	1
19.562923	0.795826	city	1	1	0.798200	0.798200	0	1	0	0	CorrectCommission	0.350095	0.639824	1
20.358761	0.795848	city	6	1	0.814203	0.814203	0	1	0	0	CorrectCommission	0.187093	0.619075	1
21.154711	0.796055	city	3	1	0.748021	0.748021	0	1	0	0	CorrectCommission	0.861223	0.604959	1
21.950506	0.795536	city	6	1	0.799598	0.799598	0	1	0	0	CorrectCommission	0.335853	0.597383	1
22.746176	0.795800	city	2	1	0.848340	0.848340	0	1	0	0	CorrectCommission	0.160635	0.595707	1
23.542131	0.796111	city	1	1	0.897483	0.897483	0	1	0	0	CorrectCommission	0.661205	0.598902	1
24.337934	0.795497	city	4	1	0.996990	0.996990	0	1	0	0	CorrectCommission	1.674788	0.605854	1
25.133593	0.795816	city	10	1	0.859799	0.859799	0	1	0	0	CorrectCommission	0.277355	0.615438	1
25.929392	0.795784	city	6	1	0.947268	0.947268	0	1	0	0	CorrectCommission	1.168317	0.626818	1
26.725157	0.795745	city	1	1	0.847554	0.847554	0	1	0	0	CorrectCommission	0.152623	0.639309	1
27.520931	0.795804	city	5	1	0.847738	0.847738	0	1	0	0	CorrectCommission	0.154501	0.652522	1
28.316767	0.795866	city	10	1	0.847643	0.847643	0	1	0	0	CorrectCommission	0.153533	0.666346	1
29.112638	0.795880	city	5	1	0.897637	0.897637	0	1	0	0	CorrectCommission	0.662774	0.680819	0
29.908588	0.796020	city	2	1	0.952800	0.952800	0	1	0	0	CorrectCommission	1.224666	0.696056	0
30.704351	0.795505	city	7	1	0.997163	0.997163	0	1	0	0	CorrectCommission	1.676547	0.712214	0
31.500006	0.795803	city	5	1	0.897182	0.897182	0	1	0	0	CorrectCommission	0.658143	0.729385	0
32.295784	0.795753	city	3	1	0.897924	0.897924	0	1	0	0	CorrectCommission	0.665698	0.747517	0
33.091724	0.796130	city	4	1	0.849365	0.849365	0	1	0	0	CorrectCommission	0.171074	0.766263	0
33.887562	0.795543	city	6	1	0.847200	0.847200	0	1	0	0	CorrectCommission	0.149022	0.784985	0
34.683231	0.795794	city	4	1	0.765559	0.765559	0	1	0	0	CorrectCommission	0.682575	0.802693	0
35.479034	0.795818	city	2	1	0.797928	0.797928	0	1	0	0	CorrectCommission	0.352872	0.818035	0
36.274822	0.795753	city	4	1	1.046589	1.046589	0	1	0	0	CorrectCommission	2.180008	0.829517	0
37.070595	0.795795	city	5	1	0.898075	0.898075	0	1	0	0	CorrectCommission	0.667233	0.835543	0
37.866421	0.795852	city	1	1	0.897670	0.897670	0	1	0	0	CorrectCommission	0.663109	0.834801	0
38.662228	0.795764	city	4	1	0.963606	0.963606	0	1	0	0	CorrectCommission	1.334740	0.826262	0
39.457977	0.795737	city	7	1	0.997766	0.997766	0	1	0	0	CorrectCommission	1.682691	0.809405	0
40.253750	0.795806	city	1	1	0.903753	0.903753	0	1	0	0	CorrectCommission	0.725076	0.784346	0
41.049595	0.795881	city	6	1	0.947691	0.947691	0	1	0	0	CorrectCommission	1.172627	0.751901	0
41.845444	0.795818	city	8	1	0.898029	0.898029	0	1	0	0	CorrectCommission	0.666762	0.713378	0
42.641251	0.795797	city	5	1	0.811505	0.811505	0	1	0	0	CorrectCommission	0.214570	0.670641	1
43.437054	0.795809	city	7	1	0.898162	0.898162	0	1	0	0	CorrectCommission	0.668121	0.625817	1
44.232853	0.795795	city	4	1	0.797914	0.797914	0	1	0	0	CorrectCommission	0.353012	0.581122	1
45.028614	0.795726	city	1	1	0.748318	0.748318	0	1	0	0	CorrectCommission	0.858199	0.538716	1
45.824402	0.795846	city	2	1	0.853206	0.853206	0	1	0	0	CorrectCommission	0.210200	0.500482	1
46.620358	0.796072	city	6	1	0.863655	0.863655	0	1	0	0	CorrectCommission	0.316626	0.467937	1
47.416313	0.795834	mountain	3	0	0.000000	0.832610	1	0	0	0	CorrectOmission	0.000406	0.442094	1
48.211994	0.795529	city	8	1	0.798191	0.798191	0	1	0	0	CorrectCommission	0.350191	0.423465	1
49.007614	0.795711	city	4	1	0.798514	0.798514	0	1	0	0	CorrectCommission	0.346899	0.412067	1
49.803398	0.795861	city	8	1	0.798109	0.798109	0	1	0	0	CorrectCommission	0.351026	0.407447	1
50.599197	0.795739	mountain	4	0	0.000000	0.839751	1	0	0	0	CorrectOmission	0.073146	0.408791	1
51.395157	0.796174	city	8	1	0.848163	0.848163	0	1	0	0	CorrectCommission	0.158832	0.415060	1
52.190987	0.795492	city	7	1	0.748067	0.748067	0	1	0	0	CorrectCommission	0.860754	0.425039	1
52.986656	0.795845	city	4	1	0.761994	0.761994	0	1	0	0	CorrectCommission	0.718897	0.437531	1
53.782433	0.795705	mountain	8	0	0.000000	0.795071	1	0	0	0	CorrectOmission	0.381964	0.451409	1
54.578190	0.795809	mountain	4	0	0.000000	0.821344	1	0	0	0	CorrectOmission	0.114349	0.465823	1
55.374012	0.795839	city	4	1	0.814855	0.814855	0	1	0	0	CorrectCommission	0.180444	0.480192	1
56.169807	0.795751	city	8	1	0.749649	0.749649	0	1	0	0	CorrectCommission	0.844640	0.494236	1
56.965588	0.795806	city	5	1	0.758920	0.758920	0	1	0	0	CorrectCommission	0.750209	0.507963	1
57.761417	0.795858	city	10	1	0.749304	0.749304	0	1	0	0	CorrectCommission	0.848151	0.521721	1
58.557232	0.795765	city	1	1	0.748007	0.748007	0	1	0	0	CorrectCommission	0.861361	0.536058	1
59.353012	0.795797	city	7	1	0.804414	0.804414	0	1	0	0	CorrectCommission	0.286801	0.551659	1
60.148838	0.795853	mountain	9	0	0.000000	0.803959	1	0	0	0	CorrectOmission	0.291431	0.569232	1
60.944656	0.795784	city	8	1	0.798160	0.798160	0	1	0	0	CorrectCommission	0.350501	0.589386	1
61.740444	0.795791	mountain	4	0	0.000000	0.838533	1	0	0	0	CorrectOmission	0.060737	0.612592	1
62.536221	0.795762	city	4	1	0.847753	0.847753	0	1	0	0	CorrectCommission	0.154650	0.639086	1
63.332001	0.795802	city	8	1	0.748495	0.748495	0	1	0	0	CorrectCommission	0.856395	0.668905	1
64.127800	0.795798	city	5	1	0.699261	0.699261	0	1	0	0	CorrectCommission	1.357893	0.701892	0
64.923622	0.795847	city	1	1	0.757627	0.757627	0	1	0	0	CorrectCommission	0.763373	0.737770	0
65.719475	0.795848	city	9	1	0.897652	0.897652	0	1	0	0	CorrectCommission	0.662924	0.776163	0
66.515259	0.795721	city	1	1	0.710983	0.710983	0	1	0	0	CorrectCommission	1.238492	0.816565	0
67.311012	0.795783	city	2	1	0.763051	0.763051	0	1	0	0	CorrectCommission	0.708124	0.858309	0
68.106812	0.795826	city	1	1	0.749045	0.749045	0	1	0	0	CorrectCommission	0.850793	0.900546	0
68.902641	0.795821	city	2	1	0.798445	0.798445	0	1	0	0	CorrectCommission	0.347604	0.942149	0
69.698471	0.795840	city	4	1	0.750504	0.750504	0	1	0	0	CorrectCommission	0.835929	0.981717	0
70.494308	0.795836	city	2	1	0.748303	0.748303	0	1	0	0	CorrectCommission	0.858345	1.017553	0
71.290085	0.795720	mountain	6	0	0.000000	0.723628	1	0	0	0	CorrectOmission	1.109687	1.047835	0
72.085838	0.795793	city	3	1	0.699398	0.699398	0	1	0	0	CorrectCommission	1.356498	1.070747	0
72.881813	0.796148	city	2	1	0.698532	0.698532	0	1	0	0	CorrectCommission	1.365320	1.084732	0
73.677650	0.795534	city	7	1	0.661035	0.661035	0	1	0	0	CorrectCommission	1.747270	1.088719	0
74.473267	0.795696	city	10	1	0.648759	0.648759	0	1	0	0	CorrectCommission	1.872307	1.082332	0
75.269058	0.795888	city	1	1	0.749454	0.749454	0	1	0	0	CorrectCommission	0.846628	1.066048	0
76.064903	0.795798	mountain	1	0	0.000000	0.697514	1	0	0	0	CorrectOmission	1.375692	1.041255	0
76.860710	0.795812	city	8	1	0.649182	0.649182	0	1	0	0	CorrectCommission	1.867999	1.010080	0
77.656517	0.795814	city	3	1	0.760702	0.760702	0	1	0	0	CorrectCommission	0.732049	0.975199	0
78.452309	0.795765	city	2	1	0.798289	0.798289	0	1	0	0	CorrectCommission	0.349195	0.939626	0
79.248093	0.795795	mountain	3	0	0.000000	0.769759	1	0	0	0	CorrectOmission	0.639794	0.906264	0
80.043892	0.795802	city	2	1	0.748828	0.748828	0	1	0	0	CorrectCommission	0.852998	0.877585	0
80.839714	0.795841	city	3	1	0.809209	0.809209	0	1	0	0	CorrectCommission	0.237962	0.855333	0
81.635490	0.795715	city	9	1	0.854599	0.854599	0	1	0	0	CorrectCommission	0.224387	0.840387	0
82.431259	0.795834	city	1	1	0.755039	0.755039	0	1	0	0	CorrectCommission	0.789733	0.832722	0
83.227081	0.795796	city	10	1	0.798411	0.798411	0	1	0	0	CorrectCommission	0.347946	0.831459	0
84.022903	0.795854	mountain	2	0	0.000000	0.758496	1	0	0	0	CorrectOmission	0.754519	0.835105	0
84.818733	0.795808	city	7	1	0.702739	0.702739	0	1	0	0	CorrectCommission	1.322467	0.841811	0
85.614670	0.796070	city	9	1	0.698583	0.698583	0	1	0	0	CorrectCommission	1.364803	0.849713	0
86.410477	0.795537	city	7	1	0.698116	0.698116	0	1	0	0	CorrectCommission	1.369557	0.857227	0
87.206139	0.795781	city	8	1	0.748052	0.748052	0	1	0	0	CorrectCommission	0.860912	0.863201	0
88.001892	0.795731	city	4	1	0.753471	0.753471	0	1	0	0	CorrectCommission	0.805711	0.867053	0
88.797668	0.795821	city	1	1	0.748195	0.748195	0	1	0	0	CorrectCommission	0.859447	0.868710	0
89.593506	0.795851	city	5	1	0.751954	0.751954	0	1	0	0	CorrectCommission	0.821162	0.868488	0
90.389320	0.795775	city	8	1	0.748305	0.748305	0	1	0	0	CorrectCommission	0.858326	0.866953	0
91.185097	0.795784	city	6	1	0.748624	0.748624	0	1	0	0	CorrectCommission	0.855082	0.864638	0
91.980873	0.795766	city	4	1	0.748263	0.748263	0	1	0	0	CorrectCommission	0.858759	0.861875	0
92.776688	0.795857	city	6	1	0.811977	0.811977	0	1	0	0	CorrectCommission	0.209761	0.858725	0
93.572517	0.795816	city	10	1	0.749118	0.749118	0	1	0	0	CorrectCommission	0.850052	0.854856	0
94.368317	0.795772	city	8	1	0.751418	0.751418	0	1	0	0	CorrectCommission	0.826622	0.849530	0
95.164101	0.795797	city	3	1	0.716863	0.716863	0	1	0	0	CorrectCommission	1.178598	0.841848	0
95.959923	0.795857	city	1	1	0.898159	0.898159	0	1	0	0	CorrectCommission	0.668086	0.830867	0
96.755760	0.795810	city	9	1	0.899817	0.899817	0	1	0	0	CorrectCommission	0.684980	0.815829	0
97.551697	0.796072	city	8	1	0.997460	0.997460	0	1	0	0	CorrectCommission	1.679575	0.796325	0
98.347633	0.795799	mountain	8	0	0.000000	0.985303	1	0	0	0	CorrectOmission	1.555746	0.772475	0
99.143272	0.795467	mountain	4	1	0.907484	0.907484	0	0	1	0	CommissionError	0.763075	0.744974	0
99.938919	0.795832	city	5	1	0.808139	0.808139	0	1	0	0	CorrectCommission	0.248855	0.715094	0
100.734749	0.795827	city	6	1	0.917730	0.917730	0	1	0	0	CorrectCommission	0.867446	0.684526	0
101.530548	0.795768	mountain	7	0	0.000000	0.901868	1	0	0	0	CorrectOmission	0.705873	0.655131	1
102.326324	0.795788	city	8	1	0.849258	0.849258	0	1	0	0	CorrectCommission	0.169987	0.628771	1
103.122116	0.795797	city	4	1	0.848607	0.848607	0	1	0	0	CorrectCommission	0.163352	0.607115	1
103.917923	0.795811	city	3	1	0.812992	0.812992	0	1	0	0	CorrectCommission	0.199422	0.591375	1
104.713699	0.795751	city	8	1	0.847870	0.847870	0	1	0	0	CorrectCommission	0.155844	0.582295	1
105.509514	0.795866	city	1	1	0.721399	0.721399	0	1	0	0	CorrectCommission	1.132400	0.580001	1
106.305473	0.796056	city	2	1	0.797925	0.797925	0	1	0	0	CorrectCommission	0.352896	0.584042	1
107.101273	0.795551	city	1	1	0.848302	0.848302	0	1	0	0	CorrectCommission	0.160242	0.593566	1
107.896965	0.795822	city	4	1	0.948122	0.948122	0	1	0	0	CorrectCommission	1.177017	0.607341	1
108.692749	0.795758	city	7	1	0.897290	0.897290	0	1	0	0	CorrectCommission	0.659235	0.623863	1
109.488525	0.795790	city	10	1	0.798182	0.798182	0	1	0	0	CorrectCommission	0.350276	0.641567	1
110.284485	0.796124	mountain	1	0	0.000000	0.749583	1	0	0	0	CorrectOmission	0.845314	0.658906	1
111.080299	0.795509	city	6	1	0.749988	0.749988	0	1	0	0	CorrectCommission	0.841188	0.674387	1
111.875946	0.795780	city	4	1	0.797895	0.797895	0	1	0	0	CorrectCommission	0.353208	0.686712	0
112.671753	0.795836	city	1	1	0.797840	0.797840	0	1	0	0	CorrectCommission	0.353762	0.694825	0
113.467575	0.795801	city	5	1	0.996900	0.996900	0	1	0	0	CorrectCommission	1.673871	0.697992	0
114.263336	0.795726	city	10	1	0.797853	0.797853	0	1	0	0	CorrectCommission	0.353636	0.695822	0
115.059143	0.795897	city	6	1	0.947373	0.947373	0	1	0	0	CorrectCommission	1.169383	0.688431	0
115.854996	0.795803	city	1	1	0.947047	0.947047	0	1	0	0	CorrectCommission	1.166064	0.676309	1
116.650932	0.796075	city	7	1	0.904445	0.904445	0	1	0	0	CorrectCommission	0.732117	0.660487	1
117.446739	0.795535	city	1	1	0.848328	0.848328	0	1	0	0	CorrectCommission	0.160511	0.642403	1
118.242378	0.795743	city	9	1	0.897965	0.897965	0	1	0	0	CorrectCommission	0.666115	0.623780	1
119.038155	0.795813	city	8	1	0.847853	0.847853	0	1	0	0	CorrectCommission	0.155667	0.606475	1
119.833939	0.795749	city	2	1	0.997338	0.997338	0	1	0	0	CorrectCommission	1.678332	0.592418	1
120.629745	0.795863	city	8	1	0.848059	0.848059	0	1	0	0	CorrectCommission	0.157770	0.583317	1
121.425568	0.795786	mountain	6	0	0.000000	0.830939	1	0	0	0	CorrectOmission	0.016620	0.580608	1
122.221344	0.795768	city	6	1	0.859563	0.859563	0	1	0	0	CorrectCommission	0.274953	0.585193	1
123.017136	0.795813	mountain	10	1	0.847520	0.847520	0	0	1	0	CommissionError	0.152277	0.597311	1
123.812958	0.795824	city	5	1	0.804755	0.804755	0	1	0	0	CorrectCommission	0.283332	0.616563	1
124.608772	0.795806	city	4	1	0.800651	0.800651	0	1	0	0	CorrectCommission	0.325134	0.641865	1
125.404556	0.795763	city	1	1	0.909671	0.909671	0	1	0	0	CorrectCommission	0.785347	0.671535	1
126.200333	0.795795	city	3	1	0.954293	0.954293	0	1	0	0	CorrectCommission	1.239874	0.703459	0
126.996170	0.795880	city	8	1	0.947145	0.947145	0	1	0	0	CorrectCommission	1.167064	0.735326	0
127.792000	0.795782	city	1	1	0.897426	0.897426	0	1	0	0	CorrectCommission	0.660623	0.764809	0
128.587799	0.795811	city	4	1	0.897553	0.897553	0	1	0	0	CorrectCommission	0.661913	0.789827	0
129.383606	0.795819	city	3	1	0.897981	0.897981	0	1	0	0	CorrectCommission	0.666277	0.808746	0
130.179413	0.795791	city	4	1	0.910818	0.910818	0	1	0	0	CorrectCommission	0.797037	0.820579	0
130.975204	0.795797	city	2	1	0.897254	0.897254	0	1	0	0	CorrectCommission	0.658871	0.825083	0
131.770966	0.795730	city	8	1	1.058703	1.058703	0	1	0	0	CorrectCommission	2.303400	0.822923	0
132.566772	0.795876	city	3	1	0.997123	0.997123	0	1	0	0	CorrectCommission	1.676145	0.815490	0
133.362579	0.795731	city	6	1	0.899710	0.899710	0	1	0	0	CorrectCommission	0.683887	0.804930	0
134.158340	0.795801	mountain	1	0	0.000000	0.846217	1	0	0	0	CorrectOmission	0.139006	0.793838	0
134.954178	0.795862	city	4	1	0.798029	0.798029	0	1	0	0	CorrectCommission	0.351840	0.784898	0
135.750031	0.795840	city	9	1	0.716530	0.716530	0	1	0	0	CorrectCommission	1.181993	0.780495	0
136.545792	0.795700	city	5	1	0.847528	0.847528	0	1	0	0	CorrectCommission	0.152358	0.782417	0
137.341599	0.795894	city	4	1	0.852631	0.852631	0	1	0	0	CorrectCommission	0.204343	0.791543	0
138.137573	0.796070	city	3	1	0.802986	0.802986	0	1	0	0	CorrectCommission	0.301343	0.807726	0
138.933380	0.795529	city	4	1	0.908469	0.908469	0	1	0	0	CorrectCommission	0.773107	0.829735	0
139.729004	0.795722	city	9	1	0.847866	0.847866	0	1	0	0	CorrectCommission	0.155806	0.855408	0
140.524765	0.795797	city	1	1	0.897566	0.897566	0	1	0	0	CorrectCommission	0.662047	0.882035	0
141.320602	0.795891	city	6	1	0.948374	0.948374	0	1	0	0	CorrectCommission	1.179582	0.906655	0
142.116409	0.795727	city	5	1	1.046487	1.046487	0	1	0	0	CorrectCommission	2.178967	0.926553	0
142.912201	0.795857	city	10	1	1.008753	1.008753	0	1	0	0	CorrectCommission	1.794605	0.939661	0
143.708008	0.795734	city	5	1	0.996795	0.996795	0	1	0	0	CorrectCommission	1.672798	0.944899	0
144.503815	0.795885	city	10	1	0.948286	0.948286	0	1	0	0	CorrectCommission	1.178682	0.942282	0
145.299606	0.795718	city	5	1	0.897496	0.897496	0	1	0	0	CorrectCommission	0.661338	0.932932	0
146.095398	0.795849	city	9	1	0.897366	0.897366	0	1	0	0	CorrectCommission	0.660010	0.918888	0
146.891205	0.795776	city	8	1	0.897562	0.897562	0	1	0	0	CorrectCommission	0.662006	0.902771	0
147.687027	0.795860	city	2	1	0.898228	0.898228	0	1	0	0	CorrectCommission	0.668789	0.887413	0
148.482803	0.795708	city	9	1	0.899606	0.899606	0	1	0	0	CorrectCommission	0.682827	0.875496	0
149.278610	0.795880	city	4	1	0.915453	0.915453	0	1	0	0	CorrectCommission	0.844249	0.869118	0
150.074417	0.795755	city	9	1	0.807644	0.807644	0	1	0	0	CorrectCommission	0.253904	0.869647	0
150.870361	0.796120	mountain	8	0	0.000000	0.884687	1	0	0	0	CorrectOmission	0.530864	0.877574	0
151.666168	0.795496	city	1	1	0.947752	0.947752	0	1	0	0	CorrectCommission	1.173243	0.892448	0
152.461792	0.795759	city	7	1	0.798005	0.798005	0	1	0	0	CorrectCommission	0.352079	0.912965	0
153.257599	0.795854	city	3	1	0.705231	0.705231	0	1	0	0	CorrectCommission	1.297087	0.937171	0
154.053406	0.795752	mountain	10	1	0.748173	0.748173	0	0	1	0	CommissionError	0.859672	0.962631	0
154.849182	0.795801	city	9	1	0.748915	0.748915	0	1	0	0	CorrectCommission	0.852114	0.986755	0
155.644989	0.795802	city	10	1	0.699423	0.699423	0	1	0	0	CorrectCommission	1.356245	1.007000	0
156.440811	0.795872	city	2	1	0.706237	0.706237	0	1	0	0	CorrectCommission	1.286832	1.021073	0
157.236664	0.795813	city	7	1	0.712694	0.712694	0	1	0	0	CorrectCommission	1.221067	1.027161	0
158.032440	0.795749	city	1	1	0.658622	0.658622	0	1	0	0	CorrectCommission	1.771841	1.024006	0
158.828201	0.795777	mountain	6	0	0.000000	0.686589	1	0	0	0	CorrectOmission	1.486967	1.010945	0
159.624039	0.795885	city	1	1	0.749136	0.749136	0	1	0	0	CorrectCommission	0.849870	0.987945	0
160.419861	0.795765	city	4	1	0.798801	0.798801	0	1	0	0	CorrectCommission	0.343971	0.955543	0
161.215622	0.795760	city	6	1	0.750642	0.750642	0	1	0	0	CorrectCommission	0.834527	0.914790	0
162.011581	0.796157	city	2	1	0.702331	0.702331	0	1	0	0	CorrectCommission	1.326624	0.867101	0
162.807404	0.795483	city	1	1	0.698623	0.698623	0	1	0	0	CorrectCommission	1.364392	0.814225	0
163.603058	0.795830	city	9	1	0.710405	0.710405	0	1	0	0	CorrectCommission	1.244378	0.758119	0
164.398834	0.795729	city	2	1	0.847565	0.847565	0	1	0	0	CorrectCommission	0.152738	0.700848	0
165.194641	0.795887	city	8	1	0.897368	0.897368	0	1	0	0	CorrectCommission	0.660035	0.644498	1
165.990448	0.795726	city	1	1	0.851668	0.851668	0	1	0	0	CorrectCommission	0.194532	0.590965	1
166.786240	0.795847	city	8	1	0.798053	0.798053	0	1	0	0	CorrectCommission	0.351592	0.541935	1
167.582062	0.795806	city	10	1	0.797778	0.797778	0	1	0	0	CorrectCommission	0.354391	0.498726	1
168.377869	0.795793	city	6	1	0.797998	0.797998	0	1	0	0	CorrectCommission	0.352154	0.462312	1
169.173676	0.795820	city	2	1	0.804933	0.804933	0	1	0	0	CorrectCommission	0.281511	0.433149	1
169.969452	0.795728	city	7	1	0.815765	0.815765	0	1	0	0	CorrectCommission	0.171175	0.411347	1
170.765213	0.795801	city	9	1	0.851913	0.851913	0	1	0	0	CorrectCommission	0.197030	0.396636	1
171.561050	0.795865	city	8	1	0.897659	0.897659	0	1	0	0	CorrectCommission	0.662997	0.388456	1
172.356873	0.795802	city	3	1	0.848237	0.848237	0	1	0	0	CorrectCommission	0.159578	0.386091	1
173.152679	0.795810	mountain	10	0	0.000000	0.822804	1	0	0	0	CorrectOmission	0.099480	0.388771	1
173.948486	0.795807	city	3	1	0.798201	0.798201	0	1	0	0	CorrectCommission	0.350082	0.395741	1
174.744278	0.795772	city	8	1	0.751269	0.751269	0	1	0	0	CorrectCommission	0.828134	0.406341	1
175.540070	0.795816	city	4	1	0.847838	0.847838	0	1	0	0	CorrectCommission	0.155520	0.420036	1
176.335892	0.795803	city	9	1	0.909259	0.909259	0	1	0	0	CorrectCommission	0.781155	0.436472	1
177.131699	0.795839	city	1	1	0.866459	0.866459	0	1	0	0	CorrectCommission	0.345195	0.455307	1
177.927475	0.795699	city	9	1	0.897770	0.897770	0	1	0	0	CorrectCommission	0.664126	0.476260	1
178.723282	0.795901	city	6	1	0.847630	0.847630	0	1	0	0	CorrectCommission	0.153398	0.498914	1
179.519119	0.795778	city	7	1	0.801818	0.801818	0	1	0	0	CorrectCommission	0.313243	0.522743	1
180.314911	0.795803	city	8	1	0.866306	0.866306	0	1	0	0	CorrectCommission	0.343633	0.547003	1
181.110687	0.795758	city	7	1	0.810422	0.810422	0	1	0	0	CorrectCommission	0.225599	0.570755	1
181.906631	0.796140	mountain	3	0	0.000000	0.761840	1	0	0	0	CorrectOmission	0.720457	0.592975	1
182.702438	0.795481	city	10	1	0.810604	0.810604	0	1	0	0	CorrectCommission	0.223753	0.612599	1
183.498093	0.795826	city	6	1	1.046756	1.046756	0	1	0	0	CorrectCommission	2.181703	0.628780	1
184.294067	0.796100	city	8	1	0.859512	0.859512	0	1	0	0	CorrectCommission	0.274430	0.640838	1
185.089859	0.795505	mountain	1	0	0.000000	0.732899	1	0	0	0	CorrectOmission	1.015253	0.648614	1
185.885529	0.795824	city	5	1	0.715943	0.715943	0	1	0	0	CorrectCommission	1.187974	0.652274	1
186.681320	0.795753	city	9	1	0.857667	0.857667	0	1	0	0	CorrectCommission	0.255639	0.652395	1
187.477081	0.795789	city	10	1	0.753924	0.753924	0	1	0	0	CorrectCommission	0.801097	0.649884	1
188.272919	0.795873	mountain	5	0	0.000000	0.783846	1	0	0	0	CorrectOmission	0.496305	0.645751	1
189.068710	0.795710	city	5	1	0.848333	0.848333	0	1	0	0	CorrectCommission	0.160560	0.641058	1
189.864487	0.795842	city	7	1	0.848282	0.848282	0	1	0	0	CorrectCommission	0.160044	0.636707	1
190.660294	0.795773	city	8	1	0.752537	0.752537	0	1	0	0	CorrectCommission	0.815223	0.633357	1
191.456100	0.795834	mountain	6	1	0.699596	0.699596	0	0	1	0	CommissionError	1.354479	0.631334	1
192.251938	0.795843	city	5	1	0.797824	0.797824	0	1	0	0	CorrectCommission	0.353927	0.630665	1
193.047882	0.796067	city	10	1	0.860543	0.860543	0	1	0	0	CorrectCommission	0.284936	0.631150	1
193.843674	0.795488	city	3	1	0.847888	0.847888	0	1	0	0	CorrectCommission	0.156027	0.632379	1
194.639313	0.795801	city	7	1	0.947691	0.947691	0	1	0	0	CorrectCommission	1.172629	0.633845	1
195.435089	0.795744	city	4	1	0.959502	0.959502	0	1	0	0	CorrectCommission	1.292933	0.634974	1
196.230865	0.795807	city	10	1	0.898095	0.898095	0	1	0	0	CorrectCommission	0.667440	0.635332	1
197.026688	0.795838	city	7	1	0.847887	0.847887	0	1	0	0	CorrectCommission	0.156015	0.634622	1
197.822510	0.795803	city	8	1	0.848056	0.848056	0	1	0	0	CorrectCommission	0.157742	0.632730	1
198.618301	0.795790	city	5	1	0.948071	0.948071	0	1	0	0	CorrectCommission	1.176499	0.629751	1
199.414124	0.795844	city	4	1	0.897585	0.897585	0	1	0	0	CorrectCommission	0.662239	0.625869	1
200.209915	0.795748	city	6	1	0.897694	0.897694	0	1	0	0	CorrectCommission	0.663357	0.621521	1
201.005707	0.795840	mountain	2	0	0.000000	0.902169	1	0	0	0	CorrectOmission	0.708932	0.617189	1
201.801498	0.795754	mountain	1	0	0.000000	0.897741	1	0	0	0	CorrectOmission	0.663832	0.613462	1
202.597443	0.796137	mountain	9	0	0.000000	0.871145	1	0	0	0	CorrectOmission	0.392927	0.610908	1
203.393250	0.795469	city	4	1	0.809115	0.809115	0	1	0	0	CorrectCommission	0.238915	0.610060	1
204.188919	0.795877	city	10	1	0.698384	0.698384	0	1	0	0	CorrectCommission	1.366825	0.611330	1
204.984894	0.796052	city	7	1	0.847561	0.847561	0	1	0	0	CorrectCommission	0.152700	0.614876	1
205.780655	0.795487	city	2	1	0.798570	0.798570	0	1	0	0	CorrectCommission	0.346326	0.620710	1
206.576324	0.795848	city	9	1	0.848626	0.848626	0	1	0	0	CorrectCommission	0.163550	0.628558	1
207.372284	0.796071	city	7	1	0.947652	0.947652	0	1	0	0	CorrectCommission	1.172226	0.637906	1
208.168228	0.795813	city	6	1	0.848057	0.848057	0	1	0	0	CorrectCommission	0.157754	0.647979	1
208.963867	0.795459	city	4	1	0.960587	0.960587	0	1	0	0	CorrectCommission	1.303981	0.657906	1
209.759537	0.795887	mountain	9	0	0.000000	0.906744	1	0	0	0	CorrectOmission	0.755534	0.666677	1
210.555389	0.795806	city	7	1	0.798742	0.798742	0	1	0	0	CorrectCommission	0.344576	0.673362	1
211.351181	0.795801	city	8	1	0.748795	0.748795	0	1	0	0	CorrectCommission	0.853338	0.677139	1
212.146957	0.795741	city	9	1	0.797830	0.797830	0	1	0	0	CorrectCommission	0.353869	0.677315	1
212.942764	0.795872	city	4	1	0.748431	0.748431	0	1	0	0	CorrectCommission	0.857046	0.673486	1
213.738556	0.795716	city	8	1	0.650502	0.650502	0	1	0	0	CorrectCommission	1.854555	0.665535	1
214.534332	0.795837	city	3	1	0.798128	0.798128	0	1	0	0	CorrectCommission	0.350828	0.653678	1
215.330170	0.795831	city	9	1	0.798667	0.798667	0	1	0	0	CorrectCommission	0.345344	0.638542	1
216.125946	0.795726	city	5	1	0.748699	0.748699	0	1	0	0	CorrectCommission	0.854320	0.620938	1
216.921890	0.796149	city	2	1	0.798068	0.798068	0	1	0	0	CorrectCommission	0.351445	0.601902	1
217.717712	0.795500	city	9	1	0.847329	0.847329	0	1	0	0	CorrectCommission	0.150336	0.582614	1
218.513382	0.795836	city	2	1	0.948599	0.948599	0	1	0	0	CorrectCommission	1.181879	0.564287	1
219.309174	0.795769	city	9	1	0.898318	0.898318	0	1	0	0	CorrectCommission	0.669711	0.548020	1
220.104950	0.795771	city	1	1	0.863843	0.863843	0	1	0	0	CorrectCommission	0.318543	0.534810	1
220.900726	0.795793	city	10	1	0.847487	0.847487	0	1	0	0	CorrectCommission	0.151941	0.525457	1
221.696564	0.795862	city	9	1	0.898173	0.898173	0	1	0	0	CorrectCommission	0.668231	0.520467	1
222.492355	0.795736	city	2	1	0.847523	0.847523	0	1	0	0	CorrectCommission	0.152308	0.520066	1
223.288162	0.795888	city	10	1	0.810576	0.810576	0	1	0	0	CorrectCommission	0.224035	0.524248	1
224.083984	0.795758	city	3	1	0.798119	0.798119	0	1	0	0	CorrectCommission	0.350921	0.532769	1
224.879776	0.795801	city	9	1	0.798058	0.798058	0	1	0	0	CorrectCommission	0.351541	0.545142	1
225.675598	0.795849	city	10	1	0.749053	0.749053	0	1	0	0	CorrectCommission	0.850706	0.560812	1
226.471375	0.795721	city	7	1	0.713738	0.713738	0	1	0	0	CorrectCommission	1.210435	0.579078	1
227.267136	0.795783	city	10	1	0.754277	0.754277	0	1	0	0	CorrectCommission	0.797495	0.599185	1
228.062943	0.795850	city	4	1	0.798453	0.798453	0	1	0	0	CorrectCommission	0.347515	0.620378	1
228.858795	0.795835	city	10	1	0.814456	0.814456	0	1	0	0	CorrectCommission	0.184508	0.641798	1
229.654602	0.795803	city	8	1	0.898239	0.898239	0	1	0	0	CorrectCommission	0.668904	0.662524	1
230.450409	0.795790	city	5	1	0.897428	0.897428	0	1	0	0	CorrectCommission	0.660643	0.681525	0
231.246201	0.795793	city	9	1	0.798386	0.798386	0	1	0	0	CorrectCommission	0.348202	0.697698	0
232.041992	0.795792	city	5	1	0.748396	0.748396	0	1	0	0	CorrectCommission	0.857405	0.710013	0
232.837799	0.795814	city	4	1	0.766867	0.766867	0	1	0	0	CorrectCommission	0.669254	0.717538	0
233.633743	0.796100	city	3	1	0.698445	0.698445	0	1	0	0	CorrectCommission	1.366202	0.719589	0
234.429520	0.795440	city	1	1	0.698939	0.698939	0	1	0	0	CorrectCommission	1.361173	0.715819	0
235.225143	0.795820	city	2	1	0.748084	0.748084	0	1	0	0	CorrectCommission	0.860582	0.706361	0
236.020981	0.795837	city	5	1	0.748126	0.748126	0	1	0	0	CorrectCommission	0.860151	0.691820	0
236.816818	0.795843	city	1	1	0.748397	0.748397	0	1	0	0	CorrectCommission	0.857387	0.673269	1
237.612640	0.795790	city	5	1	0.814049	0.814049	0	1	0	0	CorrectCommission	0.188657	0.652166	1
238.408417	0.795782	city	1	1	0.797797	0.797797	0	1	0	0	CorrectCommission	0.354202	0.630243	1
239.204224	0.795816	city	4	1	0.897716	0.897716	0	1	0	0	CorrectCommission	0.663581	0.609290	1
240.000000	0.795758	city	8	1	0.847502	0.847502	0	1	0	0	CorrectCommission	0.152093	0.591043	1
240.795807	0.795828	city	10	1	0.760787	0.760787	0	1	0	0	CorrectCommission	0.731186	0.577062	1
241.591766	0.796105	mountain	4	0	0.000000	0.754630	1	0	0	0	CorrectOmission	0.793902	0.568554	1
242.387543	0.795456	city	8	1	0.807536	0.807536	0	1	0	0	CorrectCommission	0.254996	0.566385	1
243.183197	0.795834	city	4	1	0.898012	0.898012	0	1	0	0	CorrectCommission	0.666592	0.570999	1
243.979034	0.795849	city	7	1	0.847629	0.847629	0	1	0	0	CorrectCommission	0.153389	0.582357	1
244.774841	0.795777	city	10	1	0.802352	0.802352	0	1	0	0	CorrectCommission	0.307806	0.600028	1
245.570602	0.795740	city	4	1	0.802113	0.802113	0	1	0	0	CorrectCommission	0.310236	0.623162	1
246.366409	0.795882	city	5	1	0.798398	0.798398	0	1	0	0	CorrectCommission	0.348082	0.650531	1
247.162216	0.795728	city	2	1	0.749067	0.749067	0	1	0	0	CorrectCommission	0.850564	0.680613	0
247.957977	0.795773	city	10	1	0.699546	0.699546	0	1	0	0	CorrectCommission	1.354991	0.711673	0
248.753769	0.795831	city	6	1	0.711740	0.711740	0	1	0	0	CorrectCommission	1.230787	0.741876	0
249.549759	0.796153	city	7	1	0.757414	0.757414	0	1	0	0	CorrectCommission	0.765549	0.769422	0
250.345581	0.795469	mountain	6	0	0.000000	0.802701	1	0	0	0	CorrectOmission	0.304247	0.792598	0
251.141205	0.795799	city	4	1	0.812679	0.812679	0	1	0	0	CorrectCommission	0.202611	0.809919	0
251.937027	0.795848	city	10	1	0.752424	0.752424	0	1	0	0	CorrectCommission	0.816371	0.820195	0
252.732849	0.795797	city	1	1	0.698393	0.698393	0	1	0	0	CorrectCommission	1.366738	0.822688	0
253.528656	0.795796	city	10	1	0.698260	0.698260	0	1	0	0	CorrectCommission	1.368095	0.817211	0
254.324432	0.795754	mountain	8	1	0.656960	0.656960	0	0	1	0	CommissionError	1.788769	0.804181	0
255.120209	0.795799	mountain	1	0	0.000000	0.692739	1	0	0	0	CorrectOmission	1.424332	0.784639	0
255.916046	0.795887	city	8	1	0.768570	0.768570	0	1	0	0	CorrectCommission	0.651911	0.760152	0
256.711884	0.795787	city	9	1	0.847431	0.847431	0	1	0	0	CorrectCommission	0.151368	0.732685	0
257.507660	0.795762	mountain	3	0	0.000000	0.858468	1	0	0	0	CorrectOmission	0.263801	0.704381	0
258.303406	0.795746	city	5	1	0.848256	0.848256	0	1	0	0	CorrectCommission	0.159778	0.677305	1
259.099182	0.795811	city	1	1	0.863366	0.863366	0	1	0	0	CorrectCommission	0.313689	0.653265	1
259.895020	0.795869	city	9	1	0.748617	0.748617	0	1	0	0	CorrectCommission	0.855154	0.633666	1
260.690857	0.795798	city	8	1	0.702433	0.702433	0	1	0	0	CorrectCommission	1.325580	0.619325	1
261.486664	0.795820	city	9	1	0.849001	0.849001	0	1	0	0	CorrectCommission	0.167367	0.610490	1
262.282501	0.795807	mountain	3	0	0.000000	0.847519	1	0	0	0	CorrectOmission	0.152267	0.606888	1
263.078278	0.795788	city	6	1	0.798060	0.798060	0	1	0	0	CorrectCommission	0.351526	0.607712	1
263.874084	0.795820	city	9	1	0.800697	0.800697	0	1	0	0	CorrectCommission	0.324658	0.611742	1
264.669861	0.795750	city	5	1	0.698396	0.698396	0	1	0	0	CorrectCommission	1.366701	0.617509	1
265.465637	0.795762	city	2	1	0.798125	0.798125	0	1	0	0	CorrectCommission	0.350862	0.623394	1
266.261444	0.795881	city	1	1	0.748209	0.748209	0	1	0	0	CorrectCommission	0.859308	0.627916	1
267.057281	0.795794	city	7	1	0.798425	0.798425	0	1	0	0	CorrectCommission	0.347809	0.629729	1
267.853058	0.795726	city	3	1	0.757500	0.757500	0	1	0	0	CorrectCommission	0.764665	0.627855	1
268.648804	0.795793	city	2	1	0.713290	0.713290	0	1	0	0	CorrectCommission	1.214996	0.621714	1
269.444611	0.795819	city	5	1	0.768051	0.768051	0	1	0	0	CorrectCommission	0.657197	0.611141	1
270.240448	0.795833	city	7	1	0.947547	0.947547	0	1	0	0	CorrectCommission	1.171162	0.596469	1
271.036255	0.795823	city	10	1	0.810005	0.810005	0	1	0	0	CorrectCommission	0.229849	0.578376	1
271.832092	0.795816	mountain	9	0	0.000000	0.781249	1	0	0	0	CorrectOmission	0.522756	0.557896	1
272.627869	0.795732	city	2	1	0.798218	0.798218	0	1	0	0	CorrectCommission	0.349915	0.536261	1
273.423706	0.795944	city	3	1	0.797848	0.797848	0	1	0	0	CorrectCommission	0.353682	0.514837	1
274.219513	0.795712	city	10	1	0.798102	0.798102	0	1	0	0	CorrectCommission	0.351097	0.495007	1
275.015289	0.795822	city	5	1	0.748349	0.748349	0	1	0	0	CorrectCommission	0.857880	0.478041	1
275.811096	0.795790	city	7	1	0.863245	0.863245	0	1	0	0	CorrectCommission	0.312458	0.465009	1
276.606873	0.795778	city	3	1	0.848618	0.848618	0	1	0	0	CorrectCommission	0.163460	0.456736	1
277.402832	0.796112	city	1	1	0.863371	0.863371	0	1	0	0	CorrectCommission	0.313740	0.453688	1
278.198608	0.795475	city	9	1	0.897988	0.897988	0	1	0	0	CorrectCommission	0.666350	0.455936	1
278.994415	0.796121	city	6	1	0.848408	0.848408	0	1	0	0	CorrectCommission	0.161329	0.463186	1
279.790222	0.795489	city	5	1	0.812192	0.812192	0	1	0	0	CorrectCommission	0.207572	0.474774	1
280.585876	0.795787	city	8	1	0.798596	0.798596	0	1	0	0	CorrectCommission	0.346066	0.489707	1
281.381653	0.795789	city	2	1	0.901611	0.901611	0	1	0	0	CorrectCommission	0.703251	0.506795	1
282.177490	0.795884	city	10	1	0.847617	0.847617	0	1	0	0	CorrectCommission	0.153265	0.524709	1
282.973297	0.795750	city	5	1	0.847954	0.847954	0	1	0	0	CorrectCommission	0.156698	0.542241	1
283.769104	0.795839	city	6	1	0.947143	0.947143	0	1	0	0	CorrectCommission	1.167041	0.558340	1
284.564911	0.795781	city	8	1	0.758561	0.758561	0	1	0	0	CorrectCommission	0.753859	0.572250	1
285.360718	0.795821	city	6	1	0.666147	0.666147	0	1	0	0	CorrectCommission	1.695190	0.583647	1
286.156525	0.795821	mountain	3	0	0.000000	0.750152	1	0	0	0	CorrectOmission	0.839518	0.592526	1
286.952301	0.795722	city	3	1	0.848219	0.848219	0	1	0	0	CorrectCommission	0.159401	0.599291	1
287.748077	0.795849	city	7	1	0.797994	0.797994	0	1	0	0	CorrectCommission	0.352191	0.604528	1
288.543915	0.795793	city	10	1	0.847887	0.847887	0	1	0	0	CorrectCommission	0.156022	0.608891	1
289.339722	0.795828	city	5	1	0.798094	0.798094	0	1	0	0	CorrectCommission	0.351181	0.613007	1
290.135529	0.795801	city	1	1	0.797815	0.797815	0	1	0	0	CorrectCommission	0.354023	0.617266	1
290.931305	0.795772	city	5	1	0.748718	0.748718	0	1	0	0	CorrectCommission	0.854125	0.621839	1
291.727112	0.795842	city	8	1	0.897596	0.897596	0	1	0	0	CorrectCommission	0.662351	0.626644	1
292.522919	0.795716	city	1	1	0.904744	0.904744	0	1	0	0	CorrectCommission	0.735169	0.631408	1
293.318695	0.795856	mountain	10	0	0.000000	0.944209	1	0	0	0	CorrectOmission	1.137157	0.635733	1
294.114502	0.795753	city	3	1	0.947883	0.947883	0	1	0	0	CorrectCommission	1.174584	0.639155	1
294.910309	0.795843	city	10	1	0.847662	0.847662	0	1	0	0	CorrectCommission	0.153721	0.641207	1
295.706116	0.795792	mountain	4	0	0.000000	0.855717	1	0	0	0	CorrectOmission	0.235776	0.641497	1
296.502075	0.796110	city	7	1	0.897166	0.897166	0	1	0	0	CorrectCommission	0.657971	0.639640	1
297.298035	0.795813	city	9	1	0.897122	0.897122	0	1	0	0	CorrectCommission	0.657529	0.635304	1
298.093658	0.795432	mountain	5	0	0.000000	0.899142	1	0	0	0	CorrectOmission	0.678100	0.628235	1
298.889282	0.795855	mountain	6	0	0.000000	0.903679	1	0	0	0	CorrectOmission	0.724318	0.618233	1
299.685150	0.795853	city	3	1	0.911189	0.911189	0	1	0	0	CorrectCommission	0.800812	0.605236	1
300.480957	0.795758	mountain	2	0	0.000000	0.922125	1	0	0	0	CorrectOmission	0.912214	0.589291	1
301.276733	0.795788	city	10	1	0.897615	0.897615	0	1	0	0	CorrectCommission	0.662547	0.570562	1
302.072510	0.795762	city	3	1	0.798782	0.798782	0	1	0	0	CorrectCommission	0.344167	0.549426	1
302.868317	0.795854	city	4	1	0.813731	0.813731	0	1	0	0	CorrectCommission	0.191894	0.526415	1
303.664124	0.795748	city	1	1	0.798244	0.798244	0	1	0	0	CorrectCommission	0.349649	0.502240	1
304.459900	0.795855	city	9	1	0.996810	0.996810	0	1	0	0	CorrectCommission	1.672949	0.477766	1
305.255768	0.795837	city	6	1	0.853763	0.853763	0	1	0	0	CorrectCommission	0.215873	0.453884	1
306.051544	0.795758	mountain	10	0	0.000000	0.827109	1	0	0	0	CorrectOmission	0.055624	0.431594	1
306.847351	0.795844	city	5	1	0.848318	0.848318	0	1	0	0	CorrectCommission	0.160404	0.411759	1
307.643127	0.795729	city	3	1	0.848857	0.848857	0	1	0	0	CorrectCommission	0.165899	0.395235	1
308.438904	0.795790	city	8	1	0.799724	0.799724	0	1	0	0	CorrectCommission	0.334575	0.382531	1
309.234741	0.795886	city	10	1	0.797907	0.797907	0	1	0	0	CorrectCommission	0.353081	0.373991	1
310.030548	0.795738	city	7	1	0.847816	0.847816	0	1	0	0	CorrectCommission	0.155296	0.369776	1
310.826355	0.795872	city	4	1	0.897385	0.897385	0	1	0	0	CorrectCommission	0.660204	0.369882	1
311.622162	0.795728	city	3	1	0.847938	0.847938	0	1	0	0	CorrectCommission	0.156538	0.374210	1
312.417908	0.795771	mountain	6	0	0.000000	0.811590	1	0	0	0	CorrectOmission	0.213702	0.382703	1
313.213715	0.795829	city	2	1	0.805710	0.805710	0	1	0	0	CorrectCommission	0.273599	0.395307	1
314.009521	0.795818	city	5	1	0.847666	0.847666	0	1	0	0	CorrectCommission	0.153768	0.412020	1
314.805359	0.795819	city	4	1	0.947000	0.947000	0	1	0	0	CorrectCommission	1.165584	0.432889	1
315.601135	0.795745	city	5	1	0.897213	0.897213	0	1	0	0	CorrectCommission	0.658455	0.457883	1
316.396942	0.795870	city	7	1	0.849661	0.849661	0	1	0	0	CorrectCommission	0.174087	0.486875	1
317.192780	0.795842	city	3	1	0.798245	0.798245	0	1	0	0	CorrectCommission	0.349639	0.519495	1
317.988556	0.795695	city	2	1	0.798320	0.798320	0	1	0	0	CorrectCommission	0.348875	0.554985	1
318.784302	0.795811	city	9	1	0.847632	0.847632	0	1	0	0	CorrectCommission	0.153418	0.592179	1
319.580170	0.795898	mountain	1	1	0.798153	0.798153	0	0	1	0	CommissionError	0.350576	0.629529	1
320.375977	0.795698	city	7	1	0.797870	0.797870	0	1	0	0	CorrectCommission	0.353455	0.665176	1
321.171753	0.795892	city	1	1	0.817134	0.817134	0	1	0	0	CorrectCommission	0.157230	0.697174	0
321.967590	0.795785	city	10	1	0.859188	0.859188	0	1	0	0	CorrectCommission	0.271134	0.723716	0
322.763367	0.795737	mountain	5	1	0.351029	0.351029	0	0	1	0	CommissionError	4.905003	0.743430	0
323.559174	0.795885	city	1	1	0.798145	0.798145	0	1	0	0	CorrectCommission	0.350655	0.755404	0
324.355011	0.795800	city	10	1	0.798874	0.798874	0	1	0	0	CorrectCommission	0.343231	0.759800	0
325.150940	0.796081	city	3	1	0.763136	0.763136	0	1	0	0	CorrectCommission	0.707265	0.757395	0
325.946747	0.795480	city	7	1	0.798692	0.798692	0	1	0	0	CorrectCommission	0.345088	0.749601	0
326.742371	0.795796	city	3	1	0.748142	0.748142	0	1	0	0	CorrectCommission	0.859994	0.738295	0
327.538177	0.795822	city	5	1	0.749393	0.749393	0	1	0	0	CorrectCommission	0.847246	0.725481	0
328.333984	0.795778	city	10	1	0.807569	0.807569	0	1	0	0	CorrectCommission	0.254669	0.713046	0
329.129761	0.795786	city	4	1	0.867294	0.867294	0	1	0	0	CorrectCommission	0.353698	0.702528	0
329.925568	0.795850	city	3	1	0.759097	0.759097	0	1	0	0	CorrectCommission	0.748399	0.694882	0
330.721405	0.795815	city	9	1	0.760731	0.760731	0	1	0	0	CorrectCommission	0.731758	0.690394	0
331.517212	0.795761	city	3	1	0.798023	0.798023	0	1	0	0	CorrectCommission	0.351896	0.688727	0
332.312988	0.795797	city	1	1	0.760993	0.760993	0	1	0	0	CorrectCommission	0.729094	0.688957	0
333.108765	0.795770	city	6	1	0.901401	0.901401	0	1	0	0	CorrectCommission	0.701112	0.689748	0
333.904602	0.795882	city	1	1	0.897529	0.897529	0	1	0	0	CorrectCommission	0.661675	0.689562	0
334.700409	0.795765	city	5	1	0.748956	0.748956	0	1	0	0	CorrectCommission	0.851703	0.686872	0
335.496185	0.795780	city	10	1	0.748173	0.748173	0	1	0	0	CorrectCommission	0.859673	0.680383	1
336.291992	0.795839	city	5	1	0.748097	0.748097	0	1	0	0	CorrectCommission	0.860451	0.669211	1
337.087799	0.795789	city	10	1	0.698394	0.698394	0	1	0	0	CorrectCommission	1.366728	0.652996	1
337.883606	0.795809	city	8	1	0.748811	0.748811	0	1	0	0	CorrectCommission	0.853179	0.631936	1
338.679413	0.795782	city	9	1	0.798843	0.798843	0	1	0	0	CorrectCommission	0.343552	0.606828	1
339.475189	0.795810	city	1	1	0.847482	0.847482	0	1	0	0	CorrectCommission	0.151893	0.578989	1
340.270996	0.795796	city	7	1	0.897333	0.897333	0	1	0	0	CorrectCommission	0.659675	0.549936	1
341.066803	0.795821	city	2	1	0.897396	0.897396	0	1	0	0	CorrectCommission	0.660314	0.521487	1
341.862762	0.796095	city	7	1	0.897586	0.897586	0	1	0	0	CorrectCommission	0.662255	0.495486	1
342.658569	0.795505	city	6	1	0.847581	0.847581	0	1	0	0	CorrectCommission	0.152903	0.473636	1
343.454224	0.795789	city	10	1	0.798853	0.798853	0	1	0	0	CorrectCommission	0.343441	0.457390	1
344.250031	0.795838	city	6	1	0.848994	0.848994	0	1	0	0	CorrectCommission	0.167296	0.447778	1
345.045837	0.795753	city	9	1	0.848034	0.848034	0	1	0	0	CorrectCommission	0.157514	0.445391	1
345.841766	0.796119	city	2	1	0.848965	0.848965	0	1	0	0	CorrectCommission	0.166995	0.450354	1
346.637604	0.795550	city	7	1	0.805487	0.805487	0	1	0	0	CorrectCommission	0.275869	0.462357	1
347.433228	0.795699	city	8	1	0.798763	0.798763	0	1	0	0	CorrectCommission	0.344363	0.480786	1
348.229126	0.796143	city	10	1	0.748408	0.748408	0	1	0	0	CorrectCommission	0.857278	0.504843	1
349.024963	0.795474	city	1	1	0.797609	0.797609	0	1	0	0	CorrectCommission	0.356115	0.533713	1
349.820587	0.795804	city	8	1	0.798172	0.798172	0	1	0	0	CorrectCommission	0.350383	0.566731	1
350.616577	0.796154	city	9	1	0.748150	0.748150	0	1	0	0	CorrectCommission	0.859910	0.603486	1
351.412384	0.795508	city	6	1	0.766102	0.766102	0	1	0	0	CorrectCommission	0.677044	0.643858	1
352.208008	0.795724	city	2	1	0.755641	0.755641	0	1	0	0	CorrectCommission	0.783605	0.688001	0
353.003784	0.795838	city	1	1	0.748436	0.748436	0	1	0	0	CorrectCommission	0.856991	0.736196	0
353.799652	0.795868	city	8	1	0.748166	0.748166	0	1	0	0	CorrectCommission	0.859746	0.788686	0
354.595428	0.795694	city	7	1	0.754184	0.754184	0	1	0	0	CorrectCommission	0.798445	0.845461	0
355.391235	0.795899	city	9	1	0.764064	0.764064	0	1	0	0	CorrectCommission	0.697811	0.906041	0
356.187225	0.796078	city	7	1	0.798005	0.798005	0	1	0	0	CorrectCommission	0.352084	0.969305	0
356.983002	0.795507	city	5	1	0.847125	0.847125	0	1	0	0	CorrectCommission	0.148251	1.033484	0
357.778625	0.795736	city	6	1	0.910675	0.910675	0	1	0	0	CorrectCommission	0.795583	1.096202	0
358.574402	0.795790	city	5	1	0.947361	0.947361	0	1	0	0	CorrectCommission	1.169268	1.154661	0
359.370209	0.795872	city	4	1	0.996896	0.996896	0	1	0	0	CorrectCommission	1.673830	1.206050	0
360.166046	0.795789	city	9	1	1.046726	1.046726	0	1	0	0	CorrectCommission	2.181404	1.247935	0
360.961823	0.795737	city	8	1	1.047237	1.047237	0	1	0	0	CorrectCommission	2.186604	1.278652	0
361.757629	0.795906	city	7	1	0.997274	0.997274	0	1	0	0	CorrectCommission	1.677678	1.297605	0
362.553436	0.795700	city	4	1	1.064418	1.064418	0	1	0	0	CorrectCommission	2.361615	1.305401	0
363.349243	0.795891	city	8	1	1.014377	1.014377	0	1	0	0	CorrectCommission	1.851897	1.303761	0
364.145050	0.795770	city	6	1	0.947315	0.947315	0	1	0	0	CorrectCommission	1.168791	1.295380	0
364.940979	0.796088	city	9	1	0.849711	0.849711	0	1	0	0	CorrectCommission	0.174601	1.283522	0
365.736816	0.795532	city	6	1	0.897495	0.897495	0	1	0	0	CorrectCommission	0.661325	1.271508	0
366.532471	0.795809	city	3	1	0.948054	0.948054	0	1	0	0	CorrectCommission	1.176321	1.262244	0
367.328278	0.795826	mountain	10	0	0.000000	0.931089	1	0	0	0	CorrectOmission	1.003519	1.257961	0
368.124115	0.795792	city	7	1	0.897262	0.897262	0	1	0	0	CorrectCommission	0.658958	1.259950	0
368.919891	0.795809	city	6	1	0.897235	0.897235	0	1	0	0	CorrectCommission	0.658680	1.268506	0
369.715668	0.795734	city	4	1	0.996899	0.996899	0	1	0	0	CorrectCommission	1.673863	1.282997	0
370.511475	0.795867	city	9	1	0.996775	0.996775	0	1	0	0	CorrectCommission	1.672601	1.302012	0
371.307312	0.795790	city	5	1	0.947267	0.947267	0	1	0	0	CorrectCommission	1.168311	1.323710	0
372.103058	0.795727	city	6	1	1.003722	1.003722	0	1	0	0	CorrectCommission	1.743362	1.346072	0
372.898834	0.795849	city	1	1	1.046734	1.046734	0	1	0	0	CorrectCommission	2.181479	1.367108	0
373.694672	0.795769	city	6	1	0.948141	0.948141	0	1	0	0	CorrectCommission	1.177213	1.385012	0
374.490479	0.795852	city	10	1	0.959887	0.959887	0	1	0	0	CorrectCommission	1.296858	1.398366	0
375.286255	0.795729	city	3	1	0.947426	0.947426	0	1	0	0	CorrectCommission	1.169922	1.406016	0
376.082031	0.795804	city	10	1	0.999087	0.999087	0	1	0	0	CorrectCommission	1.696147	1.407128	0
376.877869	0.795861	city	6	1	0.967182	0.967182	0	1	0	0	CorrectCommission	1.371159	1.401154	0
377.673645	0.795740	city	8	1	0.897709	0.897709	0	1	0	0	CorrectCommission	0.663512	1.387792	0
378.469452	0.795864	city	5	1	0.947792	0.947792	0	1	0	0	CorrectCommission	1.173654	1.367038	0
379.265259	0.795764	city	6	1	1.046522	1.046522	0	1	0	0	CorrectCommission	2.179320	1.339135	0
380.061066	0.795803	city	7	1	1.145980	1.145980	0	1	0	0	CorrectCommission	3.192407	1.304624	0
380.856873	0.795805	city	10	1	0.997131	0.997131	0	1	0	0	CorrectCommission	1.676228	1.264325	0
381.652832	0.796121	mountain	8	0	0.000000	0.847519	1	0	0	0	CorrectOmission	0.152273	1.219411	0
382.448639	0.795492	city	8	1	0.747765	0.747765	0	1	0	0	CorrectCommission	0.863827	1.171253	0
383.244263	0.795762	city	5	1	0.748491	0.748491	0	1	0	0	CorrectCommission	0.856438	1.121191	0
384.040070	0.795885	city	8	1	0.748223	0.748223	0	1	0	0	CorrectCommission	0.859162	1.070511	0
384.835938	0.795817	city	4	1	0.947815	0.947815	0	1	0	0	CorrectCommission	1.173886	1.020349	0
385.631714	0.795747	city	9	1	0.897559	0.897559	0	1	0	0	CorrectCommission	0.661977	0.971616	0
386.427490	0.795824	city	6	1	0.910838	0.910838	0	1	0	0	CorrectCommission	0.797238	0.925015	0
387.223450	0.796092	city	10	1	0.915433	0.915433	0	1	0	0	CorrectCommission	0.844047	0.881085	0
388.019257	0.795527	city	8	1	1.006340	1.006340	0	1	0	0	CorrectCommission	1.770024	0.840247	0
388.814941	0.795804	mountain	8	0	0.000000	0.884246	1	0	0	0	CorrectOmission	0.526377	0.802892	0
389.610870	0.796051	city	8	1	0.748457	0.748457	0	1	0	0	CorrectCommission	0.856785	0.769540	0
390.406799	0.795834	city	1	1	0.798273	0.798273	0	1	0	0	CorrectCommission	0.349353	0.740708	0
391.202454	0.795442	city	3	1	0.847898	0.847898	0	1	0	0	CorrectCommission	0.156134	0.717035	0
391.998230	0.796131	city	6	1	0.966439	0.966439	0	1	0	0	CorrectCommission	1.363591	0.699118	0
392.794189	0.795825	city	9	1	0.847350	0.847350	0	1	0	0	CorrectCommission	0.150550	0.687375	0
393.590027	0.795813	city	7	1	0.896967	0.896967	0	1	0	0	CorrectCommission	0.655948	0.682088	0
394.385681	0.795521	city	2	1	0.847612	0.847612	0	1	0	0	CorrectCommission	0.153220	0.683065	0
395.181305	0.795727	city	7	1	0.947198	0.947198	0	1	0	0	CorrectCommission	1.167602	0.689720	0
395.977112	0.795852	city	1	1	0.797779	0.797779	0	1	0	0	CorrectCommission	0.354386	0.700913	0
396.772919	0.795784	city	7	1	0.797769	0.797769	0	1	0	0	CorrectCommission	0.354491	0.715086	0
397.568726	0.795815	city	6	1	0.897337	0.897337	0	1	0	0	CorrectCommission	0.659716	0.730269	0
398.364685	0.796104	city	8	1	0.899177	0.899177	0	1	0	0	CorrectCommission	0.678455	0.744296	0
399.160492	0.795516	city	10	1	0.897274	0.897274	0	1	0	0	CorrectCommission	0.659072	0.755101	0
399.956116	0.795753	city	6	1	0.948102	0.948102	0	1	0	0	CorrectCommission	1.176813	0.760879	0
400.751923	0.795869	city	7	1	0.961474	0.961474	0	1	0	0	CorrectCommission	1.313025	0.760299	0
401.547913	0.796067	city	2	1	0.900103	0.900103	0	1	0	0	CorrectCommission	0.687889	0.752781	0
402.343658	0.795465	city	7	1	1.046262	1.046262	0	1	0	0	CorrectCommission	2.176678	0.738589	0
403.139282	0.795770	city	10	1	0.948068	0.948068	0	1	0	0	CorrectCommission	1.176467	0.718700	0
403.935089	0.795852	city	9	1	0.806508	0.806508	0	1	0	0	CorrectCommission	0.265471	0.694917	0
404.731049	0.796076	city	6	1	0.847802	0.847802	0	1	0	0	CorrectCommission	0.155149	0.669562	1
405.526855	0.795524	mountain	2	0	0.000000	0.829893	1	0	0	0	CorrectOmission	0.027267	0.645142	1
406.322510	0.795782	city	6	1	0.798179	0.798179	0	1	0	0	CorrectCommission	0.350313	0.624238	1
407.118286	0.795780	city	5	1	0.798054	0.798054	0	1	0	0	CorrectCommission	0.351585	0.609159	1
407.914124	0.795880	city	6	1	0.815871	0.815871	0	1	0	0	CorrectCommission	0.170100	0.601854	1
408.709930	0.795739	city	2	1	0.996991	0.996991	0	1	0	0	CorrectCommission	1.674802	0.603788	1
409.505737	0.795863	city	1	1	0.859786	0.859786	0	1	0	0	CorrectCommission	0.277217	0.615773	1
410.301514	0.795717	city	7	1	0.850287	0.850287	0	1	0	0	CorrectCommission	0.180465	0.638256	1
411.097321	0.795884	city	10	1	0.798846	0.798846	0	1	0	0	CorrectCommission	0.343515	0.671131	1
411.893188	0.795811	mountain	10	1	0.798431	0.798431	0	0	1	0	CommissionError	0.347743	0.713889	0
412.688934	0.795733	city	7	1	0.897314	0.897314	0	1	0	0	CorrectCommission	0.659487	0.765616	0
413.484711	0.795808	city	5	1	0.856807	0.856807	0	1	0	0	CorrectCommission	0.246873	0.825093	0
414.280518	0.795811	city	7	1	0.947237	0.947237	0	1	0	0	CorrectCommission	1.168000	0.890796	0
415.076355	0.795838	city	6	1	0.996804	0.996804	0	1	0	0	CorrectCommission	1.672889	0.960844	0
415.872162	0.795785	city	7	1	0.899080	0.899080	0	1	0	0	CorrectCommission	0.677477	1.033050	0
416.668121	0.796107	mountain	2	0	0.000000	0.955924	1	0	0	0	CorrectOmission	1.256488	1.104944	0
417.463928	0.795541	city	5	1	0.996374	0.996374	0	1	0	0	CorrectCommission	1.668509	1.173664	0
418.259735	0.796048	city	3	1	0.849468	0.849468	0	1	0	0	CorrectCommission	0.172123	1.236067	0
419.055542	0.795554	city	9	1	0.947144	0.947144	0	1	0	0	CorrectCommission	1.167058	1.288979	0
419.851196	0.795769	city	5	1	0.996953	0.996953	0	1	0	0	CorrectCommission	1.674407	1.329106	0
420.646973	0.795798	city	3	1	0.947393	0.947393	0	1	0	0	CorrectCommission	1.169591	1.353506	0
421.442749	0.795783	city	8	1	1.056064	1.056064	0	1	0	0	CorrectCommission	2.276516	1.359905	0
422.238556	0.795821	city	7	1	1.051358	1.051358	0	1	0	0	CorrectCommission	2.228578	1.346880	0
423.034363	0.795775	city	9	1	1.097222	1.097222	0	1	0	0	CorrectCommission	2.695755	1.314219	0
423.830170	0.795834	city	6	1	1.046831	1.046831	0	1	0	0	CorrectCommission	2.182470	1.262976	0
424.626007	0.795842	city	2	1	0.946958	0.946958	0	1	0	0	CorrectCommission	1.165156	1.195523	0
425.421967	0.796067	city	9	1	0.948047	0.948047	0	1	0	0	CorrectCommission	1.176253	1.115370	0
426.217896	0.795790	city	3	1	0.903994	0.903994	0	1	0	0	CorrectCommission	0.727529	1.026760	0
427.013550	0.795527	city	6	1	0.898013	0.898013	0	1	0	0	CorrectCommission	0.666602	0.934423	0
427.809174	0.795733	city	9	1	0.847756	0.847756	0	1	0	0	CorrectCommission	0.154685	0.843147	0
428.604950	0.795834	city	10	1	0.760246	0.760246	0	1	0	0	CorrectCommission	0.736701	0.757420	0
429.400787	0.795840	city	2	1	0.847705	0.847705	0	1	0	0	CorrectCommission	0.154168	0.681070	0
430.196594	0.795727	city	3	1	0.797852	0.797852	0	1	0	0	CorrectCommission	0.353638	0.617183	1
430.992401	0.795894	city	1	1	0.798051	0.798051	0	1	0	0	CorrectCommission	0.351610	0.567984	1
431.788208	0.795713	city	5	1	0.808652	0.808652	0	1	0	0	CorrectCommission	0.243629	0.534881	1
432.583984	0.795844	city	2	1	0.848237	0.848237	0	1	0	0	CorrectCommission	0.159583	0.518462	1
433.379791	0.795814	city	1	1	0.817065	0.817065	0	1	0	0	CorrectCommission	0.157932	0.518659	1
434.175629	0.795818	city	6	1	0.947859	0.947859	0	1	0	0	CorrectCommission	1.174333	0.534759	1
434.971405	0.795781	city	8	1	0.863553	0.863553	0	1	0	0	CorrectCommission	0.315595	0.565433	1
435.767212	0.795794	city	3	1	0.802568	0.802568	0	1	0	0	CorrectCommission	0.305604	0.608980	1
436.562988	0.795786	city	9	1	0.817633	0.817633	0	1	0	0	CorrectCommission	0.152154	0.663095	1
437.358826	0.795842	city	8	1	0.851783	0.851783	0	1	0	0	CorrectCommission	0.195700	0.725079	0
438.154602	0.795732	city	5	1	0.798816	0.798816	0	1	0	0	CorrectCommission	0.343822	0.791895	0
438.950378	0.795823	city	2	1	0.762869	0.762869	0	1	0	0	CorrectCommission	0.709982	0.860292	0
439.746185	0.795824	city	5	1	0.700128	0.700128	0	1	0	0	CorrectCommission	1.349064	0.927050	0
440.542023	0.795801	city	2	1	0.698344	0.698344	0	1	0	0	CorrectCommission	1.367232	0.989258	0
441.337799	0.795778	city	1	1	0.698693	0.698693	0	1	0	0	CorrectCommission	1.363676	1.044594	0
442.133606	0.795841	city	9	1	0.698297	0.698297	0	1	0	0	CorrectCommission	1.367717	1.091589	0
442.929413	0.795786	city	1	1	0.599068	0.599068	0	1	0	0	CorrectCommission	2.378462	1.129719	0
443.725250	0.795836	mountain	10	1	0.599964	0.599964	0	0	1	0	CommissionError	2.369333	1.159375	0
444.521027	0.795752	city	3	1	0.748136	0.748136	0	1	0	0	CorrectCommission	0.860055	1.181752	0
445.316803	0.795811	city	7	1	0.850163	0.850163	0	1	0	0	CorrectCommission	0.179196	1.198635	0
446.112640	0.795836	city	10	1	0.856813	0.856813	0	1	0	0	CorrectCommission	0.246937	1.211898	0
446.908447	0.795815	city	3	1	1.006747	1.006747	0	1	0	0	CorrectCommission	1.774169	1.223215	0
447.704254	0.795768	city	5	1	0.947071	0.947071	0	1	0	0	CorrectCommission	1.166311	1.233707	0
448.500031	0.795782	city	3	1	0.947597	0.947597	0	1	0	0	CorrectCommission	1.171671	1.243868	0
449.295837	0.795839	city	6	1	0.897320	0.897320	0	1	0	0	CorrectCommission	0.659549	1.253408	0
450.091675	0.795822	city	1	1	0.909401	0.909401	0	1	0	0	CorrectCommission	0.782606	1.261402	0
450.887421	0.795703	city	4	1	1.047260	1.047260	0	1	0	0	CorrectCommission	2.186839	1.266516	0
451.683167	0.795790	city	8	1	0.898036	0.898036	0	1	0	0	CorrectCommission	0.666833	1.267234	0
452.479004	0.795852	city	9	1	1.047357	1.047357	0	1	0	0	CorrectCommission	2.187828	1.262428	0
453.274811	0.795779	city	3	1	1.047238	1.047238	0	1	0	0	CorrectCommission	2.186620	1.251333	0
454.070618	0.795828	city	8	1	1.012958	1.012958	0	1	0	0	CorrectCommission	1.837441	1.234072	0
454.866455	0.795850	city	6	1	0.951237	0.951237	0	1	0	0	CorrectCommission	1.208743	1.211638	0
455.662231	0.795707	city	4	1	0.966446	0.966446	0	1	0	0	CorrectCommission	1.363660	1.185865	0
456.458008	0.795872	city	5	1	0.798402	0.798402	0	1	0	0	CorrectCommission	0.348042	1.159280	0
457.253845	0.795793	city	9	1	0.897264	0.897264	0	1	0	0	CorrectCommission	0.658970	1.134853	0
458.049805	0.796111	city	7	1	0.915317	0.915317	0	1	0	0	CorrectCommission	0.842860	1.115695	0
458.845612	0.795484	city	10	1	0.946664	0.946664	0	1	0	0	CorrectCommission	1.162160	1.104772	0
459.641235	0.795791	city	7	1	0.911547	0.911547	0	1	0	0	CorrectCommission	0.804462	1.104681	0
460.437195	0.796116	city	4	1	0.957459	0.957459	0	1	0	0	CorrectCommission	1.272122	1.117428	0
461.233002	0.795518	city	10	1	0.897311	0.897311	0	1	0	0	CorrectCommission	0.659452	1.144142	0
462.028687	0.795810	city	2	1	0.898996	0.898996	0	1	0	0	CorrectCommission	0.676617	1.185073	0
462.824493	0.795817	city	1	1	0.953922	0.953922	0	1	0	0	CorrectCommission	1.236093	1.239374	0
463.620270	0.795760	city	3	1	0.947240	0.947240	0	1	0	0	CorrectCommission	1.168034	1.305062	0
464.416016	0.795741	city	7	1	0.913839	0.913839	0	1	0	0	CorrectCommission	0.827811	1.378987	0
465.211823	0.795866	city	6	1	0.901230	0.901230	0	1	0	0	CorrectCommission	0.699370	1.457008	0
466.007660	0.795779	city	5	1	0.997306	0.997306	0	1	0	0	CorrectCommission	1.678008	1.534129	0
466.803467	0.795847	city	7	1	1.046567	1.046567	0	1	0	0	CorrectCommission	2.179783	1.604805	0
467.599274	0.795760	city	1	1	1.096488	1.096488	0	1	0	0	CorrectCommission	2.688282	1.663428	0
468.395050	0.795766	mountain	2	0	0.000000	0.864505	1	0	0	0	CorrectOmission	0.325291	1.704651	0
469.190826	0.795837	city	8	1	0.599517	0.599517	0	1	0	0	CorrectCommission	2.373893	1.724174	0
469.986633	0.795767	city	6	1	0.550422	0.550422	0	1	0	0	CorrectCommission	2.873974	1.718877	0
470.782471	0.795876	city	5	1	0.550162	0.550162	0	1	0	0	CorrectCommission	2.876625	1.687443	0
471.578308	0.795814	mountain	1	1	0.450032	0.450032	0	0	1	0	CommissionError	3.896556	1.630521	0
472.374084	0.795749	city	2	1	0.612640	0.612640	0	1	0	0	CorrectCommission	2.240221	1.550733	0
473.169861	0.795770	city	10	1	0.653603	0.653603	0	1	0	0	CorrectCommission	1.822964	1.452470	0
473.965668	0.795859	mountain	7	1	0.798242	0.798242	0	0	1	0	CommissionError	0.349673	1.341414	0
474.761627	0.796104	city	8	1	0.864266	0.864266	0	1	0	0	CorrectCommission	0.322858	1.223953	0
475.557434	0.795467	city	9	1	0.947063	0.947063	0	1	0	0	CorrectCommission	1.166227	1.106487	0
476.353058	0.795784	city	7	1	0.848144	0.848144	0	1	0	0	CorrectCommission	0.158634	0.994805	0
477.148895	0.795883	city	6	1	0.798162	0.798162	0	1	0	0	CorrectCommission	0.350480	0.893703	0
477.944702	0.795740	city	1	1	0.802450	0.802450	0	1	0	0	CorrectCommission	0.306806	0.806514	0
478.740479	0.795814	city	10	1	0.897269	0.897269	0	1	0	0	CorrectCommission	0.659029	0.735087	0
479.536255	0.795751	city	8	1	0.847773	0.847773	0	1	0	0	CorrectCommission	0.154856	0.679819	1
480.332062	0.795840	mountain	5	0	0.000000	0.798085	1	0	0	0	CorrectOmission	0.351273	0.639945	1
481.127899	0.795851	city	2	1	0.798070	0.798070	0	1	0	0	CorrectCommission	0.351424	0.613788	1
481.923706	0.795784	city	9	1	0.897594	0.897594	0	1	0	0	CorrectCommission	0.662333	0.599187	1
482.719482	0.795779	city	8	1	1.009516	1.009516	0	1	0	0	CorrectCommission	1.802375	0.593797	1
483.515289	0.795816	city	1	1	0.848708	0.848708	0	1	0	0	CorrectCommission	0.164385	0.595310	1
484.311066	0.795739	mountain	10	0	0.000000	0.852650	1	0	0	0	CorrectOmission	0.204535	0.601787	1
485.106842	0.795830	city	3	1	0.906984	0.906984	0	1	0	0	CorrectCommission	0.757985	0.611491	1
485.902679	0.795808	city	2	1	0.897354	0.897354	0	1	0	0	CorrectCommission	0.659895	0.623067	1
486.698517	0.795847	city	10	1	0.816277	0.816277	0	1	0	0	CorrectCommission	0.165961	0.635353	1
487.494324	0.795769	city	6	1	0.947046	0.947046	0	1	0	0	CorrectCommission	1.166060	0.647355	1
488.290100	0.795815	city	2	1	0.847754	0.847754	0	1	0	0	CorrectCommission	0.154665	0.658196	1
489.086060	0.796080	city	4	1	0.898210	0.898210	0	1	0	0	CorrectCommission	0.668605	0.667105	1
489.881866	0.795527	city	10	1	0.798311	0.798311	0	1	0	0	CorrectCommission	0.348962	0.673512	1
490.677521	0.795786	city	2	1	0.748264	0.748264	0	1	0	0	CorrectCommission	0.858749	0.677188	1
491.473297	0.795765	city	1	1	0.698579	0.698579	0	1	0	0	CorrectCommission	1.364841	0.678291	1
492.269104	0.795887	city	10	1	0.699292	0.699292	0	1	0	0	CorrectCommission	1.357583	0.677521	1
493.064941	0.795748	city	2	1	0.747988	0.747988	0	1	0	0	CorrectCommission	0.861556	0.676174	1
493.860718	0.795836	city	5	1	0.897924	0.897924	0	1	0	0	CorrectCommission	0.665700	0.676029	1
494.656677	0.796095	mountain	10	0	0.000000	0.849512	1	0	0	0	CorrectOmission	0.172569	0.679319	1
495.452484	0.795479	city	10	1	0.765890	0.765890	0	1	0	0	CorrectCommission	0.679206	0.688520	0
496.248077	0.795754	city	1	1	0.810198	0.810198	0	1	0	0	CorrectCommission	0.227884	0.706044	0
497.043915	0.795902	city	5	1	0.798075	0.798075	0	1	0	0	CorrectCommission	0.351366	0.733998	0
497.839752	0.795760	city	1	1	0.848167	0.848167	0	1	0	0	CorrectCommission	0.158870	0.773856	0
498.635529	0.795776	city	9	1	0.847537	0.847537	0	1	0	0	CorrectCommission	0.152450	0.826269	0
499.431488	0.796137	city	2	1	0.948052	0.948052	0	1	0	0	CorrectCommission	1.176299	0.890845	0
500.227295	0.795515	city	3	1	0.897575	0.897575	0	1	0	0	CorrectCommission	0.662143	0.965978	0
501.022949	0.795774	city	6	1	0.962389	0.962389	0	1	0	0	CorrectCommission	1.322341	1.049046	0
501.818756	0.795825	city	2	1	0.948276	0.948276	0	1	0	0	CorrectCommission	1.178582	1.136383	0
502.614563	0.795825	city	5	1	0.749340	0.749340	0	1	0	0	CorrectCommission	0.847792	1.223525	0
503.410339	0.795726	city	2	1	0.648610	0.648610	0	1	0	0	CorrectCommission	1.873824	1.305511	0
504.206268	0.796142	city	3	1	0.847941	0.847941	0	1	0	0	CorrectCommission	0.156563	1.377246	0
505.002075	0.795432	city	4	0	0.000000	0.732905	0	0	0	1	OmissionError	1.015191	1.434000	0
505.797699	0.795849	city	5	1	0.563473	0.563473	0	1	0	0	CorrectCommission	2.741034	1.471784	0
506.593536	0.795795	city	10	1	0.599613	0.599613	0	1	0	0	CorrectCommission	2.372914	1.487801	0
507.389343	0.795819	city	7	1	0.499646	0.499646	0	1	0	0	CorrectCommission	3.391182	1.480908	0
508.185181	0.795848	mountain	3	1	0.400362	0.400362	0	0	1	0	CommissionError	4.402495	1.451621	0
508.980988	0.795784	city	6	1	0.804555	0.804555	0	1	0	0	CorrectCommission	0.285362	1.402115	0
509.776794	0.795808	city	9	1	0.897241	0.897241	0	1	0	0	CorrectCommission	0.658735	1.336187	0
510.572540	0.795721	city	1	1	0.748199	0.748199	0	1	0	0	CorrectCommission	0.859414	1.258490	0
511.368317	0.795799	city	2	1	0.698771	0.698771	0	1	0	0	CorrectCommission	1.362883	1.174166	0
512.164124	0.795869	city	5	1	0.799034	0.799034	0	1	0	0	CorrectCommission	0.341602	1.088268	0
512.959961	0.795724	city	8	1	0.865367	0.865367	0	1	0	0	CorrectCommission	0.334072	1.005285	0
513.755737	0.795820	city	1	1	0.947150	0.947150	0	1	0	0	CorrectCommission	1.167116	0.928714	0
514.551514	0.795782	city	3	1	0.917263	0.917263	0	1	0	0	CorrectCommission	0.862686	0.860817	0
515.347290	0.795816	city	7	1	0.847944	0.847944	0	1	0	0	CorrectCommission	0.156598	0.802645	0
516.143311	0.796158	city	6	1	0.848410	0.848410	0	1	0	0	CorrectCommission	0.161347	0.754159	0
516.939148	0.795524	city	1	1	0.759227	0.759227	0	1	0	0	CorrectCommission	0.747073	0.714353	0
517.734924	0.796077	city	5	1	0.755136	0.755136	0	1	0	0	CorrectCommission	0.788750	0.681640	0
518.530701	0.795428	city	3	1	0.748016	0.748016	0	1	0	0	CorrectCommission	0.861276	0.654220	1
519.326355	0.795844	city	9	1	0.698941	0.698941	0	1	0	0	CorrectCommission	1.361158	0.630380	1
520.122131	0.795826	city	7	1	0.798603	0.798603	0	1	0	0	CorrectCommission	0.345987	0.608750	1
520.917969	0.795840	city	6	1	0.848584	0.848584	0	1	0	0	CorrectCommission	0.163117	0.588620	1
521.713806	0.795769	city	1	1	0.761090	0.761090	0	1	0	0	CorrectCommission	0.728098	0.569851	1
522.509583	0.795826	mountain	4	0	0.000000	0.731339	1	0	0	0	CorrectOmission	1.031144	0.552870	1
523.305359	0.795707	city	2	1	0.760161	0.760161	0	1	0	0	CorrectCommission	0.737567	0.538551	1
524.101135	0.795819	city	8	1	0.848385	0.848385	0	1	0	0	CorrectCommission	0.161086	0.528159	1
524.896973	0.795872	city	4	1	0.848673	0.848673	0	1	0	0	CorrectCommission	0.164024	0.523089	1
525.692749	0.795735	mountain	7	0	0.000000	0.823536	1	0	0	0	CorrectOmission	0.092021	0.524610	1
526.488586	0.795867	mountain	10	1	0.798176	0.798176	0	0	1	0	CommissionError	0.350340	0.533830	1
527.284424	0.795777	city	9	1	0.797795	0.797795	0	1	0	0	CorrectCommission	0.354225	0.551382	1
528.080139	0.795759	city	7	1	0.862237	0.862237	0	1	0	0	CorrectCommission	0.302184	0.577364	1
528.875977	0.795855	city	3	1	0.897261	0.897261	0	1	0	0	CorrectCommission	0.658940	0.611210	1
529.671936	0.796090	city	1	1	0.906667	0.906667	0	1	0	0	CorrectCommission	0.754754	0.651722	1
530.467773	0.795542	mountain	10	0	0.000000	0.783317	1	0	0	0	CorrectOmission	0.501694	0.697105	0
531.263428	0.795795	city	10	1	0.717090	0.717090	0	1	0	0	CorrectCommission	1.176285	0.744984	0
532.059204	0.795721	city	7	1	0.897865	0.897865	0	1	0	0	CorrectCommission	0.665099	0.792556	0
532.854980	0.795858	city	8	1	0.848273	0.848273	0	1	0	0	CorrectCommission	0.159954	0.836854	0
533.650818	0.795821	city	9	1	0.897417	0.897417	0	1	0	0	CorrectCommission	0.660537	0.874951	0
534.446594	0.795762	mountain	5	0	0.000000	0.780216	1	0	0	0	CorrectOmission	0.533280	0.904162	0
535.242432	0.795827	city	8	1	0.798153	0.798153	0	1	0	0	CorrectCommission	0.350576	0.922421	0
536.038208	0.795823	city	9	1	1.252711	1.252711	0	1	0	0	CorrectCommission	4.279571	0.928502	0
536.834045	0.795755	city	3	1	1.064402	1.064402	0	1	0	0	CorrectCommission	2.361454	0.921997	0
537.629822	0.795817	city	6	1	0.947990	0.947990	0	1	0	0	CorrectCommission	1.175675	0.903742	0
538.425598	0.795814	city	9	1	0.847822	0.847822	0	1	0	0	CorrectCommission	0.155353	0.875419	0
539.221558	0.796076	mountain	8	0	0.000000	0.822663	1	0	0	0	CorrectOmission	0.100911	0.839344	0
540.017517	0.795811	city	3	1	0.847578	0.847578	0	1	0	0	CorrectCommission	0.152869	0.798142	0
540.813110	0.795449	city	1	1	0.897628	0.897628	0	1	0	0	CorrectCommission	0.662679	0.754409	0
541.608826	0.795892	city	7	1	0.899221	0.899221	0	1	0	0	CorrectCommission	0.678911	0.710430	0
542.404663	0.795830	city	9	1	0.799332	0.799332	0	1	0	0	CorrectCommission	0.338570	0.667990	1
543.200439	0.795675	city	4	1	0.750222	0.750222	0	1	0	0	CorrectCommission	0.838806	0.628292	1
543.996155	0.795835	city	6	1	0.799782	0.799782	0	1	0	0	CorrectCommission	0.333985	0.591939	1
544.792053	0.795874	city	1	1	0.750724	0.750724	0	1	0	0	CorrectCommission	0.833691	0.559083	1
545.587891	0.795791	city	9	1	0.947915	0.947915	0	1	0	0	CorrectCommission	1.174903	0.529520	1
546.383667	0.795807	city	8	1	0.854148	0.854148	0	1	0	0	CorrectCommission	0.219793	0.502883	1
547.179626	0.796060	city	3	1	0.849614	0.849614	0	1	0	0	CorrectCommission	0.173607	0.478794	1
547.975403	0.795513	city	9	1	0.811272	0.811272	0	1	0	0	CorrectCommission	0.216946	0.456915	1
548.770996	0.795753	city	1	1	0.758046	0.758046	0	1	0	0	CorrectCommission	0.759103	0.436994	1
549.566833	0.795843	city	3	1	0.798151	0.798151	0	1	0	0	CorrectCommission	0.350597	0.418886	1
550.362610	0.795790	city	2	1	0.798190	0.798190	0	1	0	0	CorrectCommission	0.350200	0.402583	1
551.158447	0.795858	city	3	1	0.851303	0.851303	0	1	0	0	CorrectCommission	0.190809	0.388087	1
551.954285	0.795743	city	5	1	0.847840	0.847840	0	1	0	0	CorrectCommission	0.155535	0.375406	1
552.750061	0.795823	city	6	1	0.897747	0.897747	0	1	0	0	CorrectCommission	0.663893	0.364535	1
553.545837	0.795786	city	2	1	0.847835	0.847835	0	1	0	0	CorrectCommission	0.155490	0.355297	1
554.341614	0.795783	city	10	1	0.812648	0.812648	0	1	0	0	CorrectCommission	0.202933	0.347513	1
555.137390	0.795786	city	4	1	0.748118	0.748118	0	1	0	0	CorrectCommission	0.860238	0.340966	1
555.933411	0.796152	city	1	1	0.804461	0.804461	0	1	0	0	CorrectCommission	0.286325	0.335376	1
556.729248	0.795529	city	4	1	0.847465	0.847465	0	1	0	0	CorrectCommission	0.151718	0.330496	1
557.524902	0.795810	mountain	7	0	0.000000	0.846313	1	0	0	0	CorrectOmission	0.139987	0.326084	1
558.320679	0.795797	city	2	1	0.847509	0.847509	0	1	0	0	CorrectCommission	0.152163	0.321955	1
559.116455	0.795762	city	4	1	0.897554	0.897554	0	1	0	0	CorrectCommission	0.661926	0.317986	1
559.912231	0.795782	city	10	1	0.847468	0.847468	0	1	0	0	CorrectCommission	0.151748	0.314178	1
560.708008	0.795766	city	8	1	0.813204	0.813204	0	1	0	0	CorrectCommission	0.197261	0.310672	1
561.503784	0.795822	mountain	6	1	0.901012	0.901012	0	0	1	0	CommissionError	0.697153	0.307759	1
562.299622	0.795826	city	5	1	0.797793	0.797793	0	1	0	0	CorrectCommission	0.354240	0.305902	1
563.095459	0.795793	city	1	1	0.797896	0.797896	0	1	0	0	CorrectCommission	0.353198	0.305699	1
563.891235	0.795808	city	6	1	0.848174	0.848174	0	1	0	0	CorrectCommission	0.158943	0.307875	1
564.687012	0.795754	city	7	1	0.848536	0.848536	0	1	0	0	CorrectCommission	0.162623	0.313218	1
565.482849	0.795898	city	2	1	0.848602	0.848602	0	1	0	0	CorrectCommission	0.163296	0.322461	1
566.278687	0.795727	city	3	1	0.847837	0.847837	0	1	0	0	CorrectCommission	0.155511	0.336165	1
567.074463	0.795883	city	9	1	0.858911	0.858911	0	1	0	0	CorrectCommission	0.268308	0.354670	1
567.870300	0.795759	city	4	1	0.847878	0.847878	0	1	0	0	CorrectCommission	0.155923	0.377984	1
568.666077	0.795816	city	5	1	0.760726	0.760726	0	1	0	0	CorrectCommission	0.731812	0.405726	1
569.461853	0.795720	mountain	7	0	0.000000	0.829697	1	0	0	0	CorrectOmission	0.029264	0.437080	1
570.257690	0.795909	city	6	1	0.899661	0.899661	0	1	0	0	CorrectCommission	0.683387	0.470858	1
571.053528	0.795792	city	4	1	0.815484	0.815484	0	1	0	0	CorrectCommission	0.174041	0.505488	1
571.849304	0.795813	mountain	1	0	0.000000	0.808700	1	0	0	0	CorrectOmission	0.243143	0.539208	1
572.645081	0.795737	city	4	1	0.798984	0.798984	0	1	0	0	CorrectCommission	0.342111	0.570116	1
573.440857	0.795846	city	10	1	0.706011	0.706011	0	1	0	0	CorrectCommission	1.289135	0.596422	1
574.236633	0.795709	city	1	1	0.748243	0.748243	0	1	0	0	CorrectCommission	0.858965	0.616555	1
575.032471	0.795856	city	2	1	0.699364	0.699364	0	1	0	0	CorrectCommission	1.356849	0.629426	1
575.828247	0.795796	city	1	1	0.748136	0.748136	0	1	0	0	CorrectCommission	0.860052	0.634438	1
576.624023	0.795756	city	3	1	0.798932	0.798932	0	1	0	0	CorrectCommission	0.342636	0.631621	1
577.419861	0.795828	city	10	1	0.698454	0.698454	0	1	0	0	CorrectCommission	1.366113	0.621633	1
578.215637	0.795777	city	6	1	0.798257	0.798257	0	1	0	0	CorrectCommission	0.349517	0.605660	1
579.011597	0.796173	city	7	1	0.815025	0.815025	0	1	0	0	CorrectCommission	0.178720	0.585384	1
579.807434	0.795516	city	4	1	0.754681	0.754681	0	1	0	0	CorrectCommission	0.793382	0.562812	1
580.603149	0.795812	city	8	1	0.899696	0.899696	0	1	0	0	CorrectCommission	0.683751	0.540131	1
581.398926	0.795800	city	3	1	0.848054	0.848054	0	1	0	0	CorrectCommission	0.157718	0.519632	1
582.194702	0.795767	city	8	1	0.797733	0.797733	0	1	0	0	CorrectCommission	0.354852	0.503556	1
582.990479	0.795743	city	10	1	0.898144	0.898144	0	1	0	0	CorrectCommission	0.667939	0.493939	1
583.786255	0.795851	city	8	1	0.807775	0.807775	0	1	0	0	CorrectCommission	0.252566	0.492558	1
584.582092	0.795856	city	1	1	0.798137	0.798137	0	1	0	0	CorrectCommission	0.350737	0.500889	1
585.377930	0.795745	city	2	1	0.798049	0.798049	0	1	0	0	CorrectCommission	0.351632	0.519931	1
586.173645	0.795761	city	6	1	0.850123	0.850123	0	1	0	0	CorrectCommission	0.178798	0.550118	1
586.969482	0.795872	city	1	1	0.848293	0.848293	0	1	0	0	CorrectCommission	0.160156	0.591367	1
587.765320	0.795789	city	2	1	0.848222	0.848222	0	1	0	0	CorrectCommission	0.159434	0.642955	1
588.561096	0.795815	city	10	1	0.760096	0.760096	0	1	0	0	CorrectCommission	0.738226	0.703605	0
589.356873	0.795719	city	2	1	0.897615	0.897615	0	1	0	0	CorrectCommission	0.662548	0.771467	0
590.152710	0.795898	city	8	1	0.956246	0.956246	0	1	0	0	CorrectCommission	1.259769	0.844245	0
590.948547	0.795816	city	6	1	0.898060	0.898060	0	1	0	0	CorrectCommission	0.667082	0.919290	0
591.744385	0.795791	city	3	1	0.760609	0.760609	0	1	0	0	CorrectCommission	0.732997	0.993908	0
592.540100	0.795707	city	6	1	0.748882	0.748882	0	1	0	0	CorrectCommission	0.852456	1.065455	0
593.335876	0.795811	city	1	1	0.649093	0.649093	0	1	0	0	CorrectCommission	1.868907	1.131564	0
594.131714	0.795887	city	9	1	0.698445	0.698445	0	1	0	0	CorrectCommission	1.366205	1.190295	0
594.927551	0.795751	mountain	9	0	0.000000	0.684158	1	0	0	0	CorrectOmission	1.511731	1.240353	0
595.723328	0.795837	city	5	1	0.648686	0.648686	0	1	0	0	CorrectCommission	1.873051	1.281211	0
596.519287	0.796078	mountain	6	0	0.000000	0.634483	1	0	0	0	CorrectOmission	2.017730	1.313117	0
597.315125	0.795550	city	4	1	0.698388	0.698388	0	1	0	0	CorrectCommission	1.366785	1.337091	0
598.110901	0.796063	city	5	1	0.897244	0.897244	0	1	0	0	CorrectCommission	0.658770	1.354789	0
598.906677	0.795493	city	9	1	0.748086	0.748086	0	1	0	0	CorrectCommission	0.860558	1.368351	0
599.702332	0.795772	city	3	1	0.599560	0.599560	0	1	0	0	CorrectCommission	2.373448	1.380188	0
600.498169	0.795872	mountain	7	1	0.663521	0.663521	0	0	1	0	CommissionError	1.721944	1.392687	0
601.293945	0.795720	city	5	1	0.805189	0.805189	0	1	0	0	CorrectCommission	0.278903	1.408116	0
602.089661	0.795791	mountain	1	0	0.000000	0.718025	1	0	0	0	CorrectOmission	1.166762	1.428363	0
602.885498	0.795815	mountain	7	1	0.699459	0.699459	0	0	1	0	CommissionError	1.355882	1.454680	0
603.681458	0.796142	city	6	1	1.046920	1.046920	0	1	0	0	CorrectCommission	2.183375	1.487678	0
604.477295	0.795529	mountain	7	0	0.000000	1.007994	1	0	0	0	CorrectOmission	1.786878	1.527202	0
605.272949	0.795817	city	8	1	0.851949	0.851949	0	1	0	0	CorrectCommission	0.197396	1.572396	0
606.068787	0.795740	city	5	1	0.848052	0.848052	0	1	0	0	CorrectCommission	0.157696	1.621820	0
606.864563	0.795862	city	10	1	0.668275	0.668275	0	1	0	0	CorrectCommission	1.673517	1.673517	0
