onset	duration	trial_type	image_type	Press	ReactionTime	ReactionTime_Interpolated	CorrectOmission	CorrectCommission	CommissionError	OmissionError	response_type	nonsmoothVarianceTimeCourse	VarianceTimeCourse	In_the_Zone
8.421702	0.795725	city	7	1	0.854184	0.854184	0	1	0	0	CorrectCommission	0.859911	0.859911	0
9.217497	0.795864	city	2	1	0.708024	0.708024	0	1	0	0	CorrectCommission	0.704529	0.925908	0
10.013330	0.795804	city	9	1	0.702094	0.702094	0	1	0	0	CorrectCommission	0.768003	0.990278	0
10.809277	0.796087	city	1	1	0.648605	0.648605	0	1	0	0	CorrectCommission	1.340526	1.051342	0
11.605087	0.795535	city	4	1	0.698956	0.698956	0	1	0	0	CorrectCommission	0.801586	1.107391	0
12.400752	0.795795	city	8	1	0.599530	0.599530	0	1	0	0	CorrectCommission	1.865804	1.156798	0
13.196556	0.795812	city	4	1	0.665487	0.665487	0	1	0	0	CorrectCommission	1.159826	1.197937	0
13.992312	0.795701	city	3	1	0.649411	0.649411	0	1	0	0	CorrectCommission	1.331896	1.229398	0
14.788247	0.796168	city	9	1	0.659798	0.659798	0	1	0	0	CorrectCommission	1.220725	1.250041	0
15.584055	0.795448	mountain	7	1	0.653130	0.653130	0	0	1	0	CommissionError	1.292096	1.259181	0
16.379694	0.795827	city	8	1	0.997493	0.997493	0	1	0	0	CorrectCommission	2.393843	1.256629	0
17.175529	0.795844	mountain	4	0	0.000000	0.891413	1	0	0	0	CorrectOmission	1.258399	1.242679	0
17.971319	0.795737	city	6	1	0.648880	0.648880	0	1	0	0	CorrectCommission	1.337580	1.218330	0
18.767092	0.795807	mountain	7	0	0.000000	0.583887	1	0	0	0	CorrectOmission	2.033249	1.185039	0
19.562912	0.795833	city	6	1	0.649467	0.649467	0	1	0	0	CorrectCommission	1.331298	1.144647	0
20.358740	0.795823	city	3	1	0.798658	0.798658	0	1	0	0	CorrectCommission	0.265583	1.099296	0
21.154547	0.795794	city	7	1	0.699340	0.699340	0	1	0	0	CorrectCommission	0.797482	1.051211	0
21.950335	0.795781	city	2	1	0.655838	0.655838	0	1	0	0	CorrectCommission	1.263111	1.002504	0
22.746132	0.795814	city	4	1	0.748331	0.748331	0	1	0	0	CorrectCommission	0.273101	0.954998	0
23.541908	0.795740	mountain	7	0	0.000000	0.711582	1	0	0	0	CorrectOmission	0.666446	0.910248	0
24.337687	0.795816	city	5	1	0.648755	0.648755	0	1	0	0	CorrectCommission	1.338925	0.869386	0
25.133673	0.796157	city	3	1	0.663012	0.663012	0	1	0	0	CorrectCommission	1.186317	0.833251	0
25.929651	0.795798	city	5	1	0.811907	0.811907	0	1	0	0	CorrectCommission	0.407402	0.802405	0
26.725292	0.795483	city	4	1	0.847367	0.847367	0	1	0	0	CorrectCommission	0.786945	0.777246	0
27.520947	0.795825	city	10	1	0.700570	0.700570	0	1	0	0	CorrectCommission	0.784314	0.757973	1
28.316896	0.796074	city	7	1	0.798157	0.798157	0	1	0	0	CorrectCommission	0.260227	0.744639	1
29.112669	0.795470	mountain	2	0	0.000000	0.806184	1	0	0	0	CorrectOmission	0.346144	0.737234	1
29.908472	0.796135	city	6	1	0.748344	0.748344	0	1	0	0	CorrectCommission	0.272961	0.735498	1
30.704313	0.795551	city	1	1	0.648329	0.648329	0	1	0	0	CorrectCommission	1.343483	0.739129	1
31.499950	0.795722	city	3	1	0.599069	0.599069	0	1	0	0	CorrectCommission	1.870740	0.747479	1
32.295734	0.795844	city	10	1	0.749422	0.749422	0	1	0	0	CorrectCommission	0.261424	0.759697	0
33.091576	0.795844	city	5	1	0.759700	0.759700	0	1	0	0	CorrectCommission	0.151410	0.774829	0
33.887402	0.795805	city	10	1	0.798026	0.798026	0	1	0	0	CorrectCommission	0.258817	0.791609	0
34.683193	0.795778	city	5	1	0.797789	0.797789	0	1	0	0	CorrectCommission	0.256283	0.808709	0
35.479118	0.796073	mountain	1	0	0.000000	0.740167	1	0	0	0	CorrectOmission	0.360477	0.824849	0
36.274921	0.795533	city	4	1	0.649217	0.649217	0	1	0	0	CorrectCommission	1.333973	0.838892	0
37.070717	0.796057	city	6	1	0.548995	0.548995	0	1	0	0	CorrectCommission	2.406717	0.849998	0
37.866501	0.795510	mountain	4	0	0.000000	0.596787	1	0	0	0	CorrectOmission	1.895170	0.857778	0
38.662304	0.796103	city	3	1	0.699085	0.699085	0	1	0	0	CorrectCommission	0.800205	0.862333	0
39.458107	0.795501	city	8	1	0.762382	0.762382	0	1	0	0	CorrectCommission	0.122695	0.864138	0
40.253922	0.796125	city	1	1	0.655454	0.655454	0	1	0	0	CorrectCommission	1.267214	0.863893	0
41.049698	0.795428	city	8	1	0.761773	0.761773	0	1	0	0	CorrectCommission	0.129220	0.862306	0
41.845360	0.795899	mountain	7	0	0.000000	0.818498	1	0	0	0	CorrectOmission	0.477944	0.859999	0
42.641209	0.795794	city	4	1	0.816961	0.816961	0	1	0	0	CorrectCommission	0.461496	0.857256	0
43.436962	0.795719	city	2	1	0.748494	0.748494	0	1	0	0	CorrectCommission	0.271347	0.854112	0
44.232750	0.795852	city	4	1	0.897327	0.897327	0	1	0	0	CorrectCommission	1.321698	0.850320	0
45.028721	0.796091	city	1	1	0.760686	0.760686	0	1	0	0	CorrectCommission	0.140858	0.845477	0
45.824509	0.795486	city	2	1	1.108103	1.108103	0	1	0	0	CorrectCommission	3.577771	0.839298	0
46.620140	0.795774	city	6	1	0.848200	0.848200	0	1	0	0	CorrectCommission	0.795865	0.831481	0
47.415966	0.795881	city	3	1	0.764706	0.764706	0	1	0	0	CorrectCommission	0.097829	0.822198	0
48.211796	0.795778	city	8	1	0.898191	0.898191	0	1	0	0	CorrectCommission	1.330952	0.811828	0
49.007717	0.796066	city	2	1	0.797938	0.797938	0	1	0	0	CorrectCommission	0.257881	0.800811	0
49.803509	0.795515	city	3	1	0.801763	0.801763	0	1	0	0	CorrectCommission	0.298824	0.789807	0
50.599167	0.795799	city	6	1	0.848104	0.848104	0	1	0	0	CorrectCommission	0.794841	0.779353	0
51.394981	0.795830	city	9	1	0.823305	0.823305	0	1	0	0	CorrectCommission	0.529396	0.769755	0
52.190819	0.795845	city	6	1	0.798710	0.798710	0	1	0	0	CorrectCommission	0.266144	0.761080	0
52.986591	0.795703	mountain	8	0	0.000000	0.845574	1	0	0	0	CorrectOmission	0.767754	0.753126	1
53.782372	0.795854	city	7	1	0.897307	0.897307	0	1	0	0	CorrectCommission	1.321488	0.745434	1
54.578194	0.795795	mountain	10	0	0.000000	0.887322	1	0	0	0	CorrectOmission	1.214607	0.737393	1
55.373985	0.795787	city	7	1	0.807282	0.807282	0	1	0	0	CorrectCommission	0.357894	0.728407	1
56.169949	0.796134	city	9	1	0.648853	0.648853	0	1	0	0	CorrectCommission	1.337871	0.718010	1
56.965729	0.795430	mountain	2	0	0.000000	0.689710	1	0	0	0	CorrectOmission	0.900559	0.705832	1
57.761375	0.795863	city	1	1	0.762326	0.762326	0	1	0	0	CorrectCommission	0.123297	0.691680	1
58.557224	0.795839	city	8	1	0.699178	0.699178	0	1	0	0	CorrectCommission	0.799211	0.675560	1
59.353176	0.796063	city	1	1	0.797705	0.797705	0	1	0	0	CorrectCommission	0.255382	0.657539	1
60.148956	0.795498	city	6	1	0.856638	0.856638	0	1	0	0	CorrectCommission	0.886176	0.637778	1
60.944767	0.796119	city	7	1	0.847561	0.847561	0	1	0	0	CorrectCommission	0.789026	0.616454	1
61.740715	0.795778	city	6	1	0.806463	0.806463	0	1	0	0	CorrectCommission	0.349123	0.593775	1
62.536369	0.795536	city	2	1	0.764314	0.764314	0	1	0	0	CorrectCommission	0.102017	0.570060	1
63.332035	0.795795	city	7	1	0.914817	0.914817	0	1	0	0	CorrectCommission	1.508904	0.545601	1
64.127838	0.795809	city	8	1	0.748106	0.748106	0	1	0	0	CorrectCommission	0.275506	0.520840	1
64.923645	0.795803	city	1	1	0.705372	0.705372	0	1	0	0	CorrectCommission	0.732913	0.496497	1
65.719406	0.795722	city	6	1	0.847850	0.847850	0	1	0	0	CorrectCommission	0.792114	0.473350	1
66.515221	0.795901	city	10	1	0.762639	0.762639	0	1	0	0	CorrectCommission	0.119952	0.452351	1
67.311043	0.795747	city	8	1	0.757757	0.757757	0	1	0	0	CorrectCommission	0.172208	0.434535	1
68.106842	0.795858	city	5	1	0.752967	0.752967	0	1	0	0	CorrectCommission	0.223475	0.420822	1
68.902618	0.795693	city	3	1	0.798875	0.798875	0	1	0	0	CorrectCommission	0.267905	0.411954	1
69.698418	0.795900	city	2	1	0.797893	0.797893	0	1	0	0	CorrectCommission	0.257392	0.408422	1
70.494385	0.796040	city	4	1	0.748257	0.748257	0	1	0	0	CorrectCommission	0.273892	0.410331	1
71.290176	0.795535	city	6	1	0.809642	0.809642	0	1	0	0	CorrectCommission	0.383149	0.417399	1
72.085854	0.795828	city	9	1	0.798863	0.798863	0	1	0	0	CorrectCommission	0.267776	0.428980	1
72.881645	0.795756	city	3	1	0.748549	0.748549	0	1	0	0	CorrectCommission	0.270763	0.444139	1
73.677452	0.795860	mountain	8	0	0.000000	0.800360	1	0	0	0	CorrectOmission	0.283801	0.461722	1
74.473412	0.796058	city	10	1	0.851804	0.851804	0	1	0	0	CorrectCommission	0.834435	0.480492	1
75.269325	0.795774	city	4	1	0.800389	0.800389	0	1	0	0	CorrectCommission	0.284109	0.499295	1
76.064957	0.795475	mountain	2	0	0.000000	0.707871	1	0	0	0	CorrectOmission	0.706167	0.517132	1
76.860611	0.795846	city	3	1	0.648946	0.648946	0	1	0	0	CorrectCommission	1.336882	0.533253	1
77.656410	0.795748	city	9	1	0.698308	0.698308	0	1	0	0	CorrectCommission	0.808525	0.547197	1
78.452354	0.796142	city	4	1	0.748515	0.748515	0	1	0	0	CorrectCommission	0.271128	0.558868	1
79.248169	0.795479	city	8	1	0.764349	0.764349	0	1	0	0	CorrectCommission	0.101645	0.568444	1
80.043839	0.795866	city	3	1	0.748149	0.748149	0	1	0	0	CorrectCommission	0.275045	0.576370	1
80.839684	0.795828	city	7	1	0.813369	0.813369	0	1	0	0	CorrectCommission	0.423046	0.583188	1
81.635483	0.795766	city	9	1	0.847491	0.847491	0	1	0	0	CorrectCommission	0.788272	0.589605	1
82.431236	0.795739	city	8	1	0.897330	0.897330	0	1	0	0	CorrectCommission	1.321735	0.596373	1
83.227051	0.795898	city	10	1	0.698312	0.698312	0	1	0	0	CorrectCommission	0.808478	0.604234	1
84.022888	0.795773	city	2	1	0.798240	0.798240	0	1	0	0	CorrectCommission	0.261113	0.613914	1
84.818680	0.795812	city	1	1	0.847789	0.847789	0	1	0	0	CorrectCommission	0.791464	0.626004	1
85.614494	0.795809	city	7	1	0.767240	0.767240	0	1	0	0	CorrectCommission	0.070697	0.640858	1
86.410263	0.795736	city	6	1	0.802599	0.802599	0	1	0	0	CorrectCommission	0.307771	0.658602	1
87.206070	0.795881	city	10	1	0.698353	0.698353	0	1	0	0	CorrectCommission	0.808046	0.679013	1
88.002029	0.796034	mountain	8	0	0.000000	0.784761	1	0	0	0	CorrectOmission	0.116838	0.701568	1
88.797813	0.795531	city	3	1	0.853976	0.853976	0	1	0	0	CorrectCommission	0.857693	0.725474	1
89.593445	0.795732	city	6	1	0.698150	0.698150	0	1	0	0	CorrectCommission	0.810213	0.749682	1
90.389244	0.795867	city	10	1	0.615607	0.615607	0	1	0	0	CorrectCommission	1.693724	0.773045	0
91.185081	0.795803	city	8	1	0.699298	0.699298	0	1	0	0	CorrectCommission	0.797928	0.794422	0
91.980896	0.795834	mountain	2	0	0.000000	0.724999	1	0	0	0	CorrectOmission	0.522835	0.812809	0
92.776695	0.795764	city	5	1	0.708413	0.708413	0	1	0	0	CorrectCommission	0.700360	0.827459	0
93.572479	0.795804	city	10	1	0.665245	0.665245	0	1	0	0	CorrectCommission	1.162417	0.837907	0
94.368294	0.795820	city	8	1	0.717174	0.717174	0	1	0	0	CorrectCommission	0.606585	0.844027	0
95.164246	0.796088	city	5	1	0.649425	0.649425	0	1	0	0	CorrectCommission	1.331747	0.846144	0
95.960045	0.795505	city	7	1	0.706729	0.706729	0	1	0	0	CorrectCommission	0.718386	0.844870	0
96.755684	0.795785	city	10	1	0.698411	0.698411	0	1	0	0	CorrectCommission	0.807427	0.841158	0
97.551491	0.795819	city	4	1	0.653569	0.653569	0	1	0	0	CorrectCommission	1.287397	0.836124	0
98.347313	0.795827	city	8	1	0.658692	0.658692	0	1	0	0	CorrectCommission	1.232565	0.830922	0
99.143257	0.796059	city	2	1	0.698549	0.698549	0	1	0	0	CorrectCommission	0.805947	0.826615	0
99.939186	0.795799	city	4	1	0.797472	0.797472	0	1	0	0	CorrectCommission	0.252892	0.824032	0
100.734825	0.795481	city	1	1	0.748060	0.748060	0	1	0	0	CorrectCommission	0.275999	0.823658	0
101.530632	0.796132	mountain	3	0	0.000000	0.762667	1	0	0	0	CorrectOmission	0.119649	0.825532	0
102.326599	0.795805	city	4	1	0.747974	0.747974	0	1	0	0	CorrectCommission	0.276914	0.829295	0
103.122383	0.795763	city	10	1	0.610662	0.610662	0	1	0	0	CorrectCommission	1.746655	0.834231	0
103.918015	0.795501	city	4	1	0.655555	0.655555	0	1	0	0	CorrectCommission	1.266141	0.839423	0
104.713829	0.796135	city	1	1	0.648936	0.648936	0	1	0	0	CorrectCommission	1.336983	0.843936	0
105.509674	0.795543	city	7	1	0.703089	0.703089	0	1	0	0	CorrectCommission	0.757351	0.846944	0
106.305305	0.795721	city	8	1	0.648839	0.648839	0	1	0	0	CorrectCommission	1.338026	0.847880	0
107.101082	0.795838	city	9	1	0.748420	0.748420	0	1	0	0	CorrectCommission	0.272148	0.846459	0
107.896904	0.795801	city	2	1	0.698999	0.698999	0	1	0	0	CorrectCommission	0.801125	0.842769	0
108.692726	0.795851	mountain	9	0	0.000000	0.719103	1	0	0	0	CorrectOmission	0.585940	0.837189	0
109.488686	0.796058	city	4	1	0.721062	0.721062	0	1	0	0	CorrectCommission	0.564972	0.830308	0
110.284470	0.795521	city	10	1	0.617207	0.617207	0	1	0	0	CorrectCommission	1.676602	0.822857	0
111.080101	0.795740	city	6	1	0.701067	0.701067	0	1	0	0	CorrectCommission	0.778996	0.815522	0
111.875908	0.795872	city	9	1	0.703959	0.703959	0	1	0	0	CorrectCommission	0.748041	0.808997	0
112.671875	0.796057	city	5	1	0.702583	0.702583	0	1	0	0	CorrectCommission	0.762772	0.803724	0
113.467674	0.795544	city	1	1	0.847392	0.847392	0	1	0	0	CorrectCommission	0.787220	0.799886	0
114.263329	0.795762	city	8	1	0.748034	0.748034	0	1	0	0	CorrectCommission	0.276272	0.797348	0
115.059265	0.796116	city	9	1	0.712682	0.712682	0	1	0	0	CorrectCommission	0.654666	0.795643	0
115.855072	0.795492	city	8	1	0.698847	0.698847	0	1	0	0	CorrectCommission	0.802761	0.793975	0
116.650734	0.795834	city	5	1	0.748167	0.748167	0	1	0	0	CorrectCommission	0.274848	0.791373	0
117.446548	0.795800	city	7	1	0.897189	0.897189	0	1	0	0	CorrectCommission	1.320229	0.786816	0
118.242348	0.795794	city	6	1	0.711906	0.711906	0	1	0	0	CorrectCommission	0.662973	0.779359	0
119.038147	0.795799	city	1	1	0.571427	0.571427	0	1	0	0	CorrectCommission	2.166612	0.768385	0
119.834091	0.796093	city	10	1	0.663574	0.663574	0	1	0	0	CorrectCommission	1.180304	0.753585	1
120.629890	0.795503	city	7	1	0.766135	0.766135	0	1	0	0	CorrectCommission	0.082527	0.735184	1
121.425514	0.795742	city	2	1	0.802408	0.802408	0	1	0	0	CorrectCommission	0.305726	0.713942	1
122.221458	0.796153	city	1	1	0.798088	0.798088	0	1	0	0	CorrectCommission	0.259483	0.691026	1
123.017311	0.795549	city	8	1	0.698849	0.698849	0	1	0	0	CorrectCommission	0.802739	0.668046	1
123.812981	0.795790	city	10	1	0.607227	0.607227	0	1	0	0	CorrectCommission	1.783421	0.646833	1
124.608734	0.795722	city	5	1	0.748388	0.748388	0	1	0	0	CorrectCommission	0.272483	0.629343	1
125.404526	0.795859	city	8	1	0.816526	0.816526	0	1	0	0	CorrectCommission	0.456836	0.617477	1
126.200325	0.795734	city	7	1	0.798238	0.798238	0	1	0	0	CorrectCommission	0.261094	0.612806	1
126.996117	0.795852	city	3	1	0.748185	0.748185	0	1	0	0	CorrectCommission	0.274656	0.616393	1
127.792099	0.796108	city	7	1	0.762212	0.762212	0	1	0	0	CorrectCommission	0.124522	0.628577	1
128.587891	0.795472	city	3	1	0.751710	0.751710	0	1	0	0	CorrectCommission	0.236932	0.648938	1
129.383682	0.796135	city	2	1	0.709732	0.709732	0	1	0	0	CorrectCommission	0.686251	0.676227	1
130.179504	0.795499	city	10	1	0.712099	0.712099	0	1	0	0	CorrectCommission	0.660911	0.708476	1
130.975174	0.795827	city	4	1	0.716794	0.716794	0	1	0	0	CorrectCommission	0.610655	0.743135	1
131.770981	0.795784	city	1	1	0.698321	0.698321	0	1	0	0	CorrectCommission	0.808387	0.777371	0
132.566772	0.795824	city	9	1	0.798662	0.798662	0	1	0	0	CorrectCommission	0.265630	0.808330	0
133.362717	0.796061	mountain	5	0	0.000000	0.907879	1	0	0	0	CorrectOmission	1.434648	0.833445	0
134.158478	0.795467	mountain	8	0	0.000000	0.962066	1	0	0	0	CorrectOmission	2.014644	0.850691	0
134.954147	0.795851	city	7	1	0.897317	0.897317	0	1	0	0	CorrectCommission	1.321593	0.858824	0
135.750107	0.796083	city	1	1	0.649726	0.649726	0	1	0	0	CorrectCommission	1.328528	0.857551	0
136.546051	0.795786	city	7	1	0.657111	0.657111	0	1	0	0	CorrectCommission	1.249484	0.847364	0
137.341690	0.795502	mountain	2	0	0.000000	0.732751	1	0	0	0	CorrectOmission	0.439864	0.829565	0
138.137360	0.795839	mountain	5	0	0.000000	0.809555	1	0	0	0	CorrectOmission	0.382218	0.806050	0
138.933182	0.795821	city	3	1	0.820432	0.820432	0	1	0	0	CorrectCommission	0.498648	0.778975	0
139.729004	0.795805	mountain	9	1	0.698293	0.698293	0	0	1	0	CommissionError	0.808690	0.750541	1
140.524948	0.796072	mountain	7	0	0.000000	0.787606	1	0	0	0	CorrectOmission	0.147287	0.722786	1
141.320740	0.795527	city	9	1	0.900097	0.900097	0	1	0	0	CorrectCommission	1.351351	0.697422	1
142.116379	0.795756	city	8	1	0.847491	0.847491	0	1	0	0	CorrectCommission	0.788273	0.675730	1
142.912155	0.795806	mountain	6	0	0.000000	0.820072	1	0	0	0	CorrectOmission	0.494790	0.658587	1
143.707993	0.795854	city	4	1	0.798790	0.798790	0	1	0	0	CorrectCommission	0.266997	0.646380	1
144.503784	0.795718	city	3	1	0.764595	0.764595	0	1	0	0	CorrectCommission	0.099013	0.639079	1
145.299545	0.795818	city	4	1	0.869934	0.869934	0	1	0	0	CorrectCommission	1.028501	0.636343	1
146.095520	0.796125	city	6	1	0.804532	0.804532	0	1	0	0	CorrectCommission	0.328461	0.637480	1
146.891342	0.795522	mountain	10	0	0.000000	0.706483	1	0	0	0	CorrectOmission	0.721020	0.641748	1
147.687134	0.796054	city	5	1	0.660426	0.660426	0	1	0	0	CorrectCommission	1.214003	0.648217	1
148.482941	0.795569	city	3	1	0.750998	0.750998	0	1	0	0	CorrectCommission	0.244552	0.655991	1
149.278763	0.796078	city	2	1	0.801999	0.801999	0	1	0	0	CorrectCommission	0.301349	0.664274	1
150.074554	0.795506	city	9	1	0.865959	0.865959	0	1	0	0	CorrectCommission	0.985950	0.672395	1
150.870193	0.795767	city	2	1	0.848780	0.848780	0	1	0	0	CorrectCommission	0.802069	0.679807	1
151.666138	0.796126	city	1	1	0.763753	0.763753	0	1	0	0	CorrectCommission	0.108028	0.686175	1
152.462097	0.795798	city	5	1	0.897947	0.897947	0	1	0	0	CorrectCommission	1.328339	0.691409	1
153.257767	0.795545	city	9	1	0.898926	0.898926	0	1	0	0	CorrectCommission	1.338815	0.695503	1
154.053421	0.795767	city	5	1	0.847516	0.847516	0	1	0	0	CorrectCommission	0.788543	0.698581	1
154.849213	0.795798	city	4	1	0.798076	0.798076	0	1	0	0	CorrectCommission	0.259351	0.700826	1
155.645020	0.795829	city	3	1	0.748368	0.748368	0	1	0	0	CorrectCommission	0.272704	0.702371	1
156.440811	0.795763	city	5	1	0.749085	0.749085	0	1	0	0	CorrectCommission	0.265030	0.703218	1
157.236572	0.795749	city	3	1	0.864224	0.864224	0	1	0	0	CorrectCommission	0.967382	0.703182	1
158.032349	0.795801	city	6	1	0.897865	0.897865	0	1	0	0	CorrectCommission	1.327464	0.701931	1
158.828140	0.795771	city	3	1	0.801154	0.801154	0	1	0	0	CorrectCommission	0.292298	0.699002	1
159.623978	0.795929	city	1	1	0.797924	0.797924	0	1	0	0	CorrectCommission	0.257724	0.693951	1
160.419830	0.795779	city	6	1	0.897404	0.897404	0	1	0	0	CorrectCommission	1.322522	0.686403	1
161.215775	0.796084	city	1	1	0.765966	0.765966	0	1	0	0	CorrectCommission	0.084338	0.676116	1
162.011581	0.795547	city	4	1	0.996550	0.996550	0	1	0	0	CorrectCommission	2.383746	0.663225	1
162.807220	0.795708	city	7	1	0.748306	0.748306	0	1	0	0	CorrectCommission	0.273368	0.647997	1
163.603012	0.795891	city	3	1	0.704943	0.704943	0	1	0	0	CorrectCommission	0.737504	0.631179	1
164.398865	0.795802	city	8	1	0.750013	0.750013	0	1	0	0	CorrectCommission	0.255092	0.613651	1
165.194794	0.796065	city	4	1	0.801560	0.801560	0	1	0	0	CorrectCommission	0.296643	0.596432	1
165.990585	0.795507	city	7	1	0.797537	0.797537	0	1	0	0	CorrectCommission	0.253591	0.580545	1
166.786240	0.795803	city	5	1	0.748001	0.748001	0	1	0	0	CorrectCommission	0.276629	0.566905	1
167.582184	0.796104	city	9	1	0.862914	0.862914	0	1	0	0	CorrectCommission	0.953361	0.556206	1
168.378006	0.795528	mountain	4	0	0.000000	0.857726	1	0	0	0	CorrectOmission	0.897828	0.548802	1
169.173645	0.795755	city	10	1	0.799327	0.799327	0	1	0	0	CorrectCommission	0.272744	0.544836	1
169.969437	0.795833	city	1	1	0.754607	0.754607	0	1	0	0	CorrectCommission	0.205920	0.544134	1
170.765381	0.796056	city	5	1	0.815286	0.815286	0	1	0	0	CorrectCommission	0.443567	0.546380	1
171.561188	0.795554	city	3	1	0.847267	0.847267	0	1	0	0	CorrectCommission	0.785876	0.551122	1
172.356857	0.795800	city	2	1	0.747953	0.747953	0	1	0	0	CorrectCommission	0.277142	0.558048	1
173.152664	0.795815	city	6	1	0.812310	0.812310	0	1	0	0	CorrectCommission	0.411713	0.566962	1
173.948471	0.795775	city	7	1	0.847544	0.847544	0	1	0	0	CorrectCommission	0.788841	0.578087	1
174.744263	0.795832	city	8	1	0.811855	0.811855	0	1	0	0	CorrectCommission	0.406842	0.591983	1
175.540070	0.795754	city	10	1	0.665261	0.665261	0	1	0	0	CorrectCommission	1.162248	0.609646	1
176.335846	0.795811	city	4	1	0.848374	0.848374	0	1	0	0	CorrectCommission	0.797731	0.632436	1
177.131805	0.796107	mountain	2	0	0.000000	0.864144	1	0	0	0	CorrectOmission	0.966528	0.661987	1
177.927765	0.795801	city	1	1	0.804021	0.804021	0	1	0	0	CorrectCommission	0.322986	0.699850	1
178.723419	0.795510	city	8	1	0.759453	0.759453	0	1	0	0	CorrectCommission	0.154052	0.747335	1
179.519073	0.795817	mountain	4	0	0.000000	0.744987	1	0	0	0	CorrectOmission	0.308889	0.805038	0
180.314896	0.795807	city	1	1	0.758723	0.758723	0	1	0	0	CorrectCommission	0.161863	0.872710	0
181.110825	0.796067	city	9	1	0.798761	0.798761	0	1	0	0	CorrectCommission	0.266689	0.949029	0
181.906601	0.795481	city	6	1	0.697973	0.697973	0	1	0	0	CorrectCommission	0.812109	1.031566	0
182.702393	0.796116	city	10	1	0.605658	0.605658	0	1	0	0	CorrectCommission	1.800211	1.116826	0
183.498184	0.795443	city	3	1	0.699098	0.699098	0	1	0	0	CorrectCommission	0.800070	1.200507	0
184.293808	0.795826	city	6	1	0.948911	0.948911	0	1	0	0	CorrectCommission	1.873843	1.277924	0
185.089661	0.795874	city	10	1	0.851652	0.851652	0	1	0	0	CorrectCommission	0.832813	1.344296	0
185.885468	0.795750	city	7	1	1.046705	1.046705	0	1	0	0	CorrectCommission	2.920585	1.395361	0
186.681274	0.795846	city	6	1	0.897364	0.897364	0	1	0	0	CorrectCommission	1.322092	1.427579	0
187.477097	0.795807	city	1	1	1.097790	1.097790	0	1	0	0	CorrectCommission	3.467380	1.438740	0
188.272858	0.795719	city	9	0	0.000000	0.793996	0	0	0	1	OmissionError	0.215688	1.427895	0
189.068634	0.795811	city	1	1	0.467236	0.467236	0	1	0	0	CorrectCommission	3.281835	1.395781	0
189.864471	0.795870	city	9	1	0.598761	0.598761	0	1	0	0	CorrectCommission	1.874042	1.344346	0
190.660309	0.795812	city	5	1	0.698631	0.698631	0	1	0	0	CorrectCommission	0.805065	1.276884	0
191.456100	0.795773	city	10	1	0.847450	0.847450	0	1	0	0	CorrectCommission	0.787834	1.197584	0
192.252029	0.796072	city	9	1	0.898517	0.898517	0	1	0	0	CorrectCommission	1.334440	1.111168	0
193.047958	0.795806	city	4	1	0.896974	0.896974	0	1	0	0	CorrectCommission	1.317925	1.022450	0
193.843628	0.795517	city	7	1	0.848016	0.848016	0	1	0	0	CorrectCommission	0.793899	0.936087	0
194.639252	0.795741	city	8	1	0.804337	0.804337	0	1	0	0	CorrectCommission	0.326371	0.856214	0
195.435043	0.795836	mountain	5	0	0.000000	0.777171	1	0	0	0	CorrectOmission	0.035599	0.786197	0
196.230881	0.795844	city	6	1	0.748034	0.748034	0	1	0	0	CorrectCommission	0.276281	0.728460	1
197.026688	0.795778	city	10	1	0.698438	0.698438	0	1	0	0	CorrectCommission	0.807132	0.684423	1
197.822495	0.795816	city	6	1	0.798237	0.798237	0	1	0	0	CorrectCommission	0.261083	0.654451	1
198.618301	0.795815	mountain	2	0	0.000000	0.807496	1	0	0	0	CorrectOmission	0.360186	0.638011	1
199.414108	0.795797	mountain	5	0	0.000000	0.762406	1	0	0	0	CorrectOmission	0.122442	0.633768	1
200.209900	0.795783	city	2	1	0.699159	0.699159	0	1	0	0	CorrectCommission	0.799418	0.639744	1
201.005707	0.795818	city	5	1	0.653946	0.653946	0	1	0	0	CorrectCommission	1.283361	0.653495	1
201.801483	0.795735	city	2	1	0.797825	0.797825	0	1	0	0	CorrectCommission	0.256673	0.672371	1
202.597275	0.795864	city	1	1	0.748046	0.748046	0	1	0	0	CorrectCommission	0.276144	0.693797	1
203.393250	0.796085	city	9	1	0.748274	0.748274	0	1	0	0	CorrectCommission	0.273702	0.715307	1
204.189194	0.795809	mountain	5	0	0.000000	0.668840	1	0	0	0	CorrectOmission	1.123942	0.734873	1
204.984833	0.795466	city	10	1	0.616654	0.616654	0	1	0	0	CorrectCommission	1.682519	0.750931	1
205.780487	0.795844	city	9	1	0.698629	0.698629	0	1	0	0	CorrectCommission	0.805084	0.762644	0
206.576309	0.795802	mountain	5	0	0.000000	0.671441	1	0	0	0	CorrectOmission	1.096099	0.769802	0
207.372116	0.795814	city	9	1	0.649723	0.649723	0	1	0	0	CorrectCommission	1.328558	0.772820	0
208.167938	0.795811	city	5	1	0.748110	0.748110	0	1	0	0	CorrectCommission	0.275458	0.772621	0
208.963882	0.796071	city	9	1	0.847599	0.847599	0	1	0	0	CorrectCommission	0.789435	0.770524	0
209.759796	0.795776	city	2	1	0.847209	0.847209	0	1	0	0	CorrectCommission	0.785253	0.767913	0
210.555420	0.795471	city	5	1	0.747739	0.747739	0	1	0	0	CorrectCommission	0.279429	0.766109	0
211.351242	0.796165	city	10	1	0.749092	0.749092	0	1	0	0	CorrectCommission	0.264950	0.766232	0
212.147202	0.795752	city	7	1	0.898088	0.898088	0	1	0	0	CorrectCommission	1.329844	0.769081	0
212.942856	0.795559	city	9	1	0.797797	0.797797	0	1	0	0	CorrectCommission	0.256368	0.775008	0
213.738510	0.795736	city	7	1	0.762415	0.762415	0	1	0	0	CorrectCommission	0.122346	0.784104	0
214.534454	0.796154	city	1	1	0.648876	0.648876	0	1	0	0	CorrectCommission	1.337627	0.796106	0
215.330414	0.795783	city	2	1	0.610716	0.610716	0	1	0	0	CorrectCommission	1.746080	0.810537	0
216.126221	0.795827	mountain	3	0	0.000000	0.781186	1	0	0	0	CorrectOmission	0.078570	0.826833	0
216.921890	0.795524	city	2	1	0.897865	0.897865	0	1	0	0	CorrectCommission	1.327465	0.844493	0
217.717560	0.795800	city	8	1	0.698333	0.698333	0	1	0	0	CorrectCommission	0.808254	0.862860	0
218.513351	0.795795	city	6	1	0.699160	0.699160	0	1	0	0	CorrectCommission	0.799402	0.881327	0
219.309158	0.795813	city	3	1	0.752352	0.752352	0	1	0	0	CorrectCommission	0.230056	0.899225	0
220.104950	0.795777	city	10	1	0.897698	0.897698	0	1	0	0	CorrectCommission	1.325673	0.915816	0
220.900742	0.795796	city	8	1	0.848288	0.848288	0	1	0	0	CorrectCommission	0.796805	0.930168	0
221.696686	0.796095	city	1	1	0.848258	0.848258	0	1	0	0	CorrectCommission	0.796487	0.941295	0
222.492493	0.795499	city	5	1	0.897395	0.897395	0	1	0	0	CorrectCommission	1.322434	0.948163	0
223.288162	0.795846	city	3	1	0.850606	0.850606	0	1	0	0	CorrectCommission	0.821615	0.949817	0
224.083939	0.795701	city	2	1	0.897227	0.897227	0	1	0	0	CorrectCommission	1.320631	0.945520	0
224.879852	0.796147	city	6	1	0.897776	0.897776	0	1	0	0	CorrectCommission	1.326511	0.934898	0
225.675674	0.795503	city	2	1	0.698329	0.698329	0	1	0	0	CorrectCommission	0.808304	0.918044	0
226.471359	0.795846	city	4	1	0.847621	0.847621	0	1	0	0	CorrectCommission	0.789672	0.895630	0
227.267151	0.795760	city	6	1	0.950759	0.950759	0	1	0	0	CorrectCommission	1.893622	0.868871	0
228.062958	0.795827	city	7	1	0.698777	0.698777	0	1	0	0	CorrectCommission	0.803502	0.839463	0
228.858902	0.796089	mountain	5	0	0.000000	0.672918	1	0	0	0	CorrectOmission	1.080289	0.809541	0
229.654800	0.795702	city	2	1	0.747767	0.747767	0	1	0	0	CorrectCommission	0.279133	0.781274	0
230.450470	0.795622	city	4	1	0.797910	0.797910	0	1	0	0	CorrectCommission	0.257576	0.756757	1
231.246185	0.795807	city	9	1	0.756080	0.756080	0	1	0	0	CorrectCommission	0.190156	0.737711	1
232.041962	0.795767	city	6	1	0.847465	0.847465	0	1	0	0	CorrectCommission	0.788001	0.725261	1
232.837738	0.795768	city	3	1	0.766461	0.766461	0	1	0	0	CorrectCommission	0.079037	0.719787	1
233.633514	0.795799	city	9	1	0.847715	0.847715	0	1	0	0	CorrectCommission	0.790675	0.721007	1
234.429306	0.795788	city	6	1	0.847838	0.847838	0	1	0	0	CorrectCommission	0.791985	0.727882	1
235.225128	0.795835	city	1	1	0.667051	0.667051	0	1	0	0	CorrectCommission	1.143089	0.738906	1
236.020981	0.795868	city	4	1	0.752233	0.752233	0	1	0	0	CorrectCommission	0.231332	0.752223	1
236.816772	0.795711	city	5	1	0.798492	0.798492	0	1	0	0	CorrectCommission	0.263809	0.765982	0
237.612564	0.795884	mountain	3	0	0.000000	0.889060	1	0	0	0	CorrectOmission	1.233215	0.778430	0
238.408401	0.795788	city	7	1	0.897930	0.897930	0	1	0	0	CorrectCommission	1.328152	0.788161	0
239.204330	0.796068	city	6	1	0.699094	0.699094	0	1	0	0	CorrectCommission	0.800114	0.794281	0
240.000259	0.795810	city	5	1	0.548967	0.548967	0	1	0	0	CorrectCommission	2.407011	0.796442	0
240.795929	0.795509	city	6	1	0.809792	0.809792	0	1	0	0	CorrectCommission	0.384756	0.794816	0
241.591721	0.796073	city	9	1	0.798412	0.798412	0	1	0	0	CorrectCommission	0.262951	0.790111	0
242.387543	0.795567	mountain	5	0	0.000000	0.764403	1	0	0	0	CorrectOmission	0.101066	0.783269	0
243.183350	0.796070	city	9	1	0.716795	0.716795	0	1	0	0	CorrectCommission	0.610644	0.775410	0
243.979141	0.795513	city	7	1	0.664618	0.664618	0	1	0	0	CorrectCommission	1.169133	0.767699	0
244.774948	0.796090	city	9	1	0.702460	0.702460	0	1	0	0	CorrectCommission	0.764086	0.761240	0
245.570740	0.795478	city	7	1	0.798437	0.798437	0	1	0	0	CorrectCommission	0.263217	0.757161	1
246.366348	0.795766	city	3	1	0.698363	0.698363	0	1	0	0	CorrectCommission	0.807936	0.756544	1
247.162140	0.795807	city	8	1	0.649304	0.649304	0	1	0	0	CorrectCommission	1.333046	0.760445	0
247.957947	0.795803	city	5	1	0.656024	0.656024	0	1	0	0	CorrectCommission	1.261112	0.769794	0
248.753906	0.796127	city	4	1	0.755229	0.755229	0	1	0	0	CorrectCommission	0.199258	0.785408	0
249.549744	0.795550	city	1	1	0.797562	0.797562	0	1	0	0	CorrectCommission	0.253855	0.807881	0
250.345383	0.795726	city	6	1	0.851825	0.851825	0	1	0	0	CorrectCommission	0.834666	0.837413	0
251.141174	0.795832	city	4	1	0.716845	0.716845	0	1	0	0	CorrectCommission	0.610108	0.873638	0
251.936981	0.795811	city	9	1	0.698278	0.698278	0	1	0	0	CorrectCommission	0.808850	0.915580	0
252.732788	0.795799	mountain	3	0	0.000000	0.683583	1	0	0	0	CorrectOmission	0.966137	0.961584	0
253.528595	0.795817	city	1	1	0.698577	0.698577	0	1	0	0	CorrectCommission	0.805650	1.009449	0
254.324554	0.796094	mountain	5	0	0.000000	0.769074	1	0	0	0	CorrectOmission	0.051073	1.056601	0
255.120346	0.795494	city	4	1	0.764229	0.764229	0	1	0	0	CorrectCommission	0.102931	1.100345	0
255.916016	0.795822	city	8	1	0.553196	0.553196	0	1	0	0	CorrectCommission	2.361751	1.138162	0
256.711975	0.796080	city	5	1	0.517068	0.517068	0	1	0	0	CorrectCommission	2.748454	1.168033	0
257.507751	0.795513	mountain	6	0	0.000000	0.547625	1	0	0	0	CorrectOmission	2.421378	1.188740	0
258.303436	0.795839	city	1	1	0.605732	0.605732	0	1	0	0	CorrectCommission	1.799428	1.200006	0
259.099243	0.795799	city	10	1	0.652251	0.652251	0	1	0	0	CorrectCommission	1.301507	1.202484	0
259.895050	0.795769	city	7	1	0.716981	0.716981	0	1	0	0	CorrectCommission	0.608651	1.197464	0
260.690826	0.795814	mountain	6	0	0.000000	0.734323	1	0	0	0	CorrectOmission	0.423030	1.186651	0
261.486633	0.795798	city	2	1	0.698319	0.698319	0	1	0	0	CorrectCommission	0.808408	1.171773	0
262.282440	0.795822	city	10	1	0.603011	0.603011	0	1	0	0	CorrectCommission	1.828549	1.154304	0
263.078369	0.796053	city	7	1	0.766916	0.766916	0	1	0	0	CorrectCommission	0.074167	1.135209	0
263.874176	0.795509	city	8	1	0.769093	0.769093	0	1	0	0	CorrectCommission	0.050867	1.115004	0
264.669800	0.795779	mountain	10	0	0.000000	0.659353	1	0	0	0	CorrectOmission	1.225481	1.093616	0
265.465576	0.795784	city	2	1	0.549034	0.549034	0	1	0	0	CorrectCommission	2.406298	1.070602	0
266.261566	0.796156	city	5	1	0.549472	0.549472	0	1	0	0	CorrectCommission	2.401608	1.045447	0
267.057526	0.795803	city	9	1	0.664302	0.664302	0	1	0	0	CorrectCommission	1.172511	1.017779	0
267.853210	0.795522	city	1	1	0.709416	0.709416	0	1	0	0	CorrectCommission	0.689632	0.987516	0
268.648987	0.796074	mountain	3	0	0.000000	0.709061	1	0	0	0	CorrectOmission	0.693427	0.954944	0
269.444794	0.795514	mountain	1	0	0.000000	0.699569	1	0	0	0	CorrectOmission	0.795030	0.920684	0
270.240448	0.795821	city	5	1	0.717269	0.717269	0	1	0	0	CorrectCommission	0.605573	0.885654	0
271.036407	0.796068	city	6	1	0.798492	0.798492	0	1	0	0	CorrectCommission	0.263810	0.850949	0
271.832336	0.795770	city	2	1	0.709334	0.709334	0	1	0	0	CorrectCommission	0.690502	0.817796	0
272.627960	0.795497	city	8	1	0.648775	0.648775	0	1	0	0	CorrectCommission	1.338712	0.787383	0
273.423645	0.795860	city	5	1	0.748168	0.748168	0	1	0	0	CorrectCommission	0.274844	0.760762	0
274.219421	0.795721	city	8	1	0.953945	0.953945	0	1	0	0	CorrectCommission	1.927718	0.738929	1
275.015228	0.795902	city	4	1	0.748118	0.748118	0	1	0	0	CorrectCommission	0.275376	0.722658	1
275.811218	0.796044	city	3	1	0.748506	0.748506	0	1	0	0	CorrectCommission	0.271219	0.712668	1
276.606995	0.795507	city	7	1	0.811638	0.811638	0	1	0	0	CorrectCommission	0.404513	0.709466	1
277.402771	0.796082	city	6	1	0.848181	0.848181	0	1	0	0	CorrectCommission	0.795662	0.713342	1
278.198547	0.795472	city	7	1	0.798022	0.798022	0	1	0	0	CorrectCommission	0.258777	0.724317	1
278.994354	0.796130	city	5	1	0.848382	0.848382	0	1	0	0	CorrectCommission	0.797807	0.742135	1
279.790192	0.795528	city	3	1	0.798348	0.798348	0	1	0	0	CorrectCommission	0.262266	0.766130	0
280.585846	0.795787	mountain	4	0	0.000000	0.728422	1	0	0	0	CorrectOmission	0.486193	0.795359	0
281.381653	0.795843	mountain	3	0	0.000000	0.668519	1	0	0	0	CorrectOmission	1.127373	0.828500	0
282.177582	0.796029	city	10	1	0.648553	0.648553	0	1	0	0	CorrectCommission	1.341080	0.863946	0
282.973358	0.795488	city	7	1	0.698439	0.698439	0	1	0	0	CorrectCommission	0.807119	0.899816	0
283.769165	0.796160	city	8	1	0.650597	0.650597	0	1	0	0	CorrectCommission	1.319207	0.934145	0
284.565002	0.795519	city	7	1	0.711066	0.711066	0	1	0	0	CorrectCommission	0.671966	0.965004	0
285.360687	0.795821	city	9	1	0.708160	0.708160	0	1	0	0	CorrectCommission	0.703076	0.990667	0
286.156616	0.796052	city	8	1	0.748796	0.748796	0	1	0	0	CorrectCommission	0.268117	1.009708	0
286.952393	0.795492	city	6	1	0.613209	0.613209	0	1	0	0	CorrectCommission	1.719392	1.021190	0
287.748199	0.796132	city	8	1	0.599665	0.599665	0	1	0	0	CorrectCommission	1.864364	1.024703	0
288.544037	0.795530	mountain	10	1	0.605941	0.605941	0	0	1	0	CommissionError	1.797188	1.020517	0
289.339722	0.795804	city	5	1	0.912650	0.912650	0	1	0	0	CorrectCommission	1.485717	1.009510	0
290.135498	0.795782	mountain	5	0	0.000000	0.898264	1	0	0	0	CorrectOmission	1.331735	0.993011	0
290.931305	0.795821	city	3	1	0.798217	0.798217	0	1	0	0	CorrectCommission	0.260869	0.972642	0
291.727112	0.795801	city	7	1	0.847944	0.847944	0	1	0	0	CorrectCommission	0.793121	0.950019	0
292.523041	0.796053	city	8	1	0.713775	0.713775	0	1	0	0	CorrectCommission	0.642968	0.926510	0
293.318970	0.795816	city	7	1	0.811842	0.811842	0	1	0	0	CorrectCommission	0.406707	0.903072	0
294.114655	0.795533	city	10	1	0.747992	0.747992	0	1	0	0	CorrectCommission	0.276724	0.880118	0
294.910461	0.796069	city	4	1	0.847814	0.847814	0	1	0	0	CorrectCommission	0.791730	0.857510	0
295.706238	0.795533	city	3	1	0.863398	0.863398	0	1	0	0	CorrectCommission	0.958540	0.834716	0
296.501892	0.795734	city	8	1	0.847522	0.847522	0	1	0	0	CorrectCommission	0.788604	0.810978	0
297.297821	0.796120	city	2	1	1.002045	1.002045	0	1	0	0	CorrectCommission	2.442567	0.785621	0
298.093628	0.795531	city	8	1	0.847345	0.847345	0	1	0	0	CorrectCommission	0.786714	0.758192	1
298.889313	0.795818	city	1	1	0.798093	0.798093	0	1	0	0	CorrectCommission	0.259537	0.728781	1
299.685089	0.795765	city	4	1	0.897295	0.897295	0	1	0	0	CorrectCommission	1.321364	0.697926	1
300.481049	0.796106	mountain	9	0	0.000000	0.836651	1	0	0	0	CorrectOmission	0.672245	0.666634	1
301.276855	0.795502	city	5	1	0.748403	0.748403	0	1	0	0	CorrectCommission	0.272327	0.636261	1
302.072510	0.795813	city	9	1	0.764796	0.764796	0	1	0	0	CorrectCommission	0.096856	0.608305	1
302.868286	0.795737	city	2	1	0.797803	0.797803	0	1	0	0	CorrectCommission	0.256435	0.584166	1
303.664093	0.795890	mountain	4	0	0.000000	0.757819	1	0	0	0	CorrectOmission	0.171539	0.564983	1
304.459930	0.795777	city	5	1	0.705350	0.705350	0	1	0	0	CorrectCommission	0.733150	0.551443	1
305.255859	0.796081	city	3	1	0.700901	0.700901	0	1	0	0	CorrectCommission	0.780769	0.543748	1
306.051666	0.795544	city	5	1	0.801191	0.801191	0	1	0	0	CorrectCommission	0.292697	0.541585	1
306.847473	0.796082	city	4	1	0.748778	0.748778	0	1	0	0	CorrectCommission	0.268312	0.544275	1
307.643280	0.795514	city	3	1	0.748019	0.748019	0	1	0	0	CorrectCommission	0.276437	0.550792	1
308.439056	0.796055	city	5	1	0.847701	0.847701	0	1	0	0	CorrectCommission	0.790524	0.559969	1
309.234863	0.795567	city	4	1	0.847912	0.847912	0	1	0	0	CorrectCommission	0.792780	0.570598	1
310.030548	0.795783	city	2	1	0.847784	0.847784	0	1	0	0	CorrectCommission	0.791411	0.581611	1
310.826294	0.795732	city	10	1	0.866355	0.866355	0	1	0	0	CorrectCommission	0.990193	0.592157	1
311.622070	0.795827	city	1	1	0.748627	0.748627	0	1	0	0	CorrectCommission	0.269924	0.601664	1
312.417877	0.795778	city	6	1	0.762699	0.762699	0	1	0	0	CorrectCommission	0.119307	0.609859	1
313.213715	0.795885	city	7	1	0.847856	0.847856	0	1	0	0	CorrectCommission	0.792184	0.616721	1
314.009552	0.795771	city	8	1	0.847569	0.847569	0	1	0	0	CorrectCommission	0.789107	0.622402	1
314.805481	0.796097	city	2	1	0.807218	0.807218	0	1	0	0	CorrectCommission	0.357208	0.627143	1
315.601257	0.795476	city	10	1	0.915945	0.915945	0	1	0	0	CorrectCommission	1.520986	0.631285	1
316.396912	0.795819	city	6	1	0.847845	0.847845	0	1	0	0	CorrectCommission	0.792065	0.635036	1
317.192719	0.795815	city	9	1	0.798071	0.798071	0	1	0	0	CorrectCommission	0.259305	0.638490	1
317.988678	0.796103	mountain	8	0	0.000000	0.797564	1	0	0	0	CorrectOmission	0.253870	0.641536	1
318.784485	0.795507	city	5	1	0.798227	0.798227	0	1	0	0	CorrectCommission	0.260976	0.643806	1
319.580292	0.796067	city	2	1	0.751969	0.751969	0	1	0	0	CorrectCommission	0.234161	0.644728	1
320.376099	0.795558	city	5	1	0.653116	0.653116	0	1	0	0	CorrectCommission	1.292238	0.643566	1
321.171753	0.795761	city	6	1	0.750975	0.750975	0	1	0	0	CorrectCommission	0.244797	0.639539	1
321.967682	0.796073	city	1	1	0.648564	0.648564	0	1	0	0	CorrectCommission	1.340969	0.632048	1
322.763458	0.795531	mountain	5	0	0.000000	0.664449	1	0	0	0	CorrectOmission	1.170939	0.620688	1
323.559143	0.795818	city	4	1	0.710614	0.710614	0	1	0	0	CorrectCommission	0.676804	0.605493	1
324.355103	0.796079	city	3	1	0.699043	0.699043	0	1	0	0	CorrectCommission	0.800661	0.586948	1
325.151031	0.795796	city	5	1	0.716547	0.716547	0	1	0	0	CorrectCommission	0.613297	0.565951	1
325.946686	0.795504	city	6	1	0.797783	0.797783	0	1	0	0	CorrectCommission	0.256221	0.543782	1
326.742340	0.795797	city	9	1	0.748083	0.748083	0	1	0	0	CorrectCommission	0.275750	0.521998	1
327.538300	0.796122	city	1	1	0.753485	0.753485	0	1	0	0	CorrectCommission	0.217930	0.502229	1
328.334106	0.795495	city	5	1	0.710149	0.710149	0	1	0	0	CorrectCommission	0.681782	0.486047	1
329.129730	0.795747	city	9	1	0.754674	0.754674	0	1	0	0	CorrectCommission	0.205202	0.474814	1
329.925507	0.795824	city	8	1	0.752651	0.752651	0	1	0	0	CorrectCommission	0.226862	0.469562	1
330.721313	0.795780	city	4	1	0.851886	0.851886	0	1	0	0	CorrectCommission	0.835318	0.470854	1
331.517151	0.795879	city	3	1	0.760297	0.760297	0	1	0	0	CorrectCommission	0.145014	0.478745	1
332.312988	0.795821	city	2	1	0.748870	0.748870	0	1	0	0	CorrectCommission	0.267328	0.492860	1
333.108765	0.795723	city	7	1	0.748365	0.748365	0	1	0	0	CorrectCommission	0.272728	0.512339	1
333.904694	0.796145	city	9	1	0.748029	0.748029	0	1	0	0	CorrectCommission	0.276330	0.535967	1
334.700653	0.795776	city	2	1	0.712458	0.712458	0	1	0	0	CorrectCommission	0.657069	0.562333	1
335.496307	0.795532	city	1	1	0.748566	0.748566	0	1	0	0	CorrectCommission	0.270580	0.589938	1
336.291962	0.795793	city	8	1	0.847871	0.847871	0	1	0	0	CorrectCommission	0.792341	0.617396	1
337.087769	0.795793	city	6	1	0.859701	0.859701	0	1	0	0	CorrectCommission	0.918966	0.643538	1
337.883698	0.796097	city	5	1	0.898273	0.898273	0	1	0	0	CorrectCommission	1.331830	0.667505	1
338.679657	0.795808	mountain	8	0	0.000000	0.887464	1	0	0	0	CorrectOmission	1.216136	0.688843	1
339.475311	0.795504	city	10	1	0.847286	0.847286	0	1	0	0	CorrectCommission	0.786076	0.707443	1
340.271118	0.796090	city	7	1	0.797748	0.797748	0	1	0	0	CorrectCommission	0.255841	0.723528	1
341.066925	0.795520	city	2	1	0.748745	0.748745	0	1	0	0	CorrectCommission	0.268664	0.737529	1
341.862610	0.795841	city	4	1	0.854194	0.854194	0	1	0	0	CorrectCommission	0.860024	0.749974	1
342.658417	0.795778	city	9	1	0.798407	0.798407	0	1	0	0	CorrectCommission	0.262901	0.761358	0
343.454193	0.795776	city	3	1	0.847597	0.847597	0	1	0	0	CorrectCommission	0.789407	0.772169	0
344.249969	0.795793	city	6	1	0.898212	0.898212	0	1	0	0	CorrectCommission	1.331176	0.782794	0
345.045807	0.795857	city	10	1	0.848246	0.848246	0	1	0	0	CorrectCommission	0.796352	0.793519	0
345.841614	0.795739	mountain	4	0	0.000000	0.853253	1	0	0	0	CorrectOmission	0.849950	0.804567	0
346.637390	0.795817	city	3	1	0.868178	0.868178	0	1	0	0	CorrectCommission	1.009706	0.816094	0
347.433350	0.796106	city	9	1	0.847966	0.847966	0	1	0	0	CorrectCommission	0.793356	0.828151	0
348.229156	0.795531	city	5	1	0.654998	0.654998	0	1	0	0	CorrectCommission	1.272104	0.840694	0
349.024841	0.795809	city	10	1	0.748680	0.748680	0	1	0	0	CorrectCommission	0.269366	0.853501	0
349.820618	0.795765	mountain	6	0	0.000000	0.729438	1	0	0	0	CorrectOmission	0.475320	0.866195	0
350.616394	0.795774	city	2	1	0.721102	0.721102	0	1	0	0	CorrectCommission	0.564547	0.878151	0
351.412201	0.795865	city	7	1	0.847500	0.847500	0	1	0	0	CorrectCommission	0.788369	0.888576	0
352.208038	0.795775	city	1	1	0.660758	0.660758	0	1	0	0	CorrectCommission	1.210447	0.896533	0
353.003815	0.795822	city	9	1	0.897169	0.897169	0	1	0	0	CorrectCommission	1.320011	0.901092	0
353.799591	0.795731	city	10	1	0.652429	0.652429	0	1	0	0	CorrectCommission	1.299593	0.901418	0
354.595367	0.795819	city	6	1	0.698621	0.698621	0	1	0	0	CorrectCommission	0.805171	0.896908	0
355.391205	0.795842	city	5	1	0.652904	0.652904	0	1	0	0	CorrectCommission	1.294516	0.887262	0
356.187012	0.795780	city	4	1	0.698995	0.698995	0	1	0	0	CorrectCommission	0.801172	0.872515	0
356.982941	0.796068	city	8	1	0.652906	0.652906	0	1	0	0	CorrectCommission	1.294489	0.853133	0
357.778748	0.795573	city	9	1	0.718687	0.718687	0	1	0	0	CorrectCommission	0.590395	0.829844	0
358.574432	0.795752	city	2	1	0.798556	0.798556	0	1	0	0	CorrectCommission	0.264498	0.803653	0
359.370209	0.795815	city	5	1	0.650982	0.650982	0	1	0	0	CorrectCommission	1.315081	0.775683	0
360.166016	0.795828	city	2	1	0.702277	0.702277	0	1	0	0	CorrectCommission	0.766047	0.747029	1
360.961853	0.795807	city	1	1	0.748381	0.748381	0	1	0	0	CorrectCommission	0.272557	0.718778	1
361.757660	0.795797	city	2	1	0.847766	0.847766	0	1	0	0	CorrectCommission	0.791223	0.691829	1
362.553589	0.796055	city	6	1	0.754832	0.754832	0	1	0	0	CorrectCommission	0.203509	0.666897	1
363.349365	0.795511	city	1	1	0.662351	0.662351	0	1	0	0	CorrectCommission	1.193397	0.644506	1
364.145111	0.796011	city	8	1	0.851525	0.851525	0	1	0	0	CorrectCommission	0.831454	0.624903	1
364.940948	0.795630	city	2	1	0.798446	0.798446	0	1	0	0	CorrectCommission	0.263317	0.608229	1
365.736603	0.795723	city	9	1	0.804730	0.804730	0	1	0	0	CorrectCommission	0.330577	0.594472	1
366.532410	0.795859	mountain	8	0	0.000000	0.820350	1	0	0	0	CorrectOmission	0.497767	0.583502	1
367.328217	0.795765	city	9	1	0.800154	0.800154	0	1	0	0	CorrectCommission	0.281593	0.575146	1
368.123993	0.795778	city	10	1	0.698988	0.698988	0	1	0	0	CorrectCommission	0.801242	0.569218	1
368.919952	0.796130	city	9	1	0.699227	0.699227	0	1	0	0	CorrectCommission	0.798688	0.565520	1
369.715729	0.795464	city	10	1	0.698053	0.698053	0	1	0	0	CorrectCommission	0.811253	0.563885	1
370.511566	0.796160	city	4	1	0.764577	0.764577	0	1	0	0	CorrectCommission	0.099204	0.564187	1
371.307526	0.795776	city	10	1	0.797425	0.797425	0	1	0	0	CorrectCommission	0.252384	0.566375	1
372.103302	0.795804	city	9	1	0.897441	0.897441	0	1	0	0	CorrectCommission	1.322918	0.570357	1
372.898987	0.795559	city	1	1	0.809917	0.809917	0	1	0	0	CorrectCommission	0.386099	0.575995	1
373.694672	0.795779	city	7	1	0.766969	0.766969	0	1	0	0	CorrectCommission	0.073599	0.583200	1
374.490601	0.796085	city	5	1	0.698264	0.698264	0	1	0	0	CorrectCommission	0.808995	0.591788	1
375.286407	0.795531	city	10	1	0.756396	0.756396	0	1	0	0	CorrectCommission	0.186774	0.601490	1
376.082062	0.795798	city	5	1	0.699505	0.699505	0	1	0	0	CorrectCommission	0.795708	0.612056	1
376.877869	0.795784	city	10	1	0.807773	0.807773	0	1	0	0	CorrectCommission	0.363150	0.623174	1
377.673798	0.796112	city	4	1	0.898076	0.898076	0	1	0	0	CorrectCommission	1.329722	0.634594	1
378.469604	0.795480	city	9	1	0.848157	0.848157	0	1	0	0	CorrectCommission	0.795404	0.646114	1
379.265228	0.795784	city	5	1	0.749619	0.749619	0	1	0	0	CorrectCommission	0.259306	0.657618	1
380.061035	0.795834	city	1	1	0.709525	0.709525	0	1	0	0	CorrectCommission	0.688467	0.669076	1
380.856873	0.795811	city	8	1	0.859681	0.859681	0	1	0	0	CorrectCommission	0.918749	0.680466	1
381.652802	0.796090	city	1	1	0.797773	0.797773	0	1	0	0	CorrectCommission	0.256109	0.691719	1
382.448608	0.795493	city	8	1	0.859227	0.859227	0	1	0	0	CorrectCommission	0.913897	0.702753	1
383.244263	0.795806	city	3	1	0.847684	0.847684	0	1	0	0	CorrectCommission	0.790338	0.713329	1
384.040039	0.795756	city	9	1	0.848363	0.848363	0	1	0	0	CorrectCommission	0.797604	0.723084	1
384.835846	0.795853	city	7	1	0.802306	0.802306	0	1	0	0	CorrectCommission	0.304629	0.731510	1
385.631683	0.795836	city	3	1	0.717032	0.717032	0	1	0	0	CorrectCommission	0.608105	0.738046	1
386.427643	0.796052	city	6	1	0.897704	0.897704	0	1	0	0	CorrectCommission	1.325735	0.742043	1
387.223572	0.795811	city	2	1	0.748673	0.748673	0	1	0	0	CorrectCommission	0.269432	0.742911	1
388.019379	0.795801	city	7	1	0.847167	0.847167	0	1	0	0	CorrectCommission	0.784810	0.740318	1
388.815033	0.795535	mountain	5	0	0.000000	0.894370	1	0	0	0	CorrectOmission	1.290048	0.734180	1
389.610657	0.795726	city	7	1	0.898326	0.898326	0	1	0	0	CorrectCommission	1.332392	0.724730	1
390.406433	0.795802	mountain	4	0	0.000000	0.867081	1	0	0	0	CorrectOmission	0.997955	0.712605	1
391.202271	0.795863	city	7	1	0.801615	0.801615	0	1	0	0	CorrectCommission	0.297232	0.698805	1
391.998077	0.795739	city	10	1	0.702909	0.702909	0	1	0	0	CorrectCommission	0.759281	0.684612	1
392.793854	0.795835	mountain	8	0	0.000000	0.775500	1	0	0	0	CorrectOmission	0.017713	0.671442	1
393.589691	0.795824	city	7	1	0.847830	0.847830	0	1	0	0	CorrectCommission	0.791906	0.660751	1
394.385498	0.795791	city	6	1	0.748339	0.748339	0	1	0	0	CorrectCommission	0.273010	0.653848	1
395.181305	0.795828	city	1	1	0.748325	0.748325	0	1	0	0	CorrectCommission	0.273160	0.651835	1
395.977112	0.795777	city	4	1	0.915771	0.915771	0	1	0	0	CorrectCommission	1.519123	0.655496	1
396.772888	0.795794	city	6	1	0.749793	0.749793	0	1	0	0	CorrectCommission	0.257448	0.665145	1
397.568695	0.795810	city	10	1	0.797767	0.797767	0	1	0	0	CorrectCommission	0.256044	0.680734	1
398.364655	0.796107	city	5	1	0.698228	0.698228	0	1	0	0	CorrectCommission	0.809377	0.701700	1
399.160461	0.795514	city	2	1	0.707506	0.707506	0	1	0	0	CorrectCommission	0.710073	0.727079	1
399.956238	0.796055	city	5	1	0.799971	0.799971	0	1	0	0	CorrectCommission	0.279636	0.755524	1
400.752014	0.795523	city	2	1	0.909145	0.909145	0	1	0	0	CorrectCommission	1.448199	0.785418	0
401.547668	0.795745	city	8	1	0.798244	0.798244	0	1	0	0	CorrectCommission	0.261151	0.814955	0
402.343445	0.795826	city	7	1	0.748193	0.748193	0	1	0	0	CorrectCommission	0.274579	0.842428	0
403.139435	0.796152	city	1	1	0.705246	0.705246	0	1	0	0	CorrectCommission	0.734261	0.866299	0
403.935272	0.795500	city	7	1	0.947585	0.947585	0	1	0	0	CorrectCommission	1.859646	0.885296	0
404.730927	0.795827	city	2	1	0.956799	0.956799	0	1	0	0	CorrectCommission	1.958270	0.898638	0
405.526733	0.795774	city	9	1	0.899919	0.899919	0	1	0	0	CorrectCommission	1.349445	0.906100	0
406.322510	0.795792	city	7	1	0.715241	0.715241	0	1	0	0	CorrectCommission	0.627275	0.907983	0
407.118317	0.795819	mountain	9	0	0.000000	0.665316	1	0	0	0	CorrectOmission	1.161655	0.905012	0
407.914124	0.795773	city	10	1	0.707505	0.707505	0	1	0	0	CorrectCommission	0.710079	0.898126	0
408.709869	0.795772	city	9	1	0.799170	0.799170	0	1	0	0	CorrectCommission	0.271067	0.888374	0
409.505707	0.795852	mountain	4	0	0.000000	0.783321	1	0	0	0	CorrectOmission	0.101421	0.876693	0
410.301514	0.795793	city	8	1	0.702465	0.702465	0	1	0	0	CorrectCommission	0.764028	0.863778	0
411.097321	0.795779	city	5	1	0.599111	0.599111	0	1	0	0	CorrectCommission	1.870290	0.849924	0
411.893127	0.795845	city	9	1	0.698450	0.698450	0	1	0	0	CorrectCommission	0.807009	0.835137	0
412.688934	0.795795	city	10	1	0.700103	0.700103	0	1	0	0	CorrectCommission	0.789307	0.819254	0
413.484741	0.795833	mountain	8	0	0.000000	0.832217	1	0	0	0	CorrectOmission	0.624788	0.801938	0
414.280548	0.795732	city	9	1	0.897479	0.897479	0	1	0	0	CorrectCommission	1.323324	0.782901	0
415.076324	0.795858	city	8	1	0.698577	0.698577	0	1	0	0	CorrectCommission	0.805650	0.761969	0
415.872131	0.795769	city	2	1	0.764552	0.764552	0	1	0	0	CorrectCommission	0.099475	0.739237	1
416.668060	0.796093	city	8	1	0.847655	0.847655	0	1	0	0	CorrectCommission	0.790033	0.715085	1
417.463867	0.795504	city	1	1	0.698373	0.698373	0	1	0	0	CorrectCommission	0.807825	0.690162	1
418.259552	0.795829	city	5	1	0.598848	0.598848	0	1	0	0	CorrectCommission	1.873113	0.665321	1
419.055328	0.795766	city	4	1	0.748124	0.748124	0	1	0	0	CorrectCommission	0.275317	0.641564	1
419.851135	0.795824	city	2	1	0.801936	0.801936	0	1	0	0	CorrectCommission	0.300674	0.619937	1
420.646942	0.795788	city	1	1	0.798074	0.798074	0	1	0	0	CorrectCommission	0.259330	0.601296	1
421.442749	0.795825	city	7	1	0.753314	0.753314	0	1	0	0	CorrectCommission	0.219756	0.586224	1
422.238556	0.795805	city	1	1	0.798675	0.798675	0	1	0	0	CorrectCommission	0.265762	0.574970	1
423.034363	0.795791	city	4	1	0.798206	0.798206	0	1	0	0	CorrectCommission	0.260742	0.567481	1
423.830170	0.795836	city	8	1	0.766808	0.766808	0	1	0	0	CorrectCommission	0.075325	0.563405	1
424.625977	0.795754	city	9	1	0.898109	0.898109	0	1	0	0	CorrectCommission	1.330068	0.562184	1
425.421722	0.795789	city	4	1	0.902290	0.902290	0	1	0	0	CorrectCommission	1.374825	0.563134	1
426.217682	0.796104	city	6	1	0.801340	0.801340	0	1	0	0	CorrectCommission	0.294295	0.565647	1
427.013641	0.795793	city	3	1	0.702332	0.702332	0	1	0	0	CorrectCommission	0.765450	0.569243	1
427.809296	0.795529	city	1	1	0.797549	0.797549	0	1	0	0	CorrectCommission	0.253717	0.573515	1
428.604919	0.795749	city	6	1	0.847475	0.847475	0	1	0	0	CorrectCommission	0.788103	0.578170	1
429.400757	0.795891	city	9	1	0.804991	0.804991	0	1	0	0	CorrectCommission	0.333371	0.582952	1
430.196564	0.795713	city	7	1	0.751907	0.751907	0	1	0	0	CorrectCommission	0.234819	0.587707	1
430.992310	0.795789	city	5	1	0.804864	0.804864	0	1	0	0	CorrectCommission	0.332015	0.592276	1
431.788147	0.795862	city	1	1	0.807409	0.807409	0	1	0	0	CorrectCommission	0.359257	0.596522	1
432.583984	0.795827	city	10	1	0.851950	0.851950	0	1	0	0	CorrectCommission	0.835998	0.600419	1
433.379761	0.795734	city	3	1	0.853806	0.853806	0	1	0	0	CorrectCommission	0.855868	0.604088	1
434.175537	0.795838	city	7	1	0.947031	0.947031	0	1	0	0	CorrectCommission	1.853719	0.607856	1
434.971375	0.795802	city	3	1	0.809951	0.809951	0	1	0	0	CorrectCommission	0.386462	0.612231	1
435.767303	0.796081	city	7	1	0.797970	0.797970	0	1	0	0	CorrectCommission	0.258221	0.617958	1
436.563110	0.795537	city	9	1	0.801684	0.801684	0	1	0	0	CorrectCommission	0.297975	0.625867	1
437.358917	0.796091	city	8	1	0.756704	0.756704	0	1	0	0	CorrectCommission	0.183480	0.636738	1
438.154724	0.795474	city	6	1	0.649079	0.649079	0	1	0	0	CorrectCommission	1.335455	0.651144	1
438.950500	0.796137	city	9	1	0.748870	0.748870	0	1	0	0	CorrectCommission	0.267326	0.669230	1
439.746338	0.795524	mountain	1	0	0.000000	0.782346	1	0	0	0	CorrectOmission	0.090990	0.690734	1
440.541992	0.795772	city	1	1	0.798908	0.798908	0	1	0	0	CorrectCommission	0.268261	0.714829	1
441.337769	0.795750	city	2	1	0.847956	0.847956	0	1	0	0	CorrectCommission	0.793255	0.740180	1
442.133545	0.795849	city	1	1	0.847626	0.847626	0	1	0	0	CorrectCommission	0.789720	0.765076	0
442.929382	0.795828	city	5	1	0.899866	0.899866	0	1	0	0	CorrectCommission	1.348874	0.787725	0
443.725311	0.796029	city	4	1	0.910711	0.910711	0	1	0	0	CorrectCommission	1.464964	0.806457	0
444.521118	0.795540	city	5	1	0.805177	0.805177	0	1	0	0	CorrectCommission	0.335364	0.819984	0
445.316772	0.795765	city	4	1	0.897840	0.897840	0	1	0	0	CorrectCommission	1.327193	0.827769	0
446.112549	0.795838	city	6	1	0.852454	0.852454	0	1	0	0	CorrectCommission	0.841392	0.830077	0
446.908539	0.796109	mountain	6	0	0.000000	0.874225	1	0	0	0	CorrectOmission	1.074428	0.828292	0
447.704346	0.795522	city	5	1	0.897705	0.897705	0	1	0	0	CorrectCommission	1.325746	0.824765	0
448.500153	0.796079	city	10	1	0.857443	0.857443	0	1	0	0	CorrectCommission	0.894794	0.822649	0
449.295929	0.795496	city	3	1	0.851737	0.851737	0	1	0	0	CorrectCommission	0.833721	0.825635	0
450.091736	0.796114	city	9	1	0.801354	0.801354	0	1	0	0	CorrectCommission	0.294443	0.837442	0
450.887573	0.795544	city	8	1	0.797755	0.797755	0	1	0	0	CorrectCommission	0.255915	0.861297	0
451.683380	0.796056	mountain	7	0	0.000000	0.825291	1	0	0	0	CorrectOmission	0.550658	0.899410	0
452.479156	0.795528	city	6	1	0.852571	0.852571	0	1	0	0	CorrectCommission	0.842651	0.952533	0
453.274780	0.795728	city	2	1	0.848201	0.848201	0	1	0	0	CorrectCommission	0.795872	1.019668	0
454.070557	0.795807	city	6	1	0.762958	0.762958	0	1	0	0	CorrectCommission	0.116533	1.097994	0
454.866394	0.795862	mountain	3	0	0.000000	0.766635	1	0	0	0	CorrectOmission	0.077181	1.183053	0
455.662201	0.795778	city	3	1	0.798666	0.798666	0	1	0	0	CorrectCommission	0.265668	1.269092	0
456.458008	0.795840	mountain	7	1	0.798487	0.798487	0	0	1	0	CommissionError	0.263751	1.349787	0
457.253845	0.795811	city	4	1	0.957944	0.957944	0	1	0	0	CorrectCommission	1.970527	1.419069	0
458.049652	0.795794	city	9	1	1.245657	1.245657	0	1	0	0	CorrectCommission	5.050096	1.471800	0
458.845428	0.795769	mountain	9	0	0.000000	1.225619	1	0	0	0	CorrectOmission	4.835617	1.504464	0
459.641357	0.796098	city	10	1	1.057398	1.057398	0	1	0	0	CorrectCommission	3.035045	1.515792	0
460.437164	0.795486	city	5	0	0.000000	0.900563	0	0	0	1	OmissionError	1.356334	1.506703	0
461.232819	0.795851	mountain	4	0	0.000000	0.777391	1	0	0	0	CorrectOmission	0.037946	1.479950	0
462.028625	0.795770	city	1	1	0.710161	0.710161	0	1	0	0	CorrectCommission	0.681659	1.439650	0
462.824554	0.796092	city	8	1	0.721151	0.721151	0	1	0	0	CorrectCommission	0.564018	1.390450	0
463.620361	0.795507	city	6	1	0.748209	0.748209	0	1	0	0	CorrectCommission	0.274406	1.336959	0
464.416046	0.795835	mountain	3	0	0.000000	0.881836	1	0	0	0	CorrectOmission	1.155890	1.283153	0
465.211853	0.795815	city	7	1	0.966771	0.966771	0	1	0	0	CorrectCommission	2.065006	1.231878	0
466.007812	0.796060	city	2	1	0.847753	0.847753	0	1	0	0	CorrectCommission	0.791079	1.184818	0
466.803558	0.795439	city	10	1	0.607903	0.607903	0	1	0	0	CorrectCommission	1.776188	1.142599	0
467.599213	0.795865	city	3	1	0.852684	0.852684	0	1	0	0	CorrectCommission	0.843857	1.104853	0
468.395050	0.795836	city	8	1	0.855990	0.855990	0	1	0	0	CorrectCommission	0.879249	1.070663	0
469.190857	0.795747	city	3	1	0.897176	0.897176	0	1	0	0	CorrectCommission	1.320084	1.038781	0
469.986633	0.795860	city	9	1	0.897301	0.897301	0	1	0	0	CorrectCommission	1.321419	1.007912	0
470.782440	0.795751	mountain	10	0	0.000000	0.880288	1	0	0	0	CorrectOmission	1.139321	0.976951	0
471.578217	0.795801	city	9	1	0.813229	0.813229	0	1	0	0	CorrectCommission	0.421544	0.945122	0
472.374023	0.795809	city	6	1	0.663214	0.663214	0	1	0	0	CorrectCommission	1.184156	0.912023	0
473.169830	0.795809	city	9	1	0.748428	0.748428	0	1	0	0	CorrectCommission	0.272064	0.877514	0
473.965668	0.795813	city	3	1	0.798673	0.798673	0	1	0	0	CorrectCommission	0.265746	0.841828	0
474.761475	0.795811	city	6	1	0.947712	0.947712	0	1	0	0	CorrectCommission	1.861007	0.805410	0
475.557281	0.795808	city	4	1	0.947757	0.947757	0	1	0	0	CorrectCommission	1.861488	0.768797	0
476.353058	0.795773	city	7	1	0.804973	0.804973	0	1	0	0	CorrectCommission	0.333180	0.732758	1
477.148987	0.796055	mountain	9	0	0.000000	0.761575	1	0	0	0	CorrectOmission	0.131337	0.698300	1
477.944794	0.795588	city	10	1	0.761311	0.761311	0	1	0	0	CorrectCommission	0.134162	0.666539	1
478.740631	0.796066	city	2	1	0.747930	0.747930	0	1	0	0	CorrectCommission	0.277394	0.638661	1
479.536407	0.795488	city	9	1	0.901604	0.901604	0	1	0	0	CorrectCommission	1.367480	0.615889	1
480.332062	0.795843	city	4	1	0.797956	0.797956	0	1	0	0	CorrectCommission	0.258072	0.599358	1
481.128021	0.796064	city	6	1	0.707085	0.707085	0	1	0	0	CorrectCommission	0.714575	0.590151	1
481.923828	0.795527	city	3	1	0.704158	0.704158	0	1	0	0	CorrectCommission	0.745910	0.589028	1
482.719604	0.796057	city	8	1	0.750057	0.750057	0	1	0	0	CorrectCommission	0.254626	0.596322	1
483.515564	0.795830	city	4	1	0.759350	0.759350	0	1	0	0	CorrectCommission	0.155159	0.611945	1
484.311218	0.795514	city	1	1	0.798518	0.798518	0	1	0	0	CorrectCommission	0.264085	0.635230	1
485.107025	0.796091	city	6	1	0.798021	0.798021	0	1	0	0	CorrectCommission	0.258762	0.664934	1
485.902832	0.795535	mountain	6	0	0.000000	0.760745	1	0	0	0	CorrectOmission	0.140222	0.699263	1
486.698517	0.795783	city	8	1	0.705080	0.705080	0	1	0	0	CorrectCommission	0.736037	0.736037	1
