onset	duration	trial_type	image_type	Press	ReactionTime	ReactionTime_Interpolated	CorrectOmission	CorrectCommission	CommissionError	OmissionError	response_type	nonsmoothVarianceTimeCourse	VarianceTimeCourse	In_the_Zone
8.421627	0.795767	city	8	1	0.702457	0.702457	0	1	0	0	CorrectCommission	0.460783	0.460783	1
9.217410	0.795798	city	10	1	0.549470	0.549470	0	1	0	0	CorrectCommission	0.323421	0.425550	1
10.013218	0.795818	city	1	1	0.549232	0.549232	0	1	0	0	CorrectCommission	0.324640	0.391308	1
10.809014	0.795775	city	4	1	0.800464	0.800464	0	1	0	0	CorrectCommission	0.963163	0.359025	1
11.604789	0.795775	city	8	1	0.599526	0.599526	0	1	0	0	CorrectCommission	0.066836	0.329551	1
12.400613	0.795874	city	9	1	0.650150	0.650150	0	1	0	0	CorrectCommission	0.192663	0.303663	1
13.196417	0.795733	city	10	1	0.598943	0.598943	0	1	0	0	CorrectCommission	0.069822	0.281903	1
13.992222	0.795877	city	1	1	0.599649	0.599649	0	1	0	0	CorrectCommission	0.066204	0.264614	1
14.788070	0.795820	mountain	9	0	0.000000	0.602923	1	0	0	0	CorrectOmission	0.049424	0.251850	1
15.583863	0.795767	city	1	1	0.605721	0.605721	0	1	0	0	CorrectCommission	0.035080	0.243436	1
16.379656	0.795817	city	5	1	0.605001	0.605001	0	1	0	0	CorrectCommission	0.038771	0.238943	1
17.175463	0.795796	city	7	1	0.652648	0.652648	0	1	0	0	CorrectCommission	0.205465	0.237748	1
17.971258	0.795796	city	5	1	0.657202	0.657202	0	1	0	0	CorrectCommission	0.228809	0.239122	1
18.767076	0.795841	city	6	1	0.797854	0.797854	0	1	0	0	CorrectCommission	0.949783	0.242325	1
19.562857	0.795721	city	1	1	0.649270	0.649270	0	1	0	0	CorrectCommission	0.188148	0.246658	1
20.358656	0.795875	city	7	1	0.649625	0.649625	0	1	0	0	CorrectCommission	0.189970	0.251584	1
21.154629	0.796071	city	3	1	0.598919	0.598919	0	1	0	0	CorrectCommission	0.069949	0.256689	1
21.950428	0.795527	city	9	1	0.549520	0.549520	0	1	0	0	CorrectCommission	0.323165	0.261722	1
22.746080	0.795781	city	7	1	0.599031	0.599031	0	1	0	0	CorrectCommission	0.069373	0.266517	1
23.541862	0.795781	city	10	1	0.503472	0.503472	0	1	0	0	CorrectCommission	0.559205	0.271048	1
24.337629	0.795752	city	7	1	0.649776	0.649776	0	1	0	0	CorrectCommission	0.190745	0.275290	1
25.133459	0.795907	city	1	1	0.615924	0.615924	0	1	0	0	CorrectCommission	0.017218	0.279259	1
25.929289	0.795754	city	8	1	0.550095	0.550095	0	1	0	0	CorrectCommission	0.320218	0.282978	1
26.725065	0.795798	city	1	1	0.503054	0.503054	0	1	0	0	CorrectCommission	0.561345	0.286465	1
27.520840	0.795751	city	5	1	0.555803	0.555803	0	1	0	0	CorrectCommission	0.290959	0.289768	1
28.316656	0.795881	city	6	1	0.599092	0.599092	0	1	0	0	CorrectCommission	0.069060	0.292981	1
29.112640	0.796088	city	7	1	0.516005	0.516005	0	1	0	0	CorrectCommission	0.494960	0.296276	1
29.908398	0.795428	city	9	1	0.599206	0.599206	0	1	0	0	CorrectCommission	0.068475	0.299860	1
30.704016	0.795805	city	8	1	0.704664	0.704664	0	1	0	0	CorrectCommission	0.472099	0.304009	1
31.499840	0.795844	city	9	1	0.748703	0.748703	0	1	0	0	CorrectCommission	0.697837	0.308963	1
32.295685	0.795849	city	6	1	0.652479	0.652479	0	1	0	0	CorrectCommission	0.204599	0.314894	1
33.091652	0.796081	city	10	1	0.599463	0.599463	0	1	0	0	CorrectCommission	0.067160	0.321863	1
33.887585	0.795787	city	8	1	0.652909	0.652909	0	1	0	0	CorrectCommission	0.206802	0.329702	1
34.683247	0.795533	mountain	5	0	0.000000	0.655679	1	0	0	0	CorrectOmission	0.221004	0.337994	1
35.478905	0.795783	mountain	2	0	0.000000	0.621801	1	0	0	0	CorrectOmission	0.047346	0.346068	1
36.274834	0.796074	city	5	1	0.565300	0.565300	0	1	0	0	CorrectCommission	0.242275	0.353048	1
37.070782	0.795825	city	8	1	0.500203	0.500203	0	1	0	0	CorrectCommission	0.575959	0.358017	1
37.866447	0.795507	city	9	1	0.549256	0.549256	0	1	0	0	CorrectCommission	0.324515	0.360098	1
38.662075	0.795751	city	2	1	0.451861	0.451861	0	1	0	0	CorrectCommission	0.823759	0.358646	1
39.457859	0.795817	city	1	1	0.450455	0.450455	0	1	0	0	CorrectCommission	0.830966	0.353367	1
40.253647	0.795756	city	4	1	0.510300	0.510300	0	1	0	0	CorrectCommission	0.524204	0.344462	1
41.049431	0.795810	city	10	1	0.516609	0.516609	0	1	0	0	CorrectCommission	0.491863	0.332635	1
41.845249	0.795825	city	7	1	0.549671	0.549671	0	1	0	0	CorrectCommission	0.322391	0.319044	1
42.641090	0.795864	city	4	1	0.600228	0.600228	0	1	0	0	CorrectCommission	0.063236	0.305192	1
43.436905	0.795763	city	1	1	0.648924	0.648924	0	1	0	0	CorrectCommission	0.186379	0.292724	1
44.232666	0.795758	city	3	1	0.615245	0.615245	0	1	0	0	CorrectCommission	0.013739	0.283193	1
45.028461	0.795834	city	5	1	0.649142	0.649142	0	1	0	0	CorrectCommission	0.187494	0.277893	1
45.824444	0.796132	city	2	1	0.601435	0.601435	0	1	0	0	CorrectCommission	0.057052	0.277659	1
46.620239	0.795455	mountain	10	1	0.598552	0.598552	0	0	1	0	CommissionError	0.071829	0.282753	1
47.415909	0.795886	city	3	1	0.606188	0.606188	0	1	0	0	CorrectCommission	0.032687	0.292817	1
48.211708	0.795713	city	8	1	0.664941	0.664941	0	1	0	0	CorrectCommission	0.268480	0.306913	1
49.007492	0.795854	city	10	1	0.565834	0.565834	0	1	0	0	CorrectCommission	0.239538	0.323635	1
49.803326	0.795815	city	6	1	0.712900	0.712900	0	1	0	0	CorrectCommission	0.514313	0.341319	1
50.599125	0.795783	city	4	1	0.605619	0.605619	0	1	0	0	CorrectCommission	0.035603	0.358227	1
51.394890	0.795746	city	3	1	0.648786	0.648786	0	1	0	0	CorrectCommission	0.185668	0.372810	1
52.190674	0.795820	city	10	1	0.901406	0.901406	0	1	0	0	CorrectCommission	1.480590	0.383860	1
52.986523	0.795879	city	1	1	0.847824	0.847824	0	1	0	0	CorrectCommission	1.205929	0.390616	1
53.782349	0.795775	city	8	1	0.651256	0.651256	0	1	0	0	CorrectCommission	0.198329	0.392909	1
54.578144	0.795817	city	5	1	0.549048	0.549048	0	1	0	0	CorrectCommission	0.325584	0.391121	1
55.374092	0.796078	city	4	1	0.651466	0.651466	0	1	0	0	CorrectCommission	0.199405	0.386058	1
56.169884	0.795504	city	7	1	0.649391	0.649391	0	1	0	0	CorrectCommission	0.188770	0.378807	1
56.965515	0.795760	city	10	1	0.550128	0.550128	0	1	0	0	CorrectCommission	0.320049	0.370586	1
57.761303	0.795811	city	6	1	0.549681	0.549681	0	1	0	0	CorrectCommission	0.322341	0.362584	1
58.557137	0.795856	city	1	1	0.559060	0.559060	0	1	0	0	CorrectCommission	0.274264	0.355816	1
59.352943	0.795763	city	9	1	0.614878	0.614878	0	1	0	0	CorrectCommission	0.011859	0.351020	1
60.148727	0.795801	city	8	1	0.549781	0.549781	0	1	0	0	CorrectCommission	0.321829	0.348622	1
60.944542	0.795826	city	2	1	0.508541	0.508541	0	1	0	0	CorrectCommission	0.533220	0.348696	1
61.740360	0.795815	mountain	5	1	0.457040	0.457040	0	0	1	0	CommissionError	0.797215	0.351013	1
62.536167	0.795802	city	6	1	0.560227	0.560227	0	1	0	0	CorrectCommission	0.268280	0.355054	1
63.331940	0.795738	mountain	3	0	0.000000	0.617978	1	0	0	0	CorrectOmission	0.027747	0.360152	1
64.127724	0.795824	mountain	4	0	0.000000	0.643440	1	0	0	0	CorrectOmission	0.158267	0.365525	1
64.923683	0.796096	city	5	1	0.649764	0.649764	0	1	0	0	CorrectCommission	0.190682	0.370378	1
65.719505	0.795547	city	6	1	0.650098	0.650098	0	1	0	0	CorrectCommission	0.192395	0.374011	1
66.515175	0.795797	city	5	1	0.499758	0.499758	0	1	0	0	CorrectCommission	0.578243	0.375936	1
67.310974	0.795807	city	10	1	0.407494	0.407494	0	1	0	0	CorrectCommission	1.051184	0.375946	1
68.106758	0.795752	mountain	7	1	0.449658	0.449658	0	0	1	0	CommissionError	0.835053	0.374197	1
68.902679	0.796099	city	3	1	0.648663	0.648663	0	1	0	0	CorrectCommission	0.185036	0.371249	1
69.698471	0.795486	city	9	1	0.549080	0.549080	0	1	0	0	CorrectCommission	0.325419	0.367961	1
70.494141	0.795842	city	3	1	0.499389	0.499389	0	1	0	0	CorrectCommission	0.580132	0.365373	1
71.289978	0.795833	city	4	1	0.611082	0.611082	0	1	0	0	CorrectCommission	0.007600	0.364605	1
72.085770	0.795756	mountain	7	0	0.000000	0.615997	1	0	0	0	CorrectOmission	0.017596	0.366654	1
72.881569	0.795839	mountain	1	0	0.000000	0.575125	1	0	0	0	CorrectOmission	0.191915	0.372206	1
73.677345	0.795720	city	10	1	0.549454	0.549454	0	1	0	0	CorrectCommission	0.323505	0.381543	1
74.473129	0.795850	city	1	1	0.599973	0.599973	0	1	0	0	CorrectCommission	0.064545	0.394460	1
75.268936	0.795752	city	5	1	0.649613	0.649613	0	1	0	0	CorrectCommission	0.189909	0.410305	1
76.064758	0.795896	mountain	8	0	0.000000	0.733266	1	0	0	0	CorrectOmission	0.618709	0.428029	1
76.860558	0.795708	city	10	1	0.750150	0.750150	0	1	0	0	CorrectCommission	0.705256	0.446316	1
77.656342	0.795860	city	3	1	0.599484	0.599484	0	1	0	0	CorrectCommission	0.067053	0.463781	1
78.452164	0.795774	city	9	1	0.499458	0.499458	0	1	0	0	CorrectCommission	0.579779	0.479154	1
79.247978	0.795865	city	6	1	0.401815	0.401815	0	1	0	0	CorrectCommission	1.080292	0.491361	1
80.043770	0.795708	city	3	1	0.400278	0.400278	0	1	0	0	CorrectCommission	1.088175	0.499699	1
80.839561	0.795885	city	7	1	0.450528	0.450528	0	1	0	0	CorrectCommission	0.830594	0.503877	1
81.635384	0.795758	city	2	1	0.549731	0.549731	0	1	0	0	CorrectCommission	0.322082	0.503976	1
82.431190	0.795854	city	4	1	0.652784	0.652784	0	1	0	0	CorrectCommission	0.206160	0.500400	1
83.227013	0.795794	city	9	1	0.599584	0.599584	0	1	0	0	CorrectCommission	0.066539	0.493739	1
84.022812	0.795802	city	7	1	0.549880	0.549880	0	1	0	0	CorrectCommission	0.321318	0.484665	1
84.818565	0.795707	city	6	1	0.499333	0.499333	0	1	0	0	CorrectCommission	0.580420	0.473835	1
85.614326	0.795811	city	7	1	0.500407	0.500407	0	1	0	0	CorrectCommission	0.574914	0.461856	1
86.410172	0.795885	mountain	2	1	0.414226	0.414226	0	0	1	0	CommissionError	1.016677	0.449276	1
87.205986	0.795735	mountain	1	0	0.000000	0.540677	1	0	0	0	CorrectOmission	0.368494	0.436531	1
88.001785	0.795871	city	6	1	0.649669	0.649669	0	1	0	0	CorrectCommission	0.190195	0.424005	1
88.797615	0.795793	city	3	1	0.511110	0.511110	0	1	0	0	CorrectCommission	0.520053	0.411999	1
89.593422	0.795809	city	8	1	0.551026	0.551026	0	1	0	0	CorrectCommission	0.315442	0.400709	1
90.389236	0.795819	city	3	1	0.558887	0.558887	0	1	0	0	CorrectCommission	0.275149	0.390253	1
91.185005	0.795730	city	4	1	0.516303	0.516303	0	1	0	0	CorrectCommission	0.493431	0.380623	1
91.980759	0.795765	city	3	1	0.603095	0.603095	0	1	0	0	CorrectCommission	0.048542	0.371675	1
92.776543	0.795805	city	10	1	0.550458	0.550458	0	1	0	0	CorrectCommission	0.318355	0.363168	1
93.572342	0.795796	city	7	1	0.699509	0.699509	0	1	0	0	CorrectCommission	0.445675	0.354707	1
94.368164	0.795851	city	6	1	0.563776	0.563776	0	1	0	0	CorrectCommission	0.250088	0.345830	1
95.163994	0.795818	city	5	1	0.501793	0.501793	0	1	0	0	CorrectCommission	0.567810	0.336085	1
95.959785	0.795759	mountain	1	1	0.550119	0.550119	0	0	1	0	CommissionError	0.320094	0.325036	1
96.755592	0.795855	city	7	1	0.553164	0.553164	0	1	0	0	CorrectCommission	0.304486	0.312364	1
97.551399	0.795762	city	9	1	0.499655	0.499655	0	1	0	0	CorrectCommission	0.578770	0.297910	1
98.347214	0.795858	city	3	1	0.499700	0.499700	0	1	0	0	CorrectCommission	0.578541	0.281690	1
99.143036	0.795796	city	8	1	0.599103	0.599103	0	1	0	0	CorrectCommission	0.069004	0.263937	1
99.938835	0.795800	city	1	1	0.599139	0.599139	0	1	0	0	CorrectCommission	0.068822	0.245119	1
100.734627	0.795783	city	10	1	0.559137	0.559137	0	1	0	0	CorrectCommission	0.273868	0.225809	1
101.530403	0.795765	city	3	1	0.649724	0.649724	0	1	0	0	CorrectCommission	0.190477	0.206681	1
102.326218	0.795868	city	9	1	0.648618	0.648618	0	1	0	0	CorrectCommission	0.184808	0.188479	1
103.122032	0.795767	city	8	1	0.648763	0.648763	0	1	0	0	CorrectCommission	0.185550	0.171972	1
103.917976	0.796110	city	3	1	0.615817	0.615817	0	1	0	0	CorrectCommission	0.016671	0.157875	1
104.713760	0.795458	city	7	1	0.610380	0.610380	0	1	0	0	CorrectCommission	0.011200	0.146867	1
105.509399	0.795825	city	8	1	0.599241	0.599241	0	1	0	0	CorrectCommission	0.068299	0.139534	1
106.305191	0.795762	city	4	1	0.648737	0.648737	0	1	0	0	CorrectCommission	0.185420	0.136318	1
107.101013	0.795872	city	9	1	0.600197	0.600197	0	1	0	0	CorrectCommission	0.063395	0.137492	1
107.896851	0.795817	city	7	1	0.648642	0.648642	0	1	0	0	CorrectCommission	0.184933	0.143142	1
108.692619	0.795717	city	5	1	0.615340	0.615340	0	1	0	0	CorrectCommission	0.014224	0.153096	1
109.488426	0.795895	city	9	1	0.601468	0.601468	0	1	0	0	CorrectCommission	0.056880	0.166964	1
110.284271	0.795790	city	8	1	0.615632	0.615632	0	1	0	0	CorrectCommission	0.015721	0.184087	1
111.080040	0.795747	city	2	1	0.601620	0.601620	0	1	0	0	CorrectCommission	0.056103	0.203583	1
111.875824	0.795828	city	8	1	0.608235	0.608235	0	1	0	0	CorrectCommission	0.022194	0.224421	1
112.671623	0.795775	city	2	1	0.549095	0.549095	0	1	0	0	CorrectCommission	0.325341	0.245527	1
113.467445	0.795863	city	3	1	0.599510	0.599510	0	1	0	0	CorrectCommission	0.066917	0.265930	1
114.263275	0.795803	city	1	1	0.664701	0.664701	0	1	0	0	CorrectCommission	0.267250	0.284931	1
115.059067	0.795782	city	4	1	0.897258	0.897258	0	1	0	0	CorrectCommission	1.459328	0.302164	1
115.854858	0.795799	city	8	1	0.710637	0.710637	0	1	0	0	CorrectCommission	0.502715	0.317658	1
116.650665	0.795810	city	9	1	0.648802	0.648802	0	1	0	0	CorrectCommission	0.185750	0.331934	1
117.446480	0.795814	city	4	1	0.558915	0.558915	0	1	0	0	CorrectCommission	0.275004	0.345881	1
118.242256	0.795751	city	5	1	0.513637	0.513637	0	1	0	0	CorrectCommission	0.507098	0.360562	1
119.038025	0.795773	city	6	1	0.599271	0.599271	0	1	0	0	CorrectCommission	0.068141	0.377080	1
119.833855	0.795891	city	7	1	0.599217	0.599217	0	1	0	0	CorrectCommission	0.068420	0.396427	1
120.629700	0.795794	city	2	1	0.648461	0.648461	0	1	0	0	CorrectCommission	0.184004	0.419256	1
121.425491	0.795793	city	5	1	0.653024	0.653024	0	1	0	0	CorrectCommission	0.207392	0.445789	1
122.221420	0.796073	mountain	1	1	0.607805	0.607805	0	0	1	0	CommissionError	0.024397	0.475802	1
123.017235	0.795550	city	6	1	0.549084	0.549084	0	1	0	0	CorrectCommission	0.325398	0.508672	1
123.812904	0.795789	city	9	1	0.499564	0.499564	0	1	0	0	CorrectCommission	0.579238	0.543474	1
124.608696	0.795788	city	3	1	0.364591	0.364591	0	1	0	0	CorrectCommission	1.271100	0.579164	1
125.404480	0.795791	city	9	1	0.367753	0.367753	0	1	0	0	CorrectCommission	1.254894	0.614746	1
126.200279	0.795809	city	10	1	0.411809	0.411809	0	1	0	0	CorrectCommission	1.029065	0.649423	1
126.996094	0.795806	city	4	1	0.549420	0.549420	0	1	0	0	CorrectCommission	0.323679	0.682676	1
127.791885	0.795782	city	8	1	0.599140	0.599140	0	1	0	0	CorrectCommission	0.068815	0.714269	1
128.587677	0.795793	city	10	1	0.499355	0.499355	0	1	0	0	CorrectCommission	0.580307	0.744184	1
129.383453	0.795759	city	8	1	0.413111	0.413111	0	1	0	0	CorrectCommission	1.022393	0.772504	1
130.179214	0.795785	city	2	1	0.401065	0.401065	0	1	0	0	CorrectCommission	1.084140	0.799302	1
130.975037	0.795856	city	1	1	0.402840	0.402840	0	1	0	0	CorrectCommission	1.075041	0.824605	1
131.770874	0.795813	city	7	1	0.553239	0.553239	0	1	0	0	CorrectCommission	0.304101	0.848198	0
132.566666	0.795764	city	3	1	0.350326	0.350326	0	1	0	0	CorrectCommission	1.344222	0.869601	0
133.362457	0.795811	city	6	1	0.499742	0.499742	0	1	0	0	CorrectCommission	0.578326	0.888060	0
134.158279	0.795855	city	7	1	0.517822	0.517822	0	1	0	0	CorrectCommission	0.485645	0.902741	0
134.954117	0.795813	city	1	1	0.400968	0.400968	0	1	0	0	CorrectCommission	1.084634	0.912707	0
135.749878	0.795698	city	6	1	0.366237	0.366237	0	1	0	0	CorrectCommission	1.262663	0.917091	0
136.545654	0.795861	city	7	1	0.400975	0.400975	0	1	0	0	CorrectCommission	1.084600	0.915348	0
137.341492	0.795802	city	10	1	0.360070	0.360070	0	1	0	0	CorrectCommission	1.294274	0.907416	0
138.137299	0.795830	city	3	1	0.352366	0.352366	0	1	0	0	CorrectCommission	1.333770	0.893727	0
138.933090	0.795746	city	8	1	0.400201	0.400201	0	1	0	0	CorrectCommission	1.088569	0.875275	0
139.728882	0.795855	city	10	1	0.459357	0.459357	0	1	0	0	CorrectCommission	0.785338	0.853610	0
140.524704	0.795765	city	9	1	0.368978	0.368978	0	1	0	0	CorrectCommission	1.248617	0.830644	1
141.320480	0.795791	city	8	1	0.500582	0.500582	0	1	0	0	CorrectCommission	0.574020	0.808426	1
142.116257	0.795769	city	1	1	0.499753	0.499753	0	1	0	0	CorrectCommission	0.578270	0.788953	1
142.912125	0.795954	city	7	1	0.599204	0.599204	0	1	0	0	CorrectCommission	0.068486	0.773933	1
143.707947	0.795713	mountain	1	0	0.000000	0.590779	1	0	0	0	CorrectOmission	0.111671	0.764636	1
144.503693	0.795774	city	5	1	0.549447	0.549447	0	1	0	0	CorrectCommission	0.323539	0.761733	1
145.299515	0.795863	city	4	1	0.550175	0.550175	0	1	0	0	CorrectCommission	0.319804	0.765362	1
146.095322	0.795762	city	6	1	1.046625	1.046625	0	1	0	0	CorrectCommission	2.224974	0.775207	1
146.891129	0.795841	city	7	1	0.798823	0.798823	0	1	0	0	CorrectCommission	0.954751	0.790595	1
147.686935	0.795760	city	9	1	0.648567	0.648567	0	1	0	0	CorrectCommission	0.184544	0.810850	1
148.482864	0.796114	city	8	1	0.500420	0.500420	0	1	0	0	CorrectCommission	0.574850	0.835297	1
149.278656	0.795454	city	6	1	0.898219	0.898219	0	1	0	0	CorrectCommission	1.464251	0.863395	0
150.074265	0.795775	city	8	1	0.762849	0.762849	0	1	0	0	CorrectCommission	0.770349	0.894749	0
150.870071	0.795836	city	2	1	0.558746	0.558746	0	1	0	0	CorrectCommission	0.275874	0.929249	0
151.666061	0.796133	city	9	1	0.458349	0.458349	0	1	0	0	CorrectCommission	0.790501	0.966894	0
152.461853	0.795474	city	2	1	1.046232	1.046232	0	1	0	0	CorrectCommission	2.222958	1.007620	0
153.257538	0.795871	city	10	1	0.804980	0.804980	0	1	0	0	CorrectCommission	0.986313	1.051136	0
154.053329	0.795723	city	9	1	0.599088	0.599088	0	1	0	0	CorrectCommission	0.069082	1.096902	0
154.849106	0.795834	city	8	1	0.449959	0.449959	0	1	0	0	CorrectCommission	0.833509	1.143887	0
155.645081	0.796114	city	1	1	0.400163	0.400163	0	1	0	0	CorrectCommission	1.088761	1.190431	0
156.440857	0.795448	city	8	1	0.401965	0.401965	0	1	0	0	CorrectCommission	1.079526	1.234381	0
157.236481	0.795784	city	9	1	0.400688	0.400688	0	1	0	0	CorrectCommission	1.086072	1.273208	0
158.032318	0.795899	city	1	1	1.054169	1.054169	0	1	0	0	CorrectCommission	2.263644	1.304169	0
158.828140	0.795744	city	10	1	1.115789	1.115789	0	1	0	0	CorrectCommission	2.579504	1.324580	0
159.623886	0.795753	city	6	0	0.000000	0.801534	0	0	0	1	OmissionError	0.968650	1.332175	0
160.419678	0.795830	city	3	1	0.450054	0.450054	0	1	0	0	CorrectCommission	0.833024	1.325453	0
161.215530	0.795859	city	7	1	0.399996	0.399996	0	1	0	0	CorrectCommission	1.089619	1.303795	0
162.011368	0.795815	city	5	1	1.060812	1.060812	0	1	0	0	CorrectCommission	2.297696	1.267658	0
162.807297	0.796048	city	7	1	1.150047	1.150047	0	1	0	0	CorrectCommission	2.755113	1.218609	0
163.603058	0.795466	mountain	8	0	0.000000	1.025692	1	0	0	0	CorrectOmission	2.117674	1.159181	0
164.398727	0.795876	city	2	1	0.807699	0.807699	0	1	0	0	CorrectCommission	1.000252	1.092730	0
165.194519	0.795725	mountain	7	1	0.616022	0.616022	0	0	1	0	CommissionError	0.017721	1.023038	0
165.990341	0.795902	city	6	1	0.698354	0.698354	0	1	0	0	CorrectCommission	0.439755	0.953852	0
166.786163	0.795745	city	1	1	0.551801	0.551801	0	1	0	0	CorrectCommission	0.311473	0.888375	0
167.581940	0.795808	city	5	1	0.512291	0.512291	0	1	0	0	CorrectCommission	0.514000	0.829045	1
168.377747	0.795823	city	9	1	0.550182	0.550182	0	1	0	0	CorrectCommission	0.319771	0.777253	1
169.173553	0.795779	city	1	1	0.549064	0.549064	0	1	0	0	CorrectCommission	0.325503	0.733291	1
169.969498	0.796100	city	10	1	0.450466	0.450466	0	1	0	0	CorrectCommission	0.830911	0.696415	1
170.765305	0.795522	city	4	1	0.549659	0.549659	0	1	0	0	CorrectCommission	0.322450	0.665123	1
171.560928	0.795728	city	6	1	0.466957	0.466957	0	1	0	0	CorrectCommission	0.746377	0.637563	1
172.356705	0.795828	city	9	1	0.356058	0.356058	0	1	0	0	CorrectCommission	1.314844	0.611773	1
173.152557	0.795867	city	10	1	0.400235	0.400235	0	1	0	0	CorrectCommission	1.088392	0.586079	1
173.948395	0.795804	mountain	5	1	0.450216	0.450216	0	0	1	0	CommissionError	0.832191	0.559417	1
174.744186	0.795779	city	3	1	0.499358	0.499358	0	1	0	0	CorrectCommission	0.580295	0.531446	1
175.539948	0.795737	city	1	1	0.515829	0.515829	0	1	0	0	CorrectCommission	0.495864	0.502551	1
176.335709	0.795804	city	6	1	0.649314	0.649314	0	1	0	0	CorrectCommission	0.188376	0.473712	1
177.131546	0.795865	mountain	7	1	0.550175	0.550175	0	0	1	0	CommissionError	0.319808	0.446407	1
177.927368	0.795779	city	8	1	0.550087	0.550087	0	1	0	0	CorrectCommission	0.320260	0.422330	1
178.723145	0.795761	city	9	1	0.599094	0.599094	0	1	0	0	CorrectCommission	0.069052	0.403187	1
179.518951	0.795864	city	8	1	0.599473	0.599473	0	1	0	0	CorrectCommission	0.067106	0.390449	1
180.314774	0.795791	mountain	7	0	0.000000	0.668690	1	0	0	0	CorrectOmission	0.287698	0.385208	1
181.110596	0.795843	city	6	1	0.703133	0.703133	0	1	0	0	CorrectCommission	0.464249	0.388090	1
181.906387	0.795730	city	8	1	0.599189	0.599189	0	1	0	0	CorrectCommission	0.068565	0.399238	1
182.702164	0.795831	city	7	1	0.549376	0.549376	0	1	0	0	CorrectCommission	0.323900	0.418373	1
183.497986	0.795823	city	10	1	0.549455	0.549455	0	1	0	0	CorrectCommission	0.323495	0.444768	1
184.293808	0.795811	city	9	1	0.549339	0.549339	0	1	0	0	CorrectCommission	0.324092	0.477369	1
185.089615	0.795800	city	2	1	0.449831	0.449831	0	1	0	0	CorrectCommission	0.834167	0.514896	1
185.885422	0.795820	city	6	1	0.501898	0.501898	0	1	0	0	CorrectCommission	0.567274	0.555979	1
186.681229	0.795784	city	7	1	0.500057	0.500057	0	1	0	0	CorrectCommission	0.576710	0.599289	1
187.476974	0.795724	city	1	1	0.599974	0.599974	0	1	0	0	CorrectCommission	0.064540	0.643586	1
188.272766	0.795857	city	3	1	0.599007	0.599007	0	1	0	0	CorrectCommission	0.069494	0.687826	1
189.068573	0.795758	city	1	1	0.400420	0.400420	0	1	0	0	CorrectCommission	1.087446	0.731167	1
189.864380	0.795866	city	3	1	0.317657	0.317657	0	1	0	0	CorrectCommission	1.511685	0.772965	1
190.660187	0.795750	city	7	1	1.009174	1.009174	0	1	0	0	CorrectCommission	2.033001	0.812809	1
191.456009	0.795871	city	3	1	0.813464	0.813464	0	1	0	0	CorrectCommission	1.029802	0.850407	0
192.251785	0.795696	city	8	1	0.648639	0.648639	0	1	0	0	CorrectCommission	0.184917	0.885534	0
193.047577	0.795873	city	6	1	0.549105	0.549105	0	1	0	0	CorrectCommission	0.325290	0.917866	0
193.843414	0.795823	city	1	1	0.450767	0.450767	0	1	0	0	CorrectCommission	0.829366	0.946847	0
194.639374	0.796076	city	5	1	0.499880	0.499880	0	1	0	0	CorrectCommission	0.577616	0.971682	0
195.435165	0.795528	city	10	1	0.450126	0.450126	0	1	0	0	CorrectCommission	0.832656	0.991416	0
196.230804	0.795744	city	8	1	0.449955	0.449955	0	1	0	0	CorrectCommission	0.833532	1.005051	0
197.026581	0.795815	city	2	1	0.352281	0.352281	0	1	0	0	CorrectCommission	1.334205	1.011762	0
197.822418	0.795849	city	10	1	1.047033	1.047033	0	1	0	0	CorrectCommission	2.227066	1.011093	0
198.618240	0.795801	city	9	1	1.096258	1.096258	0	1	0	0	CorrectCommission	2.479392	1.003080	0
199.414032	0.795767	mountain	1	0	0.000000	0.848682	1	0	0	0	CorrectOmission	1.210330	0.988389	0
200.209961	0.796094	city	3	1	0.563469	0.563469	0	1	0	0	CorrectCommission	0.251664	0.968259	0
201.005783	0.795545	city	9	1	0.499780	0.499780	0	1	0	0	CorrectCommission	0.578132	0.944364	0
201.801422	0.795737	city	10	1	0.449710	0.449710	0	1	0	0	CorrectCommission	0.834788	0.918516	0
202.597198	0.795830	city	6	1	0.848547	0.848547	0	1	0	0	CorrectCommission	1.209635	0.892389	0
203.393021	0.795818	city	4	1	0.663671	0.663671	0	1	0	0	CorrectCommission	0.261966	0.867370	0
204.188843	0.795801	city	5	1	0.608790	0.608790	0	1	0	0	CorrectCommission	0.019347	0.844458	0
204.984650	0.795818	city	9	1	0.549358	0.549358	0	1	0	0	CorrectCommission	0.323995	0.824194	1
205.780441	0.795787	city	10	1	0.449665	0.449665	0	1	0	0	CorrectCommission	0.835015	0.806771	1
206.576248	0.795822	city	5	1	0.399972	0.399972	0	1	0	0	CorrectCommission	1.089743	0.792198	1
207.372025	0.795711	city	7	1	0.350081	0.350081	0	1	0	0	CorrectCommission	1.345481	0.780509	1
208.167770	0.795798	city	4	1	0.947776	0.947776	0	1	0	0	CorrectCommission	1.718278	0.771960	1
208.963623	0.795897	city	3	1	0.848751	0.848751	0	1	0	0	CorrectCommission	1.210680	0.767167	1
209.759415	0.795701	city	9	1	0.768396	0.768396	0	1	0	0	CorrectCommission	0.798784	0.767071	1
210.555222	0.795888	city	10	1	0.604509	0.604509	0	1	0	0	CorrectCommission	0.041295	0.772746	1
211.351044	0.795779	city	7	1	0.600170	0.600170	0	1	0	0	CorrectCommission	0.063536	0.785167	1
212.146866	0.795844	mountain	6	1	0.598857	0.598857	0	0	1	0	CommissionError	0.070263	0.804944	1
212.942642	0.795709	city	2	1	0.461460	0.461460	0	1	0	0	CorrectCommission	0.774557	0.832090	1
213.738434	0.795882	city	5	1	0.549776	0.549776	0	1	0	0	CorrectCommission	0.321854	0.865854	0
214.534393	0.796054	city	1	1	0.549126	0.549126	0	1	0	0	CorrectCommission	0.325186	0.904763	0
215.330154	0.795466	city	3	1	0.599588	0.599588	0	1	0	0	CorrectCommission	0.066518	0.946670	0
216.125839	0.795888	city	7	1	1.047704	1.047704	0	1	0	0	CorrectCommission	2.230504	0.989023	0
216.921631	0.795711	city	1	1	1.202342	1.202342	0	1	0	0	CorrectCommission	3.023171	1.029118	0
217.717422	0.795872	city	9	0	0.000000	0.852108	0	0	0	1	OmissionError	1.227887	1.064507	0
218.513260	0.795777	city	3	1	0.450338	0.450338	0	1	0	0	CorrectCommission	0.831569	1.093280	0
219.309052	0.795819	city	4	1	0.450368	0.450368	0	1	0	0	CorrectCommission	0.831414	1.114128	0
220.104858	0.795791	city	8	1	0.414628	0.414628	0	1	0	0	CorrectCommission	1.014614	1.126456	0
220.900681	0.795854	city	2	1	0.350873	0.350873	0	1	0	0	CorrectCommission	1.341419	1.130439	0
221.696487	0.795767	city	7	1	0.312134	0.312134	0	1	0	0	CorrectCommission	1.539996	1.126907	0
222.492279	0.795825	city	8	1	0.550871	0.550871	0	1	0	0	CorrectCommission	0.316242	1.117211	0
223.288071	0.795761	city	4	1	0.450560	0.450560	0	1	0	0	CorrectCommission	0.830429	1.103093	0
224.083862	0.795810	city	5	1	1.056312	1.056312	0	1	0	0	CorrectCommission	2.274630	1.086380	0
224.879639	0.795750	city	4	1	0.997245	0.997245	0	1	0	0	CorrectCommission	1.971856	1.068793	0
225.675446	0.795858	city	7	1	0.853559	0.853559	0	1	0	0	CorrectCommission	1.235326	1.051832	0
226.471283	0.795823	city	2	1	0.660815	0.660815	0	1	0	0	CorrectCommission	0.247330	1.036510	0
227.267090	0.795773	city	3	1	0.649234	0.649234	0	1	0	0	CorrectCommission	0.187965	1.023280	0
228.062881	0.795809	city	2	1	0.559478	0.559478	0	1	0	0	CorrectCommission	0.272121	1.011866	0
228.858704	0.795833	city	5	1	0.499719	0.499719	0	1	0	0	CorrectCommission	0.578441	1.001352	0
229.654495	0.795775	city	3	1	0.452506	0.452506	0	1	0	0	CorrectCommission	0.820456	0.990370	0
230.450439	0.796091	city	5	1	0.399866	0.399866	0	1	0	0	CorrectCommission	1.090282	0.977363	0
231.246384	0.795806	city	10	1	0.350126	0.350126	0	1	0	0	CorrectCommission	1.345250	0.960964	0
232.042038	0.795509	city	3	1	1.050688	1.050688	0	1	0	0	CorrectCommission	2.245801	0.940288	0
232.837692	0.795795	city	5	1	1.003209	1.003209	0	1	0	0	CorrectCommission	2.002425	0.915150	0
233.633469	0.795748	city	6	1	0.897626	0.897626	0	1	0	0	CorrectCommission	1.461214	0.886206	0
234.429276	0.795862	mountain	6	0	0.000000	0.764242	1	0	0	0	CorrectOmission	0.777491	0.854840	0
235.225082	0.795777	city	1	1	0.649336	0.649336	0	1	0	0	CorrectCommission	0.188487	0.823031	1
236.020859	0.795760	city	4	1	0.599189	0.599189	0	1	0	0	CorrectCommission	0.068563	0.792963	1
236.816650	0.795834	city	3	1	0.599199	0.599199	0	1	0	0	CorrectCommission	0.068511	0.766651	1
237.612473	0.795815	city	2	1	0.560142	0.560142	0	1	0	0	CorrectCommission	0.268715	0.745603	1
238.408447	0.796120	city	9	1	0.699144	0.699144	0	1	0	0	CorrectCommission	0.443801	0.730623	1
239.204224	0.795439	city	10	1	0.513622	0.513622	0	1	0	0	CorrectCommission	0.507178	0.721706	1
240.000015	0.796136	city	8	1	0.500159	0.500159	0	1	0	0	CorrectCommission	0.576187	0.718186	1
240.795822	0.795480	city	10	1	0.399949	0.399949	0	1	0	0	CorrectCommission	1.089856	0.718948	1
241.591461	0.795796	city	6	1	0.499676	0.499676	0	1	0	0	CorrectCommission	0.578661	0.722597	1
242.387283	0.795867	city	4	1	1.046832	1.046832	0	1	0	0	CorrectCommission	2.226036	0.727843	1
243.183136	0.795827	city	5	1	0.848540	0.848540	0	1	0	0	CorrectCommission	1.209602	0.733655	1
243.978912	0.795733	city	10	1	0.659007	0.659007	0	1	0	0	CorrectCommission	0.238059	0.739575	1
244.774689	0.795801	city	2	1	0.613640	0.613640	0	1	0	0	CorrectCommission	0.005510	0.745571	1
245.570648	0.796132	city	10	1	0.549114	0.549114	0	1	0	0	CorrectCommission	0.325246	0.751959	1
246.366440	0.795449	city	5	1	0.403126	0.403126	0	1	0	0	CorrectCommission	1.073574	0.759283	1
247.162064	0.795790	mountain	4	1	0.350452	0.350452	0	0	1	0	CommissionError	1.343576	0.768086	1
247.957870	0.795831	city	5	1	0.549426	0.549426	0	1	0	0	CorrectCommission	0.323646	0.778777	1
248.753708	0.795838	city	6	1	0.714694	0.714694	0	1	0	0	CorrectCommission	0.523509	0.791529	1
249.549515	0.795791	city	1	1	0.555382	0.555382	0	1	0	0	CorrectCommission	0.293116	0.806077	1
250.345322	0.795798	city	8	1	0.499479	0.499479	0	1	0	0	CorrectCommission	0.579674	0.821791	1
251.141129	0.795817	city	2	1	0.406771	0.406771	0	1	0	0	CorrectCommission	1.054889	0.837697	1
251.936935	0.795804	city	8	1	0.315731	0.315731	0	1	0	0	CorrectCommission	1.521558	0.852587	0
252.732742	0.795803	city	5	1	0.847624	0.847624	0	1	0	0	CorrectCommission	1.204906	0.865145	0
253.528671	0.796070	city	7	1	0.848044	0.848044	0	1	0	0	CorrectCommission	1.207055	0.874090	0
254.324478	0.795535	city	9	1	0.712662	0.712662	0	1	0	0	CorrectCommission	0.513093	0.878239	0
255.120117	0.795760	city	2	1	0.550620	0.550620	0	1	0	0	CorrectCommission	0.317523	0.876637	0
255.915939	0.795866	city	1	1	0.947418	0.947418	0	1	0	0	CorrectCommission	1.716445	0.868591	0
256.711761	0.795782	city	9	1	0.797741	0.797741	0	1	0	0	CorrectCommission	0.949205	0.853668	0
257.507507	0.795722	city	2	1	0.599105	0.599105	0	1	0	0	CorrectCommission	0.068991	0.831871	1
258.303284	0.795836	city	5	1	0.451743	0.451743	0	1	0	0	CorrectCommission	0.824363	0.803589	1
259.099121	0.795804	city	3	1	1.009000	1.009000	0	1	0	0	CorrectCommission	2.032112	0.769631	1
259.894897	0.795792	city	4	1	0.849450	0.849450	0	1	0	0	CorrectCommission	1.214263	0.731171	1
260.690735	0.795859	city	1	1	0.698474	0.698474	0	1	0	0	CorrectCommission	0.440367	0.690032	1
261.486572	0.795825	city	6	1	0.797834	0.797834	0	1	0	0	CorrectCommission	0.949681	0.648328	1
262.282379	0.795771	city	4	1	0.600763	0.600763	0	1	0	0	CorrectCommission	0.060493	0.608423	1
263.078125	0.795747	city	2	1	0.605713	0.605713	0	1	0	0	CorrectCommission	0.035123	0.572853	1
263.873901	0.795817	city	8	1	0.549341	0.549341	0	1	0	0	CorrectCommission	0.324081	0.544083	1
264.669739	0.795819	city	3	1	0.499532	0.499532	0	1	0	0	CorrectCommission	0.579403	0.524311	1
265.465546	0.795816	city	2	1	0.549823	0.549823	0	1	0	0	CorrectCommission	0.321610	0.515360	1
266.261322	0.795753	city	1	1	0.555662	0.555662	0	1	0	0	CorrectCommission	0.291678	0.518496	1
267.057129	0.795823	city	7	1	0.667056	0.667056	0	1	0	0	CorrectCommission	0.279318	0.534360	1
267.852905	0.795772	mountain	4	0	0.000000	0.684742	1	0	0	0	CorrectOmission	0.369978	0.562873	1
268.648743	0.795881	city	10	1	0.648685	0.648685	0	1	0	0	CorrectCommission	0.185152	0.603174	1
269.444580	0.795787	city	5	1	0.598848	0.598848	0	1	0	0	CorrectCommission	0.070313	0.653679	1
270.240387	0.795823	city	8	1	0.549138	0.549138	0	1	0	0	CorrectCommission	0.325120	0.712198	1
271.036163	0.795709	city	4	1	0.400941	0.400941	0	1	0	0	CorrectCommission	1.084774	0.776025	1
271.831940	0.795848	city	8	1	0.357465	0.357465	0	1	0	0	CorrectCommission	1.307628	0.842069	0
272.627777	0.795825	city	2	1	0.362473	0.362473	0	1	0	0	CorrectCommission	1.281957	0.907143	0
273.423553	0.795769	city	7	1	0.451620	0.451620	0	1	0	0	CorrectCommission	0.824996	0.968083	0
274.219360	0.795801	city	5	1	0.449780	0.449780	0	1	0	0	CorrectCommission	0.834428	1.022017	0
275.015137	0.795762	city	8	1	0.613278	0.613278	0	1	0	0	CorrectCommission	0.003656	1.066523	0
275.810944	0.795861	mountain	4	1	1.363088	1.363088	0	0	1	0	CommissionError	3.847150	1.099781	0
276.606781	0.795839	city	8	1	0.798548	0.798548	0	1	0	0	CorrectCommission	0.953344	1.120469	0
277.402679	0.795966	city	10	1	0.450343	0.450343	0	1	0	0	CorrectCommission	0.831540	1.128324	0
278.198486	0.795612	city	9	1	0.406636	0.406636	0	1	0	0	CorrectCommission	1.055583	1.123733	0
278.994202	0.795811	city	2	1	1.047009	1.047009	0	1	0	0	CorrectCommission	2.226943	1.107750	0
279.789978	0.795765	city	10	1	0.897529	0.897529	0	1	0	0	CorrectCommission	1.460716	1.082015	0
280.585724	0.795747	city	8	1	0.798884	0.798884	0	1	0	0	CorrectCommission	0.955068	1.048753	0
281.381500	0.795804	city	9	1	0.615881	0.615881	0	1	0	0	CorrectCommission	0.016999	1.010435	0
282.177338	0.795829	city	1	1	0.399904	0.399904	0	1	0	0	CorrectCommission	1.090090	0.969662	0
282.973145	0.795828	city	3	1	0.897642	0.897642	0	1	0	0	CorrectCommission	1.461292	0.928916	0
283.768982	0.795809	city	4	1	0.715776	0.715776	0	1	0	0	CorrectCommission	0.529057	0.890522	0
284.564789	0.795821	city	7	1	0.598838	0.598838	0	1	0	0	CorrectCommission	0.070362	0.856591	0
285.360748	0.796090	city	4	1	0.399983	0.399983	0	1	0	0	CorrectCommission	1.089683	0.828783	1
286.156525	0.795449	mountain	10	1	0.302466	0.302466	0	0	1	0	CommissionError	1.589552	0.808305	1
286.952179	0.795889	city	3	1	0.648881	0.648881	0	1	0	0	CorrectCommission	0.186155	0.795904	1
287.748016	0.795796	city	6	1	0.549339	0.549339	0	1	0	0	CorrectCommission	0.324091	0.791873	1
288.543945	0.796073	city	1	1	0.509262	0.509262	0	1	0	0	CorrectCommission	0.529525	0.795923	1
289.339752	0.795529	city	7	1	0.506112	0.506112	0	1	0	0	CorrectCommission	0.545673	0.807253	1
290.135406	0.795792	city	10	1	0.449677	0.449677	0	1	0	0	CorrectCommission	0.834956	0.824630	1
290.931213	0.795817	city	2	1	0.549186	0.549186	0	1	0	0	CorrectCommission	0.324878	0.846464	0
291.727020	0.795774	city	7	1	0.499320	0.499320	0	1	0	0	CorrectCommission	0.580489	0.870955	0
292.522827	0.795831	city	10	1	1.046463	1.046463	0	1	0	0	CorrectCommission	2.224146	0.896289	0
293.318634	0.795809	city	3	1	0.856834	0.856834	0	1	0	0	CorrectCommission	1.252113	0.920579	0
294.114410	0.795747	city	5	1	0.661547	0.661547	0	1	0	0	CorrectCommission	0.251080	0.942338	0
294.910187	0.795803	city	4	1	0.600241	0.600241	0	1	0	0	CorrectCommission	0.063171	0.960443	0
295.705963	0.795756	city	10	1	1.060000	1.060000	0	1	0	0	CorrectCommission	2.293533	0.974182	0
296.501801	0.795889	city	3	1	0.947427	0.947427	0	1	0	0	CorrectCommission	1.716490	0.983178	0
297.297638	0.795783	city	5	1	0.859719	0.859719	0	1	0	0	CorrectCommission	1.266903	0.987593	0
298.093414	0.795773	city	7	1	0.698937	0.698937	0	1	0	0	CorrectCommission	0.442740	0.987889	0
298.889191	0.795760	city	2	1	0.516469	0.516469	0	1	0	0	CorrectCommission	0.492581	0.984774	0
299.684998	0.795887	mountain	2	1	0.302189	0.302189	0	0	1	0	CommissionError	1.590971	0.978959	0
300.480835	0.795748	city	6	1	0.598878	0.598878	0	1	0	0	CorrectCommission	0.070158	0.971016	0
301.276611	0.795851	city	7	1	0.450223	0.450223	0	1	0	0	CorrectCommission	0.832155	0.961448	0
302.072449	0.795797	city	8	1	0.353215	0.353215	0	1	0	0	CorrectCommission	1.329416	0.950437	0
302.868256	0.795811	city	5	1	0.356744	0.356744	0	1	0	0	CorrectCommission	1.311327	0.937904	0
303.664001	0.795727	city	2	1	0.364359	0.364359	0	1	0	0	CorrectCommission	1.272294	0.923524	0
304.459778	0.795808	city	4	1	0.449608	0.449608	0	1	0	0	CorrectCommission	0.835311	0.906850	0
305.255615	0.795840	mountain	8	1	0.462198	0.462198	0	0	1	0	CommissionError	0.770772	0.887380	0
306.051392	0.795745	city	1	1	0.499678	0.499678	0	1	0	0	CorrectCommission	0.578654	0.864607	0
306.847198	0.795837	city	8	1	0.550236	0.550236	0	1	0	0	CorrectCommission	0.319494	0.838191	1
307.643036	0.795857	city	9	1	0.351332	0.351332	0	1	0	0	CorrectCommission	1.339068	0.808006	1
308.438873	0.795814	city	2	1	0.899245	0.899245	0	1	0	0	CorrectCommission	1.469511	0.774323	1
309.234650	0.795759	mountain	1	0	0.000000	0.763031	1	0	0	0	CorrectOmission	0.771285	0.737860	1
310.030426	0.795759	city	3	1	0.450007	0.450007	0	1	0	0	CorrectCommission	0.833261	0.699790	1
310.826233	0.795861	city	1	1	0.467490	0.467490	0	1	0	0	CorrectCommission	0.743645	0.661742	1
311.622040	0.795794	city	10	1	0.499608	0.499608	0	1	0	0	CorrectCommission	0.579010	0.625765	1
312.417816	0.795746	city	5	1	0.500649	0.500649	0	1	0	0	CorrectCommission	0.573677	0.594089	1
313.213623	0.795875	city	2	1	0.598844	0.598844	0	1	0	0	CorrectCommission	0.070329	0.568958	1
314.009430	0.795715	city	9	1	0.652702	0.652702	0	1	0	0	CorrectCommission	0.205740	0.552396	1
314.805206	0.795815	city	8	1	0.698554	0.698554	0	1	0	0	CorrectCommission	0.440776	0.545966	1
315.601013	0.795807	city	5	1	0.556006	0.556006	0	1	0	0	CorrectCommission	0.289918	0.550632	1
316.396820	0.795827	mountain	6	0	0.000000	0.565985	1	0	0	0	CorrectOmission	0.238767	0.566659	1
317.192657	0.795818	mountain	7	0	0.000000	0.642273	1	0	0	0	CorrectOmission	0.152285	0.593406	1
317.988434	0.795737	mountain	4	1	0.698654	0.698654	0	0	1	0	CommissionError	0.441291	0.629515	1
318.784210	0.795852	city	1	1	0.648910	0.648910	0	1	0	0	CorrectCommission	0.186305	0.672897	1
319.580017	0.795758	city	3	1	0.499338	0.499338	0	1	0	0	CorrectCommission	0.580398	0.721001	1
320.375977	0.796151	city	8	1	0.357334	0.357334	0	1	0	0	CorrectCommission	1.308300	0.770994	1
321.171783	0.795460	mountain	9	1	0.399732	0.399732	0	0	1	0	CommissionError	1.090972	0.819974	1
321.967438	0.795848	city	6	1	0.898022	0.898022	0	1	0	0	CorrectCommission	1.463241	0.865323	0
322.763245	0.795780	city	8	1	0.561989	0.561989	0	1	0	0	CorrectCommission	0.259248	0.904799	0
323.559082	0.795851	city	6	1	1.046620	1.046620	0	1	0	0	CorrectCommission	2.224952	0.936762	0
324.354858	0.795712	city	3	1	0.847443	0.847443	0	1	0	0	CorrectCommission	1.203977	0.960067	0
325.150635	0.795836	city	2	1	0.699214	0.699214	0	1	0	0	CorrectCommission	0.444162	0.974229	0
325.946625	0.796138	city	6	1	0.500441	0.500441	0	1	0	0	CorrectCommission	0.574742	0.979270	0
326.742432	0.795498	city	10	1	0.948345	0.948345	0	1	0	0	CorrectCommission	1.721194	0.975650	0
327.538055	0.795781	city	6	1	0.699024	0.699024	0	1	0	0	CorrectCommission	0.443188	0.964103	0
328.333832	0.795750	city	8	1	1.046793	1.046793	0	1	0	0	CorrectCommission	2.225837	0.945676	0
329.129608	0.795809	city	1	1	0.798322	0.798322	0	1	0	0	CorrectCommission	0.952182	0.921480	0
329.925446	0.795875	city	10	1	0.598876	0.598876	0	1	0	0	CorrectCommission	0.070169	0.892769	0
330.721283	0.795771	city	8	1	0.500765	0.500765	0	1	0	0	CorrectCommission	0.573078	0.860871	0
331.517059	0.795795	city	6	1	0.997773	0.997773	0	1	0	0	CorrectCommission	1.974560	0.827088	1
332.312866	0.795845	city	10	1	0.698598	0.698598	0	1	0	0	CorrectCommission	0.441004	0.792724	1
333.108704	0.795805	mountain	2	1	0.499637	0.499637	0	0	1	0	CommissionError	0.578864	0.759201	1
333.904510	0.795778	city	6	1	0.608177	0.608177	0	1	0	0	CorrectCommission	0.022491	0.727897	1
334.700256	0.795762	city	9	1	0.400953	0.400953	0	1	0	0	CorrectCommission	1.084711	0.700244	1
335.496094	0.795861	mountain	8	1	0.350168	0.350168	0	0	1	0	CommissionError	1.345035	0.677593	1
336.291931	0.795816	mountain	7	1	0.599301	0.599301	0	0	1	0	CommissionError	0.067987	0.661262	1
337.087708	0.795792	mountain	5	0	0.000000	0.722384	1	0	0	0	CorrectOmission	0.562929	0.652519	1
337.883514	0.795820	city	7	1	0.699735	0.699735	0	1	0	0	CorrectCommission	0.446833	0.652357	1
338.679321	0.795763	city	4	1	0.511675	0.511675	0	1	0	0	CorrectCommission	0.517155	0.661545	1
339.475067	0.795749	city	1	1	0.549502	0.549502	0	1	0	0	CorrectCommission	0.323257	0.680377	1
340.270874	0.795832	city	6	1	0.599101	0.599101	0	1	0	0	CorrectCommission	0.069012	0.708707	1
341.066681	0.795815	city	4	1	0.549221	0.549221	0	1	0	0	CorrectCommission	0.324695	0.745787	1
341.862640	0.796110	city	7	1	0.403148	0.403148	0	1	0	0	CorrectCommission	1.073459	0.790287	1
342.658478	0.795523	city	5	1	0.399929	0.399929	0	1	0	0	CorrectCommission	1.089959	0.840349	1
343.454102	0.795738	city	9	1	0.414287	0.414287	0	1	0	0	CorrectCommission	1.016364	0.893685	0
344.249908	0.795874	mountain	9	1	0.303827	0.303827	0	0	1	0	CommissionError	1.582578	0.947643	0
345.045868	0.796066	city	3	1	0.615709	0.615709	0	1	0	0	CorrectCommission	0.016115	0.999468	0
345.841644	0.795479	city	1	1	0.510833	0.510833	0	1	0	0	CorrectCommission	0.521472	1.046540	0
346.637299	0.795836	city	9	1	0.457196	0.457196	0	1	0	0	CorrectCommission	0.796412	1.086555	0
347.433136	0.795827	city	7	1	0.997087	0.997087	0	1	0	0	CorrectCommission	1.971045	1.117870	0
348.228943	0.795803	city	1	1	1.015233	1.015233	0	1	0	0	CorrectCommission	2.064063	1.139650	0
349.024750	0.795795	mountain	8	1	1.003699	1.003699	0	0	1	0	CommissionError	2.004937	1.152042	0
349.820526	0.795786	city	1	1	1.046446	1.046446	0	1	0	0	CorrectCommission	2.224055	1.156174	0
350.616333	0.795821	city	4	1	0.898813	0.898813	0	1	0	0	CorrectCommission	1.467299	1.153920	0
351.412170	0.795802	city	5	1	0.665878	0.665878	0	1	0	0	CorrectCommission	0.273283	1.147733	0
352.207947	0.795773	city	2	1	0.549487	0.549487	0	1	0	0	CorrectCommission	0.323331	1.140239	0
353.003723	0.795762	city	9	1	0.499672	0.499672	0	1	0	0	CorrectCommission	0.578684	1.133736	0
353.799469	0.795777	city	7	1	0.966143	0.966143	0	1	0	0	CorrectCommission	1.812428	1.129953	0
354.595306	0.795879	city	2	1	0.698646	0.698646	0	1	0	0	CorrectCommission	0.441248	1.129716	0
355.391144	0.795782	city	6	1	0.613041	0.613041	0	1	0	0	CorrectCommission	0.002442	1.133025	0
356.186890	0.795748	city	2	1	0.466626	0.466626	0	1	0	0	CorrectCommission	0.748075	1.138978	0
356.982697	0.795831	city	9	1	0.414461	0.414461	0	1	0	0	CorrectCommission	1.015471	1.146001	0
357.778534	0.795842	city	7	1	1.046853	1.046853	0	1	0	0	CorrectCommission	2.226146	1.152211	0
358.574341	0.795772	city	10	1	1.096144	1.096144	0	1	0	0	CorrectCommission	2.478807	1.155717	0
359.370117	0.795778	city	6	1	1.013476	1.013476	0	1	0	0	CorrectCommission	2.055052	1.155010	0
360.165924	0.795859	city	10	1	0.854460	0.854460	0	1	0	0	CorrectCommission	1.239944	1.149191	0
360.961761	0.795821	city	3	1	0.797830	0.797830	0	1	0	0	CorrectCommission	0.949664	1.138071	0
361.757538	0.795721	city	1	1	0.648546	0.648546	0	1	0	0	CorrectCommission	0.184440	1.122141	0
362.553314	0.795812	city	7	1	0.563960	0.563960	0	1	0	0	CorrectCommission	0.249148	1.102549	0
363.349152	0.795861	city	1	1	0.464578	0.464578	0	1	0	0	CorrectCommission	0.758576	1.080878	0
364.144928	0.795731	city	6	1	1.055815	1.055815	0	1	0	0	CorrectCommission	2.272082	1.059004	0
364.940735	0.795865	city	8	1	0.959351	0.959351	0	1	0	0	CorrectCommission	1.777613	1.038866	0
365.736725	0.796084	city	2	1	0.699360	0.699360	0	1	0	0	CorrectCommission	0.444911	1.022399	0
366.532471	0.795455	city	4	1	0.508311	0.508311	0	1	0	0	CorrectCommission	0.534399	1.011303	0
367.328125	0.795802	city	10	1	0.947245	0.947245	0	1	0	0	CorrectCommission	1.715559	1.006782	0
368.123932	0.795849	city	6	1	0.760285	0.760285	0	1	0	0	CorrectCommission	0.757210	1.009395	0
368.919739	0.795778	city	5	1	0.550133	0.550133	0	1	0	0	CorrectCommission	0.320021	1.019063	0
369.715546	0.795826	mountain	9	1	0.605401	0.605401	0	0	1	0	CommissionError	0.036720	1.034865	0
370.511383	0.795828	city	9	1	0.451899	0.451899	0	1	0	0	CorrectCommission	0.823565	1.055158	0
371.307159	0.795704	city	1	1	0.399935	0.399935	0	1	0	0	CorrectCommission	1.089929	1.077593	0
372.102936	0.795888	city	6	1	0.351838	0.351838	0	1	0	0	CorrectCommission	1.336475	1.099524	0
372.898804	0.795823	city	4	1	0.400361	0.400361	0	1	0	0	CorrectCommission	1.087745	1.118299	0
373.694580	0.795767	city	9	1	0.400483	0.400483	0	1	0	0	CorrectCommission	1.087124	1.131639	0
374.490356	0.795777	city	8	1	1.004066	1.004066	0	1	0	0	CorrectCommission	2.006818	1.137958	0
375.286133	0.795775	city	3	1	1.096666	1.096666	0	1	0	0	CorrectCommission	2.481482	1.136567	0
376.081940	0.795829	city	5	1	0.947810	0.947810	0	1	0	0	CorrectCommission	1.718454	1.127834	0
376.877777	0.795846	city	3	1	0.959396	0.959396	0	1	0	0	CorrectCommission	1.777842	1.113137	0
377.673615	0.795812	city	10	1	0.708207	0.708207	0	1	0	0	CorrectCommission	0.490260	1.094601	0
378.469391	0.795760	city	4	1	0.648845	0.648845	0	1	0	0	CorrectCommission	0.185972	1.074753	0
379.265167	0.795810	city	6	1	0.549508	0.549508	0	1	0	0	CorrectCommission	0.323226	1.056075	0
380.060974	0.795785	city	1	1	0.452682	0.452682	0	1	0	0	CorrectCommission	0.819551	1.040621	0
380.856781	0.795852	city	4	1	0.449707	0.449707	0	1	0	0	CorrectCommission	0.834803	1.029737	0
381.652618	0.795802	city	8	1	0.499518	0.499518	0	1	0	0	CorrectCommission	0.579473	1.023903	0
382.448425	0.795789	city	6	1	0.450848	0.450848	0	1	0	0	CorrectCommission	0.828951	1.022760	0
383.244171	0.795743	city	2	1	0.408852	0.408852	0	1	0	0	CorrectCommission	1.044223	1.025255	0
384.039948	0.795806	city	4	1	0.351541	0.351541	0	1	0	0	CorrectCommission	1.337996	1.029879	0
384.835754	0.795794	city	2	1	0.364519	0.364519	0	1	0	0	CorrectCommission	1.271470	1.034897	0
385.631592	0.795859	city	10	1	1.046866	1.046866	0	1	0	0	CorrectCommission	2.226212	1.038697	0
386.427399	0.795796	city	4	1	0.898114	0.898114	0	1	0	0	CorrectCommission	1.463712	1.039936	0
387.223206	0.795773	city	2	1	0.749159	0.749159	0	1	0	0	CorrectCommission	0.700174	1.037762	0
388.018951	0.795745	city	6	1	0.549271	0.549271	0	1	0	0	CorrectCommission	0.324443	1.031784	0
388.814758	0.795844	city	1	1	0.450354	0.450354	0	1	0	0	CorrectCommission	0.831487	1.022047	0
389.610596	0.795842	city	10	1	0.450608	0.450608	0	1	0	0	CorrectCommission	0.830185	1.008951	0
390.406555	0.796095	city	2	1	0.413985	0.413985	0	1	0	0	CorrectCommission	1.017911	0.993229	0
391.202332	0.795472	mountain	10	1	0.400639	0.400639	0	0	1	0	CommissionError	1.086321	0.975888	0
391.997986	0.795798	city	10	1	0.405992	0.405992	0	1	0	0	CorrectCommission	1.058882	0.958151	0
392.793793	0.795800	city	2	1	0.997077	0.997077	0	1	0	0	CorrectCommission	1.970992	0.941400	0
393.589600	0.795848	city	3	1	0.854493	0.854493	0	1	0	0	CorrectCommission	1.240116	0.927096	0
394.385559	0.796061	city	10	1	0.748281	0.748281	0	1	0	0	CorrectCommission	0.695676	0.916773	0
395.181335	0.795479	city	3	1	0.649688	0.649688	0	1	0	0	CorrectCommission	0.190291	0.911880	0
395.976990	0.795869	city	1	1	0.552043	0.552043	0	1	0	0	CorrectCommission	0.310231	0.913595	0
396.772827	0.795768	city	4	1	0.502751	0.502751	0	1	0	0	CorrectCommission	0.562898	0.922737	0
397.568604	0.795816	city	7	1	0.509841	0.509841	0	1	0	0	CorrectCommission	0.526556	0.939705	0
398.364563	0.796095	city	8	1	0.450667	0.450667	0	1	0	0	CorrectCommission	0.829879	0.964438	0
399.160370	0.795502	city	1	1	0.399996	0.399996	0	1	0	0	CorrectCommission	1.089618	0.996445	0
399.956177	0.796090	city	10	1	0.400227	0.400227	0	1	0	0	CorrectCommission	1.088433	1.034874	0
400.751984	0.795548	city	7	1	0.409616	0.409616	0	1	0	0	CorrectCommission	1.040308	1.078594	0
401.547638	0.795776	city	9	1	0.351170	0.351170	0	1	0	0	CorrectCommission	1.339896	1.126216	0
402.343414	0.795777	city	3	1	0.351146	0.351146	0	1	0	0	CorrectCommission	1.340020	1.176185	0
403.139221	0.795818	city	6	1	0.300977	0.300977	0	1	0	0	CorrectCommission	1.597184	1.226770	0
403.935181	0.796105	city	7	1	0.900562	0.900562	0	1	0	0	CorrectCommission	1.476261	1.276065	0
404.730988	0.795527	mountain	1	0	0.000000	0.841663	1	0	0	0	CorrectOmission	1.174348	1.321996	0
405.526611	0.795712	city	1	1	0.549851	0.549851	0	1	0	0	CorrectCommission	0.321467	1.362374	0
406.322418	0.795883	city	7	1	0.450696	0.450696	0	1	0	0	CorrectCommission	0.829730	1.394937	0
407.118256	0.795773	city	10	1	0.300456	0.300456	0	1	0	0	CorrectCommission	1.599856	1.417446	0
407.914032	0.795822	city	9	1	1.011152	1.011152	0	1	0	0	CorrectCommission	2.043141	1.427981	0
408.709839	0.795781	city	6	1	0.997109	0.997109	0	1	0	0	CorrectCommission	1.971156	1.425299	0
409.505615	0.795751	city	1	1	1.146177	1.146177	0	1	0	0	CorrectCommission	2.735272	1.409036	0
410.301422	0.795861	city	3	1	1.196802	1.196802	0	1	0	0	CorrectCommission	2.994777	1.379821	0
411.097229	0.795793	city	5	0	0.000000	0.847872	0	0	0	1	OmissionError	1.206173	1.339448	0
411.893005	0.795751	city	9	1	0.450014	0.450014	0	1	0	0	CorrectCommission	0.833229	1.290837	0
412.688812	0.795879	city	3	1	0.353858	0.353858	0	1	0	0	CorrectCommission	1.326118	1.237587	0
413.484650	0.795795	city	2	1	0.511569	0.511569	0	1	0	0	CorrectCommission	0.517698	1.183620	0
414.280426	0.795726	city	1	1	0.517513	0.517513	0	1	0	0	CorrectCommission	0.487231	1.132840	0
415.076233	0.795883	city	5	1	0.420528	0.420528	0	1	0	0	CorrectCommission	0.984371	1.088601	0
415.872040	0.795736	city	3	1	0.852585	0.852585	0	1	0	0	CorrectCommission	1.230334	1.053343	0
416.667938	0.796051	city	5	1	0.649065	0.649065	0	1	0	0	CorrectCommission	0.187100	1.028375	0
417.463776	0.795640	city	10	1	0.549584	0.549584	0	1	0	0	CorrectCommission	0.322834	1.013838	0
418.259491	0.795766	city	4	1	0.451196	0.451196	0	1	0	0	CorrectCommission	0.827169	1.008682	0
419.055389	0.796076	city	10	1	0.450098	0.450098	0	1	0	0	CorrectCommission	0.832795	1.010894	0
419.851196	0.795516	city	4	1	0.450040	0.450040	0	1	0	0	CorrectCommission	0.833092	1.017869	0
420.646851	0.795776	city	5	1	1.013280	1.013280	0	1	0	0	CorrectCommission	2.054051	1.026764	0
421.442657	0.795861	mountain	8	0	0.000000	0.993369	1	0	0	0	CorrectOmission	1.951986	1.034862	0
422.238617	0.796061	mountain	4	0	0.000000	0.751616	1	0	0	0	CorrectOmission	0.712770	1.039907	0
423.034424	0.795534	city	6	1	0.649331	0.649331	0	1	0	0	CorrectCommission	0.188460	1.040387	0
423.830048	0.795720	city	2	1	1.047823	1.047823	0	1	0	0	CorrectCommission	2.231113	1.035537	0
424.625824	0.795845	city	3	1	0.897330	0.897330	0	1	0	0	CorrectCommission	1.459695	1.025280	0
425.421661	0.795804	city	6	1	0.702437	0.702437	0	1	0	0	CorrectCommission	0.460679	1.010340	0
426.217468	0.795851	city	1	1	0.499901	0.499901	0	1	0	0	CorrectCommission	0.577508	0.991983	0
427.013275	0.795754	city	3	1	0.997326	0.997326	0	1	0	0	CorrectCommission	1.972268	0.971697	0
427.809082	0.795824	city	5	1	0.767690	0.767690	0	1	0	0	CorrectCommission	0.795168	0.951031	0
428.604889	0.795796	city	8	1	0.598902	0.598902	0	1	0	0	CorrectCommission	0.070034	0.931613	0
429.400665	0.795764	city	2	1	0.450015	0.450015	0	1	0	0	CorrectCommission	0.833222	0.914854	0
430.196625	0.796147	city	8	1	0.449982	0.449982	0	1	0	0	CorrectCommission	0.833394	0.901822	0
430.992401	0.795447	city	10	1	0.451275	0.451275	0	1	0	0	CorrectCommission	0.826761	0.893332	0
431.788025	0.795797	city	9	1	0.449757	0.449757	0	1	0	0	CorrectCommission	0.834546	0.889895	0
432.583832	0.795805	city	3	1	0.409850	0.409850	0	1	0	0	CorrectCommission	1.039109	0.891705	0
433.379669	0.795856	city	10	1	0.400149	0.400149	0	1	0	0	CorrectCommission	1.088833	0.898672	0
434.175629	0.796089	city	2	1	0.500355	0.500355	0	1	0	0	CorrectCommission	0.575184	0.910488	0
434.971436	0.795494	city	9	1	0.499516	0.499516	0	1	0	0	CorrectCommission	0.579483	0.926566	0
435.767059	0.795759	city	2	1	0.450288	0.450288	0	1	0	0	CorrectCommission	0.831825	0.946020	0
436.562897	0.795892	city	9	1	0.996896	0.996896	0	1	0	0	CorrectCommission	1.970067	0.967651	0
437.358673	0.795710	city	8	1	0.749007	0.749007	0	1	0	0	CorrectCommission	0.699400	0.989974	0
438.154419	0.795789	mountain	1	0	0.000000	0.662004	1	0	0	0	CorrectOmission	0.253422	1.011298	0
438.950256	0.795834	city	8	1	0.605825	0.605825	0	1	0	0	CorrectCommission	0.034547	1.029774	0
439.746063	0.795795	city	1	1	0.450411	0.450411	0	1	0	0	CorrectCommission	0.831191	1.043602	0
440.541870	0.795839	city	8	1	1.062732	1.062732	0	1	0	0	CorrectCommission	2.307539	1.051238	0
441.337708	0.795836	city	10	1	1.155878	1.155878	0	1	0	0	CorrectCommission	2.784999	1.051566	0
442.133514	0.795795	city	8	0	0.000000	0.827180	0	0	0	1	OmissionError	1.100111	1.044160	0
442.929321	0.795818	city	2	1	0.450662	0.450662	0	1	0	0	CorrectCommission	0.829908	1.029450	0
443.725098	0.795722	city	1	1	0.400343	0.400343	0	1	0	0	CorrectCommission	1.087841	1.008593	0
444.520844	0.795784	city	8	1	0.450840	0.450840	0	1	0	0	CorrectCommission	0.828991	0.983348	0
445.316681	0.795866	city	9	1	0.450067	0.450067	0	1	0	0	CorrectCommission	0.832959	0.956005	0
446.112671	0.796101	city	5	1	0.400065	0.400065	0	1	0	0	CorrectCommission	1.089262	0.928994	0
446.908447	0.795443	city	10	1	0.415846	0.415846	0	1	0	0	CorrectCommission	1.008371	0.904557	0
447.704102	0.795898	city	5	1	0.549521	0.549521	0	1	0	0	CorrectCommission	0.323157	0.884548	0
448.499908	0.795731	city	6	1	0.549477	0.549477	0	1	0	0	CorrectCommission	0.323386	0.870209	0
449.295715	0.795831	mountain	8	1	0.454165	0.454165	0	0	1	0	CommissionError	0.811948	0.862011	0
450.091675	0.796104	city	8	1	0.600356	0.600356	0	1	0	0	CorrectCommission	0.062583	0.859623	0
450.887451	0.795463	city	1	1	0.499388	0.499388	0	1	0	0	CorrectCommission	0.580137	0.862100	0
451.683136	0.795868	city	6	1	0.450409	0.450409	0	1	0	0	CorrectCommission	0.831201	0.868023	0
452.478943	0.795792	city	2	1	0.996883	0.996883	0	1	0	0	CorrectCommission	1.970000	0.875788	0
453.274750	0.795810	city	3	1	0.897472	0.897472	0	1	0	0	CorrectCommission	1.460423	0.883857	0
454.070557	0.795802	city	5	1	0.814753	0.814753	0	1	0	0	CorrectCommission	1.036409	0.890967	0
454.866486	0.796068	city	4	1	0.714844	0.714844	0	1	0	0	CorrectCommission	0.524277	0.896312	0
455.662262	0.795464	city	10	1	0.503254	0.503254	0	1	0	0	CorrectCommission	0.560324	0.899586	0
456.457886	0.795768	city	9	1	0.947256	0.947256	0	1	0	0	CorrectCommission	1.715612	0.900900	0
457.253693	0.795878	city	8	1	0.807910	0.807910	0	1	0	0	CorrectCommission	1.001330	0.900609	0
458.049683	0.796097	city	5	1	0.663452	0.663452	0	1	0	0	CorrectCommission	0.260847	0.899240	0
458.845642	0.795801	city	7	1	0.563365	0.563365	0	1	0	0	CorrectCommission	0.252197	0.897340	0
459.641266	0.795488	city	5	1	0.500526	0.500526	0	1	0	0	CorrectCommission	0.574306	0.895263	0
460.436920	0.795802	city	10	1	1.015388	1.015388	0	1	0	0	CorrectCommission	2.064856	0.893133	0
461.232697	0.795771	city	9	1	0.812307	0.812307	0	1	0	0	CorrectCommission	1.023871	0.890753	0
462.028503	0.795796	city	2	1	0.599088	0.599088	0	1	0	0	CorrectCommission	0.069083	0.887792	0
462.824310	0.795819	city	8	1	0.451529	0.451529	0	1	0	0	CorrectCommission	0.825462	0.883784	0
463.620270	0.796108	city	2	1	0.863869	0.863869	0	1	0	0	CorrectCommission	1.288175	0.878158	0
464.416077	0.795488	mountain	8	0	0.000000	0.907926	1	0	0	0	CorrectOmission	1.514010	0.870452	0
465.211731	0.795870	city	5	1	0.748461	0.748461	0	1	0	0	CorrectCommission	0.696597	0.860370	0
466.007568	0.795810	city	1	1	0.550232	0.550232	0	1	0	0	CorrectCommission	0.319513	0.847924	0
466.803345	0.795718	city	9	1	0.456498	0.456498	0	1	0	0	CorrectCommission	0.799989	0.833377	1
467.599274	0.796148	city	1	1	0.405686	0.405686	0	1	0	0	CorrectCommission	1.060450	0.817287	1
468.395111	0.795534	city	7	1	0.996787	0.996787	0	1	0	0	CorrectCommission	1.969506	0.800471	1
469.190765	0.795731	city	4	1	0.710418	0.710418	0	1	0	0	CorrectCommission	0.501590	0.783901	1
469.986542	0.795876	city	7	1	0.603527	0.603527	0	1	0	0	CorrectCommission	0.046325	0.768732	1
470.782379	0.795766	city	2	1	0.517705	0.517705	0	1	0	0	CorrectCommission	0.486246	0.756088	1
471.578156	0.795775	city	3	1	0.466350	0.466350	0	1	0	0	CorrectCommission	0.749491	0.746973	1
472.373932	0.795773	city	5	1	0.549938	0.549938	0	1	0	0	CorrectCommission	0.321024	0.742233	1
473.169739	0.795869	city	6	1	0.599445	0.599445	0	1	0	0	CorrectCommission	0.067251	0.742510	1
473.965576	0.795794	city	4	1	1.046829	1.046829	0	1	0	0	CorrectCommission	2.226020	0.748183	1
474.761383	0.795840	city	1	1	0.748091	0.748091	0	1	0	0	CorrectCommission	0.694704	0.759283	1
475.557343	0.796066	city	10	1	0.503141	0.503141	0	1	0	0	CorrectCommission	0.560903	0.775757	1
476.353119	0.795488	city	9	1	0.548922	0.548922	0	1	0	0	CorrectCommission	0.326232	0.797295	1
477.148773	0.795797	city	1	1	0.557052	0.557052	0	1	0	0	CorrectCommission	0.284556	0.823439	1
477.944550	0.795766	city	2	1	0.500426	0.500426	0	1	0	0	CorrectCommission	0.574819	0.853592	0
478.740356	0.795841	city	9	1	0.449805	0.449805	0	1	0	0	CorrectCommission	0.834298	0.887099	0
479.536194	0.795854	mountain	2	1	0.317037	0.317037	0	0	1	0	CommissionError	1.514862	0.923366	0
480.332001	0.795739	city	8	1	0.456513	0.456513	0	1	0	0	CorrectCommission	0.799912	0.961844	0
481.127747	0.795766	city	2	1	0.351168	0.351168	0	1	0	0	CorrectCommission	1.339907	1.002154	0
481.923523	0.795797	city	10	1	0.354851	0.354851	0	1	0	0	CorrectCommission	1.321028	1.043998	0
482.719360	0.795859	city	8	1	0.356921	0.356921	0	1	0	0	CorrectCommission	1.310420	1.087232	0
483.515167	0.795757	city	1	1	0.400753	0.400753	0	1	0	0	CorrectCommission	1.085738	1.131782	0
484.310944	0.795838	mountain	3	1	0.649602	0.649602	0	0	1	0	CommissionError	0.189850	1.177517	0
485.106750	0.795762	city	9	1	0.400651	0.400651	0	1	0	0	CorrectCommission	1.086260	1.224336	0
485.902588	0.795875	city	1	1	0.413899	0.413899	0	1	0	0	CorrectCommission	1.018349	1.271920	0
486.698425	0.795792	city	9	1	0.355069	0.355069	0	1	0	0	CorrectCommission	1.319914	1.319914	0
