onset	duration	trial_type	image_type	Press	ReactionTime	ReactionTime_Interpolated	CorrectOmission	CorrectCommission	CommissionError	OmissionError	response_type	nonsmoothVarianceTimeCourse	VarianceTimeCourse	In_the_Zone
8.421715	0.795793	city	4	1	0.847585	0.847585	0	1	0	0	CorrectCommission	1.437304	1.437304	0
9.217485	0.795748	city	9	1	0.797948	0.797948	0	1	0	0	CorrectCommission	0.941608	1.381899	0
10.013284	0.795849	mountain	5	1	0.500378	0.500378	0	0	1	0	CommissionError	2.030040	1.326402	0
10.809104	0.795790	city	7	1	0.604139	0.604139	0	1	0	0	CorrectCommission	0.993839	1.270751	0
11.604919	0.795842	city	3	1	0.599833	0.599833	0	1	0	0	CorrectCommission	1.036843	1.215088	0
12.400734	0.795787	city	9	1	0.602762	0.602762	0	1	0	0	CorrectCommission	1.007590	1.159674	0
13.196511	0.795767	city	7	1	0.549853	0.549853	0	1	0	0	CorrectCommission	1.535963	1.104971	0
13.992307	0.795824	city	6	1	0.450352	0.450352	0	1	0	0	CorrectCommission	2.529617	1.051478	0
14.788124	0.795811	city	10	1	0.699184	0.699184	0	1	0	0	CorrectCommission	0.044681	0.999708	0
15.583941	0.795825	city	4	1	0.710782	0.710782	0	1	0	0	CorrectCommission	0.071141	0.950249	0
16.379755	0.795803	city	6	1	0.649670	0.649670	0	1	0	0	CorrectCommission	0.539146	0.903421	0
17.175545	0.795775	city	10	1	0.699070	0.699070	0	1	0	0	CorrectCommission	0.045828	0.859300	0
17.971441	0.796016	city	7	1	0.549492	0.549492	0	1	0	0	CorrectCommission	1.539563	0.817831	0
18.767231	0.795564	city	5	1	0.565981	0.565981	0	1	0	0	CorrectCommission	1.374905	0.778714	0
19.562897	0.795769	city	3	1	0.800390	0.800390	0	1	0	0	CorrectCommission	0.965995	0.741627	0
20.358713	0.795861	city	5	1	0.698683	0.698683	0	1	0	0	CorrectCommission	0.049691	0.706385	1
21.154512	0.795739	city	7	1	0.608889	0.608889	0	1	0	0	CorrectCommission	0.946400	0.672916	1
21.950274	0.795781	city	10	1	0.613218	0.613218	0	1	0	0	CorrectCommission	0.903172	0.641336	1
22.746103	0.795879	city	8	1	0.649629	0.649629	0	1	0	0	CorrectCommission	0.539559	0.611987	1
23.541933	0.795783	city	2	1	0.648512	0.648512	0	1	0	0	CorrectCommission	0.550717	0.585446	1
24.337729	0.795809	city	7	1	0.649507	0.649507	0	1	0	0	CorrectCommission	0.540781	0.562436	1
25.133686	0.796104	city	4	1	0.698374	0.698374	0	1	0	0	CorrectCommission	0.052776	0.543690	1
25.929497	0.795518	mountain	9	0	0.000000	0.739865	1	0	0	0	CorrectOmission	0.361572	0.529910	1
26.725292	0.796074	city	6	1	0.748507	0.748507	0	1	0	0	CorrectCommission	0.447875	0.521614	1
27.521090	0.795519	city	10	1	0.698826	0.698826	0	1	0	0	CorrectCommission	0.048258	0.519061	1
28.316738	0.795777	city	2	1	0.807404	0.807404	0	1	0	0	CorrectCommission	1.036042	0.522252	1
29.112543	0.795835	city	1	1	0.650975	0.650975	0	1	0	0	CorrectCommission	0.526120	0.530806	1
29.908361	0.795801	city	6	1	0.698357	0.698357	0	1	0	0	CorrectCommission	0.052947	0.544123	1
30.704296	0.796069	city	5	1	0.603397	0.603397	0	1	0	0	CorrectCommission	1.001250	0.561261	1
31.500105	0.795550	city	7	1	0.713527	0.713527	0	1	0	0	CorrectCommission	0.098544	0.580992	1
32.295776	0.795791	mountain	1	0	0.000000	0.664884	1	0	0	0	CorrectOmission	0.387220	0.602103	1
33.091702	0.796062	city	9	1	0.599740	0.599740	0	1	0	0	CorrectCommission	1.037774	0.623281	1
33.887459	0.795452	city	10	1	0.660365	0.660365	0	1	0	0	CorrectCommission	0.432347	0.643272	1
34.683109	0.795849	city	1	1	0.649471	0.649471	0	1	0	0	CorrectCommission	0.541139	0.661045	1
35.478935	0.795802	city	4	1	0.809927	0.809927	0	1	0	0	CorrectCommission	1.061238	0.675771	1
36.274754	0.795830	city	1	1	0.649390	0.649390	0	1	0	0	CorrectCommission	0.541947	0.686890	1
37.070580	0.795826	mountain	6	1	0.897290	0.897290	0	0	1	0	CommissionError	1.933672	0.694209	1
37.866394	0.795802	city	7	1	0.665204	0.665204	0	1	0	0	CorrectCommission	0.384025	0.697773	1
38.662189	0.795790	city	10	1	0.613307	0.613307	0	1	0	0	CorrectCommission	0.902285	0.697899	1
39.457970	0.795766	city	6	1	0.655213	0.655213	0	1	0	0	CorrectCommission	0.483797	0.694963	1
40.253738	0.795772	city	10	1	0.749850	0.749850	0	1	0	0	CorrectCommission	0.461282	0.689462	1
41.049530	0.795811	city	3	1	0.658312	0.658312	0	1	0	0	CorrectCommission	0.452850	0.681850	1
41.845356	0.795846	city	6	1	0.710539	0.710539	0	1	0	0	CorrectCommission	0.068707	0.672558	1
42.641182	0.795808	city	9	1	0.648516	0.648516	0	1	0	0	CorrectCommission	0.550678	0.662057	1
43.436989	0.795800	city	6	1	0.611640	0.611640	0	1	0	0	CorrectCommission	0.918930	0.650864	1
44.232784	0.795792	city	3	1	0.601161	0.601161	0	1	0	0	CorrectCommission	1.023580	0.639642	1
45.028553	0.795746	city	2	1	0.947910	0.947910	0	1	0	0	CorrectCommission	2.439188	0.629242	1
45.824345	0.795839	city	5	1	0.698901	0.698901	0	1	0	0	CorrectCommission	0.047509	0.620567	1
46.620174	0.795822	city	8	1	0.701681	0.701681	0	1	0	0	CorrectCommission	0.019750	0.614685	1
47.415981	0.795788	city	9	1	0.748757	0.748757	0	1	0	0	CorrectCommission	0.450371	0.612449	1
48.211758	0.795764	mountain	3	0	0.000000	0.698932	1	0	0	0	CorrectOmission	0.047199	0.614295	1
49.007553	0.795829	city	3	1	0.649730	0.649730	0	1	0	0	CorrectCommission	0.538556	0.620189	1
49.803387	0.795837	city	8	1	0.698672	0.698672	0	1	0	0	CorrectCommission	0.049796	0.629394	1
50.599335	0.796057	city	5	1	0.649717	0.649717	0	1	0	0	CorrectCommission	0.538686	0.640511	1
51.395123	0.795523	city	1	1	0.698097	0.698097	0	1	0	0	CorrectCommission	0.055541	0.651564	1
52.190754	0.795741	city	4	1	0.798569	0.798569	0	1	0	0	CorrectCommission	0.947815	0.660281	1
52.986538	0.795826	mountain	3	0	0.000000	0.848300	1	0	0	0	CorrectOmission	1.444440	0.664311	1
53.782379	0.795858	city	4	1	0.798694	0.798694	0	1	0	0	CorrectCommission	0.949054	0.661643	1
54.578186	0.795756	city	2	1	0.601156	0.601156	0	1	0	0	CorrectCommission	1.023625	0.650864	1
55.373959	0.795786	city	3	1	0.511017	0.511017	0	1	0	0	CorrectCommission	1.923796	0.631444	1
56.169926	0.796146	city	1	1	0.601817	0.601817	0	1	0	0	CorrectCommission	1.017028	0.603696	1
56.965752	0.795511	mountain	2	0	0.000000	0.669671	1	0	0	0	CorrectOmission	0.339417	0.568881	1
57.761539	0.796067	mountain	10	0	0.000000	0.707343	1	0	0	0	CorrectOmission	0.036797	0.528941	1
58.557331	0.795517	city	3	1	0.707602	0.707602	0	1	0	0	CorrectCommission	0.039377	0.486260	1
59.352974	0.795765	city	7	1	0.663212	0.663212	0	1	0	0	CorrectCommission	0.403919	0.443383	1
60.148792	0.795873	city	6	1	0.715270	0.715270	0	1	0	0	CorrectCommission	0.115955	0.402682	1
60.944618	0.795777	city	5	1	0.699257	0.699257	0	1	0	0	CorrectCommission	0.043952	0.366255	1
61.740398	0.795786	mountain	6	0	0.000000	0.729450	1	0	0	0	CorrectOmission	0.257564	0.335772	1
62.536201	0.795816	city	6	1	0.748385	0.748385	0	1	0	0	CorrectCommission	0.446656	0.312384	1
63.332161	0.796107	city	9	1	0.698599	0.698599	0	1	0	0	CorrectCommission	0.050525	0.296835	1
64.128105	0.795778	city	7	1	0.649134	0.649134	0	1	0	0	CorrectCommission	0.544503	0.289517	1
64.923721	0.795455	mountain	9	0	0.000000	0.666360	1	0	0	0	CorrectOmission	0.372482	0.290463	1
65.719398	0.795892	city	3	1	0.699968	0.699968	0	1	0	0	CorrectCommission	0.036861	0.299475	1
66.515228	0.795772	city	9	1	0.699649	0.699649	0	1	0	0	CorrectCommission	0.040038	0.316123	1
67.311157	0.796084	city	3	1	0.703242	0.703242	0	1	0	0	CorrectCommission	0.004162	0.339714	1
68.106934	0.795480	city	6	1	0.747869	0.747869	0	1	0	0	CorrectCommission	0.441502	0.369300	1
68.902565	0.795781	city	8	1	0.700876	0.700876	0	1	0	0	CorrectCommission	0.027790	0.403624	1
69.698395	0.795870	city	1	1	0.699028	0.699028	0	1	0	0	CorrectCommission	0.046241	0.441140	1
70.494247	0.795838	city	3	1	0.798783	0.798783	0	1	0	0	CorrectCommission	0.949948	0.480040	1
71.290054	0.795778	city	6	1	0.750356	0.750356	0	1	0	0	CorrectCommission	0.466339	0.518335	1
72.085983	0.796079	city	8	1	0.757689	0.757689	0	1	0	0	CorrectCommission	0.539570	0.554059	1
72.881744	0.795447	city	9	1	0.762204	0.762204	0	1	0	0	CorrectCommission	0.584657	0.585322	1
73.677551	0.796168	mountain	9	0	0.000000	0.828435	1	0	0	0	CorrectOmission	1.246063	0.610523	1
74.473389	0.795499	city	6	1	0.847532	0.847532	0	1	0	0	CorrectCommission	1.436770	0.628474	1
75.269028	0.795790	city	4	1	0.710644	0.710644	0	1	0	0	CorrectCommission	0.069759	0.638539	1
76.064842	0.795837	city	7	1	0.648962	0.648962	0	1	0	0	CorrectCommission	0.546225	0.640688	1
76.860786	0.796051	city	2	1	0.598894	0.598894	0	1	0	0	CorrectCommission	1.046223	0.635377	1
77.656540	0.795458	city	10	1	0.563174	0.563174	0	1	0	0	CorrectCommission	1.402936	0.623589	1
78.452209	0.795875	city	9	1	0.748492	0.748492	0	1	0	0	CorrectCommission	0.447719	0.606694	1
79.248055	0.795821	city	2	1	0.748968	0.748968	0	1	0	0	CorrectCommission	0.452477	0.586371	1
80.043854	0.795772	city	6	1	0.748126	0.748126	0	1	0	0	CorrectCommission	0.444066	0.564367	1
80.839615	0.795755	city	1	1	0.699098	0.699098	0	1	0	0	CorrectCommission	0.045548	0.542441	1
81.635414	0.795838	city	2	1	0.649533	0.649533	0	1	0	0	CorrectCommission	0.540515	0.522252	1
82.431374	0.796079	city	10	1	0.699265	0.699265	0	1	0	0	CorrectCommission	0.043876	0.505262	1
83.227196	0.795570	city	2	1	0.811646	0.811646	0	1	0	0	CorrectCommission	1.078401	0.492756	1
84.022858	0.795759	city	4	1	0.761312	0.761312	0	1	0	0	CorrectCommission	0.575745	0.485696	1
84.818665	0.795848	city	10	1	0.699909	0.699909	0	1	0	0	CorrectCommission	0.037443	0.484826	1
85.614487	0.795800	city	3	1	0.748717	0.748717	0	1	0	0	CorrectCommission	0.449971	0.490549	1
86.410278	0.795789	city	9	1	0.751463	0.751463	0	1	0	0	CorrectCommission	0.477395	0.502864	1
87.206215	0.796074	city	7	1	0.757558	0.757558	0	1	0	0	CorrectCommission	0.538259	0.521344	1
88.002159	0.795816	city	6	1	0.748563	0.748563	0	1	0	0	CorrectCommission	0.448433	0.545067	1
88.797813	0.795492	city	2	1	0.698938	0.698938	0	1	0	0	CorrectCommission	0.047138	0.572653	1
89.593430	0.795740	city	4	1	0.708137	0.708137	0	1	0	0	CorrectCommission	0.044718	0.602254	1
90.389366	0.796142	city	7	1	0.619106	0.619106	0	1	0	0	CorrectCommission	0.844377	0.631700	1
91.185204	0.795522	city	10	1	0.653013	0.653013	0	1	0	0	CorrectCommission	0.505769	0.658690	1
91.981018	0.796110	city	8	1	0.649851	0.649851	0	1	0	0	CorrectCommission	0.537339	0.681011	1
92.776833	0.795516	city	7	1	0.551403	0.551403	0	1	0	0	CorrectCommission	1.520486	0.696841	1
93.572449	0.795719	city	1	1	0.550928	0.550928	0	1	0	0	CorrectCommission	1.525226	0.704970	1
94.368393	0.796172	city	10	1	0.549229	0.549229	0	1	0	0	CorrectCommission	1.542192	0.705041	1
95.164375	0.795788	city	1	1	0.608728	0.608728	0	1	0	0	CorrectCommission	0.948009	0.697592	1
95.959991	0.795450	city	2	1	0.659412	0.659412	0	1	0	0	CorrectCommission	0.441865	0.684096	1
96.755615	0.795796	city	5	1	0.660265	0.660265	0	1	0	0	CorrectCommission	0.433346	0.666763	1
97.551437	0.795847	city	1	1	0.748251	0.748251	0	1	0	0	CorrectCommission	0.445320	0.648315	1
98.347290	0.795858	city	2	1	0.757903	0.757903	0	1	0	0	CorrectCommission	0.541704	0.631710	1
99.143082	0.795735	city	7	1	0.698254	0.698254	0	1	0	0	CorrectCommission	0.053969	0.619796	1
99.938835	0.795766	city	10	1	0.648781	0.648781	0	1	0	0	CorrectCommission	0.548024	0.615101	1
100.734634	0.795841	mountain	7	0	0.000000	0.640564	1	0	0	0	CorrectOmission	0.630086	0.619510	1
101.530617	0.796122	city	5	1	0.661713	0.661713	0	1	0	0	CorrectCommission	0.418884	0.634193	1
102.326439	0.795512	mountain	6	0	0.000000	0.700340	1	0	0	0	CorrectOmission	0.033145	0.659480	1
103.122231	0.796080	city	8	1	0.748322	0.748322	0	1	0	0	CorrectCommission	0.446028	0.694847	1
103.918175	0.795801	city	4	1	0.797540	0.797540	0	1	0	0	CorrectCommission	0.937530	0.738923	0
104.713814	0.795474	city	6	1	0.715456	0.715456	0	1	0	0	CorrectCommission	0.117818	0.789578	0
105.509468	0.795846	city	8	1	0.649067	0.649067	0	1	0	0	CorrectCommission	0.545174	0.844163	0
106.305260	0.795737	city	10	1	0.946999	0.946999	0	1	0	0	CorrectCommission	2.430091	0.899620	0
107.101212	0.796160	city	7	1	0.797846	0.797846	0	1	0	0	CorrectCommission	0.940585	0.952655	0
107.897057	0.795529	city	5	1	0.698213	0.698213	0	1	0	0	CorrectCommission	0.054386	1.000129	0
108.692848	0.796052	city	1	1	0.599185	0.599185	0	1	0	0	CorrectCommission	1.043314	1.039175	0
109.488655	0.795571	city	7	1	0.551577	0.551577	0	1	0	0	CorrectCommission	1.518743	1.067377	0
110.284340	0.795798	city	5	1	0.549358	0.549358	0	1	0	0	CorrectCommission	1.540899	1.083048	0
111.080124	0.795771	city	9	1	0.549182	0.549182	0	1	0	0	CorrectCommission	1.542663	1.085348	0
111.875923	0.795826	city	7	1	0.549175	0.549175	0	1	0	0	CorrectCommission	1.542736	1.074366	0
112.671745	0.795810	city	3	1	0.499404	0.499404	0	1	0	0	CorrectCommission	2.039766	1.051180	0
113.467506	0.795717	city	4	1	0.514206	0.514206	0	1	0	0	CorrectCommission	1.891944	1.017636	0
114.263435	0.796137	mountain	4	0	0.000000	0.618151	1	0	0	0	CorrectOmission	0.853916	0.976205	0
115.059265	0.795531	city	6	1	0.712616	0.712616	0	1	0	0	CorrectCommission	0.089449	0.929758	0
115.854935	0.795812	city	10	1	0.698981	0.698981	0	1	0	0	CorrectCommission	0.046717	0.881255	0
116.650749	0.795816	city	3	1	0.648628	0.648628	0	1	0	0	CorrectCommission	0.549555	0.833518	0
117.446541	0.795768	mountain	9	0	0.000000	0.713432	1	0	0	0	CorrectOmission	0.097601	0.789038	0
118.242294	0.795733	mountain	5	0	0.000000	0.808348	1	0	0	0	CorrectOmission	1.045470	0.749969	0
119.038063	0.795808	city	4	1	0.848333	0.848333	0	1	0	0	CorrectCommission	1.444769	0.718025	0
119.833893	0.795843	city	6	1	0.748341	0.748341	0	1	0	0	CorrectCommission	0.446218	0.694617	1
120.629723	0.795814	city	4	1	0.648877	0.648877	0	1	0	0	CorrectCommission	0.547071	0.680974	1
121.425545	0.795832	city	3	1	0.598824	0.598824	0	1	0	0	CorrectCommission	1.046914	0.678061	1
122.221474	0.796038	city	6	1	0.754206	0.754206	0	1	0	0	CorrectCommission	0.504781	0.686635	1
123.017265	0.795535	city	8	1	0.667611	0.667611	0	1	0	0	CorrectCommission	0.359989	0.707139	1
123.812943	0.795829	city	3	1	0.698642	0.698642	0	1	0	0	CorrectCommission	0.050098	0.739463	0
124.608711	0.795705	city	2	1	0.703307	0.703307	0	1	0	0	CorrectCommission	0.003512	0.782838	0
125.404472	0.795814	city	5	1	0.615770	0.615770	0	1	0	0	CorrectCommission	0.877685	0.835685	0
126.200279	0.795796	city	6	1	0.729264	0.729264	0	1	0	0	CorrectCommission	0.255703	0.895439	0
126.996086	0.795824	city	5	1	0.748404	0.748404	0	1	0	0	CorrectCommission	0.446844	0.958758	0
127.791931	0.795859	city	10	1	0.957092	0.957092	0	1	0	0	CorrectCommission	2.530880	1.021639	0
128.587891	0.796054	city	9	1	0.848245	0.848245	0	1	0	0	CorrectCommission	1.443891	1.079623	0
129.383682	0.795534	city	10	1	0.747751	0.747751	0	1	0	0	CorrectCommission	0.440322	1.128446	0
130.179337	0.795797	city	9	1	0.648815	0.648815	0	1	0	0	CorrectCommission	0.547690	1.164419	0
130.975143	0.795792	city	1	1	0.549454	0.549454	0	1	0	0	CorrectCommission	1.539945	1.184912	0
131.770905	0.795757	city	5	1	0.466940	0.466940	0	1	0	0	CorrectCommission	2.363961	1.188816	0
132.566742	0.795891	city	6	1	0.410164	0.410164	0	1	0	0	CorrectCommission	2.930945	1.176813	0
133.362564	0.795757	mountain	5	1	0.400798	0.400798	0	0	1	0	CommissionError	3.024482	1.151414	0
134.158340	0.795811	mountain	9	1	0.549943	0.549943	0	0	1	0	CommissionError	1.535064	1.116702	0
134.954147	0.795786	city	4	1	0.699247	0.699247	0	1	0	0	CorrectCommission	0.044053	1.077909	0
135.750092	0.796106	city	2	1	0.699156	0.699156	0	1	0	0	CorrectCommission	0.044963	1.040668	0
136.545898	0.795522	city	8	1	0.698985	0.698985	0	1	0	0	CorrectCommission	0.046673	1.010112	0
137.341583	0.795830	city	4	1	0.649089	0.649089	0	1	0	0	CorrectCommission	0.544957	0.990273	0
138.137375	0.795765	city	3	1	0.698725	0.698725	0	1	0	0	CorrectCommission	0.049271	0.983399	0
138.933167	0.795804	city	6	1	0.648633	0.648633	0	1	0	0	CorrectCommission	0.549511	0.989688	0
139.728943	0.795767	city	3	1	0.699086	0.699086	0	1	0	0	CorrectCommission	0.045667	1.007228	0
140.524719	0.795773	city	10	1	0.648664	0.648664	0	1	0	0	CorrectCommission	0.549196	1.032360	0
141.320679	0.796167	mountain	9	0	0.000000	0.731683	1	0	0	0	CorrectOmission	0.279860	1.060206	0
142.116653	0.795764	city	6	1	0.897847	0.897847	0	1	0	0	CorrectCommission	1.939240	1.085489	0
142.912292	0.795515	city	2	1	1.096863	1.096863	0	1	0	0	CorrectCommission	3.926683	1.103186	0
143.707947	0.795795	city	1	1	0.947070	0.947070	0	1	0	0	CorrectCommission	2.430801	1.109310	0
144.503754	0.795837	city	7	1	0.850077	0.850077	0	1	0	0	CorrectCommission	1.462187	1.101571	0
145.299591	0.795833	city	1	1	0.809402	0.809402	0	1	0	0	CorrectCommission	1.055992	1.079424	0
146.095367	0.795715	mountain	6	0	0.000000	0.805067	1	0	0	0	CorrectOmission	1.012701	1.044091	0
146.891281	0.796096	city	10	1	0.797781	0.797781	0	1	0	0	CorrectCommission	0.939937	0.998248	0
147.687088	0.795522	city	6	1	0.748252	0.748252	0	1	0	0	CorrectCommission	0.445325	0.945574	0
148.482758	0.795833	mountain	4	0	0.000000	0.739186	1	0	0	0	CorrectOmission	0.354794	0.890194	0
149.278580	0.795811	city	3	1	0.748875	0.748875	0	1	0	0	CorrectCommission	0.451552	0.836108	0
150.074524	0.796079	city	7	1	0.755610	0.755610	0	1	0	0	CorrectCommission	0.518805	0.786721	0
150.870331	0.795532	city	4	1	0.847309	0.847309	0	1	0	0	CorrectCommission	1.434545	0.744602	0
151.666000	0.795804	city	6	1	0.666295	0.666295	0	1	0	0	CorrectCommission	0.373127	0.711335	0
152.461945	0.796077	city	9	1	0.648628	0.648628	0	1	0	0	CorrectCommission	0.549552	0.687598	1
153.257874	0.795795	city	3	1	0.698021	0.698021	0	1	0	0	CorrectCommission	0.056296	0.673108	1
154.053680	0.795808	mountain	4	0	0.000000	0.730789	1	0	0	0	CorrectOmission	0.270937	0.666895	1
154.849350	0.795537	city	1	1	0.748041	0.748041	0	1	0	0	CorrectCommission	0.443220	0.667488	1
155.645020	0.795786	city	9	1	0.750886	0.750886	0	1	0	0	CorrectCommission	0.471627	0.673228	1
156.440796	0.795779	city	8	1	0.599167	0.599167	0	1	0	0	CorrectCommission	1.043495	0.682394	1
157.236588	0.795792	city	10	1	0.549126	0.549126	0	1	0	0	CorrectCommission	1.543218	0.693440	1
158.032410	0.795847	city	2	1	0.556302	0.556302	0	1	0	0	CorrectCommission	1.471557	0.705071	1
158.828186	0.795715	city	5	1	0.660632	0.660632	0	1	0	0	CorrectCommission	0.429678	0.716355	0
159.623947	0.795818	city	4	1	0.699069	0.699069	0	1	0	0	CorrectCommission	0.045832	0.726613	0
160.419785	0.795855	city	6	1	0.648956	0.648956	0	1	0	0	CorrectCommission	0.546281	0.735371	0
161.215622	0.795824	city	8	1	0.648811	0.648811	0	1	0	0	CorrectCommission	0.547728	0.742348	0
162.011444	0.795810	mountain	10	0	0.000000	0.707126	1	0	0	0	CorrectOmission	0.034628	0.747442	0
162.807251	0.795800	city	1	1	0.797845	0.797845	0	1	0	0	CorrectCommission	0.940583	0.750726	0
163.603180	0.796051	mountain	8	0	0.000000	0.894913	1	0	0	0	CorrectOmission	1.909933	0.752421	0
164.399094	0.795799	city	9	1	0.897539	0.897539	0	1	0	0	CorrectCommission	1.936161	0.752981	0
165.194748	0.795493	city	6	1	0.704936	0.704936	0	1	0	0	CorrectCommission	0.012753	0.753070	0
165.990372	0.795773	city	2	1	0.699306	0.699306	0	1	0	0	CorrectCommission	0.043464	0.753589	0
166.786163	0.795796	city	9	1	0.611055	0.611055	0	1	0	0	CorrectCommission	0.924770	0.755403	0
167.581985	0.795858	city	1	1	0.599851	0.599851	0	1	0	0	CorrectCommission	1.036659	0.759284	0
168.377792	0.795745	city	5	1	0.762785	0.762785	0	1	0	0	CorrectCommission	0.590453	0.765748	0
169.173599	0.795884	city	9	1	0.698484	0.698484	0	1	0	0	CorrectCommission	0.051681	0.774964	0
169.969421	0.795764	city	6	1	0.649447	0.649447	0	1	0	0	CorrectCommission	0.541378	0.786610	0
170.765213	0.795816	city	5	1	0.563011	0.563011	0	1	0	0	CorrectCommission	1.404557	0.799829	0
171.561050	0.795836	city	2	1	0.715091	0.715091	0	1	0	0	CorrectCommission	0.114170	0.813300	0
172.356995	0.796062	city	3	1	0.761067	0.761067	0	1	0	0	CorrectCommission	0.573299	0.825464	0
173.152756	0.795472	city	5	1	0.799547	0.799547	0	1	0	0	CorrectCommission	0.957582	0.834581	0
173.948410	0.795830	city	4	1	0.904568	0.904568	0	1	0	0	CorrectCommission	2.006356	0.839028	0
174.744202	0.795756	city	2	1	0.649289	0.649289	0	1	0	0	CorrectCommission	0.542959	0.837522	0
175.540131	0.796113	city	3	1	0.549413	0.549413	0	1	0	0	CorrectCommission	1.540352	0.829405	0
176.335938	0.795480	city	5	1	0.550079	0.550079	0	1	0	0	CorrectCommission	1.533704	0.814606	0
177.131622	0.795903	mountain	9	0	0.000000	0.630898	1	0	0	0	CorrectOmission	0.726619	0.793769	0
177.927612	0.796056	city	5	1	0.698251	0.698251	0	1	0	0	CorrectCommission	0.054002	0.768128	0
178.723404	0.795537	city	9	1	0.658521	0.658521	0	1	0	0	CorrectCommission	0.450762	0.739325	0
179.519073	0.795815	city	8	1	0.549669	0.549669	0	1	0	0	CorrectCommission	1.537801	0.709181	0
180.314865	0.795758	city	3	1	0.658616	0.658616	0	1	0	0	CorrectCommission	0.449813	0.679444	1
181.110641	0.795798	city	4	1	0.748939	0.748939	0	1	0	0	CorrectCommission	0.452185	0.651650	1
181.906586	0.796076	city	10	1	0.698577	0.698577	0	1	0	0	CorrectCommission	0.050746	0.626965	1
182.702362	0.795476	city	3	1	0.747780	0.747780	0	1	0	0	CorrectCommission	0.440609	0.606076	1
183.498169	0.796148	city	8	1	0.649379	0.649379	0	1	0	0	CorrectCommission	0.542057	0.589163	1
184.294006	0.795535	city	3	1	0.657906	0.657906	0	1	0	0	CorrectCommission	0.456902	0.576001	1
185.089645	0.795745	city	9	1	0.649692	0.649692	0	1	0	0	CorrectCommission	0.538929	0.566121	1
185.885437	0.795817	city	7	1	0.655971	0.655971	0	1	0	0	CorrectCommission	0.476224	0.558981	1
186.681244	0.795820	city	2	1	0.602898	0.602898	0	1	0	0	CorrectCommission	1.006235	0.554114	1
187.477051	0.795798	city	6	1	0.599792	0.599792	0	1	0	0	CorrectCommission	1.037249	0.551209	1
188.272873	0.795823	city	9	1	0.649335	0.649335	0	1	0	0	CorrectCommission	0.542498	0.550198	1
189.068680	0.795794	mountain	4	0	0.000000	0.714451	1	0	0	0	CorrectOmission	0.107773	0.551374	1
189.864471	0.795805	city	2	1	0.760316	0.760316	0	1	0	0	CorrectCommission	0.565805	0.555160	1
190.660416	0.796071	city	8	1	0.752109	0.752109	0	1	0	0	CorrectCommission	0.483840	0.562069	1
191.456360	0.795820	city	9	1	0.747965	0.747965	0	1	0	0	CorrectCommission	0.442457	0.572538	1
192.252029	0.795523	mountain	4	0	0.000000	0.744137	1	0	0	0	CorrectOmission	0.404236	0.586905	1
193.047653	0.795713	mountain	6	0	0.000000	0.742066	1	0	0	0	CorrectOmission	0.383554	0.605253	1
193.843460	0.795900	mountain	9	0	0.000000	0.743191	1	0	0	0	CorrectOmission	0.394787	0.627362	1
194.639435	0.796050	city	9	1	0.748952	0.748952	0	1	0	0	CorrectCommission	0.452313	0.652738	1
195.435364	0.795817	city	10	1	0.760787	0.760787	0	1	0	0	CorrectCommission	0.570509	0.680691	1
196.231171	0.795808	city	9	1	0.698279	0.698279	0	1	0	0	CorrectCommission	0.053723	0.710331	0
197.026810	0.795451	city	2	1	0.996462	0.996462	0	1	0	0	CorrectCommission	2.924041	0.740683	0
197.822449	0.795823	city	3	1	0.810530	0.810530	0	1	0	0	CorrectCommission	1.067257	0.770652	0
198.618240	0.795765	city	4	1	0.709931	0.709931	0	1	0	0	CorrectCommission	0.062635	0.799257	0
199.414017	0.795807	city	9	1	0.702391	0.702391	0	1	0	0	CorrectCommission	0.012658	0.825506	0
200.209854	0.795849	city	7	1	0.648619	0.648619	0	1	0	0	CorrectCommission	0.549650	0.848355	0
201.005676	0.795796	city	8	1	0.549930	0.549930	0	1	0	0	CorrectCommission	1.535194	0.866736	0
201.801483	0.795818	city	1	1	0.600711	0.600711	0	1	0	0	CorrectCommission	1.028077	0.879587	0
202.597290	0.795808	city	7	1	0.649012	0.649012	0	1	0	0	CorrectCommission	0.545720	0.886010	0
203.393112	0.795837	city	1	1	0.648926	0.648926	0	1	0	0	CorrectCommission	0.546577	0.885289	0
204.188904	0.795755	city	10	1	0.947016	0.947016	0	1	0	0	CorrectCommission	2.430260	0.876978	0
204.984711	0.795839	city	6	1	0.799849	0.799849	0	1	0	0	CorrectCommission	0.960592	0.860974	0
205.780640	0.796015	mountain	9	1	0.847489	0.847489	0	0	1	0	CommissionError	1.436341	0.837767	0
206.576447	0.795596	city	5	1	0.652976	0.652976	0	1	0	0	CorrectCommission	0.506131	0.808225	0
207.372131	0.795792	city	2	1	0.649012	0.649012	0	1	0	0	CorrectCommission	0.545723	0.773670	0
208.167938	0.795806	city	4	1	0.805187	0.805187	0	1	0	0	CorrectCommission	1.013900	0.735665	0
208.963699	0.795740	city	1	1	0.648722	0.648722	0	1	0	0	CorrectCommission	0.548616	0.695925	1
209.759491	0.795828	city	3	1	0.712982	0.712982	0	1	0	0	CorrectCommission	0.093110	0.656161	1
210.555298	0.795782	city	9	1	0.798075	0.798075	0	1	0	0	CorrectCommission	0.942877	0.617906	1
211.351105	0.795845	city	7	1	0.700679	0.700679	0	1	0	0	CorrectCommission	0.029760	0.582379	1
212.147064	0.796070	city	3	1	0.649384	0.649384	0	1	0	0	CorrectCommission	0.542002	0.550528	1
212.942841	0.795492	city	2	1	0.598654	0.598654	0	1	0	0	CorrectCommission	1.048615	0.522884	1
213.738525	0.795861	city	7	1	0.698677	0.698677	0	1	0	0	CorrectCommission	0.049750	0.499676	1
214.534332	0.795757	mountain	2	0	0.000000	0.739951	1	0	0	0	CorrectOmission	0.362428	0.480846	1
215.330124	0.795830	city	7	1	0.748164	0.748164	0	1	0	0	CorrectCommission	0.444449	0.466134	1
216.126053	0.796042	city	8	1	0.749005	0.749005	0	1	0	0	CorrectCommission	0.452841	0.455225	1
216.921829	0.795488	city	1	1	0.698799	0.698799	0	1	0	0	CorrectCommission	0.048527	0.447774	1
217.717514	0.795892	city	4	1	0.798718	0.798718	0	1	0	0	CorrectCommission	0.949301	0.443482	1
218.513351	0.795788	city	3	1	0.649964	0.649964	0	1	0	0	CorrectCommission	0.536215	0.442036	1
219.309158	0.795815	city	1	1	0.698272	0.698272	0	1	0	0	CorrectCommission	0.053789	0.443242	1
220.104950	0.795769	city	9	1	0.663833	0.663833	0	1	0	0	CorrectCommission	0.397718	0.446961	1
220.900711	0.795750	city	4	1	0.619377	0.619377	0	1	0	0	CorrectCommission	0.841671	0.453002	1
221.696472	0.795789	city	1	1	0.701428	0.701428	0	1	0	0	CorrectCommission	0.022276	0.461089	1
222.492447	0.796139	city	2	1	0.649905	0.649905	0	1	0	0	CorrectCommission	0.536804	0.470968	1
223.288284	0.795549	city	5	1	0.698061	0.698061	0	1	0	0	CorrectCommission	0.055897	0.482167	1
224.083939	0.795771	city	9	1	0.798074	0.798074	0	1	0	0	CorrectCommission	0.942871	0.494223	1
224.879730	0.795814	city	2	1	0.748321	0.748321	0	1	0	0	CorrectCommission	0.446016	0.506592	1
225.675552	0.795823	city	3	1	0.698835	0.698835	0	1	0	0	CorrectCommission	0.048175	0.518796	1
226.471329	0.795732	city	9	1	0.748841	0.748841	0	1	0	0	CorrectCommission	0.451208	0.530453	1
227.267120	0.795851	city	5	1	0.599262	0.599262	0	1	0	0	CorrectCommission	1.042546	0.541359	1
228.062943	0.795785	mountain	9	0	0.000000	0.580103	1	0	0	0	CorrectOmission	1.233872	0.551518	1
228.858734	0.795810	city	1	1	0.649388	0.649388	0	1	0	0	CorrectCommission	0.541967	0.561215	1
229.654556	0.795816	city	10	1	0.765140	0.765140	0	1	0	0	CorrectCommission	0.613975	0.570976	1
230.450500	0.796085	city	8	1	0.698350	0.698350	0	1	0	0	CorrectCommission	0.053012	0.581411	1
231.246277	0.795449	city	7	1	0.657157	0.657157	0	1	0	0	CorrectCommission	0.464384	0.593161	1
232.041901	0.795808	city	6	1	0.649523	0.649523	0	1	0	0	CorrectCommission	0.540620	0.606725	1
232.837723	0.795839	city	7	1	0.649153	0.649153	0	1	0	0	CorrectCommission	0.544310	0.622370	1
233.633682	0.796091	city	2	1	0.748443	0.748443	0	1	0	0	CorrectCommission	0.447234	0.640068	1
234.429489	0.795504	city	5	1	0.762779	0.762779	0	1	0	0	CorrectCommission	0.590400	0.659487	1
235.225159	0.795850	city	3	1	0.797869	0.797869	0	1	0	0	CorrectCommission	0.940822	0.679956	1
236.020966	0.795744	city	6	1	0.714573	0.714573	0	1	0	0	CorrectCommission	0.108996	0.700542	1
236.816711	0.795758	mountain	7	0	0.000000	0.800364	1	0	0	0	CorrectOmission	0.965733	0.720251	0
237.612518	0.795868	city	6	1	0.860124	0.860124	0	1	0	0	CorrectCommission	1.562525	0.738012	0
238.408508	0.796108	city	7	1	0.698738	0.698738	0	1	0	0	CorrectCommission	0.049136	0.752841	0
239.204285	0.795431	city	6	1	0.615087	0.615087	0	1	0	0	CorrectCommission	0.884513	0.764077	0
239.999924	0.795865	city	1	1	0.549612	0.549612	0	1	0	0	CorrectCommission	1.538369	0.771239	0
240.795761	0.795782	city	7	1	0.560427	0.560427	0	1	0	0	CorrectCommission	1.430361	0.774187	0
241.591537	0.795792	city	8	1	0.748054	0.748054	0	1	0	0	CorrectCommission	0.443349	0.773085	0
242.387344	0.795829	city	2	1	0.699533	0.699533	0	1	0	0	CorrectCommission	0.041200	0.768391	0
243.183167	0.795806	city	6	1	0.652625	0.652625	0	1	0	0	CorrectCommission	0.509641	0.760755	0
243.978943	0.795734	city	4	1	0.648852	0.648852	0	1	0	0	CorrectCommission	0.547321	0.750931	0
244.774887	0.796166	city	3	1	0.561789	0.561789	0	1	0	0	CorrectCommission	1.416760	0.739766	0
245.570862	0.795771	city	8	1	0.549115	0.549115	0	1	0	0	CorrectCommission	1.543331	0.728091	0
246.366501	0.795533	city	3	1	0.658428	0.658428	0	1	0	0	CorrectCommission	0.451687	0.716749	0
247.162308	0.796073	city	9	1	0.649203	0.649203	0	1	0	0	CorrectCommission	0.543816	0.706505	1
247.958130	0.795556	mountain	7	0	0.000000	0.690493	1	0	0	0	CorrectOmission	0.131480	0.697970	1
248.753799	0.795798	mountain	4	0	0.000000	0.750616	1	0	0	0	CorrectOmission	0.468932	0.691546	1
249.549606	0.795823	city	3	1	0.797890	0.797890	0	1	0	0	CorrectCommission	0.941029	0.687407	1
250.345383	0.795730	city	4	1	0.800633	0.800633	0	1	0	0	CorrectCommission	0.968423	0.685506	1
251.141327	0.796138	city	2	1	0.701114	0.701114	0	1	0	0	CorrectCommission	0.025415	0.685608	1
251.937149	0.795503	city	9	1	0.648226	0.648226	0	1	0	0	CorrectCommission	0.553576	0.687383	1
252.732803	0.795817	city	6	1	0.615537	0.615537	0	1	0	0	CorrectCommission	0.880015	0.690343	1
253.528580	0.795730	city	9	1	0.648826	0.648826	0	1	0	0	CorrectCommission	0.547576	0.694059	1
254.324356	0.795820	city	6	1	0.603879	0.603879	0	1	0	0	CorrectCommission	0.996435	0.698139	1
255.120178	0.795842	city	5	1	0.599215	0.599215	0	1	0	0	CorrectCommission	1.043010	0.702259	1
255.916016	0.795834	city	9	1	0.599206	0.599206	0	1	0	0	CorrectCommission	1.043107	0.706295	1
256.711823	0.795737	city	2	1	0.599024	0.599024	0	1	0	0	CorrectCommission	1.044920	0.710186	0
257.507629	0.795914	city	9	1	0.666577	0.666577	0	1	0	0	CorrectCommission	0.370316	0.713938	0
258.303467	0.795732	city	6	1	0.712906	0.712906	0	1	0	0	CorrectCommission	0.092343	0.717640	0
259.099182	0.795738	city	1	1	0.699700	0.699700	0	1	0	0	CorrectCommission	0.039536	0.721437	0
259.895142	0.796135	city	6	1	0.749007	0.749007	0	1	0	0	CorrectCommission	0.452866	0.725547	0
260.690918	0.795459	city	1	1	0.612890	0.612890	0	1	0	0	CorrectCommission	0.906450	0.730267	0
261.486542	0.795791	city	6	1	0.550542	0.550542	0	1	0	0	CorrectCommission	1.529080	0.736051	0
262.282379	0.795875	city	4	1	0.599647	0.599647	0	1	0	0	CorrectCommission	1.038697	0.743497	0
263.078217	0.795800	city	3	1	0.549967	0.549967	0	1	0	0	CorrectCommission	1.534825	0.753361	0
263.874023	0.795790	city	4	1	0.649259	0.649259	0	1	0	0	CorrectCommission	0.543255	0.766398	0
264.669800	0.795771	city	3	1	0.648901	0.648901	0	1	0	0	CorrectCommission	0.546831	0.783229	0
265.465607	0.795840	city	2	1	0.649694	0.649694	0	1	0	0	CorrectCommission	0.538916	0.804062	0
266.261566	0.796091	city	1	1	0.698664	0.698664	0	1	0	0	CorrectCommission	0.049876	0.828554	0
267.057343	0.795460	city	5	1	0.667355	0.667355	0	1	0	0	CorrectCommission	0.362543	0.855656	0
267.852997	0.795846	city	1	1	0.698746	0.698746	0	1	0	0	CorrectCommission	0.049058	0.883598	0
268.648834	0.795827	city	6	1	0.801051	0.801051	0	1	0	0	CorrectCommission	0.972593	0.910124	0
269.444763	0.796040	city	2	1	0.648516	0.648516	0	1	0	0	CorrectCommission	0.550680	0.932628	0
270.240540	0.795536	city	3	1	0.549556	0.549556	0	1	0	0	CorrectCommission	1.538922	0.948638	0
271.036194	0.795748	city	10	1	0.412341	0.412341	0	1	0	0	CorrectCommission	2.909203	0.956091	0
271.832001	0.795869	city	7	1	0.499571	0.499571	0	1	0	0	CorrectCommission	2.038097	0.953669	0
272.627838	0.795783	city	4	1	0.551623	0.551623	0	1	0	0	CorrectCommission	1.518285	0.941061	0
273.423615	0.795811	city	2	1	0.599303	0.599303	0	1	0	0	CorrectCommission	1.042130	0.918887	0
274.219452	0.795830	city	1	1	0.648643	0.648643	0	1	0	0	CorrectCommission	0.549411	0.888554	0
275.015228	0.795763	mountain	9	0	0.000000	0.682219	1	0	0	0	CorrectOmission	0.214106	0.851979	0
275.811188	0.796118	city	8	1	0.699225	0.699225	0	1	0	0	CorrectCommission	0.044275	0.811283	0
276.607147	0.795803	city	3	1	0.698855	0.698855	0	1	0	0	CorrectCommission	0.047975	0.768487	0
277.402802	0.795527	city	6	1	0.751069	0.751069	0	1	0	0	CorrectCommission	0.473458	0.725227	0
278.198608	0.796068	city	7	1	0.810210	0.810210	0	1	0	0	CorrectCommission	1.064061	0.682749	1
278.994385	0.795513	mountain	4	0	0.000000	0.839275	1	0	0	0	CorrectOmission	1.354316	0.641963	1
279.790070	0.795809	city	4	1	0.798698	0.798698	0	1	0	0	CorrectCommission	0.949101	0.603592	1
280.585999	0.796092	city	2	1	0.648913	0.648913	0	1	0	0	CorrectCommission	0.546707	0.568322	1
281.381927	0.795754	city	10	1	0.599384	0.599384	0	1	0	0	CorrectCommission	1.041329	0.537006	1
282.177582	0.795548	city	6	1	0.698200	0.698200	0	1	0	0	CorrectCommission	0.054514	0.510634	1
282.973267	0.795833	city	9	1	0.699174	0.699174	0	1	0	0	CorrectCommission	0.044781	0.490442	1
283.769073	0.795792	city	1	1	0.660607	0.660607	0	1	0	0	CorrectCommission	0.429929	0.477646	1
284.564850	0.795739	city	8	1	0.699001	0.699001	0	1	0	0	CorrectCommission	0.046515	0.473302	1
285.360626	0.795839	city	9	1	0.748947	0.748947	0	1	0	0	CorrectCommission	0.452263	0.478152	1
286.156464	0.795795	city	7	1	0.713231	0.713231	0	1	0	0	CorrectCommission	0.095592	0.492296	1
286.952240	0.795787	city	6	1	0.748800	0.748800	0	1	0	0	CorrectCommission	0.450801	0.515153	1
287.748016	0.795780	city	9	1	0.698330	0.698330	0	1	0	0	CorrectCommission	0.053209	0.545343	1
288.543854	0.795875	city	10	1	0.699453	0.699453	0	1	0	0	CorrectCommission	0.042003	0.580770	1
289.339661	0.795729	city	8	1	0.660946	0.660946	0	1	0	0	CorrectCommission	0.426544	0.618778	1
290.135590	0.796120	mountain	8	0	0.000000	0.738399	1	0	0	0	CorrectOmission	0.346931	0.656471	1
290.931396	0.795508	city	5	1	0.860649	0.860649	0	1	0	0	CorrectCommission	1.567765	0.691031	1
291.727051	0.795810	city	3	1	0.956533	0.956533	0	1	0	0	CorrectCommission	2.525295	0.720004	0
292.522888	0.795836	city	1	1	0.751068	0.751068	0	1	0	0	CorrectCommission	0.473448	0.741625	0
293.318665	0.795733	city	9	1	0.651163	0.651163	0	1	0	0	CorrectCommission	0.524240	0.755073	0
294.114441	0.795839	city	1	1	0.561140	0.561140	0	1	0	0	CorrectCommission	1.423243	0.760302	0
294.910400	0.796073	city	9	1	0.615062	0.615062	0	1	0	0	CorrectCommission	0.884760	0.758027	0
295.706238	0.795560	city	8	1	0.697962	0.697962	0	1	0	0	CorrectCommission	0.056884	0.749593	0
296.502014	0.796044	city	4	1	0.798428	0.798428	0	1	0	0	CorrectCommission	0.946405	0.736680	0
297.297943	0.795823	city	3	1	0.655228	0.655228	0	1	0	0	CorrectCommission	0.483645	0.721000	0
298.093628	0.795502	city	8	1	0.854230	0.854230	0	1	0	0	CorrectCommission	1.503662	0.704124	1
298.889282	0.795828	city	6	1	0.699192	0.699192	0	1	0	0	CorrectCommission	0.044610	0.687184	1
299.685089	0.795805	mountain	9	0	0.000000	0.705418	1	0	0	0	CorrectOmission	0.017565	0.670956	1
300.481049	0.796088	city	9	1	0.762542	0.762542	0	1	0	0	CorrectCommission	0.588036	0.655670	1
301.276978	0.795799	city	10	1	0.760201	0.760201	0	1	0	0	CorrectCommission	0.564652	0.641121	1
302.072662	0.795535	city	5	1	0.760049	0.760049	0	1	0	0	CorrectCommission	0.563133	0.626936	1
302.868286	0.795720	mountain	8	0	0.000000	0.834901	1	0	0	0	CorrectOmission	1.310636	0.612655	1
303.664215	0.796151	city	3	1	0.856915	0.856915	0	1	0	0	CorrectCommission	1.530478	0.597911	1
304.460052	0.795511	city	9	1	0.698249	0.698249	0	1	0	0	CorrectCommission	0.054023	0.582642	1
305.255707	0.795817	city	1	1	0.648707	0.648707	0	1	0	0	CorrectCommission	0.548771	0.567207	1
306.051483	0.795721	mountain	4	0	0.000000	0.712049	1	0	0	0	CorrectOmission	0.083791	0.552278	1
306.847290	0.795887	city	6	1	0.748046	0.748046	0	1	0	0	CorrectCommission	0.443265	0.538825	1
307.643127	0.795772	city	7	1	0.616465	0.616465	0	1	0	0	CorrectCommission	0.870745	0.528001	1
308.438873	0.795736	city	10	1	0.598953	0.598953	0	1	0	0	CorrectCommission	1.045633	0.520937	1
309.234680	0.795896	city	4	1	0.698585	0.698585	0	1	0	0	CorrectCommission	0.050663	0.518518	1
310.030518	0.795777	city	10	1	0.702675	0.702675	0	1	0	0	CorrectCommission	0.009827	0.521412	1
310.826324	0.795796	city	7	1	0.710484	0.710484	0	1	0	0	CorrectCommission	0.068161	0.529833	1
311.622131	0.795813	city	8	1	0.702306	0.702306	0	1	0	0	CorrectCommission	0.013505	0.543506	1
312.418060	0.796080	city	6	1	0.798046	0.798046	0	1	0	0	CorrectCommission	0.942586	0.561801	1
313.213837	0.795460	city	5	1	0.749494	0.749494	0	1	0	0	CorrectCommission	0.457729	0.583864	1
314.009613	0.796115	mountain	3	0	0.000000	0.772964	1	0	0	0	CorrectOmission	0.692112	0.608756	1
314.805420	0.795470	city	4	1	0.797637	0.797637	0	1	0	0	CorrectCommission	0.938501	0.635704	1
315.601074	0.795864	mountain	3	0	0.000000	0.752692	1	0	0	0	CorrectOmission	0.489661	0.664243	1
316.396881	0.795761	city	1	1	0.748970	0.748970	0	1	0	0	CorrectCommission	0.452496	0.694343	1
317.192719	0.795885	city	3	1	0.897314	0.897314	0	1	0	0	CorrectCommission	1.933914	0.726387	0
317.988525	0.795746	city	7	1	0.847732	0.847732	0	1	0	0	CorrectCommission	1.438772	0.760987	0
318.784302	0.795816	city	5	1	0.698374	0.698374	0	1	0	0	CorrectCommission	0.052778	0.798899	0
319.580139	0.795809	city	10	1	0.660702	0.660702	0	1	0	0	CorrectCommission	0.428978	0.840733	0
320.376068	0.796077	city	4	1	0.707855	0.707855	0	1	0	0	CorrectCommission	0.041909	0.886568	0
321.171844	0.795457	city	8	1	0.748041	0.748041	0	1	0	0	CorrectCommission	0.443223	0.935762	0
321.967621	0.796105	city	7	1	0.698465	0.698465	0	1	0	0	CorrectCommission	0.051865	0.986871	0
322.763458	0.795592	city	8	1	0.561482	0.561482	0	1	0	0	CorrectCommission	1.419825	1.037657	0
323.559143	0.795759	city	6	1	0.499286	0.499286	0	1	0	0	CorrectCommission	2.040941	1.085189	0
324.354919	0.795821	city	7	1	0.606118	0.606118	0	1	0	0	CorrectCommission	0.974081	1.126245	0
325.150757	0.795811	city	9	1	0.549935	0.549935	0	1	0	0	CorrectCommission	1.535140	1.157692	0
325.946564	0.795813	city	10	1	0.503305	0.503305	0	1	0	0	CorrectCommission	2.000802	1.176759	0
326.742371	0.795791	city	6	1	0.565782	0.565782	0	1	0	0	CorrectCommission	1.376890	1.181473	0
327.538147	0.795782	city	3	1	0.549140	0.549140	0	1	0	0	CorrectCommission	1.543085	1.170934	0
328.333954	0.795840	city	2	1	0.947434	0.947434	0	1	0	0	CorrectCommission	2.434428	1.145301	0
329.129913	0.796069	city	8	1	0.648551	0.648551	0	1	0	0	CorrectCommission	0.550326	1.105876	0
329.925690	0.795493	city	3	1	0.599289	0.599289	0	1	0	0	CorrectCommission	1.042276	1.055037	0
330.721375	0.795838	city	5	1	0.499325	0.499325	0	1	0	0	CorrectCommission	2.040550	0.995771	0
331.517303	0.796077	city	6	1	0.748277	0.748277	0	1	0	0	CorrectCommission	0.445572	0.931504	0
332.313110	0.795501	city	5	1	0.663067	0.663067	0	1	0	0	CorrectCommission	0.405364	0.865918	0
333.108887	0.796070	mountain	5	0	0.000000	0.681323	1	0	0	0	CorrectOmission	0.223047	0.802522	0
333.904694	0.795521	city	8	1	0.708200	0.708200	0	1	0	0	CorrectCommission	0.045356	0.744527	0
334.700317	0.795746	city	6	1	0.648852	0.648852	0	1	0	0	CorrectCommission	0.547320	0.694664	1
335.496124	0.795872	city	5	1	0.555816	0.555816	0	1	0	0	CorrectCommission	1.476408	0.655092	1
336.291962	0.795789	city	4	1	0.748327	0.748327	0	1	0	0	CorrectCommission	0.446076	0.627402	1
337.087769	0.795815	city	10	1	0.748810	0.748810	0	1	0	0	CorrectCommission	0.450898	0.612606	1
337.883575	0.795790	city	6	1	0.748754	0.748754	0	1	0	0	CorrectCommission	0.450344	0.611028	1
338.679352	0.795810	city	7	1	0.700456	0.700456	0	1	0	0	CorrectCommission	0.031982	0.622300	1
339.475159	0.795746	city	2	1	0.649425	0.649425	0	1	0	0	CorrectCommission	0.541597	0.645344	1
340.270905	0.795798	city	4	1	0.658303	0.658303	0	1	0	0	CorrectCommission	0.452938	0.678297	1
341.066895	0.796130	city	6	1	0.705177	0.705177	0	1	0	0	CorrectCommission	0.015163	0.718635	0
341.862701	0.795516	city	1	1	0.698805	0.698805	0	1	0	0	CorrectCommission	0.048472	0.763289	0
342.658356	0.795761	city	10	1	0.798175	0.798175	0	1	0	0	CorrectCommission	0.943873	0.808810	0
343.454132	0.795790	city	2	1	0.710977	0.710977	0	1	0	0	CorrectCommission	0.073086	0.851634	0
344.249939	0.795841	mountain	7	0	0.000000	0.914937	1	0	0	0	CorrectOmission	2.109903	0.888528	0
345.045776	0.795850	city	9	1	1.063437	1.063437	0	1	0	0	CorrectCommission	3.592883	0.916694	0
345.841583	0.795734	city	4	1	0.809862	0.809862	0	1	0	0	CorrectCommission	1.060587	0.934097	0
346.637360	0.795834	city	2	1	0.648956	0.648956	0	1	0	0	CorrectCommission	0.546284	0.939790	0
347.433228	0.795898	city	8	1	0.599186	0.599186	0	1	0	0	CorrectCommission	1.043302	0.933658	0
348.229004	0.795682	city	4	1	0.648756	0.648756	0	1	0	0	CorrectCommission	0.548282	0.916344	0
349.024750	0.795821	city	2	1	0.653257	0.653257	0	1	0	0	CorrectCommission	0.503327	0.889223	0
349.820587	0.795851	city	1	1	0.600017	0.600017	0	1	0	0	CorrectCommission	1.035008	0.854123	0
350.616394	0.795762	city	7	1	0.616039	0.616039	0	1	0	0	CorrectCommission	0.875001	0.813075	0
351.412170	0.795788	city	6	1	0.599724	0.599724	0	1	0	0	CorrectCommission	1.037935	0.768249	0
352.208099	0.796071	city	7	1	0.606200	0.606200	0	1	0	0	CorrectCommission	0.973259	0.721762	0
353.004059	0.795819	city	8	1	0.648683	0.648683	0	1	0	0	CorrectCommission	0.549012	0.675598	1
353.799866	0.795828	city	9	1	0.601415	0.601415	0	1	0	0	CorrectCommission	1.021038	0.631596	1
354.595520	0.795445	city	4	1	0.698810	0.698810	0	1	0	0	CorrectCommission	0.048417	0.591327	1
355.391144	0.795810	city	5	1	0.713433	0.713433	0	1	0	0	CorrectCommission	0.097612	0.556136	1
356.186951	0.795833	city	2	1	0.801179	0.801179	0	1	0	0	CorrectCommission	0.973879	0.526967	1
356.982788	0.795809	city	3	1	0.711066	0.711066	0	1	0	0	CorrectCommission	0.073976	0.504323	1
357.778717	0.796084	mountain	7	1	0.698375	0.698375	0	0	1	0	CommissionError	0.052760	0.488339	1
358.574677	0.795792	mountain	1	0	0.000000	0.725592	1	0	0	0	CorrectOmission	0.219035	0.478706	1
359.370300	0.795480	city	3	1	0.755055	0.755055	0	1	0	0	CorrectCommission	0.513264	0.474730	1
360.165985	0.795874	city	4	1	0.749103	0.749103	0	1	0	0	CorrectCommission	0.453828	0.475359	1
360.961823	0.795793	mountain	4	0	0.000000	0.760869	1	0	0	0	CorrectOmission	0.571327	0.479376	1
361.757629	0.795815	city	10	1	0.750335	0.750335	0	1	0	0	CorrectCommission	0.466123	0.485437	1
362.553375	0.795720	mountain	7	0	0.000000	0.677481	1	0	0	0	CorrectOmission	0.261418	0.492242	1
363.349304	0.796135	city	9	1	0.648923	0.648923	0	1	0	0	CorrectCommission	0.546607	0.498759	1
364.145172	0.795564	mountain	7	0	0.000000	0.771276	1	0	0	0	CorrectOmission	0.675247	0.504252	1
364.940857	0.795800	city	2	1	0.864606	0.864606	0	1	0	0	CorrectCommission	1.607279	0.508320	1
365.736603	0.795716	city	5	1	0.748983	0.748983	0	1	0	0	CorrectCommission	0.452624	0.510876	1
366.532532	0.796163	city	9	1	0.748154	0.748154	0	1	0	0	CorrectCommission	0.444349	0.512188	1
367.328522	0.795774	city	10	1	0.698845	0.698845	0	1	0	0	CorrectCommission	0.048067	0.512635	1
368.124298	0.795803	mountain	1	0	0.000000	0.698729	1	0	0	0	CorrectOmission	0.049225	0.512642	1
368.919952	0.795515	city	10	1	0.698778	0.698778	0	1	0	0	CorrectCommission	0.048739	0.512593	1
369.715637	0.795821	city	1	1	0.649963	0.649963	0	1	0	0	CorrectCommission	0.536222	0.512677	1
370.511566	0.796084	city	5	1	0.549297	0.549297	0	1	0	0	CorrectCommission	1.541511	0.512936	1
371.307373	0.795512	city	6	1	0.649250	0.649250	0	1	0	0	CorrectCommission	0.543344	0.513230	1
372.103180	0.796095	mountain	2	0	0.000000	0.681675	1	0	0	0	CorrectOmission	0.219542	0.513425	1
372.898987	0.795509	city	9	1	0.698371	0.698371	0	1	0	0	CorrectCommission	0.052807	0.513355	1
373.694641	0.795829	city	1	1	0.751139	0.751139	0	1	0	0	CorrectCommission	0.474155	0.512873	1
374.490448	0.795788	city	10	1	0.809802	0.809802	0	1	0	0	CorrectCommission	1.059986	0.511946	1
375.286224	0.795742	city	6	1	0.809308	0.809308	0	1	0	0	CorrectCommission	1.055052	0.510633	1
376.082031	0.795840	city	7	1	0.748378	0.748378	0	1	0	0	CorrectCommission	0.446583	0.509086	1
376.877991	0.796090	city	1	1	0.699800	0.699800	0	1	0	0	CorrectCommission	0.038537	0.507532	1
377.673950	0.795820	mountain	4	0	0.000000	0.670498	1	0	0	0	CorrectOmission	0.331150	0.506153	1
378.469604	0.795538	city	3	1	0.655634	0.655634	0	1	0	0	CorrectCommission	0.479587	0.505062	1
379.265381	0.796002	city	4	1	0.650369	0.650369	0	1	0	0	CorrectCommission	0.532175	0.504293	1
380.061157	0.795544	city	9	1	0.747813	0.747813	0	1	0	0	CorrectCommission	0.440946	0.503814	1
380.856842	0.795812	city	2	1	0.699168	0.699168	0	1	0	0	CorrectCommission	0.044848	0.503624	1
381.652649	0.795839	city	5	1	0.748332	0.748332	0	1	0	0	CorrectCommission	0.446129	0.503729	1
382.448456	0.795768	city	7	1	0.801268	0.801268	0	1	0	0	CorrectCommission	0.974767	0.504239	1
383.244232	0.795790	city	5	1	0.760009	0.760009	0	1	0	0	CorrectCommission	0.562735	0.505535	1
384.040192	0.796101	city	3	1	0.897580	0.897580	0	1	0	0	CorrectCommission	1.936572	0.508282	1
384.835968	0.795459	city	8	1	0.700421	0.700421	0	1	0	0	CorrectCommission	0.032327	0.513313	1
385.631775	0.796163	city	4	1	0.699927	0.699927	0	1	0	0	CorrectCommission	0.037261	0.521684	1
386.427612	0.795509	mountain	9	0	0.000000	0.704643	1	0	0	0	CorrectOmission	0.009826	0.534341	1
387.223419	0.796063	city	5	1	0.713059	0.713059	0	1	0	0	CorrectCommission	0.093874	0.551966	1
388.019165	0.795459	mountain	1	0	0.000000	0.723668	1	0	0	0	CorrectOmission	0.199819	0.574763	1
388.814850	0.795884	city	2	1	0.749328	0.749328	0	1	0	0	CorrectCommission	0.456070	0.602367	1
389.610657	0.795775	mountain	6	0	0.000000	0.802897	1	0	0	0	CorrectOmission	0.991034	0.633795	1
390.406433	0.795747	city	3	1	0.798218	0.798218	0	1	0	0	CorrectCommission	0.944308	0.667445	1
391.202362	0.796139	city	2	1	0.649133	0.649133	0	1	0	0	CorrectCommission	0.544508	0.701221	1
391.998169	0.795472	city	10	1	0.599072	0.599072	0	1	0	0	CorrectCommission	1.044438	0.732766	0
392.793854	0.795883	city	7	1	0.699208	0.699208	0	1	0	0	CorrectCommission	0.044441	0.759684	0
393.589844	0.796084	city	10	1	0.749808	0.749808	0	1	0	0	CorrectCommission	0.460862	0.779894	0
394.385651	0.795519	city	8	1	0.611281	0.611281	0	1	0	0	CorrectCommission	0.922514	0.791893	0
395.181305	0.795804	city	1	1	0.556079	0.556079	0	1	0	0	CorrectCommission	1.473786	0.794938	0
395.977203	0.796020	city	10	1	1.056068	1.056068	0	1	0	0	CorrectCommission	3.519293	0.789270	0
396.773010	0.795568	city	4	1	0.798263	0.798263	0	1	0	0	CorrectCommission	0.944752	0.776054	0
397.568695	0.795787	mountain	10	0	0.000000	0.697287	1	0	0	0	CorrectOmission	0.063634	0.757470	0
398.364471	0.795808	mountain	9	0	0.000000	0.686292	1	0	0	0	CorrectOmission	0.173430	0.736223	0
399.160278	0.795782	city	10	1	0.698431	0.698431	0	1	0	0	CorrectCommission	0.052206	0.715285	0
399.956085	0.795860	city	1	1	0.666856	0.666856	0	1	0	0	CorrectCommission	0.367526	0.697500	1
400.752045	0.796063	mountain	4	0	0.000000	0.735087	1	0	0	0	CorrectOmission	0.313856	0.685274	1
401.547974	0.795783	city	7	1	0.797508	0.797508	0	1	0	0	CorrectCommission	0.937217	0.680388	1
402.343781	0.795824	city	6	1	0.748503	0.748503	0	1	0	0	CorrectCommission	0.447833	0.683803	1
403.139435	0.795456	mountain	2	0	0.000000	0.731993	1	0	0	0	CorrectOmission	0.282956	0.695805	1
403.935059	0.795804	city	2	1	0.698800	0.698800	0	1	0	0	CorrectCommission	0.048516	0.715995	0
404.730865	0.795792	city	3	1	0.599748	0.599748	0	1	0	0	CorrectCommission	1.037687	0.743498	0
405.526703	0.795889	mountain	5	1	0.569586	0.569586	0	0	1	0	CommissionError	1.338902	0.777129	0
406.322540	0.795772	city	9	1	0.648995	0.648995	0	1	0	0	CorrectCommission	0.545891	0.815589	0
407.118439	0.796073	city	8	1	0.599211	0.599211	0	1	0	0	CorrectCommission	1.043056	0.857674	0
407.914246	0.795551	city	6	1	0.548916	0.548916	0	1	0	0	CorrectCommission	1.545321	0.902112	0
408.710083	0.796074	city	4	1	0.656104	0.656104	0	1	0	0	CorrectCommission	0.474899	0.947699	0
409.505829	0.795435	city	5	1	0.549079	0.549079	0	1	0	0	CorrectCommission	1.543686	0.993219	0
410.301483	0.795846	city	6	1	0.698449	0.698449	0	1	0	0	CorrectCommission	0.052024	1.037259	0
411.097443	0.796098	city	1	1	0.649026	0.649026	0	1	0	0	CorrectCommission	0.545587	1.078286	0
411.893219	0.795474	city	4	1	0.806602	0.806602	0	1	0	0	CorrectCommission	1.028030	1.114523	0
412.688904	0.795861	city	1	1	0.563760	0.563760	0	1	0	0	CorrectCommission	1.397083	1.144153	0
413.484863	0.796068	city	6	1	0.615900	0.615900	0	1	0	0	CorrectCommission	0.876395	1.165422	0
414.280670	0.795559	city	2	1	0.456179	0.456179	0	1	0	0	CorrectCommission	2.471425	1.176976	0
415.076294	0.795709	mountain	8	1	0.499695	0.499695	0	0	1	0	CommissionError	2.036860	1.177978	0
415.872101	0.795866	city	9	1	0.798172	0.798172	0	1	0	0	CorrectCommission	0.943848	1.168363	0
416.667938	0.795807	city	2	1	0.997027	0.997027	0	1	0	0	CorrectCommission	2.929687	1.148963	0
417.463867	0.796066	city	1	1	0.748689	0.748689	0	1	0	0	CorrectCommission	0.449688	1.121209	0
418.259796	0.795822	city	9	1	0.847293	0.847293	0	1	0	0	CorrectCommission	1.434385	1.087304	0
419.055603	0.795774	city	2	1	0.652275	0.652275	0	1	0	0	CorrectCommission	0.513141	1.049680	0
419.851257	0.795538	city	3	1	0.699556	0.699556	0	1	0	0	CorrectCommission	0.040972	1.010925	0
420.646912	0.795775	city	4	1	0.748474	0.748474	0	1	0	0	CorrectCommission	0.447547	0.973412	0
421.442719	0.795813	city	1	1	0.698321	0.698321	0	1	0	0	CorrectCommission	0.053304	0.939096	0
422.238525	0.795791	city	10	1	0.951752	0.951752	0	1	0	0	CorrectCommission	2.477553	0.909456	0
423.034332	0.795839	mountain	4	1	0.748460	0.748460	0	0	1	0	CommissionError	0.447399	0.885289	0
423.830139	0.795771	city	10	1	0.809355	0.809355	0	1	0	0	CorrectCommission	1.055520	0.867163	0
424.625946	0.795842	city	2	1	0.848331	0.848331	0	1	0	0	CorrectCommission	1.444749	0.855044	0
425.421722	0.795718	mountain	3	0	0.000000	0.779394	1	0	0	0	CorrectOmission	0.756320	0.848558	0
426.217499	0.795864	city	9	1	0.698650	0.698650	0	1	0	0	CorrectCommission	0.050021	0.847184	0
427.013306	0.795743	city	10	1	0.702204	0.702204	0	1	0	0	CorrectCommission	0.014527	0.850176	0
427.809113	0.795858	city	9	1	0.612262	0.612262	0	1	0	0	CorrectCommission	0.912724	0.856717	0
428.604919	0.795750	city	1	1	0.550521	0.550521	0	1	0	0	CorrectCommission	1.529286	0.865912	0
429.400848	0.796091	city	7	1	0.660320	0.660320	0	1	0	0	CorrectCommission	0.432795	0.876926	0
430.196808	0.795866	city	6	1	0.798224	0.798224	0	1	0	0	CorrectCommission	0.944364	0.889067	0
430.992493	0.795471	city	10	1	0.748645	0.748645	0	1	0	0	CorrectCommission	0.449255	0.901776	0
431.788147	0.795852	city	2	1	0.947355	0.947355	0	1	0	0	CorrectCommission	2.433642	0.914632	0
432.583984	0.795787	city	7	1	0.812156	0.812156	0	1	0	0	CorrectCommission	1.083496	0.927304	0
433.379791	0.795830	city	5	1	0.748347	0.748347	0	1	0	0	CorrectCommission	0.446272	0.939772	0
434.175568	0.795765	city	3	1	0.798067	0.798067	0	1	0	0	CorrectCommission	0.942796	0.951906	0
434.971375	0.795821	city	5	1	0.797909	0.797909	0	1	0	0	CorrectCommission	0.941215	0.963554	0
435.767181	0.795800	city	7	1	0.764733	0.764733	0	1	0	0	CorrectCommission	0.609911	0.974400	0
436.562927	0.795719	city	1	1	0.698618	0.698618	0	1	0	0	CorrectCommission	0.050335	0.983982	0
437.358856	0.796144	city	2	1	0.798076	0.798076	0	1	0	0	CorrectCommission	0.942888	0.991646	0
438.154724	0.795553	city	10	1	0.747886	0.747886	0	1	0	0	CorrectCommission	0.441674	0.996532	0
438.950378	0.795779	city	6	1	1.053062	1.053062	0	1	0	0	CorrectCommission	3.489270	0.997855	0
439.746307	0.796092	city	2	1	0.847633	0.847633	0	1	0	0	CorrectCommission	1.437783	0.994905	0
440.542267	0.795810	city	7	1	0.754763	0.754763	0	1	0	0	CorrectCommission	0.510350	0.987394	0
441.338074	0.795776	city	8	1	0.809449	0.809449	0	1	0	0	CorrectCommission	1.056467	0.975368	0
442.133850	0.795805	city	2	1	0.762752	0.762752	0	1	0	0	CorrectCommission	0.590129	0.959331	0
442.929535	0.795548	city	10	1	0.762410	0.762410	0	1	0	0	CorrectCommission	0.586716	0.940324	0
443.725189	0.795787	city	3	1	0.752336	0.752336	0	1	0	0	CorrectCommission	0.486113	0.919834	0
444.520996	0.795806	city	6	1	0.851375	0.851375	0	1	0	0	CorrectCommission	1.475155	0.899785	0
445.316803	0.795821	city	2	1	0.848201	0.848201	0	1	0	0	CorrectCommission	1.443457	0.882239	0
446.112610	0.795788	city	7	1	0.851479	0.851479	0	1	0	0	CorrectCommission	1.476192	0.869340	0
446.908356	0.795711	city	9	1	0.713422	0.713422	0	1	0	0	CorrectCommission	0.097498	0.863094	0
447.704132	0.795817	city	5	1	0.711864	0.711864	0	1	0	0	CorrectCommission	0.081941	0.865081	0
448.499939	0.795839	city	4	1	0.847653	0.847653	0	1	0	0	CorrectCommission	1.437977	0.876191	0
449.295807	0.795844	city	1	1	0.699071	0.699071	0	1	0	0	CorrectCommission	0.045814	0.896351	0
450.091583	0.795754	city	2	1	0.698314	0.698314	0	1	0	0	CorrectCommission	0.053373	0.924597	0
450.887360	0.795801	city	10	1	0.748456	0.748456	0	1	0	0	CorrectCommission	0.447358	0.958975	0
451.683167	0.795767	city	4	1	0.856450	0.856450	0	1	0	0	CorrectCommission	1.525833	0.996642	0
452.478973	0.795881	city	8	1	0.798573	0.798573	0	1	0	0	CorrectCommission	0.947854	1.034190	0
453.274963	0.796056	mountain	3	0	0.000000	0.680831	1	0	0	0	CorrectOmission	0.227962	1.068101	0
454.070740	0.795517	city	1	1	0.748213	0.748213	0	1	0	0	CorrectCommission	0.444937	1.095099	0
454.866394	0.795823	city	10	1	1.245708	1.245708	0	1	0	0	CorrectCommission	5.413107	1.112529	0
455.662201	0.795773	city	5	1	0.897368	0.897368	0	1	0	0	CorrectCommission	1.934453	1.118519	0
456.457977	0.795804	city	8	1	0.698725	0.698725	0	1	0	0	CorrectCommission	0.049270	1.112520	0
457.253815	0.795846	city	2	1	0.598920	0.598920	0	1	0	0	CorrectCommission	1.045954	1.095094	0
458.049622	0.795753	city	9	1	0.798603	0.798603	0	1	0	0	CorrectCommission	0.948149	1.067702	0
458.845398	0.795782	city	2	1	0.748800	0.748800	0	1	0	0	CorrectCommission	0.450801	1.032613	0
459.641174	0.795772	city	9	1	0.897564	0.897564	0	1	0	0	CorrectCommission	1.936406	0.992476	0
460.436981	0.795850	city	10	1	0.663197	0.663197	0	1	0	0	CorrectCommission	0.404067	0.949996	0
461.232819	0.795835	city	2	1	0.650818	0.650818	0	1	0	0	CorrectCommission	0.527690	0.907815	0
462.028625	0.795770	city	10	1	0.610719	0.610719	0	1	0	0	CorrectCommission	0.928131	0.868164	0
462.824554	0.796117	city	2	1	0.651464	0.651464	0	1	0	0	CorrectCommission	0.521238	0.832778	0
463.620392	0.795517	city	1	1	0.649500	0.649500	0	1	0	0	CorrectCommission	0.540851	0.802895	0
464.416046	0.795793	city	6	1	0.847614	0.847614	0	1	0	0	CorrectCommission	1.437589	0.779318	0
465.211853	0.795822	city	7	1	0.750391	0.750391	0	1	0	0	CorrectCommission	0.466691	0.762397	0
466.007629	0.795731	city	6	1	0.798276	0.798276	0	1	0	0	CorrectCommission	0.944883	0.752151	0
466.803558	0.796146	city	2	1	0.698656	0.698656	0	1	0	0	CorrectCommission	0.049959	0.748277	0
467.599396	0.795519	city	8	1	0.660585	0.660585	0	1	0	0	CorrectCommission	0.430148	0.750237	0
468.395020	0.795718	city	1	1	0.603062	0.603062	0	1	0	0	CorrectCommission	1.004592	0.757164	0
469.190796	0.795874	city	3	1	0.748097	0.748097	0	1	0	0	CorrectCommission	0.443773	0.767858	0
469.986633	0.795792	city	8	1	0.553068	0.553068	0	1	0	0	CorrectCommission	1.503855	0.780858	0
470.782440	0.795840	city	3	1	0.648845	0.648845	0	1	0	0	CorrectCommission	0.547394	0.794360	0
471.578247	0.795773	city	9	1	0.658700	0.658700	0	1	0	0	CorrectCommission	0.448973	0.806430	0
472.374054	0.795829	city	2	1	0.663692	0.663692	0	1	0	0	CorrectCommission	0.399121	0.814835	0
473.169861	0.795766	city	5	1	0.655279	0.655279	0	1	0	0	CorrectCommission	0.483137	0.817477	0
473.965637	0.795826	city	4	1	0.947939	0.947939	0	1	0	0	CorrectCommission	2.439476	0.812552	0
474.761444	0.795780	city	5	1	0.649000	0.649000	0	1	0	0	CorrectCommission	0.545839	0.798636	0
475.557373	0.796078	city	3	1	0.798498	0.798498	0	1	0	0	CorrectCommission	0.947104	0.775138	0
476.353180	0.795505	city	1	1	0.797816	0.797816	0	1	0	0	CorrectCommission	0.940286	0.742278	0
477.148834	0.795815	city	10	1	0.901195	0.901195	0	1	0	0	CorrectCommission	1.972670	0.701176	1
477.944641	0.795824	city	5	1	0.812917	0.812917	0	1	0	0	CorrectCommission	1.091095	0.653856	1
478.740417	0.795724	city	1	1	0.698607	0.698607	0	1	0	0	CorrectCommission	0.050443	0.603125	1
479.536224	0.795851	city	10	1	0.659836	0.659836	0	1	0	0	CorrectCommission	0.437632	0.552263	1
480.332031	0.795805	city	1	1	0.698670	0.698670	0	1	0	0	CorrectCommission	0.049823	0.504619	1
481.127838	0.795811	city	8	1	0.698565	0.698565	0	1	0	0	CorrectCommission	0.050862	0.463325	1
481.923615	0.795730	mountain	5	0	0.000000	0.700972	1	0	0	0	CorrectOmission	0.026833	0.430920	1
482.719421	0.795879	mountain	9	0	0.000000	0.705530	1	0	0	0	CorrectOmission	0.018684	0.409100	1
483.515228	0.795728	mountain	10	0	0.000000	0.711881	1	0	0	0	CorrectOmission	0.082107	0.398503	1
484.311005	0.795849	mountain	2	0	0.000000	0.719666	1	0	0	0	CorrectOmission	0.159855	0.398610	1
485.106873	0.795830	mountain	7	0	0.000000	0.728527	1	0	0	0	CorrectOmission	0.248347	0.407874	1
485.902679	0.795802	mountain	5	0	0.000000	0.738106	1	0	0	0	CorrectOmission	0.344002	0.423796	1
486.698456	0.795747	city	10	1	0.748043	0.748043	0	1	0	0	CorrectCommission	0.443238	0.443238	1
