onset	duration	trial_type	image_type	Press	ReactionTime	ReactionTime_Interpolated	CorrectOmission	CorrectCommission	CommissionError	OmissionError	response_type	nonsmoothVarianceTimeCourse	VarianceTimeCourse	In_the_Zone
8.421700	0.795778	city	2	1	0.997040	0.997040	0	1	0	0	CorrectCommission	1.128154	1.128154	0
9.217480	0.795782	city	3	1	0.648666	0.648666	0	1	0	0	CorrectCommission	0.786239	1.170201	0
10.013280	0.795817	city	2	1	0.456343	0.456343	0	1	0	0	CorrectCommission	1.843102	1.209598	0
10.809221	0.796067	city	10	1	0.462089	0.462089	0	1	0	0	CorrectCommission	1.811528	1.243838	0
11.605021	0.795533	city	1	1	0.499376	0.499376	0	1	0	0	CorrectCommission	1.606625	1.270800	0
12.400703	0.795831	city	7	1	0.551524	0.551524	0	1	0	0	CorrectCommission	1.320058	1.288832	0
13.196504	0.795771	mountain	6	1	0.513782	0.513782	0	0	1	0	CommissionError	1.527463	1.296793	0
13.992309	0.795839	city	2	1	0.516235	0.516235	0	1	0	0	CorrectCommission	1.513981	1.294115	0
14.788108	0.795761	city	6	1	0.562939	0.562939	0	1	0	0	CorrectCommission	1.257330	1.280820	0
15.583910	0.795843	city	4	1	0.649163	0.649163	0	1	0	0	CorrectCommission	0.783511	1.257441	0
16.379848	0.796036	city	2	1	0.459713	0.459713	0	1	0	0	CorrectCommission	1.824585	1.224983	0
17.175642	0.795549	city	8	1	0.511638	0.511638	0	1	0	0	CorrectCommission	1.539240	1.184830	0
17.971312	0.795789	city	1	1	0.549143	0.549143	0	1	0	0	CorrectCommission	1.333141	1.138761	0
18.767118	0.795828	mountain	2	1	0.549486	0.549486	0	0	1	0	CommissionError	1.331257	1.088763	0
19.562916	0.795765	city	2	1	0.563323	0.563323	0	1	0	0	CorrectCommission	1.255220	1.036935	0
20.358685	0.795774	city	9	1	0.702995	0.702995	0	1	0	0	CorrectCommission	0.487688	0.985423	0
21.154470	0.795797	mountain	8	0	0.000000	0.707957	1	0	0	0	CorrectOmission	0.460424	0.936236	0
21.950302	0.795866	city	10	1	0.649565	0.649565	0	1	0	0	CorrectCommission	0.781300	0.891110	0
22.746271	0.796070	city	9	1	0.599178	0.599178	0	1	0	0	CorrectCommission	1.058188	0.851429	0
23.542215	0.795821	mountain	4	0	0.000000	0.673241	1	0	0	0	CorrectOmission	0.651195	0.818118	0
24.338020	0.795790	city	7	1	0.747803	0.747803	0	1	0	0	CorrectCommission	0.241459	0.791659	0
25.133661	0.795492	city	9	1	0.698914	0.698914	0	1	0	0	CorrectCommission	0.510117	0.772020	0
25.929462	0.796111	city	8	1	0.652459	0.652459	0	1	0	0	CorrectCommission	0.765397	0.758708	0
26.725279	0.795519	city	6	1	0.650766	0.650766	0	1	0	0	CorrectCommission	0.774703	0.750898	0
27.520950	0.795825	city	7	1	0.612911	0.612911	0	1	0	0	CorrectCommission	0.982723	0.747452	0
28.316753	0.795779	city	6	1	0.848153	0.848153	0	1	0	0	CorrectCommission	0.309986	0.747064	0
29.112553	0.795820	city	7	1	0.599095	0.599095	0	1	0	0	CorrectCommission	1.058645	0.748432	0
29.908314	0.795704	city	8	1	1.047439	1.047439	0	1	0	0	CorrectCommission	1.405108	0.750267	0
30.704119	0.795904	city	4	1	0.861882	0.861882	0	1	0	0	CorrectCommission	0.385429	0.751427	0
31.500103	0.796066	city	8	1	0.797952	0.797952	0	1	0	0	CorrectCommission	0.034121	0.751022	0
32.295891	0.795511	city	2	1	0.655602	0.655602	0	1	0	0	CorrectCommission	0.748129	0.748416	0
33.091537	0.795785	mountain	6	0	0.000000	0.560478	1	0	0	0	CorrectOmission	1.270856	0.743220	0
33.887310	0.795756	city	1	1	0.559927	0.559927	0	1	0	0	CorrectCommission	1.273882	0.735297	1
34.683109	0.795844	city	5	1	0.701295	0.701295	0	1	0	0	CorrectCommission	0.497031	0.724790	1
35.478920	0.795779	city	4	1	1.046771	1.046771	0	1	0	0	CorrectCommission	1.401438	0.712092	1
36.274876	0.796128	city	8	1	0.847779	0.847779	0	1	0	0	CorrectCommission	0.307933	0.697660	1
37.070663	0.795448	city	1	1	0.847571	0.847571	0	1	0	0	CorrectCommission	0.306787	0.682080	1
37.866318	0.795866	city	6	1	0.963638	0.963638	0	1	0	0	CorrectCommission	0.944603	0.665863	1
38.662174	0.795840	city	4	1	0.748066	0.748066	0	1	0	0	CorrectCommission	0.240016	0.649414	1
39.457981	0.795777	city	9	1	0.715743	0.715743	0	1	0	0	CorrectCommission	0.417638	0.633049	1
40.253780	0.795821	city	4	1	0.698586	0.698586	0	1	0	0	CorrectCommission	0.511918	0.616941	1
41.049591	0.795801	mountain	4	0	0.000000	0.897029	1	0	0	0	CorrectOmission	0.578570	0.601162	1
41.845383	0.795781	city	4	1	1.050223	1.050223	0	1	0	0	CorrectCommission	1.420411	0.585778	1
42.641300	0.796056	city	5	1	0.897323	0.897323	0	1	0	0	CorrectCommission	0.580188	0.570879	1
43.437103	0.795551	city	2	1	0.747991	0.747991	0	1	0	0	CorrectCommission	0.240426	0.556672	1
44.232925	0.796089	city	1	1	0.903419	0.903419	0	1	0	0	CorrectCommission	0.613688	0.543457	1
45.028713	0.795490	city	3	1	0.911879	0.911879	0	1	0	0	CorrectCommission	0.660176	0.531596	1
45.824360	0.795801	city	2	1	0.848074	0.848074	0	1	0	0	CorrectCommission	0.309551	0.521528	1
46.620167	0.795818	city	10	1	0.748157	0.748157	0	1	0	0	CorrectCommission	0.239517	0.513685	1
47.416107	0.796060	city	6	1	0.947896	0.947896	0	1	0	0	CorrectCommission	0.858100	0.508398	1
48.211899	0.795525	city	10	1	0.851558	0.851558	0	1	0	0	CorrectCommission	0.328696	0.505853	1
49.007534	0.795746	city	5	1	0.798837	0.798837	0	1	0	0	CorrectCommission	0.038985	0.506143	1
49.803322	0.795826	city	10	1	0.797972	0.797972	0	1	0	0	CorrectCommission	0.034231	0.509227	1
50.599167	0.795871	city	3	1	0.947186	0.947186	0	1	0	0	CorrectCommission	0.854197	0.514949	1
51.395138	0.796066	city	8	1	0.667166	0.667166	0	1	0	0	CorrectCommission	0.684581	0.523045	1
52.190929	0.795517	city	6	1	0.601213	0.601213	0	1	0	0	CorrectCommission	1.047004	0.533369	1
52.986599	0.795821	city	5	1	0.748338	0.748338	0	1	0	0	CorrectCommission	0.238521	0.545859	1
53.782364	0.795714	city	3	1	0.897562	0.897562	0	1	0	0	CorrectCommission	0.581499	0.560688	1
54.578152	0.795863	city	9	1	0.702270	0.702270	0	1	0	0	CorrectCommission	0.491674	0.578139	1
55.373955	0.795739	city	5	1	0.602416	0.602416	0	1	0	0	CorrectCommission	1.040393	0.598593	1
56.169907	0.796165	city	4	1	0.798639	0.798639	0	1	0	0	CorrectCommission	0.037894	0.622512	1
56.965710	0.795445	city	1	1	0.802569	0.802569	0	1	0	0	CorrectCommission	0.059491	0.650348	1
57.761375	0.795885	city	9	1	0.604986	0.604986	0	1	0	0	CorrectCommission	1.026273	0.682362	1
58.557213	0.795785	city	2	1	0.698533	0.698533	0	1	0	0	CorrectCommission	0.512210	0.718519	1
59.352962	0.795718	city	4	1	0.903296	0.903296	0	1	0	0	CorrectCommission	0.613013	0.758455	0
60.148773	0.795900	city	8	1	0.603688	0.603688	0	1	0	0	CorrectCommission	1.033403	0.801393	0
60.944740	0.796039	city	10	1	0.654117	0.654117	0	1	0	0	CorrectCommission	0.756286	0.846109	0
61.740532	0.795541	city	6	1	0.598567	0.598567	0	1	0	0	CorrectCommission	1.061549	0.890970	0
62.536198	0.795794	city	8	1	0.648554	0.648554	0	1	0	0	CorrectCommission	0.786857	0.933949	0
63.331993	0.795796	city	9	1	0.748324	0.748324	0	1	0	0	CorrectCommission	0.238596	0.972788	0
64.127815	0.795844	city	8	1	0.652673	0.652673	0	1	0	0	CorrectCommission	0.764220	1.005146	0
64.923759	0.796053	city	9	1	1.196106	1.196106	0	1	0	0	CorrectCommission	2.222071	1.028694	0
65.719543	0.795516	city	4	1	1.206488	1.206488	0	1	0	0	CorrectCommission	2.279123	1.041349	0
66.515198	0.795785	city	2	0	0.000000	0.885705	0	0	0	1	OmissionError	0.516346	1.041562	0
67.311020	0.795859	city	8	1	0.698371	0.698371	0	1	0	0	CorrectCommission	0.513103	1.028469	0
68.106979	0.796055	city	2	1	1.109097	1.109097	0	1	0	0	CorrectCommission	1.743938	1.001892	0
68.902771	0.795525	city	3	1	1.201447	1.201447	0	1	0	0	CorrectCommission	2.251422	0.962430	0
69.698387	0.795717	city	10	0	0.000000	1.037919	0	0	0	1	OmissionError	1.352797	0.911467	0
70.494148	0.795805	city	3	1	0.797975	0.797975	0	1	0	0	CorrectCommission	0.034249	0.851148	0
71.289986	0.795873	city	7	1	0.661077	0.661077	0	1	0	0	CorrectCommission	0.718037	0.784133	0
72.085815	0.795781	city	5	1	0.649340	0.649340	0	1	0	0	CorrectCommission	0.782539	0.713331	1
72.881630	0.795840	city	1	1	0.648866	0.648866	0	1	0	0	CorrectCommission	0.785144	0.641728	1
73.677406	0.795717	city	4	1	0.698544	0.698544	0	1	0	0	CorrectCommission	0.512148	0.572180	1
74.473206	0.795884	city	9	1	0.758304	0.758304	0	1	0	0	CorrectCommission	0.183753	0.507209	1
75.269051	0.795808	city	3	1	0.748218	0.748218	0	1	0	0	CorrectCommission	0.239180	0.448792	1
76.064812	0.795713	city	6	1	0.798673	0.798673	0	1	0	0	CorrectCommission	0.038083	0.398280	1
76.860611	0.795891	city	4	1	0.798215	0.798215	0	1	0	0	CorrectCommission	0.035563	0.356407	1
77.656448	0.795772	city	6	1	0.798225	0.798225	0	1	0	0	CorrectCommission	0.035621	0.323277	1
78.452377	0.796087	city	9	1	0.798489	0.798489	0	1	0	0	CorrectCommission	0.037069	0.298513	1
79.248199	0.795557	city	7	1	0.709077	0.709077	0	1	0	0	CorrectCommission	0.454269	0.281346	1
80.043846	0.795744	city	10	1	0.718158	0.718158	0	1	0	0	CorrectCommission	0.404368	0.270824	1
80.839600	0.795761	city	8	1	0.798677	0.798677	0	1	0	0	CorrectCommission	0.038104	0.265939	1
81.635399	0.795843	city	1	1	0.653239	0.653239	0	1	0	0	CorrectCommission	0.761110	0.265760	1
82.431229	0.795810	city	8	1	0.807741	0.807741	0	1	0	0	CorrectCommission	0.087915	0.269429	1
83.227036	0.795799	city	5	1	0.852021	0.852021	0	1	0	0	CorrectCommission	0.331240	0.276282	1
84.022987	0.796116	city	10	1	0.815486	0.815486	0	1	0	0	CorrectCommission	0.130473	0.285813	1
84.818802	0.795507	city	1	1	0.797729	0.797729	0	1	0	0	CorrectCommission	0.032898	0.297617	1
85.614594	0.796075	city	5	1	0.849910	0.849910	0	1	0	0	CorrectCommission	0.319640	0.311264	1
86.410370	0.795479	city	9	1	0.847595	0.847595	0	1	0	0	CorrectCommission	0.306923	0.326285	1
87.206032	0.795848	city	10	1	0.748107	0.748107	0	1	0	0	CorrectCommission	0.239788	0.342207	1
88.001877	0.795832	city	5	1	0.764917	0.764917	0	1	0	0	CorrectCommission	0.147413	0.358502	1
88.797653	0.795726	city	8	1	0.748238	0.748238	0	1	0	0	CorrectCommission	0.239071	0.374663	1
89.593407	0.795784	city	7	1	0.947093	0.947093	0	1	0	0	CorrectCommission	0.853686	0.390273	1
90.389244	0.795894	city	6	1	0.953473	0.953473	0	1	0	0	CorrectCommission	0.888743	0.405080	1
91.185074	0.795757	city	1	1	0.748053	0.748053	0	1	0	0	CorrectCommission	0.240085	0.419127	1
91.980827	0.795752	mountain	7	1	0.699032	0.699032	0	0	1	0	CommissionError	0.509467	0.432783	1
92.776649	0.795892	city	4	1	0.847923	0.847923	0	1	0	0	CorrectCommission	0.308724	0.446692	1
93.572472	0.795757	city	10	1	0.699914	0.699914	0	1	0	0	CorrectCommission	0.504620	0.461821	1
94.368225	0.795744	city	4	1	0.812617	0.812617	0	1	0	0	CorrectCommission	0.114710	0.479298	1
95.164009	0.795832	city	6	1	0.996985	0.996985	0	1	0	0	CorrectCommission	1.127855	0.500287	1
95.959846	0.795833	city	4	1	0.847594	0.847594	0	1	0	0	CorrectCommission	0.306914	0.525819	1
96.755653	0.795786	city	1	1	0.806942	0.806942	0	1	0	0	CorrectCommission	0.083520	0.556627	1
97.551476	0.795853	city	4	1	0.847518	0.847518	0	1	0	0	CorrectCommission	0.306497	0.593055	1
98.347282	0.795764	mountain	3	0	0.000000	0.754385	1	0	0	0	CorrectOmission	0.205291	0.634833	1
99.143074	0.795821	city	3	1	0.649109	0.649109	0	1	0	0	CorrectCommission	0.783809	0.681129	1
99.938896	0.795819	city	5	1	0.653256	0.653256	0	1	0	0	CorrectCommission	0.761021	0.730574	1
100.734833	0.796049	mountain	9	1	0.847516	0.847516	0	0	1	0	CommissionError	0.306487	0.781382	0
101.530617	0.795516	city	3	0	0.000000	0.640846	0	0	0	1	OmissionError	0.829213	0.831524	0
102.326424	0.796101	city	7	1	0.456413	0.456413	0	1	0	0	CorrectCommission	1.842716	0.878880	0
103.122208	0.795465	city	10	1	0.717384	0.717384	0	1	0	0	CorrectCommission	0.408617	0.921454	0
103.917862	0.795853	city	6	1	0.996825	0.996825	0	1	0	0	CorrectCommission	1.126975	0.957615	0
104.713661	0.795746	mountain	2	0	0.000000	1.095072	1	0	0	0	CorrectOmission	1.666866	0.986077	0
105.509460	0.795844	city	7	1	1.099191	1.099191	0	1	0	0	CorrectCommission	1.689501	1.006027	0
106.305275	0.795784	city	9	1	1.096247	1.096247	0	1	0	0	CorrectCommission	1.673324	1.017097	0
107.101097	0.795857	city	8	0	0.000000	0.928191	0	0	0	1	OmissionError	0.749813	1.019254	0
107.897057	0.796065	city	4	1	0.811056	0.811056	0	1	0	0	CorrectCommission	0.106129	1.012721	0
108.692825	0.795471	city	6	1	0.960877	0.960877	0	1	0	0	CorrectCommission	0.929432	0.997868	0
109.488449	0.795780	city	9	1	0.996888	0.996888	0	1	0	0	CorrectCommission	1.127321	0.975039	0
110.284256	0.795830	city	5	1	0.713516	0.713516	0	1	0	0	CorrectCommission	0.429876	0.944633	0
111.080215	0.796100	city	8	1	1.146785	1.146785	0	1	0	0	CorrectCommission	1.951041	0.907195	0
111.876183	0.795837	mountain	1	0	0.000000	0.702356	1	0	0	0	CorrectOmission	0.491202	0.863335	0
112.671867	0.795520	city	2	1	0.300209	0.300209	0	1	0	0	CorrectCommission	2.701094	0.814031	0
113.467651	0.796057	city	10	1	0.860325	0.860325	0	1	0	0	CorrectCommission	0.376878	0.760497	0
114.263458	0.795553	city	7	1	0.710028	0.710028	0	1	0	0	CorrectCommission	0.449040	0.704510	1
115.059090	0.795708	city	2	1	0.701405	0.701405	0	1	0	0	CorrectCommission	0.496429	0.648113	1
115.854881	0.795869	city	10	1	0.748216	0.748216	0	1	0	0	CorrectCommission	0.239188	0.593637	1
116.650703	0.795780	city	8	1	0.749362	0.749362	0	1	0	0	CorrectCommission	0.232891	0.543566	1
117.446640	0.796094	city	1	1	0.847659	0.847659	0	1	0	0	CorrectCommission	0.307275	0.500254	1
118.242439	0.795503	city	4	1	0.947429	0.947429	0	1	0	0	CorrectCommission	0.855534	0.465843	1
119.038239	0.796103	city	3	1	0.809244	0.809244	0	1	0	0	CorrectCommission	0.096174	0.441964	1
119.834076	0.795566	city	8	1	0.804283	0.804283	0	1	0	0	CorrectCommission	0.068913	0.429661	1
120.629738	0.795758	city	3	1	0.754454	0.754454	0	1	0	0	CorrectCommission	0.204909	0.429284	1
121.425484	0.795744	city	10	1	0.797913	0.797913	0	1	0	0	CorrectCommission	0.033905	0.440369	1
122.221291	0.795871	city	8	1	0.798192	0.798192	0	1	0	0	CorrectCommission	0.035438	0.461712	1
123.017128	0.795804	city	1	1	0.799181	0.799181	0	1	0	0	CorrectCommission	0.040874	0.491434	1
123.812935	0.795809	city	10	1	0.899624	0.899624	0	1	0	0	CorrectCommission	0.592831	0.527138	1
124.608879	0.796082	city	9	1	0.847613	0.847613	0	1	0	0	CorrectCommission	0.307020	0.566112	1
125.404694	0.795544	city	3	1	0.704858	0.704858	0	1	0	0	CorrectCommission	0.477454	0.605638	1
126.200340	0.795749	city	6	1	1.195911	1.195911	0	1	0	0	CorrectCommission	2.220999	0.643126	1
126.996124	0.795813	city	4	0	0.000000	0.972614	0	0	0	1	OmissionError	0.993931	0.676303	1
127.792076	0.796096	city	5	1	0.613732	0.613732	0	1	0	0	CorrectCommission	0.978210	0.703510	1
128.587891	0.795535	city	10	1	0.698030	0.698030	0	1	0	0	CorrectCommission	0.514975	0.723561	1
129.383545	0.795770	city	1	1	0.847892	0.847892	0	1	0	0	CorrectCommission	0.308551	0.735925	1
130.179474	0.796092	city	2	1	0.852514	0.852514	0	1	0	0	CorrectCommission	0.333953	0.740501	1
130.975418	0.795795	city	8	1	0.910016	0.910016	0	1	0	0	CorrectCommission	0.649940	0.737683	1
131.771072	0.795511	city	2	1	1.202184	1.202184	0	1	0	0	CorrectCommission	2.255470	0.728216	1
132.566742	0.795831	mountain	1	0	0.000000	0.886198	1	0	0	0	CorrectOmission	0.519054	0.713068	1
133.362564	0.795810	city	4	1	0.556399	0.556399	0	1	0	0	CorrectCommission	1.293268	0.693514	1
134.158356	0.795778	city	2	1	0.807128	0.807128	0	1	0	0	CorrectCommission	0.084546	0.670826	1
134.954163	0.795840	mountain	2	0	0.000000	0.752634	1	0	0	0	CorrectOmission	0.214914	0.646366	1
135.749969	0.795769	city	10	1	0.648599	0.648599	0	1	0	0	CorrectCommission	0.786612	0.621324	1
136.545746	0.795786	city	8	1	0.750705	0.750705	0	1	0	0	CorrectCommission	0.225513	0.596718	1
137.341553	0.795822	city	3	1	0.648881	0.648881	0	1	0	0	CorrectCommission	0.785060	0.573387	1
138.137375	0.795830	city	8	1	0.648865	0.648865	0	1	0	0	CorrectCommission	0.785146	0.551837	1
138.933182	0.795787	city	10	1	0.911617	0.911617	0	1	0	0	CorrectCommission	0.658738	0.532342	1
139.728973	0.795772	city	4	1	0.813090	0.813090	0	1	0	0	CorrectCommission	0.117310	0.514916	1
140.524902	0.796103	city	8	1	0.748380	0.748380	0	1	0	0	CorrectCommission	0.238291	0.499367	1
141.320709	0.795496	city	6	1	0.748156	0.748156	0	1	0	0	CorrectCommission	0.239519	0.485313	1
142.116348	0.795798	city	9	1	0.648862	0.648862	0	1	0	0	CorrectCommission	0.785163	0.472301	1
142.912170	0.795855	city	6	1	0.748155	0.748155	0	1	0	0	CorrectCommission	0.239524	0.459887	1
143.707993	0.795768	city	8	1	0.698290	0.698290	0	1	0	0	CorrectCommission	0.513547	0.447707	1
144.503769	0.795807	city	10	1	0.602424	0.602424	0	1	0	0	CorrectCommission	1.040353	0.435566	1
145.299561	0.795772	city	1	1	0.649386	0.649386	0	1	0	0	CorrectCommission	0.782283	0.423494	1
146.095505	0.796116	city	9	1	0.758261	0.758261	0	1	0	0	CorrectCommission	0.183993	0.411801	1
146.891312	0.795503	city	2	1	0.754676	0.754676	0	1	0	0	CorrectCommission	0.203691	0.400958	1
147.686981	0.795822	city	3	1	0.808102	0.808102	0	1	0	0	CorrectCommission	0.089897	0.391593	1
148.482788	0.795780	city	9	1	0.754844	0.754844	0	1	0	0	CorrectCommission	0.202768	0.384440	1
149.278717	0.796081	city	4	1	0.748087	0.748087	0	1	0	0	CorrectCommission	0.239901	0.380211	1
150.074524	0.795539	city	10	1	0.666987	0.666987	0	1	0	0	CorrectCommission	0.685561	0.379699	1
150.870331	0.796079	city	3	1	0.847557	0.847557	0	1	0	0	CorrectCommission	0.306712	0.383599	1
151.666122	0.795501	mountain	4	0	0.000000	0.786568	1	0	0	0	CorrectOmission	0.028436	0.392577	1
152.461777	0.795798	city	10	1	0.698578	0.698578	0	1	0	0	CorrectCommission	0.511960	0.407160	1
153.257553	0.795751	city	6	1	0.798145	0.798145	0	1	0	0	CorrectCommission	0.035184	0.427624	1
154.053360	0.795872	city	1	1	0.651138	0.651138	0	1	0	0	CorrectCommission	0.772657	0.454024	1
154.849182	0.795773	city	2	1	0.661142	0.661142	0	1	0	0	CorrectCommission	0.717685	0.485980	1
155.644974	0.795826	city	10	1	0.714093	0.714093	0	1	0	0	CorrectCommission	0.426704	0.522656	1
156.440796	0.795812	city	2	1	0.854584	0.854584	0	1	0	0	CorrectCommission	0.345327	0.562691	1
157.236618	0.795827	city	5	1	0.797883	0.797883	0	1	0	0	CorrectCommission	0.033743	0.604174	1
158.032562	0.796067	city	9	1	0.757435	0.757435	0	1	0	0	CorrectCommission	0.188527	0.644743	1
158.828369	0.795533	city	5	1	0.762788	0.762788	0	1	0	0	CorrectCommission	0.159112	0.681714	1
159.624039	0.795804	city	8	1	0.847620	0.847620	0	1	0	0	CorrectCommission	0.307058	0.712367	1
160.419678	0.795482	city	9	1	1.096368	1.096368	0	1	0	0	CorrectCommission	1.673988	0.734251	1
161.215454	0.796089	city	1	1	1.345590	1.345590	0	1	0	0	CorrectCommission	3.043518	0.745528	0
162.011505	0.795991	mountain	9	0	0.000000	0.975092	1	0	0	0	CorrectOmission	1.007546	0.745233	0
162.807312	0.795639	city	2	1	0.558646	0.558646	0	1	0	0	CorrectCommission	1.280923	0.733613	1
163.603027	0.795787	city	4	1	0.670022	0.670022	0	1	0	0	CorrectCommission	0.668883	0.711958	1
164.398956	0.796076	city	2	1	0.815273	0.815273	0	1	0	0	CorrectCommission	0.129302	0.682571	1
165.194763	0.795539	city	1	1	0.659340	0.659340	0	1	0	0	CorrectCommission	0.727583	0.648518	1
165.990448	0.795810	city	3	1	0.698278	0.698278	0	1	0	0	CorrectCommission	0.513611	0.613190	1
166.786377	0.796049	city	7	1	0.750281	0.750281	0	1	0	0	CorrectCommission	0.227841	0.580004	1
167.582123	0.795446	city	6	1	0.816325	0.816325	0	1	0	0	CorrectCommission	0.135085	0.551971	1
168.377930	0.796161	city	10	1	0.798547	0.798547	0	1	0	0	CorrectCommission	0.037391	0.531429	1
169.173767	0.795512	mountain	10	0	0.000000	0.878060	1	0	0	0	CorrectOmission	0.474332	0.519821	1
169.969437	0.795831	city	6	1	0.909805	0.909805	0	1	0	0	CorrectCommission	0.648781	0.517563	1
170.765228	0.795753	city	7	1	0.748725	0.748725	0	1	0	0	CorrectCommission	0.236391	0.524120	1
171.561035	0.795858	city	6	1	0.748937	0.748937	0	1	0	0	CorrectCommission	0.235230	0.538183	1
172.356827	0.795723	city	8	1	0.798294	0.798294	0	1	0	0	CorrectCommission	0.036001	0.557789	1
173.152588	0.795819	city	3	1	0.648899	0.648899	0	1	0	0	CorrectCommission	0.784958	0.580696	1
173.948380	0.795759	city	8	1	0.648921	0.648921	0	1	0	0	CorrectCommission	0.784842	0.604637	1
174.744156	0.795801	city	6	1	1.000495	1.000495	0	1	0	0	CorrectCommission	1.147141	0.627683	1
175.540146	0.796163	city	5	1	0.748148	0.748148	0	1	0	0	CorrectCommission	0.239564	0.648446	1
176.336105	0.795761	city	9	1	1.046224	1.046224	0	1	0	0	CorrectCommission	1.398435	0.666273	1
177.131760	0.795562	city	3	1	1.011511	1.011511	0	1	0	0	CorrectCommission	1.207681	0.681218	1
177.927444	0.795805	mountain	5	0	0.000000	0.967123	1	0	0	0	CorrectOmission	0.963756	0.694070	1
178.723389	0.796075	mountain	6	0	0.000000	0.900358	1	0	0	0	CorrectOmission	0.596868	0.706100	1
179.519165	0.795488	city	7	1	0.798517	0.798517	0	1	0	0	CorrectCommission	0.037224	0.718891	1
180.314957	0.796095	city	8	1	0.648898	0.648898	0	1	0	0	CorrectCommission	0.784968	0.733992	1
181.110794	0.795558	city	7	1	0.715377	0.715377	0	1	0	0	CorrectCommission	0.419648	0.752580	0
181.906464	0.795777	city	10	1	0.701252	0.701252	0	1	0	0	CorrectCommission	0.497271	0.775283	0
182.702240	0.795784	mountain	7	1	0.751654	0.751654	0	0	1	0	CommissionError	0.220296	0.801970	0
183.498047	0.795842	city	3	1	0.948324	0.948324	0	1	0	0	CorrectCommission	0.860449	0.831716	0
184.293869	0.795784	city	7	1	0.952037	0.952037	0	1	0	0	CorrectCommission	0.880856	0.862861	0
185.089645	0.795785	city	4	1	0.956564	0.956564	0	1	0	0	CorrectCommission	0.905734	0.893235	0
185.885437	0.795778	city	1	1	0.897879	0.897879	0	1	0	0	CorrectCommission	0.583246	0.920446	0
186.681244	0.795840	city	8	1	1.205864	1.205864	0	1	0	0	CorrectCommission	2.275691	0.942153	0
187.477051	0.795780	city	2	0	0.000000	0.966458	0	0	0	1	OmissionError	0.960102	0.956308	0
188.272964	0.796063	city	9	1	0.605506	0.605506	0	1	0	0	CorrectCommission	1.023415	0.961661	0
189.068771	0.795551	city	10	1	0.548850	0.548850	0	1	0	0	CorrectCommission	1.334755	0.957719	0
189.864594	0.796082	mountain	4	1	0.549196	0.549196	0	0	1	0	CommissionError	1.332852	0.944913	0
190.660538	0.795810	city	5	1	0.505766	0.505766	0	1	0	0	CorrectCommission	1.571511	0.924518	0
191.456192	0.795495	city	7	1	0.663433	0.663433	0	1	0	0	CorrectCommission	0.705091	0.898477	0
192.251984	0.796089	mountain	2	0	0.000000	0.682144	1	0	0	0	CorrectOmission	0.602272	0.869219	0
193.047760	0.795473	city	2	1	0.648594	0.648594	0	1	0	0	CorrectCommission	0.786638	0.839299	0
193.843430	0.795848	city	10	1	0.649480	0.649480	0	1	0	0	CorrectCommission	0.781770	0.811051	0
194.639252	0.795796	city	4	1	0.798124	0.798124	0	1	0	0	CorrectCommission	0.035063	0.786378	0
195.435028	0.795772	city	3	1	0.897628	0.897628	0	1	0	0	CorrectCommission	0.581863	0.766637	0
196.230820	0.795801	city	7	1	0.917384	0.917384	0	1	0	0	CorrectCommission	0.690429	0.752409	0
197.026627	0.795809	city	3	0	0.000000	0.749651	0	0	0	1	OmissionError	0.231304	0.743656	0
197.822433	0.795825	city	4	1	0.608850	0.608850	0	1	0	0	CorrectCommission	1.005042	0.739775	1
198.618286	0.795852	city	2	1	0.709400	0.709400	0	1	0	0	CorrectCommission	0.452492	0.739755	1
199.414246	0.796075	city	5	1	0.951889	0.951889	0	1	0	0	CorrectCommission	0.880041	0.742499	0
200.209991	0.795432	city	10	1	0.946673	0.946673	0	1	0	0	CorrectCommission	0.851380	0.746942	0
201.005646	0.795877	city	6	1	1.116461	1.116461	0	1	0	0	CorrectCommission	1.784404	0.752224	0
201.801620	0.796077	mountain	3	0	0.000000	0.985880	1	0	0	0	CorrectOmission	1.066832	0.757761	0
202.597427	0.795515	city	8	1	0.761263	0.761263	0	1	0	0	CorrectCommission	0.167491	0.763374	0
203.393234	0.796096	city	5	1	0.648943	0.648943	0	1	0	0	CorrectCommission	0.784718	0.769167	0
204.189041	0.795530	city	9	1	0.760097	0.760097	0	1	0	0	CorrectCommission	0.173903	0.775303	0
204.984695	0.795766	city	6	1	0.897512	0.897512	0	1	0	0	CorrectCommission	0.581227	0.782090	0
205.780457	0.795758	city	9	1	0.913582	0.913582	0	1	0	0	CorrectCommission	0.669534	0.789716	0
206.576248	0.795846	mountain	6	0	0.000000	0.712939	1	0	0	0	CorrectOmission	0.433046	0.798187	0
207.372070	0.795773	mountain	3	1	0.513799	0.513799	0	0	1	0	CommissionError	1.527366	0.807346	0
208.167862	0.795824	mountain	10	0	0.000000	0.534378	1	0	0	0	CorrectOmission	1.414280	0.816751	0
208.963837	0.796112	city	8	1	0.653035	0.653035	0	1	0	0	CorrectCommission	0.762232	0.825882	0
209.759628	0.795496	city	10	1	0.748129	0.748129	0	1	0	0	CorrectCommission	0.239668	0.834063	0
210.555298	0.795828	city	8	1	1.046850	1.046850	0	1	0	0	CorrectCommission	1.401875	0.840586	0
211.351105	0.795777	mountain	9	0	0.000000	0.854838	1	0	0	0	CorrectOmission	0.346723	0.844654	0
212.146866	0.795748	mountain	6	1	0.648581	0.648581	0	0	1	0	CommissionError	0.786706	0.845690	0
212.942673	0.795871	city	1	1	0.904569	0.904569	0	1	0	0	CorrectCommission	0.620007	0.843195	0
213.738663	0.796102	city	10	1	0.663216	0.663216	0	1	0	0	CorrectCommission	0.706288	0.836975	0
214.534607	0.795783	city	1	0	0.000000	0.499137	0	0	0	1	OmissionError	1.607940	0.827189	0
215.330261	0.795532	city	3	1	0.468211	0.468211	0	1	0	0	CorrectCommission	1.777885	0.814331	0
216.125900	0.795748	mountain	9	0	0.000000	0.626316	1	0	0	0	CorrectOmission	0.909058	0.799274	0
216.921692	0.795826	city	7	1	0.748180	0.748180	0	1	0	0	CorrectCommission	0.239389	0.783211	0
217.717514	0.795823	city	9	1	0.608529	0.608529	0	1	0	0	CorrectCommission	1.006804	0.767498	0
218.513290	0.795750	city	3	1	0.748873	0.748873	0	1	0	0	CorrectCommission	0.235577	0.753403	0
219.309082	0.795827	city	1	1	0.762744	0.762744	0	1	0	0	CorrectCommission	0.159358	0.742073	0
220.104904	0.795823	city	7	1	0.947022	0.947022	0	1	0	0	CorrectCommission	0.853296	0.734289	1
220.900711	0.795790	city	3	1	0.947654	0.947654	0	1	0	0	CorrectCommission	0.856770	0.730320	1
221.696518	0.795821	city	7	0	0.000000	0.789410	0	0	0	1	OmissionError	0.012817	0.729963	1
222.492340	0.795802	city	9	1	0.649326	0.649326	0	1	0	0	CorrectCommission	0.782612	0.732552	1
223.288101	0.795738	city	10	1	0.704438	0.704438	0	1	0	0	CorrectCommission	0.479763	0.736985	1
224.084045	0.796149	city	9	1	1.096962	1.096962	0	1	0	0	CorrectCommission	1.677250	0.741983	1
224.879868	0.795496	city	3	0	0.000000	0.863620	0	0	0	1	OmissionError	0.394982	0.746162	0
225.675522	0.795799	city	5	1	0.549335	0.549335	0	1	0	0	CorrectCommission	1.332087	0.748332	0
226.471420	0.796010	city	3	1	0.699030	0.699030	0	1	0	0	CorrectCommission	0.509477	0.747560	0
227.267380	0.795897	city	4	1	1.004055	1.004055	0	1	0	0	CorrectCommission	1.166704	0.743382	0
228.063065	0.795488	city	9	1	0.847958	0.847958	0	1	0	0	CorrectCommission	0.308915	0.735773	1
228.858704	0.795794	city	7	1	0.648938	0.648938	0	1	0	0	CorrectCommission	0.784745	0.725304	1
229.654526	0.795840	city	8	1	0.602092	0.602092	0	1	0	0	CorrectCommission	1.042177	0.712985	1
230.450348	0.795803	city	5	1	0.563307	0.563307	0	1	0	0	CorrectCommission	1.255311	0.700289	1
231.246155	0.795810	city	4	1	0.751748	0.751748	0	1	0	0	CorrectCommission	0.219784	0.688981	1
232.042099	0.796088	city	2	1	0.748084	0.748084	0	1	0	0	CorrectCommission	0.239918	0.680987	1
232.837906	0.795527	mountain	7	1	0.698119	0.698119	0	0	1	0	CommissionError	0.514486	0.678134	1
233.633530	0.795706	city	4	1	0.660458	0.660458	0	1	0	0	CorrectCommission	0.721443	0.681991	1
234.429459	0.796147	city	3	0	0.000000	0.639873	0	0	0	1	OmissionError	0.834559	0.693615	1
235.225296	0.795525	city	4	1	0.698294	0.698294	0	1	0	0	CorrectCommission	0.513526	0.713386	1
236.020950	0.795803	city	10	1	0.897647	0.897647	0	1	0	0	CorrectCommission	0.581966	0.740908	1
236.816757	0.795791	city	9	0	0.000000	0.844496	0	0	0	1	OmissionError	0.289893	0.774938	0
237.612564	0.795841	city	6	1	0.755636	0.755636	0	1	0	0	CorrectCommission	0.198414	0.813390	0
238.408386	0.795804	city	4	1	0.847860	0.847860	0	1	0	0	CorrectCommission	0.308379	0.853603	0
239.204178	0.795783	city	2	1	0.699176	0.699176	0	1	0	0	CorrectCommission	0.508678	0.892568	0
239.999954	0.795750	mountain	9	0	0.000000	0.483706	1	0	0	0	CorrectOmission	1.692735	0.927265	0
240.795761	0.795872	mountain	7	1	0.549900	0.549900	0	0	1	0	CommissionError	1.328986	0.955082	0
241.591583	0.795769	city	9	1	1.246204	1.246204	0	1	0	0	CorrectCommission	2.497373	0.974191	0
242.387390	0.795835	city	4	1	1.046620	1.046620	0	1	0	0	CorrectCommission	1.400609	0.983747	0
243.183182	0.795761	city	6	1	1.146622	1.146622	0	1	0	0	CorrectCommission	1.950146	0.984083	0
243.978973	0.795821	city	5	0	0.000000	0.980735	0	0	0	1	OmissionError	1.038554	0.976483	0
244.774780	0.795782	city	9	1	0.748285	0.748285	0	1	0	0	CorrectCommission	0.238809	0.963025	0
245.570572	0.795812	city	2	1	0.648603	0.648603	0	1	0	0	CorrectCommission	0.786586	0.946196	0
246.366364	0.795777	city	6	1	0.748028	0.748028	0	1	0	0	CorrectCommission	0.240222	0.928377	0
247.162155	0.795813	city	7	1	0.748892	0.748892	0	1	0	0	CorrectCommission	0.235475	0.911587	0
247.957962	0.795796	mountain	7	0	0.000000	0.936398	1	0	0	0	CorrectOmission	0.794913	0.897095	0
248.753769	0.795802	city	3	1	1.046616	1.046616	0	1	0	0	CorrectCommission	1.400586	0.885340	0
249.549561	0.795804	city	2	1	0.815615	0.815615	0	1	0	0	CorrectCommission	0.131185	0.875902	0
250.345520	0.796103	city	3	1	0.958175	0.958175	0	1	0	0	CorrectCommission	0.914583	0.867756	0
251.141327	0.795500	city	2	1	1.010255	1.010255	0	1	0	0	CorrectCommission	1.200774	0.859376	0
251.936966	0.795779	city	1	1	1.096599	1.096599	0	1	0	0	CorrectCommission	1.675256	0.849176	0
252.732910	0.796110	city	3	0	0.000000	0.762577	0	0	0	1	OmissionError	0.160272	0.835774	0
253.528748	0.795561	city	9	1	0.449635	0.449635	0	1	0	0	CorrectCommission	1.879963	0.818318	0
254.324539	0.796029	mountain	10	1	0.599218	0.599218	0	0	1	0	CommissionError	1.057971	0.796482	0
255.120331	0.795573	city	10	1	0.897213	0.897213	0	1	0	0	CorrectCommission	0.579581	0.770708	0
255.915985	0.795712	city	2	1	0.898057	0.898057	0	1	0	0	CorrectCommission	0.584219	0.742029	1
256.711914	0.796151	city	9	1	0.947155	0.947155	0	1	0	0	CorrectCommission	0.854024	0.711986	1
257.507874	0.795772	city	7	0	0.000000	0.755428	0	0	0	1	OmissionError	0.199557	0.682326	1
258.303528	0.795516	city	5	1	0.598749	0.598749	0	1	0	0	CorrectCommission	1.060546	0.654902	1
259.099335	0.796112	city	6	1	0.752988	0.752988	0	1	0	0	CorrectCommission	0.212964	0.631314	1
259.895111	0.795442	city	7	0	0.000000	0.736487	0	0	0	1	OmissionError	0.303646	0.612898	1
260.690765	0.795895	city	2	1	0.701902	0.701902	0	1	0	0	CorrectCommission	0.493694	0.600455	1
261.486572	0.795721	city	7	1	0.801895	0.801895	0	1	0	0	CorrectCommission	0.055790	0.594248	1
262.282379	0.795882	city	8	1	0.947884	0.947884	0	1	0	0	CorrectCommission	0.858031	0.594016	1
263.078217	0.795781	city	7	1	0.898297	0.898297	0	1	0	0	CorrectCommission	0.585539	0.598951	1
263.873993	0.795751	city	4	1	0.947361	0.947361	0	1	0	0	CorrectCommission	0.855157	0.607896	1
264.669922	0.796150	city	8	1	0.848288	0.848288	0	1	0	0	CorrectCommission	0.310730	0.619358	1
265.465759	0.795510	city	7	1	0.902774	0.902774	0	1	0	0	CorrectCommission	0.610141	0.631725	1
266.261414	0.795802	city	6	0	0.000000	0.757945	0	0	0	1	OmissionError	0.185728	0.643351	1
267.057220	0.795791	mountain	2	1	0.598933	0.598933	0	0	1	0	CommissionError	1.059537	0.652844	1
267.853027	0.795825	city	1	0	0.000000	0.610869	0	0	0	1	OmissionError	0.993944	0.659073	1
268.648804	0.795710	city	7	1	0.659419	0.659419	0	1	0	0	CorrectCommission	0.727150	0.661368	1
269.444550	0.795810	city	6	1	0.610248	0.610248	0	1	0	0	CorrectCommission	0.997355	0.659535	1
270.240540	0.796136	city	7	1	0.951453	0.951453	0	1	0	0	CorrectCommission	0.877646	0.653934	1
271.036377	0.795550	city	1	0	0.000000	0.750773	0	0	0	1	OmissionError	0.225140	0.645370	1
271.832184	0.796060	city	2	1	0.501788	0.501788	0	1	0	0	CorrectCommission	1.593371	0.634997	1
272.627960	0.795512	city	6	1	0.698079	0.698079	0	1	0	0	CorrectCommission	0.514704	0.624084	1
273.423584	0.795745	mountain	2	0	0.000000	0.824623	1	0	0	0	CorrectOmission	0.180686	0.613982	1
274.219391	0.795844	city	2	1	0.852049	0.852049	0	1	0	0	CorrectCommission	0.331396	0.605790	1
275.015228	0.795851	city	10	1	0.750984	0.750984	0	1	0	0	CorrectCommission	0.223979	0.600271	1
275.811005	0.795704	city	5	1	0.748066	0.748066	0	1	0	0	CorrectCommission	0.240013	0.597725	1
276.606812	0.795877	city	10	1	0.748079	0.748079	0	1	0	0	CorrectCommission	0.239945	0.598043	1
277.402649	0.795803	city	4	1	0.805348	0.805348	0	1	0	0	CorrectCommission	0.074761	0.600748	1
278.198425	0.795785	mountain	8	0	0.000000	1.020343	1	0	0	0	CorrectOmission	1.256210	0.605096	1
278.994354	0.796070	city	4	1	1.148872	1.148872	0	1	0	0	CorrectCommission	1.962511	0.610230	1
279.790161	0.795518	city	7	1	0.946745	0.946745	0	1	0	0	CorrectCommission	0.851771	0.615328	1
280.585815	0.795782	mountain	8	0	0.000000	0.828673	1	0	0	0	CorrectOmission	0.202937	0.619798	1
281.381592	0.795789	city	6	1	0.809315	0.809315	0	1	0	0	CorrectCommission	0.096561	0.623216	1
282.177429	0.795862	city	5	1	0.903329	0.903329	0	1	0	0	CorrectCommission	0.613191	0.625397	1
282.973206	0.795729	city	10	1	0.947488	0.947488	0	1	0	0	CorrectCommission	0.855858	0.626303	1
283.769165	0.796172	mountain	6	0	0.000000	0.873821	1	0	0	0	CorrectOmission	0.451039	0.626056	1
284.564972	0.795476	city	7	1	0.765079	0.765079	0	1	0	0	CorrectCommission	0.146524	0.624867	1
285.360626	0.795779	city	1	1	0.704014	0.704014	0	1	0	0	CorrectCommission	0.482092	0.623089	1
286.156586	0.796145	city	3	1	1.097137	1.097137	0	1	0	0	CorrectCommission	1.678212	0.621212	1
286.952545	0.795800	city	2	1	0.896973	0.896973	0	1	0	0	CorrectCommission	0.578265	0.619861	1
287.748230	0.795531	city	5	1	0.712705	0.712705	0	1	0	0	CorrectCommission	0.434331	0.619921	1
288.543854	0.795762	city	10	1	0.648732	0.648732	0	1	0	0	CorrectCommission	0.785881	0.622456	1
289.339630	0.795793	city	8	1	0.707694	0.707694	0	1	0	0	CorrectCommission	0.461871	0.628579	1
290.135437	0.795826	city	2	1	0.702365	0.702365	0	1	0	0	CorrectCommission	0.491155	0.639489	1
290.931244	0.795791	city	4	1	0.748305	0.748305	0	1	0	0	CorrectCommission	0.238700	0.656235	1
291.727203	0.796103	city	8	0	0.000000	0.656174	0	0	0	1	OmissionError	0.744985	0.679587	1
292.523010	0.795516	city	2	1	0.598619	0.598619	0	1	0	0	CorrectCommission	1.061261	0.709804	1
293.318817	0.796072	city	5	1	0.748290	0.748290	0	1	0	0	CorrectCommission	0.238784	0.746519	0
294.114624	0.795563	city	3	1	0.853860	0.853860	0	1	0	0	CorrectCommission	0.341350	0.788724	0
294.910309	0.795787	mountain	5	0	0.000000	0.762160	1	0	0	0	CorrectOmission	0.162563	0.834660	0
295.706085	0.795778	city	6	1	0.700874	0.700874	0	1	0	0	CorrectCommission	0.499347	0.881981	0
296.501862	0.795787	city	5	1	0.897685	0.897685	0	1	0	0	CorrectCommission	0.582177	0.927905	0
297.297821	0.796119	city	7	1	1.150923	1.150923	0	1	0	0	CorrectCommission	1.973781	0.969612	0
298.093597	0.795463	city	10	0	0.000000	1.214479	0	0	0	1	OmissionError	2.323033	1.004429	0
298.889404	0.796136	city	9	1	1.110041	1.110041	0	1	0	0	CorrectCommission	1.749121	1.030248	0
299.685242	0.795519	mountain	9	0	0.000000	0.859298	1	0	0	0	CorrectOmission	0.371233	1.045758	0
300.480865	0.795723	mountain	5	1	0.605600	0.605600	0	0	1	0	CommissionError	1.022899	1.050526	0
301.276672	0.795876	city	6	0	0.000000	0.492294	0	0	0	1	OmissionError	1.645543	1.044982	0
302.072479	0.795786	city	3	1	0.500126	0.500126	0	1	0	0	CorrectCommission	1.602504	1.030392	0
302.868286	0.795788	city	1	1	0.609842	0.609842	0	1	0	0	CorrectCommission	0.999589	1.008686	0
303.664062	0.795760	city	6	1	0.965521	0.965521	0	1	0	0	CorrectCommission	0.954952	0.982120	0
304.459869	0.795878	city	8	0	0.000000	0.856390	0	0	0	1	OmissionError	0.355254	0.953079	0
305.255707	0.795785	city	10	1	0.648688	0.648688	0	1	0	0	CorrectCommission	0.786120	0.923787	0
306.051483	0.795792	city	8	1	0.708651	0.708651	0	1	0	0	CorrectCommission	0.456610	0.896004	0
306.847382	0.796004	city	4	1	1.004938	1.004938	0	1	0	0	CorrectCommission	1.171559	0.870984	0
307.643188	0.795601	city	10	0	0.000000	0.925194	0	0	0	1	OmissionError	0.733348	0.849338	0
308.438904	0.795839	city	8	1	0.698369	0.698369	0	1	0	0	CorrectCommission	0.513111	0.831123	0
309.234863	0.796073	city	3	1	0.553411	0.553411	0	1	0	0	CorrectCommission	1.309687	0.815950	0
310.030792	0.795802	city	9	1	0.717509	0.717509	0	1	0	0	CorrectCommission	0.407935	0.803097	0
310.826447	0.795464	city	3	1	0.660988	0.660988	0	1	0	0	CorrectCommission	0.718531	0.791731	0
311.622070	0.795785	city	4	1	0.713141	0.713141	0	1	0	0	CorrectCommission	0.431935	0.781069	0
312.417877	0.795859	city	6	1	1.046808	1.046808	0	1	0	0	CorrectCommission	1.401643	0.770607	0
313.213715	0.795804	mountain	2	0	0.000000	0.908857	1	0	0	0	CorrectOmission	0.643573	0.760145	0
314.009521	0.795817	city	4	0	0.000000	0.607641	0	0	0	1	OmissionError	1.011681	0.749970	0
314.805328	0.795790	city	2	1	0.451511	0.451511	0	1	0	0	CorrectCommission	1.869653	0.740685	1
315.601105	0.795768	city	10	1	0.748819	0.748819	0	1	0	0	CorrectCommission	0.235876	0.733116	1
316.396912	0.795860	city	6	1	0.803908	0.803908	0	1	0	0	CorrectCommission	0.066849	0.728268	1
317.192688	0.795704	city	9	1	0.748168	0.748168	0	1	0	0	CorrectCommission	0.239454	0.727019	1
317.988495	0.795870	city	10	1	0.652219	0.652219	0	1	0	0	CorrectCommission	0.766716	0.729906	1
318.784302	0.795784	city	7	1	0.798675	0.798675	0	1	0	0	CorrectCommission	0.038095	0.736975	1
319.580261	0.796101	city	3	1	0.996849	0.996849	0	1	0	0	CorrectCommission	1.127109	0.747791	0
320.376068	0.795499	city	1	1	0.997143	0.997143	0	1	0	0	CorrectCommission	1.128720	0.761362	0
321.171692	0.795746	mountain	7	0	0.000000	0.856552	1	0	0	0	CorrectOmission	0.356141	0.776288	0
321.967499	0.795875	city	1	1	0.699109	0.699109	0	1	0	0	CorrectCommission	0.509047	0.790955	0
322.763336	0.795804	city	2	1	0.648844	0.648844	0	1	0	0	CorrectCommission	0.785263	0.803659	0
323.559143	0.795803	city	10	1	0.847632	0.847632	0	1	0	0	CorrectCommission	0.307124	0.812856	0
324.354950	0.795823	city	4	1	1.155772	1.155772	0	1	0	0	CorrectCommission	2.000425	0.817398	0
325.150757	0.795809	city	7	1	1.360319	1.360319	0	1	0	0	CorrectCommission	3.124460	0.816538	0
325.946686	0.796058	mountain	5	1	0.797736	0.797736	0	0	1	0	CommissionError	0.032934	0.810104	0
326.742615	0.795787	city	6	1	0.797637	0.797637	0	1	0	0	CorrectCommission	0.032392	0.798618	0
327.538269	0.795503	city	7	1	0.707708	0.707708	0	1	0	0	CorrectCommission	0.461792	0.782902	0
328.333954	0.795848	city	9	1	0.712920	0.712920	0	1	0	0	CorrectCommission	0.433150	0.764100	0
329.129761	0.795776	city	10	1	0.654892	0.654892	0	1	0	0	CorrectCommission	0.752030	0.743527	0
329.925690	0.796078	city	4	1	0.996916	0.996916	0	1	0	0	CorrectCommission	1.127476	0.722453	1
330.721436	0.795464	mountain	2	0	0.000000	0.899019	1	0	0	0	CorrectOmission	0.589507	0.702117	1
331.517120	0.795865	city	8	1	0.666437	0.666437	0	1	0	0	CorrectCommission	0.688583	0.683618	1
332.312927	0.795791	city	10	0	0.000000	0.604410	0	0	0	1	OmissionError	1.029440	0.667805	1
333.108734	0.795818	city	5	1	0.651973	0.651973	0	1	0	0	CorrectCommission	0.768070	0.655333	1
333.904541	0.795787	city	2	1	0.748164	0.748164	0	1	0	0	CorrectCommission	0.239476	0.646618	1
334.700317	0.795750	city	1	1	0.763376	0.763376	0	1	0	0	CorrectCommission	0.155884	0.641796	1
335.496124	0.795854	city	3	1	0.911336	0.911336	0	1	0	0	CorrectCommission	0.657192	0.640698	1
336.291962	0.795845	city	7	1	0.848210	0.848210	0	1	0	0	CorrectCommission	0.310299	0.642869	1
337.087769	0.795743	city	3	1	0.698588	0.698588	0	1	0	0	CorrectCommission	0.511907	0.647581	1
337.883667	0.796098	city	9	1	0.605158	0.605158	0	1	0	0	CorrectCommission	1.025326	0.653879	1
338.679504	0.795519	city	8	1	0.698367	0.698367	0	1	0	0	CorrectCommission	0.513124	0.660716	1
339.475281	0.796070	city	2	1	0.562434	0.562434	0	1	0	0	CorrectCommission	1.260108	0.667024	1
340.271057	0.795480	city	4	1	0.705555	0.705555	0	1	0	0	CorrectCommission	0.473624	0.671802	1
341.066681	0.795791	city	5	1	0.803985	0.803985	0	1	0	0	CorrectCommission	0.067272	0.674267	1
341.862549	0.795892	city	8	1	1.103091	1.103091	0	1	0	0	CorrectCommission	1.710930	0.673878	1
342.658508	0.796065	city	9	0	0.000000	0.813883	0	0	0	1	OmissionError	0.121666	0.670294	1
343.454285	0.795457	city	10	1	0.556503	0.556503	0	1	0	0	CorrectCommission	1.292697	0.663686	1
344.249939	0.795872	city	7	1	0.951092	0.951092	0	1	0	0	CorrectCommission	0.875663	0.654414	1
345.045929	0.796080	city	2	1	0.797815	0.797815	0	1	0	0	CorrectCommission	0.033369	0.643166	1
345.841858	0.795820	city	8	1	0.606314	0.606314	0	1	0	0	CorrectCommission	1.018975	0.630820	1
346.637543	0.795510	city	4	1	0.912631	0.912631	0	1	0	0	CorrectCommission	0.664308	0.618270	1
347.433319	0.796089	city	2	1	0.723300	0.723300	0	1	0	0	CorrectCommission	0.376109	0.606460	1
348.229126	0.795481	city	8	1	0.720295	0.720295	0	1	0	0	CorrectCommission	0.392621	0.596328	1
349.024750	0.795765	mountain	9	0	0.000000	0.733630	1	0	0	0	CorrectOmission	0.319346	0.588636	1
349.820557	0.795873	city	7	1	0.810368	0.810368	0	1	0	0	CorrectCommission	0.102351	0.584039	1
350.616516	0.796070	city	4	1	0.997577	0.997577	0	1	0	0	CorrectCommission	1.131107	0.583032	1
351.412323	0.795507	city	6	1	1.001593	1.001593	0	1	0	0	CorrectCommission	1.153178	0.585970	1
352.207977	0.795832	city	3	1	0.849116	0.849116	0	1	0	0	CorrectCommission	0.315279	0.593104	1
353.003754	0.795727	city	8	1	0.762955	0.762955	0	1	0	0	CorrectCommission	0.158193	0.604596	1
353.799530	0.795801	city	3	1	0.655793	0.655793	0	1	0	0	CorrectCommission	0.747075	0.620408	1
354.595337	0.795800	city	9	1	0.797965	0.797965	0	1	0	0	CorrectCommission	0.034193	0.640326	1
355.391327	0.796162	city	1	1	0.549209	0.549209	0	1	0	0	CorrectCommission	1.332780	0.663999	1
356.187164	0.795513	city	6	1	0.797802	0.797802	0	1	0	0	CorrectCommission	0.033297	0.690825	1
356.982819	0.795818	city	2	1	0.698400	0.698400	0	1	0	0	CorrectCommission	0.512941	0.720081	1
357.778625	0.795790	city	4	1	0.969611	0.969611	0	1	0	0	CorrectCommission	0.977427	0.750971	0
358.574524	0.796049	city	3	1	0.947075	0.947075	0	1	0	0	CorrectCommission	0.853589	0.782705	0
359.370483	0.795839	city	8	0	0.000000	0.707602	0	0	0	1	OmissionError	0.462376	0.814546	0
360.166290	0.795782	city	4	1	0.506373	0.506373	0	1	0	0	CorrectCommission	1.568174	0.846034	0
360.961945	0.795524	city	9	1	0.598573	0.598573	0	1	0	0	CorrectCommission	1.061512	0.876829	0
361.757599	0.795791	city	4	1	0.698513	0.698513	0	1	0	0	CorrectCommission	0.512321	0.906890	0
362.553528	0.796080	city	5	1	0.908552	0.908552	0	1	0	0	CorrectCommission	0.641894	0.936351	0
363.349335	0.795531	city	4	1	1.208594	1.208594	0	1	0	0	CorrectCommission	2.290698	0.965333	0
364.145020	0.795820	mountain	1	0	0.000000	0.923137	1	0	0	0	CorrectOmission	0.722040	0.993813	0
364.940979	0.796073	city	3	1	0.603205	0.603205	0	1	0	0	CorrectCommission	1.036061	1.021576	0
365.736755	0.795534	city	2	1	0.799825	0.799825	0	1	0	0	CorrectCommission	0.044414	1.047918	0
366.532410	0.795724	city	6	1	0.897527	0.897527	0	1	0	0	CorrectCommission	0.581307	1.071685	0
367.328186	0.795866	city	4	0	0.000000	0.673450	0	0	0	1	OmissionError	0.650049	1.091273	0
368.123993	0.795734	city	2	1	0.465938	0.465938	0	1	0	0	CorrectCommission	1.790377	1.104809	0
368.919800	0.795864	city	6	1	0.613334	0.613334	0	1	0	0	CorrectCommission	0.980400	1.110324	0
369.715607	0.795780	city	8	1	1.101168	1.101168	0	1	0	0	CorrectCommission	1.700366	1.106237	0
370.511383	0.795754	city	9	0	0.000000	1.268714	0	0	0	1	OmissionError	2.621067	1.091579	0
371.307159	0.795797	city	6	1	1.146355	1.146355	0	1	0	0	CorrectCommission	1.948676	1.066190	0
372.102997	0.795864	city	4	0	0.000000	0.764476	0	0	0	1	OmissionError	0.149836	1.030996	0
372.898956	0.796086	city	10	1	0.468944	0.468944	0	1	0	0	CorrectCommission	1.773858	0.987955	0
373.694794	0.795558	city	2	1	0.605622	0.605622	0	1	0	0	CorrectCommission	1.022779	0.939750	0
374.490448	0.795789	city	10	0	0.000000	0.831762	0	0	0	1	OmissionError	0.219917	0.889705	0
375.286224	0.795760	city	2	1	0.946949	0.946949	0	1	0	0	CorrectCommission	0.852892	0.841337	0
376.082031	0.795824	city	6	1	0.750763	0.750763	0	1	0	0	CorrectCommission	0.225191	0.797882	0
376.877838	0.795819	city	8	1	0.698473	0.698473	0	1	0	0	CorrectCommission	0.512540	0.762078	0
377.673798	0.796052	city	2	1	0.749035	0.749035	0	1	0	0	CorrectCommission	0.234689	0.735746	1
378.469727	0.795812	city	4	1	0.761475	0.761475	0	1	0	0	CorrectCommission	0.166331	0.719744	1
379.265350	0.795451	city	5	1	0.997176	0.997176	0	1	0	0	CorrectCommission	1.128903	0.713897	1
380.060974	0.795836	city	3	1	0.714326	0.714326	0	1	0	0	CorrectCommission	0.425425	0.717024	1
380.856842	0.795847	city	8	1	0.704021	0.704021	0	1	0	0	CorrectCommission	0.482053	0.727215	1
381.652649	0.795802	city	5	1	0.801801	0.801801	0	1	0	0	CorrectCommission	0.055274	0.742094	0
382.448456	0.795813	city	1	0	0.000000	0.571711	0	0	0	1	OmissionError	1.209128	0.759105	0
383.244415	0.796081	city	10	1	0.456269	0.456269	0	1	0	0	CorrectCommission	1.843506	0.775774	0
384.040192	0.795480	city	6	1	0.897998	0.897998	0	1	0	0	CorrectCommission	0.583896	0.789995	0
384.835968	0.796098	city	5	1	0.713693	0.713693	0	1	0	0	CorrectCommission	0.428904	0.800284	0
385.631775	0.795484	city	6	1	1.145720	1.145720	0	1	0	0	CorrectCommission	1.945190	0.805710	0
386.427582	0.796110	city	3	0	0.000000	0.977334	0	0	0	1	OmissionError	1.019867	0.805982	0
387.223541	0.795824	city	10	1	0.748072	0.748072	0	1	0	0	CorrectCommission	0.239980	0.801379	0
388.019226	0.795546	city	1	1	0.997474	0.997474	0	1	0	0	CorrectCommission	1.130541	0.792528	0
388.814880	0.795792	city	8	1	0.752431	0.752431	0	1	0	0	CorrectCommission	0.216028	0.780283	0
389.610687	0.795790	city	1	1	0.698376	0.698376	0	1	0	0	CorrectCommission	0.513071	0.765638	0
390.406433	0.795740	city	6	1	1.050953	1.050953	0	1	0	0	CorrectCommission	1.424423	0.749476	0
391.202393	0.796126	city	7	0	0.000000	0.908374	0	0	0	1	OmissionError	0.640914	0.732534	1
391.998199	0.795497	city	6	1	0.698164	0.698164	0	1	0	0	CorrectCommission	0.514236	0.715501	1
392.793854	0.795856	city	9	1	0.847852	0.847852	0	1	0	0	CorrectCommission	0.308335	0.698885	1
393.589691	0.795806	city	5	1	0.952284	0.952284	0	1	0	0	CorrectCommission	0.882210	0.683154	1
394.385437	0.795699	city	4	1	0.997460	0.997460	0	1	0	0	CorrectCommission	1.130465	0.668673	1
395.181244	0.795869	city	7	0	0.000000	0.844679	0	0	0	1	OmissionError	0.290895	0.655921	1
395.977081	0.795819	city	2	1	0.660643	0.660643	0	1	0	0	CorrectCommission	0.720427	0.645402	1
396.772858	0.795718	mountain	9	0	0.000000	0.612055	1	0	0	0	CorrectOmission	0.987429	0.637571	1
397.568634	0.795879	city	3	1	0.648907	0.648907	0	1	0	0	CorrectCommission	0.784916	0.632876	1
398.364502	0.795819	city	8	1	0.721192	0.721192	0	1	0	0	CorrectCommission	0.387694	0.631727	1
399.160309	0.795783	city	6	1	0.797818	0.797818	0	1	0	0	CorrectCommission	0.033382	0.634369	1
399.956085	0.795802	city	7	1	0.797832	0.797832	0	1	0	0	CorrectCommission	0.033460	0.640848	1
400.751862	0.795773	city	10	1	0.798073	0.798073	0	1	0	0	CorrectCommission	0.034783	0.650989	1
401.547699	0.795850	city	8	1	1.106261	1.106261	0	1	0	0	CorrectCommission	1.728352	0.664408	1
402.343628	0.796043	city	1	1	0.916975	0.916975	0	1	0	0	CorrectCommission	0.688178	0.680537	1
403.139435	0.795563	city	9	1	0.811105	0.811105	0	1	0	0	CorrectCommission	0.106398	0.698752	1
403.935242	0.796064	city	2	1	1.146291	1.146291	0	1	0	0	CorrectCommission	1.948328	0.718443	1
404.731018	0.795461	city	10	0	0.000000	0.887096	0	0	0	1	OmissionError	0.523988	0.738919	1
405.526794	0.796114	city	3	1	0.599045	0.599045	0	1	0	0	CorrectCommission	1.058918	0.759659	0
406.322601	0.795489	city	8	1	0.847666	0.847666	0	1	0	0	CorrectCommission	0.307313	0.780121	0
407.118225	0.795783	city	6	1	0.713087	0.713087	0	1	0	0	CorrectCommission	0.432235	0.799905	0
407.914093	0.795907	city	8	1	0.749187	0.749187	0	1	0	0	CorrectCommission	0.233852	0.818622	0
408.709869	0.795695	city	4	1	0.947276	0.947276	0	1	0	0	CorrectCommission	0.854691	0.836031	0
409.505646	0.795848	city	2	1	0.804698	0.804698	0	1	0	0	CorrectCommission	0.071189	0.852037	0
410.301453	0.795772	city	8	1	1.346017	1.346017	0	1	0	0	CorrectCommission	3.045866	0.866915	0
411.097260	0.795789	mountain	5	0	0.000000	1.064828	1	0	0	0	CorrectOmission	1.500669	0.881218	0
411.893066	0.795862	city	6	1	0.649063	0.649063	0	1	0	0	CorrectCommission	0.784061	0.896056	0
412.688904	0.795832	city	2	0	0.000000	0.786650	0	0	0	1	OmissionError	0.027985	0.912910	0
413.484741	0.795795	city	6	1	0.997188	0.997188	0	1	0	0	CorrectCommission	1.128971	0.933494	0
414.280518	0.795785	city	7	1	0.800274	0.800274	0	1	0	0	CorrectCommission	0.046879	0.959486	0
415.076324	0.795828	city	10	1	0.907220	0.907220	0	1	0	0	CorrectCommission	0.634573	0.992414	0
415.872223	0.795966	city	4	1	1.145931	1.145931	0	1	0	0	CorrectCommission	1.946350	1.033232	0
416.667969	0.795541	city	7	0	0.000000	0.906339	0	0	0	1	OmissionError	0.629733	1.082066	0
417.463684	0.795900	city	2	1	0.615067	0.615067	0	1	0	0	CorrectCommission	0.970877	1.138103	0
418.259644	0.795963	city	5	1	0.698739	0.698739	0	1	0	0	CorrectCommission	0.511079	1.199373	0
419.055420	0.795620	city	7	1	1.049515	1.049515	0	1	0	0	CorrectCommission	1.416520	1.262807	0
419.851288	0.796086	mountain	9	0	0.000000	0.780645	1	0	0	0	CorrectOmission	0.060983	1.324383	0
420.647064	0.795508	mountain	7	1	0.548919	0.548919	0	0	1	0	CommissionError	1.334375	1.379600	0
421.442719	0.795788	city	7	1	1.011125	1.011125	0	1	0	0	CorrectCommission	1.205557	1.423718	0
422.238525	0.795817	city	10	1	1.359194	1.359194	0	1	0	0	CorrectCommission	3.118276	1.452521	0
423.034332	0.795817	mountain	8	0	0.000000	1.427141	1	0	0	0	CorrectOmission	3.491664	1.462672	0
423.830109	0.795749	city	5	0	0.000000	1.283588	0	0	0	1	OmissionError	2.702806	1.452298	0
424.625916	0.795858	city	10	1	0.997155	0.997155	0	1	0	0	CorrectCommission	1.128789	1.421206	0
425.421875	0.796054	mountain	9	0	0.000000	0.636463	1	0	0	0	CorrectOmission	0.853298	1.370939	0
426.217682	0.795520	city	4	0	0.000000	0.392549	0	0	0	1	OmissionError	2.193665	1.304489	0
427.013336	0.795803	city	1	1	0.456448	0.456448	0	1	0	0	CorrectCommission	1.842524	1.226049	0
427.809143	0.795799	city	8	1	1.019197	1.019197	0	1	0	0	CorrectCommission	1.249917	1.140465	0
428.604889	0.795745	city	7	1	0.852082	0.852082	0	1	0	0	CorrectCommission	0.331577	1.052775	0
429.400726	0.795899	mountain	4	0	0.000000	0.788815	1	0	0	0	CorrectOmission	0.016089	0.967683	0
430.196564	0.795783	city	1	1	0.810264	0.810264	0	1	0	0	CorrectCommission	0.101776	0.889125	0
430.992310	0.795728	city	4	1	0.897294	0.897294	0	1	0	0	CorrectCommission	0.580027	0.819909	0
431.788269	0.796143	city	3	1	0.699303	0.699303	0	1	0	0	CorrectCommission	0.507979	0.761685	0
432.584106	0.795550	city	5	1	0.757769	0.757769	0	1	0	0	CorrectCommission	0.186692	0.715003	1
433.379761	0.795758	city	6	0	0.000000	0.626979	0	0	0	1	OmissionError	0.905416	0.679411	1
434.175537	0.795807	city	9	1	0.510444	0.510444	0	1	0	0	CorrectCommission	1.545804	0.653707	1
434.971344	0.795799	city	2	1	0.611676	0.611676	0	1	0	0	CorrectCommission	0.989508	0.636282	1
435.767120	0.795749	city	7	1	0.798580	0.798580	0	1	0	0	CorrectCommission	0.037572	0.625357	1
436.562927	0.795894	city	8	1	0.847692	0.847692	0	1	0	0	CorrectCommission	0.307452	0.619193	1
437.358795	0.795795	city	6	1	0.798146	0.798146	0	1	0	0	CorrectCommission	0.035185	0.616227	1
438.154724	0.796074	city	7	1	0.699102	0.699102	0	1	0	0	CorrectCommission	0.509084	0.615190	1
438.950531	0.795540	city	4	1	0.951303	0.951303	0	1	0	0	CorrectCommission	0.876823	0.615184	1
439.746155	0.795735	city	6	1	0.960320	0.960320	0	1	0	0	CorrectCommission	0.926373	0.615690	1
440.541901	0.795776	city	3	1	0.966611	0.966611	0	1	0	0	CorrectCommission	0.960939	0.616536	1
441.337738	0.795875	mountain	9	0	0.000000	0.741848	1	0	0	0	CorrectOmission	0.274184	0.617953	1
442.133545	0.795717	city	10	1	0.549355	0.549355	0	1	0	0	CorrectCommission	1.331977	0.620463	1
442.929352	0.795897	city	7	1	0.652454	0.652454	0	1	0	0	CorrectCommission	0.765423	0.624671	1
443.725159	0.795762	city	3	1	0.755587	0.755587	0	1	0	0	CorrectCommission	0.198683	0.631227	1
444.520966	0.795804	city	9	1	0.748332	0.748332	0	1	0	0	CorrectCommission	0.238550	0.640678	1
445.316772	0.795804	city	7	1	0.699571	0.699571	0	1	0	0	CorrectCommission	0.506506	0.653307	1
446.112579	0.795842	city	5	1	0.800193	0.800193	0	1	0	0	CorrectCommission	0.046433	0.669081	1
446.908508	0.796037	city	9	1	0.797725	0.797725	0	1	0	0	CorrectCommission	0.032873	0.687684	1
447.704285	0.795469	city	5	1	1.000644	1.000644	0	1	0	0	CorrectCommission	1.147960	0.708526	1
448.499908	0.795805	city	6	1	1.058896	1.058896	0	1	0	0	CorrectCommission	1.468070	0.730857	1
449.295776	0.795898	city	9	0	0.000000	0.723826	0	0	0	1	OmissionError	0.373221	0.753952	0
450.091736	0.796061	city	5	1	0.451572	0.451572	0	1	0	0	CorrectCommission	1.869321	0.777339	0
450.887543	0.795515	mountain	6	1	0.698273	0.698273	0	0	1	0	CommissionError	0.513636	0.800648	0
451.683167	0.795771	city	5	1	0.602716	0.602716	0	1	0	0	CorrectCommission	1.038749	0.823863	0
452.478973	0.795855	city	2	1	0.847698	0.847698	0	1	0	0	CorrectCommission	0.307485	0.847091	0
453.274780	0.795703	city	5	1	0.699097	0.699097	0	1	0	0	CorrectCommission	0.509109	0.870594	0
454.070709	0.796164	city	3	1	0.947115	0.947115	0	1	0	0	CorrectCommission	0.853807	0.894540	0
454.866547	0.795501	city	4	1	1.102178	1.102178	0	1	0	0	CorrectCommission	1.705915	0.918904	0
455.662201	0.795808	city	8	0	0.000000	0.810609	0	0	0	1	OmissionError	0.103673	0.943308	0
456.457977	0.795794	city	10	1	0.516719	0.516719	0	1	0	0	CorrectCommission	1.511322	0.967144	0
457.253784	0.795809	city	4	1	0.664819	0.664819	0	1	0	0	CorrectCommission	0.697478	0.989385	0
458.049622	0.795839	city	1	1	0.812282	0.812282	0	1	0	0	CorrectCommission	0.112868	1.008909	0
458.845428	0.795774	city	10	0	0.000000	0.662027	0	0	0	1	OmissionError	0.712821	1.024613	0
459.641357	0.796094	city	5	1	0.449970	0.449970	0	1	0	0	CorrectCommission	1.878124	1.035523	0
460.437164	0.795540	city	6	0	0.000000	0.412029	0	0	0	1	OmissionError	2.086617	1.041046	0
461.232849	0.795785	city	1	1	0.462043	0.462043	0	1	0	0	CorrectCommission	1.811781	1.041131	0
462.028778	0.796073	mountain	5	0	0.000000	0.513849	1	0	0	0	CorrectOmission	1.527094	1.036268	0
462.824554	0.795486	city	7	1	0.648520	0.648520	0	1	0	0	CorrectCommission	0.787044	1.027407	0
463.620209	0.795826	city	10	1	0.947129	0.947129	0	1	0	0	CorrectCommission	0.853884	1.015814	0
464.416168	0.796090	mountain	9	0	0.000000	0.789102	1	0	0	0	CorrectOmission	0.014512	1.002766	0
465.211945	0.795501	city	8	1	0.610602	0.610602	0	1	0	0	CorrectCommission	0.995412	0.989367	0
466.007599	0.795795	city	1	1	0.847792	0.847792	0	1	0	0	CorrectCommission	0.308003	0.976266	0
466.803436	0.795850	city	8	1	0.920926	0.920926	0	1	0	0	CorrectCommission	0.709892	0.963712	0
467.599213	0.795754	city	5	0	0.000000	0.657129	0	0	0	1	OmissionError	0.739732	0.951435	0
468.394989	0.795758	city	10	1	0.563431	0.563431	0	1	0	0	CorrectCommission	1.254627	0.938894	0
469.190796	0.795844	city	6	1	1.146860	1.146860	0	1	0	0	CorrectCommission	1.951451	0.925330	0
469.986603	0.795800	mountain	7	0	0.000000	1.152454	1	0	0	0	CorrectOmission	1.982195	0.910071	0
470.782562	0.796114	city	5	0	0.000000	0.884768	0	0	0	1	OmissionError	0.511193	0.892736	0
471.578522	0.795789	city	10	1	0.648353	0.648353	0	1	0	0	CorrectCommission	0.787964	0.873484	0
472.374176	0.795519	city	7	1	0.747762	0.747762	0	1	0	0	CorrectCommission	0.241687	0.853014	0
473.169830	0.795828	city	5	1	0.698314	0.698314	0	1	0	0	CorrectCommission	0.513416	0.832879	0
473.965668	0.795804	city	7	1	0.947819	0.947819	0	1	0	0	CorrectCommission	0.857676	0.815483	0
474.761444	0.795792	mountain	3	1	0.996793	0.996793	0	0	1	0	CommissionError	1.126801	0.804336	0
475.557220	0.795758	city	5	0	0.000000	0.978404	0	0	0	1	OmissionError	1.025746	0.804312	0
476.352997	0.795808	city	2	0	0.000000	0.907441	0	0	0	1	OmissionError	0.635790	0.821820	0
477.148804	0.795761	city	9	1	0.798696	0.798696	0	1	0	0	CorrectCommission	0.038210	0.864851	0
477.944611	0.795882	city	10	0	0.000000	0.666959	0	0	0	1	OmissionError	0.685716	0.942964	0
478.740601	0.796075	city	8	1	0.603125	0.603125	0	1	0	0	CorrectCommission	1.036501	1.066932	0
479.536377	0.795500	city	5	1	0.698087	0.698087	0	1	0	0	CorrectCommission	0.514660	1.248165	0
480.332062	0.795842	city	3	1	0.658063	0.658063	0	1	0	0	CorrectCommission	0.734603	1.497888	0
481.127869	0.795785	city	4	1	0.947826	0.947826	0	1	0	0	CorrectCommission	0.857715	1.825910	0
481.923676	0.795822	city	9	1	0.798044	0.798044	0	1	0	0	CorrectCommission	0.034624	2.239382	0
482.719482	0.795775	city	5	1	0.668871	0.668871	0	1	0	0	CorrectCommission	0.675212	2.741492	0
483.515259	0.795782	city	3	1	0.997070	0.997070	0	1	0	0	CorrectCommission	1.128321	3.330360	0
484.311066	0.795838	city	6	0	0.000000	0.769951	0	0	0	1	OmissionError	0.119749	3.998392	0
485.106842	0.795748	city	8	1	0.648898	0.648898	0	1	0	0	CorrectCommission	0.784966	4.732262	0
485.902649	0.795854	city	4	1	1.295294	1.295294	0	1	0	0	CorrectCommission	2.767132	5.513394	0
486.698456	0.795755	mountain	4	0	0.000000	1.941690	1	0	0	0	CorrectOmission	6.319229	6.319229	0
