onset	duration	trial_type	image_type	Press	ReactionTime	ReactionTime_Interpolated	CorrectOmission	CorrectCommission	CommissionError	OmissionError	response_type	nonsmoothVarianceTimeCourse	VarianceTimeCourse	In_the_Zone
8.421676	0.795803	city	7	1	0.797997	0.797997	0	1	0	0	CorrectCommission	0.391921	0.391921	1
9.217473	0.795792	city	6	1	0.699260	0.699260	0	1	0	0	CorrectCommission	0.087799	0.486687	1
10.013430	0.796123	mountain	7	0	0.000000	0.607979	1	0	0	0	CorrectOmission	0.531298	0.579324	1
10.809226	0.795470	city	6	1	0.561937	0.561937	0	1	0	0	CorrectCommission	0.754996	0.667784	1
11.604872	0.795823	city	9	1	0.598920	0.598920	0	1	0	0	CorrectCommission	0.575313	0.750204	1
12.400829	0.796092	city	8	1	0.598902	0.598902	0	1	0	0	CorrectCommission	0.575399	0.825032	0
13.196636	0.795521	city	10	1	0.449414	0.449414	0	1	0	0	CorrectCommission	1.301700	0.891140	0
13.992303	0.795811	city	7	1	0.403676	0.403676	0	1	0	0	CorrectCommission	1.523921	0.947980	0
14.788247	0.796079	city	1	1	0.399872	0.399872	0	1	0	0	CorrectCommission	1.542401	0.995693	0
15.584039	0.795505	city	5	1	0.319967	0.319967	0	1	0	0	CorrectCommission	1.930626	1.035082	0
16.379690	0.795797	mountain	3	1	0.300955	0.300955	0	0	1	0	CommissionError	2.022996	1.067606	0
17.175461	0.795745	city	4	1	0.748299	0.748299	0	1	0	0	CorrectCommission	0.150461	1.095158	0
17.971245	0.795820	city	1	1	0.560592	0.560592	0	1	0	0	CorrectCommission	0.761531	1.119941	0
18.767075	0.795841	city	4	1	0.698403	0.698403	0	1	0	0	CorrectCommission	0.091965	1.143956	0
19.562868	0.795746	city	8	1	0.464100	0.464100	0	1	0	0	CorrectCommission	1.230346	1.168873	0
20.358807	0.796131	city	1	1	0.399902	0.399902	0	1	0	0	CorrectCommission	1.542255	1.195672	0
21.154785	0.795826	mountain	10	1	0.405289	0.405289	0	0	1	0	CommissionError	1.516080	1.224564	0
21.950432	0.795465	mountain	3	0	0.000000	0.627694	1	0	0	0	CorrectOmission	0.435510	1.254948	0
22.746094	0.795861	city	3	1	0.898166	0.898166	0	1	0	0	CorrectCommission	0.878599	1.285503	0
23.541903	0.795757	city	1	1	1.047755	1.047755	0	1	0	0	CorrectCommission	1.605389	1.314280	0
24.337681	0.795802	city	10	1	0.947468	0.947468	0	1	0	0	CorrectCommission	1.118141	1.338984	0
25.133480	0.795795	city	6	1	1.103582	1.103582	0	1	0	0	CorrectCommission	1.876630	1.357310	0
25.929268	0.795779	city	5	1	1.157347	1.157347	0	1	0	0	CorrectCommission	2.137855	1.367172	0
26.725086	0.795860	city	2	1	1.196130	1.196130	0	1	0	0	CorrectCommission	2.326282	1.366987	0
27.520914	0.795797	city	9	1	1.146507	1.146507	0	1	0	0	CorrectCommission	2.085185	1.355778	0
28.316711	0.795797	city	10	0	0.000000	0.823064	0	0	0	1	OmissionError	0.513712	1.333319	0
29.112490	0.795756	city	5	1	0.499622	0.499622	0	1	0	0	CorrectCommission	1.057758	1.300120	0
29.908447	0.796161	city	9	1	0.450000	0.450000	0	1	0	0	CorrectCommission	1.298849	1.257258	0
30.704256	0.795458	city	4	1	0.499347	0.499347	0	1	0	0	CorrectCommission	1.059096	1.206342	0
31.500053	0.796136	city	3	1	0.413348	0.413348	0	1	0	0	CorrectCommission	1.476925	1.149410	0
32.296021	0.795796	city	8	1	0.356865	0.356865	0	1	0	0	CorrectCommission	1.751354	1.088744	0
33.091812	0.795787	mountain	10	1	0.450186	0.450186	0	0	1	0	CommissionError	1.297946	1.026783	0
33.887478	0.795548	city	7	1	0.608624	0.608624	0	1	0	0	CorrectCommission	0.528162	0.966016	0
34.683140	0.795778	city	9	1	0.549086	0.549086	0	1	0	0	CorrectCommission	0.817434	0.908896	0
35.479080	0.796102	city	5	1	0.550145	0.550145	0	1	0	0	CorrectCommission	0.812288	0.857592	0
36.274879	0.795497	mountain	8	0	0.000000	0.703899	1	0	0	0	CorrectOmission	0.065264	0.813990	1
37.070541	0.795828	city	6	1	0.854836	0.854836	0	1	0	0	CorrectCommission	0.668077	0.779566	1
37.866493	0.796075	city	5	1	0.847446	0.847446	0	1	0	0	CorrectCommission	0.632172	0.755255	1
38.662273	0.795481	city	10	1	0.797873	0.797873	0	1	0	0	CorrectCommission	0.391319	0.741486	1
39.457928	0.795830	city	2	1	0.658583	0.658583	0	1	0	0	CorrectCommission	0.285431	0.738206	1
40.253765	0.795844	city	6	1	0.649262	0.649262	0	1	0	0	CorrectCommission	0.330722	0.744868	1
41.049576	0.795780	city	1	1	0.466409	0.466409	0	1	0	0	CorrectCommission	1.219126	0.760507	1
41.845337	0.795741	city	3	1	0.454297	0.454297	0	1	0	0	CorrectCommission	1.277972	0.783840	1
42.641098	0.795784	city	5	1	0.797911	0.797911	0	1	0	0	CorrectCommission	0.391503	0.813394	1
43.437069	0.796154	city	9	1	0.947351	0.947351	0	1	0	0	CorrectCommission	1.117570	0.847561	0
44.232918	0.795546	city	4	1	0.797716	0.797716	0	1	0	0	CorrectCommission	0.390558	0.884604	0
45.028545	0.795705	city	1	1	0.648845	0.648845	0	1	0	0	CorrectCommission	0.332745	0.922836	0
45.824341	0.795889	city	8	1	0.514772	0.514772	0	1	0	0	CorrectCommission	0.984150	0.960605	0
46.620163	0.795754	city	3	1	0.399928	0.399928	0	1	0	0	CorrectCommission	1.542129	0.996379	0
47.415951	0.795822	city	10	1	0.449646	0.449646	0	1	0	0	CorrectCommission	1.300570	1.028869	0
48.211746	0.795767	city	3	1	0.449742	0.449742	0	1	0	0	CorrectCommission	1.300104	1.057160	0
49.007538	0.795817	city	6	1	0.404657	0.404657	0	1	0	0	CorrectCommission	1.519152	1.080740	0
49.803368	0.795842	city	9	1	0.500052	0.500052	0	1	0	0	CorrectCommission	1.055667	1.099545	0
50.599316	0.796054	city	4	1	0.598862	0.598862	0	1	0	0	CorrectCommission	0.575594	1.114010	0
51.395103	0.795523	city	1	1	0.516818	0.516818	0	1	0	0	CorrectCommission	0.974210	1.125012	0
52.190918	0.796101	city	3	1	0.400207	0.400207	0	1	0	0	CorrectCommission	1.540774	1.133766	0
52.986698	0.795463	city	10	1	0.349897	0.349897	0	1	0	0	CorrectCommission	1.785211	1.141671	0
53.782356	0.795853	city	4	1	1.046733	1.046733	0	1	0	0	CorrectCommission	1.600428	1.150203	0
54.578323	0.796082	city	3	1	0.953893	0.953893	0	1	0	0	CorrectCommission	1.149355	1.160635	0
55.374126	0.795521	mountain	4	0	0.000000	0.794147	1	0	0	0	CorrectOmission	0.373218	1.173866	0
56.169781	0.795792	city	4	1	0.698520	0.698520	0	1	0	0	CorrectCommission	0.091396	1.190232	0
56.965595	0.795836	city	2	1	0.798033	0.798033	0	1	0	0	CorrectCommission	0.392099	1.209410	0
57.761391	0.795753	city	10	1	1.050097	1.050097	0	1	0	0	CorrectCommission	1.616772	1.230443	0
58.557194	0.795856	city	1	1	1.006180	1.006180	0	1	0	0	CorrectCommission	1.403398	1.251812	0
59.353008	0.795773	city	4	1	1.105825	1.105825	0	1	0	0	CorrectCommission	1.887527	1.271734	0
60.148933	0.796073	city	2	1	1.198934	1.198934	0	1	0	0	CorrectCommission	2.339908	1.288403	0
60.944706	0.795476	city	4	0	0.000000	0.881384	0	0	0	1	OmissionError	0.797063	1.300234	0
61.740341	0.795790	city	1	1	0.499633	0.499633	0	1	0	0	CorrectCommission	1.057704	1.306190	0
62.536133	0.795791	city	8	1	0.400143	0.400143	0	1	0	0	CorrectCommission	1.541087	1.305791	0
63.331947	0.795841	city	3	1	0.351144	0.351144	0	1	0	0	CorrectCommission	1.779149	1.299204	0
64.127800	0.795862	city	4	1	0.300373	0.300373	0	1	0	0	CorrectCommission	2.025828	1.287208	0
64.923599	0.795737	city	6	1	1.047179	1.047179	0	1	0	0	CorrectCommission	1.602595	1.271027	0
65.719391	0.795850	city	10	1	0.916065	0.916065	0	1	0	0	CorrectCommission	0.965565	1.252125	0
66.515205	0.795787	mountain	1	0	0.000000	0.689600	1	0	0	0	CorrectOmission	0.134732	1.231916	0
67.310982	0.795758	city	9	1	0.517438	0.517438	0	1	0	0	CorrectCommission	0.971198	1.211564	0
68.106934	0.796144	city	10	1	0.549229	0.549229	0	1	0	0	CorrectCommission	0.816740	1.191734	0
68.902901	0.795788	city	9	1	0.399817	0.399817	0	1	0	0	CorrectCommission	1.542666	1.172605	0
69.698700	0.795818	city	7	1	0.456290	0.456290	0	1	0	0	CorrectCommission	1.268292	1.153782	0
70.494370	0.795519	mountain	7	1	0.413189	0.413189	0	0	1	0	CommissionError	1.477702	1.134515	0
71.290031	0.795810	city	5	1	0.549397	0.549397	0	1	0	0	CorrectCommission	0.815920	1.113801	0
72.085960	0.796048	city	2	1	0.518278	0.518278	0	1	0	0	CorrectCommission	0.967118	1.090697	0
72.881744	0.795506	city	8	1	0.409357	0.409357	0	1	0	0	CorrectCommission	1.496317	1.064490	0
73.677406	0.795819	city	2	1	0.407321	0.407321	0	1	0	0	CorrectCommission	1.506211	1.034880	0
74.473190	0.795750	city	1	1	0.505971	0.505971	0	1	0	0	CorrectCommission	1.026909	1.002100	0
75.269135	0.796142	city	2	1	0.499456	0.499456	0	1	0	0	CorrectCommission	1.058563	0.966933	0
76.064934	0.795457	city	1	1	0.465712	0.465712	0	1	0	0	CorrectCommission	1.222514	0.930626	0
76.860596	0.795859	city	9	1	0.551234	0.551234	0	1	0	0	CorrectCommission	0.806997	0.894731	0
77.656418	0.795788	city	10	1	0.602559	0.602559	0	1	0	0	CorrectCommission	0.557630	0.860872	0
78.452209	0.795799	city	3	1	0.648549	0.648549	0	1	0	0	CorrectCommission	0.334186	0.830531	0
79.248001	0.795781	mountain	3	1	0.549470	0.549470	0	0	1	0	CommissionError	0.815566	0.804763	1
80.043831	0.795879	city	9	1	0.549513	0.549513	0	1	0	0	CorrectCommission	0.815359	0.783981	1
80.839630	0.795721	city	2	1	0.603452	0.603452	0	1	0	0	CorrectCommission	0.553292	0.767886	1
81.635422	0.795863	city	10	1	0.698637	0.698637	0	1	0	0	CorrectCommission	0.090828	0.755478	1
82.431244	0.795784	city	4	1	0.648825	0.648825	0	1	0	0	CorrectCommission	0.332841	0.745164	1
83.227043	0.795821	city	7	1	0.608599	0.608599	0	1	0	0	CorrectCommission	0.528283	0.734922	1
84.022995	0.796069	city	5	1	0.413915	0.413915	0	1	0	0	CorrectCommission	1.474175	0.722648	1
84.818787	0.795523	city	2	1	0.469288	0.469288	0	1	0	0	CorrectCommission	1.205140	0.706376	1
85.614441	0.795783	mountain	10	1	0.400095	0.400095	0	0	1	0	CommissionError	1.541318	0.684678	1
86.410255	0.795839	city	10	1	0.599067	0.599067	0	1	0	0	CorrectCommission	0.574598	0.656774	1
87.206055	0.795760	city	4	1	0.558422	0.558422	0	1	0	0	CorrectCommission	0.772072	0.622739	1
88.001839	0.795822	mountain	9	0	0.000000	0.533152	1	0	0	0	CorrectOmission	0.894851	0.583407	1
88.797615	0.795729	city	7	1	0.565668	0.565668	0	1	0	0	CorrectCommission	0.736869	0.540289	1
89.593407	0.795850	city	1	1	0.698383	0.698383	0	1	0	0	CorrectCommission	0.092064	0.495363	1
90.389252	0.795832	city	9	1	0.748388	0.748388	0	1	0	0	CorrectCommission	0.150891	0.450821	1
91.185066	0.795803	city	4	1	0.698741	0.698741	0	1	0	0	CorrectCommission	0.090323	0.408772	1
91.981003	0.796075	city	7	1	0.648854	0.648854	0	1	0	0	CorrectCommission	0.332702	0.371056	1
92.776817	0.795549	city	8	1	0.698357	0.698357	0	1	0	0	CorrectCommission	0.092189	0.339020	1
93.572624	0.796068	city	9	1	0.702898	0.702898	0	1	0	0	CorrectCommission	0.070123	0.313483	1
94.368416	0.795515	city	4	1	0.747990	0.747990	0	1	0	0	CorrectCommission	0.148960	0.294726	1
95.164078	0.795813	city	2	1	0.662915	0.662915	0	1	0	0	CorrectCommission	0.264386	0.282546	1
95.959839	0.795708	mountain	6	0	0.000000	0.724014	1	0	0	0	CorrectOmission	0.032467	0.276375	1
96.755608	0.795829	mountain	9	0	0.000000	0.822756	1	0	0	0	CorrectOmission	0.512215	0.275427	1
97.551437	0.795827	city	8	1	0.850611	0.850611	0	1	0	0	CorrectCommission	0.647551	0.278807	1
98.347252	0.795799	city	2	1	0.699048	0.699048	0	1	0	0	CorrectCommission	0.088829	0.285688	1
99.143196	0.796093	city	1	1	0.698294	0.698294	0	1	0	0	CorrectCommission	0.092492	0.295370	1
99.938995	0.795505	city	9	1	0.752549	0.752549	0	1	0	0	CorrectCommission	0.171111	0.307257	1
100.734627	0.795751	city	10	1	0.798012	0.798012	0	1	0	0	CorrectCommission	0.391995	0.320885	1
101.530426	0.795844	city	1	1	0.801229	0.801229	0	1	0	0	CorrectCommission	0.407624	0.335858	1
102.326225	0.795761	city	5	1	0.764619	0.764619	0	1	0	0	CorrectCommission	0.229754	0.351810	1
103.122040	0.795874	city	9	1	0.857120	0.857120	0	1	0	0	CorrectCommission	0.679176	0.368345	1
103.918022	0.796088	city	2	1	0.748736	0.748736	0	1	0	0	CorrectCommission	0.152583	0.384993	1
104.713791	0.795453	city	5	1	0.698974	0.698974	0	1	0	0	CorrectCommission	0.089188	0.401221	1
105.509590	0.796135	city	7	1	0.797766	0.797766	0	1	0	0	CorrectCommission	0.390800	0.416382	1
106.305412	0.795523	city	2	1	0.847637	0.847637	0	1	0	0	CorrectCommission	0.633100	0.429784	1
107.101227	0.796098	city	5	1	0.897543	0.897543	0	1	0	0	CorrectCommission	0.875574	0.440769	1
107.897026	0.795501	city	9	1	0.748447	0.748447	0	1	0	0	CorrectCommission	0.151178	0.448776	1
108.692688	0.795822	city	2	1	0.663146	0.663146	0	1	0	0	CorrectCommission	0.263265	0.453472	1
109.488495	0.795793	city	4	1	0.899084	0.899084	0	1	0	0	CorrectCommission	0.883059	0.454741	1
110.284279	0.795781	mountain	7	0	0.000000	0.922408	1	0	0	0	CorrectOmission	0.996385	0.452737	1
111.080215	0.796092	city	3	1	0.812458	0.812458	0	1	0	0	CorrectCommission	0.462183	0.447908	1
111.876175	0.795816	city	10	1	0.648572	0.648572	0	1	0	0	CorrectCommission	0.334074	0.440956	1
112.671814	0.795470	city	3	1	0.697997	0.697997	0	1	0	0	CorrectCommission	0.093938	0.432732	1
113.467476	0.795849	mountain	7	1	0.553269	0.553269	0	0	1	0	CommissionError	0.797110	0.424162	1
114.263298	0.795800	city	10	1	0.652424	0.652424	0	1	0	0	CorrectCommission	0.315355	0.416110	1
115.059067	0.795735	mountain	5	0	0.000000	0.707146	1	0	0	0	CorrectOmission	0.049484	0.409309	1
115.855011	0.796156	city	4	1	0.698675	0.698675	0	1	0	0	CorrectCommission	0.090644	0.404346	1
116.650848	0.795517	city	1	1	0.608249	0.608249	0	1	0	0	CorrectCommission	0.529983	0.401568	1
117.446472	0.795739	city	6	1	0.748880	0.748880	0	1	0	0	CorrectCommission	0.153280	0.401162	1
118.242416	0.796137	city	5	1	0.608603	0.608603	0	1	0	0	CorrectCommission	0.528265	0.403211	1
119.038254	0.795537	city	9	1	0.598524	0.598524	0	1	0	0	CorrectCommission	0.577234	0.407740	1
119.833916	0.795790	city	8	1	0.564766	0.564766	0	1	0	0	CorrectCommission	0.741253	0.414841	1
120.629860	0.796101	city	9	1	0.648581	0.648581	0	1	0	0	CorrectCommission	0.334028	0.424735	1
121.425667	0.795517	city	1	1	0.649668	0.649668	0	1	0	0	CorrectCommission	0.328748	0.437831	1
122.221329	0.795802	city	8	1	0.663043	0.663043	0	1	0	0	CorrectCommission	0.263766	0.454673	1
123.017090	0.795725	city	6	1	0.698306	0.698306	0	1	0	0	CorrectCommission	0.092433	0.475881	1
123.812881	0.795855	city	8	1	0.599252	0.599252	0	1	0	0	CorrectCommission	0.573696	0.502076	1
124.608696	0.795768	city	5	1	0.556585	0.556585	0	1	0	0	CorrectCommission	0.780999	0.533731	1
125.404640	0.796128	city	7	1	0.599839	0.599839	0	1	0	0	CorrectCommission	0.570845	0.571141	1
126.200455	0.795496	city	2	1	0.663767	0.663767	0	1	0	0	CorrectCommission	0.260246	0.614243	1
126.996101	0.795800	city	4	1	0.748754	0.748754	0	1	0	0	CorrectCommission	0.152672	0.662539	1
127.791924	0.795842	city	6	1	0.607771	0.607771	0	1	0	0	CorrectCommission	0.532307	0.715038	1
128.587723	0.795759	city	4	1	0.599544	0.599544	0	1	0	0	CorrectCommission	0.572279	0.770276	1
129.383499	0.795779	city	10	1	0.996970	0.996970	0	1	0	0	CorrectCommission	1.358650	0.826425	0
130.179443	0.796133	mountain	5	0	0.000000	0.778568	1	0	0	0	CorrectOmission	0.297525	0.881378	0
130.975418	0.795807	city	8	1	0.450012	0.450012	0	1	0	0	CorrectCommission	1.298794	0.932989	0
131.771042	0.795447	city	4	1	0.516975	0.516975	0	1	0	0	CorrectCommission	0.973449	0.979154	0
132.566849	0.796169	city	7	1	0.308893	0.308893	0	1	0	0	CorrectCommission	1.984431	1.018094	0
133.362823	0.795785	city	1	1	0.416208	0.416208	0	1	0	0	CorrectCommission	1.463033	1.048390	0
134.158630	0.795806	city	3	1	0.506830	0.506830	0	1	0	0	CorrectCommission	1.022739	1.069173	0
134.954285	0.795512	city	10	1	0.599311	0.599311	0	1	0	0	CorrectCommission	0.573411	1.080127	0
135.749924	0.795756	city	2	1	0.403573	0.403573	0	1	0	0	CorrectCommission	1.524421	1.081464	0
136.545731	0.795868	city	8	1	0.362372	0.362372	0	1	0	0	CorrectCommission	1.724600	1.073860	0
137.341553	0.795767	city	9	1	1.046433	1.046433	0	1	0	0	CorrectCommission	1.598970	1.058411	0
138.137344	0.795837	city	7	1	0.849895	0.849895	0	1	0	0	CorrectCommission	0.644072	1.036542	0
138.933167	0.795780	city	3	1	0.653164	0.653164	0	1	0	0	CorrectCommission	0.311763	1.009915	0
139.728943	0.795792	city	7	1	0.648840	0.648840	0	1	0	0	CorrectCommission	0.332768	0.980273	0
140.524887	0.796089	city	9	1	1.067517	1.067517	0	1	0	0	CorrectCommission	1.701406	0.949386	0
141.320709	0.795544	city	1	1	0.996487	0.996487	0	1	0	0	CorrectCommission	1.356301	0.918897	0
142.116516	0.796076	city	8	1	1.014338	1.014338	0	1	0	0	CorrectCommission	1.443030	0.890360	0
142.912292	0.795493	city	3	1	0.906368	0.906368	0	1	0	0	CorrectCommission	0.918451	0.865126	0
143.707916	0.795749	city	7	1	0.748164	0.748164	0	1	0	0	CorrectCommission	0.149804	0.844253	0
144.503693	0.795797	city	6	1	0.798313	0.798313	0	1	0	0	CorrectCommission	0.393457	0.828518	0
145.299515	0.795857	mountain	1	0	0.000000	0.748357	1	0	0	0	CorrectOmission	0.150741	0.818261	1
146.095367	0.795832	city	7	1	0.648589	0.648589	0	1	0	0	CorrectCommission	0.333991	0.813525	1
146.891159	0.795749	city	6	1	0.549301	0.549301	0	1	0	0	CorrectCommission	0.816387	0.813978	1
147.686935	0.795813	city	8	1	0.500646	0.500646	0	1	0	0	CorrectCommission	1.052784	0.819076	1
148.482727	0.795759	city	7	1	0.962092	0.962092	0	1	0	0	CorrectCommission	1.189190	0.828086	0
149.278534	0.795863	city	6	1	1.006981	1.006981	0	1	0	0	CorrectCommission	1.407288	0.840229	0
150.074356	0.795794	city	2	1	0.947267	0.947267	0	1	0	0	CorrectCommission	1.117160	0.854641	0
150.870300	0.796080	city	10	1	0.854517	0.854517	0	1	0	0	CorrectCommission	0.666529	0.870451	0
151.666107	0.795532	city	2	1	0.904751	0.904751	0	1	0	0	CorrectCommission	0.910593	0.886689	0
152.461777	0.795801	city	8	1	0.798839	0.798839	0	1	0	0	CorrectCommission	0.396013	0.902263	0
153.257568	0.795798	city	9	1	0.666827	0.666827	0	1	0	0	CorrectCommission	0.245378	0.915917	0
154.053360	0.795791	city	3	1	0.599054	0.599054	0	1	0	0	CorrectCommission	0.574658	0.926261	0
154.849319	0.796122	city	6	1	0.549133	0.549133	0	1	0	0	CorrectCommission	0.817205	0.931849	0
155.645142	0.795532	city	9	1	1.047445	1.047445	0	1	0	0	CorrectCommission	1.603884	0.931365	0
156.440811	0.795793	city	10	1	1.058463	1.058463	0	1	0	0	CorrectCommission	1.657416	0.923773	0
157.236588	0.795753	city	1	1	1.015562	1.015562	0	1	0	0	CorrectCommission	1.448980	0.908525	0
158.032333	0.795761	city	7	1	1.146635	1.146635	0	1	0	0	CorrectCommission	2.085809	0.885616	0
158.828293	0.796142	mountain	2	0	0.000000	0.809079	1	0	0	0	CorrectOmission	0.445765	0.855615	0
159.624115	0.795508	mountain	10	1	0.499148	0.499148	0	0	1	0	CommissionError	1.060060	0.819709	1
160.419922	0.796115	city	8	1	0.713096	0.713096	0	1	0	0	CorrectCommission	0.020576	0.779378	1
161.215729	0.795472	city	1	1	0.548851	0.548851	0	1	0	0	CorrectCommission	0.818575	0.736359	1
162.011368	0.795812	city	7	1	0.649398	0.649398	0	1	0	0	CorrectCommission	0.330060	0.692296	1
162.807312	0.796087	city	2	1	0.763441	0.763441	0	1	0	0	CorrectCommission	0.224030	0.648688	1
163.603134	0.795548	mountain	1	0	0.000000	0.675504	1	0	0	0	CorrectOmission	0.203219	0.606745	1
164.398788	0.795781	city	9	1	0.549426	0.549426	0	1	0	0	CorrectCommission	0.815781	0.567411	1
165.194611	0.795844	city	1	1	0.549046	0.549046	0	1	0	0	CorrectCommission	0.817629	0.531389	1
165.990417	0.795779	mountain	8	1	0.499675	0.499675	0	0	1	0	CommissionError	1.057501	0.499287	1
166.786179	0.795729	city	7	1	0.762652	0.762652	0	1	0	0	CorrectCommission	0.220197	0.471677	1
167.581970	0.795868	city	5	1	0.847803	0.847803	0	1	0	0	CorrectCommission	0.633909	0.449235	1
168.377808	0.795802	city	8	1	0.748258	0.748258	0	1	0	0	CorrectCommission	0.150260	0.432671	1
169.173615	0.795798	city	4	1	0.655697	0.655697	0	1	0	0	CorrectCommission	0.299455	0.422742	1
169.969406	0.795797	mountain	9	0	0.000000	0.674230	1	0	0	0	CorrectOmission	0.209410	0.420084	1
170.765228	0.795842	mountain	4	0	0.000000	0.729823	1	0	0	0	CorrectOmission	0.060694	0.425114	1
171.561035	0.795771	city	6	1	0.748442	0.748442	0	1	0	0	CorrectCommission	0.151154	0.437855	1
172.356781	0.795730	city	8	1	0.656051	0.656051	0	1	0	0	CorrectCommission	0.297733	0.457821	1
173.152573	0.795858	city	10	1	0.698716	0.698716	0	1	0	0	CorrectCommission	0.090445	0.483951	1
173.948425	0.795847	city	8	1	0.698318	0.698318	0	1	0	0	CorrectCommission	0.092375	0.514650	1
174.744232	0.795770	city	5	1	0.549453	0.549453	0	1	0	0	CorrectCommission	0.815651	0.547904	1
175.540009	0.795785	city	9	1	0.549340	0.549340	0	1	0	0	CorrectCommission	0.816201	0.581358	1
176.335953	0.796087	city	6	1	0.520384	0.520384	0	1	0	0	CorrectCommission	0.956886	0.612687	1
177.131897	0.795820	mountain	6	1	0.464198	0.464198	0	0	1	0	CommissionError	1.229867	0.639705	1
177.927582	0.795541	city	2	1	0.602653	0.602653	0	1	0	0	CorrectCommission	0.557173	0.660666	1
178.723389	0.796078	city	3	1	0.649711	0.649711	0	1	0	0	CorrectCommission	0.328540	0.674392	1
179.519150	0.795442	city	9	1	0.499162	0.499162	0	1	0	0	CorrectCommission	1.059992	0.680393	1
180.314774	0.795792	mountain	8	0	0.000000	0.467151	1	0	0	0	CorrectOmission	1.215523	0.678881	1
181.110611	0.795897	city	2	1	0.516050	0.516050	0	1	0	0	CorrectCommission	0.977941	0.670771	1
181.906586	0.796042	city	3	1	0.608235	0.608235	0	1	0	0	CorrectCommission	0.530051	0.657555	1
182.702377	0.795541	city	8	1	0.562356	0.562356	0	1	0	0	CorrectCommission	0.752960	0.641127	1
183.498047	0.795807	city	2	1	0.603254	0.603254	0	1	0	0	CorrectCommission	0.554252	0.623540	1
184.293839	0.795782	mountain	4	1	0.550017	0.550017	0	0	1	0	CommissionError	0.812910	0.606837	1
185.089783	0.796096	city	10	1	0.748471	0.748471	0	1	0	0	CorrectCommission	0.151294	0.592752	1
185.885574	0.795490	city	1	1	0.747735	0.747735	0	1	0	0	CorrectCommission	0.147719	0.582602	1
186.681244	0.795835	city	8	1	0.748029	0.748029	0	1	0	0	CorrectCommission	0.149148	0.577073	1
187.477203	0.796091	city	10	1	0.648996	0.648996	0	1	0	0	CorrectCommission	0.332012	0.576186	1
188.272995	0.795485	city	4	1	0.602333	0.602333	0	1	0	0	CorrectCommission	0.558726	0.579335	1
189.068649	0.795821	city	2	1	0.599661	0.599661	0	1	0	0	CorrectCommission	0.571708	0.585379	1
189.864471	0.795828	city	5	1	0.499981	0.499981	0	1	0	0	CorrectCommission	1.056015	0.592830	1
190.660400	0.796047	city	1	1	0.599709	0.599709	0	1	0	0	CorrectCommission	0.571475	0.600037	1
191.456161	0.795468	city	7	1	0.555775	0.555775	0	1	0	0	CorrectCommission	0.784936	0.605456	1
192.251846	0.795889	city	9	1	0.598985	0.598985	0	1	0	0	CorrectCommission	0.574995	0.607785	1
193.047638	0.795716	city	6	1	0.509531	0.509531	0	1	0	0	CorrectCommission	1.009616	0.606190	1
193.843445	0.795875	city	7	1	0.604734	0.604734	0	1	0	0	CorrectCommission	0.547061	0.600405	1
194.639404	0.796059	city	4	1	0.613651	0.613651	0	1	0	0	CorrectCommission	0.503738	0.590808	1
195.435333	0.795807	city	6	1	0.552971	0.552971	0	1	0	0	CorrectCommission	0.798558	0.578389	1
196.231003	0.795522	city	2	1	0.549119	0.549119	0	1	0	0	CorrectCommission	0.817275	0.564655	1
197.026672	0.795825	city	1	1	0.549144	0.549144	0	1	0	0	CorrectCommission	0.817150	0.551440	1
197.822479	0.795791	city	4	1	0.648511	0.648511	0	1	0	0	CorrectCommission	0.334370	0.540680	1
198.618240	0.795725	city	2	1	0.798125	0.798125	0	1	0	0	CorrectCommission	0.392544	0.534160	1
199.414169	0.796121	city	8	1	0.749023	0.749023	0	1	0	0	CorrectCommission	0.153977	0.533235	1
200.209961	0.795463	mountain	4	0	0.000000	0.688066	1	0	0	0	CorrectOmission	0.142187	0.538614	1
201.005630	0.795867	city	8	1	0.648898	0.648898	0	1	0	0	CorrectCommission	0.332490	0.550196	1
201.801620	0.796112	city	9	1	0.665161	0.665161	0	1	0	0	CorrectCommission	0.253475	0.567042	1
202.597565	0.795806	city	7	1	0.698387	0.698387	0	1	0	0	CorrectCommission	0.092040	0.587517	1
203.393234	0.795515	city	3	1	0.648256	0.648256	0	1	0	0	CorrectCommission	0.335608	0.609451	1
204.189026	0.796082	city	9	1	0.599528	0.599528	0	1	0	0	CorrectCommission	0.572355	0.630520	1
204.984833	0.795510	city	1	1	0.459307	0.459307	0	1	0	0	CorrectCommission	1.253633	0.648612	1
205.780457	0.795764	city	6	1	1.046562	1.046562	0	1	0	0	CorrectCommission	1.599593	0.662204	1
206.576279	0.795863	city	2	1	1.011249	1.011249	0	1	0	0	CorrectCommission	1.428024	0.670665	1
207.372223	0.796037	city	3	1	0.959167	0.959167	0	1	0	0	CorrectCommission	1.174980	0.674415	1
208.167984	0.795484	city	9	1	0.861644	0.861644	0	1	0	0	CorrectCommission	0.701156	0.674965	1
208.963776	0.796093	city	7	1	0.848313	0.848313	0	1	0	0	CorrectCommission	0.636384	0.674666	1
209.759613	0.795571	city	4	1	0.765089	0.765089	0	1	0	0	CorrectCommission	0.232037	0.676406	1
210.555420	0.796062	city	2	1	0.699032	0.699032	0	1	0	0	CorrectCommission	0.088909	0.683102	1
211.351227	0.795547	city	6	1	0.652433	0.652433	0	1	0	0	CorrectCommission	0.315313	0.697305	1
212.146896	0.795785	city	2	1	0.649216	0.649216	0	1	0	0	CorrectCommission	0.330945	0.720752	1
212.942703	0.795824	city	9	1	0.648831	0.648831	0	1	0	0	CorrectCommission	0.332811	0.754077	1
213.738495	0.795783	city	6	1	0.699578	0.699578	0	1	0	0	CorrectCommission	0.086256	0.796657	1
214.534256	0.795736	city	9	1	0.599369	0.599369	0	1	0	0	CorrectCommission	0.573129	0.846631	0
215.330215	0.796162	city	5	1	0.504198	0.504198	0	1	0	0	CorrectCommission	1.035527	0.901061	0
216.126038	0.795506	city	3	1	0.501593	0.501593	0	1	0	0	CorrectCommission	1.048182	0.956267	0
216.921692	0.795794	city	7	1	0.399819	0.399819	0	1	0	0	CorrectCommission	1.542659	1.008214	0
217.717514	0.795853	city	8	1	0.319352	0.319352	0	1	0	0	CorrectCommission	1.933615	1.052902	0
218.513321	0.795751	city	10	1	0.897438	0.897438	0	1	0	0	CorrectCommission	0.875065	1.086761	0
219.309082	0.795767	city	8	1	1.047833	1.047833	0	1	0	0	CorrectCommission	1.605771	1.107016	0
220.105026	0.796137	city	10	1	1.050434	1.050434	0	1	0	0	CorrectCommission	1.618408	1.111781	0
220.900848	0.795506	city	5	1	1.102951	1.102951	0	1	0	0	CorrectCommission	1.873565	1.100253	0
221.696487	0.795757	city	10	0	0.000000	0.903858	0	0	0	1	OmissionError	0.906258	1.072651	0
222.492310	0.795885	city	4	1	0.615636	0.615636	0	1	0	0	CorrectCommission	0.494095	1.030194	0
223.288147	0.795796	city	7	1	0.400762	0.400762	0	1	0	0	CorrectCommission	1.538078	0.974881	0
224.083923	0.795769	city	1	1	0.449916	0.449916	0	1	0	0	CorrectCommission	1.299258	0.909297	0
224.879715	0.795822	mountain	2	1	0.307023	0.307023	0	0	1	0	CommissionError	1.993515	0.836470	0
225.675522	0.795781	city	2	1	0.698259	0.698259	0	1	0	0	CorrectCommission	0.092662	0.759597	1
226.471451	0.796078	city	5	1	0.748723	0.748723	0	1	0	0	CorrectCommission	0.152520	0.681918	1
227.267258	0.795519	city	10	1	0.660838	0.660838	0	1	0	0	CorrectCommission	0.274477	0.606393	1
228.062897	0.795776	city	6	1	0.799129	0.799129	0	1	0	0	CorrectCommission	0.397424	0.535617	1
228.858719	0.795873	city	9	1	0.798689	0.798689	0	1	0	0	CorrectCommission	0.395284	0.471692	1
229.654556	0.795790	city	5	1	0.748661	0.748661	0	1	0	0	CorrectCommission	0.152217	0.416191	1
230.450333	0.795771	city	9	1	0.704952	0.704952	0	1	0	0	CorrectCommission	0.060145	0.370141	1
231.246109	0.795777	city	10	1	0.798310	0.798310	0	1	0	0	CorrectCommission	0.393442	0.334063	1
232.041916	0.795829	city	9	1	0.755556	0.755556	0	1	0	0	CorrectCommission	0.185716	0.308028	1
232.837723	0.795781	city	2	1	0.711081	0.711081	0	1	0	0	CorrectCommission	0.030367	0.291787	1
233.633514	0.795826	city	3	1	0.748329	0.748329	0	1	0	0	CorrectCommission	0.150608	0.284854	1
234.429306	0.795739	city	7	1	0.756257	0.756257	0	1	0	0	CorrectCommission	0.189125	0.286565	1
235.225113	0.795885	city	1	1	0.699602	0.699602	0	1	0	0	CorrectCommission	0.086137	0.296130	1
236.020920	0.795735	city	3	1	0.612356	0.612356	0	1	0	0	CorrectCommission	0.510029	0.312734	1
236.816742	0.795886	city	9	1	0.748190	0.748190	0	1	0	0	CorrectCommission	0.149929	0.335403	1
237.612579	0.795803	city	7	1	0.806330	0.806330	0	1	0	0	CorrectCommission	0.432408	0.363154	1
238.408371	0.795777	city	4	1	0.755024	0.755024	0	1	0	0	CorrectCommission	0.183133	0.394838	1
239.204117	0.795729	city	6	1	0.847874	0.847874	0	1	0	0	CorrectCommission	0.634252	0.429256	1
240.000076	0.796165	city	1	1	0.748470	0.748470	0	1	0	0	CorrectCommission	0.151292	0.465157	1
240.795914	0.795523	city	10	1	0.599285	0.599285	0	1	0	0	CorrectCommission	0.573539	0.501286	1
241.591705	0.796044	city	7	1	0.748939	0.748939	0	1	0	0	CorrectCommission	0.153571	0.536475	1
242.387497	0.795541	city	3	1	0.664996	0.664996	0	1	0	0	CorrectCommission	0.254275	0.569818	1
243.183151	0.795788	city	6	1	0.897588	0.897588	0	1	0	0	CorrectCommission	0.875791	0.600805	1
243.978928	0.795759	city	5	1	0.947649	0.947649	0	1	0	0	CorrectCommission	1.119020	0.629378	1
244.774704	0.795779	city	1	1	1.046618	1.046618	0	1	0	0	CorrectCommission	1.599866	0.655983	1
245.570526	0.795877	city	6	1	0.997100	0.997100	0	1	0	0	CorrectCommission	1.359280	0.681433	1
246.366364	0.795787	city	3	1	0.847811	0.847811	0	1	0	0	CorrectCommission	0.633945	0.706798	1
247.162170	0.795830	city	5	1	0.761659	0.761659	0	1	0	0	CorrectCommission	0.215369	0.733144	1
247.957993	0.795808	city	9	1	0.748537	0.748537	0	1	0	0	CorrectCommission	0.151618	0.761220	1
248.753738	0.795709	city	1	1	0.748335	0.748335	0	1	0	0	CorrectCommission	0.150636	0.791176	1
249.549683	0.796162	city	10	1	0.750105	0.750105	0	1	0	0	CorrectCommission	0.159233	0.822458	1
250.345490	0.795455	city	9	1	0.797869	0.797869	0	1	0	0	CorrectCommission	0.391301	0.853807	0
251.141113	0.795791	city	4	1	0.998488	0.998488	0	1	0	0	CorrectCommission	1.366023	0.883387	0
251.937073	0.796140	city	10	1	0.798072	0.798072	0	1	0	0	CorrectCommission	0.392287	0.909077	0
252.733063	0.795822	city	2	1	1.157561	1.157561	0	1	0	0	CorrectCommission	2.138892	0.928979	0
253.528870	0.795799	city	6	1	1.050701	1.050701	0	1	0	0	CorrectCommission	1.619703	0.941615	0
254.324539	0.795538	city	4	1	1.055902	1.055902	0	1	0	0	CorrectCommission	1.644973	0.946463	0
255.120209	0.795811	city	7	1	1.195929	1.195929	0	1	0	0	CorrectCommission	2.325309	0.944015	0
255.916000	0.795751	mountain	7	0	0.000000	0.962015	1	0	0	0	CorrectOmission	1.188816	0.935743	0
256.711761	0.795807	city	8	1	0.698288	0.698288	0	1	0	0	CorrectCommission	0.092522	0.923959	0
257.507721	0.796086	city	9	1	0.748879	0.748879	0	1	0	0	CorrectCommission	0.153280	0.911390	0
258.303497	0.795470	city	3	1	0.698090	0.698090	0	1	0	0	CorrectCommission	0.093484	0.900725	0
259.099152	0.795865	city	7	1	0.599545	0.599545	0	1	0	0	CorrectCommission	0.572274	0.894229	0
259.894989	0.795814	city	3	1	0.500216	0.500216	0	1	0	0	CorrectCommission	1.054872	0.893364	0
260.690796	0.795790	city	4	1	0.648633	0.648633	0	1	0	0	CorrectCommission	0.333775	0.898596	0
261.486603	0.795777	city	7	1	0.603430	0.603430	0	1	0	0	CorrectCommission	0.553399	0.909432	0
262.282410	0.795856	city	2	1	0.502331	0.502331	0	1	0	0	CorrectCommission	1.044595	0.924481	0
263.078186	0.795699	city	5	1	0.451181	0.451181	0	1	0	0	CorrectCommission	1.293111	0.941741	0
263.873993	0.795901	city	2	1	0.500296	0.500296	0	1	0	0	CorrectCommission	1.054484	0.958965	0
264.669800	0.795755	city	7	1	0.449873	0.449873	0	1	0	0	CorrectCommission	1.299467	0.974038	0
265.465729	0.796074	city	3	1	1.050839	1.050839	0	1	0	0	CorrectCommission	1.620373	0.985217	0
266.261505	0.795473	city	4	1	0.997314	0.997314	0	1	0	0	CorrectCommission	1.360320	0.991402	0
267.057129	0.795816	city	10	1	0.897326	0.897326	0	1	0	0	CorrectCommission	0.874520	0.992268	0
267.852966	0.795835	city	7	1	0.908601	0.908601	0	1	0	0	CorrectCommission	0.929302	0.988221	0
268.648926	0.796102	city	6	1	0.599223	0.599223	0	1	0	0	CorrectCommission	0.573840	0.980210	0
269.444763	0.795541	city	8	1	0.563292	0.563292	0	1	0	0	CorrectCommission	0.748411	0.969642	0
270.240387	0.795713	city	2	1	0.404128	0.404128	0	1	0	0	CorrectCommission	1.521725	0.957975	0
271.036163	0.795829	city	5	1	0.456648	0.456648	0	1	0	0	CorrectCommission	1.266552	0.946542	0
271.831970	0.795777	city	9	1	0.947807	0.947807	0	1	0	0	CorrectCommission	1.119785	0.936347	0
272.627777	0.795831	city	10	1	0.702810	0.702810	0	1	0	0	CorrectCommission	0.070553	0.927831	0
273.423584	0.795818	city	1	1	0.599797	0.599797	0	1	0	0	CorrectCommission	0.571049	0.920847	0
274.219543	0.796115	city	5	1	0.549440	0.549440	0	1	0	0	CorrectCommission	0.815715	0.914585	0
275.015381	0.795518	city	2	1	0.602892	0.602892	0	1	0	0	CorrectCommission	0.556012	0.907712	0
275.811035	0.795778	city	3	1	0.599180	0.599180	0	1	0	0	CorrectCommission	0.574046	0.898594	0
276.606781	0.795748	city	8	1	0.499372	0.499372	0	1	0	0	CorrectCommission	1.058974	0.885525	0
277.402740	0.796164	city	10	1	0.353215	0.353215	0	1	0	0	CorrectCommission	1.769090	0.867026	0
278.198578	0.795496	city	6	1	0.350156	0.350156	0	1	0	0	CorrectCommission	1.783951	0.842175	0
278.994232	0.795830	city	1	1	0.997048	0.997048	0	1	0	0	CorrectCommission	1.359026	0.810833	1
279.790039	0.795805	mountain	10	0	0.000000	0.980410	1	0	0	0	CorrectOmission	1.278188	0.773728	1
280.585846	0.795784	city	8	1	0.748325	0.748325	0	1	0	0	CorrectCommission	0.150587	0.732399	1
281.381622	0.795796	city	3	1	0.748877	0.748877	0	1	0	0	CorrectCommission	0.153270	0.689130	1
282.177399	0.795732	city	10	1	0.602965	0.602965	0	1	0	0	CorrectCommission	0.555657	0.646655	1
282.973206	0.795884	city	9	1	0.807818	0.807818	0	1	0	0	CorrectCommission	0.439640	0.607906	1
283.769165	0.796050	city	4	1	0.797987	0.797987	0	1	0	0	CorrectCommission	0.391874	0.575770	1
284.565002	0.795578	city	8	1	0.847709	0.847709	0	1	0	0	CorrectCommission	0.633452	0.552833	1
285.360687	0.795795	city	5	1	0.748472	0.748472	0	1	0	0	CorrectCommission	0.151303	0.541136	1
286.156464	0.795800	city	2	1	0.748036	0.748036	0	1	0	0	CorrectCommission	0.149180	0.542045	1
286.952393	0.796045	city	10	1	0.708193	0.708193	0	1	0	0	CorrectCommission	0.044400	0.556129	1
287.748199	0.795570	mountain	10	1	0.797538	0.797538	0	0	1	0	CommissionError	0.389693	0.583099	1
288.543854	0.795713	city	2	1	0.797843	0.797843	0	1	0	0	CorrectCommission	0.391171	0.621813	1
289.339630	0.795853	city	7	1	0.848556	0.848556	0	1	0	0	CorrectCommission	0.637567	0.670389	1
290.135468	0.795805	city	6	1	0.900322	0.900322	0	1	0	0	CorrectCommission	0.889077	0.726304	1
290.931244	0.795787	city	5	0	0.000000	0.898394	0	0	0	1	OmissionError	0.879708	0.786502	1
291.727051	0.795801	city	9	1	0.813907	0.813907	0	1	0	0	CorrectCommission	0.469220	0.847611	0
292.522858	0.795839	city	10	1	0.617996	0.617996	0	1	0	0	CorrectCommission	0.482628	0.906176	0
293.318787	0.796013	city	5	1	0.566137	0.566137	0	1	0	0	CorrectCommission	0.734588	0.958877	0
294.114594	0.795566	city	6	1	1.047041	1.047041	0	1	0	0	CorrectCommission	1.601922	1.002792	0
294.910248	0.795787	city	4	1	1.146829	1.146829	0	1	0	0	CorrectCommission	2.086749	1.035651	0
295.706024	0.795761	city	6	1	1.096563	1.096563	0	1	0	0	CorrectCommission	1.842530	1.056060	0
296.501831	0.795811	city	7	1	0.996709	0.996709	0	1	0	0	CorrectCommission	1.357381	1.063702	0
297.297607	0.795776	city	1	1	0.997083	0.997083	0	1	0	0	CorrectCommission	1.359196	1.059328	0
298.093414	0.795851	city	7	1	0.950082	0.950082	0	1	0	0	CorrectCommission	1.130839	1.044703	0
298.889282	0.795853	city	10	1	0.897295	0.897295	0	1	0	0	CorrectCommission	0.874370	1.022433	0
299.685089	0.795791	city	8	1	0.901627	0.901627	0	1	0	0	CorrectCommission	0.895417	0.995725	0
300.480896	0.795800	city	5	1	0.947222	0.947222	0	1	0	0	CorrectCommission	1.116942	0.968052	0
301.276825	0.796072	city	1	1	0.814097	0.814097	0	1	0	0	CorrectCommission	0.470147	0.942801	0
302.072632	0.795529	city	3	1	0.896940	0.896940	0	1	0	0	CorrectCommission	0.872646	0.922978	0
302.868256	0.795742	city	8	1	0.860990	0.860990	0	1	0	0	CorrectCommission	0.697978	0.910898	0
303.664062	0.795853	city	6	1	0.698325	0.698325	0	1	0	0	CorrectCommission	0.092343	0.907971	0
304.459900	0.795818	mountain	8	0	0.000000	0.569936	1	0	0	0	CorrectOmission	0.716133	0.914573	0
305.255707	0.795794	city	8	1	0.509164	0.509164	0	1	0	0	CorrectCommission	1.011395	0.930009	0
306.051636	0.796083	city	4	1	0.549354	0.549354	0	1	0	0	CorrectCommission	0.816133	0.952652	0
306.847443	0.795509	mountain	9	1	0.549013	0.549013	0	0	1	0	CommissionError	0.817789	0.980133	0
307.643097	0.795807	city	9	1	0.549096	0.549096	0	1	0	0	CorrectCommission	0.817382	1.009594	0
308.438904	0.795812	city	8	1	0.549091	0.549091	0	1	0	0	CorrectCommission	0.817410	1.038021	0
309.234833	0.796062	city	3	1	0.503789	0.503789	0	1	0	0	CorrectCommission	1.037511	1.062615	0
310.030640	0.795543	city	7	1	0.317022	0.317022	0	1	0	0	CorrectCommission	1.944936	1.081093	0
310.826324	0.795794	city	9	1	0.399822	0.399822	0	1	0	0	CorrectCommission	1.542642	1.091929	0
311.622101	0.795768	city	10	1	0.300451	0.300451	0	1	0	0	CorrectCommission	2.025446	1.094550	0
312.417847	0.795750	city	4	1	0.351503	0.351503	0	1	0	0	CorrectCommission	1.777405	1.089292	0
313.213654	0.795855	city	3	1	0.502279	0.502279	0	1	0	0	CorrectCommission	1.044847	1.077339	0
314.009521	0.795901	city	1	1	0.649303	0.649303	0	1	0	0	CorrectCommission	0.330519	1.060479	0
314.805359	0.795731	city	6	1	0.548932	0.548932	0	1	0	0	CorrectCommission	0.818179	1.040743	0
315.601105	0.795782	city	7	1	0.549580	0.549580	0	1	0	0	CorrectCommission	0.815033	1.020018	0
316.396881	0.795791	city	10	1	0.615621	0.615621	0	1	0	0	CorrectCommission	0.494165	0.999808	0
317.192780	0.796011	city	7	1	0.599696	0.599696	0	1	0	0	CorrectCommission	0.571542	0.981007	0
317.988586	0.795601	city	1	1	1.046617	1.046617	0	1	0	0	CorrectCommission	1.599862	0.963726	0
318.784302	0.795822	city	4	0	0.000000	0.977708	0	0	0	1	OmissionError	1.265064	0.947377	0
319.580109	0.795799	city	7	1	0.708939	0.708939	0	1	0	0	CorrectCommission	0.040775	0.930800	0
320.375946	0.795830	city	4	1	0.556278	0.556278	0	1	0	0	CorrectCommission	0.782491	0.912575	0
321.171722	0.795764	city	9	1	0.456703	0.456703	0	1	0	0	CorrectCommission	1.266284	0.891154	0
321.967499	0.795741	city	2	1	0.996812	0.996812	0	1	0	0	CorrectCommission	1.357881	0.865268	0
322.763275	0.795819	city	4	1	1.000294	1.000294	0	1	0	0	CorrectCommission	1.374798	0.834161	0
323.559052	0.795779	city	9	1	0.947995	0.947995	0	1	0	0	CorrectCommission	1.120701	0.797822	1
324.355042	0.796152	mountain	3	0	0.000000	0.922290	1	0	0	0	CorrectOmission	0.995809	0.757039	1
325.150879	0.795527	mountain	10	0	0.000000	0.897611	1	0	0	0	CorrectOmission	0.875905	0.713330	1
325.946503	0.795721	city	3	1	0.848392	0.848392	0	1	0	0	CorrectCommission	0.636772	0.668808	1
326.742279	0.795850	city	5	1	0.749067	0.749067	0	1	0	0	CorrectCommission	0.154192	0.625985	1
327.538269	0.796114	city	7	1	0.752164	0.752164	0	1	0	0	CorrectCommission	0.169239	0.587437	1
328.334076	0.795527	city	10	1	0.659136	0.659136	0	1	0	0	CorrectCommission	0.282747	0.555538	1
329.129730	0.795764	city	8	1	0.809783	0.809783	0	1	0	0	CorrectCommission	0.449182	0.532244	1
329.925507	0.795782	mountain	7	0	0.000000	0.779161	1	0	0	0	CorrectOmission	0.300406	0.518897	1
330.721466	0.796127	city	2	1	0.698419	0.698419	0	1	0	0	CorrectCommission	0.091885	0.516160	1
331.517426	0.795788	city	3	1	0.698704	0.698704	0	1	0	0	CorrectCommission	0.090502	0.523969	1
332.313049	0.795490	city	4	1	0.847536	0.847536	0	1	0	0	CorrectCommission	0.632610	0.541535	1
333.108856	0.796124	mountain	4	0	0.000000	0.674313	1	0	0	0	CorrectOmission	0.209005	0.567467	1
333.904694	0.795533	city	2	1	0.500904	0.500904	0	1	0	0	CorrectCommission	1.051527	0.599945	1
334.700348	0.795801	city	4	1	0.649176	0.649176	0	1	0	0	CorrectCommission	0.331138	0.636754	1
335.496124	0.795769	city	10	1	0.412741	0.412741	0	1	0	0	CorrectCommission	1.479878	0.675526	1
336.292084	0.796119	city	1	1	0.663168	0.663168	0	1	0	0	CorrectCommission	0.263158	0.713842	1
337.088043	0.795778	city	7	1	0.847556	0.847556	0	1	0	0	CorrectCommission	0.632706	0.749558	1
337.883698	0.795543	mountain	10	1	0.748042	0.748042	0	0	1	0	CommissionError	0.149211	0.780741	1
338.679352	0.795797	city	1	1	0.947660	0.947660	0	1	0	0	CorrectCommission	1.119071	0.805946	1
339.475311	0.796087	city	8	1	1.046446	1.046446	0	1	0	0	CorrectCommission	1.599030	0.824244	1
340.271118	0.795534	city	5	1	0.948680	0.948680	0	1	0	0	CorrectCommission	1.124027	0.835421	0
341.066742	0.795707	city	8	1	0.897528	0.897528	0	1	0	0	CorrectCommission	0.875503	0.839968	0
341.862488	0.795806	city	4	1	1.100041	1.100041	0	1	0	0	CorrectCommission	1.859427	0.839019	0
342.658325	0.795876	city	2	1	1.001383	1.001383	0	1	0	0	CorrectCommission	1.380091	0.834147	0
343.454132	0.795728	mountain	2	0	0.000000	0.759275	1	0	0	0	CorrectOmission	0.203788	0.827340	0
344.249908	0.795796	city	10	1	0.599747	0.599747	0	1	0	0	CorrectCommission	0.571294	0.820742	1
345.045746	0.795904	city	6	1	0.748828	0.748828	0	1	0	0	CorrectCommission	0.153028	0.816336	1
345.841583	0.795805	city	10	1	0.658331	0.658331	0	1	0	0	CorrectCommission	0.286655	0.815809	1
346.637390	0.795798	city	7	1	0.710682	0.710682	0	1	0	0	CorrectCommission	0.032303	0.820396	1
347.433319	0.796040	city	8	1	0.755209	0.755209	0	1	0	0	CorrectCommission	0.184032	0.830896	0
348.229095	0.795537	city	9	1	1.047078	1.047078	0	1	0	0	CorrectCommission	1.602102	0.847653	0
349.024750	0.795754	city	6	1	1.195758	1.195758	0	1	0	0	CorrectCommission	2.324474	0.870589	0
349.820557	0.795842	city	8	0	0.000000	0.973852	0	0	0	1	OmissionError	1.246326	0.899330	0
350.616364	0.795760	city	2	1	0.664093	0.664093	0	1	0	0	CorrectCommission	0.258661	0.933357	0
351.412292	0.796128	city	6	1	0.549215	0.549215	0	1	0	0	CorrectCommission	0.816807	0.971870	0
352.208252	0.795805	city	9	1	0.508277	0.508277	0	1	0	0	CorrectCommission	1.015707	1.013826	0
353.004059	0.795776	city	4	1	0.709209	0.709209	0	1	0	0	CorrectCommission	0.039460	1.057905	0
353.799713	0.795565	city	10	1	0.660741	0.660741	0	1	0	0	CorrectCommission	0.274948	1.102673	0
354.595367	0.795708	city	9	1	0.807311	0.807311	0	1	0	0	CorrectCommission	0.437175	1.146519	0
355.391174	0.795894	city	3	1	1.205421	1.205421	0	1	0	0	CorrectCommission	2.371425	1.187898	0
356.186981	0.795772	city	9	1	1.199338	1.199338	0	1	0	0	CorrectCommission	2.341867	1.225364	0
356.982788	0.795836	city	3	1	1.205711	1.205711	0	1	0	0	CorrectCommission	2.372834	1.257938	0
357.778595	0.795753	city	8	0	0.000000	0.844626	0	0	0	1	OmissionError	0.618473	1.285121	0
358.574402	0.795835	city	4	1	0.449620	0.449620	0	1	0	0	CorrectCommission	1.300698	1.306986	0
359.370209	0.795808	city	1	1	0.354230	0.354230	0	1	0	0	CorrectCommission	1.764158	1.323912	0
360.165985	0.795766	city	2	1	0.316785	0.316785	0	1	0	0	CorrectCommission	1.946085	1.336525	0
360.961792	0.795833	mountain	5	1	0.549093	0.549093	0	0	1	0	CommissionError	0.817400	1.345488	0
361.757599	0.795744	city	7	1	0.798571	0.798571	0	1	0	0	CorrectCommission	0.394711	1.351212	0
362.553345	0.795776	city	1	1	0.948328	0.948328	0	1	0	0	CorrectCommission	1.122317	1.353676	0
363.349182	0.795892	city	4	1	0.947282	0.947282	0	1	0	0	CorrectCommission	1.117234	1.352300	0
364.145142	0.796049	city	10	1	0.959789	0.959789	0	1	0	0	CorrectCommission	1.178002	1.346043	0
364.940918	0.795506	city	9	1	0.996459	0.996459	0	1	0	0	CorrectCommission	1.356166	1.333587	0
365.736572	0.795759	city	1	1	1.215551	1.215551	0	1	0	0	CorrectCommission	2.420643	1.313592	0
366.532379	0.795902	city	5	1	1.102284	1.102284	0	1	0	0	CorrectCommission	1.870327	1.285009	0
367.328217	0.795753	city	7	1	1.107419	1.107419	0	1	0	0	CorrectCommission	1.895275	1.247535	0
368.124023	0.795838	city	3	1	0.997064	0.997064	0	1	0	0	CorrectCommission	1.359104	1.201773	0
368.919830	0.795798	city	2	1	1.011083	1.011083	0	1	0	0	CorrectCommission	1.427219	1.149312	0
369.715759	0.796075	city	8	1	0.957577	0.957577	0	1	0	0	CorrectCommission	1.167252	1.092680	0
370.511536	0.795490	city	6	1	0.947904	0.947904	0	1	0	0	CorrectCommission	1.120255	1.035174	0
371.307190	0.795808	mountain	3	0	0.000000	0.718277	1	0	0	0	CorrectOmission	0.004598	0.980466	0
372.102997	0.795779	city	6	1	0.509258	0.509258	0	1	0	0	CorrectCommission	1.010940	0.932259	0
372.898773	0.795787	mountain	9	1	0.561406	0.561406	0	0	1	0	CommissionError	0.757576	0.893688	0
373.694550	0.795781	city	1	1	0.652936	0.652936	0	1	0	0	CorrectCommission	0.312868	0.867082	0
374.490509	0.796147	city	3	1	0.665509	0.665509	0	1	0	0	CorrectCommission	0.251782	0.853636	0
375.286499	0.795829	city	5	1	0.660112	0.660112	0	1	0	0	CorrectCommission	0.278004	0.853264	0
376.082153	0.795462	mountain	5	1	0.855147	0.855147	0	0	1	0	CommissionError	0.669591	0.864564	0
376.877808	0.795831	city	8	0	0.000000	0.742914	0	0	0	1	OmissionError	0.124299	0.884957	0
377.673645	0.795826	city	9	1	0.515236	0.515236	0	1	0	0	CorrectCommission	0.981897	0.911063	0
378.469421	0.795766	city	4	1	0.363933	0.363933	0	1	0	0	CorrectCommission	1.717015	0.939020	0
379.265198	0.795761	city	5	1	0.947134	0.947134	0	1	0	0	CorrectCommission	1.116515	0.964962	0
380.061005	0.795882	city	9	1	0.961867	0.961867	0	1	0	0	CorrectCommission	1.188099	0.985433	0
380.856873	0.795813	city	3	1	1.002751	1.002751	0	1	0	0	CorrectCommission	1.386734	0.997693	0
381.652802	0.796059	city	6	1	1.046772	1.046772	0	1	0	0	CorrectCommission	1.600616	0.999967	0
382.448547	0.795443	city	8	1	1.046225	1.046225	0	1	0	0	CorrectCommission	1.597960	0.991561	0
383.244202	0.795871	city	6	1	1.047421	1.047421	0	1	0	0	CorrectCommission	1.603769	0.972765	0
384.040039	0.795811	mountain	5	0	0.000000	0.800292	1	0	0	0	CorrectOmission	0.403074	0.944745	0
384.835999	0.796065	city	9	1	0.553481	0.553481	0	1	0	0	CorrectCommission	0.796082	0.909341	0
385.631744	0.795480	city	10	1	0.555627	0.555627	0	1	0	0	CorrectCommission	0.785654	0.868704	0
386.427429	0.795837	city	6	1	0.600224	0.600224	0	1	0	0	CorrectCommission	0.568974	0.825115	0
387.223206	0.795748	city	7	1	0.598886	0.598886	0	1	0	0	CorrectCommission	0.575476	0.780754	1
388.019012	0.795892	city	4	1	0.561707	0.561707	0	1	0	0	CorrectCommission	0.756112	0.737533	1
388.814850	0.795778	city	8	1	0.652726	0.652726	0	1	0	0	CorrectCommission	0.313887	0.697062	1
389.610657	0.795815	city	1	1	0.499594	0.499594	0	1	0	0	CorrectCommission	1.057893	0.660551	1
390.406464	0.795774	city	6	1	0.558405	0.558405	0	1	0	0	CorrectCommission	0.772157	0.628860	1
391.202240	0.795810	city	2	1	0.549850	0.549850	0	1	0	0	CorrectCommission	0.813721	0.602591	1
391.998077	0.795834	city	4	1	0.698345	0.698345	0	1	0	0	CorrectCommission	0.092247	0.582051	1
392.793884	0.795798	city	8	1	0.599106	0.599106	0	1	0	0	CorrectCommission	0.574409	0.567317	1
393.589661	0.795728	city	7	1	0.798235	0.798235	0	1	0	0	CorrectCommission	0.393077	0.558224	1
394.385437	0.795837	city	9	1	0.763104	0.763104	0	1	0	0	CorrectCommission	0.222389	0.554473	1
395.181274	0.795850	mountain	2	0	0.000000	0.733397	1	0	0	0	CorrectOmission	0.078057	0.555562	1
395.977203	0.796029	city	8	1	0.748424	0.748424	0	1	0	0	CorrectCommission	0.151067	0.560881	1
396.773010	0.795555	mountain	10	1	0.847494	0.847494	0	0	1	0	CommissionError	0.632409	0.569782	1
397.568665	0.795783	city	10	1	0.997000	0.997000	0	1	0	0	CorrectCommission	1.358794	0.581621	1
398.364471	0.795842	mountain	6	0	0.000000	0.947108	1	0	0	0	CorrectOmission	1.116391	0.595816	1
399.160339	0.795852	city	6	1	0.847418	0.847418	0	1	0	0	CorrectCommission	0.632036	0.611890	1
399.956116	0.795690	city	8	1	0.847525	0.847525	0	1	0	0	CorrectCommission	0.632559	0.629422	1
400.751862	0.795819	city	1	1	0.698746	0.698746	0	1	0	0	CorrectCommission	0.090296	0.647942	1
401.547638	0.795764	mountain	10	0	0.000000	0.615637	1	0	0	0	CorrectOmission	0.494090	0.666918	1
402.343445	0.795846	city	9	1	0.648695	0.648695	0	1	0	0	CorrectCommission	0.333475	0.685585	1
403.139252	0.795763	city	7	1	0.848418	0.848418	0	1	0	0	CorrectCommission	0.636894	0.702966	1
403.935059	0.795853	city	10	1	0.951069	0.951069	0	1	0	0	CorrectCommission	1.135632	0.717832	1
404.731018	0.796082	city	3	0	0.000000	0.733857	0	0	0	1	OmissionError	0.080290	0.728820	1
405.526855	0.795539	city	6	1	0.461956	0.461956	0	1	0	0	CorrectCommission	1.240759	0.734631	1
406.322479	0.795759	city	9	1	0.400543	0.400543	0	1	0	0	CorrectCommission	1.539140	0.734118	1
407.118286	0.795834	city	10	0	0.000000	0.500377	0	0	0	1	OmissionError	1.054089	0.726549	1
407.914246	0.796068	mountain	3	1	0.705016	0.705016	0	0	1	0	CommissionError	0.059833	0.711789	1
408.710022	0.795529	city	8	1	0.958019	0.958019	0	1	0	0	CorrectCommission	1.169401	0.690467	1
409.505798	0.795985	city	6	1	1.050213	1.050213	0	1	0	0	CorrectCommission	1.617333	0.663885	1
410.301575	0.795559	mountain	10	0	0.000000	0.833824	1	0	0	0	CorrectOmission	0.565992	0.634055	1
411.097260	0.795834	city	5	1	0.602400	0.602400	0	1	0	0	CorrectCommission	0.558403	0.603549	1
411.893097	0.795835	city	3	1	0.649485	0.649485	0	1	0	0	CorrectCommission	0.329635	0.575253	1
412.688904	0.795804	city	6	1	0.699014	0.699014	0	1	0	0	CorrectCommission	0.088995	0.552127	1
413.484741	0.795819	city	3	1	0.648864	0.648864	0	1	0	0	CorrectCommission	0.332653	0.536892	1
414.280640	0.796010	city	8	1	0.698348	0.698348	0	1	0	0	CorrectCommission	0.092232	0.531801	1
415.076385	0.795494	mountain	5	0	0.000000	0.698740	1	0	0	0	CorrectOmission	0.090328	0.538405	1
415.872223	0.796165	city	7	1	0.702012	0.702012	0	1	0	0	CorrectCommission	0.074430	0.557479	1
416.668060	0.795505	city	9	1	0.760137	0.760137	0	1	0	0	CorrectCommission	0.207974	0.588957	1
417.463684	0.795731	city	10	1	0.549119	0.549119	0	1	0	0	CorrectCommission	0.817274	0.631958	1
418.259491	0.795867	city	5	1	0.499676	0.499676	0	1	0	0	CorrectCommission	1.057497	0.684898	1
419.055450	0.796104	city	2	1	0.607399	0.607399	0	1	0	0	CorrectCommission	0.534113	0.745596	1
419.851227	0.795453	mountain	5	0	0.000000	0.605882	1	0	0	0	CorrectOmission	0.541483	0.811470	1
420.646881	0.795832	city	3	1	0.550719	0.550719	0	1	0	0	CorrectCommission	0.809499	0.879574	0
421.442688	0.795796	city	4	0	0.000000	0.497503	0	0	0	1	OmissionError	1.068052	0.946825	0
422.238647	0.796113	city	8	1	0.509111	0.509111	0	1	0	0	CorrectCommission	1.011654	1.010174	0
423.034454	0.795520	city	5	1	0.648419	0.648419	0	1	0	0	CorrectCommission	0.334814	1.066750	0
423.830139	0.795813	city	7	1	1.150160	1.150160	0	1	0	0	CorrectCommission	2.102935	1.114023	0
424.625946	0.795785	city	5	1	1.108166	1.108166	0	1	0	0	CorrectCommission	1.898905	1.149937	0
425.421692	0.795735	city	9	1	1.146335	1.146335	0	1	0	0	CorrectCommission	2.084348	1.173198	0
426.217499	0.795860	city	10	0	0.000000	0.820316	0	0	0	1	OmissionError	0.500360	1.183272	0
427.013336	0.795840	city	1	1	0.449691	0.449691	0	1	0	0	CorrectCommission	1.300350	1.180483	0
427.809296	0.796049	city	6	1	0.354042	0.354042	0	1	0	0	CorrectCommission	1.765070	1.165951	0
428.605072	0.795500	city	9	1	0.450028	0.450028	0	1	0	0	CorrectCommission	1.298716	1.141566	0
429.400726	0.795823	city	7	1	0.314661	0.314661	0	1	0	0	CorrectCommission	1.956406	1.109846	0
430.196655	0.796073	city	9	1	0.549942	0.549942	0	1	0	0	CorrectCommission	0.813275	1.073686	0
430.992615	0.795830	city	10	1	0.500144	0.500144	0	1	0	0	CorrectCommission	1.055219	1.036205	0
431.788300	0.795519	mountain	3	0	0.000000	0.657449	1	0	0	0	CorrectOmission	0.290941	1.000327	0
432.583923	0.795740	city	6	1	0.760808	0.760808	0	1	0	0	CorrectCommission	0.211238	0.968666	0
433.379730	0.795859	city	7	1	0.549174	0.549174	0	1	0	0	CorrectCommission	0.817007	0.943206	0
434.175690	0.796053	city	1	1	0.897948	0.897948	0	1	0	0	CorrectCommission	0.877542	0.925194	0
434.971466	0.795518	city	10	1	0.996772	0.996772	0	1	0	0	CorrectCommission	1.357688	0.915046	0
435.767120	0.795808	city	7	0	0.000000	0.695364	0	0	0	1	OmissionError	0.106728	0.912335	0
436.562927	0.795813	city	3	1	0.499776	0.499776	0	1	0	0	CorrectCommission	1.057009	0.915957	0
437.358734	0.795762	city	7	1	0.916060	0.916060	0	1	0	0	CorrectCommission	0.965540	0.924103	0
438.154663	0.796131	city	9	0	0.000000	0.943326	0	0	0	1	OmissionError	1.098015	0.934538	0
438.950500	0.795501	city	7	1	0.748690	0.748690	0	1	0	0	CorrectCommission	0.152357	0.944781	0
439.746155	0.795845	city	6	1	0.499265	0.499265	0	1	0	0	CorrectCommission	1.059491	0.952349	0
440.541962	0.795774	city	7	1	0.466287	0.466287	0	1	0	0	CorrectCommission	1.219718	0.954908	0
441.337738	0.795742	mountain	5	1	0.304442	0.304442	0	0	1	0	CommissionError	2.006054	0.950563	0
442.133514	0.795844	city	9	1	0.517347	0.517347	0	1	0	0	CorrectCommission	0.971640	0.937967	0
442.929504	0.796106	city	6	1	0.499310	0.499310	0	1	0	0	CorrectCommission	1.059272	0.916515	0
443.725433	0.795797	city	10	1	0.996563	0.996563	0	1	0	0	CorrectCommission	1.356671	0.886383	0
444.521057	0.795445	city	8	1	0.858625	0.858625	0	1	0	0	CorrectCommission	0.686488	0.848446	0
445.316742	0.795893	city	3	1	0.915607	0.915607	0	1	0	0	CorrectCommission	0.963337	0.804270	1
446.112579	0.795796	city	4	1	0.997759	0.997759	0	1	0	0	CorrectCommission	1.362480	0.755947	1
446.908386	0.795787	city	1	1	0.748311	0.748311	0	1	0	0	CorrectCommission	0.150518	0.705810	1
447.704163	0.795813	city	9	1	0.812761	0.812761	0	1	0	0	CorrectCommission	0.463651	0.656425	1
448.499969	0.795798	city	1	1	0.702457	0.702457	0	1	0	0	CorrectCommission	0.072268	0.610164	1
449.295776	0.795816	city	7	1	0.897779	0.897779	0	1	0	0	CorrectCommission	0.876721	0.569149	1
450.091736	0.796058	city	4	1	0.797995	0.797995	0	1	0	0	CorrectCommission	0.391911	0.535033	1
450.887512	0.795543	city	3	1	0.652044	0.652044	0	1	0	0	CorrectCommission	0.317205	0.508928	1
451.683319	0.796072	city	6	1	0.661039	0.661039	0	1	0	0	CorrectCommission	0.273498	0.491335	1
452.479156	0.795594	city	7	1	0.698371	0.698371	0	1	0	0	CorrectCommission	0.092118	0.482131	1
453.274811	0.795686	city	1	1	0.712894	0.712894	0	1	0	0	CorrectCommission	0.021557	0.480731	1
454.070557	0.795845	city	6	1	0.847603	0.847603	0	1	0	0	CorrectCommission	0.632938	0.486093	1
454.866394	0.795828	city	10	1	0.797940	0.797940	0	1	0	0	CorrectCommission	0.391643	0.496896	1
455.662170	0.795706	city	6	1	0.702400	0.702400	0	1	0	0	CorrectCommission	0.072547	0.511766	1
456.457947	0.795845	city	10	1	1.046798	1.046798	0	1	0	0	CorrectCommission	1.600743	0.529510	1
457.253906	0.796067	city	8	1	0.901906	0.901906	0	1	0	0	CorrectCommission	0.896773	0.549168	1
458.049866	0.795845	city	3	1	0.748516	0.748516	0	1	0	0	CorrectCommission	0.151515	0.570310	1
458.845490	0.795437	city	7	1	0.807537	0.807537	0	1	0	0	CorrectCommission	0.438274	0.592938	1
459.641296	0.796176	city	2	1	0.712359	0.712359	0	1	0	0	CorrectCommission	0.024159	0.617501	1
460.437286	0.795775	city	1	1	0.847968	0.847968	0	1	0	0	CorrectCommission	0.634708	0.644791	1
461.233093	0.795827	city	7	1	1.101669	1.101669	0	1	0	0	CorrectCommission	1.867335	0.675648	1
462.028748	0.795485	city	5	0	0.000000	0.793082	0	0	0	1	OmissionError	0.368044	0.710757	1
462.824402	0.795809	city	9	1	0.499400	0.499400	0	1	0	0	CorrectCommission	1.058835	0.750515	1
463.620178	0.795788	city	2	1	0.797814	0.797814	0	1	0	0	CorrectCommission	0.391031	0.794609	1
464.416138	0.796111	city	1	1	0.714691	0.714691	0	1	0	0	CorrectCommission	0.012830	0.842029	0
465.212097	0.795799	city	7	1	0.649149	0.649149	0	1	0	0	CorrectCommission	0.331268	0.890917	0
466.007751	0.795507	city	4	1	0.715844	0.715844	0	1	0	0	CorrectCommission	0.007226	0.938705	0
466.803406	0.795794	city	2	1	0.648807	0.648807	0	1	0	0	CorrectCommission	0.332929	0.982363	0
467.599335	0.796107	mountain	8	0	0.000000	0.981182	1	0	0	0	CorrectOmission	1.281943	1.018772	0
468.395172	0.795521	city	7	1	1.344671	1.344671	0	1	0	0	CorrectCommission	3.047980	1.045133	0
469.190826	0.795789	mountain	4	0	0.000000	1.370973	1	0	0	0	CorrectOmission	3.175775	1.059364	0
469.986603	0.795794	mountain	8	0	0.000000	1.182366	1	0	0	0	CorrectOmission	2.259408	1.060427	0
470.782440	0.795896	city	9	1	0.901121	0.901121	0	1	0	0	CorrectCommission	0.892960	1.048497	0
471.578278	0.795730	city	1	1	0.649516	0.649516	0	1	0	0	CorrectCommission	0.329486	1.024793	0
472.374023	0.795765	city	3	1	0.648631	0.648631	0	1	0	0	CorrectCommission	0.333787	0.991348	0
473.169769	0.795765	city	2	1	0.601608	0.601608	0	1	0	0	CorrectCommission	0.562251	0.950783	0
473.965607	0.795887	city	10	1	0.698324	0.698324	0	1	0	0	CorrectCommission	0.092349	0.905845	0
474.761444	0.795788	city	9	1	0.549314	0.549314	0	1	0	0	CorrectCommission	0.816325	0.859281	0
475.557220	0.795795	city	8	1	1.046529	1.046529	0	1	0	0	CorrectCommission	1.599433	0.813558	1
476.352997	0.795730	city	1	1	0.967224	0.967224	0	1	0	0	CorrectCommission	1.214124	0.770780	1
477.148926	0.796148	city	5	1	0.797906	0.797906	0	1	0	0	CorrectCommission	0.391480	0.732738	1
477.944763	0.795526	city	3	1	0.859484	0.859484	0	1	0	0	CorrectCommission	0.690662	0.700905	1
478.740570	0.796098	city	1	1	0.901862	0.901862	0	1	0	0	CorrectCommission	0.896560	0.676383	1
479.536377	0.795506	mountain	1	0	0.000000	0.832381	1	0	0	0	CorrectOmission	0.558977	0.660060	1
480.332001	0.795727	city	7	1	0.748879	0.748879	0	1	0	0	CorrectCommission	0.153280	0.652566	1
481.127960	0.796165	city	2	1	0.749199	0.749199	0	1	0	0	CorrectCommission	0.154832	0.654272	1
481.923798	0.795533	city	10	1	0.697983	0.697983	0	1	0	0	CorrectCommission	0.094003	0.665207	1
482.719421	0.795714	city	1	1	0.797851	0.797851	0	1	0	0	CorrectCommission	0.391213	0.685025	1
483.515228	0.795882	city	4	1	0.847581	0.847581	0	1	0	0	CorrectCommission	0.632832	0.713019	1
484.311066	0.795790	city	2	1	0.969178	0.969178	0	1	0	0	CorrectCommission	1.223618	0.748115	1
485.106842	0.795785	city	10	1	0.798629	0.798629	0	1	0	0	CorrectCommission	0.394990	0.788864	1
485.902618	0.795800	city	7	1	1.046589	1.046589	0	1	0	0	CorrectCommission	1.599727	0.833568	0
486.698456	0.795850	city	8	1	0.898508	0.898508	0	1	0	0	CorrectCommission	0.880261	0.880261	0
