onset	duration	trial_type	image_type	Press	ReactionTime	ReactionTime_Interpolated	CorrectOmission	CorrectCommission	CommissionError	OmissionError	response_type	nonsmoothVarianceTimeCourse	VarianceTimeCourse	In_the_Zone
8.421834	0.795766	city	7	1	0.598914	0.598914	0	1	0	0	CorrectCommission	0.109372	0.109372	1
9.217645	0.795855	city	5	1	0.502620	0.502620	0	1	0	0	CorrectCommission	0.525782	0.196191	1
10.013425	0.795705	city	1	1	0.449716	0.449716	0	1	0	0	CorrectCommission	0.754555	0.280125	1
10.809208	0.795861	mountain	2	1	0.362275	0.362275	0	0	1	0	CommissionError	1.132684	0.358673	1
11.605027	0.795777	city	6	1	0.363400	0.363400	0	1	0	0	CorrectCommission	1.127818	0.430032	1
12.400972	0.796114	city	2	1	0.408154	0.408154	0	1	0	0	CorrectCommission	0.934285	0.493299	1
13.196761	0.795464	city	10	1	0.406440	0.406440	0	1	0	0	CorrectCommission	0.941698	0.548509	1
13.992393	0.795799	city	9	1	0.649353	0.649353	0	1	0	0	CorrectCommission	0.108745	0.596522	1
14.788235	0.795884	city	2	1	0.550017	0.550017	0	1	0	0	CorrectCommission	0.320818	0.638820	1
15.584209	0.796067	city	6	1	0.499364	0.499364	0	1	0	0	CorrectCommission	0.539862	0.677131	1
16.380129	0.795770	city	10	1	0.456592	0.456592	0	1	0	0	CorrectCommission	0.724824	0.713166	1
17.175791	0.795555	city	6	1	0.500075	0.500075	0	1	0	0	CorrectCommission	0.536788	0.748336	1
17.971437	0.795739	city	3	1	0.549180	0.549180	0	1	0	0	CorrectCommission	0.324441	0.783591	1
18.767239	0.795862	city	9	1	0.450517	0.450517	0	1	0	0	CorrectCommission	0.751093	0.819284	0
19.563068	0.795800	city	3	1	0.359523	0.359523	0	1	0	0	CorrectCommission	1.144584	0.855129	0
20.359009	0.796082	city	6	1	0.353565	0.353565	0	1	0	0	CorrectCommission	1.170350	0.890300	0
21.154818	0.795536	city	5	1	0.365175	0.365175	0	1	0	0	CorrectCommission	1.120142	0.923604	0
21.950470	0.795766	city	7	1	0.399862	0.399862	0	1	0	0	CorrectCommission	0.970145	0.953585	0
22.746258	0.795810	city	1	1	0.400731	0.400731	0	1	0	0	CorrectCommission	0.966387	0.978701	0
23.542055	0.795784	city	5	1	0.400342	0.400342	0	1	0	0	CorrectCommission	0.968067	0.997456	0
24.338007	0.796120	city	4	1	0.353865	0.353865	0	1	0	0	CorrectCommission	1.169051	1.008537	0
25.133944	0.795752	city	8	1	0.350744	0.350744	0	1	0	0	CorrectCommission	1.182548	1.010917	0
25.929562	0.795486	city	6	1	0.351912	0.351912	0	1	0	0	CorrectCommission	1.177496	1.003947	0
26.725216	0.795823	city	3	1	0.350225	0.350225	0	1	0	0	CorrectCommission	1.184793	0.987407	0
27.521057	0.795859	city	8	1	0.353226	0.353226	0	1	0	0	CorrectCommission	1.171816	0.961562	0
28.317032	0.796088	city	1	1	0.350318	0.350318	0	1	0	0	CorrectCommission	1.184388	0.927142	0
29.112972	0.795792	city	9	1	0.300560	0.300560	0	1	0	0	CorrectCommission	1.399561	0.885323	0
29.908773	0.795812	mountain	7	1	0.349823	0.349823	0	0	1	0	CommissionError	1.186533	0.837684	0
30.704420	0.795479	city	10	1	0.499755	0.499755	0	1	0	0	CorrectCommission	0.538169	0.786101	1
31.500055	0.795793	city	7	1	0.503154	0.503154	0	1	0	0	CorrectCommission	0.523473	0.732636	1
32.296013	0.796118	city	6	1	0.667289	0.667289	0	1	0	0	CorrectCommission	0.186308	0.679351	1
33.091824	0.795511	city	5	1	0.499158	0.499158	0	1	0	0	CorrectCommission	0.540752	0.628203	1
33.887466	0.795772	city	3	1	0.464974	0.464974	0	1	0	0	CorrectCommission	0.688575	0.580886	1
34.683273	0.795843	city	9	1	0.550065	0.550065	0	1	0	0	CorrectCommission	0.320613	0.538785	1
35.479095	0.795799	city	3	1	0.549020	0.549020	0	1	0	0	CorrectCommission	0.325132	0.502959	1
36.274937	0.795880	city	1	1	0.503382	0.503382	0	1	0	0	CorrectCommission	0.522486	0.474063	1
37.070881	0.796010	mountain	9	0	0.000000	0.506604	1	0	0	0	CorrectOmission	0.508552	0.452391	1
37.866604	0.795442	city	8	1	0.549612	0.549612	0	1	0	0	CorrectCommission	0.322569	0.437947	1
38.662270	0.795882	mountain	6	0	0.000000	0.623332	1	0	0	0	CorrectOmission	0.003778	0.430518	1
39.458096	0.795771	city	6	1	0.649321	0.649321	0	1	0	0	CorrectCommission	0.108609	0.429752	1
40.253895	0.795828	city	8	1	0.549138	0.549138	0	1	0	0	CorrectCommission	0.324621	0.435233	1
41.049683	0.795749	city	1	1	0.499369	0.499369	0	1	0	0	CorrectCommission	0.539838	0.446571	1
41.845444	0.795777	city	8	1	0.510890	0.510890	0	1	0	0	CorrectCommission	0.490017	0.463469	1
42.641281	0.795893	city	10	1	0.417387	0.417387	0	1	0	0	CorrectCommission	0.894360	0.485763	1
43.437088	0.795723	mountain	5	0	0.000000	0.508479	1	0	0	0	CorrectOmission	0.500446	0.513392	1
44.232861	0.795817	city	4	1	0.598873	0.598873	0	1	0	0	CorrectCommission	0.109547	0.546404	1
45.028664	0.795795	city	10	1	0.503278	0.503278	0	1	0	0	CorrectCommission	0.522937	0.584853	1
45.824493	0.795866	city	2	1	0.450422	0.450422	0	1	0	0	CorrectCommission	0.751503	0.628676	1
46.620335	0.795812	city	6	1	0.549412	0.549412	0	1	0	0	CorrectCommission	0.323433	0.677634	1
47.416271	0.796061	city	7	1	0.499593	0.499593	0	1	0	0	CorrectCommission	0.538869	0.731288	1
48.212059	0.795512	city	4	1	0.504002	0.504002	0	1	0	0	CorrectCommission	0.519805	0.788930	1
49.007729	0.795827	city	3	1	0.500272	0.500272	0	1	0	0	CorrectCommission	0.535933	0.849586	0
49.803501	0.795721	city	2	1	0.449916	0.449916	0	1	0	0	CorrectCommission	0.753690	0.912164	0
50.599430	0.796133	city	7	1	0.301409	0.301409	0	1	0	0	CorrectCommission	1.395891	0.975472	0
51.395393	0.795798	city	3	1	0.303058	0.303058	0	1	0	0	CorrectCommission	1.388758	1.038323	0
52.191063	0.795544	city	8	1	0.313391	0.313391	0	1	0	0	CorrectCommission	1.344076	1.099668	0
52.986725	0.795779	city	2	1	0.301079	0.301079	0	1	0	0	CorrectCommission	1.397319	1.158602	0
53.782661	0.796091	city	4	1	0.301130	0.301130	0	1	0	0	CorrectCommission	1.397098	1.214320	0
54.578434	0.795451	city	2	1	0.350151	0.350151	0	1	0	0	CorrectCommission	1.185111	1.266102	0
55.374065	0.795811	city	7	1	0.351409	0.351409	0	1	0	0	CorrectCommission	1.179672	1.313231	0
56.170048	0.796155	city	6	1	0.355100	0.355100	0	1	0	0	CorrectCommission	1.163711	1.354898	0
56.965878	0.795509	city	5	1	0.350246	0.350246	0	1	0	0	CorrectCommission	1.184701	1.390166	0
57.761532	0.795797	city	1	1	0.315587	0.315587	0	1	0	0	CorrectCommission	1.334581	1.417956	0
58.557331	0.795803	city	10	1	0.302706	0.302706	0	1	0	0	CorrectCommission	1.390283	1.437152	0
59.353142	0.795818	city	2	1	1.048035	1.048035	0	1	0	0	CorrectCommission	1.832791	1.446713	0
60.148941	0.795781	city	1	1	1.096569	1.096569	0	1	0	0	CorrectCommission	2.042668	1.445806	0
60.944729	0.795790	city	10	1	1.098830	1.098830	0	1	0	0	CorrectCommission	2.052446	1.434007	0
61.740509	0.795772	city	7	1	1.058401	1.058401	0	1	0	0	CorrectCommission	1.877615	1.411415	0
62.536316	0.795839	city	8	1	1.099746	1.099746	0	1	0	0	CorrectCommission	2.056410	1.378685	0
63.332146	0.795822	city	3	1	1.012313	1.012313	0	1	0	0	CorrectCommission	1.678317	1.336985	0
64.127945	0.795775	mountain	7	0	0.000000	0.658851	1	0	0	0	CorrectOmission	0.149819	1.287956	0
64.923752	0.795836	city	1	1	0.350885	0.350885	0	1	0	0	CorrectCommission	1.181940	1.233567	0
65.719559	0.795777	city	9	1	0.399937	0.399937	0	1	0	0	CorrectCommission	0.969818	1.175855	0
66.515358	0.795820	city	4	1	0.400236	0.400236	0	1	0	0	CorrectCommission	0.968528	1.116906	0
67.311157	0.795779	city	7	1	0.350676	0.350676	0	1	0	0	CorrectCommission	1.182841	1.058697	0
68.106918	0.795744	mountain	2	1	0.302554	0.302554	0	0	1	0	CommissionError	1.390938	1.003032	0
68.902870	0.796171	city	10	1	0.453366	0.453366	0	1	0	0	CorrectCommission	0.738773	0.951521	0
69.698853	0.795791	city	3	1	0.409510	0.409510	0	1	0	0	CorrectCommission	0.928423	0.905595	0
70.494499	0.795501	mountain	9	1	0.403486	0.403486	0	0	1	0	CommissionError	0.954471	0.866450	0
71.290146	0.795794	city	8	1	0.766037	0.766037	0	1	0	0	CorrectCommission	0.613329	0.835046	0
72.085960	0.795839	mountain	2	0	0.000000	0.765961	1	0	0	0	CorrectOmission	0.613002	0.812097	0
72.881874	0.795976	city	1	1	0.599083	0.599083	0	1	0	0	CorrectCommission	0.108641	0.798010	1
73.677681	0.795641	city	3	1	0.461225	0.461225	0	1	0	0	CorrectCommission	0.704787	0.792899	1
74.473389	0.795780	city	10	1	0.472463	0.472463	0	1	0	0	CorrectCommission	0.656193	0.796544	1
75.269157	0.795756	city	3	1	0.502578	0.502578	0	1	0	0	CorrectCommission	0.525963	0.808479	0
76.065102	0.796129	city	6	1	0.451119	0.451119	0	1	0	0	CorrectCommission	0.748489	0.828007	0
76.861061	0.795792	city	3	1	0.449802	0.449802	0	1	0	0	CorrectCommission	0.754185	0.854301	0
77.656715	0.795517	city	5	1	0.399729	0.399729	0	1	0	0	CorrectCommission	0.970720	0.886458	0
78.452385	0.795814	city	6	1	0.366621	0.366621	0	1	0	0	CorrectCommission	1.113890	0.923558	0
79.248329	0.796087	city	2	1	0.353922	0.353922	0	1	0	0	CorrectCommission	1.168805	0.964679	0
80.044121	0.795484	city	9	1	0.399488	0.399488	0	1	0	0	CorrectCommission	0.971763	1.008856	0
80.839775	0.795832	city	10	1	0.350411	0.350411	0	1	0	0	CorrectCommission	1.183990	1.055034	0
81.635551	0.795728	city	9	1	0.400361	0.400361	0	1	0	0	CorrectCommission	0.967985	1.101988	0
82.431480	0.796121	city	6	1	0.452824	0.452824	0	1	0	0	CorrectCommission	0.741119	1.148214	0
83.227325	0.795572	city	8	1	0.400418	0.400418	0	1	0	0	CorrectCommission	0.967738	1.191922	0
84.023148	0.796077	city	10	1	0.403153	0.403153	0	1	0	0	CorrectCommission	0.955913	1.231048	0
84.818947	0.795521	city	6	1	0.399595	0.399595	0	1	0	0	CorrectCommission	0.971298	1.263404	0
85.614746	0.796075	city	2	1	1.014065	1.014065	0	1	0	0	CorrectCommission	1.685894	1.286855	0
86.410507	0.795442	city	1	1	1.096433	1.096433	0	1	0	0	CorrectCommission	2.042082	1.299592	0
87.206169	0.795880	city	3	1	1.109892	1.109892	0	1	0	0	CorrectCommission	2.100285	1.300405	0
88.002151	0.796085	city	9	1	1.096259	1.096259	0	1	0	0	CorrectCommission	2.041330	1.288917	0
88.798088	0.795796	city	10	1	0.997948	0.997948	0	1	0	0	CorrectCommission	1.616198	1.265746	0
89.593735	0.795491	city	7	1	0.996450	0.996450	0	1	0	0	CorrectCommission	1.609717	1.232539	0
90.389381	0.795799	city	10	1	0.951403	0.951403	0	1	0	0	CorrectCommission	1.414920	1.191860	0
91.185341	0.796126	mountain	10	0	0.000000	0.671846	1	0	0	0	CorrectOmission	0.206015	1.146972	0
91.981155	0.795505	city	1	1	0.417879	0.417879	0	1	0	0	CorrectCommission	0.892234	1.101609	0
92.776787	0.795750	city	6	1	0.449600	0.449600	0	1	0	0	CorrectCommission	0.755060	1.059528	0
93.572586	0.795851	city	5	1	0.400275	0.400275	0	1	0	0	CorrectCommission	0.968360	1.024267	0
94.368393	0.795774	city	10	1	0.415832	0.415832	0	1	0	0	CorrectCommission	0.901086	0.998801	0
95.164192	0.795823	city	4	1	0.457222	0.457222	0	1	0	0	CorrectCommission	0.722100	0.985337	0
95.960144	0.796073	city	1	1	0.404068	0.404068	0	1	0	0	CorrectCommission	0.951954	0.985095	0
96.755951	0.795542	city	7	1	0.502972	0.502972	0	1	0	0	CorrectCommission	0.524257	0.998267	0
97.551613	0.795783	city	9	1	0.509224	0.509224	0	1	0	0	CorrectCommission	0.497223	1.024030	0
98.347389	0.795776	city	3	1	0.499700	0.499700	0	1	0	0	CorrectCommission	0.538410	1.060583	0
99.143341	0.796129	city	9	1	0.461059	0.461059	0	1	0	0	CorrectCommission	0.705504	1.105340	0
99.939163	0.795516	city	4	1	0.359301	0.359301	0	1	0	0	CorrectCommission	1.145546	1.155159	0
100.734795	0.795741	city	6	1	0.300417	0.300417	0	1	0	0	CorrectCommission	1.400180	1.206558	0
101.530586	0.795839	city	1	1	1.046880	1.046880	0	1	0	0	CorrectCommission	1.827796	1.256044	0
102.326416	0.795819	city	3	1	1.046428	1.046428	0	1	0	0	CorrectCommission	1.825840	1.300363	0
103.122238	0.795827	city	9	1	0.999967	0.999967	0	1	0	0	CorrectCommission	1.624929	1.336728	0
103.918045	0.795790	city	7	1	1.011924	1.011924	0	1	0	0	CorrectCommission	1.676632	1.362988	0
104.713982	0.796078	city	9	1	1.012811	1.012811	0	1	0	0	CorrectCommission	1.680469	1.377694	0
105.509872	0.795703	city	2	1	0.947037	0.947037	0	1	0	0	CorrectCommission	1.396038	1.380155	0
106.305519	0.795590	city	3	1	0.897176	0.897176	0	1	0	0	CorrectCommission	1.180421	1.370441	0
107.101242	0.795853	city	10	1	0.950858	0.950858	0	1	0	0	CorrectCommission	1.412561	1.349279	0
107.897057	0.795781	city	5	1	0.996650	0.996650	0	1	0	0	CorrectCommission	1.610585	1.317969	0
108.692986	0.796076	city	6	1	0.996987	0.996987	0	1	0	0	CorrectCommission	1.612042	1.278339	0
109.488914	0.795776	city	9	1	0.997383	0.997383	0	1	0	0	CorrectCommission	1.613755	1.232543	0
110.284714	0.795837	city	1	1	1.046967	1.046967	0	1	0	0	CorrectCommission	1.828172	1.182971	0
111.080391	0.795518	mountain	8	0	0.000000	0.722279	1	0	0	0	CorrectOmission	0.424105	1.132078	0
111.876053	0.795806	city	10	1	0.400617	0.400617	0	1	0	0	CorrectCommission	0.966877	1.082314	0
112.671844	0.795777	city	7	1	0.459279	0.459279	0	1	0	0	CorrectCommission	0.713204	1.035832	0
113.467644	0.795809	city	6	1	0.499318	0.499318	0	1	0	0	CorrectCommission	0.540058	0.994456	0
114.263596	0.796095	city	7	1	0.452311	0.452311	0	1	0	0	CorrectCommission	0.743334	0.959518	0
115.059547	0.795809	mountain	3	1	0.349910	0.349910	0	0	1	0	CommissionError	1.186156	0.931861	0
115.855217	0.795539	city	10	1	0.499419	0.499419	0	1	0	0	CorrectCommission	0.539623	0.911847	0
116.650871	0.795768	city	4	1	0.456324	0.456324	0	1	0	0	CorrectCommission	0.725983	0.899431	0
117.446785	0.796062	city	10	1	0.449974	0.449974	0	1	0	0	CorrectCommission	0.753441	0.894184	0
118.242561	0.795493	city	7	1	0.401288	0.401288	0	1	0	0	CorrectCommission	0.963978	0.895425	0
119.038368	0.796122	mountain	2	1	0.352136	0.352136	0	0	1	0	CommissionError	1.176528	0.902292	0
119.834167	0.795476	city	8	1	0.499117	0.499117	0	1	0	0	CorrectCommission	0.540928	0.913857	0
120.629974	0.796130	city	3	1	0.449695	0.449695	0	1	0	0	CorrectCommission	0.754646	0.929184	0
121.425789	0.795502	city	8	1	0.356532	0.356532	0	1	0	0	CorrectCommission	1.157519	0.947281	0
122.221443	0.795812	city	9	1	0.400228	0.400228	0	1	0	0	CorrectCommission	0.968559	0.967112	0
123.017250	0.795798	city	1	1	0.351016	0.351016	0	1	0	0	CorrectCommission	1.181370	0.987595	0
123.813057	0.795823	mountain	4	1	0.309822	0.309822	0	0	1	0	CommissionError	1.359510	1.007508	0
124.608871	0.795795	city	1	1	0.499428	0.499428	0	1	0	0	CorrectCommission	0.539585	1.025488	0
125.404800	0.796072	city	7	1	0.551323	0.551323	0	1	0	0	CorrectCommission	0.315171	1.040070	0
126.200615	0.795553	city	2	1	0.449342	0.449342	0	1	0	0	CorrectCommission	0.756175	1.049718	0
126.996300	0.795816	city	9	1	1.015674	1.015674	0	1	0	0	CorrectCommission	1.692850	1.052983	0
127.792091	0.795765	city	5	1	1.063980	1.063980	0	1	0	0	CorrectCommission	1.901744	1.048643	0
128.587875	0.795811	city	9	1	1.096294	1.096294	0	1	0	0	CorrectCommission	2.041482	1.036036	0
129.383682	0.795804	mountain	10	0	0.000000	0.687595	1	0	0	0	CorrectOmission	0.274119	1.015159	0
130.179489	0.795810	city	2	1	0.450386	0.450386	0	1	0	0	CorrectCommission	0.751658	0.986921	0
130.975250	0.795714	city	9	1	0.997171	0.997171	0	1	0	0	CorrectCommission	1.612838	0.953086	0
131.771042	0.795850	city	7	1	0.964899	0.964899	0	1	0	0	CorrectCommission	1.473282	0.916299	0
132.566849	0.795784	city	2	1	0.909759	0.909759	0	1	0	0	CorrectCommission	1.234834	0.879989	0
133.362656	0.795825	city	5	1	0.758457	0.758457	0	1	0	0	CorrectCommission	0.580549	0.848116	0
134.158463	0.795786	city	1	1	0.613526	0.613526	0	1	0	0	CorrectCommission	0.046182	0.824839	0
134.954269	0.795839	city	10	1	0.748032	0.748032	0	1	0	0	CorrectCommission	0.535468	0.814068	0
135.750214	0.796047	city	9	1	0.712728	0.712728	0	1	0	0	CorrectCommission	0.382800	0.819071	0
136.546005	0.795529	city	8	1	0.614014	0.614014	0	1	0	0	CorrectCommission	0.044072	0.842129	0
137.341705	0.795858	city	2	1	0.549074	0.549074	0	1	0	0	CorrectCommission	0.324897	0.884246	0
138.137482	0.795698	city	5	1	0.500051	0.500051	0	1	0	0	CorrectCommission	0.536892	0.944906	0
138.933228	0.795807	city	6	1	0.499791	0.499791	0	1	0	0	CorrectCommission	0.538014	1.022029	0
139.729065	0.795867	city	4	1	0.408017	0.408017	0	1	0	0	CorrectCommission	0.934879	1.112060	0
140.524887	0.795757	city	5	1	0.405788	0.405788	0	1	0	0	CorrectCommission	0.944516	1.210190	0
141.320663	0.795796	city	2	1	0.352940	0.352940	0	1	0	0	CorrectCommission	1.173053	1.310668	0
142.116470	0.795839	city	8	1	1.055884	1.055884	0	1	0	0	CorrectCommission	1.866731	1.407268	0
142.912445	0.796110	city	5	1	1.046604	1.046604	0	1	0	0	CorrectCommission	1.826603	1.493734	0
143.708389	0.795767	city	9	1	1.160401	1.160401	0	1	0	0	CorrectCommission	2.318704	1.564318	0
144.504044	0.795533	city	4	1	1.160002	1.160002	0	1	0	0	CorrectCommission	2.316975	1.614178	0
145.299713	0.795809	city	7	1	1.098805	1.098805	0	1	0	0	CorrectCommission	2.052338	1.639820	0
146.095505	0.795784	city	5	1	1.146414	1.146414	0	1	0	0	CorrectCommission	2.258216	1.639349	0
146.891296	0.795794	city	8	1	1.113684	1.113684	0	1	0	0	CorrectCommission	2.116681	1.612642	0
147.687103	0.795827	city	10	1	1.145978	1.145978	0	1	0	0	CorrectCommission	2.256334	1.561298	0
148.482910	0.795786	city	8	1	1.146240	1.146240	0	1	0	0	CorrectCommission	2.257467	1.488424	0
149.278687	0.795753	city	1	1	1.196655	1.196655	0	1	0	0	CorrectCommission	2.475476	1.398363	0
150.074509	0.795893	city	3	0	0.000000	0.824350	0	0	0	1	OmissionError	0.865496	1.296249	0
150.870316	0.795724	city	1	1	0.451294	0.451294	0	1	0	0	CorrectCommission	0.747735	1.187591	0
151.666077	0.795803	city	4	1	0.499453	0.499453	0	1	0	0	CorrectCommission	0.539478	1.077673	0
152.462036	0.796122	city	8	1	0.550499	0.550499	0	1	0	0	CorrectCommission	0.318737	0.971150	0
153.257843	0.795491	city	9	1	0.549685	0.549685	0	1	0	0	CorrectCommission	0.322254	0.871736	0
154.053513	0.795830	city	7	1	0.514899	0.514899	0	1	0	0	CorrectCommission	0.472682	0.782041	1
154.849289	0.795747	city	1	1	0.611026	0.611026	0	1	0	0	CorrectCommission	0.056994	0.703541	1
155.645111	0.795880	city	4	1	0.847824	0.847824	0	1	0	0	CorrectCommission	0.967005	0.636727	1
156.440933	0.795774	city	3	1	0.748100	0.748100	0	1	0	0	CorrectCommission	0.535764	0.581269	1
157.236740	0.795844	city	7	1	0.798663	0.798663	0	1	0	0	CorrectCommission	0.754417	0.536379	1
158.032516	0.795705	city	1	1	0.748027	0.748027	0	1	0	0	CorrectCommission	0.535449	0.501013	1
158.828323	0.795889	city	5	1	0.766630	0.766630	0	1	0	0	CorrectCommission	0.615894	0.474108	1
159.624130	0.795742	city	7	1	0.714793	0.714793	0	1	0	0	CorrectCommission	0.391734	0.454696	1
160.419937	0.795861	city	8	1	0.648659	0.648659	0	1	0	0	CorrectCommission	0.105742	0.441995	1
161.215759	0.795802	city	4	1	0.598816	0.598816	0	1	0	0	CorrectCommission	0.109793	0.435318	1
162.011566	0.795807	city	2	1	0.549439	0.549439	0	1	0	0	CorrectCommission	0.323319	0.434022	1
162.807510	0.796064	city	5	1	0.549348	0.549348	0	1	0	0	CorrectCommission	0.323713	0.437429	1
163.603287	0.795483	city	1	1	0.553363	0.553363	0	1	0	0	CorrectCommission	0.306349	0.444756	1
164.399078	0.796114	city	7	1	0.555657	0.555657	0	1	0	0	CorrectCommission	0.296429	0.455094	1
165.194870	0.795473	city	8	1	0.513785	0.513785	0	1	0	0	CorrectCommission	0.477500	0.467392	1
165.990540	0.795870	city	1	1	0.499495	0.499495	0	1	0	0	CorrectCommission	0.539293	0.480511	1
166.786377	0.795804	city	10	1	0.466594	0.466594	0	1	0	0	CorrectCommission	0.681570	0.493319	1
167.582169	0.795763	city	3	1	0.462197	0.462197	0	1	0	0	CorrectCommission	0.700586	0.504823	1
168.377960	0.795846	city	6	1	0.499670	0.499670	0	1	0	0	CorrectCommission	0.538536	0.514225	1
169.173920	0.796062	city	9	1	0.453564	0.453564	0	1	0	0	CorrectCommission	0.737915	0.521011	1
169.969696	0.795489	city	4	1	0.449280	0.449280	0	1	0	0	CorrectCommission	0.756441	0.524979	1
170.765335	0.795776	city	7	1	0.453397	0.453397	0	1	0	0	CorrectCommission	0.738640	0.526273	1
171.561279	0.796112	mountain	4	0	0.000000	0.578397	1	0	0	0	CorrectOmission	0.198095	0.525299	1
172.357239	0.795825	mountain	10	1	0.701002	0.701002	0	0	1	0	CommissionError	0.332095	0.522760	1
173.152908	0.795514	city	2	1	0.697936	0.697936	0	1	0	0	CorrectCommission	0.318835	0.519501	1
173.948578	0.795830	city	6	1	0.648567	0.648567	0	1	0	0	CorrectCommission	0.105348	0.516538	1
174.744537	0.796070	mountain	8	0	0.000000	0.830637	1	0	0	0	CorrectOmission	0.892684	0.514968	1
175.540298	0.795456	city	9	1	0.958885	0.958885	0	1	0	0	CorrectCommission	1.447273	0.515898	1
176.335953	0.795868	city	2	1	0.748049	0.748049	0	1	0	0	CorrectCommission	0.535542	0.520368	1
177.131775	0.795765	city	3	1	0.615260	0.615260	0	1	0	0	CorrectCommission	0.038684	0.529320	1
177.927567	0.795810	city	7	1	0.616531	0.616531	0	1	0	0	CorrectCommission	0.033188	0.543436	1
178.723343	0.795756	city	6	1	0.599870	0.599870	0	1	0	0	CorrectCommission	0.105235	0.563003	1
179.519150	0.795858	city	2	1	0.463599	0.463599	0	1	0	0	CorrectCommission	0.694523	0.587822	1
180.314941	0.795730	mountain	2	0	0.000000	0.502809	1	0	0	0	CorrectOmission	0.524965	0.617153	1
181.110901	0.796164	city	3	1	0.553220	0.553220	0	1	0	0	CorrectCommission	0.306966	0.649750	1
181.906860	0.795769	city	4	1	0.450554	0.450554	0	1	0	0	CorrectCommission	0.750933	0.683900	1
182.702499	0.795519	city	5	1	0.449370	0.449370	0	1	0	0	CorrectCommission	0.756052	0.717519	1
183.498138	0.795756	city	1	1	0.451122	0.451122	0	1	0	0	CorrectCommission	0.748476	0.748385	1
184.293945	0.795857	city	5	1	0.450076	0.450076	0	1	0	0	CorrectCommission	0.753002	0.774330	1
185.089798	0.795827	city	6	1	0.354318	0.354318	0	1	0	0	CorrectCommission	1.167094	0.793466	1
185.885574	0.795735	city	7	1	1.047781	1.047781	0	1	0	0	CorrectCommission	1.831693	0.804371	0
186.681335	0.795793	mountain	2	0	0.000000	0.835313	1	0	0	0	CorrectOmission	0.912904	0.806238	0
187.477142	0.795828	city	10	1	0.406560	0.406560	0	1	0	0	CorrectCommission	0.941178	0.799031	1
188.272964	0.795798	city	4	1	0.451169	0.451169	0	1	0	0	CorrectCommission	0.748272	0.783430	1
189.068771	0.795817	mountain	10	1	0.414375	0.414375	0	0	1	0	CommissionError	0.907386	0.760817	1
189.864594	0.795851	mountain	8	1	0.468836	0.468836	0	0	1	0	CommissionError	0.671877	0.733146	1
190.660431	0.795813	city	6	1	0.860522	0.860522	0	1	0	0	CorrectCommission	1.021916	0.702815	1
191.456223	0.795780	city	7	1	0.699856	0.699856	0	1	0	0	CorrectCommission	0.327139	0.672476	1
192.251999	0.795773	city	2	1	0.550269	0.550269	0	1	0	0	CorrectCommission	0.319732	0.644877	1
193.047821	0.795847	city	1	1	0.459149	0.459149	0	1	0	0	CorrectCommission	0.713767	0.622616	1
193.843613	0.795738	city	4	1	0.499345	0.499345	0	1	0	0	CorrectCommission	0.539942	0.607996	1
194.639404	0.795843	city	10	1	0.555847	0.555847	0	1	0	0	CorrectCommission	0.295608	0.602893	1
195.435226	0.795809	city	8	1	0.549496	0.549496	0	1	0	0	CorrectCommission	0.323074	0.608553	1
196.231033	0.795799	city	10	1	0.499684	0.499684	0	1	0	0	CorrectCommission	0.538479	0.625465	1
197.026825	0.795799	city	4	1	0.549454	0.549454	0	1	0	0	CorrectCommission	0.323253	0.653275	1
197.822617	0.795766	city	2	1	0.550007	0.550007	0	1	0	0	CorrectCommission	0.320862	0.690772	1
198.618393	0.795801	city	7	1	0.549566	0.549566	0	1	0	0	CorrectCommission	0.322770	0.735894	1
199.414215	0.795835	city	8	1	0.507182	0.507182	0	1	0	0	CorrectCommission	0.506053	0.785906	1
200.210007	0.795770	city	5	1	0.421939	0.421939	0	1	0	0	CorrectCommission	0.874675	0.837595	0
201.005951	0.796117	city	9	1	0.399999	0.399999	0	1	0	0	CorrectCommission	0.969553	0.887557	0
201.801773	0.795511	city	6	1	0.351676	0.351676	0	1	0	0	CorrectCommission	1.178518	0.932566	0
202.597412	0.795772	city	10	1	0.350906	0.350906	0	1	0	0	CorrectCommission	1.181846	0.969901	0
203.393356	0.796130	city	2	1	1.050262	1.050262	0	1	0	0	CorrectCommission	1.842421	0.997624	0
204.189178	0.795488	city	7	1	0.996430	0.996430	0	1	0	0	CorrectCommission	1.609631	1.014840	0
204.984833	0.795822	city	2	1	0.997609	0.997609	0	1	0	0	CorrectCommission	1.614732	1.021760	0
205.780624	0.795779	city	5	1	0.947667	0.947667	0	1	0	0	CorrectCommission	1.398762	1.019667	0
206.576569	0.796104	city	2	1	0.897493	0.897493	0	1	0	0	CorrectCommission	1.181791	1.010748	0
207.372391	0.795544	city	1	1	0.807438	0.807438	0	1	0	0	CorrectCommission	0.792363	0.997804	0
208.168045	0.795764	city	3	1	0.716211	0.716211	0	1	0	0	CorrectCommission	0.397862	0.983859	0
208.963837	0.795812	city	10	1	0.599563	0.599563	0	1	0	0	CorrectCommission	0.106564	0.971846	0
209.759613	0.795730	city	2	1	0.516380	0.516380	0	1	0	0	CorrectCommission	0.466278	0.964241	0
210.555557	0.796160	city	6	1	0.450003	0.450003	0	1	0	0	CorrectCommission	0.753318	0.962812	0
211.351532	0.795813	city	9	1	0.399686	0.399686	0	1	0	0	CorrectCommission	0.970906	0.968523	0
212.147171	0.795453	city	2	1	1.048777	1.048777	0	1	0	0	CorrectCommission	1.836000	0.981496	0
212.942963	0.796138	mountain	8	0	0.000000	0.968937	1	0	0	0	CorrectOmission	1.490744	1.001046	0
213.738815	0.795549	city	4	1	0.618031	0.618031	0	1	0	0	CorrectCommission	0.026703	1.025858	0
214.534454	0.795752	city	10	1	0.453922	0.453922	0	1	0	0	CorrectCommission	0.736368	1.054161	0
215.330261	0.795834	city	5	1	0.409297	0.409297	0	1	0	0	CorrectCommission	0.929344	1.083803	0
216.126083	0.795817	city	6	1	0.453814	0.453814	0	1	0	0	CorrectCommission	0.736836	1.112561	0
216.922012	0.796056	city	2	1	0.354218	0.354218	0	1	0	0	CorrectCommission	1.167527	1.138347	0
217.717804	0.795532	city	7	1	1.052803	1.052803	0	1	0	0	CorrectCommission	1.853412	1.159354	0
218.513458	0.795767	city	1	1	1.050587	1.050587	0	1	0	0	CorrectCommission	1.843828	1.174260	0
219.309250	0.795803	city	10	1	1.149233	1.149233	0	1	0	0	CorrectCommission	2.270409	1.182372	0
220.105026	0.795757	city	9	0	0.000000	0.837432	0	0	0	1	OmissionError	0.922066	1.183630	0
220.900848	0.795897	city	4	1	0.460549	0.460549	0	1	0	0	CorrectCommission	0.707711	1.178642	0
221.696823	0.796032	city	9	1	0.363951	0.363951	0	1	0	0	CorrectCommission	1.125435	1.168521	0
222.492615	0.795556	city	8	1	0.315558	0.315558	0	1	0	0	CorrectCommission	1.334705	1.154757	0
223.288269	0.795775	city	7	1	0.400205	0.400205	0	1	0	0	CorrectCommission	0.968662	1.139077	0
224.084061	0.795811	city	10	1	0.352210	0.352210	0	1	0	0	CorrectCommission	1.176209	1.123273	0
224.879868	0.795802	city	8	1	0.400895	0.400895	0	1	0	0	CorrectCommission	0.965678	1.109025	0
225.675644	0.795730	city	2	1	0.399867	0.399867	0	1	0	0	CorrectCommission	0.970123	1.097811	0
226.471436	0.795859	city	5	1	0.364830	0.364830	0	1	0	0	CorrectCommission	1.121636	1.090774	0
227.267410	0.796104	city	7	1	0.416747	0.416747	0	1	0	0	CorrectCommission	0.897129	1.088657	0
228.063217	0.795513	city	10	1	0.399831	0.399831	0	1	0	0	CorrectCommission	0.970277	1.091775	0
228.858887	0.795816	city	3	1	0.400538	0.400538	0	1	0	0	CorrectCommission	0.967222	1.099975	0
229.654663	0.795739	city	1	1	0.413124	0.413124	0	1	0	0	CorrectCommission	0.912796	1.112625	0
230.450470	0.795871	city	7	1	0.400012	0.400012	0	1	0	0	CorrectCommission	0.969495	1.128669	0
231.246307	0.795798	city	9	1	0.350125	0.350125	0	1	0	0	CorrectCommission	1.185224	1.146741	0
232.042053	0.795709	city	6	1	0.303936	0.303936	0	1	0	0	CorrectCommission	1.384962	1.165176	0
232.837982	0.796146	city	1	1	0.350943	0.350943	0	1	0	0	CorrectCommission	1.181687	1.182192	0
233.633820	0.795523	city	8	1	0.350099	0.350099	0	1	0	0	CorrectCommission	1.185338	1.196083	0
234.429459	0.795742	city	5	1	0.301198	0.301198	0	1	0	0	CorrectCommission	1.396803	1.205366	0
235.225266	0.795875	city	1	1	0.362142	0.362142	0	1	0	0	CorrectCommission	1.133257	1.208980	0
236.021240	0.796078	city	6	1	0.363568	0.363568	0	1	0	0	CorrectCommission	1.127092	1.206518	0
236.817032	0.795495	city	5	1	0.307195	0.307195	0	1	0	0	CorrectCommission	1.370870	1.198319	0
237.612686	0.795823	city	6	1	1.063961	1.063961	0	1	0	0	CorrectCommission	1.901662	1.185590	0
238.408463	0.795739	city	5	1	1.096303	1.096303	0	1	0	0	CorrectCommission	2.041520	1.170366	0
239.204269	0.795856	city	1	1	0.949467	0.949467	0	1	0	0	CorrectCommission	1.406549	1.155344	0
240.000061	0.795751	city	4	1	0.850437	0.850437	0	1	0	0	CorrectCommission	0.978304	1.143642	0
240.796005	0.796140	city	6	1	0.797836	0.797836	0	1	0	0	CorrectCommission	0.750838	1.138404	0
241.591843	0.795516	city	1	1	0.602138	0.602138	0	1	0	0	CorrectCommission	0.095431	1.142347	0
242.387497	0.795791	city	9	1	0.549119	0.549119	0	1	0	0	CorrectCommission	0.324701	1.157397	0
243.183304	0.795821	city	5	1	0.468798	0.468798	0	1	0	0	CorrectCommission	0.672040	1.184306	0
243.979095	0.795787	city	10	1	0.413922	0.413922	0	1	0	0	CorrectCommission	0.909342	1.222481	0
244.774902	0.795798	city	6	1	0.400123	0.400123	0	1	0	0	CorrectCommission	0.969015	1.269948	0
245.570847	0.796110	city	5	1	0.350562	0.350562	0	1	0	0	CorrectCommission	1.183334	1.323518	0
246.366623	0.795444	city	2	1	1.046644	1.046644	0	1	0	0	CorrectCommission	1.826778	1.379113	0
247.162277	0.795848	city	10	1	0.962030	0.962030	0	1	0	0	CorrectCommission	1.460874	1.432141	0
247.958145	0.795903	city	6	1	1.046736	1.046736	0	1	0	0	CorrectCommission	1.827172	1.478107	0
248.753922	0.795646	city	3	1	1.118046	1.118046	0	1	0	0	CorrectCommission	2.135546	1.513031	0
249.549667	0.795833	city	1	1	1.098935	1.098935	0	1	0	0	CorrectCommission	2.052899	1.533902	0
250.345505	0.795848	city	5	1	1.103694	1.103694	0	1	0	0	CorrectCommission	2.073481	1.539015	0
251.141464	0.796086	city	8	1	1.099245	1.099245	0	1	0	0	CorrectCommission	2.054243	1.528113	0
251.937225	0.795434	city	6	1	1.049129	1.049129	0	1	0	0	CorrectCommission	1.837520	1.502381	0
252.732880	0.795868	city	8	1	1.004649	1.004649	0	1	0	0	CorrectCommission	1.645172	1.464250	0
253.528870	0.796096	city	7	1	1.046523	1.046523	0	1	0	0	CorrectCommission	1.826253	1.417070	0
254.324692	0.795546	city	3	1	0.958697	0.958697	0	1	0	0	CorrectCommission	1.446460	1.364687	0
255.120361	0.795798	city	1	1	0.897288	0.897288	0	1	0	0	CorrectCommission	1.180905	1.310958	0
255.916168	0.795813	city	8	1	0.798521	0.798521	0	1	0	0	CorrectCommission	0.753801	1.259291	0
256.711945	0.795755	city	3	1	0.664339	0.664339	0	1	0	0	CorrectCommission	0.173551	1.212294	0
257.507721	0.795794	city	5	1	0.567642	0.567642	0	1	0	0	CorrectCommission	0.244602	1.171510	0
258.303497	0.795788	city	3	1	0.449716	0.449716	0	1	0	0	CorrectCommission	0.754558	1.137289	0
259.099457	0.796119	city	6	1	0.996857	0.996857	0	1	0	0	CorrectCommission	1.611480	1.108894	0
259.895264	0.795460	city	9	1	0.915594	0.915594	0	1	0	0	CorrectCommission	1.260066	1.084690	0
260.690887	0.795824	city	5	1	0.956358	0.956358	0	1	0	0	CorrectCommission	1.436348	1.062523	0
261.486694	0.795768	city	6	1	1.047387	1.047387	0	1	0	0	CorrectCommission	1.829990	1.040011	0
262.282501	0.795846	mountain	2	0	0.000000	0.753568	1	0	0	0	CorrectOmission	0.559410	1.014921	0
263.078308	0.795801	city	1	1	0.410751	0.410751	0	1	0	0	CorrectCommission	0.923054	0.985525	0
263.874268	0.796099	city	9	1	0.354787	0.354787	0	1	0	0	CorrectCommission	1.165067	0.950685	0
264.670105	0.795540	city	10	1	0.351103	0.351103	0	1	0	0	CorrectCommission	1.180994	0.910085	0
265.465729	0.795744	city	4	1	0.409386	0.409386	0	1	0	0	CorrectCommission	0.928960	0.864211	0
266.261536	0.795852	city	2	1	0.400361	0.400361	0	1	0	0	CorrectCommission	0.967988	0.814304	0
267.057343	0.795798	mountain	4	1	0.308199	0.308199	0	0	1	0	CommissionError	1.366527	0.762193	1
267.853149	0.795793	city	8	1	0.467092	0.467092	0	1	0	0	CorrectCommission	0.679416	0.710076	1
268.648956	0.795818	mountain	7	0	0.000000	0.649580	1	0	0	0	CorrectOmission	0.109728	0.660314	1
269.444763	0.795783	city	9	1	0.748909	0.748909	0	1	0	0	CorrectCommission	0.539264	0.615128	1
270.240692	0.796112	city	6	1	0.658326	0.658326	0	1	0	0	CorrectCommission	0.147547	0.576348	1
271.036499	0.795492	city	5	1	0.598811	0.598811	0	1	0	0	CorrectCommission	0.109816	0.545279	1
271.832153	0.795818	city	4	1	0.553957	0.553957	0	1	0	0	CorrectCommission	0.303779	0.522566	1
272.627960	0.795796	city	1	1	0.549166	0.549166	0	1	0	0	CorrectCommission	0.324498	0.508149	1
273.423737	0.795729	city	3	1	0.556089	0.556089	0	1	0	0	CorrectCommission	0.294561	0.501339	1
274.219513	0.795832	city	1	1	0.549502	0.549502	0	1	0	0	CorrectCommission	0.323047	0.500942	1
275.015503	0.796120	city	8	1	0.500084	0.500084	0	1	0	0	CorrectCommission	0.536748	0.505394	1
275.811340	0.795561	city	10	1	0.449396	0.449396	0	1	0	0	CorrectCommission	0.755940	0.512939	1
276.606995	0.795757	city	3	1	0.450505	0.450505	0	1	0	0	CorrectCommission	0.751147	0.521780	1
277.402771	0.795839	mountain	9	1	0.401121	0.401121	0	0	1	0	CommissionError	0.964698	0.530270	1
278.198730	0.796034	city	5	1	0.499251	0.499251	0	1	0	0	CorrectCommission	0.540350	0.536965	1
278.994476	0.795477	city	9	1	0.549074	0.549074	0	1	0	0	CorrectCommission	0.324895	0.540687	1
279.790161	0.795892	city	8	1	0.507443	0.507443	0	1	0	0	CorrectCommission	0.504923	0.540575	1
280.585999	0.795806	city	5	1	0.551823	0.551823	0	1	0	0	CorrectCommission	0.313011	0.536026	1
281.381805	0.795777	city	2	1	0.499444	0.499444	0	1	0	0	CorrectCommission	0.539514	0.526735	1
282.177551	0.795741	city	5	1	0.449711	0.449711	0	1	0	0	CorrectCommission	0.754580	0.512643	1
282.973358	0.795836	city	9	1	0.400198	0.400198	0	1	0	0	CorrectCommission	0.968689	0.493999	1
283.769135	0.795749	city	4	1	0.451011	0.451011	0	1	0	0	CorrectCommission	0.748959	0.471358	1
284.564972	0.795908	city	9	1	0.549534	0.549534	0	1	0	0	CorrectCommission	0.322906	0.445590	1
285.360962	0.796067	city	2	1	0.549005	0.549005	0	1	0	0	CorrectCommission	0.325196	0.417893	1
286.156738	0.795513	city	9	1	0.511540	0.511540	0	1	0	0	CorrectCommission	0.487209	0.389739	1
286.952393	0.795750	mountain	6	1	0.499691	0.499691	0	0	1	0	CommissionError	0.538449	0.362823	1
287.748169	0.795834	city	10	1	0.599189	0.599189	0	1	0	0	CorrectCommission	0.108183	0.338975	1
288.544006	0.795830	city	3	1	0.599117	0.599117	0	1	0	0	CorrectCommission	0.108492	0.320078	1
289.339783	0.795731	city	10	1	0.599663	0.599663	0	1	0	0	CorrectCommission	0.106131	0.307872	1
290.135590	0.795868	city	3	1	0.598837	0.598837	0	1	0	0	CorrectCommission	0.109705	0.303857	1
290.931396	0.795738	city	9	1	0.648814	0.648814	0	1	0	0	CorrectCommission	0.106416	0.309166	1
291.727203	0.795876	city	5	1	0.613652	0.613652	0	1	0	0	CorrectCommission	0.045637	0.324473	1
292.523163	0.796050	city	6	1	0.698735	0.698735	0	1	0	0	CorrectCommission	0.322291	0.349915	1
293.318909	0.795457	city	2	1	0.652118	0.652118	0	1	0	0	CorrectCommission	0.120704	0.385093	1
294.114716	0.796156	city	7	1	0.608321	0.608321	0	1	0	0	CorrectCommission	0.068692	0.429117	1
294.910553	0.795502	city	3	1	0.566151	0.566151	0	1	0	0	CorrectCommission	0.251050	0.480672	1
295.706177	0.795752	city	1	1	0.549081	0.549081	0	1	0	0	CorrectCommission	0.324867	0.538167	1
296.501953	0.795811	city	10	1	0.403578	0.403578	0	1	0	0	CorrectCommission	0.954073	0.599878	1
297.297791	0.795875	city	4	1	0.513893	0.513893	0	1	0	0	CorrectCommission	0.477032	0.664080	1
298.093597	0.795749	city	7	1	0.400230	0.400230	0	1	0	0	CorrectCommission	0.968552	0.729278	1
298.889404	0.795812	city	10	1	0.350168	0.350168	0	1	0	0	CorrectCommission	1.185038	0.794219	1
299.685211	0.795837	city	4	1	0.350450	0.350450	0	1	0	0	CorrectCommission	1.183819	0.857998	0
300.481018	0.795778	city	1	1	0.403162	0.403162	0	1	0	0	CorrectCommission	0.955873	0.920026	0
301.276825	0.795824	city	9	1	0.511787	0.511787	0	1	0	0	CorrectCommission	0.486138	0.979960	0
302.072632	0.795771	city	6	1	0.362185	0.362185	0	1	0	0	CorrectCommission	1.133073	1.037585	0
302.868561	0.796101	city	3	1	0.400658	0.400658	0	1	0	0	CorrectCommission	0.966700	1.092623	0
303.664368	0.795541	city	6	1	0.300161	0.300161	0	1	0	0	CorrectCommission	1.401289	1.144640	0
304.460175	0.796073	city	7	1	0.359579	0.359579	0	1	0	0	CorrectCommission	1.144341	1.192900	0
305.255981	0.795534	city	9	1	0.349814	0.349814	0	1	0	0	CorrectCommission	1.186570	1.236362	0
306.051636	0.795744	city	7	1	0.352215	0.352215	0	1	0	0	CorrectCommission	1.176187	1.273671	0
306.847412	0.795847	city	6	1	0.301275	0.301275	0	1	0	0	CorrectCommission	1.396472	1.303292	0
307.643250	0.795823	city	2	1	0.350877	0.350877	0	1	0	0	CorrectCommission	1.181973	1.323637	0
308.439026	0.795734	city	4	1	1.046389	1.046389	0	1	0	0	CorrectCommission	1.825673	1.333353	0
309.234802	0.795809	city	6	1	1.008776	1.008776	0	1	0	0	CorrectCommission	1.663022	1.331526	0
310.030609	0.795822	city	1	1	1.046970	1.046970	0	1	0	0	CorrectCommission	1.828186	1.317952	0
310.826416	0.795751	city	6	1	1.097083	1.097083	0	1	0	0	CorrectCommission	2.044891	1.293292	0
311.622223	0.795885	city	5	1	1.006011	1.006011	0	1	0	0	CorrectCommission	1.651063	1.259127	0
312.418060	0.795770	city	6	1	0.897229	0.897229	0	1	0	0	CorrectCommission	1.180651	1.217925	0
313.213867	0.795833	city	3	1	0.901099	0.901099	0	1	0	0	CorrectCommission	1.197384	1.172873	0
314.009674	0.795779	city	8	1	0.847988	0.847988	0	1	0	0	CorrectCommission	0.967715	1.127559	0
314.805420	0.795733	city	9	1	0.854681	0.854681	0	1	0	0	CorrectCommission	0.996660	1.085709	0
315.601196	0.795844	city	1	1	0.802066	0.802066	0	1	0	0	CorrectCommission	0.769133	1.050777	0
316.397034	0.795806	city	6	1	0.704133	0.704133	0	1	0	0	CorrectCommission	0.345635	1.025650	0
317.192841	0.795834	city	10	1	0.572525	0.572525	0	1	0	0	CorrectCommission	0.223488	1.012406	0
317.988800	0.796090	city	7	1	0.468171	0.468171	0	1	0	0	CorrectCommission	0.674749	1.012149	0
318.784607	0.795511	city	10	1	0.470438	0.470438	0	1	0	0	CorrectCommission	0.664949	1.024993	0
319.580414	0.796065	city	1	1	0.400477	0.400477	0	1	0	0	CorrectCommission	0.967484	1.050146	0
320.376190	0.795525	city	6	1	0.399687	0.399687	0	1	0	0	CorrectCommission	0.970902	1.086112	0
321.171844	0.795784	city	7	1	0.318760	0.318760	0	1	0	0	CorrectCommission	1.320859	1.130897	0
321.967621	0.795785	city	5	1	1.065200	1.065200	0	1	0	0	CorrectCommission	1.907020	1.182259	0
322.763458	0.795865	mountain	1	0	0.000000	0.865510	1	0	0	0	CorrectOmission	1.043486	1.237891	0
323.559418	0.796076	city	9	1	0.400331	0.400331	0	1	0	0	CorrectCommission	0.968118	1.295641	0
324.355194	0.795432	city	6	1	0.350305	0.350305	0	1	0	0	CorrectCommission	1.184448	1.353517	0
325.150818	0.795863	city	7	1	0.317464	0.317464	0	1	0	0	CorrectCommission	1.326463	1.409740	0
325.946808	0.796100	city	5	1	1.048711	1.048711	0	1	0	0	CorrectCommission	1.835715	1.462686	0
326.742584	0.795443	city	1	1	1.052284	1.052284	0	1	0	0	CorrectCommission	1.851164	1.510823	0
327.538208	0.795801	city	6	1	0.961820	0.961820	0	1	0	0	CorrectCommission	1.459968	1.552648	0
328.334045	0.795879	city	7	1	0.998683	0.998683	0	1	0	0	CorrectCommission	1.619376	1.586631	0
329.129852	0.795741	city	3	1	1.001284	1.001284	0	1	0	0	CorrectCommission	1.630623	1.611173	0
329.925659	0.795876	city	6	1	1.047820	1.047820	0	1	0	0	CorrectCommission	1.831863	1.624678	0
330.721619	0.796053	city	7	1	1.051020	1.051020	0	1	0	0	CorrectCommission	1.845701	1.625611	0
331.517395	0.795462	city	2	1	1.047790	1.047790	0	1	0	0	CorrectCommission	1.831734	1.612679	0
332.313049	0.795861	city	4	1	1.051714	1.051714	0	1	0	0	CorrectCommission	1.848699	1.585007	0
333.108887	0.795814	city	2	1	1.047750	1.047750	0	1	0	0	CorrectCommission	1.831560	1.542368	0
333.904694	0.795773	city	4	1	1.050283	1.050283	0	1	0	0	CorrectCommission	1.842513	1.485350	0
334.700470	0.795828	city	10	1	1.007357	1.007357	0	1	0	0	CorrectCommission	1.656883	1.415465	0
335.496307	0.795807	city	1	1	1.097020	1.097020	0	1	0	0	CorrectCommission	2.044622	1.335214	0
336.292114	0.795812	city	3	1	1.056466	1.056466	0	1	0	0	CorrectCommission	1.869251	1.247961	0
337.088043	0.796084	city	6	1	0.996795	0.996795	0	1	0	0	CorrectCommission	1.611210	1.157746	0
337.884003	0.795793	mountain	8	0	0.000000	0.786262	1	0	0	0	CorrectOmission	0.700790	1.068942	0
338.679657	0.795507	city	5	1	0.598768	0.598768	0	1	0	0	CorrectCommission	0.110001	0.985865	0
339.475311	0.795817	city	9	1	0.608213	0.608213	0	1	0	0	CorrectCommission	0.069159	0.912275	0
340.271088	0.795729	city	3	1	0.550258	0.550258	0	1	0	0	CorrectCommission	0.319775	0.851006	0
341.067017	0.796132	city	4	1	0.549389	0.549389	0	1	0	0	CorrectCommission	0.323535	0.803664	1
341.862854	0.795564	city	1	1	0.517590	0.517590	0	1	0	0	CorrectCommission	0.461045	0.770482	1
342.658508	0.795756	city	5	1	0.549345	0.549345	0	1	0	0	CorrectCommission	0.323723	0.750307	1
343.454437	0.796091	city	10	1	0.499364	0.499364	0	1	0	0	CorrectCommission	0.539862	0.740813	1
344.250214	0.795463	city	9	1	0.449416	0.449416	0	1	0	0	CorrectCommission	0.755853	0.738812	1
345.045868	0.795844	city	7	1	0.400279	0.400279	0	1	0	0	CorrectCommission	0.968342	0.740708	1
345.841705	0.795851	city	3	1	0.400402	0.400402	0	1	0	0	CorrectCommission	0.967811	0.742943	1
346.637543	0.795793	city	10	1	0.403746	0.403746	0	1	0	0	CorrectCommission	0.953349	0.742461	1
347.433289	0.795714	city	9	1	0.400221	0.400221	0	1	0	0	CorrectCommission	0.968591	0.737051	1
348.229065	0.795816	city	4	1	1.006282	1.006282	0	1	0	0	CorrectCommission	1.652235	0.725594	1
349.024902	0.795869	city	8	1	0.948026	0.948026	0	1	0	0	CorrectCommission	1.400315	0.708105	1
349.820740	0.795814	mountain	3	0	0.000000	0.686316	1	0	0	0	CorrectOmission	0.268585	0.685691	1
350.616516	0.795734	city	3	1	0.459117	0.459117	0	1	0	0	CorrectCommission	0.713902	0.660313	1
351.412445	0.796135	city	7	1	0.504397	0.504397	0	1	0	0	CorrectCommission	0.518095	0.634358	1
352.208252	0.795437	city	4	1	0.549815	0.549815	0	1	0	0	CorrectCommission	0.321693	0.610312	1
353.004028	0.796173	city	1	1	0.648653	0.648653	0	1	0	0	CorrectCommission	0.105719	0.590347	1
353.800018	0.795792	city	5	1	0.555390	0.555390	0	1	0	0	CorrectCommission	0.297585	0.576029	1
354.595673	0.795517	city	1	1	0.598548	0.598548	0	1	0	0	CorrectCommission	0.110955	0.568098	1
355.391479	0.796070	city	10	1	0.617505	0.617505	0	1	0	0	CorrectCommission	0.028978	0.566487	1
356.187256	0.795482	city	2	1	0.751658	0.751658	0	1	0	0	CorrectCommission	0.551149	0.570421	1
356.982880	0.795797	city	7	1	0.847831	0.847831	0	1	0	0	CorrectCommission	0.967035	0.578609	1
357.778687	0.795829	city	9	1	0.753860	0.753860	0	1	0	0	CorrectCommission	0.560671	0.589594	1
358.574677	0.796111	city	2	1	0.798962	0.798962	0	1	0	0	CorrectCommission	0.755709	0.602081	1
359.370483	0.795525	city	9	1	0.847951	0.847951	0	1	0	0	CorrectCommission	0.967556	0.615198	1
360.166138	0.795779	city	2	1	0.854648	0.854648	0	1	0	0	CorrectCommission	0.996515	0.628747	1
360.961914	0.795789	city	10	1	0.847480	0.847480	0	1	0	0	CorrectCommission	0.965516	0.643246	1
361.757721	0.795776	mountain	1	0	0.000000	0.800592	1	0	0	0	CorrectOmission	0.762757	0.659832	1
362.553497	0.795815	mountain	2	0	0.000000	0.741655	1	0	0	0	CorrectOmission	0.507892	0.680040	1
363.349335	0.795855	city	2	1	0.698339	0.698339	0	1	0	0	CorrectCommission	0.320577	0.705462	1
364.145172	0.795802	city	8	1	0.698314	0.698314	0	1	0	0	CorrectCommission	0.320469	0.737352	1
364.941101	0.796060	city	6	1	0.654179	0.654179	0	1	0	0	CorrectCommission	0.129616	0.776274	1
365.736877	0.795511	city	2	1	0.698067	0.698067	0	1	0	0	CorrectCommission	0.319401	0.821805	0
366.532562	0.795831	city	1	1	0.797835	0.797835	0	1	0	0	CorrectCommission	0.750834	0.872390	0
367.328522	0.796082	city	6	1	0.797818	0.797818	0	1	0	0	CorrectCommission	0.750763	0.925403	0
368.124298	0.795505	city	7	1	0.861013	0.861013	0	1	0	0	CorrectCommission	1.024039	0.977324	0
368.919922	0.795741	city	4	1	0.906327	0.906327	0	1	0	0	CorrectCommission	1.219996	1.024090	0
369.715851	0.796103	city	8	1	0.864534	0.864534	0	1	0	0	CorrectCommission	1.039267	1.061561	0
370.511688	0.795547	city	6	1	0.956981	0.956981	0	1	0	0	CorrectCommission	1.439041	1.086022	0
371.307373	0.795851	city	10	1	1.100810	1.100810	0	1	0	0	CorrectCommission	2.061010	1.094615	0
372.103210	0.795801	city	7	1	1.146759	1.146759	0	1	0	0	CorrectCommission	2.259710	1.085697	0
372.899139	0.796063	city	9	1	1.195727	1.195727	0	1	0	0	CorrectCommission	2.471466	1.059080	0
373.694885	0.795462	city	6	0	0.000000	0.870385	0	0	0	1	OmissionError	1.064570	1.015999	0
374.490570	0.795868	city	7	1	0.510189	0.510189	0	1	0	0	CorrectCommission	0.493051	0.959050	0
375.286377	0.795761	city	9	1	0.454592	0.454592	0	1	0	0	CorrectCommission	0.733470	0.891791	0
376.082153	0.795801	city	10	1	0.450556	0.450556	0	1	0	0	CorrectCommission	0.750925	0.818343	0
376.877960	0.795815	city	4	1	0.509937	0.509937	0	1	0	0	CorrectCommission	0.494140	0.743008	1
377.673767	0.795798	city	8	1	0.561135	0.561135	0	1	0	0	CorrectCommission	0.272742	0.669882	1
378.469574	0.795837	city	3	1	0.549186	0.549186	0	1	0	0	CorrectCommission	0.324413	0.602524	1
379.265381	0.795764	city	4	1	0.648848	0.648848	0	1	0	0	CorrectCommission	0.106563	0.543743	1
380.061157	0.795757	city	8	1	0.549245	0.549245	0	1	0	0	CorrectCommission	0.324158	0.495507	1
380.856964	0.795850	city	3	1	0.500623	0.500623	0	1	0	0	CorrectCommission	0.534415	0.458889	1
381.652924	0.796106	mountain	4	1	0.517998	0.517998	0	0	1	0	CommissionError	0.459283	0.434111	1
382.448883	0.795786	city	4	1	0.699987	0.699987	0	1	0	0	CorrectCommission	0.327705	0.420646	1
383.244537	0.795519	city	3	1	0.662697	0.662697	0	1	0	0	CorrectCommission	0.166448	0.417302	1
384.040161	0.795747	city	10	1	0.648990	0.648990	0	1	0	0	CorrectCommission	0.107178	0.422341	1
384.835938	0.795786	city	2	1	0.648611	0.648611	0	1	0	0	CorrectCommission	0.105539	0.433594	1
385.631744	0.795862	city	8	1	0.653230	0.653230	0	1	0	0	CorrectCommission	0.125512	0.448612	1
386.427582	0.795813	city	2	1	0.753367	0.753367	0	1	0	0	CorrectCommission	0.558540	0.464817	1
387.223389	0.795798	city	8	1	0.764863	0.764863	0	1	0	0	CorrectCommission	0.608253	0.479689	1
388.019226	0.795838	city	3	1	0.797855	0.797855	0	1	0	0	CorrectCommission	0.750923	0.490960	1
388.815033	0.795791	city	1	1	0.748851	0.748851	0	1	0	0	CorrectCommission	0.539013	0.496798	1
389.610809	0.795774	city	4	1	0.947209	0.947209	0	1	0	0	CorrectCommission	1.396781	0.495971	1
390.406616	0.795844	city	9	1	0.847877	0.847877	0	1	0	0	CorrectCommission	0.967234	0.487885	1
391.202423	0.795744	city	10	1	0.766538	0.766538	0	1	0	0	CorrectCommission	0.615494	0.472737	1
391.998352	0.796118	city	3	1	0.717454	0.717454	0	1	0	0	CorrectCommission	0.403238	0.451387	1
392.794159	0.795540	city	6	1	0.718627	0.718627	0	1	0	0	CorrectCommission	0.408312	0.425219	1
393.589813	0.795711	city	10	1	0.598701	0.598701	0	1	0	0	CorrectCommission	0.110293	0.395979	1
394.385590	0.795873	city	5	1	0.649095	0.649095	0	1	0	0	CorrectCommission	0.107629	0.365588	1
395.181396	0.795763	city	6	1	0.699157	0.699157	0	1	0	0	CorrectCommission	0.324116	0.335923	1
395.977203	0.795819	city	8	1	0.700269	0.700269	0	1	0	0	CorrectCommission	0.328926	0.308644	1
396.773010	0.795816	city	3	1	0.652519	0.652519	0	1	0	0	CorrectCommission	0.122435	0.285084	1
397.568817	0.795768	city	9	1	0.599259	0.599259	0	1	0	0	CorrectCommission	0.107880	0.266179	1
398.364594	0.795828	city	4	1	0.654599	0.654599	0	1	0	0	CorrectCommission	0.131432	0.252420	1
399.160400	0.795743	city	2	1	0.700353	0.700353	0	1	0	0	CorrectCommission	0.329288	0.243886	1
399.956238	0.795941	city	6	1	0.648726	0.648726	0	1	0	0	CorrectCommission	0.106034	0.240277	1
400.752045	0.795687	city	7	1	0.650667	0.650667	0	1	0	0	CorrectCommission	0.114429	0.241003	1
401.547913	0.796024	city	10	1	0.601590	0.601590	0	1	0	0	CorrectCommission	0.097799	0.245228	1
402.343719	0.795590	city	4	1	0.569457	0.569457	0	1	0	0	CorrectCommission	0.236753	0.251955	1
403.139435	0.795845	mountain	7	0	0.000000	0.659792	1	0	0	0	CorrectOmission	0.153888	0.260102	1
403.935394	0.796056	city	7	1	0.748757	0.748757	0	1	0	0	CorrectCommission	0.538606	0.268566	1
404.731171	0.795509	city	3	1	0.712516	0.712516	0	1	0	0	CorrectCommission	0.381883	0.276297	1
405.526825	0.795820	city	6	1	0.698582	0.698582	0	1	0	0	CorrectCommission	0.321630	0.282402	1
406.322662	0.795821	city	4	1	0.702434	0.702434	0	1	0	0	CorrectCommission	0.338286	0.286180	1
407.118591	0.796070	mountain	9	0	0.000000	0.662171	1	0	0	0	CorrectOmission	0.164177	0.287134	1
407.914520	0.795801	city	5	1	0.658088	0.658088	0	1	0	0	CorrectCommission	0.146521	0.285114	1
408.710205	0.795531	city	6	1	0.770478	0.770478	0	1	0	0	CorrectCommission	0.632534	0.280331	1
409.505859	0.795771	city	5	1	0.748366	0.748366	0	1	0	0	CorrectCommission	0.536912	0.273366	1
410.301605	0.795749	mountain	7	0	0.000000	0.732984	1	0	0	0	CorrectOmission	0.470396	0.265178	1
411.097382	0.795824	city	1	1	0.698656	0.698656	0	1	0	0	CorrectCommission	0.321947	0.257062	1
411.893219	0.795823	city	7	1	0.619703	0.619703	0	1	0	0	CorrectCommission	0.019473	0.250580	1
412.688995	0.795756	city	9	1	0.603774	0.603774	0	1	0	0	CorrectCommission	0.088355	0.247418	1
413.484802	0.795840	city	7	1	0.648914	0.648914	0	1	0	0	CorrectCommission	0.106845	0.249250	1
414.280609	0.795790	city	4	1	0.610749	0.610749	0	1	0	0	CorrectCommission	0.058193	0.257585	1
415.076416	0.795819	city	10	1	0.598941	0.598941	0	1	0	0	CorrectCommission	0.109256	0.273625	1
415.872253	0.795815	city	7	1	0.652741	0.652741	0	1	0	0	CorrectCommission	0.123395	0.298137	1
416.668030	0.795760	city	8	1	0.649367	0.649367	0	1	0	0	CorrectCommission	0.108805	0.331338	1
417.463837	0.795862	city	4	1	0.610573	0.610573	0	1	0	0	CorrectCommission	0.058955	0.372860	1
418.259644	0.795729	city	2	1	0.599527	0.599527	0	1	0	0	CorrectCommission	0.106721	0.421727	1
419.055450	0.795886	city	7	1	0.598970	0.598970	0	1	0	0	CorrectCommission	0.109131	0.476399	1
419.851257	0.795756	city	9	1	0.499608	0.499608	0	1	0	0	CorrectCommission	0.538808	0.534850	1
420.647186	0.796072	city	5	1	0.947483	0.947483	0	1	0	0	CorrectCommission	1.397966	0.594680	1
421.442963	0.795481	mountain	10	0	0.000000	0.864401	1	0	0	0	CorrectOmission	1.038689	0.653241	1
422.238617	0.795840	city	3	1	0.598916	0.598916	0	1	0	0	CorrectCommission	0.109363	0.707862	1
423.034454	0.795818	city	4	1	0.499583	0.499583	0	1	0	0	CorrectCommission	0.538913	0.756000	1
423.830261	0.795812	city	5	1	0.356773	0.356773	0	1	0	0	CorrectCommission	1.156478	0.795324	1
424.626038	0.795765	city	8	1	0.314071	0.314071	0	1	0	0	CorrectCommission	1.341133	0.823932	0
425.421814	0.795799	city	7	1	0.367126	0.367126	0	1	0	0	CorrectCommission	1.111705	0.840518	0
426.217804	0.796142	city	6	1	0.400658	0.400658	0	1	0	0	CorrectCommission	0.966701	0.844462	0
427.013611	0.795460	city	9	1	0.303347	0.303347	0	1	0	0	CorrectCommission	1.387508	0.835980	0
427.809235	0.795811	city	7	1	0.350400	0.350400	0	1	0	0	CorrectCommission	1.184036	0.816046	0
428.605072	0.795865	city	2	1	0.350410	0.350410	0	1	0	0	CorrectCommission	1.183991	0.786409	1
429.400879	0.795766	city	9	1	0.449814	0.449814	0	1	0	0	CorrectCommission	0.754132	0.749471	1
430.196655	0.795799	city	5	1	0.499396	0.499396	0	1	0	0	CorrectCommission	0.539725	0.708114	1
430.992493	0.795824	city	10	1	0.450169	0.450169	0	1	0	0	CorrectCommission	0.752600	0.665437	1
431.788452	0.796088	city	4	1	0.500051	0.500051	0	1	0	0	CorrectCommission	0.536892	0.624477	1
432.584229	0.795520	city	3	1	0.555648	0.555648	0	1	0	0	CorrectCommission	0.296467	0.587968	1
433.379913	0.795812	city	7	1	0.598743	0.598743	0	1	0	0	CorrectCommission	0.110111	0.558103	1
434.175720	0.795784	city	2	1	0.598863	0.598863	0	1	0	0	CorrectCommission	0.109590	0.536351	1
434.971619	0.796056	city	4	1	0.608951	0.608951	0	1	0	0	CorrectCommission	0.065969	0.523371	1
435.767395	0.795503	city	3	1	0.564742	0.564742	0	1	0	0	CorrectCommission	0.257142	0.518990	1
436.563080	0.795821	city	2	1	0.502895	0.502895	0	1	0	0	CorrectCommission	0.524593	0.522299	1
437.358887	0.795830	city	5	1	0.499362	0.499362	0	1	0	0	CorrectCommission	0.539868	0.531797	1
438.154724	0.795807	city	9	1	0.416214	0.416214	0	1	0	0	CorrectCommission	0.899432	0.545574	1
438.950500	0.795769	city	2	1	0.454054	0.454054	0	1	0	0	CorrectCommission	0.735796	0.561542	1
439.746277	0.795805	mountain	4	1	0.499622	0.499622	0	0	1	0	CommissionError	0.538743	0.577666	1
440.542114	0.795851	city	1	1	0.518907	0.518907	0	1	0	0	CorrectCommission	0.455352	0.592092	1
441.337921	0.795782	mountain	8	1	0.603315	0.603315	0	0	1	0	CommissionError	0.090339	0.603262	1
442.133698	0.795756	city	8	1	1.052974	1.052974	0	1	0	0	CorrectCommission	1.854148	0.610020	1
442.929504	0.795847	city	4	1	0.847562	0.847562	0	1	0	0	CorrectCommission	0.965875	0.611538	1
443.725311	0.795772	city	1	1	0.599225	0.599225	0	1	0	0	CorrectCommission	0.108024	0.607485	1
444.521088	0.795808	city	8	1	0.702175	0.702175	0	1	0	0	CorrectCommission	0.337165	0.597867	1
445.317047	0.796094	city	1	1	0.798440	0.798440	0	1	0	0	CorrectCommission	0.753453	0.582963	1
446.112854	0.795513	city	10	1	0.851787	0.851787	0	1	0	0	CorrectCommission	0.984142	0.563274	1
446.908508	0.795790	city	9	1	0.807860	0.807860	0	1	0	0	CorrectCommission	0.794187	0.539490	1
447.704285	0.795793	city	5	1	0.701340	0.701340	0	1	0	0	CorrectCommission	0.333558	0.512458	1
448.500122	0.795827	city	4	1	0.698565	0.698565	0	1	0	0	CorrectCommission	0.321554	0.483104	1
449.295929	0.795790	city	5	1	0.699197	0.699197	0	1	0	0	CorrectCommission	0.324291	0.452387	1
450.091736	0.795837	city	6	1	0.798173	0.798173	0	1	0	0	CorrectCommission	0.752297	0.421298	1
450.887512	0.795711	city	9	1	0.698405	0.698405	0	1	0	0	CorrectCommission	0.320865	0.390819	1
451.683258	0.795816	city	8	1	0.698351	0.698351	0	1	0	0	CorrectCommission	0.320631	0.361938	1
452.479248	0.796131	city	5	1	0.710082	0.710082	0	1	0	0	CorrectCommission	0.371362	0.335577	1
453.275055	0.795509	mountain	1	0	0.000000	0.633906	1	0	0	0	CorrectOmission	0.041949	0.312587	1
454.070740	0.795823	city	6	1	0.566413	0.566413	0	1	0	0	CorrectCommission	0.249918	0.293701	1
454.866516	0.795732	mountain	2	0	0.000000	0.604191	1	0	0	0	CorrectOmission	0.086551	0.279473	1
455.662445	0.796146	city	2	1	0.660622	0.660622	0	1	0	0	CorrectCommission	0.157478	0.270256	1
456.458252	0.795459	city	8	1	0.649087	0.649087	0	1	0	0	CorrectCommission	0.107596	0.266149	1
457.253906	0.795837	city	4	1	0.748852	0.748852	0	1	0	0	CorrectCommission	0.539014	0.266977	1
458.049744	0.795850	city	7	1	0.651259	0.651259	0	1	0	0	CorrectCommission	0.116990	0.272258	1
458.845703	0.796080	city	1	1	0.663534	0.663534	0	1	0	0	CorrectCommission	0.170070	0.281278	1
459.641479	0.795496	city	8	1	0.648556	0.648556	0	1	0	0	CorrectCommission	0.105301	0.293009	1
460.437164	0.795822	city	7	1	0.663206	0.663206	0	1	0	0	CorrectCommission	0.168652	0.306257	1
461.232941	0.795731	city	8	1	0.603775	0.603775	0	1	0	0	CorrectCommission	0.088351	0.319737	1
462.028839	0.796117	city	1	1	0.655974	0.655974	0	1	0	0	CorrectCommission	0.137377	0.332179	1
462.824707	0.795574	city	10	1	0.809855	0.809855	0	1	0	0	CorrectCommission	0.802812	0.342451	1
463.620483	0.796032	city	4	1	0.854237	0.854237	0	1	0	0	CorrectCommission	0.994738	0.349653	1
464.416290	0.795528	city	10	1	0.762225	0.762225	0	1	0	0	CorrectCommission	0.596847	0.353246	1
465.212097	0.796097	city	2	1	0.752866	0.752866	0	1	0	0	CorrectCommission	0.556372	0.353128	1
466.007904	0.795530	city	1	1	0.698059	0.698059	0	1	0	0	CorrectCommission	0.319369	0.349582	1
466.803558	0.795773	mountain	1	0	0.000000	0.658224	1	0	0	0	CorrectOmission	0.147106	0.343256	1
467.599335	0.795800	city	8	1	0.614778	0.614778	0	1	0	0	CorrectCommission	0.040770	0.335038	1
468.395142	0.795811	city	3	1	0.549140	0.549140	0	1	0	0	CorrectCommission	0.324613	0.325975	1
469.190979	0.795820	city	2	1	0.549364	0.549364	0	1	0	0	CorrectCommission	0.323645	0.317146	1
469.986725	0.795718	city	7	1	0.549444	0.549444	0	1	0	0	CorrectCommission	0.323297	0.309549	1
470.782684	0.796160	city	9	1	0.550158	0.550158	0	1	0	0	CorrectCommission	0.320209	0.304033	1
471.578522	0.795548	city	8	1	0.554555	0.554555	0	1	0	0	CorrectCommission	0.301195	0.301229	1
472.374329	0.796046	city	7	1	0.648461	0.648461	0	1	0	0	CorrectCommission	0.104890	0.301530	1
473.170074	0.795476	city	8	1	0.560652	0.560652	0	1	0	0	CorrectCommission	0.274829	0.305067	1
473.965881	0.796136	city	3	1	0.571132	0.571132	0	1	0	0	CorrectCommission	0.229509	0.311699	1
474.761719	0.795532	city	8	1	0.562311	0.562311	0	1	0	0	CorrectCommission	0.267657	0.321054	1
475.557404	0.795817	city	9	1	0.571670	0.571670	0	1	0	0	CorrectCommission	0.227186	0.332562	1
476.353210	0.795786	city	2	1	0.603155	0.603155	0	1	0	0	CorrectCommission	0.091030	0.345482	1
477.148956	0.795734	city	6	1	0.549403	0.549403	0	1	0	0	CorrectCommission	0.323473	0.358971	1
477.944733	0.795783	city	5	1	0.449633	0.449633	0	1	0	0	CorrectCommission	0.754914	0.372106	1
478.740540	0.795850	city	10	1	0.455091	0.455091	0	1	0	0	CorrectCommission	0.731312	0.383962	1
479.536377	0.795807	city	1	1	0.549332	0.549332	0	1	0	0	CorrectCommission	0.323781	0.393672	1
480.332306	0.796109	city	4	1	0.550260	0.550260	0	1	0	0	CorrectCommission	0.319767	0.400469	1
481.128113	0.795494	city	8	1	0.553123	0.553123	0	1	0	0	CorrectCommission	0.307388	0.403727	1
481.923920	0.796100	city	7	1	0.515391	0.515391	0	1	0	0	CorrectCommission	0.470556	0.403027	1
482.719727	0.795497	city	5	1	0.549132	0.549132	0	1	0	0	CorrectCommission	0.324646	0.398165	1
483.515533	0.796117	city	2	1	0.512946	0.512946	0	1	0	0	CorrectCommission	0.481129	0.389219	1
484.311493	0.795795	city	8	1	0.403463	0.403463	0	1	0	0	CorrectCommission	0.954574	0.376538	1
485.107117	0.795449	city	5	1	0.499876	0.499876	0	1	0	0	CorrectCommission	0.537647	0.360736	1
485.902771	0.795891	city	7	1	0.549946	0.549946	0	1	0	0	CorrectCommission	0.321128	0.342707	1
486.698608	0.795790	city	1	1	0.549393	0.549393	0	1	0	0	CorrectCommission	0.323516	0.323516	1
