onset	duration	trial_type	image_type	Press	ReactionTime	ReactionTime_Interpolated	CorrectOmission	CorrectCommission	CommissionError	OmissionError	response_type	nonsmoothVarianceTimeCourse	VarianceTimeCourse	In_the_Zone
8.421773	0.795774	city	5	1	0.816157	0.816157	0	1	0	0	CorrectCommission	0.751585	0.751585	0
9.217576	0.795833	city	4	1	0.649604	0.649604	0	1	0	0	CorrectCommission	0.782175	0.855490	0
10.013354	0.795724	city	2	1	0.549482	0.549482	0	1	0	0	CorrectCommission	1.704193	0.956836	0
10.809129	0.795824	city	4	1	0.561278	0.561278	0	1	0	0	CorrectCommission	1.595560	1.053102	0
11.604969	0.795855	city	10	1	0.613234	0.613234	0	1	0	0	CorrectCommission	1.117104	1.141960	0
12.400760	0.795726	city	3	1	0.648824	0.648824	0	1	0	0	CorrectCommission	0.789358	1.221324	0
13.196566	0.795886	city	1	1	0.549314	0.549314	0	1	0	0	CorrectCommission	1.705738	1.289410	0
13.992407	0.795798	city	5	1	0.561912	0.561912	0	1	0	0	CorrectCommission	1.589723	1.344720	0
14.788215	0.795817	city	2	1	0.549756	0.549756	0	1	0	0	CorrectCommission	1.701669	1.386210	0
15.584019	0.795790	city	7	1	0.502158	0.502158	0	1	0	0	CorrectCommission	2.139992	1.413278	0
16.379959	0.796090	city	10	1	0.618179	0.618179	0	1	0	0	CorrectCommission	1.071572	1.425813	0
17.175718	0.795431	city	3	1	0.564071	0.564071	0	1	0	0	CorrectCommission	1.569842	1.424339	0
17.971338	0.795807	city	7	1	0.598906	0.598906	0	1	0	0	CorrectCommission	1.249048	1.409867	0
18.767319	0.796154	city	2	1	0.549242	0.549242	0	1	0	0	CorrectCommission	1.706402	1.384059	0
19.563166	0.795538	city	3	1	0.463632	0.463632	0	1	0	0	CorrectCommission	2.494767	1.349039	0
20.358967	0.796065	city	8	1	0.500143	0.500143	0	1	0	0	CorrectCommission	2.158544	1.307302	0
21.154743	0.795488	city	2	1	0.549526	0.549526	0	1	0	0	CorrectCommission	1.703784	1.261564	0
21.950369	0.795763	city	9	1	0.748005	0.748005	0	1	0	0	CorrectCommission	0.123985	1.214440	0
22.746174	0.795849	city	4	1	0.752200	0.752200	0	1	0	0	CorrectCommission	0.162609	1.168303	0
23.542007	0.795817	city	9	1	0.699370	0.699370	0	1	0	0	CorrectCommission	0.323888	1.124923	0
24.337788	0.795744	city	4	1	0.649292	0.649292	0	1	0	0	CorrectCommission	0.785054	1.085405	0
25.133585	0.795851	city	2	1	0.602040	0.602040	0	1	0	0	CorrectCommission	1.220190	1.050131	0
25.929384	0.795746	city	3	1	0.609253	0.609253	0	1	0	0	CorrectCommission	1.153765	1.018882	0
26.725157	0.795798	city	8	1	0.605646	0.605646	0	1	0	0	CorrectCommission	1.186983	0.991049	0
27.521137	0.796163	city	6	1	0.551008	0.551008	0	1	0	0	CorrectCommission	1.690134	0.965815	0
28.317123	0.795809	city	9	1	0.598584	0.598584	0	1	0	0	CorrectCommission	1.252012	0.942382	0
29.112747	0.795439	city	3	1	0.698267	0.698267	0	1	0	0	CorrectCommission	0.334044	0.920234	0
29.908403	0.795874	mountain	1	0	0.000000	0.673270	1	0	0	0	CorrectOmission	0.564245	0.899187	0
30.704205	0.795725	city	8	1	0.611032	0.611032	0	1	0	0	CorrectCommission	1.137387	0.879358	0
31.500013	0.795894	city	7	1	0.598994	0.598994	0	1	0	0	CorrectCommission	1.248244	0.861140	0
32.295864	0.795806	city	1	1	0.600946	0.600946	0	1	0	0	CorrectCommission	1.230263	0.845091	0
33.091660	0.795790	city	9	1	0.752131	0.752131	0	1	0	0	CorrectCommission	0.161979	0.831728	0
33.887455	0.795798	city	7	1	0.699029	0.699029	0	1	0	0	CorrectCommission	0.327030	0.821461	0
34.683220	0.795733	city	9	1	0.698394	0.698394	0	1	0	0	CorrectCommission	0.332883	0.814317	0
35.479019	0.795862	city	4	1	0.649882	0.649882	0	1	0	0	CorrectCommission	0.779615	0.809965	0
36.274998	0.796092	city	9	1	0.648999	0.648999	0	1	0	0	CorrectCommission	0.787752	0.807682	0
37.070766	0.795450	city	6	1	0.797497	0.797497	0	1	0	0	CorrectCommission	0.579747	0.806430	0
37.866394	0.795804	city	8	1	0.550126	0.550126	0	1	0	0	CorrectCommission	1.698262	0.805012	0
38.662231	0.795874	city	3	1	0.612094	0.612094	0	1	0	0	CorrectCommission	1.127604	0.802178	0
39.458054	0.795770	city	8	1	0.648622	0.648622	0	1	0	0	CorrectCommission	0.791222	0.796918	0
40.253857	0.795835	city	1	1	0.648843	0.648843	0	1	0	0	CorrectCommission	0.789185	0.788458	0
41.049671	0.795794	city	9	1	0.798056	0.798056	0	1	0	0	CorrectCommission	0.584899	0.776370	0
41.845463	0.795786	city	5	1	0.649561	0.649561	0	1	0	0	CorrectCommission	0.782576	0.760597	0
42.641247	0.795788	mountain	2	0	0.000000	0.639304	1	0	0	0	CorrectOmission	0.877032	0.741445	0
43.437019	0.795753	city	7	1	0.661776	0.661776	0	1	0	0	CorrectCommission	0.670091	0.719518	0
44.232967	0.796141	city	8	1	0.611467	0.611467	0	1	0	0	CorrectCommission	1.133374	0.695701	1
45.028805	0.795538	city	3	1	0.698678	0.698678	0	1	0	0	CorrectCommission	0.330262	0.670989	1
45.824474	0.795799	city	8	1	0.654436	0.654436	0	1	0	0	CorrectCommission	0.737684	0.646528	1
46.620274	0.795797	city	10	1	0.648572	0.648572	0	1	0	0	CorrectCommission	0.791682	0.623434	1
47.416218	0.796093	city	4	1	0.798409	0.798409	0	1	0	0	CorrectCommission	0.588144	0.602750	1
48.212017	0.795501	city	2	1	0.747719	0.747719	0	1	0	0	CorrectCommission	0.121351	0.585335	1
49.007656	0.795777	city	8	1	0.698208	0.698208	0	1	0	0	CorrectCommission	0.334588	0.571863	1
49.803459	0.795832	city	3	1	0.705333	0.705333	0	1	0	0	CorrectCommission	0.268980	0.562783	1
50.599277	0.795800	city	1	1	0.797803	0.797803	0	1	0	0	CorrectCommission	0.582562	0.558279	1
51.395222	0.796095	city	7	1	0.848139	0.848139	0	1	0	0	CorrectCommission	1.046101	0.558257	1
52.190983	0.795426	city	9	1	0.798033	0.798033	0	1	0	0	CorrectCommission	0.584684	0.562500	1
52.986629	0.795863	city	10	1	0.750508	0.750508	0	1	0	0	CorrectCommission	0.147034	0.570699	1
53.782478	0.795835	mountain	7	0	0.000000	0.686340	1	0	0	0	CorrectOmission	0.443883	0.582540	1
54.578300	0.795811	city	9	1	0.665539	0.665539	0	1	0	0	CorrectCommission	0.635435	0.597756	1
55.374100	0.795789	city	10	1	0.748117	0.748117	0	1	0	0	CorrectCommission	0.125014	0.616163	1
56.169888	0.795785	city	9	1	0.810303	0.810303	0	1	0	0	CorrectCommission	0.697681	0.637749	1
56.965656	0.795755	city	8	1	0.664313	0.664313	0	1	0	0	CorrectCommission	0.646729	0.662539	1
57.761459	0.795851	city	1	1	0.553152	0.553152	0	1	0	0	CorrectCommission	1.670389	0.690597	1
58.557293	0.795811	mountain	10	1	0.648696	0.648696	0	0	1	0	CommissionError	0.790537	0.721832	0
59.353069	0.795746	city	8	1	0.848363	0.848363	0	1	0	0	CorrectCommission	1.048168	0.755957	0
60.148853	0.795823	city	9	1	0.748204	0.748204	0	1	0	0	CorrectCommission	0.125812	0.792229	0
60.944641	0.795750	city	3	1	0.707977	0.707977	0	1	0	0	CorrectCommission	0.244626	0.829442	0
61.740433	0.795838	mountain	7	0	0.000000	0.729905	1	0	0	0	CorrectOmission	0.042696	0.865780	0
62.536274	0.795839	city	6	1	0.762042	0.762042	0	1	0	0	CorrectCommission	0.253247	0.899049	0
63.332100	0.795814	city	4	1	0.752443	0.752443	0	1	0	0	CorrectCommission	0.164849	0.926832	0
64.127907	0.795797	city	5	1	0.898979	0.898979	0	1	0	0	CorrectCommission	1.514283	0.946747	0
64.923698	0.795784	city	7	1	1.196321	1.196321	0	1	0	0	CorrectCommission	4.252470	0.956844	0
65.719505	0.795838	city	5	1	0.997366	0.997366	0	1	0	0	CorrectCommission	2.420318	0.955904	0
66.515320	0.795784	city	10	0	0.000000	0.759616	0	0	0	1	OmissionError	0.230908	0.943840	0
67.311081	0.795745	city	5	1	0.615742	0.615742	0	1	0	0	CorrectCommission	1.094013	0.921638	0
68.106880	0.795843	city	3	1	0.698413	0.698413	0	1	0	0	CorrectCommission	0.332699	0.891088	0
68.902672	0.795741	city	7	1	0.704093	0.704093	0	1	0	0	CorrectCommission	0.280399	0.854746	0
69.698463	0.795843	city	6	1	0.705485	0.705485	0	1	0	0	CorrectCommission	0.267574	0.815479	0
70.494278	0.795793	city	10	1	0.660730	0.660730	0	1	0	0	CorrectCommission	0.679721	0.776162	0
71.290230	0.796107	city	8	1	0.599091	0.599091	0	1	0	0	CorrectCommission	1.247348	0.739336	0
72.086052	0.795546	city	5	1	0.648725	0.648725	0	1	0	0	CorrectCommission	0.790277	0.706965	1
72.881737	0.795813	city	9	1	0.649663	0.649663	0	1	0	0	CorrectCommission	0.781639	0.680333	1
73.677505	0.795736	city	3	1	0.699347	0.699347	0	1	0	0	CorrectCommission	0.324105	0.659940	1
74.473289	0.795824	city	6	1	0.715059	0.715059	0	1	0	0	CorrectCommission	0.179414	0.645624	1
75.269073	0.795742	mountain	9	0	0.000000	0.734936	1	0	0	0	CorrectOmission	0.003628	0.636573	1
76.064850	0.795817	city	2	1	0.750725	0.750725	0	1	0	0	CorrectCommission	0.149028	0.631620	1
76.860680	0.795849	city	1	1	0.754174	0.754174	0	1	0	0	CorrectCommission	0.180794	0.629518	1
77.656487	0.795764	city	2	1	0.909404	0.909404	0	1	0	0	CorrectCommission	1.610284	0.629060	1
78.452278	0.795818	city	6	1	1.046579	1.046579	0	1	0	0	CorrectCommission	2.873513	0.629312	1
79.248077	0.795777	city	9	1	0.716063	0.716063	0	1	0	0	CorrectCommission	0.170169	0.629768	1
80.043892	0.795844	city	3	1	0.749063	0.749063	0	1	0	0	CorrectCommission	0.133726	0.630488	1
80.839706	0.795797	city	6	1	0.748188	0.748188	0	1	0	0	CorrectCommission	0.125668	0.631834	1
81.635513	0.795818	city	3	1	0.751216	0.751216	0	1	0	0	CorrectCommission	0.153557	0.634429	1
82.431335	0.795824	city	6	1	0.652719	0.652719	0	1	0	0	CorrectCommission	0.753492	0.638880	1
83.227142	0.795790	mountain	8	0	0.000000	0.743505	1	0	0	0	CorrectOmission	0.082543	0.645713	1
84.022926	0.795778	city	7	1	0.849998	0.849998	0	1	0	0	CorrectCommission	1.063225	0.655322	1
84.818733	0.795834	city	6	1	0.798623	0.798623	0	1	0	0	CorrectCommission	0.590120	0.667709	1
85.614525	0.795742	city	4	1	0.797852	0.797852	0	1	0	0	CorrectCommission	0.583017	0.682681	1
86.410332	0.795872	city	6	1	0.848302	0.848302	0	1	0	0	CorrectCommission	1.047606	0.699755	1
87.206123	0.795712	city	7	1	0.861985	0.861985	0	1	0	0	CorrectCommission	1.173612	0.718278	0
88.001915	0.795880	city	9	1	0.712938	0.712938	0	1	0	0	CorrectCommission	0.198945	0.737619	0
88.797897	0.796077	city	10	1	0.698685	0.698685	0	1	0	0	CorrectCommission	0.330194	0.757316	0
89.593689	0.795514	city	4	1	0.847249	0.847249	0	1	0	0	CorrectCommission	1.037909	0.777142	0
90.389351	0.795803	city	7	1	0.766947	0.766947	0	1	0	0	CorrectCommission	0.298415	0.797279	0
91.185143	0.795775	city	2	1	0.750376	0.750376	0	1	0	0	CorrectCommission	0.145816	0.818501	0
91.980919	0.795781	city	9	1	1.098802	1.098802	0	1	0	0	CorrectCommission	3.354425	0.842042	0
92.776825	0.796039	city	3	1	0.798049	0.798049	0	1	0	0	CorrectCommission	0.584832	0.869364	0
93.572662	0.795630	city	2	1	0.648535	0.648535	0	1	0	0	CorrectCommission	0.792027	0.902274	0
94.368347	0.795745	city	1	1	0.658049	0.658049	0	1	0	0	CorrectCommission	0.704414	0.942292	0
95.164139	0.795832	city	6	1	0.698707	0.698707	0	1	0	0	CorrectCommission	0.329998	0.990396	0
95.959961	0.795822	city	4	1	0.698738	0.698738	0	1	0	0	CorrectCommission	0.329709	1.046606	0
96.755745	0.795732	city	6	1	0.847429	0.847429	0	1	0	0	CorrectCommission	1.039561	1.109841	0
97.551529	0.795848	city	1	1	0.698559	0.698559	0	1	0	0	CorrectCommission	0.331363	1.177711	0
98.347374	0.795831	city	9	1	0.698579	0.698579	0	1	0	0	CorrectCommission	0.331176	1.246705	0
99.143143	0.795719	city	3	0	0.000000	0.657470	0	0	0	1	OmissionError	0.709746	1.312389	0
99.938927	0.795847	city	1	1	0.551518	0.551518	0	1	0	0	CorrectCommission	1.685443	1.369939	0
100.734772	0.795844	city	9	1	0.357010	0.357010	0	1	0	0	CorrectCommission	3.476638	1.414680	0
101.530571	0.795748	city	8	1	0.410368	0.410368	0	1	0	0	CorrectCommission	2.985272	1.442683	0
102.326500	0.796113	city	2	1	0.499410	0.499410	0	1	0	0	CorrectCommission	2.165297	1.451366	0
103.122322	0.795532	city	4	1	0.450636	0.450636	0	1	0	0	CorrectCommission	2.614452	1.439738	0
103.917953	0.795724	city	3	1	0.499486	0.499486	0	1	0	0	CorrectCommission	2.164600	1.408445	0
104.713715	0.795807	city	1	1	0.698505	0.698505	0	1	0	0	CorrectCommission	0.331858	1.359709	0
105.509521	0.795809	city	5	1	0.749174	0.749174	0	1	0	0	CorrectCommission	0.134746	1.297049	0
106.305367	0.795871	city	6	1	0.897237	0.897237	0	1	0	0	CorrectCommission	1.498240	1.224723	0
107.101158	0.795714	city	8	1	0.550296	0.550296	0	1	0	0	CorrectCommission	1.696696	1.147215	0
107.896919	0.795808	city	10	1	0.648968	0.648968	0	1	0	0	CorrectCommission	0.788035	1.068943	0
108.692757	0.795869	mountain	2	0	0.000000	0.643312	1	0	0	0	CorrectOmission	0.840121	0.993889	0
109.488579	0.795779	city	3	1	0.665776	0.665776	0	1	0	0	CorrectCommission	0.633256	0.925200	0
110.284378	0.795814	city	10	1	0.848807	0.848807	0	1	0	0	CorrectCommission	1.052255	0.865192	0
111.080154	0.795746	city	9	1	0.762076	0.762076	0	1	0	0	CorrectCommission	0.253564	0.815244	0
111.875977	0.795888	city	2	1	0.714194	0.714194	0	1	0	0	CorrectCommission	0.187382	0.775897	0
112.671791	0.795752	city	4	1	0.699400	0.699400	0	1	0	0	CorrectCommission	0.323613	0.746918	0
113.467575	0.795806	city	3	1	0.619779	0.619779	0	1	0	0	CorrectCommission	1.056836	0.727486	0
114.263405	0.795858	city	5	1	0.699374	0.699374	0	1	0	0	CorrectCommission	0.323856	0.716315	0
115.059174	0.795688	city	7	1	0.899144	0.899144	0	1	0	0	CorrectCommission	1.515803	0.711953	1
115.854935	0.795821	city	10	1	0.748829	0.748829	0	1	0	0	CorrectCommission	0.131569	0.712784	1
116.650734	0.795791	city	3	1	0.847611	0.847611	0	1	0	0	CorrectCommission	1.041239	0.717336	0
117.446571	0.795873	city	5	1	0.798103	0.798103	0	1	0	0	CorrectCommission	0.585332	0.724167	0
118.242401	0.795787	city	8	1	0.704650	0.704650	0	1	0	0	CorrectCommission	0.275267	0.732093	0
119.038177	0.795762	city	10	1	0.661902	0.661902	0	1	0	0	CorrectCommission	0.668926	0.740310	0
119.833977	0.795843	city	2	1	0.617513	0.617513	0	1	0	0	CorrectCommission	1.077705	0.748308	0
120.629814	0.795834	city	10	1	0.613139	0.613139	0	1	0	0	CorrectCommission	1.117984	0.755962	0
121.425629	0.795796	city	1	1	0.612694	0.612694	0	1	0	0	CorrectCommission	1.122080	0.763492	0
122.221390	0.795720	city	6	1	0.798004	0.798004	0	1	0	0	CorrectCommission	0.584421	0.771465	0
123.017166	0.795827	city	1	1	0.803164	0.803164	0	1	0	0	CorrectCommission	0.631936	0.780641	0
123.812988	0.795822	city	6	1	0.700012	0.700012	0	1	0	0	CorrectCommission	0.317982	0.791746	0
124.608810	0.795820	city	5	1	0.551166	0.551166	0	1	0	0	CorrectCommission	1.688679	0.805377	0
125.404587	0.795740	city	2	1	0.698377	0.698377	0	1	0	0	CorrectCommission	0.333032	0.821764	0
126.200356	0.795792	city	6	1	0.798281	0.798281	0	1	0	0	CorrectCommission	0.586968	0.840790	0
126.996208	0.795910	city	8	1	0.698365	0.698365	0	1	0	0	CorrectCommission	0.333144	0.861719	0
127.792038	0.795754	city	7	1	0.698325	0.698325	0	1	0	0	CorrectCommission	0.333515	0.883319	0
128.587967	0.796112	city	8	1	0.648670	0.648670	0	1	0	0	CorrectCommission	0.790784	0.903950	0
129.383774	0.795501	city	4	1	0.607002	0.607002	0	1	0	0	CorrectCommission	1.174494	0.921731	0
130.179443	0.795841	city	2	1	0.549845	0.549845	0	1	0	0	CorrectCommission	1.700844	0.934839	0
130.975250	0.795759	city	4	1	0.555726	0.555726	0	1	0	0	CorrectCommission	1.646693	0.941670	0
131.770996	0.795748	city	10	1	0.549934	0.549934	0	1	0	0	CorrectCommission	1.700030	0.941162	0
132.566788	0.795824	city	7	1	0.698573	0.698573	0	1	0	0	CorrectCommission	0.331227	0.932852	0
133.362625	0.795839	city	4	1	0.698375	0.698375	0	1	0	0	CorrectCommission	0.333057	0.917084	0
134.158401	0.795735	city	7	1	1.009191	1.009191	0	1	0	0	CorrectCommission	2.529207	0.894795	0
134.954224	0.795903	city	3	1	0.798834	0.798834	0	1	0	0	CorrectCommission	0.592057	0.867406	0
135.750076	0.795789	city	8	1	0.656588	0.656588	0	1	0	0	CorrectCommission	0.717862	0.836851	0
136.545837	0.795752	mountain	7	0	0.000000	0.713641	1	0	0	0	CorrectOmission	0.192471	0.805106	0
137.341599	0.795762	city	10	1	0.813070	0.813070	0	1	0	0	CorrectCommission	0.723154	0.774106	0
138.137405	0.795841	city	7	1	0.797952	0.797952	0	1	0	0	CorrectCommission	0.583938	0.745543	0
138.933228	0.795805	city	8	1	0.699378	0.699378	0	1	0	0	CorrectCommission	0.323815	0.720808	0
139.729034	0.795820	city	4	1	0.810307	0.810307	0	1	0	0	CorrectCommission	0.697715	0.700928	1
140.524857	0.795812	city	1	1	0.798957	0.798957	0	1	0	0	CorrectCommission	0.593191	0.686536	1
141.320633	0.795740	city	6	1	0.897268	0.897268	0	1	0	0	CorrectCommission	1.498527	0.677955	1
142.116394	0.795799	city	8	1	0.754373	0.754373	0	1	0	0	CorrectCommission	0.182621	0.675114	1
142.912231	0.795883	city	9	1	0.798500	0.798500	0	1	0	0	CorrectCommission	0.588983	0.677773	1
143.708084	0.795816	city	1	1	0.699048	0.699048	0	1	0	0	CorrectCommission	0.326857	0.685325	1
144.503860	0.795730	city	7	1	0.698558	0.698558	0	1	0	0	CorrectCommission	0.331367	0.696911	1
145.299652	0.795854	city	4	1	0.897604	0.897604	0	1	0	0	CorrectCommission	1.501618	0.711358	1
146.095474	0.795779	city	3	1	0.805387	0.805387	0	1	0	0	CorrectCommission	0.652407	0.727130	0
146.891251	0.795798	city	8	1	0.707520	0.707520	0	1	0	0	CorrectCommission	0.248840	0.742516	0
147.687057	0.795808	city	1	1	0.748122	0.748122	0	1	0	0	CorrectCommission	0.125056	0.755615	0
148.482849	0.795778	city	10	1	0.798127	0.798127	0	1	0	0	CorrectCommission	0.585550	0.764526	0
149.278793	0.796099	city	4	1	0.848222	0.848222	0	1	0	0	CorrectCommission	1.046866	0.767523	0
150.074600	0.795534	city	2	1	0.915164	0.915164	0	1	0	0	CorrectCommission	1.663327	0.763300	0
150.870255	0.795774	city	4	1	0.947239	0.947239	0	1	0	0	CorrectCommission	1.958706	0.751162	0
151.666061	0.795838	city	5	1	0.847593	0.847593	0	1	0	0	CorrectCommission	1.041077	0.731068	0
152.461868	0.795765	city	2	1	0.798011	0.798011	0	1	0	0	CorrectCommission	0.584478	0.703874	1
153.257812	0.796126	mountain	2	0	0.000000	0.805350	1	0	0	0	CorrectOmission	0.652070	0.671177	1
154.053619	0.795494	city	4	1	0.808953	0.808953	0	1	0	0	CorrectCommission	0.685247	0.635091	1
154.849258	0.795786	city	1	1	0.748159	0.748159	0	1	0	0	CorrectCommission	0.125403	0.598234	1
155.645218	0.796125	city	3	1	0.698408	0.698408	0	1	0	0	CorrectCommission	0.332746	0.563381	1
156.441025	0.795481	city	6	1	0.747690	0.747690	0	1	0	0	CorrectCommission	0.121083	0.533371	1
157.236664	0.795814	city	2	1	0.699116	0.699116	0	1	0	0	CorrectCommission	0.326228	0.510895	1
158.032455	0.795755	city	10	1	0.698729	0.698729	0	1	0	0	CorrectCommission	0.329793	0.498416	1
158.828278	0.795884	city	5	1	0.700737	0.700737	0	1	0	0	CorrectCommission	0.311306	0.498031	1
159.624252	0.796066	city	10	1	0.812249	0.812249	0	1	0	0	CorrectCommission	0.715598	0.511463	1
160.420044	0.795521	city	5	1	0.807617	0.807617	0	1	0	0	CorrectCommission	0.672943	0.539888	1
161.215714	0.795808	city	1	1	0.716106	0.716106	0	1	0	0	CorrectCommission	0.169769	0.583841	1
162.011490	0.795744	mountain	5	0	0.000000	0.705536	1	0	0	0	CorrectOmission	0.267111	0.643161	1
162.807251	0.795788	city	5	1	0.718774	0.718774	0	1	0	0	CorrectCommission	0.145205	0.716664	0
163.603073	0.795848	city	7	1	0.698688	0.698688	0	1	0	0	CorrectCommission	0.330171	0.802211	0
164.398880	0.795784	city	6	1	0.648823	0.648823	0	1	0	0	CorrectCommission	0.789370	0.896594	0
165.194687	0.795814	city	7	1	0.698620	0.698620	0	1	0	0	CorrectCommission	0.330801	0.995665	0
165.990463	0.795759	city	5	1	0.804339	0.804339	0	1	0	0	CorrectCommission	0.642755	1.094590	0
166.786423	0.796151	city	10	1	0.665309	0.665309	0	1	0	0	CorrectCommission	0.637558	1.188175	0
167.582260	0.795527	city	9	1	0.947400	0.947400	0	1	0	0	CorrectCommission	1.960190	1.271367	0
168.377899	0.795750	city	2	1	1.146438	1.146438	0	1	0	0	CorrectCommission	3.793100	1.339652	0
169.173676	0.795810	city	8	1	0.847647	0.847647	0	1	0	0	CorrectCommission	1.041569	1.389579	0
169.969650	0.796125	city	1	1	1.146041	1.146041	0	1	0	0	CorrectCommission	3.789443	1.419238	0
170.765457	0.795503	city	5	0	0.000000	0.855964	0	0	0	1	OmissionError	1.118168	1.428033	0
171.561081	0.795736	city	1	1	0.499608	0.499608	0	1	0	0	CorrectCommission	2.163472	1.417017	0
172.356873	0.795832	city	6	1	0.599162	0.599162	0	1	0	0	CorrectCommission	1.246693	1.388325	0
173.152847	0.796135	city	5	1	0.599216	0.599216	0	1	0	0	CorrectCommission	1.246192	1.344983	0
173.948669	0.795504	city	7	1	0.650794	0.650794	0	1	0	0	CorrectCommission	0.771217	1.290360	0
174.744293	0.795735	mountain	9	0	0.000000	0.651957	1	0	0	0	CorrectOmission	0.760515	1.227786	0
175.540054	0.795808	city	4	1	0.651607	0.651607	0	1	0	0	CorrectCommission	0.763733	1.160203	0
176.335907	0.795880	city	3	1	0.698650	0.698650	0	1	0	0	CorrectCommission	0.330518	1.090041	0
177.131744	0.795787	city	2	1	0.997240	0.997240	0	1	0	0	CorrectCommission	2.419152	1.019092	0
177.927673	0.796095	city	6	1	0.847671	0.847671	0	1	0	0	CorrectCommission	1.041790	0.948585	0
178.723450	0.795455	city	5	1	0.897209	0.897209	0	1	0	0	CorrectCommission	1.497985	0.879499	0
179.519104	0.795845	city	9	1	0.800534	0.800534	0	1	0	0	CorrectCommission	0.607719	0.812580	0
180.314941	0.795813	city	3	1	0.698876	0.698876	0	1	0	0	CorrectCommission	0.328438	0.748612	0
181.110748	0.795800	city	1	1	0.699344	0.699344	0	1	0	0	CorrectCommission	0.324132	0.688439	1
181.906509	0.795724	mountain	10	0	0.000000	0.796091	1	0	0	0	CorrectOmission	0.566800	0.633008	1
182.702286	0.795856	city	5	1	0.847578	0.847578	0	1	0	0	CorrectCommission	1.040937	0.583434	1
183.498093	0.795748	city	3	1	0.712265	0.712265	0	1	0	0	CorrectCommission	0.205146	0.540763	1
184.293900	0.795853	city	10	1	0.768318	0.768318	0	1	0	0	CorrectCommission	0.311043	0.505982	1
185.089737	0.795839	city	8	1	0.748052	0.748052	0	1	0	0	CorrectCommission	0.124416	0.479854	1
185.885696	0.796068	city	9	1	0.748392	0.748392	0	1	0	0	CorrectCommission	0.127544	0.462891	1
186.681473	0.795479	city	2	1	0.698812	0.698812	0	1	0	0	CorrectCommission	0.329030	0.455352	1
187.477142	0.795872	city	4	1	0.749110	0.749110	0	1	0	0	CorrectCommission	0.134162	0.457124	1
188.272980	0.795787	city	10	1	0.798285	0.798285	0	1	0	0	CorrectCommission	0.587005	0.468006	1
189.068726	0.795719	city	2	1	0.698385	0.698385	0	1	0	0	CorrectCommission	0.332960	0.487612	1
189.864517	0.795854	mountain	5	0	0.000000	0.708908	1	0	0	0	CorrectOmission	0.236060	0.515573	1
190.660339	0.795803	city	8	1	0.702143	0.702143	0	1	0	0	CorrectCommission	0.298359	0.551501	1
191.456146	0.795805	city	5	1	0.550380	0.550380	0	1	0	0	CorrectCommission	1.695922	0.595028	1
192.252090	0.796095	city	3	1	0.750433	0.750433	0	1	0	0	CorrectCommission	0.146344	0.645671	1
193.047913	0.795533	city	8	1	0.848986	0.848986	0	1	0	0	CorrectCommission	1.053904	0.702861	1
193.843704	0.796066	mountain	9	1	0.704378	0.704378	0	0	1	0	CommissionError	0.277774	0.765632	0
194.639511	0.795529	city	5	1	0.698224	0.698224	0	1	0	0	CorrectCommission	0.334446	0.832515	0
195.435135	0.795715	mountain	10	1	0.698689	0.698689	0	0	1	0	CommissionError	0.330163	0.901481	0
196.230911	0.795862	city	9	1	0.748158	0.748158	0	1	0	0	CorrectCommission	0.125389	0.969892	0
197.026733	0.795782	city	2	1	0.798389	0.798389	0	1	0	0	CorrectCommission	0.587962	1.034702	0
197.822510	0.795760	city	8	1	1.096644	1.096644	0	1	0	0	CorrectCommission	3.334558	1.092642	0
198.618301	0.795806	city	1	1	0.914035	0.914035	0	1	0	0	CorrectCommission	1.652931	1.140430	0
199.414139	0.795874	city	5	0	0.000000	0.776471	0	0	0	1	OmissionError	0.386126	1.175407	0
200.209930	0.795724	city	10	1	0.612369	0.612369	0	1	0	0	CorrectCommission	1.125076	1.195745	0
201.005722	0.795866	city	3	1	0.350141	0.350141	0	1	0	0	CorrectCommission	3.539899	1.200569	0
201.801559	0.795795	city	1	1	0.551454	0.551454	0	1	0	0	CorrectCommission	1.686026	1.190153	0
202.597382	0.795847	city	9	1	0.649595	0.649595	0	1	0	0	CorrectCommission	0.782267	1.166093	0
203.393204	0.795811	city	4	1	0.602844	0.602844	0	1	0	0	CorrectCommission	1.212784	1.130944	0
204.188980	0.795732	city	8	1	0.600568	0.600568	0	1	0	0	CorrectCommission	1.233747	1.087920	0
204.984772	0.795861	city	3	1	0.599018	0.599018	0	1	0	0	CorrectCommission	1.248018	1.040565	0
205.780563	0.795706	city	5	1	0.698539	0.698539	0	1	0	0	CorrectCommission	0.331546	0.992331	0
206.576340	0.795842	city	10	1	0.698449	0.698449	0	1	0	0	CorrectCommission	0.332371	0.946236	0
207.372131	0.795759	city	8	1	0.698672	0.698672	0	1	0	0	CorrectCommission	0.330318	0.904513	0
208.167969	0.795902	city	3	1	0.812409	0.812409	0	1	0	0	CorrectCommission	0.717072	0.868488	0
208.963760	0.795701	city	9	1	0.615094	0.615094	0	1	0	0	CorrectCommission	1.099981	0.838492	0
209.759521	0.795803	city	7	1	0.648969	0.648969	0	1	0	0	CorrectCommission	0.788024	0.814070	0
210.555511	0.796173	city	9	1	0.650000	0.650000	0	1	0	0	CorrectCommission	0.778531	0.794136	0
211.351318	0.795445	city	6	1	0.698660	0.698660	0	1	0	0	CorrectCommission	0.330426	0.777236	0
212.147110	0.796158	city	7	1	0.848189	0.848189	0	1	0	0	CorrectCommission	1.046567	0.761854	0
212.943085	0.795783	city	4	1	0.897641	0.897641	0	1	0	0	CorrectCommission	1.501962	0.746633	0
213.738724	0.795492	city	5	1	0.698555	0.698555	0	1	0	0	CorrectCommission	0.331398	0.730570	0
214.534393	0.795848	city	8	1	0.704497	0.704497	0	1	0	0	CorrectCommission	0.276676	0.713224	1
215.330215	0.795805	city	9	1	1.001304	1.001304	0	1	0	0	CorrectCommission	2.456578	0.694527	1
216.126007	0.795770	city	3	1	0.716197	0.716197	0	1	0	0	CorrectCommission	0.168931	0.674801	1
216.921814	0.795847	city	10	1	0.699047	0.699047	0	1	0	0	CorrectCommission	0.326861	0.654812	1
217.717636	0.795797	city	2	1	0.702259	0.702259	0	1	0	0	CorrectCommission	0.297284	0.635345	1
218.513428	0.795778	mountain	5	0	0.000000	0.765470	1	0	0	0	CorrectOmission	0.284819	0.617040	1
219.309219	0.795816	city	4	1	0.797952	0.797952	0	1	0	0	CorrectCommission	0.583939	0.600381	1
220.104980	0.795713	city	6	1	0.708976	0.708976	0	1	0	0	CorrectCommission	0.235434	0.585566	1
220.900742	0.795799	city	7	1	0.649789	0.649789	0	1	0	0	CorrectCommission	0.780477	0.572506	1
221.696564	0.795846	city	6	1	0.667527	0.667527	0	1	0	0	CorrectCommission	0.617131	0.560809	1
222.492401	0.795818	city	8	1	0.657405	0.657405	0	1	0	0	CorrectCommission	0.710345	0.549991	1
223.288223	0.795831	city	9	1	0.797815	0.797815	0	1	0	0	CorrectCommission	0.582674	0.539550	1
224.084045	0.795815	city	8	1	0.806586	0.806586	0	1	0	0	CorrectCommission	0.663444	0.529126	1
224.879990	0.796063	city	10	1	0.661529	0.661529	0	1	0	0	CorrectCommission	0.672365	0.518553	1
225.675751	0.795467	city	5	1	0.654870	0.654870	0	1	0	0	CorrectCommission	0.733687	0.507962	1
226.471542	0.796125	city	10	1	0.748066	0.748066	0	1	0	0	CorrectCommission	0.124544	0.497792	1
227.267334	0.795451	city	1	1	0.748003	0.748003	0	1	0	0	CorrectCommission	0.123969	0.488763	1
228.062958	0.795797	city	5	1	0.850025	0.850025	0	1	0	0	CorrectCommission	1.063471	0.481753	1
228.858795	0.795889	city	1	1	0.750188	0.750188	0	1	0	0	CorrectCommission	0.144089	0.477700	1
229.654617	0.795742	city	9	1	0.699118	0.699118	0	1	0	0	CorrectCommission	0.326216	0.477551	1
230.450409	0.795855	city	3	1	0.698679	0.698679	0	1	0	0	CorrectCommission	0.330255	0.482007	1
231.246201	0.795727	city	8	1	0.652637	0.652637	0	1	0	0	CorrectCommission	0.754245	0.491515	1
232.041992	0.795854	city	4	1	0.712263	0.712263	0	1	0	0	CorrectCommission	0.205158	0.506106	1
232.837830	0.795807	city	1	1	0.699198	0.699198	0	1	0	0	CorrectCommission	0.325477	0.525296	1
233.633591	0.795728	city	2	1	0.748370	0.748370	0	1	0	0	CorrectCommission	0.127345	0.548173	1
234.429367	0.795827	city	5	1	0.698929	0.698929	0	1	0	0	CorrectCommission	0.327956	0.573376	1
235.225235	0.795889	city	1	1	0.658210	0.658210	0	1	0	0	CorrectCommission	0.702927	0.599161	1
236.021042	0.795739	city	8	1	0.617025	0.617025	0	1	0	0	CorrectCommission	1.082192	0.623647	1
236.816849	0.795857	city	4	1	0.698729	0.698729	0	1	0	0	CorrectCommission	0.329795	0.644894	1
237.612808	0.796069	city	2	1	0.598864	0.598864	0	1	0	0	CorrectCommission	1.249437	0.661256	1
238.408600	0.795511	city	6	1	0.648409	0.648409	0	1	0	0	CorrectCommission	0.793186	0.671395	1
239.204269	0.795832	city	10	1	0.600195	0.600195	0	1	0	0	CorrectCommission	1.237181	0.674619	1
240.000076	0.795780	city	9	1	0.698589	0.698589	0	1	0	0	CorrectCommission	0.331083	0.670860	1
240.796005	0.796091	mountain	9	1	0.655085	0.655085	0	0	1	0	CommissionError	0.731708	0.660793	1
241.591812	0.795508	city	6	1	0.896937	0.896937	0	1	0	0	CorrectCommission	1.495474	0.645682	1
242.387466	0.795815	mountain	1	0	0.000000	0.829791	1	0	0	0	CorrectOmission	0.877135	0.627253	1
243.183273	0.795783	city	9	1	0.698598	0.698598	0	1	0	0	CorrectCommission	0.331002	0.607550	1
243.979202	0.796101	city	4	1	0.748310	0.748310	0	1	0	0	CorrectCommission	0.126788	0.588627	1
244.775009	0.795487	city	7	1	0.698718	0.698718	0	1	0	0	CorrectCommission	0.329896	0.572309	1
245.570618	0.795756	mountain	1	0	0.000000	0.756276	1	0	0	0	CorrectOmission	0.200145	0.559894	1
246.366409	0.795820	city	2	1	0.799090	0.799090	0	1	0	0	CorrectCommission	0.594415	0.552099	1
247.162216	0.795795	city	1	1	0.705268	0.705268	0	1	0	0	CorrectCommission	0.269579	0.548926	1
247.958008	0.795780	mountain	3	0	0.000000	0.733731	1	0	0	0	CorrectOmission	0.007466	0.549734	1
248.753815	0.795842	city	10	1	0.799178	0.799178	0	1	0	0	CorrectCommission	0.595225	0.553342	1
249.549667	0.795842	city	5	1	0.816307	0.816307	0	1	0	0	CorrectCommission	0.752967	0.558221	1
250.345627	0.796081	city	3	1	0.748107	0.748107	0	1	0	0	CorrectCommission	0.124922	0.562782	1
251.141418	0.795518	city	6	1	0.953259	0.953259	0	1	0	0	CorrectCommission	2.014136	0.565619	1
251.937057	0.795758	city	3	1	0.668988	0.668988	0	1	0	0	CorrectCommission	0.603676	0.565583	1
252.732880	0.795872	city	6	1	0.848442	0.848442	0	1	0	0	CorrectCommission	1.048890	0.562163	1
253.528702	0.795800	city	1	1	0.748314	0.748314	0	1	0	0	CorrectCommission	0.126829	0.555311	1
254.324509	0.795804	city	9	1	0.797813	0.797813	0	1	0	0	CorrectCommission	0.582655	0.545592	1
255.120300	0.795775	city	1	1	0.699078	0.699078	0	1	0	0	CorrectCommission	0.326577	0.533960	1
255.916092	0.795794	city	7	1	0.761363	0.761363	0	1	0	0	CorrectCommission	0.246993	0.521654	1
256.711884	0.795780	city	8	1	0.799655	0.799655	0	1	0	0	CorrectCommission	0.599617	0.510006	1
257.507812	0.796114	city	4	1	0.700350	0.700350	0	1	0	0	CorrectCommission	0.314870	0.500306	1
258.303589	0.795445	city	3	1	0.649151	0.649151	0	1	0	0	CorrectCommission	0.786348	0.493668	1
259.099243	0.795838	city	4	1	0.700843	0.700843	0	1	0	0	CorrectCommission	0.310328	0.490830	1
259.895050	0.795806	city	6	1	0.652497	0.652497	0	1	0	0	CorrectCommission	0.755537	0.492209	1
260.690857	0.795758	city	9	1	0.748887	0.748887	0	1	0	0	CorrectCommission	0.132105	0.497787	1
261.486633	0.795823	city	6	1	0.748392	0.748392	0	1	0	0	CorrectCommission	0.127550	0.507198	1
262.282471	0.795832	city	8	1	0.698773	0.698773	0	1	0	0	CorrectCommission	0.329385	0.519708	1
263.078430	0.796120	city	4	1	0.748150	0.748150	0	1	0	0	CorrectCommission	0.125315	0.534344	1
263.874207	0.795433	mountain	9	0	0.000000	0.670780	1	0	0	0	CorrectOmission	0.587168	0.550043	1
264.669861	0.795856	city	5	1	0.657009	0.657009	0	1	0	0	CorrectCommission	0.713986	0.565764	1
265.465668	0.795783	city	2	1	0.897179	0.897179	0	1	0	0	CorrectCommission	1.497710	0.580605	1
266.261444	0.795763	mountain	8	0	0.000000	0.861109	1	0	0	0	CorrectOmission	1.165541	0.593885	1
267.057281	0.795872	city	1	1	0.761176	0.761176	0	1	0	0	CorrectCommission	0.245277	0.605225	1
267.853119	0.795825	city	3	1	0.809761	0.809761	0	1	0	0	CorrectCommission	0.692688	0.614549	1
268.648895	0.795702	city	2	1	0.748357	0.748357	0	1	0	0	CorrectCommission	0.127222	0.621875	1
269.444824	0.796167	city	1	1	0.754171	0.754171	0	1	0	0	CorrectCommission	0.180762	0.627408	1
270.240784	0.795797	city	7	1	0.897751	0.897751	0	1	0	0	CorrectCommission	1.502976	0.631338	1
271.036469	0.795547	city	3	1	0.754271	0.754271	0	1	0	0	CorrectCommission	0.181685	0.633793	1
271.832092	0.795701	city	4	1	0.708773	0.708773	0	1	0	0	CorrectCommission	0.237300	0.634897	1
272.627838	0.795810	city	9	1	0.649845	0.649845	0	1	0	0	CorrectCommission	0.779957	0.634629	1
273.423676	0.795864	city	2	1	0.612277	0.612277	0	1	0	0	CorrectCommission	1.125916	0.632925	1
274.219513	0.795789	city	9	1	0.662798	0.662798	0	1	0	0	CorrectCommission	0.660676	0.629743	1
275.015289	0.795784	city	4	1	0.649264	0.649264	0	1	0	0	CorrectCommission	0.785314	0.625168	1
275.811096	0.795807	city	6	1	0.648587	0.648587	0	1	0	0	CorrectCommission	0.791543	0.619399	1
276.607056	0.796116	mountain	7	0	0.000000	0.664837	1	0	0	0	CorrectOmission	0.641902	0.612831	1
277.402893	0.795541	city	9	1	0.698340	0.698340	0	1	0	0	CorrectCommission	0.333372	0.606013	1
278.198700	0.796063	city	8	1	0.749426	0.749426	0	1	0	0	CorrectCommission	0.137066	0.599675	1
278.994476	0.795526	city	9	1	0.809866	0.809866	0	1	0	0	CorrectCommission	0.693652	0.594662	1
279.790100	0.795710	city	6	1	0.864086	0.864086	0	1	0	0	CorrectCommission	1.192962	0.591833	1
280.585876	0.795847	city	2	1	0.748529	0.748529	0	1	0	0	CorrectCommission	0.128808	0.592034	1
281.381714	0.795817	city	7	1	0.798180	0.798180	0	1	0	0	CorrectCommission	0.586041	0.596002	1
282.177521	0.795817	city	8	1	0.648694	0.648694	0	1	0	0	CorrectCommission	0.790558	0.604210	1
282.973297	0.795736	city	5	1	0.700431	0.700431	0	1	0	0	CorrectCommission	0.314117	0.616778	1
283.769104	0.795838	mountain	1	0	0.000000	0.699602	1	0	0	0	CorrectOmission	0.321758	0.633514	1
284.564911	0.795784	city	3	1	0.711241	0.711241	0	1	0	0	CorrectCommission	0.214570	0.653746	1
285.360718	0.795818	city	5	1	0.800387	0.800387	0	1	0	0	CorrectCommission	0.606362	0.676387	1
286.156555	0.795857	city	7	1	0.854110	0.854110	0	1	0	0	CorrectCommission	1.101091	0.699987	1
286.952332	0.795738	city	8	1	0.865769	0.865769	0	1	0	0	CorrectCommission	1.208459	0.722869	0
287.748108	0.795776	city	3	1	0.702464	0.702464	0	1	0	0	CorrectCommission	0.295402	0.743231	0
288.543915	0.795851	city	6	1	0.698536	0.698536	0	1	0	0	CorrectCommission	0.331572	0.759442	0
289.339752	0.795839	city	9	1	0.648644	0.648644	0	1	0	0	CorrectCommission	0.791016	0.770100	0
290.135590	0.795810	city	2	1	0.599202	0.599202	0	1	0	0	CorrectCommission	1.246320	0.774257	0
290.931366	0.795769	city	4	1	0.550106	0.550106	0	1	0	0	CorrectCommission	1.698443	0.771512	0
291.727142	0.795778	city	5	1	0.549072	0.549072	0	1	0	0	CorrectCommission	1.707964	0.762133	0
292.522949	0.795819	city	8	1	0.655498	0.655498	0	1	0	0	CorrectCommission	0.727902	0.747011	0
293.318726	0.795752	city	5	1	0.699331	0.699331	0	1	0	0	CorrectCommission	0.324246	0.727596	0
294.114502	0.795811	city	1	1	0.698748	0.698748	0	1	0	0	CorrectCommission	0.329619	0.705659	1
294.910492	0.796138	city	8	1	0.698710	0.698710	0	1	0	0	CorrectCommission	0.329973	0.683076	1
295.706299	0.795503	city	1	1	0.648569	0.648569	0	1	0	0	CorrectCommission	0.791712	0.661661	1
296.501953	0.795793	mountain	10	0	0.000000	0.723124	1	0	0	0	CorrectOmission	0.105139	0.642943	1
297.297729	0.795794	city	7	1	0.798065	0.798065	0	1	0	0	CorrectCommission	0.584979	0.628071	1
298.093536	0.795760	city	1	1	0.749079	0.749079	0	1	0	0	CorrectCommission	0.133877	0.617747	1
298.889343	0.795860	city	5	1	0.947791	0.947791	0	1	0	0	CorrectCommission	1.963784	0.612253	1
299.685120	0.795742	city	9	1	0.748123	0.748123	0	1	0	0	CorrectCommission	0.125066	0.611390	1
300.481079	0.796159	city	10	1	0.762032	0.762032	0	1	0	0	CorrectCommission	0.253159	0.614770	1
301.276917	0.795491	city	3	1	0.748802	0.748802	0	1	0	0	CorrectCommission	0.131319	0.621724	1
302.072571	0.795844	city	8	1	0.648811	0.648811	0	1	0	0	CorrectCommission	0.789479	0.631511	1
302.868408	0.795804	city	5	1	0.815756	0.815756	0	1	0	0	CorrectCommission	0.747895	0.643336	1
303.664185	0.795793	city	4	1	0.848468	0.848468	0	1	0	0	CorrectCommission	1.049135	0.656502	1
304.459961	0.795752	city	10	1	0.698809	0.698809	0	1	0	0	CorrectCommission	0.329054	0.670416	1
305.255768	0.795863	city	6	1	0.851284	0.851284	0	1	0	0	CorrectCommission	1.075064	0.684704	1
306.051575	0.795757	city	1	1	0.707413	0.707413	0	1	0	0	CorrectCommission	0.249824	0.699102	1
306.847382	0.795824	city	5	1	0.653303	0.653303	0	1	0	0	CorrectCommission	0.748119	0.713498	1
307.643188	0.795798	city	10	1	0.648881	0.648881	0	1	0	0	CorrectCommission	0.788834	0.727843	0
308.438995	0.795804	mountain	1	1	0.600310	0.600310	0	0	1	0	CommissionError	1.236126	0.742160	0
309.234772	0.795736	city	9	1	0.847676	0.847676	0	1	0	0	CorrectCommission	1.041843	0.756465	0
310.030518	0.795800	city	6	1	0.748711	0.748711	0	1	0	0	CorrectCommission	0.130481	0.770791	0
310.826355	0.795848	city	4	1	0.701341	0.701341	0	1	0	0	CorrectCommission	0.305744	0.785155	0
311.622162	0.795748	city	3	1	0.653163	0.653163	0	1	0	0	CorrectCommission	0.749408	0.799459	0
312.417938	0.795836	city	5	1	0.798987	0.798987	0	1	0	0	CorrectCommission	0.593472	0.813556	0
313.213776	0.795825	city	1	1	0.855610	0.855610	0	1	0	0	CorrectCommission	1.114900	0.827251	0
314.009583	0.795790	city	10	1	0.897905	0.897905	0	1	0	0	CorrectCommission	1.504393	0.840331	0
314.805389	0.795830	city	2	1	0.910923	0.910923	0	1	0	0	CorrectCommission	1.624271	0.852523	0
315.601349	0.796100	city	10	1	0.797763	0.797763	0	1	0	0	CorrectCommission	0.582198	0.863549	0
316.397125	0.795434	city	9	1	0.698068	0.698068	0	1	0	0	CorrectCommission	0.335879	0.873034	0
317.192780	0.795896	city	10	1	0.648804	0.648804	0	1	0	0	CorrectCommission	0.789545	0.880508	0
317.988770	0.796065	city	3	1	0.698709	0.698709	0	1	0	0	CorrectCommission	0.329978	0.885351	0
318.784698	0.795809	city	5	1	0.797739	0.797739	0	1	0	0	CorrectCommission	0.581980	0.886869	0
319.580383	0.795538	city	7	1	0.849035	0.849035	0	1	0	0	CorrectCommission	1.054350	0.884282	0
320.376007	0.795753	city	6	1	0.897909	0.897909	0	1	0	0	CorrectCommission	1.504429	0.876856	0
321.171783	0.795791	city	4	1	0.948162	0.948162	0	1	0	0	CorrectCommission	1.967206	0.864023	0
321.967560	0.795749	city	3	1	0.812467	0.812467	0	1	0	0	CorrectCommission	0.717606	0.845541	0
322.763336	0.795811	city	9	1	0.649084	0.649084	0	1	0	0	CorrectCommission	0.786968	0.821544	0
323.559174	0.795863	city	7	1	0.649004	0.649004	0	1	0	0	CorrectCommission	0.787708	0.792547	0
324.355164	0.796099	city	6	1	0.655112	0.655112	0	1	0	0	CorrectCommission	0.731457	0.759411	0
325.151123	0.795812	city	7	1	0.651995	0.651995	0	1	0	0	CorrectCommission	0.760165	0.723285	0
325.946777	0.795502	city	5	1	0.648502	0.648502	0	1	0	0	CorrectCommission	0.792326	0.685485	1
326.742432	0.795825	city	7	1	0.698309	0.698309	0	1	0	0	CorrectCommission	0.333666	0.647365	1
327.538239	0.795770	city	6	1	0.798779	0.798779	0	1	0	0	CorrectCommission	0.591555	0.610261	1
328.334167	0.796103	city	9	1	0.698319	0.698319	0	1	0	0	CorrectCommission	0.333574	0.575319	1
329.129974	0.795520	city	5	1	0.649292	0.649292	0	1	0	0	CorrectCommission	0.785052	0.543488	1
329.925598	0.795718	city	10	1	0.698395	0.698395	0	1	0	0	CorrectCommission	0.332869	0.515444	1
330.721405	0.795907	mountain	2	0	0.000000	0.698014	1	0	0	0	CorrectOmission	0.336381	0.491686	1
331.517212	0.795713	city	6	1	0.698656	0.698656	0	1	0	0	CorrectCommission	0.330463	0.472526	1
332.313019	0.795858	city	10	1	0.750832	0.750832	0	1	0	0	CorrectCommission	0.150015	0.458134	1
333.108826	0.795803	city	3	1	0.657114	0.657114	0	1	0	0	CorrectCommission	0.713023	0.448632	1
333.904633	0.795789	city	2	1	0.798048	0.798048	0	1	0	0	CorrectCommission	0.584820	0.444096	1
334.700562	0.796088	mountain	5	0	0.000000	0.796419	1	0	0	0	CorrectOmission	0.569821	0.444520	1
335.496338	0.795451	city	10	1	0.748040	0.748040	0	1	0	0	CorrectCommission	0.124304	0.449870	1
336.292023	0.795902	city	1	1	0.748723	0.748723	0	1	0	0	CorrectCommission	0.130590	0.459947	1
337.088013	0.796060	city	8	1	0.648703	0.648703	0	1	0	0	CorrectCommission	0.790478	0.474369	1
337.883789	0.795539	city	1	1	0.758534	0.758534	0	1	0	0	CorrectCommission	0.220940	0.492477	1
338.679443	0.795713	city	2	1	0.707644	0.707644	0	1	0	0	CorrectCommission	0.247697	0.513372	1
339.475189	0.795793	mountain	7	0	0.000000	0.705389	1	0	0	0	CorrectOmission	0.268467	0.535943	1
340.270996	0.795861	city	9	1	0.703965	0.703965	0	1	0	0	CorrectCommission	0.281577	0.558934	1
341.066864	0.795831	city	7	1	0.655570	0.655570	0	1	0	0	CorrectCommission	0.727239	0.581025	1
341.862671	0.795790	city	2	1	0.649634	0.649634	0	1	0	0	CorrectCommission	0.781899	0.601041	1
342.658600	0.796096	city	1	1	0.599525	0.599525	0	1	0	0	CorrectCommission	1.243353	0.618073	1
343.454407	0.795496	city	9	1	0.605625	0.605625	0	1	0	0	CorrectCommission	1.187176	0.631546	1
344.250061	0.795808	city	8	1	0.599179	0.599179	0	1	0	0	CorrectCommission	1.246540	0.641360	1
345.045868	0.795835	city	4	1	0.748852	0.748852	0	1	0	0	CorrectCommission	0.131780	0.647808	1
345.841675	0.795777	city	8	1	0.700730	0.700730	0	1	0	0	CorrectCommission	0.311364	0.651588	1
346.637451	0.795751	city	2	1	0.661778	0.661778	0	1	0	0	CorrectCommission	0.670067	0.653522	1
347.433258	0.795847	city	6	1	0.699339	0.699339	0	1	0	0	CorrectCommission	0.324180	0.654498	1
348.229065	0.795774	city	4	1	0.702886	0.702886	0	1	0	0	CorrectCommission	0.291516	0.655308	1
349.024872	0.795862	city	2	1	0.603007	0.603007	0	1	0	0	CorrectCommission	1.211284	0.656500	1
349.820679	0.795733	city	5	1	0.748077	0.748077	0	1	0	0	CorrectCommission	0.124641	0.658329	1
350.616455	0.795819	city	7	1	0.897477	0.897477	0	1	0	0	CorrectCommission	1.500451	0.660760	1
351.412231	0.795749	city	6	1	0.762144	0.762144	0	1	0	0	CorrectCommission	0.254187	0.663430	1
352.208038	0.795860	city	10	1	0.648595	0.648595	0	1	0	0	CorrectCommission	0.791474	0.665825	1
353.003876	0.795820	city	2	1	0.662437	0.662437	0	1	0	0	CorrectCommission	0.663998	0.667268	1
353.799652	0.795722	city	8	1	0.714758	0.714758	0	1	0	0	CorrectCommission	0.182188	0.667110	1
354.595428	0.795830	city	7	1	0.666733	0.666733	0	1	0	0	CorrectCommission	0.624444	0.664783	1
355.391235	0.795780	city	9	1	0.600794	0.600794	0	1	0	0	CorrectCommission	1.231662	0.659975	1
356.187195	0.796166	city	8	1	0.698753	0.698753	0	1	0	0	CorrectCommission	0.329573	0.652652	1
356.983185	0.795777	city	1	1	0.567861	0.567861	0	1	0	0	CorrectCommission	1.534937	0.643174	1
357.778809	0.795517	city	2	1	0.598792	0.598792	0	1	0	0	CorrectCommission	1.250102	0.632173	1
358.574463	0.795763	city	3	1	0.749057	0.749057	0	1	0	0	CorrectCommission	0.133674	0.620609	1
359.370270	0.795829	city	7	1	0.749804	0.749804	0	1	0	0	CorrectCommission	0.140547	0.609705	1
360.166046	0.795774	city	3	1	0.757809	0.757809	0	1	0	0	CorrectCommission	0.214270	0.600719	1
360.961884	0.795854	city	8	1	0.658797	0.658797	0	1	0	0	CorrectCommission	0.697522	0.594879	1
361.757690	0.795799	city	1	1	0.698809	0.698809	0	1	0	0	CorrectCommission	0.329053	0.593236	1
362.553467	0.795752	city	5	1	0.649690	0.649690	0	1	0	0	CorrectCommission	0.781386	0.596632	1
363.349274	0.795834	city	9	1	0.699101	0.699101	0	1	0	0	CorrectCommission	0.326366	0.605582	1
364.145111	0.795832	city	4	1	0.713481	0.713481	0	1	0	0	CorrectCommission	0.193941	0.620280	1
364.940887	0.795756	city	2	1	0.599377	0.599377	0	1	0	0	CorrectCommission	1.244709	0.640582	1
365.736694	0.795824	city	7	1	0.762216	0.762216	0	1	0	0	CorrectCommission	0.254846	0.666018	1
366.532501	0.795820	city	4	1	0.863094	0.863094	0	1	0	0	CorrectCommission	1.183820	0.695841	1
367.328308	0.795761	city	9	1	0.699391	0.699391	0	1	0	0	CorrectCommission	0.323693	0.729008	0
368.124084	0.795846	city	3	1	0.698285	0.698285	0	1	0	0	CorrectCommission	0.333887	0.764244	0
368.919922	0.795788	city	5	1	0.799852	0.799852	0	1	0	0	CorrectCommission	0.601439	0.800166	0
369.715698	0.795780	mountain	3	1	0.749379	0.749379	0	0	1	0	CommissionError	0.136635	0.835246	0
370.511505	0.795827	city	2	1	0.947804	0.947804	0	1	0	0	CorrectCommission	1.963907	0.868032	0
371.307465	0.796093	mountain	2	0	0.000000	0.939321	1	0	0	0	CorrectOmission	1.885784	0.897131	0
372.103271	0.795503	city	9	1	0.848002	0.848002	0	1	0	0	CorrectCommission	1.044839	0.921425	0
372.898895	0.795735	city	1	1	0.797920	0.797920	0	1	0	0	CorrectCommission	0.583647	0.940093	0
373.694672	0.795822	city	7	1	0.748806	0.748806	0	1	0	0	CorrectCommission	0.131360	0.952671	0
374.490540	0.795935	city	1	1	0.864048	0.864048	0	1	0	0	CorrectCommission	1.192604	0.959027	0
375.286346	0.795703	city	4	1	0.898204	0.898204	0	1	0	0	CorrectCommission	1.507142	0.959278	0
376.082092	0.795790	city	6	1	0.908695	0.908695	0	1	0	0	CorrectCommission	1.603757	0.953869	0
376.877899	0.795800	city	7	1	0.897949	0.897949	0	1	0	0	CorrectCommission	1.504800	0.943444	0
377.673676	0.795781	city	8	1	0.797858	0.797858	0	1	0	0	CorrectCommission	0.583069	0.928732	0
378.469513	0.795850	city	4	1	0.798045	0.798045	0	1	0	0	CorrectCommission	0.584795	0.910479	0
379.265320	0.795780	city	6	1	0.698995	0.698995	0	1	0	0	CorrectCommission	0.327347	0.889347	0
380.061127	0.795853	city	7	1	0.765262	0.765262	0	1	0	0	CorrectCommission	0.282905	0.865854	0
380.856964	0.795803	city	3	1	0.897605	0.897605	0	1	0	0	CorrectCommission	1.501631	0.840377	0
381.652771	0.795792	city	4	1	0.862212	0.862212	0	1	0	0	CorrectCommission	1.175699	0.813129	0
382.448669	0.796043	city	6	1	0.848141	0.848141	0	1	0	0	CorrectCommission	1.046121	0.784316	0
383.244629	0.795833	city	8	1	0.698687	0.698687	0	1	0	0	CorrectCommission	0.330182	0.754216	0
384.040283	0.795474	city	5	1	0.907083	0.907083	0	1	0	0	CorrectCommission	1.588907	0.723201	0
384.836060	0.796092	city	8	1	0.702418	0.702418	0	1	0	0	CorrectCommission	0.295820	0.691810	1
385.631866	0.795545	city	2	1	0.799968	0.799968	0	1	0	0	CorrectCommission	0.602500	0.660907	1
386.427551	0.795836	city	7	1	0.798603	0.798603	0	1	0	0	CorrectCommission	0.589930	0.631446	1
387.223358	0.795728	city	9	1	0.698333	0.698333	0	1	0	0	CorrectCommission	0.333437	0.604625	1
388.019135	0.795846	city	4	1	0.698359	0.698359	0	1	0	0	CorrectCommission	0.333205	0.581721	1
388.814941	0.795797	mountain	6	0	0.000000	0.787828	1	0	0	0	CorrectOmission	0.490707	0.564031	1
389.610870	0.796068	city	6	1	0.847420	0.847420	0	1	0	0	CorrectCommission	1.039481	0.552783	1
390.406708	0.795552	city	9	1	0.757812	0.757812	0	1	0	0	CorrectCommission	0.214294	0.548981	1
391.202362	0.795779	city	1	1	0.698902	0.698902	0	1	0	0	CorrectCommission	0.328198	0.553332	1
391.998138	0.795771	city	4	1	0.798379	0.798379	0	1	0	0	CorrectCommission	0.587874	0.565979	1
392.793945	0.795865	city	8	1	0.748152	0.748152	0	1	0	0	CorrectCommission	0.125341	0.586460	1
393.589783	0.795768	city	5	1	0.748363	0.748363	0	1	0	0	CorrectCommission	0.127282	0.613669	1
394.385529	0.795752	city	3	1	0.799548	0.799548	0	1	0	0	CorrectCommission	0.598640	0.645793	1
395.181335	0.795858	mountain	4	0	0.000000	0.816018	1	0	0	0	CorrectOmission	0.750301	0.680444	1
395.977142	0.795770	city	10	1	0.800120	0.800120	0	1	0	0	CorrectCommission	0.603900	0.714809	0
396.772949	0.795855	city	9	1	0.754204	0.754204	0	1	0	0	CorrectCommission	0.181071	0.745918	0
397.568909	0.796054	city	6	1	0.848189	0.848189	0	1	0	0	CorrectCommission	1.046565	0.771057	0
398.364685	0.795461	city	7	1	0.897209	0.897209	0	1	0	0	CorrectCommission	1.497981	0.787810	0
399.160309	0.795806	city	1	1	0.847859	0.847859	0	1	0	0	CorrectCommission	1.043527	0.794704	0
399.956268	0.796133	city	10	1	0.947329	0.947329	0	1	0	0	CorrectCommission	1.959536	0.791210	0
400.752106	0.795534	city	6	1	0.996428	0.996428	0	1	0	0	CorrectCommission	2.411675	0.777948	0
401.547791	0.795819	city	2	1	0.714458	0.714458	0	1	0	0	CorrectCommission	0.184944	0.756609	0
402.343597	0.795815	city	6	1	0.764812	0.764812	0	1	0	0	CorrectCommission	0.278752	0.729909	0
403.139374	0.795710	city	9	1	0.752446	0.752446	0	1	0	0	CorrectCommission	0.164882	0.701106	1
403.935150	0.795877	city	8	1	0.748103	0.748103	0	1	0	0	CorrectCommission	0.124886	0.673700	1
404.730988	0.795809	city	7	0	0.000000	0.702801	0	0	0	1	OmissionError	0.292293	0.651039	1
405.526825	0.795808	city	6	1	0.660541	0.660541	0	1	0	0	CorrectCommission	0.681457	0.635936	1
406.322571	0.795714	city	5	1	0.665324	0.665324	0	1	0	0	CorrectCommission	0.637413	0.630414	1
407.118347	0.795835	city	4	1	0.764917	0.764917	0	1	0	0	CorrectCommission	0.279723	0.635490	1
407.914154	0.795811	city	7	1	0.798180	0.798180	0	1	0	0	CorrectCommission	0.586036	0.651119	1
408.709961	0.795758	city	3	1	0.815224	0.815224	0	1	0	0	CorrectCommission	0.742995	0.676181	1
409.505768	0.795871	city	2	1	0.748076	0.748076	0	1	0	0	CorrectCommission	0.124634	0.708608	1
410.301727	0.796064	city	8	1	0.699672	0.699672	0	1	0	0	CorrectCommission	0.321114	0.745642	0
411.097504	0.795497	city	9	1	0.748760	0.748760	0	1	0	0	CorrectCommission	0.130937	0.784064	0
411.893158	0.795787	city	8	1	0.757809	0.757809	0	1	0	0	CorrectCommission	0.214271	0.820564	0
412.688965	0.795855	city	5	1	1.096561	1.096561	0	1	0	0	CorrectCommission	3.333793	0.852071	0
413.484802	0.795815	city	2	1	0.754311	0.754311	0	1	0	0	CorrectCommission	0.182052	0.876000	0
414.280579	0.795716	city	9	1	1.096489	1.096489	0	1	0	0	CorrectCommission	3.333129	0.890839	0
415.076355	0.795851	city	3	1	0.748106	0.748106	0	1	0	0	CorrectCommission	0.124916	0.895829	0
415.872162	0.795747	city	10	1	0.799922	0.799922	0	1	0	0	CorrectCommission	0.602080	0.891363	0
416.667969	0.795848	city	5	1	0.858204	0.858204	0	1	0	0	CorrectCommission	1.138787	0.878586	0
417.463806	0.795830	city	3	1	0.798474	0.798474	0	1	0	0	CorrectCommission	0.588748	0.859281	0
418.259613	0.795807	city	7	1	0.847477	0.847477	0	1	0	0	CorrectCommission	1.040011	0.835602	0
419.055389	0.795755	mountain	2	0	0.000000	0.839234	1	0	0	0	CorrectOmission	0.964096	0.809744	0
419.851318	0.796105	city	2	1	0.797948	0.797948	0	1	0	0	CorrectCommission	0.583902	0.783740	0
420.647125	0.795514	city	10	1	0.747826	0.747826	0	1	0	0	CorrectCommission	0.122331	0.759270	0
421.442932	0.796102	city	4	1	0.816563	0.816563	0	1	0	0	CorrectCommission	0.755323	0.737479	0
422.238892	0.795812	city	9	1	0.659798	0.659798	0	1	0	0	CorrectCommission	0.688300	0.719011	0
423.034546	0.795496	city	1	1	0.752249	0.752249	0	1	0	0	CorrectCommission	0.163069	0.704075	1
423.830231	0.795835	mountain	4	0	0.000000	0.805677	1	0	0	0	CorrectOmission	0.655073	0.692580	1
424.626190	0.796071	mountain	7	0	0.000000	0.833693	1	0	0	0	CorrectOmission	0.913075	0.684270	1
425.421967	0.795499	city	3	1	0.849913	0.849913	0	1	0	0	CorrectCommission	1.062438	0.678904	1
426.217590	0.795790	mountain	3	0	0.000000	0.867949	1	0	0	0	CorrectOmission	1.228527	0.676331	1
427.013367	0.795750	city	4	1	0.847480	0.847480	0	1	0	0	CorrectCommission	1.040033	0.676525	1
427.809174	0.795854	city	2	1	0.748185	0.748185	0	1	0	0	CorrectCommission	0.125644	0.679534	1
428.605011	0.795829	city	1	1	0.748285	0.748285	0	1	0	0	CorrectCommission	0.126559	0.685389	1
429.400848	0.795804	city	6	1	0.754888	0.754888	0	1	0	0	CorrectCommission	0.187365	0.693919	1
430.196594	0.795718	city	7	1	0.862973	0.862973	0	1	0	0	CorrectCommission	1.182709	0.704587	1
430.992371	0.795847	city	8	1	0.748196	0.748196	0	1	0	0	CorrectCommission	0.125743	0.716526	0
431.788269	0.795917	city	6	1	0.755147	0.755147	0	1	0	0	CorrectCommission	0.189753	0.728498	0
432.584076	0.795721	mountain	1	0	0.000000	0.861663	1	0	0	0	CorrectOmission	1.170643	0.739072	0
433.379822	0.795790	city	3	1	0.911780	0.911780	0	1	0	0	CorrectCommission	1.632170	0.746750	0
434.175629	0.795821	city	5	1	0.749537	0.749537	0	1	0	0	CorrectCommission	0.138088	0.750252	0
434.971436	0.795741	city	4	1	0.847497	0.847497	0	1	0	0	CorrectCommission	1.040194	0.748801	0
435.767242	0.795888	city	1	1	0.947780	0.947780	0	1	0	0	CorrectCommission	1.963687	0.742186	0
436.563019	0.795693	city	9	0	0.000000	0.781814	0	0	0	1	OmissionError	0.435329	0.730962	0
437.358826	0.795895	city	10	1	0.599242	0.599242	0	1	0	0	CorrectCommission	1.245956	0.716573	0
438.154663	0.795785	city	1	1	0.649706	0.649706	0	1	0	0	CorrectCommission	0.781240	0.700980	1
438.950409	0.795721	city	9	1	0.748646	0.748646	0	1	0	0	CorrectCommission	0.129887	0.686567	1
439.746185	0.795827	city	7	1	0.748751	0.748751	0	1	0	0	CorrectCommission	0.130857	0.675792	1
440.542175	0.796138	city	1	1	0.816100	0.816100	0	1	0	0	CorrectCommission	0.751059	0.670791	1
441.337952	0.795453	city	8	1	0.797824	0.797824	0	1	0	0	CorrectCommission	0.582762	0.673032	1
442.133636	0.795884	city	5	1	0.748241	0.748241	0	1	0	0	CorrectCommission	0.126158	0.683112	1
442.929474	0.795788	mountain	9	0	0.000000	0.708927	1	0	0	0	CorrectOmission	0.235883	0.700587	1
443.725220	0.795726	mountain	2	0	0.000000	0.705961	1	0	0	0	CorrectOmission	0.263197	0.723936	0
444.520996	0.795839	city	1	1	0.765423	0.765423	0	1	0	0	CorrectCommission	0.284384	0.750740	0
445.316986	0.796125	city	3	1	0.913394	0.913394	0	1	0	0	CorrectCommission	1.647024	0.777985	0
446.112823	0.795538	city	8	1	0.798047	0.798047	0	1	0	0	CorrectCommission	0.584816	0.802350	0
446.908447	0.795740	city	2	1	0.847557	0.847557	0	1	0	0	CorrectCommission	1.040748	0.820761	0
447.704224	0.795794	city	10	1	0.847574	0.847574	0	1	0	0	CorrectCommission	1.040900	0.830616	0
448.500031	0.795823	city	3	1	0.947496	0.947496	0	1	0	0	CorrectCommission	1.961072	0.830274	0
449.295990	0.796113	city	6	1	0.997059	0.997059	0	1	0	0	CorrectCommission	2.417490	0.819157	0
450.091949	0.795803	city	4	1	0.797476	0.797476	0	1	0	0	CorrectCommission	0.579553	0.797827	0
450.887634	0.795547	city	8	1	0.748489	0.748489	0	1	0	0	CorrectCommission	0.128441	0.767961	0
451.683441	0.796061	city	10	1	0.752434	0.752434	0	1	0	0	CorrectCommission	0.164767	0.732066	0
452.479218	0.795502	city	7	1	0.897637	0.897637	0	1	0	0	CorrectCommission	1.501920	0.693172	1
453.274872	0.795818	city	2	1	0.750143	0.750143	0	1	0	0	CorrectCommission	0.143669	0.654444	1
454.070679	0.795789	city	3	1	0.748334	0.748334	0	1	0	0	CorrectCommission	0.127009	0.619080	1
454.866486	0.795833	city	6	1	0.798629	0.798629	0	1	0	0	CorrectCommission	0.590175	0.589805	1
455.662262	0.795723	city	10	1	0.757035	0.757035	0	1	0	0	CorrectCommission	0.207136	0.568749	1
456.458221	0.796141	city	8	1	0.705457	0.705457	0	1	0	0	CorrectCommission	0.267833	0.557343	1
457.254028	0.795530	city	3	1	0.797533	0.797533	0	1	0	0	CorrectCommission	0.580078	0.556213	1
458.049652	0.795715	city	6	1	0.799606	0.799606	0	1	0	0	CorrectCommission	0.599173	0.565158	1
458.845612	0.796170	city	4	1	0.710471	0.710471	0	1	0	0	CorrectCommission	0.221658	0.583246	1
459.641449	0.795485	city	9	1	0.698970	0.698970	0	1	0	0	CorrectCommission	0.327574	0.608915	1
460.437042	0.795756	city	2	1	0.648944	0.648944	0	1	0	0	CorrectCommission	0.788253	0.640063	1
461.232880	0.795892	city	3	1	0.666441	0.666441	0	1	0	0	CorrectCommission	0.627132	0.674221	1
462.028687	0.795740	city	10	1	0.698646	0.698646	0	1	0	0	CorrectCommission	0.330560	0.708758	1
462.824463	0.795814	city	4	1	0.714770	0.714770	0	1	0	0	CorrectCommission	0.182071	0.741035	0
463.620270	0.795811	city	10	1	0.599428	0.599428	0	1	0	0	CorrectCommission	1.244245	0.768662	0
464.416107	0.795837	mountain	3	1	0.556640	0.556640	0	0	1	0	CommissionError	1.638276	0.789622	0
465.211914	0.795800	city	4	0	0.000000	0.562405	0	0	0	1	OmissionError	1.585186	0.802493	0
466.007690	0.795739	city	9	1	0.599065	0.599065	0	1	0	0	CorrectCommission	1.247585	0.806539	0
466.803467	0.795777	city	1	1	0.648963	0.648963	0	1	0	0	CorrectCommission	0.788078	0.801696	0
467.599426	0.796146	city	2	1	0.659548	0.659548	0	1	0	0	CorrectCommission	0.690605	0.788595	0
468.395264	0.795526	city	10	1	0.649322	0.649322	0	1	0	0	CorrectCommission	0.784779	0.768414	0
469.190918	0.795793	city	9	1	0.667216	0.667216	0	1	0	0	CorrectCommission	0.619995	0.742718	0
469.986694	0.795782	city	3	1	0.698648	0.698648	0	1	0	0	CorrectCommission	0.330541	0.713298	1
470.782471	0.795756	city	2	1	0.648663	0.648663	0	1	0	0	CorrectCommission	0.790846	0.682093	1
471.578278	0.795861	city	4	1	0.664724	0.664724	0	1	0	0	CorrectCommission	0.642939	0.651006	1
472.374115	0.795790	city	2	1	0.649364	0.649364	0	1	0	0	CorrectCommission	0.784386	0.621877	1
473.169891	0.795767	mountain	1	0	0.000000	0.659597	1	0	0	0	CorrectOmission	0.690159	0.596453	1
473.965698	0.795858	mountain	4	0	0.000000	0.680927	1	0	0	0	CorrectOmission	0.493731	0.576414	1
474.761505	0.795797	city	8	1	0.698861	0.698861	0	1	0	0	CorrectCommission	0.328575	0.563361	1
475.557312	0.795794	city	3	1	0.698906	0.698906	0	1	0	0	CorrectCommission	0.328163	0.558877	1
476.353119	0.795790	city	4	1	0.798949	0.798949	0	1	0	0	CorrectCommission	0.593123	0.564534	1
477.148895	0.795767	city	7	1	0.754195	0.754195	0	1	0	0	CorrectCommission	0.180984	0.581898	1
477.944702	0.795890	city	10	1	0.710129	0.710129	0	1	0	0	CorrectCommission	0.224813	0.612555	1
478.740540	0.795749	city	5	1	0.754446	0.754446	0	1	0	0	CorrectCommission	0.183298	0.658028	1
479.536285	0.795784	city	2	1	0.648660	0.648660	0	1	0	0	CorrectCommission	0.790874	0.719749	0
480.332092	0.795786	city	10	1	0.662892	0.662892	0	1	0	0	CorrectCommission	0.659808	0.798917	0
481.127869	0.795786	city	3	1	0.848229	0.848229	0	1	0	0	CorrectCommission	1.046936	0.896380	0
481.923706	0.795885	mountain	3	0	0.000000	0.812527	1	0	0	0	CorrectOmission	0.718157	1.012443	0
482.719543	0.795769	city	8	1	0.698593	0.698593	0	1	0	0	CorrectCommission	0.331046	1.146778	0
483.515320	0.795801	city	1	1	0.649235	0.649235	0	1	0	0	CorrectCommission	0.785574	1.298271	0
484.311096	0.795777	city	6	1	0.800668	0.800668	0	1	0	0	CorrectCommission	0.608954	1.464916	0
485.106934	0.795882	mountain	4	0	0.000000	0.887670	1	0	0	0	CorrectOmission	1.410140	1.643872	0
485.902740	0.795737	mountain	1	0	0.000000	0.931717	1	0	0	0	CorrectOmission	1.815765	1.831499	0
486.698669	0.796134	city	10	1	0.954287	0.954287	0	1	0	0	CorrectCommission	2.023610	2.023610	0
