onset	duration	trial_type	image_type	Press	ReactionTime	ReactionTime_Interpolated	CorrectOmission	CorrectCommission	CommissionError	OmissionError	response_type	nonsmoothVarianceTimeCourse	VarianceTimeCourse	In_the_Zone
8.421795	0.795806	city	3	0	0.000000	1.893498	0	0	0	1	OmissionError	10.458738	10.458738	0
9.217590	0.795785	city	6	1	1.345698	1.345698	0	1	0	0	CorrectCommission	5.306370	9.190636	0
10.013371	0.795778	city	3	1	0.797898	0.797898	0	1	0	0	CorrectCommission	0.154003	7.956583	0
10.809167	0.795812	mountain	1	1	0.301269	0.301269	0	0	1	0	CommissionError	4.517080	6.787813	0
11.604986	0.795828	city	9	1	0.549270	0.549270	0	1	0	0	CorrectCommission	2.184491	5.709957	0
12.400792	0.795784	mountain	10	1	0.461746	0.461746	0	0	1	0	CommissionError	3.007699	4.741892	0
13.196548	0.795728	city	4	1	0.754897	0.754897	0	1	0	0	CorrectCommission	0.250448	3.894504	0
13.992348	0.795872	city	10	1	0.699185	0.699185	0	1	0	0	CorrectCommission	0.774453	3.171058	0
14.788192	0.795816	city	2	1	0.716525	0.716525	0	1	0	0	CorrectCommission	0.611356	2.567826	0
15.583976	0.795752	city	7	1	0.648593	0.648593	0	1	0	0	CorrectCommission	1.250294	2.075734	0
16.379740	0.795775	mountain	6	0	0.000000	0.593552	1	0	0	0	CorrectOmission	1.767988	1.682118	0
17.175547	0.795837	city	5	1	0.599672	0.599672	0	1	0	0	CorrectCommission	1.710431	1.372620	0
17.971382	0.795835	city	1	1	0.715222	0.715222	0	1	0	0	CorrectCommission	0.623613	1.132839	0
18.767328	0.796059	city	8	1	0.748929	0.748929	0	1	0	0	CorrectCommission	0.306580	0.949631	0
19.563271	0.795824	mountain	6	0	0.000000	0.727670	1	0	0	0	CorrectOmission	0.506537	0.811867	0
20.358921	0.795479	mountain	5	1	0.712731	0.712731	0	0	1	0	CommissionError	0.647046	0.710839	0
21.154572	0.795820	city	9	1	0.765399	0.765399	0	1	0	0	CorrectCommission	0.151672	0.640143	1
21.950375	0.795788	city	6	1	0.802899	0.802899	0	1	0	0	CorrectCommission	0.201037	0.595403	1
22.746153	0.795767	city	7	1	0.813512	0.813512	0	1	0	0	CorrectCommission	0.300861	0.573521	1
23.541952	0.795832	mountain	7	0	0.000000	0.804552	1	0	0	0	CorrectOmission	0.216589	0.572185	1
24.337799	0.795864	city	5	1	0.798149	0.798149	0	1	0	0	CorrectCommission	0.156360	0.589033	1
25.133602	0.795743	city	4	1	0.816431	0.816431	0	1	0	0	CorrectCommission	0.328311	0.621444	1
25.929531	0.796114	city	9	1	0.751359	0.751359	0	1	0	0	CorrectCommission	0.283727	0.666198	0
26.725351	0.795528	city	4	1	0.798560	0.798560	0	1	0	0	CorrectCommission	0.160222	0.719407	0
27.521015	0.795797	city	10	1	0.698387	0.698387	0	1	0	0	CorrectCommission	0.781959	0.776758	0
28.316948	0.796071	city	9	1	0.699436	0.699436	0	1	0	0	CorrectCommission	0.772089	0.833516	0
29.112761	0.795553	city	6	1	0.663970	0.663970	0	1	0	0	CorrectCommission	1.105670	0.885227	0
29.908415	0.795756	city	4	1	0.649386	0.649386	0	1	0	0	CorrectCommission	1.242838	0.928022	0
30.704170	0.795753	city	7	1	0.599123	0.599123	0	1	0	0	CorrectCommission	1.715593	0.959178	0
31.499958	0.795822	city	1	1	0.557999	0.557999	0	1	0	0	CorrectCommission	2.102385	0.977321	0
32.295761	0.795787	city	10	1	0.567954	0.567954	0	1	0	0	CorrectCommission	2.008750	0.982616	0
33.091557	0.795803	city	3	1	0.598979	0.598979	0	1	0	0	CorrectCommission	1.716948	0.976712	0
33.887383	0.795848	city	4	1	0.677203	0.677203	0	1	0	0	CorrectCommission	0.981202	0.962476	0
34.683205	0.795795	city	6	1	0.755046	0.755046	0	1	0	0	CorrectCommission	0.249044	0.943571	0
35.479004	0.795805	mountain	4	0	0.000000	0.797847	1	0	0	0	CorrectOmission	0.153516	0.923961	0
36.274818	0.795820	city	9	1	0.798987	0.798987	0	1	0	0	CorrectCommission	0.164240	0.907325	0
37.070595	0.795733	city	7	1	0.751849	0.751849	0	1	0	0	CorrectCommission	0.279112	0.896598	0
37.866386	0.795852	city	6	1	0.707765	0.707765	0	1	0	0	CorrectCommission	0.693747	0.893654	0
38.662224	0.795824	city	4	1	0.698884	0.698884	0	1	0	0	CorrectCommission	0.777279	0.899123	0
39.458027	0.795780	city	9	1	0.699018	0.699018	0	1	0	0	CorrectCommission	0.776019	0.912432	0
40.253803	0.795774	city	2	1	0.648688	0.648688	0	1	0	0	CorrectCommission	1.249404	0.931924	0
41.049599	0.795820	city	5	1	0.652359	0.652359	0	1	0	0	CorrectCommission	1.214879	0.955143	0
41.845413	0.795807	city	2	1	0.699247	0.699247	0	1	0	0	CorrectCommission	0.773872	0.979176	0
42.641201	0.795770	city	3	1	0.665443	0.665443	0	1	0	0	CorrectCommission	1.091813	1.000976	0
43.436981	0.795791	city	7	1	0.648665	0.648665	0	1	0	0	CorrectCommission	1.249621	1.017661	0
44.232952	0.796147	city	3	1	0.648734	0.648734	0	1	0	0	CorrectCommission	1.248976	1.026823	0
45.028767	0.795488	city	4	1	0.648983	0.648983	0	1	0	0	CorrectCommission	1.246630	1.026680	0
45.824425	0.795823	city	7	1	0.649008	0.649008	0	1	0	0	CorrectCommission	1.246391	1.016234	0
46.620209	0.795748	city	4	1	0.649671	0.649671	0	1	0	0	CorrectCommission	1.240156	0.995281	0
47.416027	0.795888	city	6	1	0.649021	0.649021	0	1	0	0	CorrectCommission	1.246268	0.964419	0
48.211845	0.795748	city	3	1	0.648778	0.648778	0	1	0	0	CorrectCommission	1.248554	0.924944	0
49.007729	0.796019	city	5	1	0.648903	0.648903	0	1	0	0	CorrectCommission	1.247384	0.878700	0
49.803513	0.795549	city	8	1	0.698366	0.698366	0	1	0	0	CorrectCommission	0.782151	0.827917	0
50.599197	0.795820	city	1	1	0.702896	0.702896	0	1	0	0	CorrectCommission	0.739546	0.775036	0
51.395012	0.795810	city	2	1	0.748485	0.748485	0	1	0	0	CorrectCommission	0.310758	0.722481	0
52.190979	0.796121	city	1	1	0.803176	0.803176	0	1	0	0	CorrectCommission	0.203643	0.672537	0
52.986942	0.795807	city	7	1	0.847398	0.847398	0	1	0	0	CorrectCommission	0.619575	0.627197	1
53.782593	0.795491	city	4	1	0.752680	0.752680	0	1	0	0	CorrectCommission	0.271301	0.588062	1
54.578396	0.796118	city	1	1	0.847618	0.847618	0	1	0	0	CorrectCommission	0.621642	0.556389	1
55.374226	0.795539	city	9	1	0.799870	0.799870	0	1	0	0	CorrectCommission	0.172547	0.533102	1
56.169880	0.795767	city	7	1	0.855871	0.855871	0	1	0	0	CorrectCommission	0.699269	0.518885	1
56.965668	0.795809	mountain	8	0	0.000000	0.843996	1	0	0	0	CorrectOmission	0.587576	0.514212	1
57.761463	0.795788	city	9	1	0.798805	0.798805	0	1	0	0	CorrectCommission	0.162531	0.519419	1
58.557278	0.795838	city	6	1	0.754859	0.754859	0	1	0	0	CorrectCommission	0.250802	0.534778	1
59.353058	0.795721	city	9	1	0.698259	0.698259	0	1	0	0	CorrectCommission	0.783164	0.560415	1
60.148857	0.795881	city	4	1	0.748514	0.748514	0	1	0	0	CorrectCommission	0.310487	0.596211	1
60.944653	0.795705	city	5	1	0.710577	0.710577	0	1	0	0	CorrectCommission	0.667306	0.641742	1
61.740414	0.795822	city	4	1	0.798203	0.798203	0	1	0	0	CorrectCommission	0.156871	0.696093	0
62.536232	0.795814	mountain	7	0	0.000000	0.738009	1	0	0	0	CorrectOmission	0.409294	0.757802	0
63.332047	0.795817	city	5	1	0.698332	0.698332	0	1	0	0	CorrectCommission	0.782475	0.824746	0
64.127869	0.795825	city	9	1	0.847513	0.847513	0	1	0	0	CorrectCommission	0.620656	0.894179	0
64.923645	0.795725	city	7	1	0.698687	0.698687	0	1	0	0	CorrectCommission	0.779137	0.962817	0
65.719460	0.795905	mountain	10	1	0.662737	0.662737	0	0	1	0	CommissionError	1.117267	1.027037	0
66.515259	0.795702	city	8	1	0.648591	0.648591	0	1	0	0	CorrectCommission	1.250317	1.083145	0
67.311012	0.795799	city	4	1	0.617109	0.617109	0	1	0	0	CorrectCommission	1.546420	1.127722	0
68.106834	0.795849	city	2	1	0.555309	0.555309	0	1	0	0	CorrectCommission	2.127686	1.157941	0
68.902657	0.795782	city	7	1	0.598804	0.598804	0	1	0	0	CorrectCommission	1.718594	1.171853	0
69.698463	0.795838	city	2	1	0.648539	0.648539	0	1	0	0	CorrectCommission	1.250802	1.168628	0
70.494431	0.796095	city	5	1	0.549155	0.549155	0	1	0	0	CorrectCommission	2.185570	1.148627	0
71.290230	0.795510	city	7	1	0.613064	0.613064	0	1	0	0	CorrectCommission	1.584467	1.113321	0
72.085869	0.795771	city	1	1	0.648685	0.648685	0	1	0	0	CorrectCommission	1.249434	1.065220	0
72.881645	0.795768	mountain	6	0	0.000000	0.773667	1	0	0	0	CorrectOmission	0.073904	1.007596	0
73.677437	0.795822	mountain	7	0	0.000000	0.889467	1	0	0	0	CorrectOmission	1.015263	0.944199	0
74.473236	0.795780	city	9	1	0.897542	0.897542	0	1	0	0	CorrectCommission	1.091208	0.878816	0
75.269028	0.795797	city	5	1	0.699347	0.699347	0	1	0	0	CorrectCommission	0.772929	0.815057	0
76.064857	0.795870	city	8	1	0.749116	0.749116	0	1	0	0	CorrectCommission	0.304825	0.756095	0
76.860680	0.795775	city	2	1	0.750140	0.750140	0	1	0	0	CorrectCommission	0.295189	0.704375	0
77.656494	0.795856	city	4	1	0.798121	0.798121	0	1	0	0	CorrectCommission	0.156100	0.661548	0
78.452309	0.795761	city	9	1	0.848049	0.848049	0	1	0	0	CorrectCommission	0.625703	0.628398	1
79.248100	0.795824	city	2	1	0.897236	0.897236	0	1	0	0	CorrectCommission	1.088334	0.604916	1
80.043892	0.795763	city	8	1	0.798759	0.798759	0	1	0	0	CorrectCommission	0.162102	0.590347	1
80.839661	0.795778	city	2	1	0.766276	0.766276	0	1	0	0	CorrectCommission	0.143426	0.583396	1
81.635483	0.795865	city	7	1	0.748437	0.748437	0	1	0	0	CorrectCommission	0.311204	0.582354	1
82.431320	0.795813	city	4	1	0.749129	0.749129	0	1	0	0	CorrectCommission	0.304702	0.585320	1
83.227104	0.795758	city	10	1	0.698293	0.698293	0	1	0	0	CorrectCommission	0.782840	0.590404	1
84.022873	0.795773	city	9	1	0.666439	0.666439	0	1	0	0	CorrectCommission	1.082448	0.595902	1
84.818695	0.795877	city	4	1	0.698583	0.698583	0	1	0	0	CorrectCommission	0.780116	0.600482	1
85.614510	0.795741	city	3	1	0.649468	0.649468	0	1	0	0	CorrectCommission	1.242072	0.603239	1
86.410309	0.795862	city	1	1	0.700822	0.700822	0	1	0	0	CorrectCommission	0.759054	0.603746	1
87.206146	0.795810	city	3	1	0.748096	0.748096	0	1	0	0	CorrectCommission	0.314419	0.602074	1
88.001953	0.795808	city	4	1	0.798771	0.798771	0	1	0	0	CorrectCommission	0.162208	0.598632	1
88.797745	0.795771	city	3	1	0.847906	0.847906	0	1	0	0	CorrectCommission	0.624358	0.594080	1
89.593529	0.795805	city	4	1	0.847622	0.847622	0	1	0	0	CorrectCommission	0.621679	0.589151	1
90.389328	0.795785	city	8	1	0.748178	0.748178	0	1	0	0	CorrectCommission	0.313642	0.584598	1
91.185104	0.795769	city	1	1	0.662013	0.662013	0	1	0	0	CorrectCommission	1.124073	0.581032	1
91.980911	0.795851	city	6	1	0.748495	0.748495	0	1	0	0	CorrectCommission	0.310667	0.578845	1
92.776749	0.795830	mountain	6	0	0.000000	0.815048	1	0	0	0	CorrectOmission	0.315305	0.578298	1
93.572540	0.795742	city	6	1	0.801925	0.801925	0	1	0	0	CorrectCommission	0.191875	0.579443	1
94.368332	0.795854	city	2	1	0.649377	0.649377	0	1	0	0	CorrectCommission	1.242926	0.582219	1
95.164139	0.795753	city	1	1	0.709690	0.709690	0	1	0	0	CorrectCommission	0.675641	0.586490	1
95.959915	0.795798	city	3	1	0.754048	0.754048	0	1	0	0	CorrectCommission	0.258436	0.592207	1
96.755745	0.795855	city	6	1	0.748820	0.748820	0	1	0	0	CorrectCommission	0.307605	0.599406	1
97.551567	0.795791	city	7	1	0.700925	0.700925	0	1	0	0	CorrectCommission	0.758089	0.608274	1
98.347351	0.795790	mountain	7	0	0.000000	0.700806	1	0	0	0	CorrectOmission	0.759202	0.619180	1
99.143242	0.795991	city	2	1	0.699831	0.699831	0	1	0	0	CorrectCommission	0.768374	0.632605	1
99.939018	0.795558	city	6	1	0.649365	0.649365	0	1	0	0	CorrectCommission	1.243033	0.649064	1
100.734741	0.795884	mountain	5	1	0.798096	0.798096	0	0	1	0	CommissionError	0.155866	0.669011	0
101.530579	0.795785	city	3	1	0.749531	0.749531	0	1	0	0	CorrectCommission	0.300920	0.692721	0
102.326332	0.795733	city	7	1	0.748069	0.748069	0	1	0	0	CorrectCommission	0.314672	0.720126	0
103.122116	0.795824	city	5	1	0.716884	0.716884	0	1	0	0	CorrectCommission	0.607980	0.750752	0
103.917908	0.795764	city	3	1	0.699297	0.699297	0	1	0	0	CorrectCommission	0.773397	0.783735	0
104.713737	0.795891	city	8	1	0.698385	0.698385	0	1	0	0	CorrectCommission	0.781972	0.817878	0
105.509544	0.795737	mountain	3	0	0.000000	0.706891	1	0	0	0	CorrectOmission	0.701974	0.851832	0
106.305473	0.796119	city	8	1	0.698870	0.698870	0	1	0	0	CorrectCommission	0.777415	0.884213	0
107.101273	0.795470	city	7	1	0.648379	0.648379	0	1	0	0	CorrectCommission	1.252308	0.913815	0
107.896942	0.795872	city	6	1	0.605426	0.605426	0	1	0	0	CorrectCommission	1.656312	0.939784	0
108.692764	0.795780	city	1	1	0.648855	0.648855	0	1	0	0	CorrectCommission	1.247835	0.961701	0
109.488571	0.795831	city	4	1	0.649632	0.649632	0	1	0	0	CorrectCommission	1.240529	0.979682	0
110.284355	0.795733	mountain	2	0	0.000000	0.650373	1	0	0	0	CorrectOmission	1.233556	0.994229	0
111.080154	0.795863	mountain	10	0	0.000000	0.665621	1	0	0	0	CorrectOmission	1.090143	1.006064	0
111.876122	0.796081	city	1	1	0.709916	0.709916	0	1	0	0	CorrectCommission	0.673522	1.015895	0
112.671921	0.795511	city	6	1	0.797800	0.797800	0	1	0	0	CorrectCommission	0.153079	1.024248	0
113.467545	0.795732	city	7	1	0.897838	0.897838	0	1	0	0	CorrectCommission	1.093997	1.031265	0
114.263329	0.795840	city	5	1	0.847715	0.847715	0	1	0	0	CorrectCommission	0.622556	1.036563	0
115.059158	0.795815	city	10	1	0.748841	0.748841	0	1	0	0	CorrectCommission	0.307412	1.039313	0
115.854958	0.795794	city	6	1	0.997828	0.997828	0	1	0	0	CorrectCommission	2.034456	1.038396	0
116.650742	0.795767	city	5	1	0.956535	0.956535	0	1	0	0	CorrectCommission	1.646068	1.032526	0
117.446533	0.795814	city	3	1	0.952063	0.952063	0	1	0	0	CorrectCommission	1.604013	1.020677	0
118.242340	0.795800	city	9	1	0.897717	0.897717	0	1	0	0	CorrectCommission	1.092850	1.002283	0
119.038155	0.795835	city	5	1	0.897399	0.897399	0	1	0	0	CorrectCommission	1.089859	0.977454	0
119.833992	0.795836	city	9	1	0.849220	0.849220	0	1	0	0	CorrectCommission	0.636713	0.947083	0
120.629807	0.795786	city	4	1	0.961333	0.961333	0	1	0	0	CorrectCommission	1.691195	0.912858	0
121.425598	0.795805	city	5	1	0.902123	0.902123	0	1	0	0	CorrectCommission	1.134297	0.877092	0
122.221367	0.795732	city	1	1	0.847531	0.847531	0	1	0	0	CorrectCommission	0.620827	0.842648	0
123.017319	0.796164	city	6	1	0.798532	0.798532	0	1	0	0	CorrectCommission	0.159962	0.812558	0
123.813148	0.795506	city	3	1	0.798727	0.798727	0	1	0	0	CorrectCommission	0.161801	0.789740	0
124.608788	0.795760	city	4	1	0.847636	0.847636	0	1	0	0	CorrectCommission	0.621810	0.776619	0
125.404572	0.795817	city	6	1	0.897394	0.897394	0	1	0	0	CorrectCommission	1.089818	0.774832	0
126.200386	0.795809	city	4	1	0.753981	0.753981	0	1	0	0	CorrectCommission	0.259063	0.785063	0
126.996178	0.795773	mountain	4	0	0.000000	0.800220	1	0	0	0	CorrectOmission	0.175836	0.807012	0
127.791992	0.795856	city	2	1	0.847569	0.847569	0	1	0	0	CorrectCommission	0.621183	0.839296	0
128.587799	0.795760	city	4	1	0.707488	0.707488	0	1	0	0	CorrectCommission	0.696356	0.879587	0
129.383606	0.795857	city	2	1	0.662531	0.662531	0	1	0	0	CorrectCommission	1.119198	0.924912	0
130.179398	0.795710	city	4	1	0.764297	0.764297	0	1	0	0	CorrectCommission	0.162038	0.971908	0
130.975189	0.795891	city	3	1	0.648768	0.648768	0	1	0	0	CorrectCommission	1.248648	1.017181	0
131.771011	0.795757	city	1	1	0.648698	0.648698	0	1	0	0	CorrectCommission	1.249310	1.057680	0
132.566818	0.795842	city	2	1	0.551428	0.551428	0	1	0	0	CorrectCommission	2.164188	1.091060	0
133.362778	0.796080	city	5	1	0.564145	0.564145	0	1	0	0	CorrectCommission	2.044579	1.115805	0
134.158539	0.795434	city	7	1	0.598560	0.598560	0	1	0	0	CorrectCommission	1.720888	1.131482	0
134.954147	0.795803	city	4	1	0.599113	0.599113	0	1	0	0	CorrectCommission	1.715685	1.138641	0
135.749969	0.795844	mountain	3	0	0.000000	0.714429	1	0	0	0	CorrectOmission	0.631074	1.138688	0
136.545807	0.795825	mountain	1	1	0.798460	0.798460	0	0	1	0	CommissionError	0.159286	1.133636	0
137.341629	0.795817	city	3	1	0.705159	0.705159	0	1	0	0	CorrectCommission	0.718267	1.125778	0
138.137421	0.795745	city	6	1	0.698265	0.698265	0	1	0	0	CorrectCommission	0.783108	1.117324	0
138.933212	0.795844	city	2	1	0.601217	0.601217	0	1	0	0	CorrectCommission	1.695896	1.110231	0
139.729019	0.795787	mountain	1	1	0.599262	0.599262	0	0	1	0	CommissionError	1.714285	1.105951	0
140.524841	0.795844	city	5	1	0.698398	0.698398	0	1	0	0	CorrectCommission	0.781856	1.105377	0
141.320648	0.795776	city	8	1	0.757637	0.757637	0	1	0	0	CorrectCommission	0.224677	1.108808	0
142.116455	0.795828	city	3	1	0.648885	0.648885	0	1	0	0	CorrectCommission	1.247550	1.115943	0
142.912262	0.795785	city	10	1	0.650522	0.650522	0	1	0	0	CorrectCommission	1.232152	1.125893	0
143.708023	0.795739	city	5	1	0.698331	0.698331	0	1	0	0	CorrectCommission	0.782484	1.137430	0
144.503799	0.795830	city	7	1	0.601924	0.601924	0	1	0	0	CorrectCommission	1.689246	1.149063	0
145.299622	0.795799	city	3	1	0.648648	0.648648	0	1	0	0	CorrectCommission	1.249780	1.159120	0
146.095413	0.795805	city	4	1	0.797887	0.797887	0	1	0	0	CorrectCommission	0.153901	1.166005	0
146.891220	0.795797	city	10	1	0.549367	0.549367	0	1	0	0	CorrectCommission	2.183573	1.168282	0
147.687042	0.795845	city	8	1	0.599931	0.599931	0	1	0	0	CorrectCommission	1.707990	1.164680	0
148.482834	0.795738	city	4	1	0.652755	0.652755	0	1	0	0	CorrectCommission	1.211154	1.154329	0
149.278625	0.795847	city	1	1	0.648691	0.648691	0	1	0	0	CorrectCommission	1.249374	1.136722	0
150.074600	0.796104	city	10	1	0.698589	0.698589	0	1	0	0	CorrectCommission	0.780056	1.111701	0
150.870392	0.795482	city	9	1	0.648439	0.648439	0	1	0	0	CorrectCommission	1.251746	1.079514	0
151.666016	0.795765	city	2	1	0.649047	0.649047	0	1	0	0	CorrectCommission	1.246026	1.040738	0
152.461838	0.795883	city	7	1	0.658713	0.658713	0	1	0	0	CorrectCommission	1.155118	0.996249	0
153.257690	0.795810	city	8	1	0.648808	0.648808	0	1	0	0	CorrectCommission	1.248276	0.947216	0
154.053497	0.795800	city	7	1	0.666155	0.666155	0	1	0	0	CorrectCommission	1.085121	0.894974	0
154.849243	0.795702	city	1	1	0.698597	0.698597	0	1	0	0	CorrectCommission	0.779983	0.840976	0
155.645035	0.795872	mountain	10	0	0.000000	0.737113	1	0	0	0	CorrectOmission	0.417713	0.786720	0
156.440842	0.795756	city	3	1	0.748298	0.748298	0	1	0	0	CorrectCommission	0.312515	0.733627	0
157.236618	0.795794	city	5	1	0.698745	0.698745	0	1	0	0	CorrectCommission	0.778590	0.683028	0
158.032425	0.795818	city	1	1	0.702097	0.702097	0	1	0	0	CorrectCommission	0.747065	0.636077	1
158.828232	0.795809	city	6	1	0.698691	0.698691	0	1	0	0	CorrectCommission	0.779094	0.593752	1
159.624054	0.795814	city	10	1	0.748397	0.748397	0	1	0	0	CorrectCommission	0.311585	0.556779	1
160.419876	0.795826	city	2	1	0.798200	0.798200	0	1	0	0	CorrectCommission	0.156838	0.525698	1
161.215668	0.795781	mountain	4	0	0.000000	0.829423	1	0	0	0	CorrectOmission	0.450512	0.500829	1
162.011459	0.795779	mountain	1	0	0.000000	0.832497	1	0	0	0	CorrectOmission	0.479428	0.482207	1
162.807266	0.795854	city	7	1	0.797853	0.797853	0	1	0	0	CorrectCommission	0.153579	0.469675	1
163.603241	0.796079	city	3	1	0.715921	0.715921	0	1	0	0	CorrectCommission	0.617042	0.462957	1
164.399017	0.795485	city	5	1	0.798360	0.798360	0	1	0	0	CorrectCommission	0.158344	0.461533	1
165.194687	0.795845	city	10	1	0.748551	0.748551	0	1	0	0	CorrectCommission	0.310138	0.464806	1
165.990463	0.795726	city	4	1	0.847591	0.847591	0	1	0	0	CorrectCommission	0.621388	0.472074	1
166.786240	0.795822	city	2	1	0.852025	0.852025	0	1	0	0	CorrectCommission	0.663099	0.482563	1
167.582062	0.795807	mountain	10	1	0.805556	0.805556	0	0	1	0	CommissionError	0.226029	0.495490	1
168.377884	0.795846	mountain	5	1	0.699066	0.699066	0	0	1	0	CommissionError	0.775568	0.510050	1
169.173843	0.796063	city	3	1	0.798459	0.798459	0	1	0	0	CorrectCommission	0.159279	0.525407	1
169.969650	0.795546	city	7	1	0.716658	0.716658	0	1	0	0	CorrectCommission	0.610104	0.540760	1
170.765274	0.795715	city	2	1	0.698605	0.698605	0	1	0	0	CorrectCommission	0.779909	0.555302	1
171.561035	0.795819	mountain	8	0	0.000000	0.800886	1	0	0	0	CorrectOmission	0.182105	0.568264	1
172.357025	0.796139	city	3	1	0.898267	0.898267	0	1	0	0	CorrectCommission	1.098029	0.578963	1
173.152832	0.795470	mountain	3	0	0.000000	0.865512	1	0	0	0	CorrectOmission	0.789952	0.586762	1
173.948456	0.795795	city	4	1	0.802046	0.802046	0	1	0	0	CorrectCommission	0.193016	0.591212	1
174.744293	0.795872	city	7	1	0.807293	0.807293	0	1	0	0	CorrectCommission	0.242364	0.592047	1
175.540100	0.795745	city	10	1	0.648767	0.648767	0	1	0	0	CorrectCommission	1.248663	0.589209	1
176.335892	0.795845	city	9	1	0.648932	0.648932	0	1	0	0	CorrectCommission	1.247109	0.582824	1
177.131714	0.795796	city	10	1	0.748057	0.748057	0	1	0	0	CorrectCommission	0.314779	0.573304	1
177.927490	0.795759	city	4	1	0.798113	0.798113	0	1	0	0	CorrectCommission	0.156027	0.561314	1
178.723267	0.795788	city	10	1	0.699285	0.699285	0	1	0	0	CorrectCommission	0.773506	0.547646	1
179.519089	0.795868	city	2	1	0.698341	0.698341	0	1	0	0	CorrectCommission	0.782388	0.533207	1
180.314926	0.795809	city	4	1	0.848197	0.848197	0	1	0	0	CorrectCommission	0.627087	0.518963	1
181.110733	0.795785	city	3	1	0.759779	0.759779	0	1	0	0	CorrectCommission	0.204534	0.505862	1
181.906525	0.795808	city	9	1	0.798078	0.798078	0	1	0	0	CorrectCommission	0.155696	0.494837	1
182.702301	0.795734	city	3	1	0.747998	0.747998	0	1	0	0	CorrectCommission	0.315340	0.486730	1
183.498062	0.795797	mountain	4	0	0.000000	0.806139	1	0	0	0	CorrectOmission	0.231516	0.482306	1
184.293900	0.795886	city	4	1	0.847922	0.847922	0	1	0	0	CorrectCommission	0.624505	0.482233	1
185.089722	0.795754	city	7	1	0.748764	0.748764	0	1	0	0	CorrectCommission	0.308132	0.487120	1
185.885529	0.795842	city	8	1	0.666207	0.666207	0	1	0	0	CorrectCommission	1.084627	0.497480	1
186.681335	0.795797	city	5	1	0.698678	0.698678	0	1	0	0	CorrectCommission	0.779218	0.513658	1
187.477142	0.795821	city	8	1	0.749578	0.749578	0	1	0	0	CorrectCommission	0.300475	0.535787	1
188.272964	0.795799	mountain	5	0	0.000000	0.775056	1	0	0	0	CorrectOmission	0.060845	0.563639	1
189.068710	0.795707	mountain	2	0	0.000000	0.791345	1	0	0	0	CorrectOmission	0.092368	0.596559	1
189.864471	0.795803	city	9	1	0.814682	0.814682	0	1	0	0	CorrectCommission	0.311861	0.633292	1
190.660278	0.795818	city	2	1	0.861300	0.861300	0	1	0	0	CorrectCommission	0.750330	0.672059	0
191.456116	0.795852	city	8	1	0.815816	0.815816	0	1	0	0	CorrectCommission	0.322525	0.710571	0
192.251953	0.795831	mountain	2	0	0.000000	0.853611	1	0	0	0	CorrectOmission	0.678016	0.746298	0
193.047760	0.795767	city	10	1	0.904246	0.904246	0	1	0	0	CorrectCommission	1.154268	0.776607	0
193.843552	0.795826	city	1	1	0.897280	0.897280	0	1	0	0	CorrectCommission	1.088742	0.799101	0
194.639328	0.795714	city	6	1	0.996995	0.996995	0	1	0	0	CorrectCommission	2.026624	0.811970	0
195.435104	0.795847	city	3	1	0.897517	0.897517	0	1	0	0	CorrectCommission	1.090975	0.814240	0
196.231079	0.796119	city	7	1	0.864164	0.864164	0	1	0	0	CorrectCommission	0.777272	0.805993	0
197.026855	0.795429	city	1	1	0.897440	0.897440	0	1	0	0	CorrectCommission	1.090251	0.788341	0
197.822510	0.795860	city	7	1	0.898388	0.898388	0	1	0	0	CorrectCommission	1.099163	0.763351	0
198.618317	0.795773	city	2	1	0.915682	0.915682	0	1	0	0	CorrectCommission	1.261830	0.733920	0
199.414124	0.795825	city	10	1	0.798296	0.798296	0	1	0	0	CorrectCommission	0.157743	0.703406	0
200.209930	0.795799	city	9	1	0.813287	0.813287	0	1	0	0	CorrectCommission	0.298739	0.675345	0
201.005737	0.795807	city	10	1	0.800896	0.800896	0	1	0	0	CorrectCommission	0.182201	0.652995	0
201.801544	0.795804	city	1	1	0.812602	0.812602	0	1	0	0	CorrectCommission	0.292299	0.639020	1
202.597321	0.795743	city	4	1	0.761454	0.761454	0	1	0	0	CorrectCommission	0.188778	0.635238	1
203.393112	0.795862	city	2	1	0.765326	0.765326	0	1	0	0	CorrectCommission	0.152356	0.642436	1
204.188950	0.795809	city	8	1	0.698640	0.698640	0	1	0	0	CorrectCommission	0.779573	0.660324	0
204.984741	0.795784	city	3	1	0.753676	0.753676	0	1	0	0	CorrectCommission	0.261936	0.687596	0
205.780533	0.795773	city	7	1	0.658011	0.658011	0	1	0	0	CorrectCommission	1.161714	0.722125	0
206.576309	0.795785	city	1	1	0.753962	0.753962	0	1	0	0	CorrectCommission	0.259247	0.761147	0
207.372147	0.795887	city	2	1	0.657896	0.657896	0	1	0	0	CorrectCommission	1.162797	0.801631	0
208.167999	0.795819	city	5	1	0.655589	0.655589	0	1	0	0	CorrectCommission	1.184494	0.840418	0
208.963776	0.795740	city	6	1	0.715932	0.715932	0	1	0	0	CorrectCommission	0.616940	0.874637	0
209.759567	0.795833	city	9	1	0.766478	0.766478	0	1	0	0	CorrectCommission	0.141523	0.901926	0
210.555344	0.795735	mountain	10	1	0.598980	0.598980	0	0	1	0	CommissionError	1.716933	0.920572	0
211.351135	0.795833	mountain	2	0	0.000000	0.529585	1	0	0	0	CorrectOmission	2.369632	0.929588	0
212.146957	0.795813	city	6	1	0.598928	0.598928	0	1	0	0	CorrectCommission	1.717420	0.928787	0
212.942734	0.795743	city	9	1	0.847645	0.847645	0	1	0	0	CorrectCommission	0.621899	0.918784	0
213.738525	0.795842	city	8	1	0.897645	0.897645	0	1	0	0	CorrectCommission	1.092174	0.900824	0
214.534500	0.796126	city	4	1	0.801903	0.801903	0	1	0	0	CorrectCommission	0.191667	0.876463	0
215.330338	0.795551	mountain	1	0	0.000000	0.735219	1	0	0	0	CorrectOmission	0.435527	0.847510	0
216.126144	0.796063	city	3	1	0.701317	0.701317	0	1	0	0	CorrectCommission	0.754395	0.815712	0
216.921906	0.795448	city	5	1	0.703919	0.703919	0	1	0	0	CorrectCommission	0.729926	0.782686	0
217.717529	0.795789	city	9	1	0.698401	0.698401	0	1	0	0	CorrectCommission	0.781826	0.749791	0
218.513321	0.795803	city	7	1	0.661845	0.661845	0	1	0	0	CorrectCommission	1.125652	0.718091	0
219.309158	0.795862	city	10	1	0.699369	0.699369	0	1	0	0	CorrectCommission	0.772721	0.688346	0
220.104950	0.795737	city	9	1	0.698486	0.698486	0	1	0	0	CorrectCommission	0.781030	0.661080	0
220.900742	0.795826	city	1	1	0.798209	0.798209	0	1	0	0	CorrectCommission	0.156930	0.636591	1
221.696548	0.795812	mountain	7	0	0.000000	0.855169	1	0	0	0	CorrectOmission	0.692663	0.614988	1
222.492371	0.795807	city	2	1	0.858917	0.858917	0	1	0	0	CorrectCommission	0.727914	0.596194	1
223.288193	0.795843	city	6	1	0.799007	0.799007	0	1	0	0	CorrectCommission	0.164431	0.580001	1
224.084015	0.795806	city	5	1	0.798065	0.798065	0	1	0	0	CorrectCommission	0.155576	0.566175	1
224.879776	0.795720	city	2	1	0.847660	0.847660	0	1	0	0	CorrectCommission	0.622043	0.554404	1
225.675552	0.795847	city	10	1	0.852260	0.852260	0	1	0	0	CorrectCommission	0.665301	0.544395	1
226.471375	0.795785	city	4	1	0.849023	0.849023	0	1	0	0	CorrectCommission	0.634861	0.535914	1
227.267181	0.795819	city	9	1	0.848178	0.848178	0	1	0	0	CorrectCommission	0.626916	0.528876	1
228.062988	0.795813	city	5	1	0.856988	0.856988	0	1	0	0	CorrectCommission	0.709779	0.523278	1
228.858765	0.795745	city	3	1	0.898096	0.898096	0	1	0	0	CorrectCommission	1.096417	0.519184	1
229.654556	0.795814	city	8	1	0.798263	0.798263	0	1	0	0	CorrectCommission	0.157429	0.516736	1
230.450378	0.795843	city	2	1	0.804397	0.804397	0	1	0	0	CorrectCommission	0.215124	0.516132	1
231.246170	0.795742	city	4	1	0.803610	0.803610	0	1	0	0	CorrectCommission	0.207728	0.517395	1
232.041962	0.795842	city	5	1	0.748463	0.748463	0	1	0	0	CorrectCommission	0.310962	0.520434	1
232.837769	0.795781	city	8	1	0.748247	0.748247	0	1	0	0	CorrectCommission	0.312997	0.524975	1
233.633560	0.795777	city	1	1	0.748156	0.748156	0	1	0	0	CorrectCommission	0.313854	0.530589	1
234.429382	0.795870	city	10	1	0.705017	0.705017	0	1	0	0	CorrectCommission	0.719600	0.536746	1
235.225204	0.795779	city	1	1	0.698816	0.698816	0	1	0	0	CorrectCommission	0.777923	0.542896	1
236.020996	0.795807	city	3	1	0.648698	0.648698	0	1	0	0	CorrectCommission	1.249314	0.548587	1
236.816803	0.795825	mountain	7	0	0.000000	0.684712	1	0	0	0	CorrectOmission	0.910576	0.553534	1
237.612610	0.795768	city	5	1	0.754909	0.754909	0	1	0	0	CorrectCommission	0.250333	0.557685	1
238.408401	0.795829	city	4	1	0.807338	0.807338	0	1	0	0	CorrectCommission	0.242791	0.561240	1
239.204193	0.795759	city	10	1	0.748444	0.748444	0	1	0	0	CorrectCommission	0.311138	0.564520	1
240.000015	0.795882	mountain	10	0	0.000000	0.829754	1	0	0	0	CorrectOmission	0.453620	0.567947	1
240.795975	0.796033	city	5	1	0.897438	0.897438	0	1	0	0	CorrectCommission	1.090231	0.571953	1
241.591766	0.795551	city	9	1	0.797671	0.797671	0	1	0	0	CorrectCommission	0.151861	0.576860	1
242.387436	0.795795	city	1	1	0.714937	0.714937	0	1	0	0	CorrectCommission	0.626299	0.582858	1
243.183228	0.795792	city	10	1	0.711722	0.711722	0	1	0	0	CorrectCommission	0.656536	0.589861	1
243.979004	0.795737	city	2	1	0.798808	0.798808	0	1	0	0	CorrectCommission	0.162556	0.597546	1
244.774780	0.795814	mountain	7	0	0.000000	0.879049	1	0	0	0	CorrectOmission	0.917270	0.605360	1
245.570602	0.795839	city	7	1	0.897240	0.897240	0	1	0	0	CorrectCommission	1.088369	0.612519	1
246.366409	0.795773	city	10	1	0.798176	0.798176	0	1	0	0	CorrectCommission	0.156617	0.618103	1
247.162216	0.795841	city	9	1	0.814272	0.814272	0	1	0	0	CorrectCommission	0.308011	0.621224	1
247.958008	0.795752	city	6	1	0.857078	0.857078	0	1	0	0	CorrectCommission	0.710624	0.621018	1
248.753830	0.795888	city	3	1	0.897581	0.897581	0	1	0	0	CorrectCommission	1.091575	0.616823	1
249.549652	0.795766	mountain	2	0	0.000000	0.878432	1	0	0	0	CorrectOmission	0.911465	0.608255	1
250.345459	0.795833	city	8	1	0.847576	0.847576	0	1	0	0	CorrectCommission	0.621247	0.595333	1
251.141266	0.795786	city	9	1	0.852958	0.852958	0	1	0	0	CorrectCommission	0.671875	0.578478	1
251.937027	0.795727	city	4	1	0.863019	0.863019	0	1	0	0	CorrectCommission	0.766504	0.558486	1
252.732803	0.795837	city	9	1	0.849825	0.849825	0	1	0	0	CorrectCommission	0.642406	0.536468	1
253.528610	0.795784	city	1	1	0.847598	0.847598	0	1	0	0	CorrectCommission	0.621455	0.513760	1
254.324432	0.795860	city	7	1	0.799939	0.799939	0	1	0	0	CorrectCommission	0.173197	0.491721	1
255.120285	0.795821	city	6	1	0.807860	0.807860	0	1	0	0	CorrectCommission	0.247697	0.471646	1
255.916214	0.796067	city	5	1	0.750271	0.750271	0	1	0	0	CorrectCommission	0.293956	0.454573	1
256.712006	0.795527	city	9	1	0.747803	0.747803	0	1	0	0	CorrectCommission	0.317172	0.441187	1
257.507660	0.795741	city	10	1	0.754763	0.754763	0	1	0	0	CorrectCommission	0.251706	0.431783	1
258.303589	0.796118	mountain	5	0	0.000000	0.748817	1	0	0	0	CorrectOmission	0.307639	0.426210	1
259.099396	0.795536	city	8	1	0.754863	0.754863	0	1	0	0	CorrectCommission	0.250771	0.424008	1
259.895081	0.795783	city	9	1	0.797802	0.797802	0	1	0	0	CorrectCommission	0.153096	0.424470	1
260.690857	0.795816	city	4	1	0.698308	0.698308	0	1	0	0	CorrectCommission	0.782704	0.426780	1
261.486633	0.795740	city	6	1	0.705747	0.705747	0	1	0	0	CorrectCommission	0.712729	0.430141	1
262.282440	0.795864	city	5	1	0.699536	0.699536	0	1	0	0	CorrectCommission	0.771149	0.433889	1
263.078278	0.795786	city	6	1	0.750034	0.750034	0	1	0	0	CorrectCommission	0.296191	0.437530	1
263.874054	0.795760	city	8	1	0.704688	0.704688	0	1	0	0	CorrectCommission	0.722696	0.440804	1
264.669830	0.795829	city	4	1	0.798093	0.798093	0	1	0	0	CorrectCommission	0.155834	0.443592	1
265.465668	0.795837	mountain	9	0	0.000000	0.822456	1	0	0	0	CorrectOmission	0.384978	0.445860	1
266.261475	0.795784	city	3	1	0.798798	0.798798	0	1	0	0	CorrectCommission	0.162465	0.447594	1
267.057281	0.795822	city	10	1	0.748143	0.748143	0	1	0	0	CorrectCommission	0.313972	0.448762	1
267.853088	0.795756	city	5	1	0.748023	0.748023	0	1	0	0	CorrectCommission	0.315100	0.449266	1
268.648834	0.795768	city	2	1	0.899494	0.899494	0	1	0	0	CorrectCommission	1.109568	0.448974	1
269.444641	0.795863	city	10	1	0.762893	0.762893	0	1	0	0	CorrectCommission	0.175243	0.447765	1
270.240479	0.795776	city	3	1	0.759014	0.759014	0	1	0	0	CorrectCommission	0.211724	0.445714	1
271.036285	0.795856	city	1	1	0.847961	0.847961	0	1	0	0	CorrectCommission	0.624871	0.443071	1
271.832123	0.795781	city	9	1	0.863041	0.863041	0	1	0	0	CorrectCommission	0.766706	0.440388	1
272.627899	0.795795	city	7	1	0.897614	0.897614	0	1	0	0	CorrectCommission	1.091884	0.438509	1
273.423706	0.795798	city	8	1	0.798568	0.798568	0	1	0	0	CorrectCommission	0.160306	0.438523	1
274.219513	0.795834	city	6	1	0.798489	0.798489	0	1	0	0	CorrectCommission	0.159561	0.441690	1
275.015289	0.795752	city	8	1	0.798792	0.798792	0	1	0	0	CorrectCommission	0.162408	0.449200	1
275.811249	0.796118	city	2	1	0.748940	0.748940	0	1	0	0	CorrectCommission	0.306479	0.462007	1
276.607025	0.795439	city	7	1	0.747870	0.747870	0	1	0	0	CorrectCommission	0.316541	0.480620	1
277.402679	0.795885	city	9	1	0.748680	0.748680	0	1	0	0	CorrectCommission	0.308919	0.504963	1
278.198517	0.795804	city	6	1	0.798878	0.798878	0	1	0	0	CorrectCommission	0.163214	0.534251	1
278.994324	0.795821	city	4	1	0.764345	0.764345	0	1	0	0	CorrectCommission	0.161581	0.567020	1
279.790131	0.795782	city	2	1	0.863990	0.863990	0	1	0	0	CorrectCommission	0.775635	0.601215	1
280.585876	0.795725	mountain	9	0	0.000000	0.780297	1	0	0	0	CorrectOmission	0.011550	0.634381	1
281.381653	0.795793	city	4	1	0.649058	0.649058	0	1	0	0	CorrectCommission	1.245926	0.663965	0
282.177460	0.795819	city	2	1	0.606067	0.606067	0	1	0	0	CorrectCommission	1.650277	0.687503	0
282.973297	0.795843	city	10	1	0.648927	0.648927	0	1	0	0	CorrectCommission	1.247158	0.703019	0
283.769104	0.795767	city	2	1	0.699096	0.699096	0	1	0	0	CorrectCommission	0.775285	0.709215	0
284.564911	0.795843	city	6	1	0.699840	0.699840	0	1	0	0	CorrectCommission	0.768295	0.705613	0
285.360718	0.795788	city	1	1	0.698715	0.698715	0	1	0	0	CorrectCommission	0.778876	0.692578	0
286.156494	0.795762	city	5	1	0.859080	0.859080	0	1	0	0	CorrectCommission	0.729453	0.671237	0
286.952454	0.796153	city	8	1	0.897386	0.897386	0	1	0	0	CorrectCommission	1.089742	0.643384	1
287.748230	0.795440	city	5	1	0.848380	0.848380	0	1	0	0	CorrectCommission	0.628809	0.611213	1
288.543854	0.795798	city	8	1	0.848179	0.848179	0	1	0	0	CorrectCommission	0.626921	0.577125	1
289.339691	0.795871	city	5	1	0.754674	0.754674	0	1	0	0	CorrectCommission	0.252541	0.543421	1
290.135681	0.796098	city	9	1	0.760466	0.760466	0	1	0	0	CorrectCommission	0.198071	0.512088	1
290.931488	0.795539	city	4	1	0.805276	0.805276	0	1	0	0	CorrectCommission	0.223391	0.484673	1
291.727264	0.796020	city	10	1	0.797660	0.797660	0	1	0	0	CorrectCommission	0.151760	0.462165	1
292.523071	0.795581	city	5	1	0.758828	0.758828	0	1	0	0	CorrectCommission	0.213475	0.445018	1
293.318756	0.795759	mountain	9	0	0.000000	0.755493	1	0	0	0	CorrectOmission	0.244841	0.433208	1
294.114532	0.795811	city	7	1	0.748404	0.748404	0	1	0	0	CorrectCommission	0.311516	0.426353	1
294.910339	0.795796	city	3	1	0.698310	0.698310	0	1	0	0	CorrectCommission	0.782678	0.423882	1
295.706146	0.795839	city	6	1	0.698522	0.698522	0	1	0	0	CorrectCommission	0.780688	0.425152	1
296.501953	0.795748	city	8	1	0.698621	0.698621	0	1	0	0	CorrectCommission	0.779752	0.429631	1
297.297760	0.795860	mountain	2	0	0.000000	0.781899	1	0	0	0	CorrectOmission	0.003521	0.436908	1
298.093567	0.795778	city	6	1	0.848337	0.848337	0	1	0	0	CorrectCommission	0.628405	0.446765	1
298.889374	0.795821	city	4	1	0.797916	0.797916	0	1	0	0	CorrectCommission	0.154172	0.458995	1
299.685272	0.795962	city	6	1	0.761128	0.761128	0	1	0	0	CorrectCommission	0.191845	0.473450	1
300.481049	0.795581	city	7	1	0.747933	0.747933	0	1	0	0	CorrectCommission	0.315949	0.489908	1
301.276703	0.795775	city	1	1	0.748499	0.748499	0	1	0	0	CorrectCommission	0.310629	0.508022	1
302.072510	0.795821	mountain	10	0	0.000000	0.742859	1	0	0	0	CorrectOmission	0.363669	0.527273	1
302.868317	0.795815	city	8	1	0.715013	0.715013	0	1	0	0	CorrectCommission	0.625580	0.546961	1
303.664124	0.795751	city	6	1	0.648957	0.648957	0	1	0	0	CorrectCommission	1.246873	0.566245	1
304.459900	0.795850	city	7	1	0.667419	0.667419	0	1	0	0	CorrectCommission	1.073228	0.584138	1
305.255737	0.795814	city	1	1	0.748993	0.748993	0	1	0	0	CorrectCommission	0.305978	0.599667	1
306.051575	0.795836	city	6	1	0.754798	0.754798	0	1	0	0	CorrectCommission	0.251381	0.611919	1
306.847382	0.795815	city	9	1	0.749146	0.749146	0	1	0	0	CorrectCommission	0.304539	0.620069	1
307.643188	0.795781	city	4	1	0.698687	0.698687	0	1	0	0	CorrectCommission	0.779131	0.623512	1
308.438995	0.795816	city	1	1	0.648669	0.648669	0	1	0	0	CorrectCommission	1.249580	0.621879	1
309.234772	0.795719	city	5	1	0.698367	0.698367	0	1	0	0	CorrectCommission	0.782141	0.615214	1
310.030548	0.795831	city	9	1	0.698455	0.698455	0	1	0	0	CorrectCommission	0.781316	0.604029	1
310.826355	0.795826	city	7	1	0.767791	0.767791	0	1	0	0	CorrectCommission	0.129171	0.589292	1
311.622162	0.795749	city	3	1	0.698393	0.698393	0	1	0	0	CorrectCommission	0.781897	0.572462	1
312.417969	0.795870	city	1	1	0.652493	0.652493	0	1	0	0	CorrectCommission	1.213618	0.555338	1
313.213745	0.795720	city	10	1	0.698963	0.698963	0	1	0	0	CorrectCommission	0.776542	0.539970	1
314.009521	0.795833	city	9	1	0.799389	0.799389	0	1	0	0	CorrectCommission	0.168022	0.528508	1
314.805359	0.795815	city	2	1	0.764262	0.764262	0	1	0	0	CorrectCommission	0.162361	0.522956	1
315.601318	0.796110	mountain	2	0	0.000000	0.774985	1	0	0	0	CorrectOmission	0.061512	0.524845	1
316.397278	0.795816	city	10	1	0.797550	0.797550	0	1	0	0	CorrectCommission	0.150729	0.535113	1
317.192902	0.795456	mountain	3	1	0.797953	0.797953	0	0	1	0	CommissionError	0.154520	0.553931	1
317.988556	0.795804	city	1	1	0.762267	0.762267	0	1	0	0	CorrectCommission	0.181125	0.580676	1
318.784332	0.795761	city	8	1	0.847660	0.847660	0	1	0	0	CorrectCommission	0.622036	0.613946	1
319.580139	0.795887	city	7	1	0.800233	0.800233	0	1	0	0	CorrectCommission	0.175965	0.651724	0
320.375946	0.795730	city	6	1	0.858390	0.858390	0	1	0	0	CorrectCommission	0.722959	0.691626	0
321.171753	0.795845	city	1	1	0.947402	0.947402	0	1	0	0	CorrectCommission	1.560172	0.731087	0
321.967560	0.795773	city	9	1	0.905541	0.905541	0	1	0	0	CorrectCommission	1.166441	0.767658	0
322.763367	0.795862	city	7	1	0.956882	0.956882	0	1	0	0	CorrectCommission	1.649330	0.799302	0
323.559174	0.795723	city	5	1	0.800862	0.800862	0	1	0	0	CorrectCommission	0.181878	0.824454	0
324.354950	0.795869	city	7	1	0.903078	0.903078	0	1	0	0	CorrectCommission	1.143275	0.842208	0
325.150940	0.796072	city	1	1	0.898032	0.898032	0	1	0	0	CorrectCommission	1.095818	0.852151	0
325.946716	0.795525	city	6	1	0.861051	0.861051	0	1	0	0	CorrectCommission	0.747988	0.854431	0
326.742371	0.795758	city	3	1	0.848572	0.848572	0	1	0	0	CorrectCommission	0.630621	0.849662	0
327.538177	0.795836	city	9	1	0.861515	0.861515	0	1	0	0	CorrectCommission	0.752353	0.838764	0
328.333984	0.795808	city	3	1	0.848687	0.848687	0	1	0	0	CorrectCommission	0.631700	0.822890	0
329.129791	0.795777	city	10	1	0.947483	0.947483	0	1	0	0	CorrectCommission	1.560932	0.803317	0
329.925568	0.795772	city	5	1	0.953994	0.953994	0	1	0	0	CorrectCommission	1.622169	0.781325	0
330.721405	0.795893	city	6	1	0.847673	0.847673	0	1	0	0	CorrectCommission	0.622166	0.758169	0
331.517212	0.795767	city	10	1	0.755099	0.755099	0	1	0	0	CorrectCommission	0.248552	0.735045	0
332.313141	0.796085	city	9	1	0.766676	0.766676	0	1	0	0	CorrectCommission	0.139656	0.712953	0
333.108948	0.795538	city	6	1	0.713338	0.713338	0	1	0	0	CorrectCommission	0.641333	0.692702	0
333.904633	0.795814	city	2	1	0.752023	0.752023	0	1	0	0	CorrectCommission	0.277481	0.674893	0
334.700409	0.795715	city	10	1	0.699959	0.699959	0	1	0	0	CorrectCommission	0.767171	0.660034	0
335.496155	0.795801	mountain	10	1	0.702196	0.702196	0	0	1	0	CommissionError	0.746127	0.648522	1
336.291992	0.795852	city	3	1	0.698550	0.698550	0	1	0	0	CorrectCommission	0.780425	0.640738	1
337.087799	0.795809	city	4	1	0.711916	0.711916	0	1	0	0	CorrectCommission	0.654713	0.637146	1
337.883606	0.795796	city	2	1	0.698223	0.698223	0	1	0	0	CorrectCommission	0.783497	0.638287	1
338.679413	0.795826	city	10	1	0.699553	0.699553	0	1	0	0	CorrectCommission	0.770991	0.644694	1
339.475250	0.795799	city	5	1	0.698206	0.698206	0	1	0	0	CorrectCommission	0.783657	0.656849	0
340.271179	0.796094	city	6	1	0.751634	0.751634	0	1	0	0	CorrectCommission	0.281137	0.674979	0
341.066986	0.795529	city	9	1	0.748727	0.748727	0	1	0	0	CorrectCommission	0.308483	0.698986	0
341.862793	0.796048	city	5	1	0.748269	0.748269	0	1	0	0	CorrectCommission	0.312787	0.728160	0
342.658569	0.795519	city	3	1	0.747932	0.747932	0	1	0	0	CorrectCommission	0.315958	0.761192	0
343.454193	0.795756	city	5	1	0.748789	0.748789	0	1	0	0	CorrectCommission	0.307900	0.796123	0
344.250000	0.795813	city	3	1	0.698713	0.698713	0	1	0	0	CorrectCommission	0.778890	0.830490	0
345.045807	0.795847	city	1	1	0.608379	0.608379	0	1	0	0	CorrectCommission	1.628529	0.861502	0
345.841644	0.795785	city	8	1	0.648626	0.648626	0	1	0	0	CorrectCommission	1.249989	0.886343	0
346.637421	0.795761	city	2	1	0.649309	0.649309	0	1	0	0	CorrectCommission	1.243566	0.902511	0
347.433350	0.796113	city	6	1	0.653134	0.653134	0	1	0	0	CorrectCommission	1.207585	0.908075	0
348.229187	0.795537	city	8	1	0.649765	0.649765	0	1	0	0	CorrectCommission	1.239272	0.901947	0
349.024811	0.795738	city	10	1	0.649909	0.649909	0	1	0	0	CorrectCommission	1.237917	0.883993	0
349.820587	0.795845	city	5	1	0.600023	0.600023	0	1	0	0	CorrectCommission	1.707127	0.855023	0
350.616455	0.795839	city	8	1	0.648943	0.648943	0	1	0	0	CorrectCommission	1.247003	0.816654	0
351.412415	0.796077	city	7	1	0.798480	0.798480	0	1	0	0	CorrectCommission	0.159477	0.771212	0
352.208191	0.795500	city	9	1	0.748114	0.748114	0	1	0	0	CorrectCommission	0.314244	0.721396	0
353.003845	0.795783	city	7	1	0.848699	0.848699	0	1	0	0	CorrectCommission	0.631816	0.669967	0
353.799652	0.795873	city	1	1	0.748281	0.748281	0	1	0	0	CorrectCommission	0.312671	0.619577	1
354.595459	0.795743	city	7	1	0.749914	0.749914	0	1	0	0	CorrectCommission	0.297314	0.572604	1
355.391205	0.795753	city	2	1	0.749152	0.749152	0	1	0	0	CorrectCommission	0.304482	0.531024	1
356.187042	0.795884	city	1	1	0.847727	0.847727	0	1	0	0	CorrectCommission	0.622672	0.496406	1
356.982849	0.795762	city	6	1	0.798606	0.798606	0	1	0	0	CorrectCommission	0.160663	0.469964	1
357.778656	0.795833	city	3	1	0.897478	0.897478	0	1	0	0	CorrectCommission	1.090610	0.452615	1
358.574463	0.795774	city	10	1	0.760640	0.760640	0	1	0	0	CorrectCommission	0.196433	0.444979	1
359.370239	0.795758	city	6	1	0.813769	0.813769	0	1	0	0	CorrectCommission	0.303274	0.447512	1
360.166046	0.795890	city	4	1	0.798631	0.798631	0	1	0	0	CorrectCommission	0.160895	0.460379	1
360.962036	0.796073	city	3	1	0.804351	0.804351	0	1	0	0	CorrectCommission	0.214695	0.483462	1
361.757812	0.795467	mountain	5	0	0.000000	0.788918	1	0	0	0	CorrectOmission	0.069534	0.516289	1
362.553436	0.795781	city	7	1	0.765718	0.765718	0	1	0	0	CorrectCommission	0.148671	0.557930	1
363.349243	0.795869	city	8	1	0.748140	0.748140	0	1	0	0	CorrectCommission	0.314004	0.607000	1
364.145050	0.795751	city	10	1	0.699116	0.699116	0	1	0	0	CorrectCommission	0.775102	0.661655	0
364.940857	0.795844	city	5	1	0.848197	0.848197	0	1	0	0	CorrectCommission	0.627094	0.719663	0
365.736664	0.795792	city	3	1	0.849151	0.849151	0	1	0	0	CorrectCommission	0.636068	0.778527	0
366.532471	0.795807	city	10	1	0.962114	0.962114	0	1	0	0	CorrectCommission	1.698543	0.835624	0
367.328430	0.796100	mountain	6	0	0.000000	0.915274	1	0	0	0	CorrectOmission	1.257984	0.888313	0
368.124207	0.795454	city	4	1	0.847509	0.847509	0	1	0	0	CorrectCommission	0.620621	0.934205	0
368.919861	0.795873	city	8	1	0.897699	0.897699	0	1	0	0	CorrectCommission	1.092682	0.971294	0
369.715698	0.795778	mountain	5	0	0.000000	0.906279	1	0	0	0	CorrectOmission	1.173383	0.998035	0
370.511475	0.795800	city	1	1	0.897928	0.897928	0	1	0	0	CorrectCommission	1.094841	1.013482	0
371.307281	0.795790	city	10	1	0.897325	0.897325	0	1	0	0	CorrectCommission	1.089171	1.017407	0
372.103088	0.795839	city	6	1	0.997392	0.997392	0	1	0	0	CorrectCommission	2.030358	1.010306	0
372.898895	0.795785	city	3	1	0.903260	0.903260	0	1	0	0	CorrectCommission	1.144992	0.993410	0
373.694672	0.795744	city	9	1	0.897647	0.897647	0	1	0	0	CorrectCommission	1.092197	0.968742	0
374.490631	0.796147	city	6	1	0.897644	0.897644	0	1	0	0	CorrectCommission	1.092172	0.938936	0
375.286469	0.795551	city	9	1	0.856561	0.856561	0	1	0	0	CorrectCommission	0.705758	0.907088	0
376.082123	0.795774	city	8	1	0.847564	0.847564	0	1	0	0	CorrectCommission	0.621140	0.876607	0
376.877899	0.795762	city	9	1	0.898353	0.898353	0	1	0	0	CorrectCommission	1.098834	0.850931	0
377.673706	0.795845	city	6	1	0.847628	0.847628	0	1	0	0	CorrectCommission	0.621742	0.833239	0
378.469513	0.795779	city	10	1	0.756600	0.756600	0	1	0	0	CorrectCommission	0.234430	0.826182	0
379.265289	0.795808	city	6	1	0.757415	0.757415	0	1	0	0	CorrectCommission	0.226765	0.831581	0
380.061096	0.795802	city	3	1	0.847676	0.847676	0	1	0	0	CorrectCommission	0.622189	0.850184	0
380.856934	0.795835	city	5	1	0.848025	0.848025	0	1	0	0	CorrectCommission	0.625470	0.881519	0
381.652710	0.795755	city	2	1	0.850406	0.850406	0	1	0	0	CorrectCommission	0.647868	0.923852	0
382.448517	0.795815	city	3	1	0.854512	0.854512	0	1	0	0	CorrectCommission	0.686485	0.974292	0
383.244293	0.795740	city	10	1	0.847567	0.847567	0	1	0	0	CorrectCommission	0.621166	1.028992	0
384.040222	0.796131	city	7	1	0.862274	0.862274	0	1	0	0	CorrectCommission	0.759491	1.083510	0
384.836060	0.795573	city	4	1	0.947175	0.947175	0	1	0	0	CorrectCommission	1.558031	1.133239	0
385.631714	0.795727	city	5	1	0.947203	0.947203	0	1	0	0	CorrectCommission	1.558298	1.173938	0
386.427521	0.795860	city	7	1	0.997561	0.997561	0	1	0	0	CorrectCommission	2.031940	1.202225	0
387.223297	0.795723	city	4	1	0.958650	0.958650	0	1	0	0	CorrectCommission	1.665961	1.215927	0
388.019257	0.796154	city	6	1	0.998118	0.998118	0	1	0	0	CorrectCommission	2.037186	1.214365	0
388.815063	0.795473	city	10	1	1.046666	1.046666	0	1	0	0	CorrectCommission	2.493808	1.198381	0
389.610687	0.795816	city	7	1	0.964569	0.964569	0	1	0	0	CorrectCommission	1.721636	1.170174	0
390.406525	0.795825	city	9	1	0.897857	0.897857	0	1	0	0	CorrectCommission	1.094175	1.133015	0
391.202332	0.795799	city	3	1	0.800359	0.800359	0	1	0	0	CorrectCommission	0.177146	1.090729	0
391.998108	0.795734	city	2	1	0.751800	0.751800	0	1	0	0	CorrectCommission	0.279575	1.047139	0
392.793884	0.795834	city	8	1	0.848056	0.848056	0	1	0	0	CorrectCommission	0.625766	1.005514	0
393.589752	0.795871	mountain	3	0	0.000000	0.821707	1	0	0	0	CorrectOmission	0.377942	0.968228	0
394.385559	0.795751	mountain	6	1	0.748773	0.748773	0	0	1	0	CommissionError	0.308048	0.936509	0
395.181335	0.795800	city	10	1	0.705272	0.705272	0	1	0	0	CorrectCommission	0.717203	0.910430	0
395.977142	0.795829	city	3	1	0.648762	0.648762	0	1	0	0	CorrectCommission	1.248709	0.889065	0
396.773071	0.796039	city	2	1	0.648839	0.648839	0	1	0	0	CorrectCommission	1.247980	0.870765	0
397.569000	0.795838	city	8	1	0.614228	0.614228	0	1	0	0	CorrectCommission	1.573521	0.853564	0
398.364685	0.795491	city	9	1	0.699260	0.699260	0	1	0	0	CorrectCommission	0.773741	0.835515	0
399.160309	0.795777	city	7	1	0.649626	0.649626	0	1	0	0	CorrectCommission	1.240585	0.815054	0
399.956085	0.795787	city	10	1	0.748241	0.748241	0	1	0	0	CorrectCommission	0.313053	0.791137	0
400.751923	0.795898	city	7	1	0.698763	0.698763	0	1	0	0	CorrectCommission	0.778424	0.763403	0
401.547760	0.795779	city	10	1	0.648953	0.648953	0	1	0	0	CorrectCommission	1.246909	0.732077	0
402.343567	0.795827	city	2	1	0.664189	0.664189	0	1	0	0	CorrectCommission	1.103606	0.697867	0
403.139374	0.795752	city	8	1	0.806716	0.806716	0	1	0	0	CorrectCommission	0.236937	0.661865	0
403.935120	0.795765	city	10	1	0.797887	0.797887	0	1	0	0	CorrectCommission	0.153901	0.625309	1
404.730927	0.795851	city	3	1	0.707067	0.707067	0	1	0	0	CorrectCommission	0.700315	0.589404	1
405.526764	0.795822	city	9	1	0.797940	0.797940	0	1	0	0	CorrectCommission	0.154392	0.555166	1
406.322540	0.795710	city	6	1	0.851716	0.851716	0	1	0	0	CorrectCommission	0.660188	0.523422	1
407.118317	0.795842	mountain	10	0	0.000000	0.849237	1	0	0	0	CorrectOmission	0.636870	0.494748	1
407.914276	0.796098	city	6	1	0.797803	0.797803	0	1	0	0	CorrectCommission	0.153109	0.469548	1
408.710236	0.795841	city	10	1	0.704717	0.704717	0	1	0	0	CorrectCommission	0.722424	0.448144	1
409.505951	0.795534	city	5	1	0.747835	0.747835	0	1	0	0	CorrectCommission	0.316868	0.430766	1
410.301575	0.795741	mountain	4	0	0.000000	0.814656	1	0	0	0	CorrectOmission	0.311617	0.417720	1
411.097351	0.795807	city	4	1	0.849794	0.849794	0	1	0	0	CorrectCommission	0.642109	0.409346	1
411.893188	0.795848	city	6	1	0.797865	0.797865	0	1	0	0	CorrectCommission	0.153689	0.406046	1
412.688965	0.795733	city	3	1	0.816428	0.816428	0	1	0	0	CorrectCommission	0.328281	0.408237	1
413.484772	0.795863	city	6	1	0.798121	0.798121	0	1	0	0	CorrectCommission	0.156095	0.416283	1
414.280548	0.795716	city	8	1	0.757611	0.757611	0	1	0	0	CorrectCommission	0.224920	0.430407	1
415.076355	0.795904	city	3	1	0.707621	0.707621	0	1	0	0	CorrectCommission	0.695102	0.450631	1
415.872162	0.795694	city	1	1	0.797832	0.797832	0	1	0	0	CorrectCommission	0.153381	0.476743	1
416.667938	0.795825	city	5	1	0.754982	0.754982	0	1	0	0	CorrectCommission	0.249645	0.508334	1
417.463776	0.795851	city	9	1	0.798630	0.798630	0	1	0	0	CorrectCommission	0.160887	0.544768	1
418.259583	0.795792	city	3	1	0.698285	0.698285	0	1	0	0	CorrectCommission	0.782919	0.585260	1
419.055389	0.795835	city	7	1	0.710548	0.710548	0	1	0	0	CorrectCommission	0.667574	0.628943	1
419.851227	0.795796	city	3	1	0.708184	0.708184	0	1	0	0	CorrectCommission	0.689809	0.674973	0
420.647003	0.795804	city	2	1	0.847735	0.847735	0	1	0	0	CorrectCommission	0.622746	0.722569	0
421.442780	0.795723	city	6	1	0.897724	0.897724	0	1	0	0	CorrectCommission	1.092920	0.771030	0
422.238586	0.795875	mountain	1	0	0.000000	0.915615	1	0	0	0	CorrectOmission	1.261196	0.819667	0
423.034363	0.795722	city	1	1	0.902093	0.902093	0	1	0	0	CorrectCommission	1.134010	0.867813	0
423.830139	0.795802	city	2	1	0.857841	0.857841	0	1	0	0	CorrectCommission	0.717796	0.914692	0
424.625946	0.795841	city	5	1	0.804603	0.804603	0	1	0	0	CorrectCommission	0.217064	0.959341	0
425.421783	0.795810	city	3	1	0.867035	0.867035	0	1	0	0	CorrectCommission	0.804271	1.000603	0
426.217743	0.796091	city	10	1	0.847872	0.847872	0	1	0	0	CorrectCommission	0.624037	1.037068	0
427.013550	0.795548	city	1	1	0.914305	0.914305	0	1	0	0	CorrectCommission	1.248876	1.067232	0
427.809204	0.795770	city	2	1	0.897965	0.897965	0	1	0	0	CorrectCommission	1.095188	1.089635	0
428.605011	0.795831	city	6	1	1.047291	1.047291	0	1	0	0	CorrectCommission	2.499685	1.103062	0
429.400787	0.795750	city	5	1	0.947030	0.947030	0	1	0	0	CorrectCommission	1.556670	1.106713	0
430.196564	0.795764	city	7	1	0.948860	0.948860	0	1	0	0	CorrectCommission	1.573879	1.100507	0
430.992371	0.795863	city	2	1	0.897915	0.897915	0	1	0	0	CorrectCommission	1.094718	1.085049	0
431.788208	0.795795	city	5	1	0.947039	0.947039	0	1	0	0	CorrectCommission	1.556754	1.061637	0
432.583984	0.795785	city	9	1	0.847558	0.847558	0	1	0	0	CorrectCommission	0.621082	1.032119	0
433.379791	0.795844	city	1	1	0.812300	0.812300	0	1	0	0	CorrectCommission	0.289463	0.998772	0
434.175781	0.796089	city	2	1	0.899304	0.899304	0	1	0	0	CorrectCommission	1.107780	0.963962	0
434.971710	0.795809	city	5	1	0.897138	0.897138	0	1	0	0	CorrectCommission	1.087411	0.929913	0
435.767365	0.795469	mountain	2	0	0.000000	0.872299	1	0	0	0	CorrectOmission	0.853782	0.898489	0
436.563019	0.795861	city	10	1	0.848212	0.848212	0	1	0	0	CorrectCommission	0.627235	0.871039	0
437.358856	0.795786	city	4	1	0.848305	0.848305	0	1	0	0	CorrectCommission	0.628110	0.848293	0
438.154633	0.795807	mountain	5	0	0.000000	0.861688	1	0	0	0	CorrectOmission	0.753981	0.830320	0
438.950439	0.795795	city	5	1	0.847587	0.847587	0	1	0	0	CorrectCommission	0.621354	0.816587	0
439.746399	0.796093	city	10	1	0.765230	0.765230	0	1	0	0	CorrectCommission	0.153263	0.806083	0
440.542175	0.795475	city	5	1	0.847514	0.847514	0	1	0	0	CorrectCommission	0.620662	0.797547	0
441.337830	0.795815	city	6	1	0.947657	0.947657	0	1	0	0	CorrectCommission	1.562568	0.789621	0
442.133636	0.795846	city	5	1	0.898323	0.898323	0	1	0	0	CorrectCommission	1.098554	0.781077	0
442.929443	0.795773	city	9	1	0.949566	0.949566	0	1	0	0	CorrectCommission	1.580522	0.771012	0
443.725372	0.796079	city	10	1	0.848244	0.848244	0	1	0	0	CorrectCommission	0.627536	0.758887	0
444.521332	0.795789	city	4	1	0.765942	0.765942	0	1	0	0	CorrectCommission	0.146568	0.744582	0
445.317108	0.795804	city	5	1	0.847284	0.847284	0	1	0	0	CorrectCommission	0.618501	0.728325	0
446.112915	0.795787	city	9	1	0.897291	0.897291	0	1	0	0	CorrectCommission	1.088845	0.710511	0
446.908569	0.795513	city	1	1	0.750336	0.750336	0	1	0	0	CorrectCommission	0.293348	0.691686	0
447.704224	0.795833	city	6	1	0.898962	0.898962	0	1	0	0	CorrectCommission	1.104568	0.672404	0
448.500031	0.795777	city	4	1	0.860215	0.860215	0	1	0	0	CorrectCommission	0.740123	0.653051	0
449.295807	0.795778	city	9	1	0.799107	0.799107	0	1	0	0	CorrectCommission	0.165376	0.633844	1
450.091614	0.795841	city	3	1	0.716156	0.716156	0	1	0	0	CorrectCommission	0.614828	0.614848	1
450.887451	0.795820	city	2	1	0.798093	0.798093	0	1	0	0	CorrectCommission	0.155835	0.595936	1
451.683228	0.795746	city	3	1	0.806846	0.806846	0	1	0	0	CorrectCommission	0.238161	0.576892	1
452.479034	0.795834	city	2	1	0.898912	0.898912	0	1	0	0	CorrectCommission	1.104092	0.557507	1
453.274872	0.795831	city	1	1	0.908658	0.908658	0	1	0	0	CorrectCommission	1.195759	0.537861	1
454.070648	0.795749	city	9	1	0.904202	0.904202	0	1	0	0	CorrectCommission	1.153850	0.518170	1
454.866394	0.795762	city	10	1	0.801298	0.801298	0	1	0	0	CorrectCommission	0.185978	0.499054	1
455.662231	0.795875	city	2	1	0.798004	0.798004	0	1	0	0	CorrectCommission	0.154996	0.481501	1
456.458038	0.795782	city	6	1	0.765165	0.765165	0	1	0	0	CorrectCommission	0.153874	0.466763	1
457.253876	0.795845	city	5	1	0.797868	0.797868	0	1	0	0	CorrectCommission	0.153715	0.456332	1
458.049683	0.795780	city	9	1	0.748440	0.748440	0	1	0	0	CorrectCommission	0.311177	0.451777	1
458.845459	0.795772	city	5	1	0.704832	0.704832	0	1	0	0	CorrectCommission	0.721339	0.454533	1
459.641266	0.795861	city	4	1	0.748749	0.748749	0	1	0	0	CorrectCommission	0.308274	0.465804	1
460.437073	0.795767	city	8	1	0.798826	0.798826	0	1	0	0	CorrectCommission	0.162731	0.486404	1
461.232849	0.795787	city	5	1	0.751222	0.751222	0	1	0	0	CorrectCommission	0.285015	0.516630	1
462.028625	0.795755	city	1	1	0.848758	0.848758	0	1	0	0	CorrectCommission	0.632368	0.556153	1
462.824402	0.795809	city	2	1	0.748229	0.748229	0	1	0	0	CorrectCommission	0.313166	0.603932	1
463.620270	0.795887	city	8	1	0.799695	0.799695	0	1	0	0	CorrectCommission	0.170903	0.658224	0
464.416077	0.795764	city	10	1	0.797900	0.797900	0	1	0	0	CorrectCommission	0.154015	0.716670	0
465.212006	0.796096	city	5	1	0.897540	0.897540	0	1	0	0	CorrectCommission	1.091189	0.776375	0
466.007843	0.795530	city	6	1	0.899190	0.899190	0	1	0	0	CorrectCommission	1.106711	0.834119	0
466.803467	0.795718	city	3	1	0.811091	0.811091	0	1	0	0	CorrectCommission	0.278084	0.886689	0
467.599213	0.795811	city	7	1	0.798893	0.798893	0	1	0	0	CorrectCommission	0.163354	0.931116	0
468.395081	0.795897	mountain	10	1	1.345891	1.345891	0	0	1	0	CommissionError	5.308185	0.964973	0
469.191071	0.796072	mountain	9	1	0.798481	0.798481	0	0	1	0	CommissionError	0.159485	0.986425	0
469.986847	0.795493	city	3	1	0.707673	0.707673	0	1	0	0	CorrectCommission	0.694613	0.994900	0
470.782471	0.795762	city	5	1	0.847810	0.847810	0	1	0	0	CorrectCommission	0.623451	0.990591	0
471.578278	0.795841	city	10	1	0.851691	0.851691	0	1	0	0	CorrectCommission	0.659951	0.974643	0
472.374054	0.795734	city	5	1	0.947747	0.947747	0	1	0	0	CorrectCommission	1.563412	0.948994	0
473.169861	0.795865	city	3	1	0.998108	0.998108	0	1	0	0	CorrectCommission	2.037086	0.916098	0
473.965668	0.795764	city	6	1	0.897816	0.897816	0	1	0	0	CorrectCommission	1.093788	0.878675	0
474.761505	0.795882	city	4	1	0.849788	0.849788	0	1	0	0	CorrectCommission	0.642059	0.839468	0
475.557312	0.795776	city	5	1	0.797844	0.797844	0	1	0	0	CorrectCommission	0.153492	0.800880	0
476.353088	0.795760	city	10	1	0.798190	0.798190	0	1	0	0	CorrectCommission	0.156750	0.764723	0
477.148865	0.795771	city	1	1	0.748338	0.748338	0	1	0	0	CorrectCommission	0.312142	0.732081	0
477.944672	0.795867	city	8	1	0.748243	0.748243	0	1	0	0	CorrectCommission	0.313030	0.703312	0
478.740662	0.796083	city	9	1	0.748102	0.748102	0	1	0	0	CorrectCommission	0.314356	0.678104	0
479.536591	0.795798	city	2	1	0.698964	0.698964	0	1	0	0	CorrectCommission	0.776532	0.655689	0
480.332214	0.795475	city	7	1	0.665830	0.665830	0	1	0	0	CorrectCommission	1.088173	0.635130	1
481.128021	0.796138	mountain	6	0	0.000000	0.626829	1	0	0	0	CorrectOmission	1.454996	0.615567	1
481.924011	0.795794	city	8	1	0.648545	0.648545	0	1	0	0	CorrectCommission	1.250748	0.596511	1
482.719666	0.795534	city	10	1	0.797560	0.797560	0	1	0	0	CorrectCommission	0.150824	0.577928	1
483.515320	0.795757	city	5	1	0.748390	0.748390	0	1	0	0	CorrectCommission	0.311651	0.560320	1
484.311096	0.795829	city	3	1	0.848007	0.848007	0	1	0	0	CorrectCommission	0.625301	0.544560	1
485.107056	0.796085	mountain	8	0	0.000000	0.845134	1	0	0	0	CorrectOmission	0.598283	0.531768	1
485.902893	0.795552	city	8	1	0.797648	0.797648	0	1	0	0	CorrectCommission	0.151649	0.522889	1
486.698547	0.795768	city	5	1	0.763424	0.763424	0	1	0	0	CorrectCommission	0.170245	0.518737	1
487.494293	0.795749	mountain	1	0	0.000000	0.775568	1	0	0	0	CorrectOmission	0.056030	0.519580	1
488.290070	0.795821	city	2	1	0.798956	0.798956	0	1	0	0	CorrectCommission	0.163951	0.525082	1
489.086060	0.796114	city	6	1	0.798467	0.798467	0	1	0	0	CorrectCommission	0.159356	0.534312	1
489.881866	0.795504	city	7	1	0.702238	0.702238	0	1	0	0	CorrectCommission	0.745737	0.545798	1
490.677490	0.795743	city	1	1	0.648930	0.648930	0	1	0	0	CorrectCommission	1.247126	0.557759	1
491.473297	0.795885	city	5	1	0.704207	0.704207	0	1	0	0	CorrectCommission	0.727218	0.568403	1
492.269135	0.795803	city	8	1	0.748095	0.748095	0	1	0	0	CorrectCommission	0.314429	0.576173	1
493.064911	0.795765	city	10	1	0.657250	0.657250	0	1	0	0	CorrectCommission	1.168874	0.579979	1
493.860687	0.795766	city	9	1	0.709498	0.709498	0	1	0	0	CorrectCommission	0.677448	0.579312	1
494.656464	0.795808	city	5	1	0.710878	0.710878	0	1	0	0	CorrectCommission	0.664468	0.574416	1
495.452271	0.795807	city	2	1	0.648594	0.648594	0	1	0	0	CorrectCommission	1.250288	0.566184	1
496.248138	0.795871	city	5	1	0.766066	0.766066	0	1	0	0	CorrectCommission	0.145394	0.556024	1
497.043976	0.795813	city	1	1	0.714731	0.714731	0	1	0	0	CorrectCommission	0.628231	0.545702	1
497.839752	0.795764	city	5	1	0.797979	0.797979	0	1	0	0	CorrectCommission	0.154762	0.536967	1
498.635529	0.795791	mountain	2	0	0.000000	0.812315	1	0	0	0	CorrectOmission	0.289598	0.531378	1
499.431335	0.795798	city	2	1	0.798878	0.798878	0	1	0	0	CorrectCommission	0.163219	0.530035	1
500.227142	0.795851	city	10	1	0.798809	0.798809	0	1	0	0	CorrectCommission	0.162570	0.533423	1
501.022980	0.795816	city	6	1	0.858990	0.858990	0	1	0	0	CorrectCommission	0.728607	0.541326	1
501.818726	0.795689	city	2	1	0.860959	0.860959	0	1	0	0	CorrectCommission	0.747122	0.552868	1
502.614532	0.795906	city	6	1	0.811453	0.811453	0	1	0	0	CorrectCommission	0.281496	0.566645	1
503.410400	0.795802	city	2	1	0.812168	0.812168	0	1	0	0	CorrectCommission	0.288219	0.580974	1
504.206207	0.795809	city	3	1	0.856445	0.856445	0	1	0	0	CorrectCommission	0.704667	0.594082	1
505.001953	0.795723	city	9	1	0.798962	0.798962	0	1	0	0	CorrectCommission	0.164005	0.604363	1
505.797760	0.795867	mountain	10	0	0.000000	0.904832	1	0	0	0	CorrectOmission	1.159772	0.610692	1
506.593567	0.795763	city	4	1	0.996809	0.996809	0	1	0	0	CorrectCommission	2.024867	0.612446	1
507.389374	0.795824	city	6	1	0.897646	0.897646	0	1	0	0	CorrectCommission	1.092188	0.609661	1
508.185181	0.795796	city	4	1	0.849697	0.849697	0	1	0	0	CorrectCommission	0.641197	0.603046	1
508.980988	0.795830	city	9	1	0.802597	0.802597	0	1	0	0	CorrectCommission	0.198197	0.593773	1
509.776764	0.795747	city	7	1	0.766961	0.766961	0	1	0	0	CorrectCommission	0.136983	0.583321	1
510.572571	0.795852	city	8	1	0.797897	0.797897	0	1	0	0	CorrectCommission	0.153987	0.573181	1
511.368378	0.795736	city	3	1	0.748396	0.748396	0	1	0	0	CorrectCommission	0.311597	0.564721	1
512.164124	0.795776	city	4	1	0.798023	0.798023	0	1	0	0	CorrectCommission	0.155179	0.559044	1
512.959961	0.795904	mountain	8	0	0.000000	0.812502	1	0	0	0	CorrectOmission	0.291359	0.556928	1
513.755798	0.795752	city	10	1	0.848298	0.848298	0	1	0	0	CorrectCommission	0.628041	0.558904	1
514.551697	0.796115	city	8	1	0.961878	0.961878	0	1	0	0	CorrectCommission	1.696323	0.565302	1
515.347534	0.795479	city	1	1	0.848944	0.848944	0	1	0	0	CorrectCommission	0.634120	0.576380	1
516.143311	0.796074	city	2	1	0.797931	0.797931	0	1	0	0	CorrectCommission	0.154312	0.592498	1
516.939087	0.795557	city	4	1	0.860101	0.860101	0	1	0	0	CorrectCommission	0.739055	0.614043	1
517.734924	0.796057	city	1	1	0.797949	0.797949	0	1	0	0	CorrectCommission	0.154484	0.641407	1
518.530762	0.795566	city	5	1	0.848001	0.848001	0	1	0	0	CorrectCommission	0.625249	0.674967	0
519.326416	0.795792	city	4	1	0.847431	0.847431	0	1	0	0	CorrectCommission	0.619886	0.714865	0
520.122192	0.795759	city	2	1	0.812989	0.812989	0	1	0	0	CorrectCommission	0.295943	0.760952	0
520.917969	0.795778	city	8	1	0.912252	0.912252	0	1	0	0	CorrectCommission	1.229568	0.812630	0
521.713806	0.795933	city	10	1	0.797805	0.797805	0	1	0	0	CorrectCommission	0.153129	0.868743	0
522.509644	0.795681	mountain	6	0	0.000000	0.829563	1	0	0	0	CorrectOmission	0.451826	0.927692	0
523.305359	0.795828	city	9	1	0.899121	0.899121	0	1	0	0	CorrectCommission	1.106056	0.987365	0
524.101196	0.795790	city	6	1	0.898074	0.898074	0	1	0	0	CorrectCommission	1.096215	1.045319	0
524.896973	0.795755	city	3	1	0.948080	0.948080	0	1	0	0	CorrectCommission	1.566550	1.099017	0
525.692810	0.795894	city	10	1	0.947693	0.947693	0	1	0	0	CorrectCommission	1.562911	1.145976	0
526.488586	0.795711	city	8	1	0.948076	0.948076	0	1	0	0	CorrectCommission	1.566511	1.184038	0
527.284363	0.795868	city	5	1	0.962227	0.962227	0	1	0	0	CorrectCommission	1.699611	1.211434	0
528.080322	0.796062	city	1	1	0.947126	0.947126	0	1	0	0	CorrectCommission	1.557577	1.226932	0
528.876099	0.795468	city	6	1	0.906314	0.906314	0	1	0	0	CorrectCommission	1.173715	1.229863	0
529.671753	0.795885	city	3	1	0.899413	0.899413	0	1	0	0	CorrectCommission	1.108805	1.220126	0
530.467773	0.796063	city	6	1	0.906726	0.906726	0	1	0	0	CorrectCommission	1.177592	1.198134	0
531.263550	0.795564	city	4	1	0.947777	0.947777	0	1	0	0	CorrectCommission	1.563694	1.164757	0
532.059265	0.795794	city	10	1	0.897245	0.897245	0	1	0	0	CorrectCommission	1.088417	1.121218	0
532.855042	0.795797	city	9	1	0.912674	0.912674	0	1	0	0	CorrectCommission	1.233532	1.069168	0
533.650940	0.796052	city	8	1	0.947316	0.947316	0	1	0	0	CorrectCommission	1.559358	1.010543	0
534.446716	0.795465	city	4	1	0.911076	0.911076	0	1	0	0	CorrectCommission	1.218505	0.947485	0
535.242371	0.795795	city	10	1	0.897668	0.897668	0	1	0	0	CorrectCommission	1.092395	0.882339	0
536.038208	0.795889	city	3	1	0.817162	0.817162	0	1	0	0	CorrectCommission	0.335193	0.817486	0
536.834045	0.795822	city	8	1	0.860945	0.860945	0	1	0	0	CorrectCommission	0.746989	0.755241	0
537.629822	0.795766	city	10	1	0.798869	0.798869	0	1	0	0	CorrectCommission	0.163136	0.697689	0
538.425598	0.795762	city	8	1	0.766042	0.766042	0	1	0	0	CorrectCommission	0.145623	0.646537	1
539.221436	0.795834	city	5	1	0.705414	0.705414	0	1	0	0	CorrectCommission	0.715868	0.603028	1
540.017212	0.795724	city	9	1	0.748071	0.748071	0	1	0	0	CorrectCommission	0.314655	0.567881	1
540.812988	0.795894	city	3	1	0.798574	0.798574	0	1	0	0	CorrectCommission	0.160361	0.541206	1
541.608826	0.795790	city	6	1	0.900791	0.900791	0	1	0	0	CorrectCommission	1.121765	0.522596	1
542.404602	0.795735	city	1	1	0.800002	0.800002	0	1	0	0	CorrectCommission	0.173788	0.511137	1
543.200562	0.796158	city	2	1	0.754070	0.754070	0	1	0	0	CorrectCommission	0.258222	0.505626	1
543.996399	0.795529	city	5	1	0.809424	0.809424	0	1	0	0	CorrectCommission	0.262410	0.504615	1
544.792053	0.795769	mountain	3	0	0.000000	0.763087	1	0	0	0	CorrectOmission	0.173412	0.506619	1
545.587830	0.795797	city	4	1	0.698356	0.698356	0	1	0	0	CorrectCommission	0.782247	0.510295	1
546.383667	0.795847	city	6	1	0.698526	0.698526	0	1	0	0	CorrectCommission	0.780651	0.514509	1
547.179443	0.795719	city	4	1	0.714862	0.714862	0	1	0	0	CorrectCommission	0.627003	0.518516	1
547.975281	0.795947	city	3	1	0.663053	0.663053	0	1	0	0	CorrectCommission	1.114298	0.522007	1
548.771118	0.795750	mountain	5	0	0.000000	0.691932	1	0	0	0	CorrectOmission	0.842668	0.525045	1
549.566833	0.795711	city	1	1	0.752041	0.752041	0	1	0	0	CorrectCommission	0.277307	0.528089	1
550.362671	0.795896	mountain	6	0	0.000000	0.793921	1	0	0	0	CorrectOmission	0.116591	0.531869	1
551.158447	0.795770	city	7	1	0.811343	0.811343	0	1	0	0	CorrectCommission	0.280460	0.537187	1
551.954285	0.795804	city	1	1	0.798083	0.798083	0	1	0	0	CorrectCommission	0.155736	0.544809	1
552.750061	0.795761	city	3	1	0.698220	0.698220	0	1	0	0	CorrectCommission	0.783524	0.555318	1
553.545898	0.795920	city	2	1	0.766032	0.766032	0	1	0	0	CorrectCommission	0.145720	0.569012	1
554.341736	0.795737	city	1	1	0.749429	0.749429	0	1	0	0	CorrectCommission	0.301880	0.585870	1
555.137634	0.796072	city	9	1	0.996796	0.996796	0	1	0	0	CorrectCommission	2.024747	0.605484	1
555.933411	0.795541	city	10	1	0.756595	0.756595	0	1	0	0	CorrectCommission	0.234474	0.627036	1
556.729065	0.795697	city	8	1	0.748720	0.748720	0	1	0	0	CorrectCommission	0.308547	0.649500	1
557.524841	0.795915	city	9	1	0.847975	0.847975	0	1	0	0	CorrectCommission	0.625007	0.671557	0
558.320679	0.795792	city	6	1	0.748672	0.748672	0	1	0	0	CorrectCommission	0.308994	0.691763	0
559.116516	0.795778	city	5	1	0.797727	0.797727	0	1	0	0	CorrectCommission	0.152390	0.708661	0
559.912292	0.795807	city	8	1	0.861900	0.861900	0	1	0	0	CorrectCommission	0.755973	0.720997	0
560.708069	0.795812	city	7	1	0.996697	0.996697	0	1	0	0	CorrectCommission	2.023820	0.727806	0
561.503906	0.795787	city	6	1	0.902617	0.902617	0	1	0	0	CorrectCommission	1.138939	0.728537	0
562.299622	0.795730	city	7	1	0.897209	0.897209	0	1	0	0	CorrectCommission	1.088079	0.723266	0
563.095581	0.796150	city	1	1	0.897449	0.897449	0	1	0	0	CorrectCommission	1.090336	0.712547	0
563.891418	0.795549	city	5	1	0.847270	0.847270	0	1	0	0	CorrectCommission	0.618375	0.697392	0
564.687073	0.795761	city	1	1	0.797780	0.797780	0	1	0	0	CorrectCommission	0.152891	0.679148	0
565.482849	0.795805	city	4	1	0.847539	0.847539	0	1	0	0	CorrectCommission	0.620904	0.659276	0
566.278687	0.795782	city	1	1	0.803512	0.803512	0	1	0	0	CorrectCommission	0.206804	0.639119	1
567.074585	0.796103	city	10	1	0.847640	0.847640	0	1	0	0	CorrectCommission	0.621856	0.619835	1
567.870422	0.795467	city	3	1	0.811174	0.811174	0	1	0	0	CorrectCommission	0.278873	0.602216	1
568.666016	0.795808	city	8	1	0.847804	0.847804	0	1	0	0	CorrectCommission	0.623397	0.586694	1
569.461853	0.795871	city	2	1	0.705058	0.705058	0	1	0	0	CorrectCommission	0.719214	0.573323	1
570.257690	0.795802	city	1	1	0.848318	0.848318	0	1	0	0	CorrectCommission	0.628230	0.561933	1
571.053528	0.795789	city	7	1	0.847575	0.847575	0	1	0	0	CorrectCommission	0.621242	0.552247	1
571.849426	0.796077	mountain	6	0	0.000000	0.847191	1	0	0	0	CorrectOmission	0.617624	0.544004	1
572.645203	0.795472	city	7	1	0.847194	0.847194	0	1	0	0	CorrectCommission	0.617661	0.537030	1
573.440857	0.795798	city	2	1	0.847617	0.847617	0	1	0	0	CorrectCommission	0.621637	0.531369	1
574.236694	0.795885	city	8	1	0.798148	0.798148	0	1	0	0	CorrectCommission	0.156352	0.527311	1
575.032532	0.795766	city	1	1	0.847856	0.847856	0	1	0	0	CorrectCommission	0.623886	0.525303	1
575.828247	0.795749	city	3	1	0.699583	0.699583	0	1	0	0	CorrectCommission	0.770704	0.525869	1
576.624084	0.795888	city	8	1	0.762185	0.762185	0	1	0	0	CorrectCommission	0.181905	0.529530	1
577.419922	0.795788	city	7	1	0.847610	0.847610	0	1	0	0	CorrectCommission	0.621568	0.536677	1
578.215881	0.796074	city	8	1	0.815251	0.815251	0	1	0	0	CorrectCommission	0.317214	0.547358	1
579.011780	0.795784	city	2	1	0.749100	0.749100	0	1	0	0	CorrectCommission	0.304969	0.561297	1
579.807434	0.795467	city	7	1	0.749293	0.749293	0	1	0	0	CorrectCommission	0.303158	0.577821	1
580.603027	0.795797	city	9	1	0.708366	0.708366	0	1	0	0	CorrectCommission	0.688103	0.595824	1
581.398865	0.795808	city	6	1	0.807734	0.807734	0	1	0	0	CorrectCommission	0.246509	0.613877	1
582.194702	0.795849	mountain	6	0	0.000000	0.872682	1	0	0	0	CorrectOmission	0.857384	0.630409	1
582.990479	0.795771	city	1	1	0.903879	0.903879	0	1	0	0	CorrectCommission	1.150807	0.643763	1
583.786316	0.795828	city	2	1	0.901992	0.901992	0	1	0	0	CorrectCommission	1.133063	0.652460	0
584.582153	0.795905	city	7	1	0.798047	0.798047	0	1	0	0	CorrectCommission	0.155404	0.655343	0
585.377930	0.795704	city	10	1	0.898191	0.898191	0	1	0	0	CorrectCommission	1.097316	0.651729	0
586.173706	0.795844	mountain	3	0	0.000000	0.881838	1	0	0	0	CorrectOmission	0.943504	0.641378	1
586.969543	0.795795	city	7	1	0.848370	0.848370	0	1	0	0	CorrectCommission	0.628721	0.624620	1
587.765320	0.795787	city	6	1	0.897171	0.897171	0	1	0	0	CorrectCommission	1.087720	0.602310	1
588.561096	0.795726	city	4	1	0.798223	0.798223	0	1	0	0	CorrectCommission	0.157054	0.575644	1
589.356934	0.795888	mountain	10	1	0.665134	0.665134	0	0	1	0	CommissionError	1.094719	0.546173	1
590.152710	0.795730	city	1	1	0.748032	0.748032	0	1	0	0	CorrectCommission	0.315014	0.515496	1
590.948486	0.795838	city	8	1	0.797904	0.797904	0	1	0	0	CorrectCommission	0.154060	0.485261	1
591.744507	0.796118	city	2	1	0.761675	0.761675	0	1	0	0	CorrectCommission	0.186699	0.456999	1
592.540283	0.795505	city	6	1	0.798358	0.798358	0	1	0	0	CorrectCommission	0.158324	0.432041	1
593.335938	0.795786	city	1	1	0.748037	0.748037	0	1	0	0	CorrectCommission	0.314970	0.411489	1
594.131714	0.795757	city	3	1	0.798136	0.798136	0	1	0	0	CorrectCommission	0.156235	0.396243	1
594.927490	0.795837	city	1	1	0.655909	0.655909	0	1	0	0	CorrectCommission	1.181486	0.387074	1
595.723328	0.795757	city	5	1	0.797831	0.797831	0	1	0	0	CorrectCommission	0.153372	0.384586	1
596.519104	0.795871	city	6	1	0.798075	0.798075	0	1	0	0	CorrectCommission	0.155665	0.389438	1
597.314941	0.795779	city	9	1	0.755006	0.755006	0	1	0	0	CorrectCommission	0.249427	0.402237	1
598.110718	0.795790	mountain	4	0	0.000000	0.763901	1	0	0	0	CorrectOmission	0.165763	0.423561	1
598.906555	0.795844	city	2	1	0.804411	0.804411	0	1	0	0	CorrectCommission	0.215255	0.453959	1
599.702332	0.795786	city	4	1	0.856185	0.856185	0	1	0	0	CorrectCommission	0.702223	0.493879	1
600.498291	0.796106	city	7	1	0.797757	0.797757	0	1	0	0	CorrectCommission	0.152676	0.543591	1
601.294067	0.795484	city	4	1	0.797455	0.797455	0	1	0	0	CorrectCommission	0.149833	0.603165	1
602.089722	0.795769	city	7	1	0.748134	0.748134	0	1	0	0	CorrectCommission	0.314058	0.672414	0
602.885498	0.795814	city	1	1	0.649012	0.649012	0	1	0	0	CorrectCommission	1.246360	0.750806	0
603.681335	0.795835	city	3	1	0.748045	0.748045	0	1	0	0	CorrectCommission	0.314892	0.837427	0
604.477295	0.796094	city	4	1	0.657368	0.657368	0	1	0	0	CorrectCommission	1.167762	0.931150	0
605.273132	0.795545	city	9	1	0.698371	0.698371	0	1	0	0	CorrectCommission	0.782111	1.030450	0
606.068787	0.795795	city	4	1	0.847525	0.847525	0	1	0	0	CorrectCommission	0.620772	1.133643	0
606.864563	0.795793	city	10	1	0.649812	0.649812	0	1	0	0	CorrectCommission	1.238829	1.238829	0
