onset	duration	trial_type	image_type	Press	ReactionTime	ReactionTime_Interpolated	CorrectOmission	CorrectCommission	CommissionError	OmissionError	response_type	nonsmoothVarianceTimeCourse	VarianceTimeCourse	In_the_Zone
8.421679	0.795787	mountain	2	1	0.599762	0.599762	0	0	1	0	CommissionError	1.195968	1.195968	0
9.217488	0.795834	city	9	1	0.558123	0.558123	0	1	0	0	CorrectCommission	1.416520	1.179878	0
10.013304	0.795797	city	2	1	0.499730	0.499730	0	1	0	0	CorrectCommission	1.725809	1.163376	0
10.809115	0.795826	city	5	1	0.549160	0.549160	0	1	0	0	CorrectCommission	1.463991	1.146083	0
11.604919	0.795782	city	6	1	0.866161	0.866161	0	1	0	0	CorrectCommission	0.215075	1.127694	0
12.400860	0.796098	city	2	1	0.600492	0.600492	0	1	0	0	CorrectCommission	1.192102	1.108039	0
13.196652	0.795487	city	5	1	0.563589	0.563589	0	1	0	0	CorrectCommission	1.387569	1.086995	0
13.992316	0.795842	city	9	1	0.599869	0.599869	0	1	0	0	CorrectCommission	1.195400	1.064518	0
14.788124	0.795773	city	7	1	0.648662	0.648662	0	1	0	0	CorrectCommission	0.936958	1.040654	0
15.583886	0.795751	city	1	1	0.608778	0.608778	0	1	0	0	CorrectCommission	1.148216	1.015461	0
16.379677	0.795831	city	9	1	0.617638	0.617638	0	1	0	0	CorrectCommission	1.101285	0.989005	0
17.175508	0.795832	city	3	1	0.649484	0.649484	0	1	0	0	CorrectCommission	0.932604	0.961362	0
17.971325	0.795802	city	1	1	0.699033	0.699033	0	1	0	0	CorrectCommission	0.670158	0.932611	0
18.767139	0.795827	city	6	1	0.797992	0.797992	0	1	0	0	CorrectCommission	0.145996	0.902874	0
19.562941	0.795776	mountain	5	1	0.549854	0.549854	0	0	1	0	CommissionError	1.460319	0.872323	0
20.358875	0.796094	city	3	1	0.550000	0.550000	0	1	0	0	CorrectCommission	1.459544	0.841190	0
21.154682	0.795518	city	7	1	0.599462	0.599462	0	1	0	0	CorrectCommission	1.197559	0.809875	1
21.950331	0.795781	city	8	1	0.748340	0.748340	0	1	0	0	CorrectCommission	0.408992	0.778972	1
22.746109	0.795774	city	9	1	0.847805	0.847805	0	1	0	0	CorrectCommission	0.117848	0.749209	1
23.542061	0.796129	city	6	1	0.658639	0.658639	0	1	0	0	CorrectCommission	0.884114	0.721462	1
24.337898	0.795546	city	7	1	0.599386	0.599386	0	1	0	0	CorrectCommission	1.197959	0.696640	1
25.133575	0.795809	city	4	1	0.748276	0.748276	0	1	0	0	CorrectCommission	0.409330	0.675606	1
25.929369	0.795777	city	1	1	0.797904	0.797904	0	1	0	0	CorrectCommission	0.146462	0.659122	1
26.725155	0.795797	city	9	1	0.748093	0.748093	0	1	0	0	CorrectCommission	0.410298	0.647699	1
27.521099	0.796090	city	5	1	0.698335	0.698335	0	1	0	0	CorrectCommission	0.673852	0.641513	1
28.316914	0.795539	city	2	1	1.046493	1.046493	0	1	0	0	CorrectCommission	1.170243	0.640356	1
29.112711	0.796056	city	5	1	0.847459	0.847459	0	1	0	0	CorrectCommission	0.116013	0.643652	1
29.908503	0.795524	city	7	1	0.803300	0.803300	0	1	0	0	CorrectCommission	0.117883	0.650505	1
30.704290	0.796054	city	8	1	0.951005	0.951005	0	1	0	0	CorrectCommission	0.664472	0.659690	1
31.500107	0.795576	mountain	5	0	0.000000	0.982706	1	0	0	0	CorrectOmission	0.832384	0.669786	1
32.295792	0.795799	city	9	1	0.960632	0.960632	0	1	0	0	CorrectCommission	0.715460	0.679389	1
33.091564	0.795744	city	5	1	0.947009	0.947009	0	1	0	0	CorrectCommission	0.643305	0.687242	1
33.887348	0.795820	city	10	1	1.047178	1.047178	0	1	0	0	CorrectCommission	1.173871	0.692410	1
34.683140	0.795764	city	5	1	0.997980	0.997980	0	1	0	0	CorrectCommission	0.913286	0.694366	1
35.478962	0.795882	city	9	1	1.062897	1.062897	0	1	0	0	CorrectCommission	1.257132	0.693084	1
36.274803	0.795798	city	6	1	0.757503	0.757503	0	1	0	0	CorrectCommission	0.360458	0.689041	1
37.070553	0.795705	city	1	1	0.666457	0.666457	0	1	0	0	CorrectCommission	0.842703	0.683143	1
37.866478	0.796145	city	10	1	0.897624	0.897624	0	1	0	0	CorrectCommission	0.381728	0.676589	1
38.662289	0.795473	city	3	1	0.946754	0.946754	0	1	0	0	CorrectCommission	0.641956	0.670773	1
39.458092	0.796135	city	6	1	0.996844	0.996844	0	1	0	0	CorrectCommission	0.907268	0.667057	1
40.253883	0.795444	city	2	1	0.866203	0.866203	0	1	0	0	CorrectCommission	0.215295	0.666613	1
41.049538	0.795866	city	6	1	0.861992	0.861992	0	1	0	0	CorrectCommission	0.192994	0.670280	1
41.845509	0.796078	mountain	9	0	0.000000	0.746013	1	0	0	0	CorrectOmission	0.421319	0.678420	1
42.641460	0.795825	city	3	1	0.648605	0.648605	0	1	0	0	CorrectCommission	0.937259	0.690876	1
43.437134	0.795524	city	5	1	0.700112	0.700112	0	1	0	0	CorrectCommission	0.664440	0.706957	1
44.232780	0.795766	city	4	1	0.698389	0.698389	0	1	0	0	CorrectCommission	0.673566	0.725534	1
45.028713	0.796103	city	9	1	0.610858	0.610858	0	1	0	0	CorrectCommission	1.137198	0.745050	1
45.824497	0.795464	city	10	1	0.648291	0.648291	0	1	0	0	CorrectCommission	0.938922	0.763670	1
46.620132	0.795806	city	9	1	0.797971	0.797971	0	1	0	0	CorrectCommission	0.146109	0.779467	1
47.415936	0.795796	city	6	1	0.903768	0.903768	0	1	0	0	CorrectCommission	0.414268	0.790603	1
48.211781	0.795897	city	10	1	0.701761	0.701761	0	1	0	0	CorrectCommission	0.655707	0.795455	1
49.007629	0.795800	city	6	0	0.000000	0.518540	0	0	0	1	OmissionError	1.626179	0.792850	1
49.803375	0.795698	city	7	1	0.454332	0.454332	0	1	0	0	CorrectCommission	1.966274	0.782170	1
50.599174	0.795899	city	3	1	0.609363	0.609363	0	1	0	0	CorrectCommission	1.145117	0.763547	1
51.394978	0.795702	city	1	1	0.648653	0.648653	0	1	0	0	CorrectCommission	0.937007	0.737873	1
52.190739	0.795821	city	6	1	0.797988	0.797988	0	1	0	0	CorrectCommission	0.146018	0.706750	1
52.986721	0.796145	mountain	6	0	0.000000	0.937280	1	0	0	0	CorrectOmission	0.591771	0.672397	1
53.782543	0.795500	city	9	1	0.946875	0.946875	0	1	0	0	CorrectCommission	0.642597	0.637426	1
54.578217	0.795848	city	7	1	0.707124	0.707124	0	1	0	0	CorrectCommission	0.627303	0.604646	1
55.374020	0.795758	mountain	10	0	0.000000	0.767082	1	0	0	0	CorrectOmission	0.309721	0.576796	1
56.169819	0.795840	city	8	1	0.855018	0.855018	0	1	0	0	CorrectCommission	0.156054	0.556292	1
56.965611	0.795746	city	7	1	0.699201	0.699201	0	1	0	0	CorrectCommission	0.669266	0.545019	1
57.761551	0.796129	city	2	1	0.798106	0.798106	0	1	0	0	CorrectCommission	0.145394	0.544163	1
58.557358	0.795491	city	3	1	0.810832	0.810832	0	1	0	0	CorrectCommission	0.077987	0.554123	1
59.353001	0.795791	city	4	1	0.947008	0.947008	0	1	0	0	CorrectCommission	0.643299	0.574430	1
60.148800	0.795811	mountain	6	0	0.000000	0.821418	1	0	0	0	CorrectOmission	0.021916	0.603769	1
60.944756	0.796096	city	1	1	0.698376	0.698376	0	1	0	0	CorrectCommission	0.673636	0.640109	1
61.740562	0.795518	mountain	3	0	0.000000	0.842196	1	0	0	0	CorrectOmission	0.088138	0.680836	1
62.536194	0.795743	city	9	1	0.911608	0.911608	0	1	0	0	CorrectCommission	0.455794	0.723041	1
63.331982	0.795835	city	3	1	0.565343	0.565343	0	1	0	0	CorrectCommission	1.378279	0.763718	1
64.127823	0.795845	mountain	10	0	0.000000	0.459687	1	0	0	0	CorrectOmission	1.937909	0.800112	1
64.923630	0.795769	city	1	1	0.613707	0.613707	0	1	0	0	CorrectCommission	1.122105	0.829929	0
65.719566	0.796110	city	4	1	1.046470	1.046470	0	1	0	0	CorrectCommission	1.170123	0.851601	0
66.515381	0.795510	city	5	1	0.747758	0.747758	0	1	0	0	CorrectCommission	0.412072	0.864358	0
67.311035	0.795808	city	1	1	0.918393	0.918393	0	1	0	0	CorrectCommission	0.491734	0.868322	0
68.106979	0.796070	city	10	1	1.049024	1.049024	0	1	0	0	CorrectCommission	1.183653	0.864459	0
68.902748	0.795481	city	7	1	1.050655	1.050655	0	1	0	0	CorrectCommission	1.192289	0.854503	0
69.698395	0.795806	city	5	1	1.196688	1.196688	0	1	0	0	CorrectCommission	1.965786	0.840821	0
70.494217	0.795834	city	8	0	0.000000	1.022028	0	0	0	1	OmissionError	1.040662	0.826069	0
71.290001	0.795742	city	9	1	0.798540	0.798540	0	1	0	0	CorrectCommission	0.143095	0.813007	1
72.085938	0.796132	city	5	1	0.798087	0.798087	0	1	0	0	CorrectCommission	0.145496	0.804114	1
72.881790	0.795572	city	3	1	0.910788	0.910788	0	1	0	0	CorrectCommission	0.451453	0.801282	1
73.677460	0.795766	city	10	1	0.798069	0.798069	0	1	0	0	CorrectCommission	0.145592	0.805511	1
74.473381	0.796071	city	5	1	0.912267	0.912267	0	1	0	0	CorrectCommission	0.459284	0.816871	0
75.269173	0.795522	city	6	1	1.100556	1.100556	0	1	0	0	CorrectCommission	1.456602	0.834375	0
76.064857	0.795841	city	1	0	0.000000	0.881295	0	0	0	1	OmissionError	0.295235	0.856138	0
76.860641	0.795723	city	8	1	0.698688	0.698688	0	1	0	0	CorrectCommission	0.671987	0.879684	0
77.656425	0.795851	city	4	1	0.996939	0.996939	0	1	0	0	CorrectCommission	0.907770	0.902185	0
78.452393	0.796078	city	9	1	0.965142	0.965142	0	1	0	0	CorrectCommission	0.739349	0.920862	0
79.248207	0.795562	city	2	1	1.196145	1.196145	0	1	0	0	CorrectCommission	1.962910	0.933421	0
80.043877	0.795768	city	9	0	0.000000	1.135323	0	0	0	1	OmissionError	1.640751	0.938222	0
80.839798	0.796077	city	8	1	1.047208	1.047208	0	1	0	0	CorrectCommission	1.174032	0.934586	0
81.635590	0.795504	city	6	1	1.196334	1.196334	0	1	0	0	CorrectCommission	1.963913	0.922777	0
82.431267	0.795852	city	1	0	0.000000	1.037723	0	0	0	1	OmissionError	1.123793	0.903868	0
83.227074	0.795762	city	8	1	0.798327	0.798327	0	1	0	0	CorrectCommission	0.144226	0.879570	0
84.022850	0.795795	city	6	1	0.705096	0.705096	0	1	0	0	CorrectCommission	0.638041	0.851926	0
84.818657	0.795825	city	1	1	0.717027	0.717027	0	1	0	0	CorrectCommission	0.574849	0.822808	0
85.614441	0.795740	city	6	1	0.848426	0.848426	0	1	0	0	CorrectCommission	0.121137	0.793791	1
86.410248	0.795871	city	2	1	0.854776	0.854776	0	1	0	0	CorrectCommission	0.154773	0.765912	1
87.206230	0.796089	city	5	1	0.714289	0.714289	0	1	0	0	CorrectCommission	0.589352	0.739609	1
88.002029	0.795510	city	4	1	1.149464	1.149464	0	1	0	0	CorrectCommission	1.715654	0.714845	1
88.797653	0.795738	city	9	0	0.000000	0.861210	0	0	0	1	OmissionError	0.188852	0.691258	1
89.593460	0.795879	city	7	1	0.499759	0.499759	0	1	0	0	CorrectCommission	1.725655	0.668516	1
90.389305	0.795805	city	9	1	0.715343	0.715343	0	1	0	0	CorrectCommission	0.583766	0.646287	1
91.185081	0.795749	city	6	1	0.702149	0.702149	0	1	0	0	CorrectCommission	0.653654	0.624665	1
91.981003	0.796102	city	9	1	0.699203	0.699203	0	1	0	0	CorrectCommission	0.669254	0.604052	1
92.776970	0.795823	city	7	1	0.752363	0.752363	0	1	0	0	CorrectCommission	0.387680	0.585133	1
93.572601	0.795441	city	3	1	0.768537	0.768537	0	1	0	0	CorrectCommission	0.302012	0.568838	1
94.368233	0.795828	city	4	1	0.996832	0.996832	0	1	0	0	CorrectCommission	0.907205	0.556069	1
95.164055	0.795818	city	10	1	0.847534	0.847534	0	1	0	0	CorrectCommission	0.116411	0.547509	1
95.959885	0.795836	city	8	1	0.849866	0.849866	0	1	0	0	CorrectCommission	0.128767	0.543541	1
96.755836	0.796071	city	2	1	0.798038	0.798038	0	1	0	0	CorrectCommission	0.145757	0.544018	1
97.551636	0.795522	city	3	1	0.799975	0.799975	0	1	0	0	CorrectCommission	0.135496	0.548296	1
98.347275	0.795764	city	6	1	0.866183	0.866183	0	1	0	0	CorrectCommission	0.215194	0.555381	1
99.143089	0.795857	city	5	1	1.147386	1.147386	0	1	0	0	CorrectCommission	1.704649	0.564012	1
99.938896	0.795763	city	9	0	0.000000	0.861472	0	0	0	1	OmissionError	0.190241	0.572886	1
100.734825	0.796087	city	2	1	0.549098	0.549098	0	1	0	0	CorrectCommission	1.464322	0.581058	1
101.530594	0.795464	city	4	1	0.750919	0.750919	0	1	0	0	CorrectCommission	0.395330	0.587842	1
102.326416	0.796173	city	8	1	0.699167	0.699167	0	1	0	0	CorrectCommission	0.669448	0.593105	1
103.122391	0.795771	city	2	1	0.648209	0.648209	0	1	0	0	CorrectCommission	0.939359	0.597145	1
103.918030	0.795519	city	8	1	0.897062	0.897062	0	1	0	0	CorrectCommission	0.378749	0.600697	1
104.713852	0.796115	city	6	1	0.965585	0.965585	0	1	0	0	CorrectCommission	0.741699	0.604749	1
105.509804	0.795791	city	3	1	0.847285	0.847285	0	1	0	0	CorrectCommission	0.115092	0.610250	1
106.305603	0.795802	city	4	1	0.947156	0.947156	0	1	0	0	CorrectCommission	0.644086	0.618117	1
107.101250	0.795491	city	6	1	0.900693	0.900693	0	1	0	0	CorrectCommission	0.397980	0.628941	1
107.896896	0.795810	city	7	1	0.847807	0.847807	0	1	0	0	CorrectCommission	0.117856	0.642992	1
108.692680	0.795765	city	3	1	0.897369	0.897369	0	1	0	0	CorrectCommission	0.380375	0.660128	1
109.488632	0.796136	city	9	1	0.752620	0.752620	0	1	0	0	CorrectCommission	0.386319	0.679895	1
110.284424	0.795448	city	6	1	0.610563	0.610563	0	1	0	0	CorrectCommission	1.138757	0.701600	1
111.080063	0.795827	mountain	2	0	0.000000	0.522996	1	0	0	0	CorrectOmission	1.602579	0.724434	1
111.875908	0.795858	city	10	1	0.549214	0.549214	0	1	0	0	CorrectCommission	1.463707	0.747539	1
112.671722	0.795772	city	4	1	0.748515	0.748515	0	1	0	0	CorrectCommission	0.408063	0.770144	1
113.467514	0.795808	city	10	1	0.713854	0.713854	0	1	0	0	CorrectCommission	0.591656	0.791542	1
114.263474	0.796111	city	6	1	0.798634	0.798634	0	1	0	0	CorrectCommission	0.142597	0.811042	1
115.059258	0.795463	city	10	1	0.865921	0.865921	0	1	0	0	CorrectCommission	0.213803	0.827925	0
115.854889	0.795799	city	6	1	1.050901	1.050901	0	1	0	0	CorrectCommission	1.193593	0.841481	0
116.650688	0.795797	mountain	8	0	0.000000	1.072173	1	0	0	0	CorrectOmission	1.306264	0.850912	0
117.446518	0.795864	city	4	1	1.010767	1.010767	0	1	0	0	CorrectCommission	0.981012	0.855560	0
118.242340	0.795786	city	9	1	0.947713	0.947713	0	1	0	0	CorrectCommission	0.647034	0.854923	0
119.038124	0.795782	city	8	1	1.201567	1.201567	0	1	0	0	CorrectCommission	1.991632	0.848819	0
119.833893	0.795757	city	7	0	0.000000	1.071522	0	0	0	1	OmissionError	1.302819	0.837338	0
120.629692	0.795834	city	2	1	0.847651	0.847651	0	1	0	0	CorrectCommission	0.117033	0.821077	0
121.425537	0.795857	city	5	1	0.820026	0.820026	0	1	0	0	CorrectCommission	0.029288	0.801106	1
122.221352	0.795767	city	6	1	1.158725	1.158725	0	1	0	0	CorrectCommission	1.764708	0.778765	1
123.017105	0.795748	city	4	0	0.000000	1.081128	0	0	0	1	OmissionError	1.353695	0.755659	1
123.812920	0.795879	mountain	6	0	0.000000	0.832668	1	0	0	0	CorrectOmission	0.037669	0.733493	1
124.608765	0.795814	mountain	1	1	0.658778	0.658778	0	0	1	0	CommissionError	0.883375	0.713953	1
125.404564	0.795787	city	3	1	0.804894	0.804894	0	1	0	0	CorrectCommission	0.109442	0.698403	1
126.200325	0.795728	city	8	1	0.704183	0.704183	0	1	0	0	CorrectCommission	0.642881	0.687840	1
126.996124	0.795867	city	2	1	0.847741	0.847741	0	1	0	0	CorrectCommission	0.117511	0.682730	1
127.792099	0.796090	city	8	1	0.897236	0.897236	0	1	0	0	CorrectCommission	0.379668	0.683057	1
128.588043	0.795805	city	10	1	0.763257	0.763257	0	1	0	0	CorrectCommission	0.329979	0.688254	1
129.383698	0.795485	city	9	1	1.146461	1.146461	0	1	0	0	CorrectCommission	1.699748	0.697404	1
130.179321	0.795761	city	3	0	0.000000	0.870327	0	0	0	1	OmissionError	0.237141	0.709274	1
130.975266	0.796131	city	2	1	0.598981	0.598981	0	1	0	0	CorrectCommission	1.200104	0.722614	1
131.771088	0.795519	city	6	1	0.996549	0.996549	0	1	0	0	CorrectCommission	0.905707	0.736120	1
132.566742	0.795807	city	3	1	0.748391	0.748391	0	1	0	0	CorrectCommission	0.408719	0.748677	1
133.362564	0.795808	city	4	1	0.996877	0.996877	0	1	0	0	CorrectCommission	0.907442	0.759360	1
134.158508	0.796083	city	3	1	0.601236	0.601236	0	1	0	0	CorrectCommission	1.188160	0.767456	1
134.954269	0.795454	city	1	1	0.813009	0.813009	0	1	0	0	CorrectCommission	0.066456	0.772528	1
135.749924	0.795862	city	10	1	0.698432	0.698432	0	1	0	0	CorrectCommission	0.673338	0.774452	1
136.545761	0.795801	city	4	1	1.103519	1.103519	0	1	0	0	CorrectCommission	1.472299	0.773221	1
137.341537	0.795748	city	5	0	0.000000	0.797628	0	0	0	1	OmissionError	0.147925	0.769009	1
138.137344	0.795881	city	4	1	0.456265	0.456265	0	1	0	0	CorrectCommission	1.956032	0.762199	1
138.933334	0.796077	city	7	1	0.754938	0.754938	0	1	0	0	CorrectCommission	0.374041	0.753117	1
139.729248	0.795772	city	1	1	0.648563	0.648563	0	1	0	0	CorrectCommission	0.937481	0.742129	1
140.524918	0.795565	city	5	1	0.648582	0.648582	0	1	0	0	CorrectCommission	0.937384	0.729420	1
141.320587	0.795777	city	6	1	0.798602	0.798602	0	1	0	0	CorrectCommission	0.142765	0.715047	1
142.116394	0.795826	city	9	1	0.847520	0.847520	0	1	0	0	CorrectCommission	0.116338	0.698857	1
142.912186	0.795754	city	10	1	0.996963	0.996963	0	1	0	0	CorrectCommission	0.907897	0.680497	1
143.707993	0.795852	city	8	0	0.000000	0.782634	0	0	0	1	OmissionError	0.227343	0.659453	1
144.503799	0.795786	city	4	1	0.563844	0.563844	0	1	0	0	CorrectCommission	1.386219	0.635282	1
145.299728	0.796050	city	8	1	0.699901	0.699901	0	1	0	0	CorrectCommission	0.665561	0.607638	1
146.095520	0.795537	city	6	1	0.656801	0.656801	0	1	0	0	CorrectCommission	0.893851	0.576542	1
146.891190	0.795795	city	1	1	0.652611	0.652611	0	1	0	0	CorrectCommission	0.916044	0.542367	1
147.686996	0.795844	city	5	1	0.650506	0.650506	0	1	0	0	CorrectCommission	0.927193	0.506051	1
148.482803	0.795752	city	7	1	0.748102	0.748102	0	1	0	0	CorrectCommission	0.410250	0.468977	1
149.278580	0.795794	city	10	1	0.798090	0.798090	0	1	0	0	CorrectCommission	0.145478	0.432952	1
150.074387	0.795831	city	2	1	0.813852	0.813852	0	1	0	0	CorrectCommission	0.061993	0.400011	1
150.870209	0.795821	city	10	1	0.800937	0.800937	0	1	0	0	CorrectCommission	0.130401	0.372247	1
151.666016	0.795789	city	1	1	0.803215	0.803215	0	1	0	0	CorrectCommission	0.118332	0.351568	1
152.461807	0.795794	city	3	1	0.797817	0.797817	0	1	0	0	CorrectCommission	0.146923	0.339566	1
153.257584	0.795759	city	9	1	0.798855	0.798855	0	1	0	0	CorrectCommission	0.141426	0.337373	1
154.053360	0.795774	city	5	1	0.804059	0.804059	0	1	0	0	CorrectCommission	0.113860	0.345562	1
154.849197	0.795899	mountain	7	1	0.814429	0.814429	0	0	1	0	CommissionError	0.058933	0.364179	1
155.645004	0.795720	city	9	1	0.749051	0.749051	0	1	0	0	CorrectCommission	0.405226	0.392709	1
156.440918	0.796127	city	4	1	0.847911	0.847911	0	1	0	0	CorrectCommission	0.118408	0.430231	1
157.236771	0.795554	city	8	1	0.897083	0.897083	0	1	0	0	CorrectCommission	0.378860	0.475452	1
158.032425	0.795763	city	4	1	0.897495	0.897495	0	1	0	0	CorrectCommission	0.381041	0.526783	1
158.828217	0.795817	city	10	1	0.947149	0.947149	0	1	0	0	CorrectCommission	0.644047	0.582547	1
159.624023	0.795820	city	9	1	0.996832	0.996832	0	1	0	0	CorrectCommission	0.907203	0.641002	1
160.419800	0.795704	city	5	1	1.096228	1.096228	0	1	0	0	CorrectCommission	1.433678	0.700371	1
161.215591	0.795907	city	1	1	0.901991	0.901991	0	1	0	0	CorrectCommission	0.404856	0.758986	1
162.011444	0.795777	city	5	1	0.798019	0.798019	0	1	0	0	CorrectCommission	0.145856	0.815273	0
162.807358	0.796073	mountain	4	0	0.000000	0.952547	1	0	0	0	CorrectOmission	0.672639	0.867820	0
163.603180	0.795549	city	4	1	0.996716	0.996716	0	1	0	0	CorrectCommission	0.906589	0.915339	0
164.398987	0.796067	city	1	1	0.561664	0.561664	0	1	0	0	CorrectCommission	1.397761	0.956788	0
165.194778	0.795510	city	7	1	1.046402	1.046402	0	1	0	0	CorrectCommission	1.169762	0.991416	0
165.990448	0.795834	city	1	1	1.245583	1.245583	0	1	0	0	CorrectCommission	2.224771	1.018769	0
166.786270	0.795805	mountain	1	0	0.000000	1.151187	1	0	0	0	CorrectOmission	1.724779	1.038697	0
167.582047	0.795774	mountain	2	0	0.000000	0.917490	1	0	0	0	CorrectOmission	0.486953	1.051343	0
168.377838	0.795786	city	3	1	0.698772	0.698772	0	1	0	0	CorrectCommission	0.671540	1.057112	0
169.173645	0.795834	city	8	1	0.649309	0.649309	0	1	0	0	CorrectCommission	0.933533	1.056457	0
169.969589	0.796067	city	9	1	0.748082	0.748082	0	1	0	0	CorrectCommission	0.410359	1.049944	0
170.765396	0.795529	city	2	0	0.000000	0.589537	0	0	0	1	OmissionError	1.250129	1.038235	0
171.561066	0.795820	city	9	1	0.449695	0.449695	0	1	0	0	CorrectCommission	1.990834	1.022014	0
172.356857	0.795772	city	8	1	0.604577	0.604577	0	1	0	0	CorrectCommission	1.170464	1.002090	0
173.152802	0.796097	city	5	1	0.897518	0.897518	0	1	0	0	CorrectCommission	0.381164	0.979510	0
173.948563	0.795434	mountain	2	0	0.000000	1.069874	1	0	0	0	CorrectOmission	1.294090	0.955602	0
174.744354	0.796145	mountain	10	0	0.000000	1.095215	1	0	0	0	CorrectOmission	1.428312	0.931828	0
175.540192	0.795523	city	7	1	0.947108	0.947108	0	1	0	0	CorrectCommission	0.643829	0.909891	0
176.335846	0.795806	city	10	1	0.599122	0.599122	0	1	0	0	CorrectCommission	1.199360	0.891569	0
177.131622	0.795726	city	9	1	0.898090	0.898090	0	1	0	0	CorrectCommission	0.384192	0.878525	0
177.927414	0.795867	city	8	1	0.650322	0.650322	0	1	0	0	CorrectCommission	0.928165	0.872118	0
178.723389	0.796089	city	6	1	0.797858	0.797858	0	1	0	0	CorrectCommission	0.146710	0.873169	0
179.519348	0.795821	city	10	1	0.847936	0.847936	0	1	0	0	CorrectCommission	0.118540	0.881903	0
180.314972	0.795441	city	9	1	1.050027	1.050027	0	1	0	0	CorrectCommission	1.188965	0.897751	0
181.110596	0.795795	city	8	0	0.000000	0.828606	0	0	0	1	OmissionError	0.016156	0.919381	0
181.906570	0.796146	city	3	1	0.566943	0.566943	0	1	0	0	CorrectCommission	1.369804	0.944955	0
182.702393	0.795521	city	7	1	0.648307	0.648307	0	1	0	0	CorrectCommission	0.938836	0.972114	0
183.498047	0.795766	city	5	1	1.149096	1.149096	0	1	0	0	CorrectCommission	1.713706	0.998372	0
184.293839	0.795832	city	10	0	0.000000	0.947840	0	0	0	1	OmissionError	0.647709	1.021315	0
185.089645	0.795788	city	6	1	0.549226	0.549226	0	1	0	0	CorrectCommission	1.463645	1.038973	0
185.885590	0.796102	city	7	0	0.000000	0.457938	0	0	0	1	OmissionError	1.947173	1.049859	0
186.681564	0.795826	city	5	1	0.549173	0.549173	0	1	0	0	CorrectCommission	1.463923	1.053134	0
187.477219	0.795501	city	9	1	0.698130	0.698130	0	1	0	0	CorrectCommission	0.674942	1.048654	0
188.272873	0.795792	city	5	1	0.699044	0.699044	0	1	0	0	CorrectCommission	0.670101	1.036852	0
189.068649	0.795769	city	6	1	1.146016	1.146016	0	1	0	0	CorrectCommission	1.697393	1.018601	0
189.864471	0.795859	city	4	1	0.903566	0.903566	0	1	0	0	CorrectCommission	0.413198	0.995048	0
190.660263	0.795748	city	1	1	1.003583	1.003583	0	1	0	0	CorrectCommission	0.942964	0.967620	0
191.456070	0.795871	city	8	0	0.000000	0.715692	0	0	0	1	OmissionError	0.581920	0.937679	0
192.251907	0.795791	city	1	1	0.449662	0.449662	0	1	0	0	CorrectCommission	1.991010	0.906580	0
193.047699	0.795788	city	10	1	0.615262	0.615262	0	1	0	0	CorrectCommission	1.113867	0.875530	0
193.843475	0.795782	city	5	1	0.897357	0.897357	0	1	0	0	CorrectCommission	0.380314	0.845601	0
194.639297	0.795850	mountain	3	0	0.000000	0.908540	1	0	0	0	CorrectOmission	0.439543	0.817742	0
195.435120	0.795796	city	7	1	0.847835	0.847835	0	1	0	0	CorrectCommission	0.118008	0.792688	1
196.231049	0.796064	city	4	1	0.914271	0.914271	0	1	0	0	CorrectCommission	0.469900	0.771010	1
197.026978	0.795777	city	2	1	1.196062	1.196062	0	1	0	0	CorrectCommission	1.962471	0.753174	1
197.822632	0.795536	city	4	0	0.000000	1.010683	0	0	0	1	OmissionError	0.980569	0.739388	1
198.618301	0.795812	mountain	6	1	0.748063	0.748063	0	0	1	0	CommissionError	0.410457	0.729850	1
199.414108	0.795803	city	7	1	0.798131	0.798131	0	1	0	0	CorrectCommission	0.145261	0.724578	1
200.209869	0.795731	city	9	1	0.798407	0.798407	0	1	0	0	CorrectCommission	0.143801	0.723438	1
201.005630	0.795787	city	3	0	0.000000	0.685231	0	0	0	1	OmissionError	0.743264	0.726156	1
201.801468	0.795881	city	8	1	0.599927	0.599927	0	1	0	0	CorrectCommission	1.195093	0.732326	1
202.597305	0.795795	city	5	0	0.000000	0.683821	0	0	0	1	OmissionError	0.750729	0.741447	1
203.393250	0.796100	city	8	1	0.748188	0.748188	0	1	0	0	CorrectCommission	0.409794	0.752948	1
204.189026	0.795432	city	6	1	0.604304	0.604304	0	1	0	0	CorrectCommission	1.171910	0.766219	1
204.984818	0.796156	city	7	1	0.710474	0.710474	0	1	0	0	CorrectCommission	0.609558	0.780655	1
205.780670	0.795545	city	8	1	0.652892	0.652892	0	1	0	0	CorrectCommission	0.914551	0.795735	1
206.576324	0.795781	city	7	1	0.748296	0.748296	0	1	0	0	CorrectCommission	0.409227	0.810875	1
207.372131	0.795829	city	10	0	0.000000	0.624829	0	0	0	1	OmissionError	1.063195	0.825653	0
208.167923	0.795746	city	6	1	0.553461	0.553461	0	1	0	0	CorrectCommission	1.441213	0.839596	0
208.963684	0.795767	city	1	1	0.805158	0.805158	0	1	0	0	CorrectCommission	0.108041	0.852287	0
209.759628	0.796134	city	7	1	0.661936	0.661936	0	1	0	0	CorrectCommission	0.866650	0.863352	0
210.555603	0.795825	city	1	1	1.052169	1.052169	0	1	0	0	CorrectCommission	1.200310	0.872435	0
211.351257	0.795488	city	10	0	0.000000	0.783256	0	0	0	1	OmissionError	0.224052	0.879285	0
212.146912	0.795794	city	9	1	0.450371	0.450371	0	1	0	0	CorrectCommission	1.987253	0.883742	0
212.942703	0.795812	city	4	1	0.648690	0.648690	0	1	0	0	CorrectCommission	0.936810	0.885660	0
213.738510	0.795801	city	9	1	0.948038	0.948038	0	1	0	0	CorrectCommission	0.648753	0.885184	0
214.534317	0.795789	city	6	1	0.996731	0.996731	0	1	0	0	CorrectCommission	0.906671	0.882498	0
215.330093	0.795768	city	9	0	0.000000	0.770081	0	0	0	1	OmissionError	0.293836	0.877963	0
216.126053	0.796151	city	8	1	0.561230	0.561230	0	1	0	0	CorrectCommission	1.400062	0.872130	0
216.922012	0.795762	city	10	1	0.663323	0.663323	0	1	0	0	CorrectCommission	0.859304	0.865590	0
217.717651	0.795543	city	3	1	0.549194	0.549194	0	1	0	0	CorrectCommission	1.463815	0.859068	0
218.513321	0.795787	city	4	1	0.698688	0.698688	0	1	0	0	CorrectCommission	0.671987	0.853269	0
219.309113	0.795804	city	7	1	0.809812	0.809812	0	1	0	0	CorrectCommission	0.083388	0.848896	0
220.104919	0.795813	city	9	1	0.655980	0.655980	0	1	0	0	CorrectCommission	0.898199	0.846505	0
220.900742	0.795823	city	10	1	1.046828	1.046828	0	1	0	0	CorrectCommission	1.172021	0.846451	0
221.696518	0.795726	city	2	0	0.000000	0.822992	0	0	0	1	OmissionError	0.013580	0.848845	0
222.492325	0.795885	city	10	1	0.513866	0.513866	0	1	0	0	CorrectCommission	1.650934	0.853598	0
223.288300	0.796055	city	2	1	0.648848	0.648848	0	1	0	0	CorrectCommission	0.935974	0.860257	0
224.084076	0.795507	city	8	1	0.747663	0.747663	0	1	0	0	CorrectCommission	0.412579	0.868247	0
224.879730	0.795819	city	4	1	0.801816	0.801816	0	1	0	0	CorrectCommission	0.125741	0.876779	0
225.675690	0.796089	mountain	4	0	0.000000	1.049419	1	0	0	0	CorrectOmission	1.185744	0.884920	0
226.471497	0.795506	city	9	1	1.196173	1.196173	0	1	0	0	CorrectCommission	1.963058	0.891687	0
227.267166	0.795841	city	7	1	0.947779	0.947779	0	1	0	0	CorrectCommission	0.647383	0.896156	0
228.062973	0.795767	city	2	1	0.847750	0.847750	0	1	0	0	CorrectCommission	0.117558	0.897600	0
228.858902	0.796108	city	4	1	1.196542	1.196542	0	1	0	0	CorrectCommission	1.965014	0.895477	0
229.654724	0.795525	city	8	0	0.000000	0.985560	0	0	0	1	OmissionError	0.847500	0.889412	0
230.450348	0.795730	city	10	1	0.648644	0.648644	0	1	0	0	CorrectCommission	0.937054	0.879454	0
231.246277	0.796135	mountain	2	0	0.000000	0.619633	1	0	0	0	CorrectOmission	1.090719	0.865869	0
232.042114	0.795532	city	1	1	0.751512	0.751512	0	1	0	0	CorrectCommission	0.392191	0.849224	0
232.837784	0.795810	city	3	1	0.897267	0.897267	0	1	0	0	CorrectCommission	0.379835	0.830385	0
233.633591	0.795799	city	2	1	1.047172	1.047172	0	1	0	0	CorrectCommission	1.173839	0.810370	1
234.429382	0.795785	city	6	1	1.146257	1.146257	0	1	0	0	CorrectCommission	1.698667	0.790349	1
235.225159	0.795770	mountain	10	0	0.000000	0.931994	1	0	0	0	CorrectOmission	0.563773	0.771537	1
236.020950	0.795814	city	2	1	0.700540	0.700540	0	1	0	0	CorrectCommission	0.662175	0.755223	1
236.816772	0.795840	city	1	1	0.748053	0.748053	0	1	0	0	CorrectCommission	0.410513	0.742473	1
237.612549	0.795706	city	8	1	0.847976	0.847976	0	1	0	0	CorrectCommission	0.118755	0.734069	1
238.408478	0.796154	mountain	9	0	0.000000	0.738416	1	0	0	0	CorrectOmission	0.461555	0.730390	1
239.204300	0.795493	city	1	1	0.610543	0.610543	0	1	0	0	CorrectCommission	1.138863	0.731431	1
240.000107	0.796107	mountain	9	1	0.655529	0.655529	0	0	1	0	CommissionError	0.900586	0.736644	1
240.795914	0.795511	city	5	1	0.748984	0.748984	0	1	0	0	CorrectCommission	0.405579	0.745086	1
241.591583	0.795827	city	1	1	0.801983	0.801983	0	1	0	0	CorrectCommission	0.124858	0.755509	1
242.387390	0.795776	city	5	0	0.000000	0.981607	0	0	0	1	OmissionError	0.826564	0.766520	1
243.183197	0.795839	city	9	1	1.057285	1.057285	0	1	0	0	CorrectCommission	1.227406	0.776688	1
243.979019	0.795827	city	1	1	0.798442	0.798442	0	1	0	0	CorrectCommission	0.143612	0.784721	1
244.774811	0.795731	city	2	1	1.146595	1.146595	0	1	0	0	CorrectCommission	1.700457	0.789772	1
245.570572	0.795795	city	5	1	1.195747	1.195747	0	1	0	0	CorrectCommission	1.960802	0.791398	1
246.366364	0.795806	city	8	0	0.000000	0.893146	0	0	0	1	OmissionError	0.358005	0.789666	1
247.162186	0.795825	city	2	1	0.605528	0.605528	0	1	0	0	CorrectCommission	1.165430	0.785207	1
247.958145	0.796094	city	1	1	0.699630	0.699630	0	1	0	0	CorrectCommission	0.666996	0.778870	1
248.753952	0.795529	city	2	1	0.797577	0.797577	0	1	0	0	CorrectCommission	0.148198	0.771760	1
249.549576	0.795712	city	3	1	0.797886	0.797886	0	1	0	0	CorrectCommission	0.146562	0.765010	1
250.345352	0.795850	city	9	1	0.861995	0.861995	0	1	0	0	CorrectCommission	0.193009	0.759628	1
251.141174	0.795800	city	7	1	1.155997	1.155997	0	1	0	0	CorrectCommission	1.750256	0.756372	1
251.937134	0.796098	city	1	0	0.000000	0.981788	0	0	0	1	OmissionError	0.827519	0.755666	1
252.732941	0.795534	city	6	1	0.748042	0.748042	0	1	0	0	CorrectCommission	0.410569	0.757791	1
253.528625	0.795825	mountain	9	1	0.863433	0.863433	0	0	1	0	CommissionError	0.200626	0.762776	1
254.324417	0.795752	city	4	1	1.146173	1.146173	0	1	0	0	CorrectCommission	1.698221	0.770482	1
255.120193	0.795809	city	6	0	0.000000	1.051972	0	0	0	1	OmissionError	1.199265	0.780674	1
255.916000	0.795803	city	4	1	0.859515	0.859515	0	1	0	0	CorrectCommission	0.179873	0.793111	1
256.711945	0.796068	city	5	1	0.847487	0.847487	0	1	0	0	CorrectCommission	0.116162	0.807565	1
257.507751	0.795546	city	6	1	1.046425	1.046425	0	1	0	0	CorrectCommission	1.169886	0.823755	0
258.303558	0.796078	city	2	1	0.549986	0.549986	0	1	0	0	CorrectCommission	1.459619	0.841374	0
259.099365	0.795521	city	9	1	0.797825	0.797825	0	1	0	0	CorrectCommission	0.146883	0.860089	0
259.894989	0.795774	city	6	1	0.802623	0.802623	0	1	0	0	CorrectCommission	0.121466	0.879501	0
260.690796	0.795817	city	10	0	0.000000	0.626894	0	0	0	1	OmissionError	1.052259	0.899108	0
261.486603	0.795775	city	7	1	0.449604	0.449604	0	1	0	0	CorrectCommission	1.991315	0.918342	0
262.282410	0.795876	city	10	1	0.449722	0.449722	0	1	0	0	CorrectCommission	1.990692	0.936604	0
263.078247	0.795771	city	4	1	0.810307	0.810307	0	1	0	0	CorrectCommission	0.080768	0.953260	0
263.874023	0.795818	city	7	1	0.751780	0.751780	0	1	0	0	CorrectCommission	0.390771	0.967813	0
264.669830	0.795771	city	5	1	0.907256	0.907256	0	1	0	0	CorrectCommission	0.432743	0.979721	0
265.465607	0.795806	mountain	7	1	0.614808	0.614808	0	0	1	0	CommissionError	1.116272	0.988608	0
266.261383	0.795749	city	6	1	1.046477	1.046477	0	1	0	0	CorrectCommission	1.170160	0.994186	0
267.057343	0.796138	city	7	1	1.152308	1.152308	0	1	0	0	CorrectCommission	1.730720	0.996448	0
267.853180	0.795556	city	1	0	0.000000	1.165910	0	0	0	1	OmissionError	1.802765	0.995593	0
268.648865	0.795809	city	7	1	1.048953	1.048953	0	1	0	0	CorrectCommission	1.183274	0.992012	0
269.444672	0.795787	city	4	0	0.000000	0.763107	0	0	0	1	OmissionError	0.330773	0.986330	0
270.240448	0.795758	mountain	10	1	0.599158	0.599158	0	0	1	0	CommissionError	1.199169	0.979295	0
271.036194	0.795778	city	2	1	0.847888	0.847888	0	1	0	0	CorrectCommission	0.118287	0.971621	0
271.832031	0.795852	city	9	1	0.960716	0.960716	0	1	0	0	CorrectCommission	0.715905	0.963972	0
272.627838	0.795806	city	6	0	0.000000	0.720482	0	0	0	1	OmissionError	0.556550	0.956843	0
273.423645	0.795793	city	8	1	0.456887	0.456887	0	1	0	0	CorrectCommission	1.952739	0.950555	0
274.219421	0.795753	city	1	1	0.499633	0.499633	0	1	0	0	CorrectCommission	1.726325	0.945226	0
275.015228	0.795848	city	6	1	0.798615	0.798615	0	1	0	0	CorrectCommission	0.142696	0.940825	0
275.811035	0.795783	city	5	1	0.701297	0.701297	0	1	0	0	CorrectCommission	0.658168	0.937261	0
276.606842	0.795803	city	6	1	0.912552	0.912552	0	1	0	0	CorrectCommission	0.460797	0.934353	0
277.402649	0.795826	city	4	1	1.196578	1.196578	0	1	0	0	CorrectCommission	1.965207	0.931950	0
278.198456	0.795799	city	9	0	0.000000	0.986537	0	0	0	1	OmissionError	0.852674	0.929841	0
278.994232	0.795721	city	4	1	0.748148	0.748148	0	1	0	0	CorrectCommission	0.410007	0.928023	0
279.789978	0.795811	city	9	1	0.947132	0.947132	0	1	0	0	CorrectCommission	0.643956	0.926516	0
280.585815	0.795871	city	7	1	1.157386	1.157386	0	1	0	0	CorrectCommission	1.757618	0.925473	0
281.381683	0.795819	city	5	0	0.000000	0.853472	0	0	0	1	OmissionError	0.147862	0.925064	0
282.177460	0.795756	city	7	1	0.509509	0.509509	0	1	0	0	CorrectCommission	1.674013	0.925608	0
282.973358	0.796028	city	2	1	0.599622	0.599622	0	1	0	0	CorrectCommission	1.196710	0.927264	0
283.769165	0.795626	city	6	1	0.698346	0.698346	0	1	0	0	CorrectCommission	0.673797	0.930150	0
284.564850	0.795718	city	10	1	0.897437	0.897437	0	1	0	0	CorrectCommission	0.380737	0.934197	0
285.360626	0.795821	city	9	1	0.947320	0.947320	0	1	0	0	CorrectCommission	0.644952	0.939109	0
286.156433	0.795781	city	4	1	0.947013	0.947013	0	1	0	0	CorrectCommission	0.643324	0.944347	0
286.952209	0.795813	city	10	0	0.000000	0.657270	0	0	0	1	OmissionError	0.891366	0.949209	0
287.748047	0.795820	city	2	1	0.450400	0.450400	0	1	0	0	CorrectCommission	1.987098	0.952808	0
288.543884	0.795851	city	5	1	0.698714	0.698714	0	1	0	0	CorrectCommission	0.671849	0.954258	0
289.339691	0.795814	city	6	1	1.096676	1.096676	0	1	0	0	CorrectCommission	1.436053	0.952868	0
290.135468	0.795747	city	4	0	0.000000	0.950983	0	0	0	1	OmissionError	0.664354	0.948121	0
290.931274	0.795841	city	7	1	0.654240	0.654240	0	1	0	0	CorrectCommission	0.907412	0.939840	0
291.727112	0.795815	city	4	1	0.599055	0.599055	0	1	0	0	CorrectCommission	1.199711	0.928194	0
292.522888	0.795763	city	8	1	0.606053	0.606053	0	1	0	0	CorrectCommission	1.162647	0.913766	0
293.318665	0.795794	city	4	1	0.857082	0.857082	0	1	0	0	CorrectCommission	0.166985	0.897442	0
294.114441	0.795759	city	2	1	1.195662	1.195662	0	1	0	0	CorrectCommission	1.960352	0.880362	0
294.910278	0.795888	city	1	0	0.000000	0.986697	0	0	0	1	OmissionError	0.853521	0.863642	0
295.706085	0.795769	city	4	1	0.698314	0.698314	0	1	0	0	CorrectCommission	0.673968	0.848414	0
296.501892	0.795819	city	3	1	0.798638	0.798638	0	1	0	0	CorrectCommission	0.142576	0.835531	0
297.297668	0.795755	city	10	1	0.699095	0.699095	0	1	0	0	CorrectCommission	0.669831	0.825561	0
298.093445	0.795765	mountain	7	1	0.659304	0.659304	0	0	1	0	CommissionError	0.880592	0.818619	0
298.889252	0.795856	city	4	1	0.765861	0.765861	0	1	0	0	CorrectCommission	0.316187	0.814535	1
299.685089	0.795850	city	1	0	0.000000	0.740493	0	0	0	1	OmissionError	0.450555	0.812858	1
300.480927	0.795796	city	7	1	0.649522	0.649522	0	1	0	0	CorrectCommission	0.932401	0.813062	1
301.276855	0.796078	city	10	0	0.000000	0.559272	0	0	0	1	OmissionError	1.410431	0.814738	1
302.072632	0.795487	city	1	1	0.549223	0.549223	0	1	0	0	CorrectCommission	1.463661	0.817742	0
302.868439	0.796086	city	7	1	0.698854	0.698854	0	1	0	0	CorrectCommission	0.671107	0.822305	0
303.664276	0.795613	city	10	0	0.000000	0.665514	0	0	0	1	OmissionError	0.847698	0.829094	0
304.459930	0.795697	mountain	5	1	0.598857	0.598857	0	0	1	0	CommissionError	1.200764	0.839101	0
305.255676	0.795789	city	2	1	0.648535	0.648535	0	1	0	0	CorrectCommission	0.937633	0.853511	0
306.051483	0.795837	city	7	1	0.801755	0.801755	0	1	0	0	CorrectCommission	0.126066	0.873516	0
306.847473	0.796095	mountain	7	0	0.000000	0.807816	1	0	0	0	CorrectOmission	0.093963	0.899993	0
307.643280	0.795527	city	7	1	0.750276	0.750276	0	1	0	0	CorrectCommission	0.398738	0.933323	0
308.438934	0.795769	city	1	1	0.712693	0.712693	0	1	0	0	CorrectCommission	0.597804	0.973207	0
309.234680	0.795748	city	8	1	0.956426	0.956426	0	1	0	0	CorrectCommission	0.693185	1.018611	0
310.030487	0.795841	city	1	1	1.304826	1.304826	0	1	0	0	CorrectCommission	2.538566	1.067796	0
310.826294	0.795818	mountain	6	0	0.000000	1.102687	1	0	0	0	CorrectOmission	1.467887	1.118471	0
311.622131	0.795832	mountain	10	1	0.851637	0.851637	0	0	1	0	CommissionError	0.138143	1.167941	0
312.418060	0.796050	city	2	1	1.053306	1.053306	0	1	0	0	CorrectCommission	1.206330	1.213403	0
313.213867	0.795568	mountain	8	0	0.000000	1.132249	1	0	0	0	CorrectOmission	1.624472	1.252049	0
314.009552	0.795787	city	4	1	1.110861	1.110861	0	1	0	0	CorrectCommission	1.511184	1.281424	0
314.805328	0.795763	city	9	1	1.011535	1.011535	0	1	0	0	CorrectCommission	0.985081	1.299595	0
315.601135	0.795841	mountain	2	0	0.000000	1.180126	1	0	0	0	CorrectOmission	1.878064	1.305350	0
316.397095	0.796066	city	10	1	1.345313	1.345313	0	1	0	0	CorrectCommission	2.753016	1.298270	0
317.193024	0.795815	mountain	1	0	0.000000	1.235775	1	0	0	0	CorrectOmission	2.172819	1.278765	0
317.988678	0.795492	city	7	0	0.000000	1.015353	0	0	0	1	OmissionError	1.005304	1.248092	0
318.784332	0.795841	city	6	1	0.847891	0.847891	0	1	0	0	CorrectCommission	0.118302	1.208119	0
319.580139	0.795763	mountain	9	1	0.897231	0.897231	0	0	1	0	CommissionError	0.379643	1.161207	0
320.375946	0.795810	city	10	1	1.255149	1.255149	0	1	0	0	CorrectCommission	2.275437	1.109915	0
321.171722	0.795761	mountain	7	0	0.000000	1.187548	1	0	0	0	CorrectOmission	1.917373	1.056774	0
321.967529	0.795853	city	4	0	0.000000	0.926100	0	0	0	1	OmissionError	0.532555	1.004192	0
322.763367	0.795830	city	5	1	0.702478	0.702478	0	1	0	0	CorrectCommission	0.651911	0.954323	0
323.559143	0.795693	city	2	1	0.748353	0.748353	0	1	0	0	CorrectCommission	0.408920	0.908796	0
324.354919	0.795885	city	7	1	0.797898	0.797898	0	1	0	0	CorrectCommission	0.146496	0.868794	0
325.150909	0.796089	city	3	1	0.810200	0.810200	0	1	0	0	CorrectCommission	0.081336	0.835047	0
325.946655	0.795432	city	6	1	1.195418	1.195418	0	1	0	0	CorrectCommission	1.959062	0.807824	1
326.742279	0.795805	city	2	0	0.000000	0.920033	0	0	0	1	OmissionError	0.500421	0.787029	1
327.538116	0.795865	city	1	1	0.649040	0.649040	0	1	0	0	CorrectCommission	0.934956	0.772399	1
328.333923	0.795743	city	9	1	1.047435	1.047435	0	1	0	0	CorrectCommission	1.175234	0.763487	1
329.129730	0.795856	city	1	1	0.997462	0.997462	0	1	0	0	CorrectCommission	0.910540	0.759808	1
329.925537	0.795801	city	7	1	0.848022	0.848022	0	1	0	0	CorrectCommission	0.118999	0.760808	1
330.721344	0.795807	city	2	1	0.848985	0.848985	0	1	0	0	CorrectCommission	0.124100	0.765849	1
331.517151	0.795767	mountain	1	0	0.000000	0.707089	1	0	0	0	CorrectOmission	0.627488	0.774149	1
332.313080	0.796112	city	6	1	0.698742	0.698742	0	1	0	0	CorrectCommission	0.671698	0.784779	1
333.108887	0.795477	city	4	1	1.100355	1.100355	0	1	0	0	CorrectCommission	1.455537	0.796701	1
333.904541	0.795840	city	7	0	0.000000	0.849495	0	0	0	1	OmissionError	0.126798	0.808754	1
334.700348	0.795811	city	5	1	0.516233	0.516233	0	1	0	0	CorrectCommission	1.638400	0.819864	0
335.496155	0.795811	city	4	1	0.670640	0.670640	0	1	0	0	CorrectCommission	0.820545	0.829046	0
336.291962	0.795779	city	5	1	0.997721	0.997721	0	1	0	0	CorrectCommission	0.911913	0.835553	0
337.087738	0.795799	city	9	0	0.000000	0.743628	0	0	0	1	OmissionError	0.433950	0.839021	0
337.883575	0.795817	city	7	1	0.499413	0.499413	0	1	0	0	CorrectCommission	1.727490	0.839393	0
338.679382	0.795831	city	4	1	0.856129	0.856129	0	1	0	0	CorrectCommission	0.161935	0.837025	0
339.475220	0.795812	city	7	1	0.964558	0.964558	0	1	0	0	CorrectCommission	0.736255	0.832820	0
340.271149	0.796050	city	6	1	1.207783	1.207783	0	1	0	0	CorrectCommission	2.024556	0.827930	0
341.066925	0.795543	city	9	0	0.000000	0.969541	0	0	0	1	OmissionError	0.762651	0.823766	0
341.862610	0.795783	city	2	1	0.699763	0.699763	0	1	0	0	CorrectCommission	0.666291	0.821944	0
342.658539	0.796069	city	6	1	0.848381	0.848381	0	1	0	0	CorrectCommission	0.120897	0.823988	0
343.454315	0.795508	mountain	1	0	0.000000	0.850930	1	0	0	0	CorrectOmission	0.134400	0.831167	0
344.250122	0.796106	city	9	1	0.748185	0.748185	0	1	0	0	CorrectCommission	0.409813	0.844395	0
345.045929	0.795540	city	8	0	0.000000	0.580919	0	0	0	1	OmissionError	1.295775	0.864094	0
345.841583	0.795770	mountain	10	1	0.599308	0.599308	0	0	1	0	CommissionError	1.198372	0.890134	0
346.637543	0.796096	city	6	1	1.053528	1.053528	0	1	0	0	CorrectCommission	1.207508	0.921897	0
347.433472	0.795818	mountain	1	0	0.000000	0.909557	1	0	0	0	CorrectOmission	0.444933	0.958298	0
348.229126	0.795479	city	1	1	0.698859	0.698859	0	1	0	0	CorrectCommission	0.671079	0.997950	0
349.024780	0.795832	city	10	1	0.952897	0.952897	0	1	0	0	CorrectCommission	0.674489	1.039168	0
349.820618	0.795794	city	7	1	0.921494	0.921494	0	1	0	0	CorrectCommission	0.508157	1.080212	0
350.616547	0.796077	city	8	1	1.296533	1.296533	0	1	0	0	CorrectCommission	2.494638	1.119379	0
351.412354	0.795528	mountain	8	1	0.798396	0.798396	0	0	1	0	CommissionError	0.143860	1.155094	0
352.208008	0.795828	city	1	1	0.300754	0.300754	0	1	0	0	CorrectCommission	2.779735	1.186136	0
353.003784	0.795716	city	4	1	0.603517	0.603517	0	1	0	0	CorrectCommission	1.176079	1.211448	0
353.799591	0.795895	city	7	1	1.196830	1.196830	0	1	0	0	CorrectCommission	1.966538	1.230394	0
354.595428	0.795779	city	3	0	0.000000	1.117677	0	0	0	1	OmissionError	1.547287	1.242479	0
355.391205	0.795774	city	9	1	0.805243	0.805243	0	1	0	0	CorrectCommission	0.107593	1.247369	0
356.186981	0.795752	city	1	1	0.698711	0.698711	0	1	0	0	CorrectCommission	0.671863	1.244856	0
356.982758	0.795820	city	10	1	0.608364	0.608364	0	1	0	0	CorrectCommission	1.150404	1.234682	0
357.778595	0.795864	city	4	1	1.047006	1.047006	0	1	0	0	CorrectCommission	1.172961	1.216619	0
358.574432	0.795772	mountain	2	0	0.000000	1.169747	1	0	0	0	CorrectOmission	1.823087	1.190624	0
359.370209	0.795839	city	10	1	1.158660	1.158660	0	1	0	0	CorrectCommission	1.764365	1.156884	0
360.165985	0.795710	city	2	1	1.195819	1.195819	0	1	0	0	CorrectCommission	1.961183	1.115981	0
360.961792	0.795896	city	6	0	0.000000	1.163964	0	0	0	1	OmissionError	1.792456	1.068919	0
361.757782	0.796050	city	1	1	1.046923	1.046923	0	1	0	0	CorrectCommission	1.172522	1.017142	0
362.553558	0.795533	mountain	7	0	0.000000	0.828523	1	0	0	0	CorrectOmission	0.015718	0.962412	0
363.349182	0.795727	city	5	1	0.699073	0.699073	0	1	0	0	CorrectCommission	0.669946	0.906682	0
364.145142	0.796154	city	9	1	0.848880	0.848880	0	1	0	0	CorrectCommission	0.123543	0.851801	0
364.940979	0.795536	city	8	0	0.000000	0.689804	0	0	0	1	OmissionError	0.719041	0.799493	1
365.736603	0.795726	city	7	1	0.599712	0.599712	0	1	0	0	CorrectCommission	1.196233	0.751084	1
366.532532	0.796143	city	3	1	0.956473	0.956473	0	1	0	0	CorrectCommission	0.693432	0.707474	1
367.328400	0.795550	city	9	1	0.807289	0.807289	0	1	0	0	CorrectCommission	0.096756	0.669169	1
368.124054	0.795793	city	3	1	0.699157	0.699157	0	1	0	0	CorrectCommission	0.669500	0.636217	1
368.919861	0.795789	city	4	1	0.960356	0.960356	0	1	0	0	CorrectCommission	0.713998	0.608420	1
369.715637	0.795769	city	10	0	0.000000	0.806428	0	0	0	1	OmissionError	0.101312	0.585308	1
370.511414	0.795789	city	2	1	0.599584	0.599584	0	1	0	0	CorrectCommission	1.196913	0.566405	1
371.307220	0.795845	city	8	1	0.702030	0.702030	0	1	0	0	CorrectCommission	0.654285	0.551149	1
372.103027	0.795779	city	2	1	0.899330	0.899330	0	1	0	0	CorrectCommission	0.390761	0.539092	1
372.898956	0.796063	city	3	1	0.717410	0.717410	0	1	0	0	CorrectCommission	0.572821	0.529909	1
373.694763	0.795556	city	8	1	0.864860	0.864860	0	1	0	0	CorrectCommission	0.208183	0.523355	1
374.490448	0.795778	mountain	5	0	0.000000	0.894203	1	0	0	0	CorrectOmission	0.363603	0.519300	1
375.286377	0.796112	mountain	1	0	0.000000	0.842946	1	0	0	0	CorrectOmission	0.092111	0.517643	1
376.082336	0.795765	city	6	1	0.748598	0.748598	0	1	0	0	CorrectCommission	0.407626	0.518408	1
376.877960	0.795529	city	9	1	0.648666	0.648666	0	1	0	0	CorrectCommission	0.936937	0.521715	1
377.673798	0.796113	city	8	0	0.000000	0.651212	0	0	0	1	OmissionError	0.923453	0.527752	1
378.469604	0.795495	city	2	1	0.714955	0.714955	0	1	0	0	CorrectCommission	0.585823	0.536863	1
379.265228	0.795801	city	8	1	0.798615	0.798615	0	1	0	0	CorrectCommission	0.142699	0.549476	1
380.061035	0.795756	city	5	1	0.706596	0.706596	0	1	0	0	CorrectCommission	0.630097	0.566080	1
380.856842	0.795889	city	1	1	0.698681	0.698681	0	1	0	0	CorrectCommission	0.672022	0.587014	1
381.652679	0.795785	city	2	1	0.707833	0.707833	0	1	0	0	CorrectCommission	0.623548	0.612442	1
382.448456	0.795776	city	7	1	0.847847	0.847847	0	1	0	0	CorrectCommission	0.118073	0.642221	1
383.244263	0.795856	city	8	0	0.000000	0.796593	0	0	0	1	OmissionError	0.153407	0.675811	1
384.040100	0.795776	city	2	1	0.698584	0.698584	0	1	0	0	CorrectCommission	0.672533	0.712256	1
384.836029	0.796081	city	6	1	0.698335	0.698335	0	1	0	0	CorrectCommission	0.673855	0.750163	1
385.631805	0.795470	city	3	0	0.000000	0.674863	0	0	0	1	OmissionError	0.798178	0.787842	1
386.427612	0.796144	city	4	1	0.648746	0.648746	0	1	0	0	CorrectCommission	0.936512	0.823460	0
387.223572	0.795794	city	1	0	0.000000	0.640561	0	0	0	1	OmissionError	0.979868	0.855226	0
388.019226	0.795495	city	5	1	0.605775	0.605775	0	1	0	0	CorrectCommission	1.164121	0.881540	0
388.814880	0.795823	city	8	1	0.499855	0.499855	0	1	0	0	CorrectCommission	1.725148	0.901236	0
389.610840	0.796088	city	1	1	0.453670	0.453670	0	1	0	0	CorrectCommission	1.969779	0.913622	0
390.406616	0.795512	city	8	1	0.809845	0.809845	0	1	0	0	CorrectCommission	0.083214	0.918565	0
391.202271	0.795770	city	5	1	0.946995	0.946995	0	1	0	0	CorrectCommission	0.643231	0.916564	0
391.998047	0.795806	city	7	1	1.057695	1.057695	0	1	0	0	CorrectCommission	1.229577	0.908454	0
392.793884	0.795844	city	10	0	0.000000	0.784518	0	0	0	1	OmissionError	0.217368	0.895439	0
393.589691	0.795793	city	6	1	0.617544	0.617544	0	1	0	0	CorrectCommission	1.101781	0.878944	0
394.385498	0.795780	city	4	1	1.046854	1.046854	0	1	0	0	CorrectCommission	1.172158	0.860366	0
395.181244	0.795743	city	2	1	1.096277	1.096277	0	1	0	0	CorrectCommission	1.433938	0.841081	0
395.977203	0.796147	mountain	6	0	0.000000	1.007556	1	0	0	0	CorrectOmission	0.964007	0.822293	0
396.773193	0.795824	city	8	0	0.000000	0.864270	0	0	0	1	OmissionError	0.205057	0.804968	1
397.568848	0.795537	city	6	1	0.749996	0.749996	0	1	0	0	CorrectCommission	0.400221	0.789827	1
398.364502	0.795749	city	1	1	0.748313	0.748313	0	1	0	0	CorrectCommission	0.409135	0.777251	1
399.160278	0.795793	city	9	1	1.063015	1.063015	0	1	0	0	CorrectCommission	1.257758	0.767387	1
399.956055	0.795759	city	5	1	0.847623	0.847623	0	1	0	0	CorrectCommission	0.116884	0.760196	1
400.752014	0.796148	city	10	1	0.752169	0.752169	0	1	0	0	CorrectCommission	0.388712	0.755626	1
401.547821	0.795477	city	1	1	1.096302	1.096302	0	1	0	0	CorrectCommission	1.434072	0.753637	1
402.343475	0.795837	city	8	1	1.046937	1.046937	0	1	0	0	CorrectCommission	1.172597	0.754268	1
403.139313	0.795817	city	4	1	0.947965	0.947965	0	1	0	0	CorrectCommission	0.648371	0.757773	1
403.935272	0.796092	city	1	1	1.097047	1.097047	0	1	0	0	CorrectCommission	1.438017	0.764543	1
404.731018	0.795450	city	9	1	0.897282	0.897282	0	1	0	0	CorrectCommission	0.379915	0.774948	1
405.526825	0.796141	city	7	1	0.798541	0.798541	0	1	0	0	CorrectCommission	0.143088	0.789281	1
406.322662	0.795551	city	5	1	0.950964	0.950964	0	1	0	0	CorrectCommission	0.664256	0.807484	1
407.118469	0.796035	city	8	0	0.000000	0.781385	0	0	0	1	OmissionError	0.233962	0.828990	0
407.914215	0.795465	city	3	1	0.598673	0.598673	0	1	0	0	CorrectCommission	1.201738	0.852752	0
408.710022	0.796161	city	10	1	0.711699	0.711699	0	1	0	0	CorrectCommission	0.603070	0.877079	0
409.505829	0.795453	city	9	1	0.902008	0.902008	0	1	0	0	CorrectCommission	0.404945	0.899836	0
410.301453	0.795794	city	2	1	1.047348	1.047348	0	1	0	0	CorrectCommission	1.174772	0.918634	0
411.097290	0.795880	city	9	0	0.000000	1.115612	0	0	0	1	OmissionError	1.536350	0.931015	0
411.893127	0.795810	city	6	1	0.964161	0.964161	0	1	0	0	CorrectCommission	0.734154	0.934862	0
412.688934	0.795805	city	9	1	0.450354	0.450354	0	1	0	0	CorrectCommission	1.987341	0.928686	0
413.484741	0.795756	city	4	1	0.549164	0.549164	0	1	0	0	CorrectCommission	1.463971	0.911759	0
414.280518	0.795836	city	1	1	0.558562	0.558562	0	1	0	0	CorrectCommission	1.414195	0.884400	0
415.076324	0.795772	city	7	1	1.053396	1.053396	0	1	0	0	CorrectCommission	1.206810	0.847885	0
415.872101	0.795750	city	2	0	0.000000	0.908974	0	0	0	1	OmissionError	0.441842	0.804370	1
416.667908	0.795904	city	7	1	0.649384	0.649384	0	1	0	0	CorrectCommission	0.933134	0.756612	1
417.463745	0.795778	city	6	1	0.798718	0.798718	0	1	0	0	CorrectCommission	0.142152	0.707677	1
418.259491	0.795719	city	10	1	0.798266	0.798266	0	1	0	0	CorrectCommission	0.144546	0.660690	1
419.055450	0.796164	mountain	2	0	0.000000	0.738669	1	0	0	0	CorrectOmission	0.460214	0.618459	1
419.851288	0.795537	city	9	1	0.698100	0.698100	0	1	0	0	CorrectCommission	0.675101	0.583294	1
420.646942	0.795752	city	8	1	0.754728	0.754728	0	1	0	0	CorrectCommission	0.375154	0.556839	1
421.442749	0.795861	city	1	1	0.847799	0.847799	0	1	0	0	CorrectCommission	0.117816	0.539993	1
422.238678	0.796017	city	5	1	0.898264	0.898264	0	1	0	0	CorrectCommission	0.385114	0.532952	1
423.034454	0.795532	mountain	4	0	0.000000	0.909022	1	0	0	0	CorrectOmission	0.442096	0.535242	1
423.830139	0.795831	mountain	3	0	0.000000	0.904617	1	0	0	0	CorrectOmission	0.418767	0.545809	1
424.625977	0.795822	city	2	1	0.909595	0.909595	0	1	0	0	CorrectCommission	0.445134	0.563219	1
425.421783	0.795790	city	8	1	0.948500	0.948500	0	1	0	0	CorrectCommission	0.651202	0.585746	1
426.217682	0.796046	mountain	9	0	0.000000	0.752431	1	0	0	0	CorrectOmission	0.387322	0.611543	1
427.013489	0.795521	city	2	1	0.648644	0.648644	0	1	0	0	CorrectCommission	0.937054	0.638800	1
427.809143	0.795800	city	9	1	0.964394	0.964394	0	1	0	0	CorrectCommission	0.735388	0.665793	1
428.604950	0.795807	city	4	1	0.906949	0.906949	0	1	0	0	CorrectCommission	0.431118	0.691023	1
429.400757	0.795812	city	3	1	0.910719	0.910719	0	1	0	0	CorrectCommission	0.451086	0.713276	1
430.196564	0.795813	mountain	4	0	0.000000	1.052443	1	0	0	0	CorrectOmission	1.201761	0.731661	1
430.992371	0.795819	city	7	1	1.153664	1.153664	0	1	0	0	CorrectCommission	1.737903	0.745578	1
431.788147	0.795729	city	2	0	0.000000	1.035925	0	0	0	1	OmissionError	1.114268	0.754816	1
432.583954	0.795849	city	4	1	0.864648	0.864648	0	1	0	0	CorrectCommission	0.207059	0.759479	1
433.379761	0.795806	city	6	1	0.805256	0.805256	0	1	0	0	CorrectCommission	0.107521	0.759967	1
434.175568	0.795808	city	5	1	0.698406	0.698406	0	1	0	0	CorrectCommission	0.673477	0.756856	1
434.971405	0.795818	city	2	1	0.555717	0.555717	0	1	0	0	CorrectCommission	1.429262	0.750884	1
435.767334	0.796070	city	7	1	0.947224	0.947224	0	1	0	0	CorrectCommission	0.644443	0.742885	1
436.563110	0.795509	city	4	1	0.946770	0.946770	0	1	0	0	CorrectCommission	0.642041	0.733798	1
437.358917	0.796057	city	10	1	0.996865	0.996865	0	1	0	0	CorrectCommission	0.907377	0.724569	1
438.154846	0.795820	city	9	1	1.046670	1.046670	0	1	0	0	CorrectCommission	1.171183	0.716129	1
438.950531	0.795527	city	3	0	0.000000	0.911234	0	0	0	1	OmissionError	0.453812	0.709366	1
439.746185	0.795793	city	10	1	0.748790	0.748790	0	1	0	0	CorrectCommission	0.406606	0.705096	1
440.541962	0.795797	mountain	3	0	0.000000	0.717576	1	0	0	0	CorrectOmission	0.571940	0.703932	1
441.337799	0.795846	city	8	0	0.000000	0.779761	0	0	0	1	OmissionError	0.242565	0.706236	1
442.133728	0.796042	city	1	1	0.897514	0.897514	0	1	0	0	CorrectCommission	0.381145	0.712096	1
442.929565	0.795608	mountain	7	0	0.000000	1.033008	1	0	0	0	CorrectOmission	1.098816	0.721296	1
443.725220	0.795722	city	6	1	1.046380	1.046380	0	1	0	0	CorrectCommission	1.169644	0.733278	1
444.521149	0.796092	mountain	10	1	0.797770	0.797770	0	0	1	0	CommissionError	0.147173	0.747209	1
445.316925	0.795500	city	10	1	1.095943	1.095943	0	1	0	0	CorrectCommission	1.432170	0.762072	1
446.112549	0.795762	city	2	0	0.000000	0.845024	0	0	0	1	OmissionError	0.103120	0.776642	1
446.908356	0.795815	city	5	1	0.598973	0.598973	0	1	0	0	CorrectCommission	1.200150	0.789739	1
447.704315	0.796118	city	9	1	0.911747	0.911747	0	1	0	0	CorrectCommission	0.456533	0.800138	1
448.500122	0.795503	city	3	1	0.897325	0.897325	0	1	0	0	CorrectCommission	0.380143	0.806872	1
449.295929	0.796107	mountain	1	0	0.000000	0.602360	1	0	0	0	CorrectOmission	1.182206	0.809345	1
450.091736	0.795486	city	3	1	0.509143	0.509143	0	1	0	0	CorrectCommission	1.675951	0.807380	1
450.887390	0.795856	city	2	1	1.099965	1.099965	0	1	0	0	CorrectCommission	1.453472	0.801393	1
451.683228	0.795778	city	7	0	0.000000	0.964549	0	0	0	1	OmissionError	0.736207	0.792361	1
452.479004	0.795799	city	8	1	0.698459	0.698459	0	1	0	0	CorrectCommission	0.673197	0.781738	1
453.274811	0.795814	city	4	1	0.897262	0.897262	0	1	0	0	CorrectCommission	0.379808	0.771349	1
454.070618	0.795765	city	8	1	0.761459	0.761459	0	1	0	0	CorrectCommission	0.339502	0.763176	1
454.866364	0.795763	mountain	5	0	0.000000	0.641186	1	0	0	0	CorrectOmission	0.976556	0.759041	1
455.662201	0.795879	city	7	1	0.648945	0.648945	0	1	0	0	CorrectCommission	0.935461	0.760368	1
456.458008	0.795780	city	6	1	0.897238	0.897238	0	1	0	0	CorrectCommission	0.379681	0.768078	1
457.253967	0.796099	city	4	1	0.797779	0.797779	0	1	0	0	CorrectCommission	0.147129	0.782394	1
458.049713	0.795440	city	10	1	0.655855	0.655855	0	1	0	0	CorrectCommission	0.898861	0.802793	1
458.845367	0.795854	city	8	1	0.754809	0.754809	0	1	0	0	CorrectCommission	0.374726	0.827987	0
459.641174	0.795777	city	10	1	0.798194	0.798194	0	1	0	0	CorrectCommission	0.144928	0.856207	0
460.437012	0.795867	city	1	1	0.948103	0.948103	0	1	0	0	CorrectCommission	0.649097	0.885408	0
461.232849	0.795812	city	9	1	1.165980	1.165980	0	1	0	0	CorrectCommission	1.803137	0.913489	0
462.028625	0.795768	city	5	1	1.196972	1.196972	0	1	0	0	CorrectCommission	1.967294	0.938674	0
462.824432	0.795837	city	4	0	0.000000	1.079382	0	0	0	1	OmissionError	1.344447	0.959732	0
463.620392	0.796064	city	6	1	1.003848	1.003848	0	1	0	0	CorrectCommission	0.944365	0.976203	0
464.416321	0.795769	city	4	1	1.161011	1.161011	0	1	0	0	CorrectCommission	1.776817	0.988288	0
465.211945	0.795478	city	8	0	0.000000	0.914804	0	0	0	1	OmissionError	0.472724	0.996754	0
466.007599	0.795852	city	9	1	0.649480	0.649480	0	1	0	0	CorrectCommission	0.932624	1.002877	0
466.803436	0.795797	city	1	1	0.749295	0.749295	0	1	0	0	CorrectCommission	0.403935	1.007984	0
467.599182	0.795753	city	9	1	0.848395	0.848395	0	1	0	0	CorrectCommission	0.120976	1.013331	0
468.394989	0.795858	mountain	6	0	0.000000	0.581319	1	0	0	0	CorrectOmission	1.293654	1.019796	0
469.190979	0.796095	mountain	3	1	0.449985	0.449985	0	0	1	0	CommissionError	1.989298	1.027742	0
469.986755	0.795479	city	8	1	0.956310	0.956310	0	1	0	0	CorrectCommission	0.692570	1.036954	0
470.782410	0.795790	city	1	1	0.797954	0.797954	0	1	0	0	CorrectCommission	0.146200	1.046729	0
471.578217	0.795868	city	6	1	1.047709	1.047709	0	1	0	0	CorrectCommission	1.176688	1.055936	0
472.374054	0.795790	city	5	1	1.097137	1.097137	0	1	0	0	CorrectCommission	1.438491	1.063141	0
473.169830	0.795728	city	7	1	1.245749	1.245749	0	1	0	0	CorrectCommission	2.225650	1.066894	0
473.965607	0.795819	mountain	4	0	0.000000	0.952581	1	0	0	0	CorrectOmission	0.672816	1.065944	0
474.761566	0.796132	city	5	1	0.748371	0.748371	0	1	0	0	CorrectCommission	0.408826	1.059620	0
475.557404	0.795521	city	2	1	1.163860	1.163860	0	1	0	0	CorrectCommission	1.791905	1.047854	0
476.353058	0.795789	city	3	0	0.000000	0.995010	0	0	0	1	OmissionError	0.897554	1.031432	0
477.148834	0.795811	city	4	1	0.653120	0.653120	0	1	0	0	CorrectCommission	0.913346	1.012198	0
477.944672	0.795811	city	2	1	0.549487	0.549487	0	1	0	0	CorrectCommission	1.462262	0.992976	0
478.740479	0.795828	city	7	1	0.500175	0.500175	0	1	0	0	CorrectCommission	1.723453	0.977407	0
479.536255	0.795737	city	2	1	0.598956	0.598956	0	1	0	0	CorrectCommission	1.200236	0.969766	0
480.332092	0.795913	city	10	1	0.797839	0.797839	0	1	0	0	CorrectCommission	0.146807	0.974631	0
481.127899	0.795700	city	2	1	0.698256	0.698256	0	1	0	0	CorrectCommission	0.674271	0.996402	0
481.923676	0.795856	city	1	1	0.854251	0.854251	0	1	0	0	CorrectCommission	0.151989	1.038641	0
482.719452	0.795694	city	6	1	0.959644	0.959644	0	1	0	0	CorrectCommission	0.710229	1.103691	0
483.515381	0.796175	city	1	0	0.000000	0.815218	0	0	0	1	OmissionError	0.054759	1.192185	0
484.311188	0.795434	city	7	1	0.705418	0.705418	0	1	0	0	CorrectCommission	0.636336	1.302837	0
485.106964	0.796150	city	8	1	0.914694	0.914694	0	1	0	0	CorrectCommission	0.472139	1.432295	0
485.902771	0.795457	city	5	0	0.000000	0.790563	0	0	0	1	OmissionError	0.185349	1.575450	0
486.698578	0.796153	city	6	1	0.499729	0.499729	0	1	0	0	CorrectCommission	1.725818	1.725818	0
