onset	duration	trial_type	image_type	Press	ReactionTime	ReactionTime_Interpolated	CorrectOmission	CorrectCommission	CommissionError	OmissionError	response_type	nonsmoothVarianceTimeCourse	VarianceTimeCourse	In_the_Zone
8.421640	0.795852	city	1	1	0.912590	0.912590	0	1	0	0	CorrectCommission	1.419891	1.419891	0
9.217448	0.795764	city	2	1	0.798416	0.798416	0	1	0	0	CorrectCommission	0.749400	1.337762	0
10.013229	0.795798	city	8	1	0.552945	0.552945	0	1	0	0	CorrectCommission	0.692128	1.256992	0
10.809041	0.795825	city	2	1	0.598924	0.598924	0	1	0	0	CorrectCommission	0.422117	1.178847	0
11.604859	0.795813	city	7	1	0.466422	0.466422	0	1	0	0	CorrectCommission	1.200239	1.104467	0
12.400633	0.795733	city	9	1	0.450048	0.450048	0	1	0	0	CorrectCommission	1.296394	1.034746	0
13.196410	0.795822	mountain	3	1	0.366193	0.366193	0	0	1	0	CommissionError	1.788831	0.970399	0
13.992216	0.795789	city	10	1	0.501770	0.501770	0	1	0	0	CorrectCommission	0.992655	0.911947	0
14.788159	0.796097	city	2	1	0.650097	0.650097	0	1	0	0	CorrectCommission	0.121603	0.859790	0
15.583944	0.795473	city	4	1	0.648541	0.648541	0	1	0	0	CorrectCommission	0.130742	0.814189	0
16.379578	0.795793	city	8	1	0.506048	0.506048	0	1	0	0	CorrectCommission	0.967530	0.775254	1
17.175554	0.796159	city	10	1	0.558614	0.558614	0	1	0	0	CorrectCommission	0.658836	0.743012	1
17.971386	0.795505	city	1	1	0.598891	0.598891	0	1	0	0	CorrectCommission	0.422313	0.717559	1
18.767036	0.795798	city	3	1	0.549026	0.549026	0	1	0	0	CorrectCommission	0.715143	0.698998	1
19.562845	0.795818	city	5	1	0.850982	0.850982	0	1	0	0	CorrectCommission	1.058098	0.687487	1
20.358801	0.796092	mountain	9	0	0.000000	0.799825	1	0	0	0	CorrectOmission	0.757677	0.683321	1
21.154570	0.795446	city	9	1	0.648169	0.648169	0	1	0	0	CorrectCommission	0.132927	0.686933	1
21.950191	0.795800	city	3	1	0.648626	0.648626	0	1	0	0	CorrectCommission	0.130239	0.698746	1
22.745995	0.795806	city	10	1	0.847735	0.847735	0	1	0	0	CorrectCommission	1.039024	0.719087	1
23.541830	0.795862	city	8	1	0.864307	0.864307	0	1	0	0	CorrectCommission	1.136345	0.747996	1
24.337627	0.795734	city	4	1	0.797946	0.797946	0	1	0	0	CorrectCommission	0.746643	0.785137	1
25.133446	0.795904	city	3	1	0.698441	0.698441	0	1	0	0	CorrectCommission	0.162296	0.829643	0
25.929289	0.795782	city	8	1	0.648614	0.648614	0	1	0	0	CorrectCommission	0.130312	0.879998	0
26.725075	0.795793	city	1	1	0.549151	0.549151	0	1	0	0	CorrectCommission	0.714411	0.933950	0
27.520882	0.795820	city	4	1	0.501288	0.501288	0	1	0	0	CorrectCommission	0.995485	0.988585	0
28.316645	0.795704	city	6	1	0.501780	0.501780	0	1	0	0	CorrectCommission	0.992594	1.040542	0
29.112432	0.795874	city	9	1	0.461644	0.461644	0	1	0	0	CorrectCommission	1.228297	1.086271	0
29.908289	0.795838	city	1	1	0.401598	0.401598	0	1	0	0	CorrectCommission	1.580917	1.122367	0
30.704210	0.796002	city	4	1	0.350130	0.350130	0	1	0	0	CorrectCommission	1.883164	1.145925	0
31.500130	0.795840	city	10	1	0.401674	0.401674	0	1	0	0	CorrectCommission	1.580469	1.154913	0
32.295784	0.795465	city	5	1	0.406274	0.406274	0	1	0	0	CorrectCommission	1.553457	1.148459	0
33.091583	0.796138	city	7	1	1.058461	1.058461	0	1	0	0	CorrectCommission	2.276517	1.126932	0
33.887409	0.795515	mountain	5	0	0.000000	0.925439	1	0	0	0	CorrectOmission	1.495341	1.091838	0
34.683208	0.796084	city	3	1	0.556022	0.556022	0	1	0	0	CorrectCommission	0.674061	1.045796	0
35.478985	0.795462	city	4	1	0.499026	0.499026	0	1	0	0	CorrectCommission	1.008767	0.992168	0
36.274639	0.795852	city	1	1	0.451463	0.451463	0	1	0	0	CorrectCommission	1.288084	0.934632	0
37.070477	0.795821	city	10	1	0.705667	0.705667	0	1	0	0	CorrectCommission	0.204730	0.876812	0
37.866287	0.795802	city	5	1	0.648823	0.648823	0	1	0	0	CorrectCommission	0.129084	0.821979	0
38.662060	0.795744	mountain	2	0	0.000000	0.641979	1	0	0	0	CorrectOmission	0.169279	0.772793	1
39.457851	0.795835	city	10	1	0.698606	0.698606	0	1	0	0	CorrectCommission	0.163266	0.731126	1
40.253822	0.796110	city	3	0	0.000000	0.832179	0	0	0	1	OmissionError	0.947673	0.698046	1
41.049629	0.795507	city	1	1	0.897225	0.897225	0	1	0	0	CorrectCommission	1.329659	0.673938	1
41.845413	0.796057	city	4	1	0.748274	0.748274	0	1	0	0	CorrectCommission	0.454940	0.658751	1
42.641212	0.795544	city	6	1	0.748677	0.748677	0	1	0	0	CorrectCommission	0.457309	0.652233	1
43.436886	0.795800	city	1	1	0.599098	0.599098	0	1	0	0	CorrectCommission	0.421095	0.654008	1
44.232681	0.795791	city	8	1	0.499575	0.499575	0	1	0	0	CorrectCommission	1.005544	0.663832	1
45.028481	0.795804	city	4	1	0.549817	0.549817	0	1	0	0	CorrectCommission	0.710499	0.681558	1
45.824436	0.796110	city	5	1	0.605544	0.605544	0	1	0	0	CorrectCommission	0.383239	0.707219	1
46.620258	0.795531	city	3	1	0.648285	0.648285	0	1	0	0	CorrectCommission	0.132244	0.740842	1
47.416065	0.796085	mountain	6	0	0.000000	0.771532	1	0	0	0	CorrectOmission	0.591526	0.782307	1
48.211849	0.795487	city	6	1	0.848007	0.848007	0	1	0	0	CorrectCommission	1.040622	0.831119	0
49.007511	0.795831	city	8	1	0.750428	0.750428	0	1	0	0	CorrectCommission	0.467590	0.886262	0
49.803463	0.796078	city	1	1	0.847651	0.847651	0	1	0	0	CorrectCommission	1.038536	0.946095	0
50.599258	0.795511	city	10	0	0.000000	0.878308	0	0	0	1	OmissionError	1.218566	1.008168	0
51.394901	0.795776	city	2	1	0.848036	0.848036	0	1	0	0	CorrectCommission	1.040793	1.069348	0
52.190704	0.795826	city	4	1	0.762473	0.762473	0	1	0	0	CorrectCommission	0.538328	1.125963	0
52.986534	0.795832	city	2	1	0.660762	0.660762	0	1	0	0	CorrectCommission	0.058971	1.174020	0
53.782341	0.795783	city	3	1	1.047801	1.047801	0	1	0	0	CorrectCommission	2.213918	1.209555	0
54.578133	0.795801	city	6	1	1.060800	1.060800	0	1	0	0	CorrectCommission	2.290251	1.228964	0
55.373894	0.795721	city	5	1	0.961831	0.961831	0	1	0	0	CorrectCommission	1.709059	1.229585	0
56.169701	0.795895	city	1	1	0.997164	0.997164	0	1	0	0	CorrectCommission	1.916548	1.210003	0
56.965508	0.795715	city	4	1	1.096420	1.096420	0	1	0	0	CorrectCommission	2.499433	1.170251	0
57.761444	0.796159	city	7	1	1.060496	1.060496	0	1	0	0	CorrectCommission	2.288467	1.111890	0
58.557266	0.795483	city	8	0	0.000000	0.721621	0	0	0	1	OmissionError	0.298423	1.037943	0
59.352936	0.795858	city	9	1	0.449577	0.449577	0	1	0	0	CorrectCommission	1.299157	0.952705	0
60.148899	0.796068	city	4	1	0.614145	0.614145	0	1	0	0	CorrectCommission	0.332731	0.861124	0
60.944824	0.795783	mountain	7	1	0.549793	0.549793	0	0	1	0	CommissionError	0.710637	0.768486	1
61.740620	0.795810	city	2	1	0.671265	0.671265	0	1	0	0	CorrectCommission	0.002707	0.679812	1
62.536430	0.795813	city	10	1	0.652248	0.652248	0	1	0	0	CorrectCommission	0.108971	0.599505	1
63.332085	0.795498	city	8	1	0.705034	0.705034	0	1	0	0	CorrectCommission	0.201013	0.530990	1
64.127708	0.795740	city	2	1	0.652838	0.652838	0	1	0	0	CorrectCommission	0.105508	0.476473	1
64.923645	0.796142	city	10	1	0.649524	0.649524	0	1	0	0	CorrectCommission	0.124971	0.436943	1
65.719627	0.795815	mountain	10	0	0.000000	0.659515	1	0	0	0	CorrectOmission	0.066297	0.412210	1
66.515266	0.795461	city	2	1	0.650494	0.650494	0	1	0	0	CorrectCommission	0.119270	0.401128	1
67.310890	0.795791	mountain	3	0	0.000000	0.590145	1	0	0	0	CorrectOmission	0.473671	0.401804	1
68.106728	0.795885	city	3	1	0.599043	0.599043	0	1	0	0	CorrectCommission	0.421417	0.411907	1
68.902702	0.796068	city	5	1	0.797764	0.797764	0	1	0	0	CorrectCommission	0.745574	0.428932	1
69.698456	0.795441	city	1	1	0.651303	0.651303	0	1	0	0	CorrectCommission	0.114523	0.450440	1
70.494133	0.795908	city	8	1	0.598885	0.598885	0	1	0	0	CorrectCommission	0.422347	0.474293	1
71.289986	0.795792	city	6	1	0.549163	0.549163	0	1	0	0	CorrectCommission	0.714341	0.498628	1
72.085762	0.795761	city	4	1	0.549379	0.549379	0	1	0	0	CorrectCommission	0.713070	0.521995	1
72.881561	0.795837	city	10	1	0.565844	0.565844	0	1	0	0	CorrectCommission	0.616379	0.543384	1
73.677383	0.795808	city	5	1	0.599475	0.599475	0	1	0	0	CorrectCommission	0.418881	0.562139	1
74.473183	0.795789	city	2	1	0.508680	0.508680	0	1	0	0	CorrectCommission	0.952077	0.577904	1
75.269119	0.796084	city	3	1	0.797737	0.797737	0	1	0	0	CorrectCommission	0.745411	0.590513	1
76.064896	0.795477	city	2	1	0.648158	0.648158	0	1	0	0	CorrectCommission	0.132990	0.599993	1
76.860542	0.795815	city	7	1	0.561335	0.561335	0	1	0	0	CorrectCommission	0.642859	0.606453	1
77.656502	0.796106	city	4	1	0.599138	0.599138	0	1	0	0	CorrectCommission	0.420859	0.610015	1
78.452301	0.795498	mountain	5	1	0.407261	0.407261	0	0	1	0	CommissionError	1.547658	0.610851	1
79.247925	0.795744	city	8	1	0.652694	0.652694	0	1	0	0	CorrectCommission	0.106355	0.609124	1
80.043747	0.795895	city	7	1	0.564061	0.564061	0	1	0	0	CorrectCommission	0.626851	0.605175	1
80.839561	0.795732	city	5	1	0.563095	0.563095	0	1	0	0	CorrectCommission	0.632523	0.599342	1
81.635345	0.795841	city	2	1	0.553456	0.553456	0	1	0	0	CorrectCommission	0.689128	0.592092	1
82.431305	0.796079	city	4	1	0.599758	0.599758	0	1	0	0	CorrectCommission	0.417220	0.583987	1
83.227249	0.795811	city	3	1	0.499130	0.499130	0	1	0	0	CorrectCommission	1.008155	0.575712	1
84.022911	0.795514	city	10	1	0.598746	0.598746	0	1	0	0	CorrectCommission	0.423163	0.567977	1
84.818726	0.796112	city	4	1	0.550455	0.550455	0	1	0	0	CorrectCommission	0.706753	0.561518	1
85.614548	0.795524	city	10	1	0.598601	0.598601	0	1	0	0	CorrectCommission	0.424014	0.556964	1
86.410187	0.795755	city	6	1	0.748255	0.748255	0	1	0	0	CorrectCommission	0.454831	0.554786	1
87.206108	0.796092	city	9	1	0.698349	0.698349	0	1	0	0	CorrectCommission	0.161757	0.555204	1
88.002075	0.795836	city	10	1	0.606057	0.606057	0	1	0	0	CorrectCommission	0.380227	0.558156	1
88.797722	0.795464	city	6	1	0.648178	0.648178	0	1	0	0	CorrectCommission	0.132872	0.563229	1
89.593346	0.795788	city	9	1	0.550373	0.550373	0	1	0	0	CorrectCommission	0.707233	0.569752	1
90.389175	0.795868	mountain	1	1	0.456394	0.456394	0	0	1	0	CommissionError	1.259123	0.576816	1
91.184998	0.795771	city	4	1	0.605530	0.605530	0	1	0	0	CorrectCommission	0.383321	0.583401	1
91.980919	0.796077	city	7	1	0.506084	0.506084	0	1	0	0	CorrectCommission	0.967319	0.588510	1
92.776718	0.795514	city	2	1	0.599445	0.599445	0	1	0	0	CorrectCommission	0.419056	0.591192	1
93.572372	0.795799	city	7	1	0.599298	0.599298	0	1	0	0	CorrectCommission	0.419921	0.590726	1
94.368179	0.795814	city	8	1	0.698384	0.698384	0	1	0	0	CorrectCommission	0.161960	0.586593	1
95.163994	0.795825	city	3	1	0.906152	0.906152	0	1	0	0	CorrectCommission	1.382081	0.578571	1
95.959793	0.795768	city	10	1	0.848423	0.848423	0	1	0	0	CorrectCommission	1.043069	0.566609	1
96.755730	0.796096	city	1	1	0.811130	0.811130	0	1	0	0	CorrectCommission	0.824066	0.551001	1
97.551544	0.795540	city	8	1	0.664150	0.664150	0	1	0	0	CorrectCommission	0.039074	0.532214	1
98.347359	0.796089	city	5	1	0.598929	0.598929	0	1	0	0	CorrectCommission	0.422090	0.510882	1
99.143120	0.795435	city	3	1	0.608424	0.608424	0	1	0	0	CorrectCommission	0.366330	0.487670	1
99.938789	0.795910	city	7	1	0.714763	0.714763	0	1	0	0	CorrectCommission	0.258149	0.463305	1
100.734779	0.796068	city	8	1	0.599068	0.599068	0	1	0	0	CorrectCommission	0.421273	0.438468	1
101.530571	0.795519	city	10	1	0.549065	0.549065	0	1	0	0	CorrectCommission	0.714912	0.413840	1
102.326370	0.796068	city	3	1	0.599154	0.599154	0	1	0	0	CorrectCommission	0.420765	0.390059	1
103.122169	0.795542	city	6	1	0.804607	0.804607	0	1	0	0	CorrectCommission	0.785759	0.367757	1
103.917847	0.795799	city	5	1	0.702823	0.702823	0	1	0	0	CorrectCommission	0.188029	0.347524	1
104.713623	0.795752	city	1	1	0.660683	0.660683	0	1	0	0	CorrectCommission	0.059435	0.329967	1
105.509422	0.795860	city	3	1	0.648596	0.648596	0	1	0	0	CorrectCommission	0.130419	0.315597	1
106.305214	0.795711	city	9	1	0.660691	0.660691	0	1	0	0	CorrectCommission	0.059390	0.304861	1
107.101006	0.795880	city	6	1	0.665029	0.665029	0	1	0	0	CorrectCommission	0.033916	0.298091	1
107.896835	0.795775	city	3	1	0.613062	0.613062	0	1	0	0	CorrectCommission	0.339091	0.295469	1
108.692627	0.795816	city	2	1	0.601318	0.601318	0	1	0	0	CorrectCommission	0.408061	0.297055	1
109.488564	0.796058	mountain	7	0	0.000000	0.589192	1	0	0	0	CorrectOmission	0.479270	0.302764	1
110.284363	0.795530	city	8	1	0.598908	0.598908	0	1	0	0	CorrectCommission	0.422211	0.312362	1
111.080040	0.795834	city	7	1	0.652690	0.652690	0	1	0	0	CorrectCommission	0.106376	0.325475	1
111.875809	0.795704	city	6	1	0.667767	0.667767	0	1	0	0	CorrectCommission	0.017834	0.341586	1
112.671570	0.795817	city	7	1	0.655518	0.655518	0	1	0	0	CorrectCommission	0.089768	0.360002	1
113.467377	0.795793	mountain	4	0	0.000000	0.591526	1	0	0	0	CorrectOmission	0.465562	0.379907	1
114.263336	0.796130	city	5	1	0.599231	0.599231	0	1	0	0	CorrectCommission	0.420313	0.400396	1
115.059425	0.796049	city	7	1	0.802074	0.802074	0	1	0	0	CorrectCommission	0.770883	0.420576	1
115.855232	0.795551	city	5	1	0.648763	0.648763	0	1	0	0	CorrectCommission	0.129437	0.439611	1
116.650917	0.795827	city	3	1	0.555530	0.555530	0	1	0	0	CorrectCommission	0.676949	0.456813	1
117.446724	0.795781	city	10	1	0.551010	0.551010	0	1	0	0	CorrectCommission	0.703495	0.471654	1
118.242348	0.795471	city	1	1	0.611660	0.611660	0	1	0	0	CorrectCommission	0.347327	0.483896	1
119.038162	0.796150	city	7	1	0.567910	0.567910	0	1	0	0	CorrectCommission	0.604245	0.493594	1
119.834122	0.795772	city	10	1	0.508790	0.508790	0	1	0	0	CorrectCommission	0.951428	0.501079	1
120.629921	0.795829	city	3	1	0.606035	0.606035	0	1	0	0	CorrectCommission	0.380361	0.506901	1
121.425606	0.795537	city	2	1	0.565924	0.565924	0	1	0	0	CorrectCommission	0.615910	0.511807	1
122.221245	0.795744	city	8	1	0.748262	0.748262	0	1	0	0	CorrectCommission	0.454868	0.516546	1
123.017181	0.796130	city	7	1	0.699070	0.699070	0	1	0	0	CorrectCommission	0.165993	0.521776	1
123.813148	0.795800	city	10	1	0.698315	0.698315	0	1	0	0	CorrectCommission	0.161558	0.527959	1
124.608810	0.795526	city	9	1	0.549028	0.549028	0	1	0	0	CorrectCommission	0.715130	0.535214	1
125.404488	0.795826	city	1	1	0.599774	0.599774	0	1	0	0	CorrectCommission	0.417124	0.543287	1
126.200424	0.796049	city	10	1	0.499661	0.499661	0	1	0	0	CorrectCommission	1.005041	0.551611	1
126.996201	0.795507	city	6	1	0.748068	0.748068	0	1	0	0	CorrectCommission	0.453732	0.559288	1
127.791855	0.795797	city	10	1	0.603971	0.603971	0	1	0	0	CorrectCommission	0.392477	0.565290	1
128.587662	0.795816	city	5	1	0.715058	0.715058	0	1	0	0	CorrectCommission	0.259879	0.568568	1
129.383606	0.796066	city	2	1	0.615340	0.615340	0	1	0	0	CorrectCommission	0.325712	0.568263	1
130.179550	0.795827	city	10	1	0.563423	0.563423	0	1	0	0	CorrectCommission	0.630596	0.563893	1
130.975189	0.795465	city	3	1	0.998618	0.998618	0	1	0	0	CorrectCommission	1.925088	0.555454	1
131.770859	0.795856	mountain	5	0	0.000000	0.877703	1	0	0	0	CorrectOmission	1.215017	0.543484	1
132.566681	0.795805	city	4	1	0.608473	0.608473	0	1	0	0	CorrectCommission	0.366041	0.529141	1
133.362503	0.795818	city	1	1	0.598720	0.598720	0	1	0	0	CorrectCommission	0.423316	0.514061	1
134.158264	0.795713	city	7	1	0.698295	0.698295	0	1	0	0	CorrectCommission	0.161438	0.500067	1
134.954071	0.795899	city	4	1	0.652506	0.652506	0	1	0	0	CorrectCommission	0.107457	0.488960	1
135.749908	0.795773	city	6	1	0.698289	0.698289	0	1	0	0	CorrectCommission	0.161403	0.482252	1
136.545837	0.796086	city	1	1	0.706123	0.706123	0	1	0	0	CorrectCommission	0.207410	0.480923	1
137.341766	0.795780	city	7	1	0.699285	0.699285	0	1	0	0	CorrectCommission	0.167255	0.485270	1
138.137405	0.795510	city	6	1	0.648275	0.648275	0	1	0	0	CorrectCommission	0.132305	0.494881	1
138.933044	0.795759	city	3	1	0.549106	0.549106	0	1	0	0	CorrectCommission	0.714674	0.508656	1
139.728867	0.795879	city	7	1	0.653358	0.653358	0	1	0	0	CorrectCommission	0.102455	0.524983	1
140.524689	0.795770	city	1	1	0.549967	0.549967	0	1	0	0	CorrectCommission	0.709619	0.542022	1
141.320480	0.795814	city	9	1	0.450709	0.450709	0	1	0	0	CorrectCommission	1.292514	0.557857	1
142.116302	0.795828	city	2	1	0.500568	0.500568	0	1	0	0	CorrectCommission	0.999712	0.570785	1
142.912109	0.795789	mountain	6	0	0.000000	0.532509	1	0	0	0	CorrectOmission	0.812140	0.579589	1
143.707916	0.795830	city	10	1	0.598779	0.598779	0	1	0	0	CorrectCommission	0.422967	0.583605	1
144.503677	0.795701	mountain	2	0	0.000000	0.751629	1	0	0	0	CorrectOmission	0.474643	0.582812	1
145.299484	0.795897	city	7	1	0.851921	0.851921	0	1	0	0	CorrectCommission	1.063610	0.577791	1
146.095322	0.795773	city	3	1	0.760520	0.760520	0	1	0	0	CorrectCommission	0.526854	0.569611	1
146.891251	0.796096	city	7	1	0.664326	0.664326	0	1	0	0	CorrectCommission	0.038046	0.559777	1
147.687057	0.795508	city	4	1	0.608744	0.608744	0	1	0	0	CorrectCommission	0.364449	0.550006	1
148.482712	0.795807	city	7	0	0.000000	0.528363	0	0	0	1	OmissionError	0.836489	0.542009	1
149.278641	0.796060	city	9	1	0.503184	0.503184	0	1	0	0	CorrectCommission	0.984354	0.537398	1
150.074600	0.795839	city	1	1	0.613209	0.613209	0	1	0	0	CorrectCommission	0.338230	0.537561	1
150.870407	0.795783	mountain	9	0	0.000000	0.691510	1	0	0	0	CorrectOmission	0.121593	0.543502	1
151.666061	0.795519	city	7	1	0.699911	0.699911	0	1	0	0	CorrectCommission	0.170928	0.555726	1
152.461853	0.796088	city	3	1	0.600236	0.600236	0	1	0	0	CorrectCommission	0.414412	0.574201	1
153.257675	0.795549	city	10	1	0.599020	0.599020	0	1	0	0	CorrectCommission	0.421552	0.598355	1
154.053467	0.796019	city	2	1	0.652204	0.652204	0	1	0	0	CorrectCommission	0.109232	0.627154	1
154.849396	0.795839	city	8	1	0.549038	0.549038	0	1	0	0	CorrectCommission	0.715072	0.659289	1
155.645065	0.795509	city	3	1	0.466134	0.466134	0	1	0	0	CorrectCommission	1.201930	0.693247	1
156.440735	0.795821	city	4	1	0.549284	0.549284	0	1	0	0	CorrectCommission	0.713629	0.727523	1
157.236664	0.796058	city	7	1	0.549094	0.549094	0	1	0	0	CorrectCommission	0.714744	0.760878	1
158.032440	0.795472	city	8	1	0.507174	0.507174	0	1	0	0	CorrectCommission	0.960918	0.792406	0
158.828079	0.795824	city	10	1	0.449605	0.449605	0	1	0	0	CorrectCommission	1.298991	0.821573	0
159.623886	0.795776	city	9	1	0.500077	0.500077	0	1	0	0	CorrectCommission	1.002595	0.848252	0
160.419846	0.796145	city	6	1	0.470986	0.470986	0	1	0	0	CorrectCommission	1.173431	0.872628	0
161.215652	0.795460	city	1	1	0.550232	0.550232	0	1	0	0	CorrectCommission	0.708062	0.894991	0
162.011322	0.795889	city	8	1	0.500253	0.500253	0	1	0	0	CorrectCommission	1.001563	0.915570	0
162.807144	0.795751	city	7	1	0.598754	0.598754	0	1	0	0	CorrectCommission	0.423113	0.934290	0
163.602921	0.795808	city	5	1	0.610970	0.610970	0	1	0	0	CorrectCommission	0.351374	0.950710	0
164.398697	0.795760	city	6	1	0.568122	0.568122	0	1	0	0	CorrectCommission	0.603002	0.963930	0
165.194504	0.795840	city	5	1	0.451821	0.451821	0	1	0	0	CorrectCommission	1.285980	0.972677	0
165.990326	0.795812	city	4	1	0.450519	0.450519	0	1	0	0	CorrectCommission	1.293628	0.975480	0
166.786148	0.795820	city	2	1	0.449616	0.449616	0	1	0	0	CorrectCommission	1.298930	0.970992	0
167.581970	0.795826	city	1	1	0.409832	0.409832	0	1	0	0	CorrectCommission	1.532559	0.958330	0
168.377777	0.795784	city	5	1	0.452370	0.452370	0	1	0	0	CorrectCommission	1.282756	0.937341	0
169.173706	0.796068	city	7	1	0.549172	0.549172	0	1	0	0	CorrectCommission	0.714284	0.908823	0
169.969635	0.795809	city	6	1	0.316932	0.316932	0	1	0	0	CorrectCommission	2.078119	0.874597	0
170.765305	0.795513	city	3	1	0.449573	0.449573	0	1	0	0	CorrectCommission	1.299182	0.837341	0
171.561111	0.796104	city	4	1	0.598851	0.598851	0	1	0	0	CorrectCommission	0.422548	0.800484	0
172.356918	0.795509	city	3	1	0.649114	0.649114	0	1	0	0	CorrectCommission	0.127374	0.767722	1
173.152557	0.795783	city	2	1	0.765516	0.765516	0	1	0	0	CorrectCommission	0.556193	0.742523	1
173.948364	0.795827	city	8	1	0.670337	0.670337	0	1	0	0	CorrectCommission	0.002744	0.727631	1
174.744324	0.796087	city	9	1	0.702017	0.702017	0	1	0	0	CorrectCommission	0.183298	0.724715	1
175.540253	0.795772	city	8	1	0.697919	0.697919	0	1	0	0	CorrectCommission	0.159233	0.734035	1
176.335907	0.795544	city	6	1	0.652517	0.652517	0	1	0	0	CorrectCommission	0.107395	0.754339	1
177.131592	0.795816	city	9	1	0.650313	0.650313	0	1	0	0	CorrectCommission	0.120336	0.783012	1
177.927353	0.795713	city	3	1	0.848420	0.848420	0	1	0	0	CorrectCommission	1.043050	0.816364	0
178.723129	0.795845	city	10	1	0.906788	0.906788	0	1	0	0	CorrectCommission	1.385816	0.850097	0
179.518951	0.795801	city	8	1	0.897805	0.897805	0	1	0	0	CorrectCommission	1.333064	0.879860	0
180.314774	0.795825	city	5	1	0.947043	0.947043	0	1	0	0	CorrectCommission	1.622213	0.901812	0
181.110596	0.795821	city	1	1	0.911505	0.911505	0	1	0	0	CorrectCommission	1.413518	0.913045	0
181.906387	0.795765	city	7	1	0.851442	0.851442	0	1	0	0	CorrectCommission	1.060798	0.911926	0
182.702133	0.795742	city	3	1	0.947020	0.947020	0	1	0	0	CorrectCommission	1.622078	0.898204	0
183.497955	0.795895	city	8	1	0.947950	0.947950	0	1	0	0	CorrectCommission	1.627538	0.872915	0
184.293777	0.795750	city	3	1	0.848225	0.848225	0	1	0	0	CorrectCommission	1.041904	0.838215	0
185.089722	0.796129	city	6	1	0.748078	0.748078	0	1	0	0	CorrectCommission	0.453790	0.797021	0
185.885544	0.795514	city	4	1	0.698692	0.698692	0	1	0	0	CorrectCommission	0.163773	0.752578	1
186.681213	0.795825	city	9	1	0.660314	0.660314	0	1	0	0	CorrectCommission	0.061602	0.708134	1
187.477005	0.795767	city	4	1	0.698962	0.698962	0	1	0	0	CorrectCommission	0.165356	0.666542	1
188.272797	0.795811	city	9	1	0.798021	0.798021	0	1	0	0	CorrectCommission	0.747082	0.630132	1
189.068573	0.795744	city	5	1	0.649989	0.649989	0	1	0	0	CorrectCommission	0.122241	0.600599	1
189.864334	0.795777	city	2	1	0.599904	0.599904	0	1	0	0	CorrectCommission	0.416362	0.579116	1
190.660172	0.795892	city	9	1	0.913731	0.913731	0	1	0	0	CorrectCommission	1.426587	0.566333	1
191.456009	0.795781	city	10	1	0.807563	0.807563	0	1	0	0	CorrectCommission	0.803116	0.562518	1
192.251785	0.795791	city	4	1	0.762455	0.762455	0	1	0	0	CorrectCommission	0.538219	0.567755	1
193.047577	0.795795	city	8	1	0.703463	0.703463	0	1	0	0	CorrectCommission	0.191790	0.581888	1
193.843399	0.795852	city	5	1	0.714812	0.714812	0	1	0	0	CorrectCommission	0.258437	0.604561	1
194.639359	0.796046	mountain	1	0	0.000000	0.692108	1	0	0	0	CorrectOmission	0.125104	0.635173	1
195.435272	0.795800	city	5	1	0.649062	0.649062	0	1	0	0	CorrectCommission	0.127682	0.672800	1
196.230988	0.795614	city	10	1	0.599388	0.599388	0	1	0	0	CorrectCommission	0.419391	0.716184	1
197.026642	0.795713	city	6	1	0.548968	0.548968	0	1	0	0	CorrectCommission	0.715482	0.763722	1
197.822418	0.795827	city	5	1	0.456744	0.456744	0	1	0	0	CorrectCommission	1.257072	0.813507	0
198.618225	0.795781	city	3	1	0.499624	0.499624	0	1	0	0	CorrectCommission	1.005254	0.863431	0
199.414017	0.795822	city	9	1	0.451253	0.451253	0	1	0	0	CorrectCommission	1.289316	0.911314	0
200.209824	0.795790	city	1	1	0.449915	0.449915	0	1	0	0	CorrectCommission	1.297174	0.954959	0
201.005768	0.796076	city	6	1	0.549099	0.549099	0	1	0	0	CorrectCommission	0.714716	0.992327	0
201.801544	0.795499	city	5	1	0.450017	0.450017	0	1	0	0	CorrectCommission	1.296577	1.021624	0
202.597198	0.795783	city	2	1	0.449934	0.449934	0	1	0	0	CorrectCommission	1.297065	1.041336	0
203.393021	0.795869	city	3	1	0.450352	0.450352	0	1	0	0	CorrectCommission	1.294605	1.050346	0
204.188828	0.795739	city	5	1	0.562791	0.562791	0	1	0	0	CorrectCommission	0.634308	1.047973	0
204.984573	0.795763	city	10	1	0.499431	0.499431	0	1	0	0	CorrectCommission	1.006389	1.034040	0
205.780380	0.795861	city	5	1	0.402443	0.402443	0	1	0	0	CorrectCommission	1.575951	1.008884	0
206.576218	0.795821	city	6	1	0.461832	0.461832	0	1	0	0	CorrectCommission	1.227188	0.973449	0
207.372025	0.795777	city	4	1	0.997072	0.997072	0	1	0	0	CorrectCommission	1.916010	0.929287	0
208.167953	0.796091	city	7	1	0.866873	0.866873	0	1	0	0	CorrectCommission	1.151415	0.878463	0
208.963730	0.795450	city	5	1	0.802189	0.802189	0	1	0	0	CorrectCommission	0.771559	0.823623	0
209.759415	0.795910	city	4	1	0.798845	0.798845	0	1	0	0	CorrectCommission	0.751920	0.767767	1
210.555237	0.795750	city	3	1	0.656551	0.656551	0	1	0	0	CorrectCommission	0.083703	0.713998	1
211.351013	0.795809	city	7	1	0.619582	0.619582	0	1	0	0	CorrectCommission	0.300803	0.665444	1
212.146820	0.795792	city	10	1	0.648925	0.648925	0	1	0	0	CorrectCommission	0.128486	0.624895	1
212.942612	0.795808	city	4	1	0.711429	0.711429	0	1	0	0	CorrectCommission	0.238567	0.594688	1
213.738571	0.796096	city	5	1	0.798566	0.798566	0	1	0	0	CorrectCommission	0.750279	0.576484	1
214.534378	0.795531	city	4	1	0.752607	0.752607	0	1	0	0	CorrectCommission	0.480388	0.571197	1
215.330032	0.795772	city	7	1	0.649398	0.649398	0	1	0	0	CorrectCommission	0.125707	0.578948	1
216.125839	0.795828	city	1	1	0.798096	0.798096	0	1	0	0	CorrectCommission	0.747521	0.599057	1
216.921646	0.795778	city	4	1	0.698576	0.698576	0	1	0	0	CorrectCommission	0.163090	0.630025	1
217.717422	0.795802	mountain	10	1	0.698403	0.698403	0	0	1	0	CommissionError	0.162071	0.669702	1
218.513229	0.795796	city	5	1	0.599820	0.599820	0	1	0	0	CorrectCommission	0.416856	0.715363	1
219.309174	0.796083	city	10	1	0.798458	0.798458	0	1	0	0	CorrectCommission	0.749648	0.763867	1
220.104996	0.795563	city	3	1	0.549063	0.549063	0	1	0	0	CorrectCommission	0.714924	0.811883	0
220.900650	0.795752	city	8	1	0.402657	0.402657	0	1	0	0	CorrectCommission	1.574697	0.856148	0
221.696411	0.795770	city	3	1	1.009749	1.009749	0	1	0	0	CorrectCommission	1.990454	0.893691	0
222.492233	0.795887	city	5	1	0.802550	0.802550	0	1	0	0	CorrectCommission	0.773679	0.922113	0
223.288071	0.795772	city	4	1	0.598802	0.598802	0	1	0	0	CorrectCommission	0.422836	0.939799	0
224.083817	0.795738	city	9	1	0.450497	0.450497	0	1	0	0	CorrectCommission	1.293758	0.946051	0
224.879593	0.795813	city	4	1	0.998393	0.998393	0	1	0	0	CorrectCommission	1.923767	0.941162	0
225.675430	0.795855	city	10	1	0.698369	0.698369	0	1	0	0	CorrectCommission	0.161876	0.926515	0
226.471405	0.796080	city	6	1	1.006357	1.006357	0	1	0	0	CorrectCommission	1.970537	0.904598	0
227.267227	0.795568	city	10	1	0.904611	0.904611	0	1	0	0	CorrectCommission	1.373032	0.878624	0
228.062897	0.795789	city	7	1	0.856599	0.856599	0	1	0	0	CorrectCommission	1.091083	0.852477	0
228.858688	0.795789	city	2	1	0.699003	0.699003	0	1	0	0	CorrectCommission	0.165598	0.830261	0
229.654465	0.795765	city	3	1	0.615290	0.615290	0	1	0	0	CorrectCommission	0.326010	0.815885	0
230.450409	0.796123	city	10	1	0.609587	0.609587	0	1	0	0	CorrectCommission	0.359499	0.812643	0
231.246201	0.795459	city	6	1	0.716503	0.716503	0	1	0	0	CorrectCommission	0.268366	0.822857	0
232.041840	0.795827	city	10	1	0.709930	0.709930	0	1	0	0	CorrectCommission	0.229769	0.847654	0
232.837646	0.795770	city	9	1	0.748430	0.748430	0	1	0	0	CorrectCommission	0.455860	0.886832	0
233.633423	0.795782	city	7	1	0.601757	0.601757	0	1	0	0	CorrectCommission	0.405479	0.938926	0
234.429245	0.795882	city	8	1	0.549213	0.549213	0	1	0	0	CorrectCommission	0.714047	1.001478	0
235.225098	0.795822	city	9	1	0.549927	0.549927	0	1	0	0	CorrectCommission	0.709855	1.071287	0
236.020905	0.795771	city	4	1	0.462983	0.462983	0	1	0	0	CorrectCommission	1.220433	1.144880	0
236.816696	0.795812	city	8	1	0.996670	0.996670	0	1	0	0	CorrectCommission	1.913648	1.218851	0
237.612625	0.796063	mountain	2	0	0.000000	1.132138	1	0	0	0	CorrectOmission	2.709183	1.290217	0
238.408386	0.795461	mountain	1	0	0.000000	1.045755	1	0	0	0	CorrectOmission	2.201903	1.356678	0
239.204071	0.795888	city	7	1	0.913892	0.913892	0	1	0	0	CorrectCommission	1.427537	1.416674	0
239.999908	0.795802	city	8	1	0.912918	0.912918	0	1	0	0	CorrectCommission	1.421813	1.469319	0
240.795700	0.795768	city	6	1	0.815122	0.815122	0	1	0	0	CorrectCommission	0.847508	1.514249	0
241.591507	0.795845	city	10	1	0.798912	0.798912	0	1	0	0	CorrectCommission	0.752314	1.551447	0
242.387299	0.795760	city	9	1	0.897338	0.897338	0	1	0	0	CorrectCommission	1.330319	1.581118	0
243.183075	0.795782	city	1	1	0.901648	0.901648	0	1	0	0	CorrectCommission	1.355630	1.603652	0
243.978851	0.795765	city	6	1	1.096357	1.096357	0	1	0	0	CorrectCommission	2.499059	1.619582	0
244.774658	0.795863	city	4	1	0.947285	0.947285	0	1	0	0	CorrectCommission	1.623633	1.629646	0
245.570511	0.795844	city	7	1	1.096941	1.096941	0	1	0	0	CorrectCommission	2.502493	1.634913	0
246.366302	0.795720	city	8	1	1.096395	1.096395	0	1	0	0	CorrectCommission	2.499282	1.636660	0
247.162094	0.795878	city	6	1	1.096297	1.096297	0	1	0	0	CorrectCommission	2.498712	1.636356	0
247.957916	0.795754	city	8	1	0.857209	0.857209	0	1	0	0	CorrectCommission	1.094664	1.635462	0
248.753677	0.795769	mountain	6	0	0.000000	0.890055	1	0	0	0	CorrectOmission	1.287554	1.635203	0
249.549500	0.795878	city	2	1	0.914188	0.914188	0	1	0	0	CorrectCommission	1.429274	1.636166	0
250.345474	0.796065	city	5	1	0.648960	0.648960	0	1	0	0	CorrectCommission	0.128282	1.638096	0
251.141281	0.795551	city	2	1	0.598551	0.598551	0	1	0	0	CorrectCommission	0.424306	1.639841	0
251.936935	0.795755	city	4	1	0.562321	0.562321	0	1	0	0	CorrectCommission	0.637068	1.639296	0
252.732697	0.795776	mountain	10	1	0.466118	0.466118	0	0	1	0	CommissionError	1.202021	1.633729	0
253.528641	0.796116	city	4	1	1.355322	1.355322	0	1	0	0	CorrectCommission	4.019835	1.620156	0
254.324463	0.795539	mountain	3	0	0.000000	1.431871	1	0	0	0	CorrectOmission	4.469369	1.595785	0
255.120132	0.795788	city	8	1	1.145945	1.145945	0	1	0	0	CorrectCommission	2.790265	1.558599	0
255.915924	0.795788	city	9	1	0.947722	0.947722	0	1	0	0	CorrectCommission	1.626204	1.507691	0
256.711700	0.795792	city	3	1	0.698392	0.698392	0	1	0	0	CorrectCommission	0.162009	1.443375	0
257.507507	0.795776	city	5	1	0.553083	0.553083	0	1	0	0	CorrectCommission	0.691322	1.367145	0
258.303314	0.795858	city	9	1	0.568026	0.568026	0	1	0	0	CorrectCommission	0.603566	1.281498	0
259.099274	0.796085	city	2	1	0.471451	0.471451	0	1	0	0	CorrectCommission	1.170702	1.189727	0
259.895050	0.795453	city	6	1	1.011618	1.011618	0	1	0	0	CorrectCommission	2.001434	1.095552	0
260.690735	0.795887	city	10	1	0.996811	0.996811	0	1	0	0	CorrectCommission	1.914476	1.002883	0
261.486694	0.796057	mountain	4	0	0.000000	0.811957	1	0	0	0	CorrectOmission	0.828922	0.915471	0
262.282440	0.795448	city	3	1	0.648741	0.648741	0	1	0	0	CorrectCommission	0.129567	0.836773	0
263.078247	0.796139	city	10	1	0.698845	0.698845	0	1	0	0	CorrectCommission	0.164672	0.769653	1
263.874084	0.795517	city	3	1	0.703728	0.703728	0	1	0	0	CorrectCommission	0.193346	0.716200	1
264.669739	0.795799	city	9	1	0.705103	0.705103	0	1	0	0	CorrectCommission	0.201418	0.677668	1
265.465515	0.795799	city	8	1	0.700399	0.700399	0	1	0	0	CorrectCommission	0.173795	0.654455	1
266.261353	0.795823	city	6	1	0.608099	0.608099	0	1	0	0	CorrectCommission	0.368237	0.646080	1
267.057129	0.795772	city	1	1	0.549724	0.549724	0	1	0	0	CorrectCommission	0.711045	0.651298	1
267.852936	0.795830	city	6	1	0.559417	0.559417	0	1	0	0	CorrectCommission	0.654120	0.668242	1
268.648773	0.795818	city	4	1	0.653181	0.653181	0	1	0	0	CorrectCommission	0.103494	0.694599	1
269.444702	0.796054	city	1	1	0.514077	0.514077	0	1	0	0	CorrectCommission	0.920381	0.727783	1
270.240479	0.795537	city	2	1	0.461388	0.461388	0	1	0	0	CorrectCommission	1.229796	0.765048	1
271.036163	0.795822	city	6	1	0.549389	0.549389	0	1	0	0	CorrectCommission	0.713009	0.803668	0
271.831970	0.795782	city	5	1	0.503379	0.503379	0	1	0	0	CorrectCommission	0.983207	0.841113	0
272.627747	0.795738	city	2	1	0.602779	0.602779	0	1	0	0	CorrectCommission	0.399481	0.875149	0
273.423523	0.795845	city	8	1	0.450733	0.450733	0	1	0	0	CorrectCommission	1.292369	0.903962	0
274.219330	0.795754	city	10	1	0.450776	0.450776	0	1	0	0	CorrectCommission	1.292117	0.926177	0
275.015106	0.795838	city	2	1	0.467955	0.467955	0	1	0	0	CorrectCommission	1.191236	0.940936	0
275.810913	0.795765	city	10	1	0.364894	0.364894	0	1	0	0	CorrectCommission	1.796457	0.947921	0
276.606750	0.795873	city	3	1	0.599731	0.599731	0	1	0	0	CorrectCommission	0.417377	0.947337	0
277.402557	0.795767	city	8	1	0.599103	0.599103	0	1	0	0	CorrectCommission	0.421064	0.939996	0
278.198364	0.795818	city	6	1	0.464068	0.464068	0	1	0	0	CorrectCommission	1.214058	0.927175	0
278.994141	0.795754	city	10	1	0.500334	0.500334	0	1	0	0	CorrectCommission	1.001085	0.910607	0
279.789948	0.795854	city	1	1	0.410085	0.410085	0	1	0	0	CorrectCommission	1.531076	0.892447	0
280.585785	0.795805	city	9	1	0.450023	0.450023	0	1	0	0	CorrectCommission	1.296541	0.875024	0
281.381592	0.795822	city	1	1	0.599753	0.599753	0	1	0	0	CorrectCommission	0.417250	0.860750	0
282.177368	0.795771	city	4	1	0.500019	0.500019	0	1	0	0	CorrectCommission	1.002935	0.851805	0
282.973175	0.795833	mountain	10	1	0.649144	0.649144	0	0	1	0	CommissionError	0.127201	0.849820	0
283.768982	0.795784	city	5	1	0.749207	0.749207	0	1	0	0	CorrectCommission	0.460418	0.855771	0
284.564789	0.795806	city	9	1	0.748054	0.748054	0	1	0	0	CorrectCommission	0.453648	0.869688	0
285.360596	0.795790	city	8	1	0.648507	0.648507	0	1	0	0	CorrectCommission	0.130943	0.890662	0
286.156372	0.795793	city	4	1	0.549317	0.549317	0	1	0	0	CorrectCommission	0.713438	0.916926	0
286.952148	0.795745	city	10	1	0.501833	0.501833	0	1	0	0	CorrectCommission	0.992287	0.945959	0
287.747955	0.795855	city	5	1	0.499491	0.499491	0	1	0	0	CorrectCommission	1.006038	0.974817	0
288.543915	0.796096	city	2	1	0.453306	0.453306	0	1	0	0	CorrectCommission	1.277262	1.000519	0
289.339752	0.795538	city	9	1	0.959478	0.959478	0	1	0	0	CorrectCommission	1.695239	1.020348	0
290.135406	0.795781	city	6	1	1.008067	1.008067	0	1	0	0	CorrectCommission	1.980578	1.032193	0
290.931183	0.795799	city	10	1	0.951779	0.951779	0	1	0	0	CorrectCommission	1.650029	1.034709	0
291.726990	0.795833	city	1	1	0.916013	0.916013	0	1	0	0	CorrectCommission	1.439990	1.027408	0
292.522827	0.795803	city	7	1	0.859281	0.859281	0	1	0	0	CorrectCommission	1.106831	1.010630	0
293.318573	0.795708	city	6	1	0.751428	0.751428	0	1	0	0	CorrectCommission	0.473465	0.985338	0
294.114532	0.796171	city	9	1	0.648982	0.648982	0	1	0	0	CorrectCommission	0.128154	0.952940	0
294.910370	0.795521	city	7	1	0.599081	0.599081	0	1	0	0	CorrectCommission	0.421195	0.915128	0
295.706024	0.795804	city	9	1	0.568665	0.568665	0	1	0	0	CorrectCommission	0.599811	0.873619	0
296.501953	0.796081	city	7	1	1.060847	1.060847	0	1	0	0	CorrectCommission	2.290527	0.830155	0
297.297729	0.795443	mountain	1	0	0.000000	0.912506	1	0	0	0	CorrectOmission	1.419393	0.786372	1
298.093353	0.795799	city	4	1	0.599885	0.599885	0	1	0	0	CorrectCommission	0.416472	0.743958	1
298.889191	0.795885	city	3	1	0.599229	0.599229	0	1	0	0	CorrectCommission	0.420328	0.704579	1
299.685028	0.795810	city	4	1	0.617511	0.617511	0	1	0	0	CorrectCommission	0.312963	0.669786	1
300.480804	0.795724	mountain	6	0	0.000000	0.592922	1	0	0	0	CorrectOmission	0.457363	0.641059	1
301.276611	0.795860	city	8	1	0.559088	0.559088	0	1	0	0	CorrectCommission	0.656053	0.619671	1
302.072418	0.795750	city	2	1	0.549637	0.549637	0	1	0	0	CorrectCommission	0.711558	0.606585	1
302.868195	0.795842	city	10	1	0.698563	0.698563	0	1	0	0	CorrectCommission	0.163013	0.602398	1
303.664032	0.795838	city	7	1	0.649383	0.649383	0	1	0	0	CorrectCommission	0.125799	0.607216	1
304.459839	0.795769	city	2	1	0.699083	0.699083	0	1	0	0	CorrectCommission	0.166069	0.620597	1
305.255615	0.795785	city	6	1	0.598798	0.598798	0	1	0	0	CorrectCommission	0.422856	0.641543	1
306.051422	0.795827	mountain	5	1	0.549086	0.549086	0	0	1	0	CommissionError	0.714792	0.668561	1
306.847198	0.795737	mountain	2	0	0.000000	0.715117	1	0	0	0	CorrectOmission	0.260225	0.699793	1
307.643005	0.795829	mountain	7	0	0.000000	0.911066	1	0	0	0	CorrectOmission	1.410937	0.733201	1
308.438843	0.795844	city	6	1	0.951108	0.951108	0	1	0	0	CorrectCommission	1.646083	0.766664	1
309.234619	0.795723	city	8	1	0.649417	0.649417	0	1	0	0	CorrectCommission	0.125596	0.798232	0
310.030396	0.795851	city	2	1	0.454188	0.454188	0	1	0	0	CorrectCommission	1.272080	0.826262	0
310.826233	0.795823	city	9	1	0.550505	0.550505	0	1	0	0	CorrectCommission	0.706459	0.849346	0
311.622162	0.796055	city	7	1	0.552345	0.552345	0	1	0	0	CorrectCommission	0.695655	0.866518	0
312.418121	0.795826	city	4	1	0.499211	0.499211	0	1	0	0	CorrectCommission	1.007681	0.877148	0
313.213928	0.795792	city	5	1	0.449597	0.449597	0	1	0	0	CorrectCommission	1.299040	0.880941	0
314.009583	0.795516	city	8	1	0.467866	0.467866	0	1	0	0	CorrectCommission	1.191754	0.877837	0
314.805389	0.796100	city	6	1	0.499402	0.499402	0	1	0	0	CorrectCommission	1.006559	0.868113	0
315.601288	0.795715	city	7	1	0.506553	0.506553	0	1	0	0	CorrectCommission	0.964569	0.852327	0
316.397095	0.795870	city	3	1	0.549784	0.549784	0	1	0	0	CorrectCommission	0.710689	0.831281	0
317.192749	0.795456	city	9	1	0.698976	0.698976	0	1	0	0	CorrectCommission	0.165437	0.806025	0
317.988403	0.795857	city	10	1	0.513535	0.513535	0	1	0	0	CorrectCommission	0.923566	0.777872	1
318.784210	0.795748	city	3	1	0.499890	0.499890	0	1	0	0	CorrectCommission	1.003693	0.748349	1
319.580017	0.795879	city	2	1	0.402291	0.402291	0	1	0	0	CorrectCommission	1.576844	0.719160	1
320.375854	0.795814	mountain	9	1	0.511941	0.511941	0	0	1	0	CommissionError	0.932923	0.692139	1
321.171631	0.795735	city	10	1	0.609787	0.609787	0	1	0	0	CorrectCommission	0.358326	0.669151	1
321.967407	0.795798	city	8	1	0.698292	0.698292	0	1	0	0	CorrectCommission	0.161421	0.651859	1
322.763367	0.796124	mountain	3	0	0.000000	0.700693	1	0	0	0	CorrectOmission	0.175524	0.641597	1
323.559204	0.795549	city	7	1	0.654912	0.654912	0	1	0	0	CorrectCommission	0.093327	0.639179	1
324.354858	0.795780	city	4	1	0.598869	0.598869	0	1	0	0	CorrectCommission	0.422440	0.644826	1
325.150635	0.795764	city	2	1	0.607650	0.607650	0	1	0	0	CorrectCommission	0.370874	0.658079	1
325.946411	0.795773	city	4	1	0.649087	0.649087	0	1	0	0	CorrectCommission	0.127537	0.677908	1
326.742249	0.795889	mountain	4	1	0.503256	0.503256	0	0	1	0	CommissionError	0.983929	0.702860	1
327.538086	0.795796	city	10	0	0.000000	0.419470	0	0	0	1	OmissionError	1.475965	0.731128	1
328.333862	0.795768	city	8	1	0.450493	0.450493	0	1	0	0	CorrectCommission	1.293782	0.760824	1
329.129791	0.796105	city	7	1	0.649090	0.649090	0	1	0	0	CorrectCommission	0.127515	0.790194	0
329.925629	0.795526	city	9	1	0.513378	0.513378	0	1	0	0	CorrectCommission	0.924488	0.817755	0
330.721252	0.795767	city	6	1	0.500771	0.500771	0	1	0	0	CorrectCommission	0.998523	0.842228	0
331.517212	0.796129	city	2	1	0.466423	0.466423	0	1	0	0	CorrectCommission	1.200232	0.862760	0
332.313049	0.795517	city	7	1	0.548728	0.548728	0	1	0	0	CorrectCommission	0.716891	0.878843	0
333.108673	0.795742	city	9	1	0.549142	0.549142	0	1	0	0	CorrectCommission	0.714459	0.890322	0
333.904602	0.796146	city	6	1	0.402761	0.402761	0	1	0	0	CorrectCommission	1.574088	0.897292	0
334.700592	0.795787	city	9	1	0.611202	0.611202	0	1	0	0	CorrectCommission	0.350012	0.900049	0
335.496185	0.795451	city	4	1	0.501619	0.501619	0	1	0	0	CorrectCommission	0.993544	0.899117	0
336.291870	0.795892	city	3	1	0.449632	0.449632	0	1	0	0	CorrectCommission	1.298836	0.895088	0
337.087708	0.795792	city	1	1	0.599046	0.599046	0	1	0	0	CorrectCommission	0.421398	0.888644	0
337.883453	0.795718	mountain	8	1	0.450018	0.450018	0	0	1	0	CommissionError	1.296566	0.880629	0
338.679230	0.795810	city	4	1	0.900038	0.900038	0	1	0	0	CorrectCommission	1.346177	0.871920	0
339.475067	0.795871	mountain	3	0	0.000000	0.788355	1	0	0	0	CorrectOmission	0.690319	0.863498	0
340.270905	0.795816	city	1	1	0.607805	0.607805	0	1	0	0	CorrectCommission	0.369964	0.856434	0
341.066864	0.796073	city	7	1	0.851222	0.851222	0	1	0	0	CorrectCommission	1.059504	0.851823	0
341.862640	0.795495	city	10	1	0.599338	0.599338	0	1	0	0	CorrectCommission	0.419686	0.850709	0
342.658295	0.795798	city	1	1	0.549357	0.549357	0	1	0	0	CorrectCommission	0.713198	0.854091	0
343.454224	0.796055	city	7	1	0.608618	0.608618	0	1	0	0	CorrectCommission	0.365192	0.862827	0
344.250153	0.795849	city	3	1	0.449772	0.449772	0	1	0	0	CorrectCommission	1.298014	0.877601	0
345.045837	0.795521	mountain	8	1	0.352098	0.352098	0	0	1	0	CommissionError	1.871605	0.898724	0
345.841644	0.796079	city	5	1	0.648881	0.648881	0	1	0	0	CorrectCommission	0.128745	0.926183	0
346.637421	0.795478	city	2	1	0.798405	0.798405	0	1	0	0	CorrectCommission	0.749337	0.959596	0
347.433044	0.795771	city	1	1	0.748845	0.748845	0	1	0	0	CorrectCommission	0.458296	0.997972	0
348.228882	0.795862	city	2	1	0.805755	0.805755	0	1	0	0	CorrectCommission	0.792499	1.039781	0
349.024719	0.795832	city	1	1	0.798051	0.798051	0	1	0	0	CorrectCommission	0.747258	1.082971	0
349.820526	0.795761	city	5	1	0.849516	0.849516	0	1	0	0	CorrectCommission	1.049487	1.125095	0
350.616302	0.795816	city	2	1	0.949959	0.949959	0	1	0	0	CorrectCommission	1.639336	1.163547	0
351.412079	0.795762	city	6	1	0.966470	0.966470	0	1	0	0	CorrectCommission	1.736299	1.195666	0
352.207886	0.795825	city	7	1	0.897649	0.897649	0	1	0	0	CorrectCommission	1.332146	1.219134	0
353.003693	0.795766	city	2	1	0.948036	0.948036	0	1	0	0	CorrectCommission	1.628045	1.232228	0
353.799469	0.795791	city	9	1	0.950573	0.950573	0	1	0	0	CorrectCommission	1.642945	1.233970	0
354.595306	0.795881	city	5	1	0.898769	0.898769	0	1	0	0	CorrectCommission	1.338727	1.224364	0
355.391113	0.795720	city	9	1	0.950776	0.950776	0	1	0	0	CorrectCommission	1.644137	1.204368	0
356.186890	0.795877	city	5	1	0.947051	0.947051	0	1	0	0	CorrectCommission	1.622261	1.175791	0
356.982880	0.796085	city	3	1	0.947443	0.947443	0	1	0	0	CorrectCommission	1.624562	1.141178	0
357.778687	0.795515	city	9	1	0.760844	0.760844	0	1	0	0	CorrectCommission	0.528757	1.103495	0
358.574310	0.795724	city	4	1	0.559644	0.559644	0	1	0	0	CorrectCommission	0.652791	1.065785	0
359.370087	0.795864	mountain	4	1	0.464883	0.464883	0	0	1	0	CommissionError	1.209275	1.030833	0
360.166077	0.796081	mountain	10	1	0.665131	0.665131	0	0	1	0	CommissionError	0.033317	1.000839	0
360.961853	0.795482	city	4	1	0.861748	0.861748	0	1	0	0	CorrectCommission	1.121316	0.977319	0
361.757477	0.795798	city	8	1	0.752541	0.752541	0	1	0	0	CorrectCommission	0.480001	0.960807	0
362.553314	0.795858	city	2	1	0.848004	0.848004	0	1	0	0	CorrectCommission	1.040605	0.951028	0
363.349152	0.795804	city	4	1	0.699385	0.699385	0	1	0	0	CorrectCommission	0.167839	0.946964	0
364.144958	0.795815	city	5	1	0.798019	0.798019	0	1	0	0	CorrectCommission	0.747069	0.947121	0
364.940887	0.796071	city	1	1	0.798002	0.798002	0	1	0	0	CorrectCommission	0.746969	0.949730	0
365.736694	0.795503	city	4	1	1.158600	1.158600	0	1	0	0	CorrectCommission	2.864582	0.953088	0
366.532501	0.796102	city	3	1	0.953721	0.953721	0	1	0	0	CorrectCommission	1.661431	0.955719	0
367.328430	0.795793	mountain	1	0	0.000000	0.715656	1	0	0	0	CorrectOmission	0.263394	0.956706	0
368.124084	0.795535	city	1	1	0.549154	0.549154	0	1	0	0	CorrectCommission	0.714391	0.955633	0
368.919769	0.795805	city	7	1	0.558963	0.558963	0	1	0	0	CorrectCommission	0.656787	0.952509	0
369.715698	0.796071	city	4	1	0.505895	0.505895	0	1	0	0	CorrectCommission	0.968429	0.947752	0
370.511505	0.795505	city	10	1	0.499465	0.499465	0	1	0	0	CorrectCommission	1.006190	0.942046	0
371.307159	0.795835	city	4	1	0.549908	0.549908	0	1	0	0	CorrectCommission	0.709964	0.936158	0
372.103119	0.796069	city	1	1	0.449570	0.449570	0	1	0	0	CorrectCommission	1.299202	0.930866	0
372.898895	0.795495	city	3	1	0.460615	0.460615	0	1	0	0	CorrectCommission	1.234335	0.926754	0
373.694519	0.795775	city	6	1	0.599245	0.599245	0	1	0	0	CorrectCommission	0.420232	0.924263	0
374.490356	0.795849	city	8	1	0.555807	0.555807	0	1	0	0	CorrectCommission	0.675321	0.923674	0
375.286163	0.795785	city	6	1	0.549927	0.549927	0	1	0	0	CorrectCommission	0.709854	0.925057	0
376.081940	0.795742	city	7	1	0.515905	0.515905	0	1	0	0	CorrectCommission	0.909648	0.928318	0
376.877716	0.795861	city	2	1	0.510023	0.510023	0	1	0	0	CorrectCommission	0.944190	0.933206	0
377.673553	0.795806	city	6	1	0.410242	0.410242	0	1	0	0	CorrectCommission	1.530155	0.939395	0
378.469360	0.795783	city	1	1	0.499679	0.499679	0	1	0	0	CorrectCommission	1.004936	0.946398	0
379.265289	0.796100	city	2	1	0.499753	0.499753	0	1	0	0	CorrectCommission	1.004497	0.953664	0
380.061066	0.795456	city	1	1	0.549073	0.549073	0	1	0	0	CorrectCommission	0.714865	0.960452	0
380.856873	0.796162	city	3	1	0.549839	0.549839	0	1	0	0	CorrectCommission	0.710368	0.965884	0
381.652863	0.795803	city	8	1	0.505684	0.505684	0	1	0	0	CorrectCommission	0.969672	0.968884	0
382.448517	0.795486	city	2	1	0.501276	0.501276	0	1	0	0	CorrectCommission	0.995555	0.968272	0
383.244171	0.795853	city	4	1	0.559683	0.559683	0	1	0	0	CorrectCommission	0.652563	0.962799	0
384.040009	0.795799	city	9	1	0.511760	0.511760	0	1	0	0	CorrectCommission	0.933986	0.951384	0
384.835938	0.796055	city	10	1	0.553034	0.553034	0	1	0	0	CorrectCommission	0.691607	0.933223	0
385.631714	0.795511	city	2	1	1.062795	1.062795	0	1	0	0	CorrectCommission	2.301969	0.907966	0
386.427521	0.796103	city	8	1	0.967334	0.967334	0	1	0	0	CorrectCommission	1.741373	0.875750	0
387.223328	0.795525	city	9	1	0.947032	0.947032	0	1	0	0	CorrectCommission	1.622148	0.837378	0
388.019012	0.795822	city	5	1	0.698784	0.698784	0	1	0	0	CorrectCommission	0.164310	0.794132	0
388.814819	0.795800	city	9	1	0.655543	0.655543	0	1	0	0	CorrectCommission	0.089621	0.747751	1
389.610596	0.795752	city	10	1	0.548994	0.548994	0	1	0	0	CorrectCommission	0.715331	0.700054	1
390.406525	0.796108	city	8	1	0.748081	0.748081	0	1	0	0	CorrectCommission	0.453806	0.652778	1
391.202362	0.795542	city	4	1	0.652532	0.652532	0	1	0	0	CorrectCommission	0.107307	0.607445	1
391.998016	0.795780	city	2	1	0.616507	0.616507	0	1	0	0	CorrectCommission	0.318862	0.565149	1
392.793823	0.795832	city	6	1	0.613252	0.613252	0	1	0	0	CorrectCommission	0.337974	0.526526	1
393.589752	0.796028	city	10	1	0.549313	0.549313	0	1	0	0	CorrectCommission	0.713460	0.491793	1
394.385529	0.795535	city	8	1	0.549078	0.549078	0	1	0	0	CorrectCommission	0.714836	0.460864	1
395.181213	0.795811	city	1	1	0.549163	0.549163	0	1	0	0	CorrectCommission	0.714339	0.433512	1
395.977051	0.795878	city	2	1	0.601321	0.601321	0	1	0	0	CorrectCommission	0.408040	0.409518	1
396.772858	0.795706	city	9	1	0.698155	0.698155	0	1	0	0	CorrectCommission	0.160617	0.388864	1
397.568634	0.795848	city	7	1	0.699407	0.699407	0	1	0	0	CorrectCommission	0.167970	0.371826	1
398.364441	0.795779	city	9	1	0.611020	0.611020	0	1	0	0	CorrectCommission	0.351084	0.358990	1
399.160217	0.795793	city	7	1	0.549322	0.549322	0	1	0	0	CorrectCommission	0.713403	0.351269	1
399.956024	0.795785	city	6	1	0.667456	0.667456	0	1	0	0	CorrectCommission	0.019661	0.349822	1
400.751801	0.795802	city	7	1	0.663173	0.663173	0	1	0	0	CorrectCommission	0.044814	0.355937	1
401.547607	0.795819	city	5	1	0.648990	0.648990	0	1	0	0	CorrectCommission	0.128105	0.370795	1
402.343384	0.795742	city	7	1	0.748916	0.748916	0	1	0	0	CorrectCommission	0.458714	0.395307	1
403.139191	0.795839	city	3	1	0.663889	0.663889	0	1	0	0	CorrectCommission	0.040609	0.429879	1
403.934998	0.795783	city	1	1	0.567790	0.567790	0	1	0	0	CorrectCommission	0.604953	0.474330	1
404.730804	0.795824	city	5	1	0.652775	0.652775	0	1	0	0	CorrectCommission	0.105877	0.527680	1
405.526611	0.795788	mountain	6	0	0.000000	0.633407	1	0	0	0	CorrectOmission	0.219617	0.588244	1
406.322388	0.795772	city	5	1	0.601488	0.601488	0	1	0	0	CorrectCommission	0.407062	0.653646	1
407.118195	0.795864	city	10	1	0.648821	0.648821	0	1	0	0	CorrectCommission	0.129099	0.720996	1
407.914185	0.796086	city	1	1	0.798008	0.798008	0	1	0	0	CorrectCommission	0.747006	0.787205	0
408.709961	0.795480	city	9	1	0.852622	0.852622	0	1	0	0	CorrectCommission	1.067726	0.849262	0
409.505646	0.795868	city	8	1	0.947749	0.947749	0	1	0	0	CorrectCommission	1.626358	0.904612	0
410.301453	0.795791	city	2	1	1.046401	1.046401	0	1	0	0	CorrectCommission	2.205697	0.951427	0
411.097260	0.795789	city	3	1	0.862498	0.862498	0	1	0	0	CorrectCommission	1.125722	0.988791	0
411.893036	0.795783	city	5	1	0.953893	0.953893	0	1	0	0	CorrectCommission	1.662439	1.016827	0
412.688843	0.795810	city	9	1	0.947326	0.947326	0	1	0	0	CorrectCommission	1.623874	1.036470	0
413.484650	0.795812	mountain	4	0	0.000000	0.754501	1	0	0	0	CorrectOmission	0.491507	1.049325	0
414.280426	0.795723	city	10	1	0.549430	0.549430	0	1	0	0	CorrectCommission	0.712772	1.057373	0
415.076202	0.795880	city	6	1	0.506126	0.506126	0	1	0	0	CorrectCommission	0.967074	1.062529	0
415.872192	0.796078	city	2	1	0.615607	0.615607	0	1	0	0	CorrectCommission	0.324147	1.066339	0
416.667999	0.795536	city	10	1	0.747785	0.747785	0	1	0	0	CorrectCommission	0.452072	1.069796	0
417.463806	0.796081	city	4	1	0.750360	0.750360	0	1	0	0	CorrectCommission	0.467190	1.073228	0
418.259705	0.795693	city	10	1	0.947382	0.947382	0	1	0	0	CorrectCommission	1.624206	1.076338	0
419.055328	0.795545	city	4	1	1.047014	1.047014	0	1	0	0	CorrectCommission	2.209291	1.078316	0
419.851044	0.795889	city	3	1	0.963529	0.963529	0	1	0	0	CorrectCommission	1.719026	1.078083	0
420.646851	0.795762	city	9	1	0.816586	0.816586	0	1	0	0	CorrectCommission	0.856107	1.074567	0
421.442627	0.795794	city	5	1	0.847607	0.847607	0	1	0	0	CorrectCommission	1.038276	1.066833	0
422.238586	0.796115	city	3	1	0.847649	0.847649	0	1	0	0	CorrectCommission	1.038521	1.054207	0
423.034424	0.795545	city	1	1	0.847664	0.847664	0	1	0	0	CorrectCommission	1.038607	1.036361	0
423.830078	0.795793	city	3	1	0.798667	0.798667	0	1	0	0	CorrectCommission	0.750877	1.013319	0
424.625885	0.795772	city	4	1	0.848374	0.848374	0	1	0	0	CorrectCommission	1.042780	0.985458	0
425.421661	0.795787	mountain	9	0	0.000000	0.876309	1	0	0	0	CorrectOmission	1.206829	0.953404	0
426.217438	0.795756	mountain	6	0	0.000000	0.877807	1	0	0	0	CorrectOmission	1.215623	0.918011	0
427.013214	0.795850	city	8	1	0.848200	0.848200	0	1	0	0	CorrectCommission	1.041760	0.880348	0
427.809052	0.795822	city	3	0	0.000000	0.782825	0	0	0	1	OmissionError	0.657841	0.841599	0
428.604889	0.795814	city	9	1	0.747989	0.747989	0	1	0	0	CorrectCommission	0.453269	0.803127	0
429.400696	0.795812	city	7	1	0.810004	0.810004	0	1	0	0	CorrectCommission	0.817452	0.766382	1
430.196472	0.795755	city	4	1	0.897429	0.897429	0	1	0	0	CorrectCommission	1.330853	0.732862	1
430.992249	0.795762	city	1	1	0.749825	0.749825	0	1	0	0	CorrectCommission	0.464047	0.704079	1
431.788055	0.795858	city	7	1	0.698470	0.698470	0	1	0	0	CorrectCommission	0.162464	0.681493	1
432.583862	0.795789	city	5	1	0.750234	0.750234	0	1	0	0	CorrectCommission	0.466450	0.666328	1
433.379639	0.795762	city	8	1	0.748424	0.748424	0	1	0	0	CorrectCommission	0.455825	0.659475	1
434.175476	0.795889	city	9	1	0.798736	0.798736	0	1	0	0	CorrectCommission	0.751280	0.661367	1
434.971283	0.795707	city	1	1	0.748243	0.748243	0	1	0	0	CorrectCommission	0.454761	0.671901	1
435.767029	0.795823	city	7	1	0.750441	0.750441	0	1	0	0	CorrectCommission	0.467668	0.690365	1
436.563019	0.796141	city	9	1	0.599173	0.599173	0	1	0	0	CorrectCommission	0.420655	0.715494	1
437.358826	0.795453	city	4	1	0.598556	0.598556	0	1	0	0	CorrectCommission	0.424280	0.745530	1
438.154602	0.796146	city	7	1	0.599113	0.599113	0	1	0	0	CorrectCommission	0.421009	0.778410	1
438.950562	0.795785	city	5	1	0.567265	0.567265	0	1	0	0	CorrectCommission	0.608033	0.811911	0
439.746368	0.795788	city	6	1	0.467758	0.467758	0	1	0	0	CorrectCommission	1.192388	0.843864	0
440.542053	0.795563	city	7	1	0.400318	0.400318	0	1	0	0	CorrectCommission	1.588434	0.872368	0
441.337708	0.795786	city	6	1	0.410010	0.410010	0	1	0	0	CorrectCommission	1.531518	0.895927	0
442.133636	0.796065	mountain	9	1	0.300666	0.300666	0	0	1	0	CommissionError	2.173641	0.913528	0
442.929443	0.795541	city	4	1	0.798210	0.798210	0	1	0	0	CorrectCommission	0.748192	0.924625	0
443.725250	0.796091	city	2	1	0.617704	0.617704	0	1	0	0	CorrectCommission	0.311832	0.929158	0
444.521057	0.795524	city	10	1	0.698259	0.698259	0	1	0	0	CorrectCommission	0.161226	0.927353	0
445.316864	0.796065	city	9	1	0.560759	0.560759	0	1	0	0	CorrectCommission	0.646241	0.919628	0
446.112671	0.795541	city	7	1	0.549616	0.549616	0	1	0	0	CorrectCommission	0.711681	0.906572	0
446.908295	0.795716	city	5	1	0.505932	0.505932	0	1	0	0	CorrectCommission	0.968211	0.888947	0
447.704224	0.796163	city	3	1	0.399922	0.399922	0	1	0	0	CorrectCommission	1.590756	0.867666	0
448.500092	0.795529	city	9	1	0.953464	0.953464	0	1	0	0	CorrectCommission	1.659919	0.843882	0
449.295715	0.795761	city	3	1	0.897273	0.897273	0	1	0	0	CorrectCommission	1.329942	0.818998	0
450.091492	0.795794	city	10	1	0.847788	0.847788	0	1	0	0	CorrectCommission	1.039339	0.794611	0
450.887329	0.795844	mountain	6	0	0.000000	0.673756	1	0	0	0	CorrectOmission	0.017333	0.772370	1
451.683136	0.795785	city	7	1	0.549354	0.549354	0	1	0	0	CorrectCommission	0.713218	0.753779	1
452.478912	0.795742	city	10	1	0.648760	0.648760	0	1	0	0	CorrectCommission	0.129458	0.739913	1
453.274841	0.796144	city	6	1	0.699349	0.699349	0	1	0	0	CorrectCommission	0.167629	0.731302	1
454.070648	0.795470	city	10	1	0.698370	0.698370	0	1	0	0	CorrectCommission	0.161879	0.727723	1
454.866455	0.796129	city	9	1	0.649479	0.649479	0	1	0	0	CorrectCommission	0.125233	0.728210	1
455.662415	0.795792	city	5	1	0.451904	0.451904	0	1	0	0	CorrectCommission	1.285493	0.731119	1
456.458038	0.795460	city	3	1	0.499782	0.499782	0	1	0	0	CorrectCommission	1.004329	0.734326	1
457.253845	0.796145	city	9	1	0.552757	0.552757	0	1	0	0	CorrectCommission	0.693231	0.735598	1
458.049805	0.795809	city	6	1	0.449251	0.449251	0	1	0	0	CorrectCommission	1.301073	0.732835	1
458.845490	0.795544	mountain	7	1	0.415850	0.415850	0	0	1	0	CommissionError	1.497221	0.724388	1
459.641144	0.795764	city	9	1	0.897355	0.897355	0	1	0	0	CorrectCommission	1.330423	0.709288	1
460.436920	0.795770	city	5	1	0.698482	0.698482	0	1	0	0	CorrectCommission	0.162538	0.687409	1
461.232849	0.796134	city	10	1	0.549457	0.549457	0	1	0	0	CorrectCommission	0.712614	0.659462	1
462.028687	0.795495	city	1	1	0.513310	0.513310	0	1	0	0	CorrectCommission	0.924884	0.626778	1
462.824341	0.795803	city	2	1	0.599146	0.599146	0	1	0	0	CorrectCommission	0.420811	0.591153	1
463.620117	0.795790	city	6	1	0.599660	0.599660	0	1	0	0	CorrectCommission	0.417793	0.554636	1
464.415924	0.795829	city	2	1	0.648883	0.648883	0	1	0	0	CorrectCommission	0.128732	0.519210	1
465.211853	0.796038	mountain	3	0	0.000000	0.594735	1	0	0	0	CorrectOmission	0.446716	0.486600	1
466.007812	0.795844	city	5	1	0.567874	0.567874	0	1	0	0	CorrectCommission	0.604458	0.458092	1
466.803497	0.795528	city	8	1	0.698957	0.698957	0	1	0	0	CorrectCommission	0.165329	0.434504	1
467.599274	0.796060	mountain	6	0	0.000000	0.695796	1	0	0	0	CorrectOmission	0.146766	0.416187	1
468.395081	0.795528	city	2	1	0.649011	0.649011	0	1	0	0	CorrectCommission	0.127982	0.403147	1
469.190765	0.795836	city	1	1	0.649221	0.649221	0	1	0	0	CorrectCommission	0.126748	0.395139	1
469.986694	0.796050	city	6	1	0.798058	0.798058	0	1	0	0	CorrectCommission	0.747301	0.391881	1
470.782471	0.795506	city	2	1	0.705033	0.705033	0	1	0	0	CorrectCommission	0.201011	0.393134	1
471.578125	0.795792	city	4	1	0.802697	0.802697	0	1	0	0	CorrectCommission	0.774542	0.398906	1
472.373962	0.795851	city	3	1	0.848379	0.848379	0	1	0	0	CorrectCommission	1.042807	0.409391	1
473.169800	0.795815	city	10	1	0.700547	0.700547	0	1	0	0	CorrectCommission	0.174667	0.424891	1
473.965546	0.795710	city	3	1	0.698524	0.698524	0	1	0	0	CorrectCommission	0.162786	0.445761	1
474.761353	0.795887	city	4	1	0.698558	0.698558	0	1	0	0	CorrectCommission	0.162985	0.472138	1
475.557190	0.795789	city	1	1	0.699479	0.699479	0	1	0	0	CorrectCommission	0.168390	0.503740	1
476.352966	0.795784	city	8	1	0.701234	0.701234	0	1	0	0	CorrectCommission	0.178699	0.539675	1
477.148743	0.795781	city	7	1	0.698534	0.698534	0	1	0	0	CorrectCommission	0.162841	0.578346	1
477.944550	0.795824	city	8	1	0.710527	0.710527	0	1	0	0	CorrectCommission	0.233270	0.617496	1
478.740387	0.795835	mountain	1	0	0.000000	0.540582	1	0	0	0	CorrectOmission	0.764730	0.654283	1
479.536194	0.795786	city	5	1	0.499582	0.499582	0	1	0	0	CorrectCommission	1.005504	0.685511	1
480.332123	0.796051	city	8	1	0.898408	0.898408	0	1	0	0	CorrectCommission	1.336603	0.708003	1
481.128052	0.795831	city	10	1	0.907630	0.907630	0	1	0	0	CorrectCommission	1.390763	0.718906	1
481.923737	0.795521	city	3	1	0.897845	0.897845	0	1	0	0	CorrectCommission	1.333296	0.716061	1
482.719543	0.796081	city	4	1	0.797723	0.797723	0	1	0	0	CorrectCommission	0.745334	0.698257	1
483.515320	0.795516	city	10	1	0.848256	0.848256	0	1	0	0	CorrectCommission	1.042088	0.665439	1
484.311005	0.795814	city	7	1	0.847449	0.847449	0	1	0	0	CorrectCommission	1.037347	0.618737	1
485.106750	0.795709	city	5	1	0.848001	0.848001	0	1	0	0	CorrectCommission	1.040588	0.560446	1
485.902679	0.796149	city	7	1	0.698389	0.698389	0	1	0	0	CorrectCommission	0.161994	0.493817	1
486.698669	0.795792	city	1	1	0.598798	0.598798	0	1	0	0	CorrectCommission	0.422855	0.422855	1
