onset	duration	trial_type	image_type	Press	ReactionTime	ReactionTime_Interpolated	CorrectOmission	CorrectCommission	CommissionError	OmissionError	response_type	nonsmoothVarianceTimeCourse	VarianceTimeCourse	In_the_Zone
8.421603	0.795878	city	3	1	0.599775	0.599775	0	1	0	0	CorrectCommission	0.275654	0.275654	1
9.217454	0.795822	city	7	1	0.504247	0.504247	0	1	0	0	CorrectCommission	0.268795	0.549779	1
10.013239	0.795749	city	5	1	0.353856	0.353856	0	1	0	0	CorrectCommission	1.125930	0.810867	0
10.809041	0.795855	city	3	1	0.350712	0.350712	0	1	0	0	CorrectCommission	1.143850	1.046792	0
11.604828	0.795718	city	6	1	1.046434	1.046434	0	1	0	0	CorrectCommission	2.821331	1.247344	0
12.400627	0.795880	city	7	1	1.097615	1.097615	0	1	0	0	CorrectCommission	3.113033	1.404852	0
13.196596	0.796058	city	5	1	1.096575	1.096575	0	1	0	0	CorrectCommission	3.107102	1.514822	0
13.992377	0.795504	city	7	1	1.110333	1.110333	0	1	0	0	CorrectCommission	3.185518	1.576142	0
14.788045	0.795830	city	4	1	1.100044	1.100044	0	1	0	0	CorrectCommission	3.126877	1.590971	0
15.583842	0.795764	city	7	1	1.096399	1.096399	0	1	0	0	CorrectCommission	3.106102	1.564378	0
16.379631	0.795813	mountain	2	0	0.000000	0.714479	1	0	0	0	CorrectOmission	0.929396	1.503670	0
17.175589	0.796105	city	3	1	0.350446	0.350446	0	1	0	0	CorrectCommission	1.145370	1.417617	0
17.971388	0.795491	city	9	1	0.400459	0.400459	0	1	0	0	CorrectCommission	0.860326	1.315344	0
18.767035	0.795805	city	4	1	0.502949	0.502949	0	1	0	0	CorrectCommission	0.276196	1.205616	0
19.562836	0.795795	city	2	1	0.461964	0.461964	0	1	0	0	CorrectCommission	0.509781	1.096003	0
20.358635	0.795802	city	1	1	0.456243	0.456243	0	1	0	0	CorrectCommission	0.542392	0.992356	0
21.154457	0.795842	city	7	1	0.500216	0.500216	0	1	0	0	CorrectCommission	0.291769	0.898563	0
21.950281	0.795807	city	8	1	0.418179	0.418179	0	1	0	0	CorrectCommission	0.759329	0.816587	0
22.746073	0.795777	city	7	1	0.453742	0.453742	0	1	0	0	CorrectCommission	0.556644	0.746664	0
23.542006	0.796086	city	8	1	0.499420	0.499420	0	1	0	0	CorrectCommission	0.296310	0.687735	0
24.337814	0.795531	city	3	1	0.349844	0.349844	0	1	0	0	CorrectCommission	1.148801	0.637942	0
25.133461	0.795763	city	6	1	0.354327	0.354327	0	1	0	0	CorrectCommission	1.123249	0.595053	0
25.929247	0.795808	city	3	1	0.450487	0.450487	0	1	0	0	CorrectCommission	0.575194	0.556971	1
26.725069	0.795838	city	5	1	0.411513	0.411513	0	1	0	0	CorrectCommission	0.797325	0.522038	1
27.520891	0.795804	city	6	1	0.549182	0.549182	0	1	0	0	CorrectCommission	0.012693	0.489137	1
28.316652	0.795719	city	10	1	0.471333	0.471333	0	1	0	0	CorrectCommission	0.456387	0.457809	1
29.112429	0.795833	city	4	1	0.449589	0.449589	0	1	0	0	CorrectCommission	0.580314	0.428058	1
29.908278	0.795865	city	6	1	0.549118	0.549118	0	1	0	0	CorrectCommission	0.013061	0.400271	1
30.704224	0.796028	city	10	1	0.464380	0.464380	0	1	0	0	CorrectCommission	0.496015	0.375049	1
31.500010	0.795542	city	1	1	0.499844	0.499844	0	1	0	0	CorrectCommission	0.293893	0.352954	1
32.295673	0.795784	city	7	1	0.550016	0.550016	0	1	0	0	CorrectCommission	0.007943	0.334410	1
33.091438	0.795745	city	1	1	0.499322	0.499322	0	1	0	0	CorrectCommission	0.296868	0.319585	1
33.887211	0.795806	city	4	1	0.465201	0.465201	0	1	0	0	CorrectCommission	0.491335	0.308392	1
34.683197	0.796162	city	1	1	0.550056	0.550056	0	1	0	0	CorrectCommission	0.007714	0.300439	1
35.479034	0.795517	city	6	1	0.598926	0.598926	0	1	0	0	CorrectCommission	0.270817	0.295147	1
36.274700	0.795815	city	7	1	0.549159	0.549159	0	1	0	0	CorrectCommission	0.012829	0.291810	1
37.070473	0.795729	mountain	6	1	0.499803	0.499803	0	0	1	0	CommissionError	0.294127	0.289732	1
37.866257	0.795842	mountain	7	0	0.000000	0.603408	1	0	0	0	CorrectOmission	0.296361	0.288315	1
38.662086	0.795814	city	2	1	0.704754	0.704754	0	1	0	0	CorrectCommission	0.873970	0.287184	1
39.457897	0.795806	city	7	1	0.648619	0.648619	0	1	0	0	CorrectCommission	0.554035	0.286159	1
40.253685	0.795774	city	1	1	0.617446	0.617446	0	1	0	0	CorrectCommission	0.376368	0.285359	1
41.049633	0.796119	city	8	1	0.549961	0.549961	0	1	0	0	CorrectCommission	0.008255	0.285100	1
41.845444	0.795502	city	6	1	0.551745	0.551745	0	1	0	0	CorrectCommission	0.001913	0.285801	1
42.641098	0.795807	city	9	1	0.598810	0.598810	0	1	0	0	CorrectCommission	0.270155	0.287896	1
43.436901	0.795800	city	5	1	0.565674	0.565674	0	1	0	0	CorrectCommission	0.081299	0.291707	1
44.232666	0.795735	city	2	1	0.510535	0.510535	0	1	0	0	CorrectCommission	0.232962	0.297375	1
45.028477	0.795880	city	3	1	0.512302	0.512302	0	1	0	0	CorrectCommission	0.222891	0.304804	1
45.824448	0.796068	city	2	1	0.499759	0.499759	0	1	0	0	CorrectCommission	0.294375	0.313639	1
46.620262	0.795561	mountain	7	1	0.468662	0.468662	0	0	1	0	CommissionError	0.471611	0.323293	1
47.415905	0.795720	mountain	9	0	0.000000	0.547556	1	0	0	0	CorrectOmission	0.021960	0.333049	1
48.211834	0.796141	city	2	1	0.652132	0.652132	0	1	0	0	CorrectCommission	0.574056	0.342130	1
49.007805	0.795800	city	9	1	0.698078	0.698078	0	1	0	0	CorrectCommission	0.835919	0.349801	1
49.803459	0.795506	city	3	1	0.598540	0.598540	0	1	0	0	CorrectCommission	0.268617	0.355490	1
50.599117	0.795817	city	8	1	0.599554	0.599554	0	1	0	0	CorrectCommission	0.274395	0.358909	1
51.394920	0.795784	city	3	1	0.598886	0.598886	0	1	0	0	CorrectCommission	0.270586	0.360054	1
52.190857	0.796088	city	1	1	0.601151	0.601151	0	1	0	0	CorrectCommission	0.283498	0.359275	1
52.986629	0.795457	mountain	2	0	0.000000	0.672281	1	0	0	0	CorrectOmission	0.688893	0.357262	1
53.782291	0.795873	city	9	1	0.698442	0.698442	0	1	0	0	CorrectCommission	0.837991	0.354994	1
54.578278	0.796095	city	7	1	0.565800	0.565800	0	1	0	0	CorrectCommission	0.082014	0.353635	1
55.374073	0.795494	city	6	1	0.617240	0.617240	0	1	0	0	CorrectCommission	0.375193	0.354484	1
56.169735	0.795832	city	4	1	0.550445	0.550445	0	1	0	0	CorrectCommission	0.005498	0.358775	1
56.965527	0.795754	city	6	1	0.549452	0.549452	0	1	0	0	CorrectCommission	0.011156	0.367556	1
57.761284	0.795755	city	3	1	0.461742	0.461742	0	1	0	0	CorrectCommission	0.511048	0.381587	1
58.557068	0.795814	city	6	1	0.564244	0.564244	0	1	0	0	CorrectCommission	0.073150	0.401160	1
59.352875	0.795801	city	1	1	0.518250	0.518250	0	1	0	0	CorrectCommission	0.188989	0.426115	1
60.148708	0.795865	city	7	1	0.499687	0.499687	0	1	0	0	CorrectCommission	0.294785	0.455769	1
60.944553	0.795828	city	2	1	0.450565	0.450565	0	1	0	0	CorrectCommission	0.574750	0.488970	1
61.740372	0.795805	city	6	1	0.459183	0.459183	0	1	0	0	CorrectCommission	0.525636	0.524167	1
62.536301	0.796059	city	7	1	0.412779	0.412779	0	1	0	0	CorrectCommission	0.790107	0.559542	1
63.332233	0.795801	city	1	1	0.499566	0.499566	0	1	0	0	CorrectCommission	0.295475	0.593126	1
64.127869	0.795469	city	8	1	0.400517	0.400517	0	1	0	0	CorrectCommission	0.859994	0.622972	0
64.923500	0.795793	city	7	1	0.457688	0.457688	0	1	0	0	CorrectCommission	0.534157	0.647274	0
65.719322	0.795852	city	8	1	0.365247	0.365247	0	1	0	0	CorrectCommission	1.061012	0.664547	0
66.515137	0.795785	city	6	1	0.353223	0.353223	0	1	0	0	CorrectCommission	1.129541	0.673670	0
67.310944	0.795829	city	5	1	0.399896	0.399896	0	1	0	0	CorrectCommission	0.863535	0.674036	0
68.106728	0.795739	mountain	9	1	0.351629	0.351629	0	0	1	0	CommissionError	1.138624	0.665591	0
68.902664	0.796123	city	6	1	0.748990	0.748990	0	1	0	0	CorrectCommission	1.126085	0.648784	0
69.698502	0.795560	city	2	1	0.548815	0.548815	0	1	0	0	CorrectCommission	0.014785	0.624575	0
70.494293	0.796020	city	1	1	0.549773	0.549773	0	1	0	0	CorrectCommission	0.009328	0.594385	0
71.290222	0.795835	city	9	1	0.749731	0.749731	0	1	0	0	CorrectCommission	1.130311	0.559955	1
72.085892	0.795506	city	5	1	0.598514	0.598514	0	1	0	0	CorrectCommission	0.268464	0.523241	1
72.881546	0.795799	city	6	1	0.797813	0.797813	0	1	0	0	CorrectCommission	1.404347	0.486366	1
73.677498	0.796105	city	3	1	0.617521	0.617521	0	1	0	0	CorrectCommission	0.376793	0.451360	1
74.473305	0.795509	city	2	1	0.557600	0.557600	0	1	0	0	CorrectCommission	0.035283	0.420143	1
75.268951	0.795784	city	8	1	0.598886	0.598886	0	1	0	0	CorrectCommission	0.270584	0.394241	1
76.064743	0.795806	city	5	1	0.549529	0.549529	0	1	0	0	CorrectCommission	0.010719	0.374675	1
76.860558	0.795820	city	3	1	0.549087	0.549087	0	1	0	0	CorrectCommission	0.013235	0.361853	1
77.656349	0.795759	city	8	1	0.549098	0.549098	0	1	0	0	CorrectCommission	0.013177	0.355481	1
78.452141	0.795830	city	4	1	0.549446	0.549446	0	1	0	0	CorrectCommission	0.011189	0.354600	1
79.247940	0.795766	city	2	1	0.549164	0.549164	0	1	0	0	CorrectCommission	0.012800	0.357697	1
80.043747	0.795851	mountain	2	0	0.000000	0.624357	1	0	0	0	CorrectOmission	0.415756	0.362861	1
80.839539	0.795731	city	7	1	0.699349	0.699349	0	1	0	0	CorrectCommission	0.843165	0.368048	1
81.635353	0.795889	city	2	1	0.698463	0.698463	0	1	0	0	CorrectCommission	0.838112	0.371317	1
82.431206	0.795821	city	7	1	0.649394	0.649394	0	1	0	0	CorrectCommission	0.558450	0.371101	1
83.226974	0.795724	city	3	1	0.698430	0.698430	0	1	0	0	CorrectCommission	0.837927	0.366361	1
84.022903	0.796125	city	10	1	0.649337	0.649337	0	1	0	0	CorrectCommission	0.558127	0.356674	1
84.818733	0.795546	city	1	1	0.602982	0.602982	0	1	0	0	CorrectCommission	0.293933	0.342287	1
85.614410	0.795799	city	2	1	0.549337	0.549337	0	1	0	0	CorrectCommission	0.011811	0.323982	1
86.410164	0.795713	city	6	1	0.453677	0.453677	0	1	0	0	CorrectCommission	0.557012	0.302940	1
87.205963	0.795881	city	7	1	0.499865	0.499865	0	1	0	0	CorrectCommission	0.293770	0.280572	1
88.001945	0.796082	city	4	1	0.549800	0.549800	0	1	0	0	CorrectCommission	0.009172	0.258357	1
88.797882	0.795803	city	8	1	0.549650	0.549650	0	1	0	0	CorrectCommission	0.010026	0.237605	1
89.593529	0.795483	city	2	1	0.548701	0.548701	0	1	0	0	CorrectCommission	0.015437	0.219422	1
90.389175	0.795815	city	1	1	0.559031	0.559031	0	1	0	0	CorrectCommission	0.043437	0.204573	1
91.185120	0.796076	city	7	1	0.599576	0.599576	0	1	0	0	CorrectCommission	0.274517	0.193514	1
91.981079	0.795834	city	3	1	0.598855	0.598855	0	1	0	0	CorrectCommission	0.270407	0.186431	1
92.776749	0.795512	city	8	1	0.548685	0.548685	0	1	0	0	CorrectCommission	0.015528	0.183290	1
93.572411	0.795804	city	9	1	0.599699	0.599699	0	1	0	0	CorrectCommission	0.275217	0.183931	1
94.368210	0.795795	city	7	1	0.615439	0.615439	0	1	0	0	CorrectCommission	0.364925	0.188087	1
95.163986	0.795761	city	8	1	0.563796	0.563796	0	1	0	0	CorrectCommission	0.070594	0.195429	1
95.959938	0.796141	city	6	1	0.552160	0.552160	0	1	0	0	CorrectCommission	0.004278	0.205585	1
96.755760	0.795503	city	5	1	0.508286	0.508286	0	1	0	0	CorrectCommission	0.245777	0.218104	1
97.551407	0.795788	city	4	1	0.549518	0.549518	0	1	0	0	CorrectCommission	0.010780	0.232417	1
98.347206	0.795810	city	8	1	0.550506	0.550506	0	1	0	0	CorrectCommission	0.005150	0.247829	1
99.142982	0.795748	mountain	6	0	0.000000	0.619012	1	0	0	0	CorrectOmission	0.385293	0.263509	1
99.938774	0.795830	city	9	1	0.665108	0.665108	0	1	0	0	CorrectCommission	0.648007	0.278520	1
100.734612	0.795839	city	1	1	0.598863	0.598863	0	1	0	0	CorrectCommission	0.270456	0.291860	1
101.530396	0.795735	mountain	9	1	0.549771	0.549771	0	0	1	0	CommissionError	0.009341	0.302566	1
102.326187	0.795845	city	9	1	0.613959	0.613959	0	1	0	0	CorrectCommission	0.356496	0.309785	1
103.122139	0.796070	city	2	1	0.649334	0.649334	0	1	0	0	CorrectCommission	0.558110	0.312863	1
103.917961	0.795568	city	3	1	0.617265	0.617265	0	1	0	0	CorrectCommission	0.375333	0.311415	1
104.713631	0.795771	city	8	1	0.698529	0.698529	0	1	0	0	CorrectCommission	0.838491	0.305421	1
105.509422	0.795809	city	1	1	0.698395	0.698395	0	1	0	0	CorrectCommission	0.837725	0.295194	1
106.305374	0.796094	city	3	1	0.558955	0.558955	0	1	0	0	CorrectCommission	0.043002	0.281372	1
107.101181	0.795527	city	2	1	0.549134	0.549134	0	1	0	0	CorrectCommission	0.012971	0.264872	1
107.896820	0.795747	city	10	1	0.549074	0.549074	0	1	0	0	CorrectCommission	0.013309	0.246740	1
108.692596	0.795809	city	3	1	0.599320	0.599320	0	1	0	0	CorrectCommission	0.273058	0.228062	1
109.488571	0.796135	city	9	1	0.599348	0.599348	0	1	0	0	CorrectCommission	0.273217	0.209846	1
110.284378	0.795484	city	1	1	0.553545	0.553545	0	1	0	0	CorrectCommission	0.012171	0.192991	1
111.080040	0.795834	city	3	1	0.549383	0.549383	0	1	0	0	CorrectCommission	0.011552	0.178228	1
111.875839	0.795767	city	4	1	0.519668	0.519668	0	1	0	0	CorrectCommission	0.180909	0.166089	1
112.671638	0.795841	city	2	1	0.502634	0.502634	0	1	0	0	CorrectCommission	0.277988	0.156938	1
113.467468	0.795806	city	9	1	0.549012	0.549012	0	1	0	0	CorrectCommission	0.013662	0.151010	1
114.263260	0.795787	city	5	1	0.549103	0.549103	0	1	0	0	CorrectCommission	0.013148	0.148451	1
115.059059	0.795812	city	2	1	0.500486	0.500486	0	1	0	0	CorrectCommission	0.290235	0.149326	1
115.854851	0.795769	city	9	1	0.598892	0.598892	0	1	0	0	CorrectCommission	0.270619	0.153629	1
116.650658	0.795835	city	8	1	0.549944	0.549944	0	1	0	0	CorrectCommission	0.008352	0.161284	1
117.446426	0.795709	city	7	1	0.549471	0.549471	0	1	0	0	CorrectCommission	0.011048	0.172126	1
118.242210	0.795865	city	8	1	0.565999	0.565999	0	1	0	0	CorrectCommission	0.083152	0.185865	1
119.038193	0.796093	city	2	1	0.549068	0.549068	0	1	0	0	CorrectCommission	0.013345	0.202075	1
119.834137	0.795799	city	8	1	0.518119	0.518119	0	1	0	0	CorrectCommission	0.189735	0.220150	1
120.629944	0.795811	city	5	1	0.505720	0.505720	0	1	0	0	CorrectCommission	0.260404	0.239322	1
121.425598	0.795496	city	4	1	0.530568	0.530568	0	1	0	0	CorrectCommission	0.118784	0.258703	1
122.221397	0.796105	city	7	1	0.603356	0.603356	0	1	0	0	CorrectCommission	0.296061	0.277351	1
123.017204	0.795503	city	9	1	0.654980	0.654980	0	1	0	0	CorrectCommission	0.590288	0.294308	1
123.812866	0.795828	city	2	1	0.660248	0.660248	0	1	0	0	CorrectCommission	0.620312	0.308723	1
124.608673	0.795788	city	1	1	0.599979	0.599979	0	1	0	0	CorrectCommission	0.276817	0.319921	1
125.404610	0.796091	city	8	1	0.602617	0.602617	0	1	0	0	CorrectCommission	0.291852	0.327497	1
126.200432	0.795544	city	6	1	0.648650	0.648650	0	1	0	0	CorrectCommission	0.554209	0.331317	1
126.996086	0.795773	city	1	1	0.609396	0.609396	0	1	0	0	CorrectCommission	0.330488	0.331538	1
127.792015	0.796079	city	10	1	0.511452	0.511452	0	1	0	0	CorrectCommission	0.227734	0.328667	1
128.587830	0.795540	city	4	1	0.609609	0.609609	0	1	0	0	CorrectCommission	0.331701	0.323435	1
129.383621	0.796040	city	3	1	0.648534	0.648534	0	1	0	0	CorrectCommission	0.553551	0.316781	1
130.179413	0.795550	city	9	1	0.648366	0.648366	0	1	0	0	CorrectCommission	0.552590	0.309741	1
130.975098	0.795821	mountain	4	1	0.608784	0.608784	0	0	1	0	CommissionError	0.326999	0.303372	1
131.770859	0.795705	city	6	1	0.562449	0.562449	0	1	0	0	CorrectCommission	0.062915	0.298635	1
132.566635	0.795840	city	4	1	0.549872	0.549872	0	1	0	0	CorrectCommission	0.008762	0.296277	1
133.362610	0.796124	city	3	1	0.549052	0.549052	0	1	0	0	CorrectCommission	0.013437	0.296730	1
134.158569	0.795802	city	4	1	0.598609	0.598609	0	1	0	0	CorrectCommission	0.269009	0.300110	1
134.954224	0.795508	city	8	1	0.560689	0.560689	0	1	0	0	CorrectCommission	0.052890	0.306136	1
135.749878	0.795799	city	2	1	0.502432	0.502432	0	1	0	0	CorrectCommission	0.279143	0.314228	1
136.545670	0.795783	mountain	2	0	0.000000	0.597844	1	0	0	0	CorrectOmission	0.264645	0.323561	1
137.341476	0.795824	city	8	1	0.698562	0.698562	0	1	0	0	CorrectCommission	0.838676	0.333203	1
138.137299	0.795819	city	6	1	0.656224	0.656224	0	1	0	0	CorrectCommission	0.597375	0.342200	1
138.933090	0.795762	city	8	1	0.598927	0.598927	0	1	0	0	CorrectCommission	0.270818	0.349799	1
139.728897	0.795850	city	9	1	0.558922	0.558922	0	1	0	0	CorrectCommission	0.042817	0.355499	1
140.524719	0.795802	city	1	1	0.467622	0.467622	0	1	0	0	CorrectCommission	0.477536	0.359117	1
141.320526	0.795812	city	8	1	0.453554	0.453554	0	1	0	0	CorrectCommission	0.557715	0.360817	1
142.116302	0.795731	city	2	1	0.500120	0.500120	0	1	0	0	CorrectCommission	0.292318	0.361169	1
142.912079	0.795826	mountain	2	1	0.359050	0.359050	0	0	1	0	CommissionError	1.096330	0.361087	1
143.708038	0.796088	city	5	1	0.549471	0.549471	0	1	0	0	CorrectCommission	0.011047	0.361679	1
144.503860	0.795557	city	7	1	0.503078	0.503078	0	1	0	0	CorrectCommission	0.275459	0.364232	1
145.299530	0.795774	city	2	1	0.515738	0.515738	0	1	0	0	CorrectCommission	0.203308	0.369956	1
146.095459	0.796088	mountain	5	0	0.000000	0.537279	1	0	0	0	CorrectOmission	0.080534	0.379858	1
146.891251	0.795494	city	8	1	0.565892	0.565892	0	1	0	0	CorrectCommission	0.082542	0.394597	1
147.686905	0.795811	city	6	1	0.599766	0.599766	0	1	0	0	CorrectCommission	0.275602	0.414357	1
148.482712	0.795805	city	1	1	0.566460	0.566460	0	1	0	0	CorrectCommission	0.085777	0.438860	1
149.278519	0.795830	city	5	1	0.748180	0.748180	0	1	0	0	CorrectCommission	1.121471	0.467359	1
150.074341	0.795795	city	7	1	0.613467	0.613467	0	1	0	0	CorrectCommission	0.353686	0.498716	1
150.870148	0.795819	city	3	1	0.503772	0.503772	0	1	0	0	CorrectCommission	0.271506	0.531616	1
151.665924	0.795746	city	6	1	0.614682	0.614682	0	1	0	0	CorrectCommission	0.360613	0.564725	1
152.461731	0.795857	city	3	1	0.649410	0.649410	0	1	0	0	CorrectCommission	0.558540	0.596980	0
153.257507	0.795696	mountain	4	1	0.599189	0.599189	0	0	1	0	CommissionError	0.272313	0.627784	0
154.053268	0.795833	city	8	1	0.801088	0.801088	0	1	0	0	CorrectCommission	1.423015	0.657185	0
154.849106	0.795856	mountain	1	0	0.000000	0.827469	1	0	0	0	CorrectOmission	1.573368	0.685848	0
155.644928	0.795776	city	6	1	0.753930	0.753930	0	1	0	0	CorrectCommission	1.154242	0.715054	0
156.440735	0.795833	city	4	1	0.656071	0.656071	0	1	0	0	CorrectCommission	0.596504	0.746464	0
157.236526	0.795757	city	5	1	0.651568	0.651568	0	1	0	0	CorrectCommission	0.570839	0.781728	0
158.032333	0.795842	city	6	1	0.649706	0.649706	0	1	0	0	CorrectCommission	0.560230	0.822018	0
158.828278	0.796072	city	7	1	0.616065	0.616065	0	1	0	0	CorrectCommission	0.368495	0.867636	0
159.624100	0.795548	city	10	1	0.567729	0.567729	0	1	0	0	CorrectCommission	0.093013	0.917717	0
160.419708	0.795694	city	1	1	0.500217	0.500217	0	1	0	0	CorrectCommission	0.291765	0.970012	0
161.215500	0.795867	city	9	1	0.500867	0.500867	0	1	0	0	CorrectCommission	0.288059	1.021034	0
162.011322	0.795786	city	3	1	0.454033	0.454033	0	1	0	0	CorrectCommission	0.554985	1.066360	0
162.807129	0.795822	city	2	1	0.410103	0.410103	0	1	0	0	CorrectCommission	0.805360	1.101197	0
163.602951	0.795842	city	3	1	1.065101	1.065101	0	1	0	0	CorrectCommission	2.927721	1.121079	0
164.398773	0.795775	city	5	1	1.096252	1.096252	0	1	0	0	CorrectCommission	3.105263	1.122499	0
165.194565	0.795819	city	10	1	1.199095	1.199095	0	1	0	0	CorrectCommission	3.691405	1.103609	0
165.990509	0.796066	city	9	0	0.000000	0.840262	0	0	0	1	OmissionError	1.646280	1.064523	0
166.786316	0.795545	city	2	1	0.450092	0.450092	0	1	0	0	CorrectCommission	0.577445	1.007439	0
167.581970	0.795783	city	4	1	0.458925	0.458925	0	1	0	0	CorrectCommission	0.527107	0.936326	0
168.377747	0.795765	city	10	1	0.461497	0.461497	0	1	0	0	CorrectCommission	0.512446	0.856498	0
169.173553	0.795844	city	4	1	0.549090	0.549090	0	1	0	0	CorrectCommission	0.013217	0.773973	0
169.969391	0.795817	city	2	1	0.518020	0.518020	0	1	0	0	CorrectCommission	0.190298	0.694854	0
170.765198	0.795802	city	1	1	0.562311	0.562311	0	1	0	0	CorrectCommission	0.062130	0.624770	0
171.560989	0.795782	city	9	1	0.651526	0.651526	0	1	0	0	CorrectCommission	0.570603	0.568457	1
172.356766	0.795772	city	3	1	0.599130	0.599130	0	1	0	0	CorrectCommission	0.271975	0.529522	1
173.152527	0.795744	city	10	1	0.548957	0.548957	0	1	0	0	CorrectCommission	0.013979	0.510494	1
173.948334	0.795880	city	5	1	0.556429	0.556429	0	1	0	0	CorrectCommission	0.028607	0.512905	1
174.744324	0.796096	city	6	1	0.502261	0.502261	0	1	0	0	CorrectCommission	0.280117	0.537398	1
175.540131	0.795515	city	5	1	0.499598	0.499598	0	1	0	0	CorrectCommission	0.295293	0.583962	1
176.335922	0.796087	city	9	1	0.449875	0.449875	0	1	0	0	CorrectCommission	0.578681	0.652103	0
177.131866	0.795803	city	1	1	0.449540	0.449540	0	1	0	0	CorrectCommission	0.580594	0.740872	0
177.927673	0.795790	city	7	1	0.409873	0.409873	0	1	0	0	CorrectCommission	0.806670	0.848831	0
178.723450	0.795773	city	5	1	0.399519	0.399519	0	1	0	0	CorrectCommission	0.865684	0.973843	0
179.519089	0.795491	city	1	1	0.409541	0.409541	0	1	0	0	CorrectCommission	0.808562	1.112877	0
180.314743	0.795832	city	7	1	0.449661	0.449661	0	1	0	0	CorrectCommission	0.579903	1.261827	0
181.110535	0.795763	city	9	1	0.421484	0.421484	0	1	0	0	CorrectCommission	0.740495	1.415320	0
181.906479	0.796107	city	7	1	0.403807	0.403807	0	1	0	0	CorrectCommission	0.841242	1.566825	0
182.702271	0.795482	city	4	1	0.399665	0.399665	0	1	0	0	CorrectCommission	0.864849	1.708887	0
183.497971	0.795910	city	6	1	1.066144	1.066144	0	1	0	0	CorrectCommission	2.933668	1.833682	0
184.293808	0.795773	city	1	1	1.115570	1.115570	0	1	0	0	CorrectCommission	3.215362	1.933543	0
185.089584	0.795796	city	5	1	1.110907	1.110907	0	1	0	0	CorrectCommission	3.188786	2.001851	0
185.885391	0.795789	city	3	1	1.146021	1.146021	0	1	0	0	CorrectCommission	3.388916	2.033683	0
186.681320	0.796091	city	6	1	1.146002	1.146002	0	1	0	0	CorrectCommission	3.388805	2.026421	0
187.477127	0.795528	city	10	1	1.050645	1.050645	0	1	0	0	CorrectCommission	2.845331	1.980100	0
188.272812	0.795818	city	1	1	1.103069	1.103069	0	1	0	0	CorrectCommission	3.144115	1.897514	0
189.068695	0.795972	city	7	1	1.151397	1.151397	0	1	0	0	CorrectCommission	3.419555	1.783912	0
189.864487	0.795585	city	1	0	0.000000	0.800237	0	0	0	1	OmissionError	1.418164	1.646543	0
190.660187	0.795820	city	3	1	0.449561	0.449561	0	1	0	0	CorrectCommission	0.580472	1.494015	0
191.455994	0.795801	city	7	1	0.499339	0.499339	0	1	0	0	CorrectCommission	0.296769	1.335359	0
192.251831	0.795890	city	8	1	0.500204	0.500204	0	1	0	0	CorrectCommission	0.291842	1.179243	0
193.047791	0.796021	mountain	8	1	0.400227	0.400227	0	0	1	0	CommissionError	0.861644	1.033308	0
193.843552	0.795491	city	1	1	0.602154	0.602154	0	1	0	0	CorrectCommission	0.289212	0.903640	0
194.639206	0.795830	city	7	1	0.600816	0.600816	0	1	0	0	CorrectCommission	0.281585	0.794518	0
195.435059	0.795866	city	9	1	0.648495	0.648495	0	1	0	0	CorrectCommission	0.553328	0.708253	0
196.230850	0.795712	city	10	1	0.599093	0.599093	0	1	0	0	CorrectCommission	0.271767	0.645298	0
197.026596	0.795798	mountain	10	0	0.000000	0.594895	1	0	0	0	CorrectOmission	0.247838	0.604514	0
197.822403	0.795809	city	1	1	0.606720	0.606720	0	1	0	0	CorrectCommission	0.315236	0.583440	1
198.618195	0.795781	city	2	1	0.605390	0.605390	0	1	0	0	CorrectCommission	0.307653	0.578649	1
199.414154	0.796119	city	6	1	0.549455	0.549455	0	1	0	0	CorrectCommission	0.011140	0.586125	1
200.209976	0.795546	city	3	1	0.449692	0.449692	0	1	0	0	CorrectCommission	0.579726	0.601643	0
201.005615	0.795718	city	6	1	0.407599	0.407599	0	1	0	0	CorrectCommission	0.819629	0.620980	0
201.801392	0.795834	city	9	1	0.351135	0.351135	0	1	0	0	CorrectCommission	1.141440	0.640291	0
202.597214	0.795808	city	6	1	0.402138	0.402138	0	1	0	0	CorrectCommission	0.850754	0.656346	0
203.393173	0.796109	city	4	1	0.401442	0.401442	0	1	0	0	CorrectCommission	0.854723	0.666697	0
204.188980	0.795526	city	7	1	0.404387	0.404387	0	1	0	0	CorrectCommission	0.837939	0.669773	0
204.984634	0.795757	city	5	1	0.350215	0.350215	0	1	0	0	CorrectCommission	1.146685	0.664940	0
205.780380	0.795748	city	8	1	0.363881	0.363881	0	1	0	0	CorrectCommission	1.068793	0.652436	0
206.576340	0.796173	city	9	1	0.412534	0.412534	0	1	0	0	CorrectCommission	0.791507	0.633265	0
207.372177	0.795497	city	7	1	0.499035	0.499035	0	1	0	0	CorrectCommission	0.298500	0.609085	0
208.167801	0.795744	city	1	1	0.503308	0.503308	0	1	0	0	CorrectCommission	0.274150	0.581977	1
208.963562	0.795795	city	4	1	0.404085	0.404085	0	1	0	0	CorrectCommission	0.839658	0.554197	1
209.759384	0.795847	city	5	1	0.449964	0.449964	0	1	0	0	CorrectCommission	0.578178	0.527971	1
210.555237	0.795846	city	9	1	0.509556	0.509556	0	1	0	0	CorrectCommission	0.238540	0.505307	1
211.351059	0.795819	city	8	1	0.549972	0.549972	0	1	0	0	CorrectCommission	0.008195	0.487846	1
212.146835	0.795712	city	7	1	0.500161	0.500161	0	1	0	0	CorrectCommission	0.292083	0.476733	1
212.942581	0.795787	city	9	1	0.509448	0.509448	0	1	0	0	CorrectCommission	0.239154	0.472536	1
213.738403	0.795857	city	7	1	0.508923	0.508923	0	1	0	0	CorrectCommission	0.242149	0.475297	1
214.534241	0.795819	city	1	1	0.449575	0.449575	0	1	0	0	CorrectCommission	0.580394	0.484507	1
215.330063	0.795818	city	5	1	0.407625	0.407625	0	1	0	0	CorrectCommission	0.819483	0.499198	1
216.125870	0.795807	city	4	1	0.467051	0.467051	0	1	0	0	CorrectCommission	0.480794	0.518047	1
216.921661	0.795770	mountain	1	0	0.000000	0.592652	1	0	0	0	CorrectOmission	0.235054	0.539493	1
217.717453	0.795805	city	9	1	0.648677	0.648677	0	1	0	0	CorrectCommission	0.554362	0.561816	1
218.513367	0.796034	city	10	1	0.499375	0.499375	0	1	0	0	CorrectCommission	0.296563	0.583265	1
219.309158	0.795545	city	5	1	0.450693	0.450693	0	1	0	0	CorrectCommission	0.574021	0.602217	0
220.104996	0.796122	city	3	1	0.414143	0.414143	0	1	0	0	CorrectCommission	0.782336	0.617264	0
220.900772	0.795452	city	5	1	0.349869	0.349869	0	1	0	0	CorrectCommission	1.148657	0.627371	0
221.696426	0.795836	city	10	1	0.350092	0.350092	0	1	0	0	CorrectCommission	1.147387	0.631945	0
222.492249	0.795806	city	7	1	0.400667	0.400667	0	1	0	0	CorrectCommission	0.859138	0.630897	0
223.288055	0.795833	city	1	1	0.454038	0.454038	0	1	0	0	CorrectCommission	0.554957	0.624621	0
224.083832	0.795713	city	5	1	0.464913	0.464913	0	1	0	0	CorrectCommission	0.492975	0.613930	0
224.879623	0.795856	mountain	3	1	0.400519	0.400519	0	0	1	0	CommissionError	0.859981	0.599924	0
225.675461	0.795838	city	1	1	0.661600	0.661600	0	1	0	0	CorrectCommission	0.628020	0.583814	1
226.471405	0.796043	city	4	1	0.606178	0.606178	0	1	0	0	CorrectCommission	0.312148	0.566760	1
227.267197	0.795526	city	10	1	0.598991	0.598991	0	1	0	0	CorrectCommission	0.271187	0.549722	1
228.062836	0.795757	city	8	1	0.601330	0.601330	0	1	0	0	CorrectCommission	0.284514	0.533337	1
228.858627	0.795826	city	4	1	0.699063	0.699063	0	1	0	0	CorrectCommission	0.841530	0.517871	1
229.654465	0.795852	city	6	1	0.549464	0.549464	0	1	0	0	CorrectCommission	0.011090	0.503190	1
230.450272	0.795759	city	4	1	0.500314	0.500314	0	1	0	0	CorrectCommission	0.291212	0.488918	1
231.246033	0.795774	city	3	1	0.399916	0.399916	0	1	0	0	CorrectCommission	0.863419	0.474479	1
232.041855	0.795876	city	1	1	0.449613	0.449613	0	1	0	0	CorrectCommission	0.580179	0.459289	1
232.837708	0.795811	city	10	1	0.449892	0.449892	0	1	0	0	CorrectCommission	0.578586	0.442957	1
233.633636	0.796060	city	9	1	0.406994	0.406994	0	1	0	0	CorrectCommission	0.823079	0.425379	1
234.429581	0.795807	city	5	1	0.414766	0.414766	0	1	0	0	CorrectCommission	0.778783	0.406842	1
235.225235	0.795504	city	7	1	0.549120	0.549120	0	1	0	0	CorrectCommission	0.013051	0.388048	1
236.020889	0.795828	city	4	1	0.599081	0.599081	0	1	0	0	CorrectCommission	0.271700	0.370103	1
236.816711	0.795789	city	6	1	0.598997	0.598997	0	1	0	0	CorrectCommission	0.271217	0.354337	1
237.612640	0.796095	city	5	1	0.599518	0.599518	0	1	0	0	CorrectCommission	0.274187	0.342225	1
238.408432	0.795477	city	2	1	0.549138	0.549138	0	1	0	0	CorrectCommission	0.012947	0.335212	1
239.204056	0.795780	city	10	1	0.516489	0.516489	0	1	0	0	CorrectCommission	0.199027	0.334563	1
239.999878	0.795851	city	3	1	0.503148	0.503148	0	1	0	0	CorrectCommission	0.275059	0.341202	1
240.795685	0.795775	city	1	1	0.609411	0.609411	0	1	0	0	CorrectCommission	0.330572	0.355622	1
241.591461	0.795780	city	10	1	0.564926	0.564926	0	1	0	0	CorrectCommission	0.077038	0.377801	1
242.387283	0.795858	city	9	1	0.549339	0.549339	0	1	0	0	CorrectCommission	0.011800	0.407177	1
243.183075	0.795726	city	10	1	0.499355	0.499355	0	1	0	0	CorrectCommission	0.296677	0.442631	1
243.978867	0.795850	city	2	1	0.449638	0.449638	0	1	0	0	CorrectCommission	0.580037	0.482544	1
244.774719	0.795842	city	4	1	0.456332	0.456332	0	1	0	0	CorrectCommission	0.541884	0.524898	1
245.570511	0.795757	city	8	1	0.462126	0.462126	0	1	0	0	CorrectCommission	0.508860	0.567402	1
246.366440	0.796100	city	1	1	0.449875	0.449875	0	1	0	0	CorrectCommission	0.578684	0.607627	0
247.162384	0.795788	city	6	1	0.414933	0.414933	0	1	0	0	CorrectCommission	0.777831	0.643224	0
247.958008	0.795463	city	8	1	0.353747	0.353747	0	1	0	0	CorrectCommission	1.126556	0.672073	0
248.753693	0.795900	city	2	1	0.414781	0.414781	0	1	0	0	CorrectCommission	0.778699	0.692447	0
249.549667	0.796065	city	10	1	0.400332	0.400332	0	1	0	0	CorrectCommission	0.861050	0.703214	0
250.345474	0.795529	city	5	1	0.366638	0.366638	0	1	0	0	CorrectCommission	1.053083	0.703884	0
251.141144	0.795815	city	2	1	0.350584	0.350584	0	1	0	0	CorrectCommission	1.144579	0.694669	0
251.936935	0.795758	city	9	1	0.399828	0.399828	0	1	0	0	CorrectCommission	0.863920	0.676473	0
252.732727	0.795823	city	2	1	0.400757	0.400757	0	1	0	0	CorrectCommission	0.858627	0.650842	0
253.528519	0.795779	mountain	7	1	0.399996	0.399996	0	0	1	0	CommissionError	0.862966	0.619724	0
254.324280	0.795745	city	3	1	0.450559	0.450559	0	1	0	0	CorrectCommission	0.574783	0.585307	1
255.120102	0.795898	city	10	1	0.499523	0.499523	0	1	0	0	CorrectCommission	0.295721	0.549803	1
255.916077	0.796035	city	3	1	0.549132	0.549132	0	1	0	0	CorrectCommission	0.012981	0.515210	1
256.712006	0.795817	city	10	1	0.553535	0.553535	0	1	0	0	CorrectCommission	0.012115	0.483143	1
257.507812	0.795805	city	5	1	0.649122	0.649122	0	1	0	0	CorrectCommission	0.556899	0.454698	1
258.303467	0.795531	city	8	1	0.608102	0.608102	0	1	0	0	CorrectCommission	0.323110	0.430419	1
259.099121	0.795728	city	10	1	0.599209	0.599209	0	1	0	0	CorrectCommission	0.272428	0.410397	1
259.895050	0.796167	city	9	1	0.648698	0.648698	0	1	0	0	CorrectCommission	0.554485	0.394342	1
260.691040	0.795792	city	3	1	0.598821	0.598821	0	1	0	0	CorrectCommission	0.270215	0.381710	1
261.486664	0.795484	city	2	1	0.599259	0.599259	0	1	0	0	CorrectCommission	0.272710	0.371887	1
262.282288	0.795769	city	5	1	0.649416	0.649416	0	1	0	0	CorrectCommission	0.558575	0.364311	1
263.078125	0.795873	city	8	1	0.648737	0.648737	0	1	0	0	CorrectCommission	0.554704	0.358545	1
263.873932	0.795724	city	6	1	0.649103	0.649103	0	1	0	0	CorrectCommission	0.556790	0.354322	1
264.669708	0.795843	city	8	1	0.648743	0.648743	0	1	0	0	CorrectCommission	0.554743	0.351526	1
265.465515	0.795816	city	10	1	0.550034	0.550034	0	1	0	0	CorrectCommission	0.007841	0.350107	1
266.261475	0.796080	city	2	1	0.552812	0.552812	0	1	0	0	CorrectCommission	0.007993	0.350015	1
267.057312	0.795566	city	3	1	0.558663	0.558663	0	1	0	0	CorrectCommission	0.041341	0.351083	1
267.852936	0.795705	city	10	1	0.459740	0.459740	0	1	0	0	CorrectCommission	0.522457	0.353012	1
268.648712	0.795844	city	2	1	0.550193	0.550193	0	1	0	0	CorrectCommission	0.006934	0.355342	1
269.444550	0.795809	city	5	1	0.516235	0.516235	0	1	0	0	CorrectCommission	0.200472	0.357580	1
270.240356	0.795802	city	1	1	0.419845	0.419845	0	1	0	0	CorrectCommission	0.749835	0.359244	1
271.036163	0.795847	city	4	1	0.450287	0.450287	0	1	0	0	CorrectCommission	0.576337	0.359981	1
271.831970	0.795730	city	7	1	0.399830	0.399830	0	1	0	0	CorrectCommission	0.863909	0.359772	1
272.627747	0.795834	city	1	1	0.457523	0.457523	0	1	0	0	CorrectCommission	0.535096	0.358967	1
273.423523	0.795764	city	9	1	0.502664	0.502664	0	1	0	0	CorrectCommission	0.277818	0.358311	1
274.219330	0.795820	city	8	1	0.500820	0.500820	0	1	0	0	CorrectCommission	0.288330	0.358853	1
275.015137	0.795807	city	9	1	0.598937	0.598937	0	1	0	0	CorrectCommission	0.270878	0.361797	1
275.810944	0.795812	city	2	1	0.565834	0.565834	0	1	0	0	CorrectCommission	0.082211	0.368315	1
276.606903	0.796089	city	6	1	0.558779	0.558779	0	1	0	0	CorrectCommission	0.042004	0.379358	1
277.402679	0.795471	city	2	1	0.501377	0.501377	0	1	0	0	CorrectCommission	0.285154	0.395412	1
278.198364	0.795891	city	4	1	0.599324	0.599324	0	1	0	0	CorrectCommission	0.273084	0.416373	1
278.994324	0.796054	city	5	1	0.559378	0.559378	0	1	0	0	CorrectCommission	0.045413	0.441490	1
279.790253	0.795800	city	2	1	0.462450	0.462450	0	1	0	0	CorrectCommission	0.507017	0.469383	1
280.585907	0.795459	city	3	1	0.450181	0.450181	0	1	0	0	CorrectCommission	0.576940	0.498137	1
281.381531	0.795835	city	4	1	0.499469	0.499469	0	1	0	0	CorrectCommission	0.296031	0.525541	1
282.177368	0.795805	city	6	1	0.499719	0.499719	0	1	0	0	CorrectCommission	0.294607	0.549343	1
282.973328	0.796106	city	8	1	0.362211	0.362211	0	1	0	0	CorrectCommission	1.078313	0.567527	1
283.769135	0.795523	city	4	1	0.300951	0.300951	0	1	0	0	CorrectCommission	1.427461	0.578535	1
284.564758	0.795753	mountain	10	1	0.316376	0.316376	0	0	1	0	CommissionError	1.339547	0.581523	1
285.360718	0.796142	city	2	1	0.366611	0.366611	0	1	0	0	CorrectCommission	1.053236	0.576436	1
286.156525	0.795477	city	6	1	0.556056	0.556056	0	1	0	0	CorrectCommission	0.026481	0.564031	1
286.952179	0.795857	city	5	1	0.503848	0.503848	0	1	0	0	CorrectCommission	0.271070	0.545776	1
287.747986	0.795750	city	7	1	0.403869	0.403869	0	1	0	0	CorrectCommission	0.840891	0.523590	1
288.543762	0.795770	city	6	1	0.456846	0.456846	0	1	0	0	CorrectCommission	0.538952	0.499724	1
289.339539	0.795804	city	9	1	0.517783	0.517783	0	1	0	0	CorrectCommission	0.191648	0.476512	1
290.135376	0.795887	city	4	1	0.604801	0.604801	0	1	0	0	CorrectCommission	0.304295	0.456200	1
290.931213	0.795742	city	9	1	0.549662	0.549662	0	1	0	0	CorrectCommission	0.009959	0.440800	1
291.727142	0.796118	city	8	1	0.469109	0.469109	0	1	0	0	CorrectCommission	0.469064	0.432091	1
292.522919	0.795438	city	3	1	0.517096	0.517096	0	1	0	0	CorrectCommission	0.195567	0.431546	1
293.318726	0.796169	city	8	1	0.503591	0.503591	0	1	0	0	CorrectCommission	0.272534	0.440496	1
294.114685	0.795794	city	4	1	0.506842	0.506842	0	1	0	0	CorrectCommission	0.254006	0.460154	1
294.910339	0.795501	city	3	1	0.462465	0.462465	0	1	0	0	CorrectCommission	0.506927	0.491645	1
295.705994	0.795809	city	2	1	0.449591	0.449591	0	1	0	0	CorrectCommission	0.580305	0.535966	1
296.501831	0.795836	city	1	1	0.462823	0.462823	0	1	0	0	CorrectCommission	0.504886	0.593906	1
297.297791	0.796071	city	9	1	0.450075	0.450075	0	1	0	0	CorrectCommission	0.577546	0.665805	0
298.093536	0.795467	city	8	1	0.450136	0.450136	0	1	0	0	CorrectCommission	0.577197	0.751298	0
298.889160	0.795777	city	4	1	0.499443	0.499443	0	1	0	0	CorrectCommission	0.296179	0.849079	0
299.684998	0.795868	city	5	1	0.449665	0.449665	0	1	0	0	CorrectCommission	0.579880	0.956676	0
300.480835	0.795791	city	1	1	0.464402	0.464402	0	1	0	0	CorrectCommission	0.495890	1.070314	0
301.276611	0.795821	city	4	1	0.459079	0.459079	0	1	0	0	CorrectCommission	0.526225	1.185067	0
302.072418	0.795734	city	5	1	0.456907	0.456907	0	1	0	0	CorrectCommission	0.538608	1.295143	0
302.868164	0.795781	city	3	1	0.400296	0.400296	0	1	0	0	CorrectCommission	0.861252	1.394405	0
303.664124	0.796158	city	9	1	1.047474	1.047474	0	1	0	0	CorrectCommission	2.827258	1.477017	0
304.459961	0.795499	city	4	1	1.108454	1.108454	0	1	0	0	CorrectCommission	3.174804	1.538083	0
305.255768	0.796119	city	3	1	1.145940	1.145940	0	1	0	0	CorrectCommission	3.388454	1.574382	0
306.051575	0.795510	city	7	1	1.111069	1.111069	0	1	0	0	CorrectCommission	3.189709	1.584766	0
306.847229	0.795774	city	1	1	1.109392	1.109392	0	1	0	0	CorrectCommission	3.180151	1.570335	0
307.643036	0.795842	mountain	3	0	0.000000	0.759804	1	0	0	0	CorrectOmission	1.187718	1.534220	0
308.438843	0.795764	city	1	1	0.409840	0.409840	0	1	0	0	CorrectCommission	0.806860	1.481228	0
309.234589	0.795752	city	3	1	0.407034	0.407034	0	1	0	0	CorrectCommission	0.822851	1.417010	0
310.030365	0.795805	city	1	1	0.450414	0.450414	0	1	0	0	CorrectCommission	0.575613	1.347382	0
310.826172	0.795801	city	4	1	0.450382	0.450382	0	1	0	0	CorrectCommission	0.575792	1.277580	0
311.622009	0.795852	city	7	1	0.399915	0.399915	0	1	0	0	CorrectCommission	0.863424	1.211680	0
312.417816	0.795795	city	1	1	0.407181	0.407181	0	1	0	0	CorrectCommission	0.822015	1.152250	0
313.213593	0.795767	city	2	1	0.399851	0.399851	0	1	0	0	CorrectCommission	0.863789	1.100312	0
314.009399	0.795806	city	7	1	0.310000	0.310000	0	1	0	0	CorrectCommission	1.375886	1.055475	0
314.805206	0.795790	city	2	1	0.353227	0.353227	0	1	0	0	CorrectCommission	1.129515	1.016296	0
315.601044	0.795892	city	6	1	0.400149	0.400149	0	1	0	0	CorrectCommission	0.862092	0.980788	0
316.396851	0.795768	city	10	1	0.353306	0.353306	0	1	0	0	CorrectCommission	1.129069	0.946905	0
317.192627	0.795763	city	3	1	0.350163	0.350163	0	1	0	0	CorrectCommission	1.146980	0.912942	0
317.988434	0.795832	city	4	1	0.300606	0.300606	0	1	0	0	CorrectCommission	1.429422	0.877893	0
318.784241	0.795792	city	5	1	0.359649	0.359649	0	1	0	0	CorrectCommission	1.092913	0.841587	0
319.580048	0.795847	city	6	1	0.403998	0.403998	0	1	0	0	CorrectCommission	0.840153	0.804710	0
320.375854	0.795766	city	10	1	0.400899	0.400899	0	1	0	0	CorrectCommission	0.857817	0.768631	0
321.171661	0.795815	city	8	1	0.452554	0.452554	0	1	0	0	CorrectCommission	0.563412	0.735076	0
321.967468	0.795823	city	3	1	0.464374	0.464374	0	1	0	0	CorrectCommission	0.496049	0.705870	0
322.763245	0.795706	city	7	1	0.555641	0.555641	0	1	0	0	CorrectCommission	0.024117	0.682600	0
323.559052	0.795903	city	3	1	0.550613	0.550613	0	1	0	0	CorrectCommission	0.004538	0.666377	0
324.354889	0.795766	city	7	1	0.549797	0.549797	0	1	0	0	CorrectCommission	0.009191	0.657625	0
325.150665	0.795797	city	5	1	0.399770	0.399770	0	1	0	0	CorrectCommission	0.864253	0.656145	0
325.946472	0.795837	city	6	1	0.400656	0.400656	0	1	0	0	CorrectCommission	0.859201	0.661090	0
326.742279	0.795793	city	10	1	0.409474	0.409474	0	1	0	0	CorrectCommission	0.808943	0.671159	0
327.538208	0.796071	city	9	1	0.400536	0.400536	0	1	0	0	CorrectCommission	0.859885	0.684773	0
328.334167	0.795806	city	7	1	0.349824	0.349824	0	1	0	0	CorrectCommission	1.148910	0.700264	0
329.129822	0.795509	mountain	10	1	0.453053	0.453053	0	0	1	0	CommissionError	0.560573	0.716012	0
329.925476	0.795790	city	7	1	0.449675	0.449675	0	1	0	0	CorrectCommission	0.579824	0.730613	0
330.721283	0.795843	city	6	1	0.450040	0.450040	0	1	0	0	CorrectCommission	0.577746	0.742880	0
331.517090	0.795756	city	9	1	0.403157	0.403157	0	1	0	0	CorrectCommission	0.844950	0.751889	0
332.312866	0.795828	city	8	1	0.406567	0.406567	0	1	0	0	CorrectCommission	0.825514	0.757014	0
333.108673	0.795793	city	3	1	0.399916	0.399916	0	1	0	0	CorrectCommission	0.863417	0.757941	0
333.904480	0.795768	city	1	1	0.400088	0.400088	0	1	0	0	CorrectCommission	0.862439	0.754629	0
334.700226	0.795766	city	3	1	0.403805	0.403805	0	1	0	0	CorrectCommission	0.841253	0.747303	0
335.496033	0.795852	city	5	1	0.400928	0.400928	0	1	0	0	CorrectCommission	0.857653	0.736436	0
336.291901	0.795846	city	6	1	0.400343	0.400343	0	1	0	0	CorrectCommission	0.860983	0.722723	0
337.087708	0.795796	city	8	1	0.400391	0.400391	0	1	0	0	CorrectCommission	0.860714	0.707013	0
337.883636	0.796054	mountain	6	1	0.358187	0.358187	0	0	1	0	CommissionError	1.101247	0.690264	0
338.679413	0.795519	city	3	1	0.649064	0.649064	0	1	0	0	CorrectCommission	0.556568	0.673409	0
339.475098	0.795842	city	1	1	0.549703	0.549703	0	1	0	0	CorrectCommission	0.009724	0.657317	0
340.270905	0.795759	city	2	1	0.463961	0.463961	0	1	0	0	CorrectCommission	0.498404	0.642699	0
341.066681	0.795799	city	1	1	0.451066	0.451066	0	1	0	0	CorrectCommission	0.571894	0.630011	0
341.862457	0.795764	city	5	1	0.503851	0.503851	0	1	0	0	CorrectCommission	0.271057	0.619497	0
342.658264	0.795820	mountain	2	0	0.000000	0.599373	1	0	0	0	CorrectOmission	0.273359	0.611197	0
343.454071	0.795832	mountain	5	0	0.000000	0.699673	1	0	0	0	CorrectOmission	0.845008	0.604978	0
344.249908	0.795802	mountain	8	0	0.000000	0.766792	1	0	0	0	CorrectOmission	1.227544	0.600669	0
345.045685	0.795732	city	7	1	0.762770	0.762770	0	1	0	0	CorrectCommission	1.204622	0.598054	0
345.841461	0.795862	city	2	1	0.649648	0.649648	0	1	0	0	CorrectCommission	0.559896	0.596953	0
346.637268	0.795755	city	9	1	0.549356	0.549356	0	1	0	0	CorrectCommission	0.011703	0.597253	0
347.433075	0.795865	city	1	1	0.503309	0.503309	0	1	0	0	CorrectCommission	0.274143	0.598837	0
348.228912	0.795811	city	8	1	0.450392	0.450392	0	1	0	0	CorrectCommission	0.575738	0.601534	0
349.024689	0.795737	city	4	1	0.449633	0.449633	0	1	0	0	CorrectCommission	0.580063	0.605111	0
349.820465	0.795782	city	8	1	0.499685	0.499685	0	1	0	0	CorrectCommission	0.294798	0.609249	0
350.616425	0.796145	city	6	1	0.449932	0.449932	0	1	0	0	CorrectCommission	0.578358	0.613552	0
351.412231	0.795493	mountain	6	1	0.410604	0.410604	0	0	1	0	CommissionError	0.802503	0.617573	0
352.207886	0.795787	city	3	1	0.649891	0.649891	0	1	0	0	CorrectCommission	0.561281	0.620890	0
353.003693	0.795811	city	8	1	0.812798	0.812798	0	1	0	0	CorrectCommission	1.489752	0.623197	0
353.799469	0.795772	city	9	1	0.698615	0.698615	0	1	0	0	CorrectCommission	0.838978	0.624306	0
354.595306	0.795898	city	4	1	0.649558	0.649558	0	1	0	0	CorrectCommission	0.559384	0.624252	0
355.391144	0.795780	mountain	1	0	0.000000	0.619051	1	0	0	0	CorrectOmission	0.385517	0.623242	0
356.186920	0.795783	city	2	1	0.603392	0.603392	0	1	0	0	CorrectCommission	0.296270	0.621660	0
356.982727	0.795826	city	3	1	0.598877	0.598877	0	1	0	0	CorrectCommission	0.270536	0.620030	0
357.778503	0.795734	city	4	1	0.648929	0.648929	0	1	0	0	CorrectCommission	0.555799	0.618955	0
358.574432	0.796094	city	10	1	0.565689	0.565689	0	1	0	0	CorrectCommission	0.081382	0.619076	0
359.370239	0.795559	city	5	1	0.899453	0.899453	0	1	0	0	CorrectCommission	1.983631	0.621109	0
360.165894	0.795743	city	2	1	0.699081	0.699081	0	1	0	0	CorrectCommission	0.841634	0.625731	0
360.961731	0.795889	city	8	1	0.648977	0.648977	0	1	0	0	CorrectCommission	0.556076	0.633646	0
361.757538	0.795736	city	5	1	0.598767	0.598767	0	1	0	0	CorrectCommission	0.269905	0.645469	0
362.553284	0.795782	city	2	1	0.549541	0.549541	0	1	0	0	CorrectCommission	0.010651	0.661695	0
363.349121	0.795868	city	9	1	0.506577	0.506577	0	1	0	0	CorrectCommission	0.255517	0.682659	0
364.144928	0.795786	city	7	1	0.400062	0.400062	0	1	0	0	CorrectCommission	0.862587	0.708487	0
364.940887	0.796086	city	5	1	0.404676	0.404676	0	1	0	0	CorrectCommission	0.836293	0.739035	0
365.736694	0.795532	city	7	1	0.449380	0.449380	0	1	0	0	CorrectCommission	0.581505	0.773913	0
366.532349	0.795791	city	3	1	0.403931	0.403931	0	1	0	0	CorrectCommission	0.840538	0.812454	0
367.328125	0.795739	city	10	1	0.400646	0.400646	0	1	0	0	CorrectCommission	0.859261	0.853705	0
368.123871	0.795801	city	8	1	0.368367	0.368367	0	1	0	0	CorrectCommission	1.043231	0.896428	0
368.919708	0.795858	mountain	6	1	0.312882	0.312882	0	0	1	0	CommissionError	1.359461	0.939098	0
369.715576	0.795841	city	1	1	0.450070	0.450070	0	1	0	0	CorrectCommission	0.577570	0.980005	0
370.511353	0.795752	city	5	1	0.399928	0.399928	0	1	0	0	CorrectCommission	0.863353	1.017279	0
371.307159	0.795850	city	2	1	0.369066	0.369066	0	1	0	0	CorrectCommission	1.039242	1.049018	0
372.102997	0.795801	city	10	1	0.353061	0.353061	0	1	0	0	CorrectCommission	1.130465	1.073512	0
372.898773	0.795764	city	2	1	0.365051	0.365051	0	1	0	0	CorrectCommission	1.062125	1.089517	0
373.694550	0.795806	city	5	1	0.368738	0.368738	0	1	0	0	CorrectCommission	1.041112	1.096535	0
374.490326	0.795752	city	9	1	0.301417	0.301417	0	1	0	0	CorrectCommission	1.424802	1.095119	0
375.286102	0.795808	city	2	1	1.046979	1.046979	0	1	0	0	CorrectCommission	2.824437	1.087068	0
376.082092	0.796143	mountain	3	0	0.000000	0.791243	1	0	0	0	CorrectOmission	1.366901	1.075446	0
376.878052	0.795772	city	10	1	0.315230	0.315230	0	1	0	0	CorrectCommission	1.346077	1.064559	0
377.673706	0.795528	city	3	1	0.399961	0.399961	0	1	0	0	CorrectCommission	0.863165	1.059571	0
378.469360	0.795822	city	8	1	0.450625	0.450625	0	1	0	0	CorrectCommission	0.574408	1.065981	0
379.265167	0.795770	city	6	1	0.449670	0.449670	0	1	0	0	CorrectCommission	0.579851	1.088926	0
380.060944	0.795802	city	3	1	0.499642	0.499642	0	1	0	0	CorrectCommission	0.295046	1.132517	0
380.856903	0.796126	city	4	1	0.499656	0.499656	0	1	0	0	CorrectCommission	0.294963	1.199071	0
381.652740	0.795507	city	6	1	0.549233	0.549233	0	1	0	0	CorrectCommission	0.012404	1.288532	0
382.448395	0.795808	city	5	1	0.503157	0.503157	0	1	0	0	CorrectCommission	0.275007	1.398324	0
383.244202	0.795791	city	10	1	0.469063	0.469063	0	1	0	0	CorrectCommission	0.469323	1.523388	0
384.039948	0.795731	city	8	1	0.401266	0.401266	0	1	0	0	CorrectCommission	0.855728	1.656595	0
384.835754	0.795846	city	9	1	1.046872	1.046872	0	1	0	0	CorrectCommission	2.823829	1.789452	0
385.631531	0.795764	city	7	1	1.097088	1.097088	0	1	0	0	CorrectCommission	3.110029	1.912970	0
386.427368	0.795886	city	2	1	1.101625	1.101625	0	1	0	0	CorrectCommission	3.135883	2.018716	0
387.223206	0.795804	city	4	1	1.107904	1.107904	0	1	0	0	CorrectCommission	3.171670	2.099690	0
388.019012	0.795760	city	6	1	1.146196	1.146196	0	1	0	0	CorrectCommission	3.389911	2.150975	0
388.814789	0.795805	city	8	1	1.096392	1.096392	0	1	0	0	CorrectCommission	3.106063	2.170160	0
389.610718	0.796082	city	6	1	1.149446	1.149446	0	1	0	0	CorrectCommission	3.408437	2.157392	0
390.406555	0.795557	city	8	1	1.209886	1.209886	0	1	0	0	CorrectCommission	3.752905	2.115093	0
391.202209	0.795771	city	10	0	0.000000	0.847556	0	0	0	1	OmissionError	1.687848	2.047428	0
391.998016	0.795824	city	4	1	0.449858	0.449858	0	1	0	0	CorrectCommission	0.578779	1.959721	0
392.793762	0.795717	city	5	1	0.404197	0.404197	0	1	0	0	CorrectCommission	0.839017	1.857567	0
393.589722	0.796174	city	7	1	0.449908	0.449908	0	1	0	0	CorrectCommission	0.578494	1.746304	0
394.385712	0.795789	city	1	1	0.400059	0.400059	0	1	0	0	CorrectCommission	0.862606	1.630579	0
395.181335	0.795502	mountain	6	1	1.215595	1.215595	0	0	1	0	CommissionError	3.785443	1.514116	0
396.084900	1.011607	mountain	9	0	0.000000	1.093054	1	0	0	0	CorrectOmission	3.087038	1.399566	0
396.988495	0.795569	city	4	1	0.648998	0.648998	0	1	0	0	CorrectCommission	0.556193	1.288836	0
397.784149	0.795760	city	7	1	0.499987	0.499987	0	1	0	0	CorrectCommission	0.293078	1.183222	0
398.579926	0.795791	city	10	1	0.449738	0.449738	0	1	0	0	CorrectCommission	0.579466	1.083470	0
399.375763	0.795853	city	2	1	0.449960	0.449960	0	1	0	0	CorrectCommission	0.578198	0.990050	0
400.171570	0.795794	city	4	1	0.452571	0.452571	0	1	0	0	CorrectCommission	0.563317	0.903335	0
400.967499	0.796037	city	8	1	0.350800	0.350800	0	1	0	0	CorrectCommission	1.143350	0.823660	0
401.763245	0.795485	city	4	1	0.350046	0.350046	0	1	0	0	CorrectCommission	1.147647	0.751394	0
402.559082	0.796149	mountain	1	1	0.400907	0.400907	0	0	1	0	CommissionError	0.857773	0.686922	0
403.354858	0.795445	city	2	1	0.508554	0.508554	0	1	0	0	CorrectCommission	0.244251	0.630650	0
404.150513	0.795854	city	6	1	0.469566	0.469566	0	1	0	0	CorrectCommission	0.466455	0.582957	1
404.946503	0.796113	city	4	1	0.550013	0.550013	0	1	0	0	CorrectCommission	0.007957	0.544030	1
405.742310	0.795511	city	1	1	0.499190	0.499190	0	1	0	0	CorrectCommission	0.297619	0.513837	1
406.537933	0.795737	city	6	1	0.499745	0.499745	0	1	0	0	CorrectCommission	0.294455	0.492021	1
407.333740	0.795876	city	2	1	0.461483	0.461483	0	1	0	0	CorrectCommission	0.512526	0.477897	1
408.129578	0.795804	city	10	1	0.599685	0.599685	0	1	0	0	CorrectCommission	0.275139	0.470411	1
408.925354	0.795770	city	1	1	0.598771	0.598771	0	1	0	0	CorrectCommission	0.269933	0.468272	1
409.721161	0.795799	city	8	1	0.499814	0.499814	0	1	0	0	CorrectCommission	0.294062	0.470008	1
410.516968	0.795849	city	1	1	0.402810	0.402810	0	1	0	0	CorrectCommission	0.846923	0.474067	1
411.312927	0.796026	city	5	1	0.449882	0.449882	0	1	0	0	CorrectCommission	0.578641	0.478955	1
412.108704	0.795580	city	3	1	0.449282	0.449282	0	1	0	0	CorrectCommission	0.582065	0.483439	1
412.904388	0.795753	city	8	1	0.464378	0.464378	0	1	0	0	CorrectCommission	0.496028	0.486550	1
413.700165	0.795807	mountain	5	1	0.500049	0.500049	0	0	1	0	CommissionError	0.292722	0.487767	1
414.495941	0.795742	mountain	3	0	0.000000	0.644648	1	0	0	0	CorrectOmission	0.531402	0.487138	1
415.291718	0.795802	city	2	1	0.748404	0.748404	0	1	0	0	CorrectCommission	1.122748	0.485203	1
416.087555	0.795859	city	4	1	0.661548	0.661548	0	1	0	0	CorrectCommission	0.627721	0.482936	1
416.883392	0.795848	city	5	1	0.648596	0.648596	0	1	0	0	CorrectCommission	0.553899	0.481685	1
417.679169	0.795721	city	4	1	0.598876	0.598876	0	1	0	0	CorrectCommission	0.270529	0.482971	1
418.474976	0.795877	city	10	1	0.549245	0.549245	0	1	0	0	CorrectCommission	0.012336	0.488302	1
419.270782	0.795757	city	9	1	0.649756	0.649756	0	1	0	0	CorrectCommission	0.560511	0.498983	1
420.066559	0.795774	city	8	1	0.564471	0.564471	0	1	0	0	CorrectCommission	0.074443	0.515895	1
420.862335	0.795794	city	5	1	0.550003	0.550003	0	1	0	0	CorrectCommission	0.008017	0.539453	1
421.658142	0.795791	city	3	1	0.499809	0.499809	0	1	0	0	CorrectCommission	0.294090	0.569495	1
422.453949	0.795856	city	8	1	0.409737	0.409737	0	1	0	0	CorrectCommission	0.807447	0.605357	0
423.249786	0.795820	city	2	1	0.400182	0.400182	0	1	0	0	CorrectCommission	0.861901	0.645912	0
424.045624	0.795825	city	3	1	0.450039	0.450039	0	1	0	0	CorrectCommission	0.577751	0.689722	0
424.841431	0.795801	city	4	1	0.454174	0.454174	0	1	0	0	CorrectCommission	0.554185	0.735262	0
425.637207	0.795753	city	7	1	0.400589	0.400589	0	1	0	0	CorrectCommission	0.859581	0.781061	0
426.432983	0.795813	city	6	1	0.350729	0.350729	0	1	0	0	CorrectCommission	1.143756	0.825804	0
427.228760	0.795744	city	10	1	0.350521	0.350521	0	1	0	0	CorrectCommission	1.144938	0.868448	0
428.024536	0.795796	city	2	1	0.350958	0.350958	0	1	0	0	CorrectCommission	1.142452	0.908220	0
428.820526	0.796164	city	1	1	0.403744	0.403744	0	1	0	0	CorrectCommission	0.841599	0.944572	0
429.616333	0.795489	city	10	1	0.400469	0.400469	0	1	0	0	CorrectCommission	0.860268	0.977080	0
430.411987	0.795808	city	2	1	0.350474	0.350474	0	1	0	0	CorrectCommission	1.145210	1.005284	0
431.207794	0.795802	city	10	1	0.352401	0.352401	0	1	0	0	CorrectCommission	1.134223	1.028615	0
432.003601	0.795816	city	7	1	0.399936	0.399936	0	1	0	0	CorrectCommission	0.863304	1.046291	0
432.799408	0.795798	city	1	1	0.409889	0.409889	0	1	0	0	CorrectCommission	0.806578	1.057288	0
433.595184	0.795728	city	7	1	0.350854	0.350854	0	1	0	0	CorrectCommission	1.143039	1.060435	0
434.390961	0.795847	city	5	1	0.304482	0.304482	0	1	0	0	CorrectCommission	1.407335	1.054527	0
435.186798	0.795839	city	2	1	0.364335	0.364335	0	1	0	0	CorrectCommission	1.066209	1.038543	0
435.982758	0.796077	city	7	1	0.400193	0.400193	0	1	0	0	CorrectCommission	0.861843	1.011902	0
436.778564	0.795508	city	4	1	0.316614	0.316614	0	1	0	0	CorrectCommission	1.338191	0.974613	0
437.574341	0.796076	city	2	1	1.014556	1.014556	0	1	0	0	CorrectCommission	2.639646	0.927417	0
438.370148	0.795525	mountain	2	0	0.000000	0.906185	1	0	0	0	CorrectOmission	2.022000	0.871838	0
439.165833	0.795821	city	2	1	0.549527	0.549527	0	1	0	0	CorrectCommission	0.010728	0.810123	0
439.961639	0.795775	city	7	1	0.502608	0.502608	0	1	0	0	CorrectCommission	0.278139	0.745038	0
440.757568	0.796106	city	5	1	0.459971	0.459971	0	1	0	0	CorrectCommission	0.521145	0.679473	0
441.553406	0.795551	city	7	1	0.550287	0.550287	0	1	0	0	CorrectCommission	0.006396	0.616217	0
442.349030	0.795744	city	4	1	0.564243	0.564243	0	1	0	0	CorrectCommission	0.073143	0.557691	1
443.144836	0.795820	city	3	1	0.503712	0.503712	0	1	0	0	CorrectCommission	0.271847	0.505673	1
443.940765	0.796094	city	5	1	0.599074	0.599074	0	1	0	0	CorrectCommission	0.271660	0.461226	1
444.736725	0.795775	city	10	1	0.499444	0.499444	0	1	0	0	CorrectCommission	0.296172	0.424716	1
445.532349	0.795522	city	2	1	0.549139	0.549139	0	1	0	0	CorrectCommission	0.012943	0.395903	1
446.328003	0.795761	city	10	1	0.711529	0.711529	0	1	0	0	CorrectCommission	0.912580	0.374138	1
447.123810	0.795859	city	5	1	0.698387	0.698387	0	1	0	0	CorrectCommission	0.837682	0.358487	1
447.919800	0.796095	city	3	1	0.599111	0.599111	0	1	0	0	CorrectCommission	0.271866	0.348002	1
448.715729	0.795806	city	7	1	0.598895	0.598895	0	1	0	0	CorrectCommission	0.270639	0.341820	1
449.511414	0.795507	city	5	1	0.599040	0.599040	0	1	0	0	CorrectCommission	0.271464	0.339221	1
450.307190	0.796094	city	2	1	0.549234	0.549234	0	1	0	0	CorrectCommission	0.012398	0.339714	1
451.102966	0.795445	city	4	1	0.549625	0.549625	0	1	0	0	CorrectCommission	0.010173	0.343068	1
451.898590	0.795802	city	10	1	0.549174	0.549174	0	1	0	0	CorrectCommission	0.012739	0.349251	1
452.694580	0.796161	city	2	1	0.554140	0.554140	0	1	0	0	CorrectCommission	0.015562	0.358405	1
453.490417	0.795498	city	4	1	0.797768	0.797768	0	1	0	0	CorrectCommission	1.404088	0.370870	1
454.286011	0.795741	city	7	1	0.658688	0.658688	0	1	0	0	CorrectCommission	0.611419	0.387105	1
455.081818	0.795878	city	1	1	0.605589	0.605589	0	1	0	0	CorrectCommission	0.308788	0.407734	1
455.877655	0.795774	city	5	1	0.599075	0.599075	0	1	0	0	CorrectCommission	0.271664	0.433426	1
456.673462	0.795839	city	8	1	0.599167	0.599167	0	1	0	0	CorrectCommission	0.272189	0.464821	1
457.469421	0.796063	city	4	1	0.602896	0.602896	0	1	0	0	CorrectCommission	0.293438	0.502348	1
458.265228	0.795544	city	1	1	0.567851	0.567851	0	1	0	0	CorrectCommission	0.093707	0.546068	1
459.061035	0.796069	city	7	1	0.499634	0.499634	0	1	0	0	CorrectCommission	0.295090	0.595554	0
459.856964	0.795777	city	5	1	0.453333	0.453333	0	1	0	0	CorrectCommission	0.558974	0.649784	0
460.652618	0.795537	city	6	1	0.449281	0.449281	0	1	0	0	CorrectCommission	0.582066	0.707113	0
461.448242	0.795736	city	1	1	0.407245	0.407245	0	1	0	0	CorrectCommission	0.821649	0.765355	0
462.244019	0.795810	city	8	1	0.399989	0.399989	0	1	0	0	CorrectCommission	0.863003	0.821875	0
463.039825	0.795838	mountain	10	1	0.304942	0.304942	0	0	1	0	CommissionError	1.404714	0.873881	0
463.835632	0.795770	city	9	1	0.701014	0.701014	0	1	0	0	CorrectCommission	0.852653	0.918632	0
464.631439	0.795838	city	6	1	0.599811	0.599811	0	1	0	0	CorrectCommission	0.275860	0.953819	0
465.427277	0.795809	city	1	1	0.400271	0.400271	0	1	0	0	CorrectCommission	0.861394	0.977822	0
466.223083	0.795791	city	6	1	1.009114	1.009114	0	1	0	0	CorrectCommission	2.608629	0.989866	0
467.018860	0.795783	city	10	1	1.053077	1.053077	0	1	0	0	CorrectCommission	2.859191	0.990150	0
467.814667	0.795837	city	2	0	0.000000	0.759131	0	0	0	1	OmissionError	1.183883	0.979917	0
468.610474	0.795784	city	3	1	0.450421	0.450421	0	1	0	0	CorrectCommission	0.575573	0.961284	0
469.406433	0.796107	mountain	3	1	0.450091	0.450091	0	0	1	0	CommissionError	0.577452	0.936870	0
470.202240	0.795497	city	9	1	0.501878	0.501878	0	1	0	0	CorrectCommission	0.282298	0.909501	0
470.998016	0.796097	city	10	1	0.450419	0.450419	0	1	0	0	CorrectCommission	0.575581	0.881817	0
471.793823	0.795497	city	7	1	0.499937	0.499937	0	1	0	0	CorrectCommission	0.293362	0.855997	0
472.589478	0.795836	city	1	1	0.450415	0.450415	0	1	0	0	CorrectCommission	0.575604	0.833573	0
473.385437	0.796084	city	7	1	0.407297	0.407297	0	1	0	0	CorrectCommission	0.821353	0.815291	0
474.181244	0.795480	city	2	1	0.450141	0.450141	0	1	0	0	CorrectCommission	0.577168	0.801191	0
474.976868	0.795818	city	8	1	0.350911	0.350911	0	1	0	0	CorrectCommission	1.142720	0.790736	0
475.772705	0.795836	mountain	10	1	0.301546	0.301546	0	0	1	0	CommissionError	1.424069	0.782962	0
476.568481	0.795715	city	9	1	0.797995	0.797995	0	1	0	0	CorrectCommission	1.405386	0.776733	0
477.364258	0.795845	city	8	1	0.598868	0.598868	0	1	0	0	CorrectCommission	0.270483	0.770903	0
478.160065	0.795751	city	5	1	0.503201	0.503201	0	1	0	0	CorrectCommission	0.274756	0.764474	0
478.955872	0.795852	city	6	1	0.459267	0.459267	0	1	0	0	CorrectCommission	0.525153	0.756597	0
479.751678	0.795815	city	7	1	0.415282	0.415282	0	1	0	0	CorrectCommission	0.775840	0.746652	0
480.547638	0.796063	city	4	1	0.403670	0.403670	0	1	0	0	CorrectCommission	0.842025	0.734238	0
481.343445	0.795537	city	6	1	0.410027	0.410027	0	1	0	0	CorrectCommission	0.805791	0.719195	0
482.139130	0.795845	city	1	1	0.356869	0.356869	0	1	0	0	CorrectCommission	1.108759	0.701548	0
482.934906	0.795705	mountain	4	1	0.300705	0.300705	0	0	1	0	CommissionError	1.428858	0.681481	0
483.730682	0.795853	city	3	1	0.664044	0.664044	0	1	0	0	CorrectCommission	0.641947	0.659270	0
484.526489	0.795756	city	9	1	0.561486	0.561486	0	1	0	0	CorrectCommission	0.057427	0.635311	0
485.322266	0.795818	city	2	1	0.507407	0.507407	0	1	0	0	CorrectCommission	0.250788	0.610056	0
486.118073	0.795808	city	3	1	0.499707	0.499707	0	1	0	0	CorrectCommission	0.294674	0.583950	1
486.913879	0.795815	city	4	1	0.649215	0.649215	0	1	0	0	CorrectCommission	0.557428	0.557428	1
