onset	duration	trial_type	image_type	Press	ReactionTime	ReactionTime_Interpolated	CorrectOmission	CorrectCommission	CommissionError	OmissionError	response_type	nonsmoothVarianceTimeCourse	VarianceTimeCourse	In_the_Zone
8.421641	0.795758	city	7	1	0.599644	0.599644	0	1	0	0	CorrectCommission	0.584834	0.584834	1
9.217433	0.795824	city	5	1	0.400006	0.400006	0	1	0	0	CorrectCommission	2.315461	0.706660	1
10.013233	0.795777	city	3	1	0.450320	0.450320	0	1	0	0	CorrectCommission	1.879301	0.821629	0
10.809199	0.796156	city	5	1	0.404167	0.404167	0	1	0	0	CorrectCommission	2.279397	0.923662	0
11.605032	0.795509	city	6	1	0.449449	0.449449	0	1	0	0	CorrectCommission	1.886848	1.008054	0
12.400676	0.795779	city	3	1	0.549491	0.549491	0	1	0	0	CorrectCommission	1.019602	1.071925	0
13.196497	0.795863	city	5	1	0.456615	0.456615	0	1	0	0	CorrectCommission	1.824727	1.114401	0
13.992314	0.795771	city	1	1	0.499828	0.499828	0	1	0	0	CorrectCommission	1.450120	1.136555	0
14.788068	0.795737	city	2	1	0.499320	0.499320	0	1	0	0	CorrectCommission	1.454528	1.141180	0
15.583851	0.795829	city	7	1	0.509281	0.509281	0	1	0	0	CorrectCommission	1.368174	1.132291	0
16.379683	0.795836	city	9	1	0.649431	0.649431	0	1	0	0	CorrectCommission	0.153233	1.114534	0
17.175512	0.795821	city	5	1	0.499934	0.499934	0	1	0	0	CorrectCommission	1.449206	1.092775	0
17.971317	0.795789	city	3	1	0.599346	0.599346	0	1	0	0	CorrectCommission	0.587412	1.071357	0
18.767126	0.795829	city	4	1	0.605658	0.605658	0	1	0	0	CorrectCommission	0.532699	1.053897	0
19.562916	0.795750	city	1	1	0.501178	0.501178	0	1	0	0	CorrectCommission	1.438416	1.042872	0
20.358667	0.795756	city	5	1	0.550170	0.550170	0	1	0	0	CorrectCommission	1.013713	1.039422	0
21.154476	0.795862	mountain	3	0	0.000000	0.658469	1	0	0	0	CorrectOmission	0.074889	1.043449	0
21.950325	0.795833	city	6	1	0.749901	0.749901	0	1	0	0	CorrectCommission	0.717727	1.053691	0
22.746143	0.795806	city	7	1	0.748295	0.748295	0	1	0	0	CorrectCommission	0.703807	1.067870	0
23.541904	0.795713	city	2	1	0.550097	0.550097	0	1	0	0	CorrectCommission	1.014346	1.083129	0
24.337685	0.795847	city	1	1	0.452210	0.452210	0	1	0	0	CorrectCommission	1.862914	1.096323	0
25.133518	0.795822	city	3	1	0.449647	0.449647	0	1	0	0	CorrectCommission	1.885133	1.104424	0
25.929321	0.795785	city	1	1	0.549128	0.549128	0	1	0	0	CorrectCommission	1.022743	1.104829	0
26.725115	0.795801	city	7	1	0.897628	0.897628	0	1	0	0	CorrectCommission	1.998351	1.095669	0
27.520905	0.795776	city	4	1	0.561181	0.561181	0	1	0	0	CorrectCommission	0.918259	1.075931	0
28.316858	0.796131	city	10	1	0.598863	0.598863	0	1	0	0	CorrectCommission	0.591602	1.045656	0
29.112820	0.795793	city	2	1	0.499421	0.499421	0	1	0	0	CorrectCommission	1.453654	1.005808	0
29.908453	0.795473	mountain	7	1	0.499185	0.499185	0	0	1	0	CommissionError	1.455696	0.958164	0
30.704105	0.795831	city	2	1	0.909969	0.909969	0	1	0	0	CorrectCommission	2.105335	0.905135	0
31.500069	0.796095	city	5	1	0.648528	0.648528	0	1	0	0	CorrectCommission	0.161058	0.849467	0
32.295837	0.795447	city	6	1	0.648933	0.648933	0	1	0	0	CorrectCommission	0.157549	0.794074	0
33.091488	0.795854	city	1	1	0.603521	0.603521	0	1	0	0	CorrectCommission	0.551221	0.741574	1
33.887459	0.796086	city	7	1	0.651816	0.651816	0	1	0	0	CorrectCommission	0.132563	0.694167	1
34.683258	0.795513	city	2	1	0.599645	0.599645	0	1	0	0	CorrectCommission	0.584824	0.653467	1
35.478905	0.795780	city	5	1	0.698742	0.698742	0	1	0	0	CorrectCommission	0.274236	0.620431	1
36.274727	0.795861	city	1	1	0.648858	0.648858	0	1	0	0	CorrectCommission	0.158204	0.595343	1
37.070534	0.795756	city	10	1	0.798785	0.798785	0	1	0	0	CorrectCommission	1.141499	0.577949	1
37.866291	0.795759	city	8	1	0.648666	0.648666	0	1	0	0	CorrectCommission	0.159867	0.567555	1
38.662098	0.795854	city	9	1	0.599683	0.599683	0	1	0	0	CorrectCommission	0.584495	0.563343	1
39.457920	0.795792	city	7	1	0.552814	0.552814	0	1	0	0	CorrectCommission	0.990794	0.564376	1
40.253742	0.795854	city	8	1	0.549741	0.549741	0	1	0	0	CorrectCommission	1.017436	0.569774	1
41.049545	0.795751	city	1	1	0.655593	0.655593	0	1	0	0	CorrectCommission	0.099814	0.578787	1
41.845333	0.795822	city	9	1	0.700334	0.700334	0	1	0	0	CorrectCommission	0.288040	0.590782	1
42.641151	0.795813	city	3	1	0.648882	0.648882	0	1	0	0	CorrectCommission	0.157992	0.605179	1
43.436943	0.795769	city	8	1	0.748384	0.748384	0	1	0	0	CorrectCommission	0.704574	0.621456	1
44.232708	0.795758	city	2	1	0.748084	0.748084	0	1	0	0	CorrectCommission	0.701973	0.638989	1
45.028530	0.795888	city	7	1	0.748439	0.748439	0	1	0	0	CorrectCommission	0.705055	0.657091	1
45.824333	0.795721	city	1	1	0.797903	0.797903	0	1	0	0	CorrectCommission	1.133852	0.674982	1
46.620136	0.795885	city	3	1	0.748403	0.748403	0	1	0	0	CorrectCommission	0.704742	0.691747	1
47.416115	0.796072	city	8	1	0.748127	0.748127	0	1	0	0	CorrectCommission	0.702352	0.706450	1
48.211876	0.795447	city	7	1	0.648371	0.648371	0	1	0	0	CorrectCommission	0.162421	0.718100	1
49.007515	0.795835	city	6	1	0.666351	0.666351	0	1	0	0	CorrectCommission	0.006554	0.725887	1
49.803326	0.795787	city	5	1	0.514110	0.514110	0	1	0	0	CorrectCommission	1.326316	0.729223	1
50.599274	0.796106	city	6	1	0.947806	0.947806	0	1	0	0	CorrectCommission	2.433337	0.727735	1
51.395084	0.795513	city	4	1	0.699324	0.699324	0	1	0	0	CorrectCommission	0.279284	0.721448	1
52.190750	0.795822	city	5	1	0.558819	0.558819	0	1	0	0	CorrectCommission	0.938740	0.710874	1
52.986561	0.795802	mountain	2	0	0.000000	0.596713	1	0	0	0	CorrectOmission	0.610243	0.696796	1
53.782364	0.795803	city	6	1	0.698383	0.698383	0	1	0	0	CorrectCommission	0.271127	0.680264	1
54.578171	0.795808	city	7	1	0.749209	0.749209	0	1	0	0	CorrectCommission	0.711724	0.662448	1
55.373993	0.795841	city	5	1	0.748492	0.748492	0	1	0	0	CorrectCommission	0.705515	0.644479	1
56.169788	0.795744	city	9	1	0.749481	0.749481	0	1	0	0	CorrectCommission	0.714083	0.627332	1
56.965580	0.795846	city	7	1	0.655208	0.655208	0	1	0	0	CorrectCommission	0.103158	0.611736	1
57.761360	0.795710	city	8	1	0.602563	0.602563	0	1	0	0	CorrectCommission	0.559528	0.598119	1
58.557156	0.795886	city	10	1	0.598987	0.598987	0	1	0	0	CorrectCommission	0.590527	0.586592	1
59.352955	0.795709	city	8	1	0.603025	0.603025	0	1	0	0	CorrectCommission	0.555521	0.577053	1
60.148731	0.795845	city	7	1	0.649737	0.649737	0	1	0	0	CorrectCommission	0.150583	0.569239	1
60.944569	0.795825	mountain	8	0	0.000000	0.738068	1	0	0	0	CorrectOmission	0.615145	0.562818	1
61.740353	0.795748	mountain	7	0	0.000000	0.807570	1	0	0	0	CorrectOmission	1.217648	0.557467	1
62.536301	0.796149	city	3	1	0.797795	0.797795	0	1	0	0	CorrectCommission	1.132909	0.553014	1
63.332134	0.795514	city	1	1	0.648294	0.648294	0	1	0	0	CorrectCommission	0.163089	0.549410	1
64.127785	0.795789	city	8	1	0.648553	0.648553	0	1	0	0	CorrectCommission	0.160844	0.546830	1
64.923592	0.795832	city	7	1	0.549460	0.549460	0	1	0	0	CorrectCommission	1.019871	0.545523	1
65.719376	0.795732	city	10	1	0.666415	0.666415	0	1	0	0	CorrectCommission	0.006005	0.545736	1
66.515175	0.795863	city	3	1	0.656820	0.656820	0	1	0	0	CorrectCommission	0.089180	0.547815	1
67.311012	0.795820	city	1	1	0.698678	0.698678	0	1	0	0	CorrectCommission	0.273682	0.551930	1
68.106819	0.795781	city	4	1	0.798053	0.798053	0	1	0	0	CorrectCommission	1.135149	0.558116	1
68.902596	0.795785	city	1	1	0.698623	0.698623	0	1	0	0	CorrectCommission	0.273208	0.566324	1
69.698380	0.795771	city	6	1	0.798159	0.798159	0	1	0	0	CorrectCommission	1.136072	0.576414	1
70.494194	0.795869	mountain	9	0	0.000000	0.757036	1	0	0	0	CorrectOmission	0.779577	0.588087	1
71.290001	0.795746	city	2	1	0.699087	0.699087	0	1	0	0	CorrectCommission	0.277229	0.600977	1
72.085922	0.796091	city	10	1	0.748148	0.748148	0	1	0	0	CorrectCommission	0.702533	0.614611	1
72.881737	0.795534	mountain	9	0	0.000000	0.694783	1	0	0	0	CorrectOmission	0.239913	0.628362	1
73.677391	0.795774	city	7	1	0.668363	0.668363	0	1	0	0	CorrectCommission	0.010884	0.641569	1
74.473160	0.795769	city	5	1	0.798262	0.798262	0	1	0	0	CorrectCommission	1.136961	0.653505	1
75.268951	0.795818	city	1	1	0.797934	0.797934	0	1	0	0	CorrectCommission	1.134114	0.663366	1
76.064758	0.795783	mountain	5	0	0.000000	0.728221	1	0	0	0	CorrectOmission	0.529785	0.670442	1
76.860542	0.795799	city	10	1	0.706016	0.706016	0	1	0	0	CorrectCommission	0.337290	0.674213	1
77.656387	0.795885	city	4	1	0.848210	0.848210	0	1	0	0	CorrectCommission	1.569950	0.674383	1
78.452209	0.795762	city	5	1	0.698410	0.698410	0	1	0	0	CorrectCommission	0.271355	0.670885	1
79.247986	0.795779	city	10	1	0.549976	0.549976	0	1	0	0	CorrectCommission	1.015393	0.664125	1
80.043800	0.795851	city	8	1	0.798246	0.798246	0	1	0	0	CorrectCommission	1.136820	0.654744	1
80.839630	0.795811	city	10	1	0.648671	0.648671	0	1	0	0	CorrectCommission	0.159827	0.643757	1
81.635429	0.795796	city	7	1	0.798463	0.798463	0	1	0	0	CorrectCommission	1.138706	0.632492	1
82.431213	0.795772	city	10	1	0.652733	0.652733	0	1	0	0	CorrectCommission	0.124611	0.622332	1
83.227005	0.795806	mountain	1	1	0.648567	0.648567	0	0	1	0	CommissionError	0.160724	0.614780	1
84.022804	0.795793	city	4	1	0.613070	0.613070	0	1	0	0	CorrectCommission	0.468444	0.611214	1
84.818604	0.795810	city	3	1	0.603031	0.603031	0	1	0	0	CorrectCommission	0.555471	0.612776	1
85.614441	0.795858	city	4	1	0.560417	0.560417	0	1	0	0	CorrectCommission	0.924888	0.620230	1
86.410240	0.795748	city	7	1	0.603667	0.603667	0	1	0	0	CorrectCommission	0.549958	0.633910	1
87.206047	0.795862	city	2	1	0.600140	0.600140	0	1	0	0	CorrectCommission	0.580533	0.653649	1
88.001839	0.795721	city	9	1	0.664227	0.664227	0	1	0	0	CorrectCommission	0.024973	0.678674	1
88.797638	0.795869	city	10	1	0.551598	0.551598	0	1	0	0	CorrectCommission	1.001335	0.707699	1
89.593460	0.795778	city	7	1	0.748990	0.748990	0	1	0	0	CorrectCommission	0.709826	0.738838	1
90.389252	0.795813	city	4	1	0.698742	0.698742	0	1	0	0	CorrectCommission	0.274232	0.769942	0
91.185028	0.795733	city	3	1	0.652243	0.652243	0	1	0	0	CorrectCommission	0.128856	0.798620	0
91.980835	0.795883	city	8	1	0.514375	0.514375	0	1	0	0	CorrectCommission	1.324012	0.822494	0
92.776810	0.796065	city	1	1	0.500546	0.500546	0	1	0	0	CorrectCommission	1.443894	0.839452	0
93.572563	0.795441	city	7	1	0.548874	0.548874	0	1	0	0	CorrectCommission	1.024952	0.848001	0
94.368225	0.795890	city	9	1	0.948648	0.948648	0	1	0	0	CorrectCommission	2.440639	0.847420	0
95.164032	0.795728	city	10	1	0.561202	0.561202	0	1	0	0	CorrectCommission	0.918080	0.837727	0
95.959801	0.795802	city	8	1	0.600442	0.600442	0	1	0	0	CorrectCommission	0.577914	0.819920	0
96.755638	0.795876	city	10	1	0.559544	0.559544	0	1	0	0	CorrectCommission	0.932449	0.795674	0
97.551445	0.795730	city	9	1	0.762443	0.762443	0	1	0	0	CorrectCommission	0.826449	0.767071	0
98.347229	0.795844	city	6	1	0.698560	0.698560	0	1	0	0	CorrectCommission	0.272661	0.736444	1
99.143074	0.795846	city	1	1	0.600217	0.600217	0	1	0	0	CorrectCommission	0.579867	0.705998	1
99.938896	0.795799	city	5	1	0.602725	0.602725	0	1	0	0	CorrectCommission	0.558121	0.677572	1
100.734680	0.795772	city	4	1	0.655501	0.655501	0	1	0	0	CorrectCommission	0.100611	0.652489	1
101.530464	0.795793	city	1	1	0.648648	0.648648	0	1	0	0	CorrectCommission	0.160021	0.631498	1
102.326248	0.795768	city	10	1	0.797865	0.797865	0	1	0	0	CorrectCommission	1.133518	0.614736	1
103.122063	0.795862	city	9	1	0.699057	0.699057	0	1	0	0	CorrectCommission	0.276971	0.601879	1
103.917885	0.795789	mountain	2	0	0.000000	0.607688	1	0	0	0	CorrectOmission	0.515101	0.592422	1
104.713821	0.796081	city	1	1	0.651692	0.651692	0	1	0	0	CorrectCommission	0.133637	0.585732	1
105.509590	0.795463	city	6	1	0.959005	0.959005	0	1	0	0	CorrectCommission	2.530421	0.581351	1
106.305222	0.795792	city	4	1	0.606366	0.606366	0	1	0	0	CorrectCommission	0.526561	0.578938	1
107.101067	0.795898	city	10	1	0.662903	0.662903	0	1	0	0	CorrectCommission	0.036449	0.578595	1
107.896896	0.795773	city	8	1	0.648529	0.648529	0	1	0	0	CorrectCommission	0.161054	0.580595	1
108.692657	0.795743	city	10	1	0.600702	0.600702	0	1	0	0	CorrectCommission	0.575658	0.585321	1
109.488434	0.795817	city	2	1	0.698475	0.698475	0	1	0	0	CorrectCommission	0.271923	0.593156	1
110.284264	0.795831	city	8	1	0.649044	0.649044	0	1	0	0	CorrectCommission	0.156591	0.604384	1
111.080070	0.795788	city	1	1	0.648604	0.648604	0	1	0	0	CorrectCommission	0.160404	0.619121	1
111.875854	0.795780	city	4	1	0.847824	0.847824	0	1	0	0	CorrectCommission	1.566604	0.637214	1
112.671669	0.795848	city	9	1	0.599227	0.599227	0	1	0	0	CorrectCommission	0.588445	0.658296	1
113.467461	0.795742	city	4	1	0.748640	0.748640	0	1	0	0	CorrectCommission	0.706799	0.681932	1
114.263260	0.795844	city	8	1	0.599112	0.599112	0	1	0	0	CorrectCommission	0.589446	0.707557	1
115.059067	0.795781	city	4	1	0.599459	0.599459	0	1	0	0	CorrectCommission	0.586434	0.734552	1
115.854851	0.795775	city	9	1	0.748634	0.748634	0	1	0	0	CorrectCommission	0.706744	0.762399	1
116.650818	0.796167	city	1	1	0.500688	0.500688	0	1	0	0	CorrectCommission	1.442666	0.790626	0
117.446632	0.795461	city	9	1	0.712479	0.712479	0	1	0	0	CorrectCommission	0.393320	0.818862	0
118.242432	0.796137	city	3	1	0.563997	0.563997	0	1	0	0	CorrectCommission	0.893849	0.846898	0
119.038269	0.795541	city	5	1	0.549590	0.549590	0	1	0	0	CorrectCommission	1.018741	0.874581	0
119.833939	0.795798	city	3	1	0.698212	0.698212	0	1	0	0	CorrectCommission	0.269642	0.901798	0
120.629860	0.796043	city	8	1	0.607823	0.607823	0	1	0	0	CorrectCommission	0.513931	0.928455	0
121.425789	0.795819	city	6	1	0.499243	0.499243	0	1	0	0	CorrectCommission	1.455190	0.954373	0
122.221436	0.795472	city	3	1	0.450674	0.450674	0	1	0	0	CorrectCommission	1.876233	0.979283	0
123.017097	0.795851	city	4	1	0.499373	0.499373	0	1	0	0	CorrectCommission	1.454068	1.002697	0
123.812897	0.795741	city	9	1	0.613110	0.613110	0	1	0	0	CorrectCommission	0.468092	1.024011	0
124.608658	0.795785	mountain	5	1	0.550184	0.550184	0	0	1	0	CommissionError	1.013596	1.042412	0
125.404617	0.796141	city	1	1	0.607788	0.607788	0	1	0	0	CorrectCommission	0.514232	1.056833	0
126.200455	0.795532	city	10	1	0.606057	0.606057	0	1	0	0	CorrectCommission	0.529233	1.066044	0
126.996109	0.795774	city	3	1	0.758914	0.758914	0	1	0	0	CorrectCommission	0.795863	1.068796	0
127.791908	0.795825	mountain	8	0	0.000000	0.845913	1	0	0	0	CorrectOmission	1.550042	1.063958	0
128.587860	0.796091	city	2	1	0.898223	0.898223	0	1	0	0	CorrectCommission	2.003511	1.050749	0
129.383667	0.795512	city	7	1	0.947015	0.947015	0	1	0	0	CorrectCommission	2.426478	1.028882	0
130.179291	0.795747	city	1	1	0.752172	0.752172	0	1	0	0	CorrectCommission	0.737413	0.998806	0
130.975067	0.795792	city	6	1	0.848240	0.848240	0	1	0	0	CorrectCommission	1.570213	0.961822	0
131.770859	0.795797	city	10	1	0.602547	0.602547	0	1	0	0	CorrectCommission	0.559663	0.919806	0
132.566711	0.795908	city	2	1	0.598967	0.598967	0	1	0	0	CorrectCommission	0.590698	0.875302	0
133.362564	0.795799	city	6	1	0.660415	0.660415	0	1	0	0	CorrectCommission	0.058016	0.831234	0
134.158356	0.795762	city	9	1	0.566976	0.566976	0	1	0	0	CorrectCommission	0.868025	0.790653	0
134.954147	0.795823	city	4	1	0.512392	0.512392	0	1	0	0	CorrectCommission	1.341205	0.756453	1
135.749908	0.795720	city	10	1	0.660261	0.660261	0	1	0	0	CorrectCommission	0.059348	0.731183	1
136.545685	0.795818	mountain	1	0	0.000000	0.652519	1	0	0	0	CorrectOmission	0.126464	0.716833	1
137.341537	0.795881	city	9	1	0.599050	0.599050	0	1	0	0	CorrectCommission	0.589977	0.714637	1
138.137329	0.795707	city	6	1	0.609740	0.609740	0	1	0	0	CorrectCommission	0.497309	0.724934	1
138.933121	0.795876	city	9	1	0.599852	0.599852	0	1	0	0	CorrectCommission	0.583028	0.747126	1
139.728958	0.795806	mountain	4	0	0.000000	0.721549	1	0	0	0	CorrectOmission	0.471948	0.779705	0
140.524750	0.795773	city	4	1	0.798843	0.798843	0	1	0	0	CorrectCommission	1.141996	0.820335	0
141.320541	0.795808	city	9	1	0.655744	0.655744	0	1	0	0	CorrectCommission	0.098505	0.866000	0
142.116348	0.795809	mountain	6	1	0.553098	0.553098	0	0	1	0	CommissionError	0.988335	0.913240	0
142.912140	0.795795	city	4	1	0.748909	0.748909	0	1	0	0	CorrectCommission	0.709127	0.958353	0
143.707962	0.795841	city	7	1	0.800345	0.800345	0	1	0	0	CorrectCommission	1.155017	0.997817	0
144.503738	0.795694	city	3	1	0.549686	0.549686	0	1	0	0	CorrectCommission	1.017906	1.028508	0
145.299530	0.795902	city	7	1	0.459906	0.459906	0	1	0	0	CorrectCommission	1.796203	1.048037	0
146.095505	0.796045	city	1	1	0.306906	0.306906	0	1	0	0	CorrectCommission	3.122533	1.054971	0
146.891312	0.795567	city	5	1	0.548798	0.548798	0	1	0	0	CorrectCommission	1.025609	1.048906	0
147.686981	0.795790	mountain	8	0	0.000000	0.746725	1	0	0	0	CorrectOmission	0.690190	1.030705	0
148.482758	0.795743	city	1	1	0.847761	0.847761	0	1	0	0	CorrectCommission	1.566058	1.002086	0
149.278549	0.795856	city	9	1	0.798980	0.798980	0	1	0	0	CorrectCommission	1.143189	0.965464	0
150.074356	0.795757	city	2	1	0.650653	0.650653	0	1	0	0	CorrectCommission	0.142644	0.923685	0
150.870163	0.795862	city	6	1	0.750747	0.750747	0	1	0	0	CorrectCommission	0.725061	0.879646	0
151.665970	0.795732	city	10	1	0.648672	0.648672	0	1	0	0	CorrectCommission	0.159815	0.835902	0
152.461731	0.795801	city	8	1	0.798181	0.798181	0	1	0	0	CorrectCommission	1.136262	0.794507	0
153.257706	0.796132	city	7	1	0.760895	0.760895	0	1	0	0	CorrectCommission	0.813028	0.756826	1
154.053497	0.795460	city	6	1	0.698453	0.698453	0	1	0	0	CorrectCommission	0.271731	0.723577	1
154.849136	0.795819	city	10	1	0.748405	0.748405	0	1	0	0	CorrectCommission	0.704760	0.694821	1
155.644958	0.795834	city	1	1	0.748805	0.748805	0	1	0	0	CorrectCommission	0.708223	0.670106	1
156.440750	0.795738	city	3	1	0.748136	0.748136	0	1	0	0	CorrectCommission	0.702425	0.648697	1
157.236542	0.795840	city	10	1	0.648855	0.648855	0	1	0	0	CorrectCommission	0.158223	0.629768	1
158.032379	0.795828	city	2	1	0.598952	0.598952	0	1	0	0	CorrectCommission	0.590826	0.612591	1
158.828171	0.795783	city	9	1	0.503722	0.503722	0	1	0	0	CorrectCommission	1.416368	0.596680	1
159.623962	0.795801	city	1	1	0.549368	0.549368	0	1	0	0	CorrectCommission	1.020670	0.581807	1
160.419739	0.795752	city	3	1	0.698906	0.698906	0	1	0	0	CorrectCommission	0.275660	0.568125	1
161.215515	0.795799	city	9	1	0.748288	0.748288	0	1	0	0	CorrectCommission	0.703744	0.556027	1
162.011505	0.796165	city	2	1	0.673258	0.673258	0	1	0	0	CorrectCommission	0.053321	0.546029	1
162.807327	0.795483	mountain	10	0	0.000000	0.654525	1	0	0	0	CorrectOmission	0.109076	0.538692	1
163.602951	0.795778	city	8	1	0.649567	0.649567	0	1	0	0	CorrectCommission	0.152059	0.534411	1
164.398788	0.795881	city	5	1	0.615862	0.615862	0	1	0	0	CorrectCommission	0.444239	0.533405	1
165.194595	0.795734	city	4	1	0.798864	0.798864	0	1	0	0	CorrectCommission	1.142184	0.535631	1
165.990524	0.796127	city	9	1	0.698626	0.698626	0	1	0	0	CorrectCommission	0.273234	0.540731	1
166.786346	0.795517	city	6	1	0.598547	0.598547	0	1	0	0	CorrectCommission	0.594344	0.548143	1
167.582153	0.796098	city	4	1	0.599505	0.599505	0	1	0	0	CorrectCommission	0.586039	0.557104	1
168.377930	0.795440	city	5	1	0.599216	0.599216	0	1	0	0	CorrectCommission	0.588543	0.566703	1
169.173553	0.795804	mountain	5	1	0.561768	0.561768	0	0	1	0	CommissionError	0.913173	0.575984	1
169.969360	0.795836	city	2	1	0.701138	0.701138	0	1	0	0	CorrectCommission	0.295006	0.583959	1
170.765182	0.795794	city	4	1	0.699097	0.699097	0	1	0	0	CorrectCommission	0.277315	0.589770	1
171.560989	0.795818	city	10	1	0.599279	0.599279	0	1	0	0	CorrectCommission	0.587998	0.592703	1
172.356812	0.795841	city	7	1	0.608450	0.608450	0	1	0	0	CorrectCommission	0.508490	0.592270	1
173.152771	0.796075	city	5	1	0.550161	0.550161	0	1	0	0	CorrectCommission	1.013794	0.588265	1
173.948715	0.795796	city	10	1	0.514286	0.514286	0	1	0	0	CorrectCommission	1.324787	0.580834	1
174.744339	0.795451	city	7	1	0.749019	0.749019	0	1	0	0	CorrectCommission	0.710078	0.570528	1
175.539963	0.795792	city	9	1	0.748112	0.748112	0	1	0	0	CorrectCommission	0.702222	0.558309	1
176.335785	0.795869	mountain	1	0	0.000000	0.690447	1	0	0	0	CorrectOmission	0.202324	0.545389	1
177.131775	0.796104	city	10	1	0.649404	0.649404	0	1	0	0	CorrectCommission	0.153468	0.533263	1
177.927536	0.795432	city	6	1	0.698367	0.698367	0	1	0	0	CorrectCommission	0.270988	0.523545	1
178.723160	0.795802	city	2	1	0.752796	0.752796	0	1	0	0	CorrectCommission	0.742825	0.517804	1
179.519012	0.795899	city	10	1	0.698708	0.698708	0	1	0	0	CorrectCommission	0.273944	0.517484	1
180.314819	0.795713	city	5	1	0.699310	0.699310	0	1	0	0	CorrectCommission	0.279161	0.523730	1
181.110611	0.795867	city	8	1	0.748118	0.748118	0	1	0	0	CorrectCommission	0.702266	0.537255	1
181.906448	0.795820	city	1	1	0.699471	0.699471	0	1	0	0	CorrectCommission	0.280559	0.558219	1
182.702209	0.795707	city	10	1	0.749027	0.749027	0	1	0	0	CorrectCommission	0.710153	0.586189	1
183.498001	0.795870	city	7	1	0.715142	0.715142	0	1	0	0	CorrectCommission	0.416406	0.620089	1
184.293976	0.796076	city	8	1	0.649436	0.649436	0	1	0	0	CorrectCommission	0.153194	0.658261	1
185.089737	0.795463	city	1	1	0.648841	0.648841	0	1	0	0	CorrectCommission	0.158345	0.698602	1
185.885422	0.795891	city	10	1	0.760851	0.760851	0	1	0	0	CorrectCommission	0.812652	0.738678	1
186.681229	0.795714	city	1	1	0.760114	0.760114	0	1	0	0	CorrectCommission	0.806264	0.775972	0
187.476974	0.795787	city	6	1	0.858067	0.858067	0	1	0	0	CorrectCommission	1.655400	0.808251	0
188.272797	0.795847	city	10	1	0.599224	0.599224	0	1	0	0	CorrectCommission	0.588473	0.833772	0
189.068787	0.796133	city	2	1	0.510501	0.510501	0	1	0	0	CorrectCommission	1.357600	0.851579	0
189.864578	0.795454	city	10	1	0.462086	0.462086	0	1	0	0	CorrectCommission	1.777303	0.861531	0
190.660370	0.796147	mountain	1	1	0.449899	0.449899	0	0	1	0	CommissionError	1.882951	0.864320	0
191.456161	0.795443	city	9	1	0.598855	0.598855	0	1	0	0	CorrectCommission	0.591666	0.861360	0
192.251801	0.795808	city	4	1	0.599338	0.599338	0	1	0	0	CorrectCommission	0.587482	0.854583	0
193.047607	0.795829	city	7	1	0.698692	0.698692	0	1	0	0	CorrectCommission	0.273801	0.845972	0
193.843430	0.795804	city	5	1	0.658665	0.658665	0	1	0	0	CorrectCommission	0.073183	0.837307	0
194.639221	0.795766	city	3	1	0.798259	0.798259	0	1	0	0	CorrectCommission	1.136936	0.829901	0
195.435043	0.795898	city	7	1	0.711656	0.711656	0	1	0	0	CorrectCommission	0.386186	0.824338	0
196.230865	0.795741	city	2	1	0.611720	0.611720	0	1	0	0	CorrectCommission	0.480143	0.820571	0
197.026657	0.795856	city	8	1	0.600007	0.600007	0	1	0	0	CorrectCommission	0.581688	0.817946	0
197.822495	0.795799	city	6	1	0.556684	0.556684	0	1	0	0	CorrectCommission	0.957246	0.815466	0
198.618271	0.795757	city	10	1	0.549129	0.549129	0	1	0	0	CorrectCommission	1.022737	0.812047	0
199.414032	0.795773	city	9	1	0.798895	0.798895	0	1	0	0	CorrectCommission	1.142448	0.806846	0
200.209839	0.795850	city	10	1	0.948197	0.948197	0	1	0	0	CorrectCommission	2.436729	0.799497	0
201.005646	0.795749	city	2	1	0.807467	0.807467	0	1	0	0	CorrectCommission	1.216757	0.790183	0
201.801468	0.795885	city	7	1	0.698725	0.698725	0	1	0	0	CorrectCommission	0.274090	0.779799	0
202.597305	0.795807	city	8	1	0.649004	0.649004	0	1	0	0	CorrectCommission	0.156933	0.769723	0
203.393066	0.795707	mountain	7	0	0.000000	0.626671	1	0	0	0	CorrectOmission	0.350536	0.761513	1
204.188828	0.795819	city	5	1	0.652958	0.652958	0	1	0	0	CorrectCommission	0.122657	0.756711	1
204.984665	0.795872	city	3	1	0.749098	0.749098	0	1	0	0	CorrectCommission	0.710766	0.756593	1
205.780502	0.795797	city	9	1	0.649630	0.649630	0	1	0	0	CorrectCommission	0.151513	0.761961	1
206.576309	0.795793	city	5	1	0.550109	0.550109	0	1	0	0	CorrectCommission	1.014243	0.773087	0
207.372101	0.795796	city	2	1	0.499449	0.499449	0	1	0	0	CorrectCommission	1.453405	0.789637	0
208.167862	0.795739	city	4	1	0.559453	0.559453	0	1	0	0	CorrectCommission	0.933238	0.810747	0
208.963684	0.795889	city	3	1	0.648676	0.648676	0	1	0	0	CorrectCommission	0.159782	0.835179	0
209.759659	0.796067	city	7	1	0.797718	0.797718	0	1	0	0	CorrectCommission	1.132247	0.861472	0
210.555420	0.795449	city	8	1	0.611123	0.611123	0	1	0	0	CorrectCommission	0.485321	0.887960	0
211.351028	0.795793	city	7	1	0.559177	0.559177	0	1	0	0	CorrectCommission	0.935637	0.913082	0
212.146866	0.795857	city	10	1	0.798129	0.798129	0	1	0	0	CorrectCommission	1.135811	0.935373	0
212.942688	0.795812	city	8	1	0.500527	0.500527	0	1	0	0	CorrectCommission	1.444061	0.953653	0
213.738480	0.795769	city	2	1	0.500828	0.500828	0	1	0	0	CorrectCommission	1.441449	0.967037	0
214.534256	0.795778	city	8	1	0.599653	0.599653	0	1	0	0	CorrectCommission	0.584756	0.975036	0
215.330078	0.795878	city	2	1	0.556365	0.556365	0	1	0	0	CorrectCommission	0.960010	0.977536	0
216.125885	0.795728	city	8	1	0.599598	0.599598	0	1	0	0	CorrectCommission	0.585227	0.974718	0
216.921661	0.795824	city	5	1	0.509014	0.509014	0	1	0	0	CorrectCommission	1.370492	0.967149	0
217.717453	0.795757	city	2	1	0.417506	0.417506	0	1	0	0	CorrectCommission	2.163758	0.955559	0
218.513260	0.795850	city	1	1	0.550237	0.550237	0	1	0	0	CorrectCommission	1.013137	0.940842	0
219.309082	0.795810	city	2	1	0.705712	0.705712	0	1	0	0	CorrectCommission	0.334654	0.924060	0
220.104874	0.795777	city	6	1	0.599239	0.599239	0	1	0	0	CorrectCommission	0.588344	0.906245	0
220.900681	0.795813	city	7	1	0.649601	0.649601	0	1	0	0	CorrectCommission	0.151757	0.888331	0
221.696472	0.795776	city	6	1	0.599193	0.599193	0	1	0	0	CorrectCommission	0.588745	0.871177	0
222.492279	0.795854	city	3	1	0.466979	0.466979	0	1	0	0	CorrectCommission	1.734885	0.855442	0
223.288086	0.795756	city	8	1	0.499929	0.499929	0	1	0	0	CorrectCommission	1.449243	0.841637	0
224.083908	0.795867	mountain	1	0	0.000000	0.673184	1	0	0	0	CorrectOmission	0.052676	0.830191	0
224.879715	0.795776	city	4	1	0.807102	0.807102	0	1	0	0	CorrectCommission	1.213596	0.821475	0
225.675522	0.795830	city	7	1	0.722044	0.722044	0	1	0	0	CorrectCommission	0.476242	0.815668	0
226.471344	0.795812	city	8	1	0.599048	0.599048	0	1	0	0	CorrectCommission	0.589999	0.812919	0
227.267227	0.795964	city	3	1	0.549332	0.549332	0	1	0	0	CorrectCommission	1.020975	0.813156	0
228.062988	0.795550	mountain	9	1	0.558074	0.558074	0	0	1	0	CommissionError	0.945200	0.816096	0
228.858841	0.796145	city	7	1	0.699226	0.699226	0	1	0	0	CorrectCommission	0.278431	0.821194	0
229.654678	0.795530	city	10	1	0.558748	0.558748	0	1	0	0	CorrectCommission	0.939351	0.827644	0
230.450348	0.795809	city	3	1	0.599905	0.599905	0	1	0	0	CorrectCommission	0.582567	0.834354	0
231.246140	0.795786	city	8	1	0.648928	0.648928	0	1	0	0	CorrectCommission	0.157592	0.840099	0
232.041946	0.795813	city	10	1	0.472600	0.472600	0	1	0	0	CorrectCommission	1.686158	0.843634	0
232.837753	0.795796	city	2	1	0.468516	0.468516	0	1	0	0	CorrectCommission	1.721558	0.843717	0
233.633514	0.795730	city	3	1	0.612637	0.612637	0	1	0	0	CorrectCommission	0.472200	0.839528	0
234.429306	0.795873	city	2	1	0.599526	0.599526	0	1	0	0	CorrectCommission	0.585851	0.830733	0
235.225113	0.795744	city	9	1	0.599150	0.599150	0	1	0	0	CorrectCommission	0.589111	0.817541	0
236.020905	0.795813	city	10	1	0.499937	0.499937	0	1	0	0	CorrectCommission	1.449181	0.800845	0
236.816696	0.795788	city	4	1	0.462429	0.462429	0	1	0	0	CorrectCommission	1.774333	0.782170	0
237.612518	0.795854	city	10	1	0.549260	0.549260	0	1	0	0	CorrectCommission	1.021607	0.763531	0
238.408340	0.795778	city	7	1	0.649335	0.649335	0	1	0	0	CorrectCommission	0.154070	0.747283	1
239.204102	0.795743	city	10	1	0.648636	0.648636	0	1	0	0	CorrectCommission	0.160124	0.735794	1
239.999908	0.795898	city	1	1	0.606481	0.606481	0	1	0	0	CorrectCommission	0.525559	0.731092	1
240.795715	0.795714	city	7	1	0.698512	0.698512	0	1	0	0	CorrectCommission	0.272242	0.734670	1
241.591660	0.796176	city	9	1	0.648901	0.648901	0	1	0	0	CorrectCommission	0.157828	0.747356	1
242.387466	0.795425	city	5	1	0.611461	0.611461	0	1	0	0	CorrectCommission	0.482393	0.769144	0
243.183273	0.796177	city	9	1	0.599117	0.599117	0	1	0	0	CorrectCommission	0.589397	0.799237	0
243.979080	0.795435	city	10	1	0.602011	0.602011	0	1	0	0	CorrectCommission	0.564310	0.836250	0
244.774734	0.795896	city	2	1	0.748444	0.748444	0	1	0	0	CorrectCommission	0.705092	0.878346	0
245.570541	0.795709	city	1	1	0.851836	0.851836	0	1	0	0	CorrectCommission	1.601384	0.923499	0
246.366318	0.795831	mountain	4	0	0.000000	0.897778	1	0	0	0	CorrectOmission	1.999652	0.969678	0
247.162140	0.795841	city	4	1	0.847741	0.847741	0	1	0	0	CorrectCommission	1.565889	1.015041	0
247.957947	0.795770	city	1	1	0.663196	0.663196	0	1	0	0	CorrectCommission	0.033909	1.057984	0
248.753769	0.795850	city	3	1	0.512903	0.512903	0	1	0	0	CorrectCommission	1.336773	1.097200	0
249.549591	0.795791	city	10	1	0.549141	0.549141	0	1	0	0	CorrectCommission	1.022638	1.131428	0
250.345398	0.795829	city	2	1	0.549523	0.549523	0	1	0	0	CorrectCommission	1.019321	1.159563	0
251.141190	0.795759	city	10	1	0.598695	0.598695	0	1	0	0	CorrectCommission	0.593057	1.180545	0
251.937119	0.796107	city	8	1	0.500497	0.500497	0	1	0	0	CorrectCommission	1.444324	1.193389	0
252.732941	0.795535	city	9	1	0.499138	0.499138	0	1	0	0	CorrectCommission	1.456101	1.197159	0
253.528595	0.795776	city	3	1	0.452989	0.452989	0	1	0	0	CorrectCommission	1.856161	1.191151	0
254.324387	0.795787	city	10	1	0.449676	0.449676	0	1	0	0	CorrectCommission	1.884883	1.174980	0
255.120178	0.795814	city	5	1	0.508184	0.508184	0	1	0	0	CorrectCommission	1.377684	1.148750	0
255.916122	0.796083	mountain	7	1	0.499452	0.499452	0	0	1	0	CommissionError	1.453384	1.113145	0
256.711945	0.795531	city	10	1	0.549171	0.549171	0	1	0	0	CorrectCommission	1.022378	1.069394	0
257.507568	0.795714	mountain	3	1	0.516212	0.516212	0	0	1	0	CommissionError	1.308088	1.019207	0
258.303345	0.795862	city	10	1	0.699081	0.699081	0	1	0	0	CorrectCommission	0.277179	0.964644	0
259.099182	0.795786	city	9	1	0.801888	0.801888	0	1	0	0	CorrectCommission	1.168397	0.907996	0
259.895111	0.796113	city	2	1	0.748242	0.748242	0	1	0	0	CorrectCommission	0.703344	0.851513	0
260.690918	0.795471	city	4	1	0.749169	0.749169	0	1	0	0	CorrectCommission	0.711377	0.797334	0
261.486572	0.795872	city	1	1	0.648851	0.648851	0	1	0	0	CorrectCommission	0.158259	0.747310	1
262.282410	0.795752	city	10	1	0.800871	0.800871	0	1	0	0	CorrectCommission	1.159576	0.702928	1
263.078156	0.795758	city	2	1	0.699055	0.699055	0	1	0	0	CorrectCommission	0.276953	0.665178	1
263.874115	0.796169	city	6	1	0.698399	0.698399	0	1	0	0	CorrectCommission	0.271259	0.634684	1
264.669952	0.795488	city	8	1	0.598929	0.598929	0	1	0	0	CorrectCommission	0.591032	0.611628	1
265.465546	0.795749	city	3	1	0.569059	0.569059	0	1	0	0	CorrectCommission	0.849964	0.595887	1
266.261353	0.795826	city	6	1	0.648702	0.648702	0	1	0	0	CorrectCommission	0.159555	0.586961	1
267.057159	0.795821	city	1	1	0.563926	0.563926	0	1	0	0	CorrectCommission	0.894469	0.584173	1
267.852997	0.795827	city	8	1	0.607500	0.607500	0	1	0	0	CorrectCommission	0.516727	0.586552	1
268.648804	0.795810	city	4	1	0.708227	0.708227	0	1	0	0	CorrectCommission	0.356462	0.592984	1
269.444763	0.796065	city	2	1	0.649760	0.649760	0	1	0	0	CorrectCommission	0.150381	0.602250	1
270.240509	0.795467	city	1	1	0.698485	0.698485	0	1	0	0	CorrectCommission	0.272012	0.613068	1
271.036194	0.795873	city	7	1	0.599090	0.599090	0	1	0	0	CorrectCommission	0.589633	0.624176	1
271.832001	0.795728	city	3	1	0.501558	0.501558	0	1	0	0	CorrectCommission	1.435127	0.634513	1
272.627930	0.796153	city	9	1	0.549934	0.549934	0	1	0	0	CorrectCommission	1.015764	0.643294	1
273.423767	0.795514	city	6	1	0.558245	0.558245	0	1	0	0	CorrectCommission	0.943712	0.650160	1
274.219391	0.795762	city	3	1	0.649562	0.649562	0	1	0	0	CorrectCommission	0.152099	0.655249	1
275.015198	0.795820	city	7	1	0.748397	0.748397	0	1	0	0	CorrectCommission	0.704684	0.659114	1
275.811005	0.795784	city	2	1	0.748321	0.748321	0	1	0	0	CorrectCommission	0.704027	0.662766	1
276.606781	0.795816	city	6	1	0.798828	0.798828	0	1	0	0	CorrectCommission	1.141869	0.667543	1
277.402618	0.795807	city	9	1	0.748743	0.748743	0	1	0	0	CorrectCommission	0.707686	0.674948	1
278.198425	0.795852	city	4	1	0.699384	0.699384	0	1	0	0	CorrectCommission	0.279798	0.686496	1
278.994263	0.795787	city	3	1	0.699251	0.699251	0	1	0	0	CorrectCommission	0.278646	0.703512	1
279.790039	0.795800	city	4	1	0.655661	0.655661	0	1	0	0	CorrectCommission	0.099223	0.726872	1
280.585846	0.795771	city	7	1	0.764144	0.764144	0	1	0	0	CorrectCommission	0.841197	0.756926	1
281.381622	0.795785	city	1	1	0.655276	0.655276	0	1	0	0	CorrectCommission	0.102564	0.793360	0
282.177429	0.795852	city	4	1	0.850025	0.850025	0	1	0	0	CorrectCommission	1.585688	0.835233	0
282.973206	0.795719	city	7	1	0.799846	0.799846	0	1	0	0	CorrectCommission	1.150694	0.880968	0
283.769012	0.795875	city	10	1	0.648739	0.648739	0	1	0	0	CorrectCommission	0.159236	0.928652	0
284.564819	0.795729	city	3	1	0.848563	0.848563	0	1	0	0	CorrectCommission	1.573010	0.976080	0
285.360626	0.795873	city	8	1	0.757949	0.757949	0	1	0	0	CorrectCommission	0.787494	1.020957	0
286.156433	0.795785	city	7	1	0.665691	0.665691	0	1	0	0	CorrectCommission	0.012275	1.061292	0
286.952240	0.795826	city	4	1	0.854737	0.854737	0	1	0	0	CorrectCommission	1.626540	1.095503	0
287.748077	0.795811	mountain	8	0	0.000000	0.891756	1	0	0	0	CorrectOmission	1.947451	1.122520	0
288.543854	0.795750	city	7	1	0.901399	0.901399	0	1	0	0	CorrectCommission	2.031038	1.142021	0
289.339630	0.795838	city	9	1	1.008314	1.008314	0	1	0	0	CorrectCommission	2.957877	1.154287	0
290.135437	0.795776	city	2	1	0.698936	0.698936	0	1	0	0	CorrectCommission	0.275922	1.160140	0
290.931213	0.795764	city	5	1	0.602294	0.602294	0	1	0	0	CorrectCommission	0.561858	1.160912	0
291.727020	0.795862	city	9	1	0.763379	0.763379	0	1	0	0	CorrectCommission	0.834569	1.157917	0
292.522827	0.795736	city	6	1	0.716177	0.716177	0	1	0	0	CorrectCommission	0.425380	1.152330	0
293.318634	0.795884	city	10	1	0.752608	0.752608	0	1	0	0	CorrectCommission	0.741190	1.145053	0
294.114441	0.795744	city	3	1	0.798131	0.798131	0	1	0	0	CorrectCommission	1.135823	1.136496	0
294.910370	0.796094	city	2	1	0.847594	0.847594	0	1	0	0	CorrectCommission	1.564612	1.126649	0
295.706207	0.795560	city	3	1	0.847513	0.847513	0	1	0	0	CorrectCommission	1.563911	1.115183	0
296.501862	0.795789	city	6	1	0.848556	0.848556	0	1	0	0	CorrectCommission	1.572952	1.101577	0
297.297668	0.795772	city	1	1	0.748127	0.748127	0	1	0	0	CorrectCommission	0.702346	1.085242	0
298.093414	0.795764	mountain	7	0	0.000000	0.842290	1	0	0	0	CorrectOmission	1.518636	1.065708	0
298.889221	0.795826	city	2	1	0.902084	0.902084	0	1	0	0	CorrectCommission	2.036978	1.042649	0
299.685059	0.795869	city	10	1	0.698545	0.698545	0	1	0	0	CorrectCommission	0.272529	1.015936	0
300.480865	0.795729	city	1	1	0.652648	0.652648	0	1	0	0	CorrectCommission	0.125345	0.985738	0
301.276611	0.795778	city	10	1	0.549416	0.549416	0	1	0	0	CorrectCommission	1.020251	0.952384	0
302.072418	0.795798	city	5	1	0.757023	0.757023	0	1	0	0	CorrectCommission	0.779467	0.916277	0
302.868225	0.795845	city	1	1	0.802367	0.802367	0	1	0	0	CorrectCommission	1.172546	0.878000	0
303.664062	0.795797	city	7	1	0.897834	0.897834	0	1	0	0	CorrectCommission	2.000141	0.838228	0
304.459869	0.795833	city	3	1	0.705161	0.705161	0	1	0	0	CorrectCommission	0.329884	0.797653	0
305.255676	0.795799	city	5	1	0.701938	0.701938	0	1	0	0	CorrectCommission	0.301946	0.757086	1
306.051483	0.795798	city	6	1	0.848341	0.848341	0	1	0	0	CorrectCommission	1.571086	0.717364	1
306.847260	0.795738	city	1	1	0.648554	0.648554	0	1	0	0	CorrectCommission	0.160838	0.679186	1
307.643036	0.795864	city	7	1	0.649349	0.649349	0	1	0	0	CorrectCommission	0.153947	0.643414	1
308.438873	0.795776	city	10	1	0.561261	0.561261	0	1	0	0	CorrectCommission	0.917569	0.610731	1
309.234680	0.795840	city	6	1	0.662188	0.662188	0	1	0	0	CorrectCommission	0.042646	0.581722	1
310.030487	0.795789	mountain	3	1	0.653491	0.653491	0	0	1	0	CommissionError	0.118039	0.556909	1
310.826416	0.796086	city	2	1	0.549491	0.549491	0	1	0	0	CorrectCommission	1.019602	0.536717	1
311.622192	0.795469	city	7	1	0.549003	0.549003	0	1	0	0	CorrectCommission	1.023828	0.521470	1
312.417877	0.795858	city	9	1	0.664481	0.664481	0	1	0	0	CorrectCommission	0.022768	0.511485	1
313.213684	0.795752	city	4	1	0.609028	0.609028	0	1	0	0	CorrectCommission	0.503480	0.507038	1
314.009491	0.795857	mountain	6	0	0.000000	0.691727	1	0	0	0	CorrectOmission	0.213425	0.508294	1
314.805298	0.795812	city	7	1	0.748190	0.748190	0	1	0	0	CorrectCommission	0.702894	0.515404	1
315.601105	0.795794	city	5	1	0.614029	0.614029	0	1	0	0	CorrectCommission	0.460127	0.528326	1
316.396912	0.795816	city	9	1	0.648704	0.648704	0	1	0	0	CorrectCommission	0.159534	0.546860	1
317.192719	0.795808	city	5	1	0.700719	0.700719	0	1	0	0	CorrectCommission	0.291371	0.570578	1
317.988495	0.795708	mountain	6	1	0.600815	0.600815	0	0	1	0	CommissionError	0.574678	0.598781	1
318.784241	0.795797	city	2	1	0.599984	0.599984	0	1	0	0	CorrectCommission	0.581884	0.630425	1
319.580078	0.795862	city	3	1	0.748414	0.748414	0	1	0	0	CorrectCommission	0.704834	0.664226	1
320.375916	0.795809	city	1	1	0.648684	0.648684	0	1	0	0	CorrectCommission	0.159712	0.698637	1
321.171722	0.795801	city	10	1	0.848380	0.848380	0	1	0	0	CorrectCommission	1.571431	0.731971	1
321.967499	0.795747	city	2	1	0.613401	0.613401	0	1	0	0	CorrectCommission	0.465574	0.762494	1
322.763245	0.795778	city	3	1	0.847519	0.847519	0	1	0	0	CorrectCommission	1.563967	0.788692	0
323.559235	0.796164	city	5	1	0.714925	0.714925	0	1	0	0	CorrectCommission	0.414528	0.809144	0
324.355042	0.795495	city	10	1	0.801650	0.801650	0	1	0	0	CorrectCommission	1.166331	0.822897	0
325.150696	0.795804	city	2	1	0.698534	0.698534	0	1	0	0	CorrectCommission	0.272433	0.829390	0
325.946503	0.795828	city	9	1	0.549727	0.549727	0	1	0	0	CorrectCommission	1.017554	0.828609	0
326.742340	0.795823	mountain	10	1	0.499434	0.499434	0	0	1	0	CommissionError	1.453542	0.821052	0
327.538147	0.795802	city	2	1	0.900260	0.900260	0	1	0	0	CorrectCommission	2.021164	0.807731	0
328.333954	0.795804	city	8	1	0.749445	0.749445	0	1	0	0	CorrectCommission	0.713777	0.790035	0
329.129730	0.795752	city	1	1	0.649153	0.649153	0	1	0	0	CorrectCommission	0.155643	0.769714	0
329.925537	0.795825	city	10	1	0.598852	0.598852	0	1	0	0	CorrectCommission	0.591693	0.748647	1
330.721313	0.795741	city	2	1	0.655327	0.655327	0	1	0	0	CorrectCommission	0.102119	0.728578	1
331.517120	0.795862	city	10	1	0.554087	0.554087	0	1	0	0	CorrectCommission	0.979756	0.711072	1
332.313080	0.796094	city	5	1	0.648904	0.648904	0	1	0	0	CorrectCommission	0.157805	0.697335	1
333.108887	0.795505	city	4	1	0.760210	0.760210	0	1	0	0	CorrectCommission	0.807091	0.688262	1
333.904541	0.795779	city	7	1	0.748119	0.748119	0	1	0	0	CorrectCommission	0.702278	0.684299	1
334.700287	0.795766	city	8	1	0.800954	0.800954	0	1	0	0	CorrectCommission	1.160299	0.685616	1
335.496124	0.795893	city	3	1	0.652812	0.652812	0	1	0	0	CorrectCommission	0.123926	0.692117	1
336.292114	0.796050	city	9	1	0.648568	0.648568	0	1	0	0	CorrectCommission	0.160719	0.703580	1
337.087891	0.795501	city	1	1	0.598969	0.598969	0	1	0	0	CorrectCommission	0.590682	0.719654	1
337.883545	0.795837	city	6	1	0.849788	0.849788	0	1	0	0	CorrectCommission	1.583635	0.740018	1
338.679352	0.795773	city	8	1	0.559239	0.559239	0	1	0	0	CorrectCommission	0.935096	0.764198	0
339.475159	0.795838	city	10	1	0.599852	0.599852	0	1	0	0	CorrectCommission	0.583029	0.791833	0
340.270935	0.795725	city	4	1	0.599402	0.599402	0	1	0	0	CorrectCommission	0.586930	0.822391	0
341.066681	0.795787	city	8	1	0.604116	0.604116	0	1	0	0	CorrectCommission	0.546059	0.855239	0
341.862488	0.795814	city	2	1	0.563549	0.563549	0	1	0	0	CorrectCommission	0.897732	0.889507	0
342.658356	0.795889	city	4	1	0.748116	0.748116	0	1	0	0	CorrectCommission	0.702255	0.924149	0
343.454193	0.795787	city	9	1	0.706112	0.706112	0	1	0	0	CorrectCommission	0.338125	0.957952	0
344.249969	0.795792	mountain	8	0	0.000000	0.810112	1	0	0	0	CorrectOmission	1.239688	0.989638	0
345.045746	0.795737	city	6	1	0.897347	0.897347	0	1	0	0	CorrectCommission	1.995919	1.017937	0
345.841675	0.796158	city	7	1	0.805049	0.805049	0	1	0	0	CorrectCommission	1.195795	1.041795	0
346.637482	0.795425	city	8	1	0.599896	0.599896	0	1	0	0	CorrectCommission	0.582644	1.060498	0
347.433105	0.795857	city	7	1	0.468180	0.468180	0	1	0	0	CorrectCommission	1.724474	1.073691	0
348.228943	0.795768	city	5	1	0.450992	0.450992	0	1	0	0	CorrectCommission	1.873471	1.081387	0
349.024750	0.795875	city	3	1	0.749080	0.749080	0	1	0	0	CorrectCommission	0.710608	1.083929	0
349.820557	0.795759	city	7	1	0.797764	0.797764	0	1	0	0	CorrectCommission	1.132646	1.081939	0
350.616364	0.795817	city	6	1	0.813714	0.813714	0	1	0	0	CorrectCommission	1.270909	1.076052	0
351.412323	0.796105	city	4	1	0.699681	0.699681	0	1	0	0	CorrectCommission	0.282377	1.066830	0
352.208130	0.795524	city	10	1	0.698406	0.698406	0	1	0	0	CorrectCommission	0.271325	1.054699	0
353.003784	0.795778	city	3	1	0.898036	0.898036	0	1	0	0	CorrectCommission	2.001892	1.039825	0
353.799561	0.795790	city	9	1	0.698368	0.698368	0	1	0	0	CorrectCommission	0.270993	1.022067	0
354.595337	0.795764	city	5	1	0.458050	0.458050	0	1	0	0	CorrectCommission	1.812293	1.001259	0
355.391144	0.795862	city	3	1	0.816769	0.816769	0	1	0	0	CorrectCommission	1.297395	0.977044	0
356.186951	0.795726	city	7	1	0.848233	0.848233	0	1	0	0	CorrectCommission	1.570154	0.949248	0
356.982758	0.795871	city	8	1	0.758083	0.758083	0	1	0	0	CorrectCommission	0.788654	0.917874	0
357.778748	0.796103	city	10	1	0.748114	0.748114	0	1	0	0	CorrectCommission	0.702236	0.883196	0
358.574677	0.795787	city	7	1	0.708401	0.708401	0	1	0	0	CorrectCommission	0.357966	0.845743	0
359.370331	0.795502	city	8	1	0.598869	0.598869	0	1	0	0	CorrectCommission	0.591553	0.806327	0
360.165955	0.795777	city	10	1	0.499452	0.499452	0	1	0	0	CorrectCommission	1.453379	0.765986	0
360.961761	0.795829	city	6	1	0.503149	0.503149	0	1	0	0	CorrectCommission	1.421331	0.725855	1
361.757568	0.795798	city	7	1	0.660531	0.660531	0	1	0	0	CorrectCommission	0.057009	0.687142	1
362.553406	0.795838	city	1	1	0.661415	0.661415	0	1	0	0	CorrectCommission	0.049343	0.651058	1
363.349182	0.795708	city	4	1	0.751953	0.751953	0	1	0	0	CorrectCommission	0.735519	0.618685	1
364.144958	0.795848	city	7	1	0.749025	0.749025	0	1	0	0	CorrectCommission	0.710132	0.590920	1
364.940796	0.795830	city	9	1	0.661885	0.661885	0	1	0	0	CorrectCommission	0.045272	0.568441	1
365.736633	0.795831	city	2	1	0.603717	0.603717	0	1	0	0	CorrectCommission	0.549521	0.551692	1
366.532410	0.795750	city	1	1	0.649741	0.649741	0	1	0	0	CorrectCommission	0.150551	0.540824	1
367.328186	0.795825	city	7	1	0.797974	0.797974	0	1	0	0	CorrectCommission	1.134467	0.535743	1
368.123993	0.795780	city	9	1	0.766028	0.766028	0	1	0	0	CorrectCommission	0.857532	0.536036	1
368.919769	0.795770	city	8	1	0.653554	0.653554	0	1	0	0	CorrectCommission	0.117496	0.541070	1
369.715607	0.795872	mountain	1	0	0.000000	0.651819	1	0	0	0	CorrectOmission	0.132537	0.550003	1
370.511414	0.795762	city	4	1	0.665495	0.665495	0	1	0	0	CorrectCommission	0.013977	0.561717	1
371.307190	0.795791	city	1	1	0.599255	0.599255	0	1	0	0	CorrectCommission	0.588201	0.575027	1
372.102997	0.795812	city	3	1	0.798323	0.798323	0	1	0	0	CorrectCommission	1.137493	0.588672	1
372.898804	0.795796	city	10	1	0.610878	0.610878	0	1	0	0	CorrectCommission	0.487448	0.601565	1
373.694580	0.795759	city	7	1	0.655808	0.655808	0	1	0	0	CorrectCommission	0.097954	0.612902	1
374.490356	0.795819	city	8	1	0.553251	0.553251	0	1	0	0	CorrectCommission	0.987005	0.622232	1
375.286194	0.795847	mountain	2	1	0.419847	0.419847	0	0	1	0	CommissionError	2.143463	0.629535	1
376.082031	0.795822	city	1	1	0.748741	0.748741	0	1	0	0	CorrectCommission	0.707674	0.635274	1
376.877808	0.795764	city	10	1	0.699041	0.699041	0	1	0	0	CorrectCommission	0.276827	0.640401	1
377.673615	0.795825	city	5	1	0.698408	0.698408	0	1	0	0	CorrectCommission	0.271339	0.646068	1
378.469421	0.795805	city	9	1	0.599562	0.599562	0	1	0	0	CorrectCommission	0.585544	0.653494	1
379.265198	0.795729	city	8	1	0.653548	0.653548	0	1	0	0	CorrectCommission	0.117545	0.663806	1
380.061005	0.795898	city	7	1	0.699624	0.699624	0	1	0	0	CorrectCommission	0.281880	0.677825	1
380.856842	0.795764	city	5	1	0.748902	0.748902	0	1	0	0	CorrectCommission	0.709071	0.695854	1
381.652618	0.795803	city	3	1	0.713015	0.713015	0	1	0	0	CorrectCommission	0.397963	0.717644	1
382.448456	0.795839	city	2	1	0.758331	0.758331	0	1	0	0	CorrectCommission	0.790802	0.742488	1
383.244263	0.795802	city	9	1	0.857395	0.857395	0	1	0	0	CorrectCommission	1.649577	0.769165	0
384.040009	0.795701	city	8	1	0.758307	0.758307	0	1	0	0	CorrectCommission	0.790594	0.796128	0
384.835815	0.795900	city	6	1	0.752425	0.752425	0	1	0	0	CorrectCommission	0.739610	0.821728	0
385.631805	0.796049	city	8	1	0.599380	0.599380	0	1	0	0	CorrectCommission	0.587120	0.844293	0
386.427582	0.795514	city	2	1	0.649549	0.649549	0	1	0	0	CorrectCommission	0.152211	0.862395	0
387.223236	0.795819	city	6	1	0.599094	0.599094	0	1	0	0	CorrectCommission	0.589594	0.874930	0
388.019012	0.795720	city	10	1	0.399993	0.399993	0	1	0	0	CorrectCommission	2.315577	0.881255	0
388.814972	0.796167	mountain	10	1	0.407630	0.407630	0	0	1	0	CommissionError	2.249375	0.881203	0
389.610809	0.795524	city	9	1	0.602439	0.602439	0	1	0	0	CorrectCommission	0.560598	0.875153	0
390.406433	0.795712	city	7	1	0.599849	0.599849	0	1	0	0	CorrectCommission	0.583056	0.864028	0
391.202179	0.795800	city	2	1	0.549285	0.549285	0	1	0	0	CorrectCommission	1.021387	0.849028	0
391.998047	0.795913	mountain	10	0	0.000000	0.590639	1	0	0	0	CorrectOmission	0.662890	0.831447	0
392.793884	0.795787	city	7	1	0.661332	0.661332	0	1	0	0	CorrectCommission	0.050066	0.812565	0
393.589813	0.796066	city	10	1	0.698782	0.698782	0	1	0	0	CorrectCommission	0.274583	0.793550	0
394.385590	0.795470	city	6	1	0.797858	0.797858	0	1	0	0	CorrectCommission	1.133458	0.775282	0
395.181244	0.795838	city	9	1	0.807626	0.807626	0	1	0	0	CorrectCommission	1.218136	0.758331	1
395.977020	0.795763	city	6	1	0.598803	0.598803	0	1	0	0	CorrectCommission	0.592124	0.743024	1
396.772858	0.795872	city	5	1	0.598918	0.598918	0	1	0	0	CorrectCommission	0.591120	0.729508	1
397.568634	0.795730	city	8	1	0.809737	0.809737	0	1	0	0	CorrectCommission	1.236435	0.717779	1
398.364471	0.795887	city	6	1	0.748484	0.748484	0	1	0	0	CorrectCommission	0.705442	0.707679	1
399.160431	0.796069	city	5	1	0.648979	0.648979	0	1	0	0	CorrectCommission	0.157151	0.699033	1
399.956207	0.795489	mountain	3	0	0.000000	0.581038	1	0	0	0	CorrectOmission	0.746121	0.691619	1
400.751831	0.795748	city	1	1	0.613327	0.613327	0	1	0	0	CorrectCommission	0.466211	0.685066	1
401.547638	0.795891	city	3	1	0.814512	0.814512	0	1	0	0	CorrectCommission	1.277833	0.678989	1
402.343475	0.795753	city	9	1	0.698429	0.698429	0	1	0	0	CorrectCommission	0.271527	0.672879	1
403.139252	0.795790	city	1	1	0.602044	0.602044	0	1	0	0	CorrectCommission	0.564022	0.666207	1
403.935028	0.795803	city	3	1	0.748792	0.748792	0	1	0	0	CorrectCommission	0.708109	0.658399	1
404.730865	0.795839	mountain	9	1	0.658291	0.658291	0	0	1	0	CommissionError	0.076427	0.648917	1
405.526672	0.795751	city	5	1	0.550029	0.550029	0	1	0	0	CorrectCommission	1.014934	0.637346	1
406.322479	0.795871	city	6	1	0.848850	0.848850	0	1	0	0	CorrectCommission	1.575501	0.623397	1
407.118286	0.795761	city	5	1	0.710479	0.710479	0	1	0	0	CorrectCommission	0.375986	0.607113	1
407.914062	0.795819	city	8	1	0.599589	0.599589	0	1	0	0	CorrectCommission	0.585309	0.588894	1
408.709900	0.795838	city	1	1	0.557409	0.557409	0	1	0	0	CorrectCommission	0.950960	0.569344	1
409.505707	0.795771	city	9	1	0.599484	0.599484	0	1	0	0	CorrectCommission	0.586222	0.549274	1
410.301514	0.795810	city	6	1	0.648764	0.648764	0	1	0	0	CorrectCommission	0.159014	0.529630	1
411.097321	0.795809	mountain	7	0	0.000000	0.643835	1	0	0	0	CorrectOmission	0.201746	0.511346	1
411.893097	0.795752	city	5	1	0.658189	0.658189	0	1	0	0	CorrectCommission	0.077314	0.495161	1
412.688904	0.795850	city	10	1	0.765320	0.765320	0	1	0	0	CorrectCommission	0.851389	0.481603	1
413.484711	0.795794	city	3	1	0.699317	0.699317	0	1	0	0	CorrectCommission	0.279219	0.470866	1
414.280487	0.795782	city	5	1	0.653745	0.653745	0	1	0	0	CorrectCommission	0.115839	0.462933	1
415.076263	0.795737	city	6	1	0.758961	0.758961	0	1	0	0	CorrectCommission	0.796270	0.457540	1
415.872040	0.795814	city	2	1	0.699388	0.699388	0	1	0	0	CorrectCommission	0.279839	0.454295	1
416.667877	0.795870	city	10	1	0.598932	0.598932	0	1	0	0	CorrectCommission	0.591003	0.452856	1
417.463684	0.795762	city	1	1	0.598786	0.598786	0	1	0	0	CorrectCommission	0.592272	0.452961	1
418.259644	0.796121	city	7	1	0.699143	0.699143	0	1	0	0	CorrectCommission	0.277711	0.454499	1
419.055420	0.795454	city	6	1	0.747674	0.747674	0	1	0	0	CorrectCommission	0.698422	0.457557	1
419.851105	0.795878	city	3	1	0.602804	0.602804	0	1	0	0	CorrectCommission	0.557438	0.462414	1
420.646942	0.795816	city	10	1	0.598867	0.598867	0	1	0	0	CorrectCommission	0.591569	0.469448	1
421.442749	0.795797	city	7	1	0.656628	0.656628	0	1	0	0	CorrectCommission	0.090842	0.479069	1
422.238525	0.795794	city	6	1	0.698930	0.698930	0	1	0	0	CorrectCommission	0.275869	0.491659	1
423.034302	0.795753	city	3	1	0.603107	0.603107	0	1	0	0	CorrectCommission	0.554810	0.507394	1
423.830078	0.795770	city	4	1	0.698597	0.698597	0	1	0	0	CorrectCommission	0.272975	0.526260	1
424.625854	0.795812	city	8	1	0.651149	0.651149	0	1	0	0	CorrectCommission	0.138343	0.548085	1
425.421692	0.795839	city	9	1	0.649198	0.649198	0	1	0	0	CorrectCommission	0.155252	0.572490	1
426.217499	0.795793	city	5	1	0.555891	0.555891	0	1	0	0	CorrectCommission	0.964122	0.599051	1
427.013275	0.795753	city	7	1	0.553551	0.553551	0	1	0	0	CorrectCommission	0.984409	0.627375	1
427.809113	0.795893	city	10	1	0.862067	0.862067	0	1	0	0	CorrectCommission	1.690076	0.657222	1
428.604919	0.795724	city	4	1	0.608867	0.608867	0	1	0	0	CorrectCommission	0.504874	0.688565	1
429.400665	0.795789	city	9	1	0.698682	0.698682	0	1	0	0	CorrectCommission	0.273714	0.721640	1
430.196472	0.795844	city	3	1	0.698399	0.698399	0	1	0	0	CorrectCommission	0.271266	0.756814	1
430.992310	0.795835	city	10	1	0.599471	0.599471	0	1	0	0	CorrectCommission	0.586326	0.794469	0
431.788116	0.795725	city	8	1	0.601188	0.601188	0	1	0	0	CorrectCommission	0.571447	0.835020	0
432.583893	0.795831	city	9	1	0.453327	0.453327	0	1	0	0	CorrectCommission	1.853231	0.878735	0
433.379700	0.795810	city	7	1	0.614929	0.614929	0	1	0	0	CorrectCommission	0.452325	0.925714	0
434.175507	0.795807	mountain	3	0	0.000000	0.752479	1	0	0	0	CorrectOmission	0.740075	0.975888	0
434.971344	0.795846	city	4	1	0.801900	0.801900	0	1	0	0	CorrectCommission	1.168498	1.028885	0
435.767151	0.795810	city	5	1	0.699116	0.699116	0	1	0	0	CorrectCommission	0.277476	1.084127	0
436.562958	0.795800	city	2	1	0.556434	0.556434	0	1	0	0	CorrectCommission	0.959409	1.140874	0
437.358734	0.795709	city	5	1	0.499712	0.499712	0	1	0	0	CorrectCommission	1.451126	1.198155	0
438.154480	0.795820	city	2	1	0.500012	0.500012	0	1	0	0	CorrectCommission	1.448530	1.254818	0
438.950348	0.795885	city	10	1	0.355814	0.355814	0	1	0	0	CorrectCommission	2.698559	1.309599	0
439.746155	0.795729	city	1	1	0.400163	0.400163	0	1	0	0	CorrectCommission	2.314108	1.361058	0
440.541901	0.795775	city	4	1	0.648642	0.648642	0	1	0	0	CorrectCommission	0.160072	1.407607	0
441.337860	0.796150	city	2	1	0.599149	0.599149	0	1	0	0	CorrectCommission	0.589119	1.447573	0
442.133667	0.795438	city	7	1	0.564513	0.564513	0	1	0	0	CorrectCommission	0.889374	1.479106	0
442.929321	0.795907	city	2	1	0.599458	0.599458	0	1	0	0	CorrectCommission	0.586447	1.500387	0
443.725159	0.795740	city	7	1	0.964952	0.964952	0	1	0	0	CorrectCommission	2.581974	1.509833	0
444.520905	0.795779	city	10	1	0.998289	0.998289	0	1	0	0	CorrectCommission	2.870965	1.506258	0
445.316742	0.795853	city	1	1	1.096294	1.096294	0	1	0	0	CorrectCommission	3.720562	1.489194	0
446.112518	0.795733	city	4	0	0.000000	0.772725	0	0	0	1	OmissionError	0.915587	1.459050	0
446.908325	0.795875	city	7	1	0.449911	0.449911	0	1	0	0	CorrectCommission	1.882843	1.417279	0
447.704163	0.795808	city	8	1	0.550181	0.550181	0	1	0	0	CorrectCommission	1.013615	1.366069	0
448.500122	0.796086	city	5	1	0.450581	0.450581	0	1	0	0	CorrectCommission	1.877036	1.308307	0
449.295868	0.795447	city	7	1	0.613317	0.613317	0	1	0	0	CorrectCommission	0.466297	1.247130	0
450.091553	0.795898	city	9	1	0.665626	0.665626	0	1	0	0	CorrectCommission	0.012842	1.185671	0
450.887390	0.795803	city	2	1	0.765892	0.765892	0	1	0	0	CorrectCommission	0.856353	1.126739	0
451.683197	0.795797	mountain	6	0	0.000000	0.848435	1	0	0	0	CorrectOmission	1.571904	1.072530	0
452.478973	0.795745	city	10	1	0.847803	0.847803	0	1	0	0	CorrectCommission	1.566424	1.024512	0
453.274750	0.795828	city	9	1	0.698545	0.698545	0	1	0	0	CorrectCommission	0.272526	0.983484	0
454.070587	0.795825	city	8	1	0.698588	0.698588	0	1	0	0	CorrectCommission	0.272904	0.949597	0
454.866394	0.795772	city	1	1	0.512551	0.512551	0	1	0	0	CorrectCommission	1.339825	0.922445	0
455.662170	0.795784	mountain	3	0	0.000000	0.591486	1	0	0	0	CorrectOmission	0.655554	0.901284	0
456.458130	0.796120	city	2	1	0.748976	0.748976	0	1	0	0	CorrectCommission	0.709707	0.885301	0
457.253906	0.795460	city	7	1	0.798607	0.798607	0	1	0	0	CorrectCommission	1.139952	0.873727	0
458.049530	0.795781	city	9	1	0.797861	0.797861	0	1	0	0	CorrectCommission	1.133485	0.866001	0
458.845337	0.795851	city	7	1	0.813886	0.813886	0	1	0	0	CorrectCommission	1.272402	0.861769	0
459.641174	0.795824	city	9	1	0.798209	0.798209	0	1	0	0	CorrectCommission	1.136501	0.860818	0
460.436981	0.795748	city	3	1	0.698682	0.698682	0	1	0	0	CorrectCommission	0.273714	0.863033	0
461.232788	0.795866	city	9	1	0.652532	0.652532	0	1	0	0	CorrectCommission	0.126356	0.868178	0
462.028595	0.795804	city	2	1	0.667262	0.667262	0	1	0	0	CorrectCommission	0.001342	0.875803	0
462.824554	0.796078	city	8	1	0.797734	0.797734	0	1	0	0	CorrectCommission	1.132382	0.885129	0
463.620331	0.795457	city	9	1	0.897124	0.897124	0	1	0	0	CorrectCommission	1.993979	0.895132	0
464.415955	0.795843	city	8	1	0.798041	0.798041	0	1	0	0	CorrectCommission	1.135043	0.904506	0
465.211792	0.795797	mountain	9	0	0.000000	0.656366	1	0	0	0	CorrectOmission	0.093116	0.911928	0
466.007568	0.795751	city	1	1	0.613266	0.613266	0	1	0	0	CorrectCommission	0.466747	0.916107	0
466.803375	0.795897	city	5	1	0.809906	0.809906	0	1	0	0	CorrectCommission	1.237902	0.915979	0
467.599243	0.795804	city	3	1	0.847634	0.847634	0	1	0	0	CorrectCommission	1.564964	0.910903	0
468.395020	0.795746	city	4	1	0.897410	0.897410	0	1	0	0	CorrectCommission	1.996457	0.900755	0
469.190796	0.795831	city	1	1	0.808279	0.808279	0	1	0	0	CorrectCommission	1.223799	0.885971	0
469.986572	0.795740	mountain	3	0	0.000000	0.740028	1	0	0	0	CorrectOmission	0.632140	0.867526	0
470.782379	0.795865	city	10	1	0.701062	0.701062	0	1	0	0	CorrectCommission	0.294344	0.846822	0
471.578217	0.795828	city	1	1	0.699785	0.699785	0	1	0	0	CorrectCommission	0.283275	0.825464	0
472.374023	0.795765	city	4	1	0.761201	0.761201	0	1	0	0	CorrectCommission	0.815687	0.805013	0
473.169800	0.795809	city	3	1	0.749561	0.749561	0	1	0	0	CorrectCommission	0.714778	0.786846	0
473.965637	0.795821	city	2	1	0.751951	0.751951	0	1	0	0	CorrectCommission	0.735499	0.771992	0
474.761444	0.795785	city	3	1	0.761220	0.761220	0	1	0	0	CorrectCommission	0.815846	0.761022	1
475.557190	0.795730	city	5	1	0.797853	0.797853	0	1	0	0	CorrectCommission	1.133418	0.754015	1
476.352997	0.795856	city	2	1	0.708290	0.708290	0	1	0	0	CorrectCommission	0.357005	0.750588	1
477.148804	0.795775	city	6	1	0.698582	0.698582	0	1	0	0	CorrectCommission	0.272853	0.750019	1
477.944580	0.795787	city	3	1	0.649166	0.649166	0	1	0	0	CorrectCommission	0.155535	0.751334	1
478.740417	0.795864	city	6	1	0.797846	0.797846	0	1	0	0	CorrectCommission	1.133357	0.753461	1
479.536255	0.795825	city	7	1	0.797944	0.797944	0	1	0	0	CorrectCommission	1.134209	0.755345	1
480.332001	0.795699	mountain	6	0	0.000000	0.806381	1	0	0	0	CorrectOmission	1.207340	0.756145	1
481.127777	0.795825	city	4	1	0.798201	0.798201	0	1	0	0	CorrectCommission	1.136429	0.755246	1
481.923615	0.795855	city	2	1	0.748451	0.748451	0	1	0	0	CorrectCommission	0.705154	0.752358	1
482.719421	0.795759	city	9	1	0.757695	0.757695	0	1	0	0	CorrectCommission	0.785294	0.747482	1
483.515198	0.795808	city	10	1	0.715793	0.715793	0	1	0	0	CorrectCommission	0.422045	0.740824	1
484.311035	0.795869	city	5	1	0.748169	0.748169	0	1	0	0	CorrectCommission	0.702716	0.732725	1
485.106842	0.795701	city	2	1	0.707948	0.707948	0	1	0	0	CorrectCommission	0.354043	0.723556	1
485.902618	0.795888	city	4	1	0.748066	0.748066	0	1	0	0	CorrectCommission	0.701815	0.713695	1
486.698425	0.795749	city	9	1	0.748259	0.748259	0	1	0	0	CorrectCommission	0.703491	0.703491	1
