onset	duration	trial_type	image_type	Press	ReactionTime	ReactionTime_Interpolated	CorrectOmission	CorrectCommission	CommissionError	OmissionError	response_type	nonsmoothVarianceTimeCourse	VarianceTimeCourse	In_the_Zone
8.421918	0.796148	city	6	1	1.096676	1.096676	0	1	0	0	CorrectCommission	3.975232	3.975232	0
9.217896	0.795808	city	8	1	0.748313	0.748313	0	1	0	0	CorrectCommission	0.485206	3.601103	0
10.013554	0.795507	city	4	1	0.747987	0.747987	0	1	0	0	CorrectCommission	0.481943	3.240781	0
10.809199	0.795784	city	7	1	0.598870	0.598870	0	1	0	0	CorrectCommission	1.011963	2.906677	0
11.604986	0.795790	city	4	1	0.571204	0.571204	0	1	0	0	CorrectCommission	1.289131	2.608853	0
12.400764	0.795764	city	6	1	0.561604	0.561604	0	1	0	0	CorrectCommission	1.385305	2.354280	0
13.196716	0.796141	city	10	1	0.549404	0.549404	0	1	0	0	CorrectCommission	1.507528	2.146469	0
13.992540	0.795508	city	5	1	0.552665	0.552665	0	1	0	0	CorrectCommission	1.474863	1.985404	0
14.788177	0.795765	city	3	1	0.549180	0.549180	0	1	0	0	CorrectCommission	1.509773	1.867922	0
15.583982	0.795843	city	5	1	0.452528	0.452528	0	1	0	0	CorrectCommission	2.478072	1.788296	0
16.379950	0.796092	city	6	1	0.649605	0.649605	0	1	0	0	CorrectCommission	0.503678	1.738908	0
17.175755	0.795520	city	9	1	0.602961	0.602961	0	1	0	0	CorrectCommission	0.970980	1.711226	0
17.971420	0.795810	city	4	1	0.549224	0.549224	0	1	0	0	CorrectCommission	1.509328	1.696338	0
18.767366	0.796082	city	5	1	0.557129	0.557129	0	1	0	0	CorrectCommission	1.430137	1.685887	0
19.563168	0.795521	city	10	1	0.404105	0.404105	0	1	0	0	CorrectCommission	2.963189	1.672625	0
20.358946	0.796035	city	1	1	0.499674	0.499674	0	1	0	0	CorrectCommission	2.005746	1.650801	0
21.154711	0.795496	city	2	1	0.406358	0.406358	0	1	0	0	CorrectCommission	2.940614	1.616645	0
21.950405	0.795891	mountain	3	1	0.452746	0.452746	0	0	1	0	CommissionError	2.475885	1.568259	0
22.746233	0.795764	city	2	1	0.566946	0.566946	0	1	0	0	CorrectCommission	1.331792	1.505718	0
23.541996	0.795764	city	4	1	0.556464	0.556464	0	1	0	0	CorrectCommission	1.436798	1.430727	0
24.337818	0.795880	city	5	1	0.503336	0.503336	0	1	0	0	CorrectCommission	1.969055	1.346198	0
25.133663	0.795809	city	1	1	0.563596	0.563596	0	1	0	0	CorrectCommission	1.365344	1.255767	0
25.929461	0.795786	city	5	1	0.751849	0.751849	0	1	0	0	CorrectCommission	0.520636	1.163435	0
26.725224	0.795741	city	3	1	0.655756	0.655756	0	1	0	0	CorrectCommission	0.442054	1.073054	0
27.521021	0.795851	city	7	1	0.705777	0.705777	0	1	0	0	CorrectCommission	0.059068	0.987837	0
28.316841	0.795790	mountain	4	0	0.000000	0.780141	1	0	0	0	CorrectOmission	0.804072	0.910158	0
29.112635	0.795799	city	4	1	0.803001	0.803001	0	1	0	0	CorrectCommission	1.033099	0.841335	0
29.908566	0.796061	city	10	1	0.698513	0.698513	0	1	0	0	CorrectCommission	0.013708	0.781749	0
30.704359	0.795527	city	5	1	0.847543	0.847543	0	1	0	0	CorrectCommission	1.479334	0.730969	0
31.500046	0.795846	city	1	1	0.652550	0.652550	0	1	0	0	CorrectCommission	0.474177	0.687839	0
32.295994	0.796051	city	4	1	0.797864	0.797864	0	1	0	0	CorrectCommission	0.981626	0.650909	1
33.091774	0.795508	city	9	1	0.698154	0.698154	0	1	0	0	CorrectCommission	0.017304	0.618502	1
33.887451	0.795845	city	6	1	0.657669	0.657669	0	1	0	0	CorrectCommission	0.422889	0.589104	1
34.683281	0.795814	city	1	1	0.599940	0.599940	0	1	0	0	CorrectCommission	1.001243	0.561408	1
35.479061	0.795749	city	8	1	0.658014	0.658014	0	1	0	0	CorrectCommission	0.419431	0.534431	1
36.274990	0.796108	city	5	1	0.598776	0.598776	0	1	0	0	CorrectCommission	1.012906	0.507668	1
37.070770	0.795454	city	3	1	0.708299	0.708299	0	1	0	0	CorrectCommission	0.084338	0.480954	1
37.866573	0.796151	mountain	6	1	0.599031	0.599031	0	0	1	0	CommissionError	1.010344	0.454631	1
38.662544	0.795792	city	4	1	0.714712	0.714712	0	1	0	0	CorrectCommission	0.148588	0.429292	1
39.458191	0.795500	city	3	1	0.717872	0.717872	0	1	0	0	CorrectCommission	0.180244	0.405938	1
40.253845	0.795809	city	2	1	0.698345	0.698345	0	1	0	0	CorrectCommission	0.015388	0.385779	1
41.049656	0.795812	city	9	1	0.655341	0.655341	0	1	0	0	CorrectCommission	0.446214	0.370239	1
41.845451	0.795776	city	4	1	0.722681	0.722681	0	1	0	0	CorrectCommission	0.228422	0.360861	1
42.641403	0.796127	city	9	1	0.677478	0.677478	0	1	0	0	CorrectCommission	0.224436	0.359264	1
43.437225	0.795519	city	10	1	0.599076	0.599076	0	1	0	0	CorrectCommission	1.009900	0.367033	1
44.232845	0.795720	city	7	1	0.698286	0.698286	0	1	0	0	CorrectCommission	0.015979	0.385499	1
45.028770	0.796135	city	4	1	0.715906	0.715906	0	1	0	0	CorrectCommission	0.160543	0.415685	1
45.824596	0.795510	city	1	1	0.698111	0.698111	0	1	0	0	CorrectCommission	0.017729	0.457959	1
46.620274	0.795850	city	7	1	0.698316	0.698316	0	1	0	0	CorrectCommission	0.015679	0.511889	1
47.416237	0.796070	city	6	1	0.700419	0.700419	0	1	0	0	CorrectCommission	0.005395	0.576201	1
48.212173	0.795809	city	3	1	0.648970	0.648970	0	1	0	0	CorrectCommission	0.510040	0.648557	1
49.007980	0.795804	city	4	1	0.698227	0.698227	0	1	0	0	CorrectCommission	0.016571	0.725741	0
49.803604	0.795439	city	8	1	0.598505	0.598505	0	1	0	0	CorrectCommission	1.015618	0.803858	0
50.599262	0.795877	city	2	1	0.599311	0.599311	0	1	0	0	CorrectCommission	1.007540	0.878590	0
51.395061	0.795724	city	10	1	0.566064	0.566064	0	1	0	0	CorrectCommission	1.340622	0.945671	0
52.190845	0.795839	city	2	1	0.549793	0.549793	0	1	0	0	CorrectCommission	1.503635	1.001273	0
52.986687	0.795848	city	4	1	0.505874	0.505874	0	1	0	0	CorrectCommission	1.943629	1.042473	0
53.782475	0.795729	city	1	1	0.549978	0.549978	0	1	0	0	CorrectCommission	1.501775	1.067482	0
54.578259	0.795835	city	10	1	0.464344	0.464344	0	1	0	0	CorrectCommission	2.359691	1.075896	0
55.374081	0.795815	city	7	1	0.598940	0.598940	0	1	0	0	CorrectCommission	1.011265	1.068542	0
56.169899	0.795821	city	4	1	0.616026	0.616026	0	1	0	0	CorrectCommission	0.840088	1.047494	0
56.965683	0.795745	city	8	1	0.550714	0.550714	0	1	0	0	CorrectCommission	1.494404	1.015586	0
57.761478	0.795843	city	6	1	0.599135	0.599135	0	1	0	0	CorrectCommission	1.009303	0.976080	0
58.557266	0.795738	city	5	1	0.619156	0.619156	0	1	0	0	CorrectCommission	0.808725	0.932210	0
59.353069	0.795870	mountain	7	0	0.000000	0.675848	1	0	0	0	CorrectOmission	0.240769	0.886829	0
60.148911	0.795812	city	9	1	0.716508	0.716508	0	1	0	0	CorrectCommission	0.166577	0.842158	0
60.944691	0.795747	mountain	10	0	0.000000	0.688434	1	0	0	0	CorrectOmission	0.114674	0.799592	0
61.740482	0.795834	city	3	1	0.709471	0.709471	0	1	0	0	CorrectCommission	0.096075	0.759823	0
62.536301	0.795805	city	8	1	0.897460	0.897460	0	1	0	0	CorrectCommission	1.979420	0.722913	0
63.332096	0.795787	city	10	1	0.600744	0.600744	0	1	0	0	CorrectCommission	0.993183	0.688528	0
64.127907	0.795837	city	5	1	0.598892	0.598892	0	1	0	0	CorrectCommission	1.011738	0.656337	1
64.923843	0.796033	city	8	1	0.566071	0.566071	0	1	0	0	CorrectCommission	1.340553	0.626077	1
65.719772	0.795827	city	3	1	0.652926	0.652926	0	1	0	0	CorrectCommission	0.470407	0.597742	1
66.515450	0.795529	city	8	1	0.701861	0.701861	0	1	0	0	CorrectCommission	0.019840	0.571674	1
67.311127	0.795820	city	2	1	0.699165	0.699165	0	1	0	0	CorrectCommission	0.007172	0.548386	1
68.107079	0.796083	city	1	1	0.649240	0.649240	0	1	0	0	CorrectCommission	0.507335	0.528472	1
68.902863	0.795483	city	3	1	0.651107	0.651107	0	1	0	0	CorrectCommission	0.488638	0.512439	1
69.698524	0.795847	mountain	2	0	0.000000	0.682676	1	0	0	0	CorrectOmission	0.172363	0.500624	1
70.494347	0.795803	city	6	1	0.699061	0.699061	0	1	0	0	CorrectCommission	0.008212	0.493091	1
71.290154	0.795798	city	4	1	0.655374	0.655374	0	1	0	0	CorrectCommission	0.445883	0.489654	1
72.086067	0.796030	city	7	1	0.748288	0.748288	0	1	0	0	CorrectCommission	0.484959	0.489811	1
72.881859	0.795561	city	8	1	0.863208	0.863208	0	1	0	0	CorrectCommission	1.636268	0.492950	1
73.677528	0.795777	city	5	1	0.667428	0.667428	0	1	0	0	CorrectCommission	0.325123	0.498358	1
74.473328	0.795822	city	2	1	0.711033	0.711033	0	1	0	0	CorrectCommission	0.111724	0.505347	1
75.269142	0.795805	city	5	1	0.651915	0.651915	0	1	0	0	CorrectCommission	0.480535	0.513329	1
76.064919	0.795756	city	8	1	0.651971	0.651971	0	1	0	0	CorrectCommission	0.479976	0.521756	1
76.860703	0.795813	city	10	1	0.798116	0.798116	0	1	0	0	CorrectCommission	0.984151	0.530243	1
77.656670	0.796120	city	6	1	0.699580	0.699580	0	1	0	0	CorrectCommission	0.003018	0.538474	1
78.452629	0.795798	city	3	1	0.747886	0.747886	0	1	0	0	CorrectCommission	0.480935	0.546288	1
79.248253	0.795448	city	8	1	0.648290	0.648290	0	1	0	0	CorrectCommission	0.516852	0.553535	1
80.043877	0.795802	city	5	1	0.698691	0.698691	0	1	0	0	CorrectCommission	0.011920	0.560131	1
80.839699	0.795845	city	1	1	0.797811	0.797811	0	1	0	0	CorrectCommission	0.981094	0.566122	1
81.635506	0.795757	mountain	7	0	0.000000	0.841972	1	0	0	0	CorrectOmission	1.423518	0.571596	1
82.431335	0.795904	city	8	1	0.801965	0.801965	0	1	0	0	CorrectCommission	1.022713	0.576711	1
83.227142	0.795718	city	10	1	0.648579	0.648579	0	1	0	0	CorrectCommission	0.513958	0.581724	1
84.022926	0.795849	city	5	1	0.715351	0.715351	0	1	0	0	CorrectCommission	0.154985	0.586916	1
84.818756	0.795805	city	3	1	0.698516	0.698516	0	1	0	0	CorrectCommission	0.013677	0.592512	1
85.614685	0.796055	city	1	1	0.698318	0.698318	0	1	0	0	CorrectCommission	0.015661	0.598623	1
86.410629	0.795826	city	8	1	0.614509	0.614509	0	1	0	0	CorrectCommission	0.855288	0.605224	1
87.206444	0.795812	city	1	1	0.654103	0.654103	0	1	0	0	CorrectCommission	0.458621	0.612154	1
88.002098	0.795491	city	5	1	0.603314	0.603314	0	1	0	0	CorrectCommission	0.967437	0.619245	1
88.797897	0.796104	city	9	1	0.847634	0.847634	0	1	0	0	CorrectCommission	1.480246	0.626265	1
89.593712	0.795530	city	3	1	0.698007	0.698007	0	1	0	0	CorrectCommission	0.018775	0.633030	1
90.389343	0.795735	city	6	1	0.847673	0.847673	0	1	0	0	CorrectCommission	1.480638	0.639481	1
91.185112	0.795798	city	7	1	0.705952	0.705952	0	1	0	0	CorrectCommission	0.060827	0.645576	1
91.980904	0.795788	city	4	1	0.758577	0.758577	0	1	0	0	CorrectCommission	0.588035	0.651447	1
92.776726	0.795862	city	1	1	0.664471	0.664471	0	1	0	0	CorrectCommission	0.354750	0.657115	1
93.572571	0.795827	city	6	1	0.600342	0.600342	0	1	0	0	CorrectCommission	0.997211	0.662574	1
94.368370	0.795768	city	7	1	0.698214	0.698214	0	1	0	0	CorrectCommission	0.016694	0.667636	1
95.164154	0.795807	city	9	1	0.605872	0.605872	0	1	0	0	CorrectCommission	0.941813	0.672058	1
95.959984	0.795850	city	7	1	0.616612	0.616612	0	1	0	0	CorrectCommission	0.834214	0.675350	1
96.755768	0.795713	city	1	1	0.599467	0.599467	0	1	0	0	CorrectCommission	1.005981	0.676919	1
97.551697	0.796145	city	2	1	0.657498	0.657498	0	1	0	0	CorrectCommission	0.424609	0.676132	1
98.347488	0.795445	city	3	1	0.661938	0.661938	0	1	0	0	CorrectCommission	0.380126	0.672379	1
99.143143	0.795857	city	5	1	0.598843	0.598843	0	1	0	0	CorrectCommission	1.012232	0.665147	1
99.938972	0.795799	city	2	1	0.599665	0.599665	0	1	0	0	CorrectCommission	1.003994	0.654128	1
100.734779	0.795816	city	8	1	0.598977	0.598977	0	1	0	0	CorrectCommission	1.010886	0.639305	1
101.530586	0.795797	city	7	1	0.656576	0.656576	0	1	0	0	CorrectCommission	0.433844	0.621020	1
102.326393	0.795827	city	3	1	0.748088	0.748088	0	1	0	0	CorrectCommission	0.482958	0.599964	1
103.122185	0.795752	mountain	1	0	0.000000	0.786017	1	0	0	0	CorrectOmission	0.862938	0.577124	1
103.917984	0.795852	city	3	1	0.770838	0.770838	0	1	0	0	CorrectCommission	0.710870	0.553749	1
104.713951	0.796068	mountain	10	0	0.000000	0.703028	1	0	0	0	CorrectOmission	0.031529	0.531327	1
105.509888	0.795814	city	3	1	0.667165	0.667165	0	1	0	0	CorrectCommission	0.327754	0.511422	1
106.305557	0.795516	city	9	1	0.747828	0.747828	0	1	0	0	CorrectCommission	0.480354	0.495591	1
107.101166	0.795715	city	10	1	0.598783	0.598783	0	1	0	0	CorrectCommission	1.012832	0.485369	1
107.896942	0.795831	city	6	1	0.705708	0.705708	0	1	0	0	CorrectCommission	0.058377	0.482042	1
108.692772	0.795821	city	3	1	0.698291	0.698291	0	1	0	0	CorrectCommission	0.015930	0.486689	1
109.488609	0.795855	city	6	1	0.712838	0.712838	0	1	0	0	CorrectCommission	0.129810	0.499950	1
110.284439	0.795806	city	10	1	0.764653	0.764653	0	1	0	0	CorrectCommission	0.648907	0.522008	1
111.080208	0.795742	city	1	1	0.761591	0.761591	0	1	0	0	CorrectCommission	0.618238	0.552437	1
111.875992	0.795814	city	5	1	0.716635	0.716635	0	1	0	0	CorrectCommission	0.167845	0.590271	1
112.671806	0.795820	city	10	1	0.748077	0.748077	0	1	0	0	CorrectCommission	0.482843	0.633959	1
113.467606	0.795787	city	1	1	0.654533	0.654533	0	1	0	0	CorrectCommission	0.454311	0.681407	1
114.263420	0.795842	city	8	1	0.648673	0.648673	0	1	0	0	CorrectCommission	0.513017	0.730133	0
115.059196	0.795704	city	1	1	0.598823	0.598823	0	1	0	0	CorrectCommission	1.012435	0.777437	0
115.854996	0.795897	city	10	1	0.653903	0.653903	0	1	0	0	CorrectCommission	0.460621	0.820670	0
116.650795	0.795704	city	2	1	0.549766	0.549766	0	1	0	0	CorrectCommission	1.503901	0.857444	0
117.446716	0.796130	city	8	1	0.563772	0.563772	0	1	0	0	CorrectCommission	1.363584	0.885874	0
118.242554	0.795548	city	9	1	0.599316	0.599316	0	1	0	0	CorrectCommission	1.007489	0.904802	0
119.038216	0.795776	city	5	1	0.500078	0.500078	0	1	0	0	CorrectCommission	2.001696	0.913968	0
119.834145	0.796090	city	2	1	0.511707	0.511707	0	1	0	0	CorrectCommission	1.885189	0.913950	0
120.629974	0.795558	city	9	1	0.698807	0.698807	0	1	0	0	CorrectCommission	0.010760	0.906117	0
121.425774	0.796051	city	6	1	0.648511	0.648511	0	1	0	0	CorrectCommission	0.514639	0.892483	0
122.221558	0.795517	mountain	1	0	0.000000	0.607063	1	0	0	0	CorrectOmission	0.929884	0.875352	0
123.017220	0.795799	city	5	1	0.598981	0.598981	0	1	0	0	CorrectCommission	1.010849	0.857105	0
123.813034	0.795831	city	3	1	0.648786	0.648786	0	1	0	0	CorrectCommission	0.511889	0.839980	0
124.608841	0.795786	mountain	8	0	0.000000	0.740793	1	0	0	0	CorrectOmission	0.409869	0.825790	0
125.404785	0.796100	city	10	1	0.799108	0.799108	0	1	0	0	CorrectCommission	0.994094	0.815823	0
126.200554	0.795432	city	1	1	0.747838	0.747838	0	1	0	0	CorrectCommission	0.480449	0.810746	0
126.996170	0.795803	city	3	1	0.660811	0.660811	0	1	0	0	CorrectCommission	0.391418	0.810648	0
127.791992	0.795844	city	7	1	0.797833	0.797833	0	1	0	0	CorrectCommission	0.981318	0.815116	0
128.587982	0.796126	city	3	1	0.798770	0.798770	0	1	0	0	CorrectCommission	0.990706	0.823308	0
129.383774	0.795471	city	7	1	0.798395	0.798395	0	1	0	0	CorrectCommission	0.986954	0.834177	0
130.179443	0.795855	city	8	1	0.748240	0.748240	0	1	0	0	CorrectCommission	0.484476	0.846581	0
130.975388	0.796053	city	1	1	0.866686	0.866686	0	1	0	0	CorrectCommission	1.671109	0.859462	0
131.771179	0.795512	city	8	1	0.748078	0.748078	0	1	0	0	CorrectCommission	0.482859	0.871880	0
132.566833	0.795801	city	10	1	0.602641	0.602641	0	1	0	0	CorrectCommission	0.974178	0.883180	0
133.362610	0.795767	city	6	1	0.701099	0.701099	0	1	0	0	CorrectCommission	0.012208	0.892940	0
134.158447	0.795885	city	5	1	0.797899	0.797899	0	1	0	0	CorrectCommission	0.981980	0.900999	0
134.954254	0.795751	city	3	1	0.904572	0.904572	0	1	0	0	CorrectCommission	2.050668	0.907351	0
135.750015	0.795760	city	6	1	0.847620	0.847620	0	1	0	0	CorrectCommission	1.480105	0.912132	0
136.545975	0.796158	city	8	1	0.650741	0.650741	0	1	0	0	CorrectCommission	0.492300	0.915523	0
137.341812	0.795517	city	4	1	0.652710	0.652710	0	1	0	0	CorrectCommission	0.472571	0.917649	0
138.137436	0.795736	city	5	1	0.648680	0.648680	0	1	0	0	CorrectCommission	0.512946	0.918471	0
138.933228	0.795836	city	10	1	0.549525	0.549525	0	1	0	0	CorrectCommission	1.506315	0.917674	0
139.729172	0.796074	city	4	1	0.755717	0.755717	0	1	0	0	CorrectCommission	0.559382	0.914657	0
140.524979	0.795522	city	10	1	0.748499	0.748499	0	1	0	0	CorrectCommission	0.487076	0.908639	0
141.320633	0.795799	city	6	1	0.804416	0.804416	0	1	0	0	CorrectCommission	1.047275	0.898693	0
142.116455	0.795848	city	5	1	0.752594	0.752594	0	1	0	0	CorrectCommission	0.528099	0.883896	0
142.912415	0.796073	city	6	1	0.898716	0.898716	0	1	0	0	CorrectCommission	1.992003	0.863575	0
143.708191	0.795461	city	7	1	0.854855	0.854855	0	1	0	0	CorrectCommission	1.552589	0.837392	0
144.503815	0.795795	city	8	1	0.805070	0.805070	0	1	0	0	CorrectCommission	1.053825	0.805563	0
145.299622	0.795822	city	3	1	0.753283	0.753283	0	1	0	0	CorrectCommission	0.535004	0.768873	0
146.095444	0.795816	city	5	1	0.755729	0.755729	0	1	0	0	CorrectCommission	0.559505	0.728643	0
146.891266	0.795821	city	6	1	0.798894	0.798894	0	1	0	0	CorrectCommission	0.991949	0.686634	0
147.687073	0.795800	city	2	1	0.659109	0.659109	0	1	0	0	CorrectCommission	0.408461	0.644884	1
148.483017	0.796103	city	7	1	0.748052	0.748052	0	1	0	0	CorrectCommission	0.482599	0.605490	1
149.278854	0.795543	city	2	1	0.698321	0.698321	0	1	0	0	CorrectCommission	0.015626	0.570404	1
150.074524	0.795802	city	9	1	0.648489	0.648489	0	1	0	0	CorrectCommission	0.514856	0.541213	1
150.870316	0.795778	city	8	1	0.648467	0.648467	0	1	0	0	CorrectCommission	0.515085	0.519006	1
151.666092	0.795777	city	4	1	0.699109	0.699109	0	1	0	0	CorrectCommission	0.007737	0.504273	1
152.461868	0.795797	city	5	1	0.649248	0.649248	0	1	0	0	CorrectCommission	0.507258	0.496911	1
153.257645	0.795754	city	10	1	0.651000	0.651000	0	1	0	0	CorrectCommission	0.489700	0.496215	1
154.053604	0.796157	city	6	1	0.699147	0.699147	0	1	0	0	CorrectCommission	0.007352	0.501096	1
154.849442	0.795521	city	1	1	0.615079	0.615079	0	1	0	0	CorrectCommission	0.849578	0.510219	1
155.645233	0.796057	city	7	1	0.655479	0.655479	0	1	0	0	CorrectCommission	0.444833	0.522127	1
156.441040	0.795560	city	3	1	0.649642	0.649642	0	1	0	0	CorrectCommission	0.503310	0.535677	1
157.236847	0.796052	mountain	6	0	0.000000	0.716336	1	0	0	0	CorrectOmission	0.164858	0.549902	1
158.032639	0.795518	city	2	1	0.803971	0.803971	0	1	0	0	CorrectCommission	1.042813	0.564394	1
158.828445	0.796102	city	9	1	0.860955	0.860955	0	1	0	0	CorrectCommission	1.613695	0.579227	1
159.624390	0.795778	city	2	1	0.752325	0.752325	0	1	0	0	CorrectCommission	0.525404	0.595088	1
160.420044	0.795545	city	3	1	0.747774	0.747774	0	1	0	0	CorrectCommission	0.479813	0.613136	1
161.215714	0.795795	city	10	1	0.701526	0.701526	0	1	0	0	CorrectCommission	0.016485	0.634800	1
162.011520	0.795824	city	4	1	0.748075	0.748075	0	1	0	0	CorrectCommission	0.482822	0.661601	1
162.807312	0.795756	city	5	1	0.649457	0.649457	0	1	0	0	CorrectCommission	0.505160	0.694817	0
163.603088	0.795801	city	9	1	0.648630	0.648630	0	1	0	0	CorrectCommission	0.513448	0.735243	0
164.398865	0.795748	city	3	1	0.653944	0.653944	0	1	0	0	CorrectCommission	0.460211	0.782954	0
165.194641	0.795814	city	4	1	0.648655	0.648655	0	1	0	0	CorrectCommission	0.513194	0.837223	0
165.990494	0.795864	city	2	1	0.599114	0.599114	0	1	0	0	CorrectCommission	1.009521	0.896360	0
166.786316	0.795803	city	5	1	0.598907	0.598907	0	1	0	0	CorrectCommission	1.011589	0.957888	0
167.582123	0.795814	mountain	3	1	0.549076	0.549076	0	0	1	0	CommissionError	1.510814	1.018695	0
168.377914	0.795770	mountain	4	0	0.000000	0.662066	1	0	0	0	CorrectOmission	0.378844	1.075206	0
169.173706	0.795803	city	4	1	0.747978	0.747978	0	1	0	0	CorrectCommission	0.481855	1.123957	0
169.969498	0.795782	city	10	1	0.616915	0.616915	0	1	0	0	CorrectCommission	0.831184	1.161818	0
170.765457	0.796124	city	8	1	0.605710	0.605710	0	1	0	0	CorrectCommission	0.943432	1.186443	0
171.561279	0.795528	mountain	6	1	1.345742	1.345742	0	0	1	0	CommissionError	6.470468	1.196629	0
172.356934	0.795797	mountain	2	1	0.798493	0.798493	0	0	1	0	CommissionError	0.987927	1.192263	0
173.152695	0.795726	city	3	1	0.604105	0.604105	0	1	0	0	CorrectCommission	0.959511	1.174935	0
173.948517	0.795899	city	8	1	0.652557	0.652557	0	1	0	0	CorrectCommission	0.474111	1.147121	0
174.744354	0.795778	city	6	1	0.798025	0.798025	0	1	0	0	CorrectCommission	0.983240	1.112127	0
175.540131	0.795786	mountain	4	0	0.000000	0.755643	1	0	0	0	CorrectOmission	0.558641	1.073497	0
176.336075	0.796102	city	1	1	0.648823	0.648823	0	1	0	0	CorrectCommission	0.511513	1.034667	0
177.131882	0.795493	city	10	1	0.600980	0.600980	0	1	0	0	CorrectCommission	0.990825	0.998530	0
177.927536	0.795816	city	6	1	0.797777	0.797777	0	1	0	0	CorrectCommission	0.980764	0.967106	0
178.723312	0.795751	mountain	3	0	0.000000	0.731900	1	0	0	0	CorrectOmission	0.320780	0.941495	0
179.519104	0.795834	city	5	1	0.666043	0.666043	0	1	0	0	CorrectCommission	0.338995	0.921816	0
180.315063	0.796082	city	7	1	0.862904	0.862904	0	1	0	0	CorrectCommission	1.633223	0.907310	0
181.110886	0.795567	city	1	1	0.698704	0.698704	0	1	0	0	CorrectCommission	0.011787	0.896575	0
181.906570	0.795788	city	3	1	0.850156	0.850156	0	1	0	0	CorrectCommission	1.505512	0.887993	0
182.702332	0.795734	city	7	1	0.947048	0.947048	0	1	0	0	CorrectCommission	2.476205	0.879796	0
183.498260	0.796133	city	2	1	0.702937	0.702937	0	1	0	0	CorrectCommission	0.030614	0.870421	0
184.294098	0.795531	city	7	1	0.798693	0.798693	0	1	0	0	CorrectCommission	0.989933	0.858771	0
185.089890	0.796074	city	4	1	0.800394	0.800394	0	1	0	0	CorrectCommission	1.006972	0.844037	0
185.885712	0.795551	city	8	1	0.652609	0.652609	0	1	0	0	CorrectCommission	0.473586	0.825934	0
186.681381	0.795800	mountain	7	0	0.000000	0.692397	1	0	0	0	CorrectOmission	0.074973	0.804631	0
187.477188	0.795811	city	5	1	0.797978	0.797978	0	1	0	0	CorrectCommission	0.982773	0.780603	0
188.273117	0.796050	city	7	1	0.847571	0.847571	0	1	0	0	CorrectCommission	1.479615	0.754636	0
189.068878	0.795469	city	2	1	0.798267	0.798267	0	1	0	0	CorrectCommission	0.985664	0.727549	0
189.864685	0.796142	city	4	1	0.847640	0.847640	0	1	0	0	CorrectCommission	1.480302	0.700419	0
190.660660	0.795801	city	1	1	0.709344	0.709344	0	1	0	0	CorrectCommission	0.094803	0.674280	1
191.456329	0.795544	mountain	10	0	0.000000	0.680969	1	0	0	0	CorrectOmission	0.189466	0.650146	1
192.251984	0.795756	city	1	1	0.698598	0.698598	0	1	0	0	CorrectCommission	0.012848	0.628768	1
193.047775	0.795840	city	5	1	0.698315	0.698315	0	1	0	0	CorrectCommission	0.015687	0.610673	1
193.843735	0.796074	city	8	1	0.847368	0.847368	0	1	0	0	CorrectCommission	1.477574	0.596091	1
194.639496	0.795456	mountain	5	0	0.000000	0.797146	1	0	0	0	CorrectOmission	0.974435	0.584875	1
195.435165	0.795869	city	3	1	0.698414	0.698414	0	1	0	0	CorrectCommission	0.014693	0.576676	1
196.230972	0.795769	city	5	1	0.701937	0.701937	0	1	0	0	CorrectCommission	0.020601	0.570980	1
197.026779	0.795818	mountain	4	0	0.000000	0.742311	1	0	0	0	CorrectOmission	0.425080	0.567132	1
197.822571	0.795771	city	4	1	0.798029	0.798029	0	1	0	0	CorrectCommission	0.983284	0.564450	1
198.618378	0.795836	city	8	1	0.847585	0.847585	0	1	0	0	CorrectCommission	1.479755	0.562334	1
199.414185	0.795803	city	6	1	0.762561	0.762561	0	1	0	0	CorrectCommission	0.627949	0.560394	1
200.209991	0.795804	city	3	1	0.698911	0.698911	0	1	0	0	CorrectCommission	0.009720	0.558440	1
201.005798	0.795789	city	1	1	0.698251	0.698251	0	1	0	0	CorrectCommission	0.016326	0.556669	1
201.801590	0.795794	city	7	1	0.803502	0.803502	0	1	0	0	CorrectCommission	1.038113	0.555469	1
202.597351	0.795738	city	10	1	0.703587	0.703587	0	1	0	0	CorrectCommission	0.037126	0.555461	1
203.393143	0.795847	city	5	1	0.797946	0.797946	0	1	0	0	CorrectCommission	0.982453	0.557520	1
204.188980	0.795842	city	4	1	0.804659	0.804659	0	1	0	0	CorrectCommission	1.049704	0.562557	1
204.984818	0.795817	city	6	1	0.698174	0.698174	0	1	0	0	CorrectCommission	0.017103	0.571435	1
205.780609	0.795766	city	9	1	0.648781	0.648781	0	1	0	0	CorrectCommission	0.511934	0.584834	1
206.576523	0.796066	city	4	1	0.761743	0.761743	0	1	0	0	CorrectCommission	0.619753	0.603071	1
207.372345	0.795567	city	10	1	0.656231	0.656231	0	1	0	0	CorrectCommission	0.437301	0.625943	1
208.168015	0.795774	city	5	1	0.755038	0.755038	0	1	0	0	CorrectCommission	0.552586	0.652713	1
208.963898	0.795999	city	2	1	0.748882	0.748882	0	1	0	0	CorrectCommission	0.490908	0.682020	1
209.759842	0.795879	city	7	1	0.698789	0.698789	0	1	0	0	CorrectCommission	0.010940	0.711978	0
210.555679	0.795822	city	3	1	0.665918	0.665918	0	1	0	0	CorrectCommission	0.340247	0.740372	0
211.351364	0.795539	city	2	1	0.611094	0.611094	0	1	0	0	CorrectCommission	0.889501	0.764865	0
212.147034	0.795800	mountain	4	1	0.813885	0.813885	0	0	1	0	CommissionError	1.142136	0.783292	0
212.942978	0.796069	city	2	1	0.947074	0.947074	0	1	0	0	CorrectCommission	2.476467	0.794077	0
213.738754	0.795496	city	5	1	0.748125	0.748125	0	1	0	0	CorrectCommission	0.483328	0.796432	0
214.534378	0.795744	city	7	1	0.897469	0.897469	0	1	0	0	CorrectCommission	1.979506	0.790650	0
215.330200	0.795903	city	1	1	0.758270	0.758270	0	1	0	0	CorrectCommission	0.584959	0.777848	0
216.126007	0.795713	city	9	1	0.847491	0.847491	0	1	0	0	CorrectCommission	1.478810	0.760069	0
216.921753	0.795794	city	5	1	0.699056	0.699056	0	1	0	0	CorrectCommission	0.008263	0.739859	0
217.717590	0.795864	mountain	2	0	0.000000	0.665900	1	0	0	0	CorrectOmission	0.340427	0.720005	0
218.513550	0.796059	city	9	1	0.699547	0.699547	0	1	0	0	CorrectCommission	0.003341	0.702986	0
219.309341	0.795527	city	6	1	0.751520	0.751520	0	1	0	0	CorrectCommission	0.517336	0.690716	0
220.104980	0.795746	city	1	1	0.664159	0.664159	0	1	0	0	CorrectCommission	0.357875	0.684229	0
220.900803	0.795894	city	8	1	0.709326	0.709326	0	1	0	0	CorrectCommission	0.094627	0.683597	1
221.696640	0.795782	city	7	1	0.798592	0.798592	0	1	0	0	CorrectCommission	0.988925	0.687967	0
222.492401	0.795747	city	3	1	0.757282	0.757282	0	1	0	0	CorrectCommission	0.575063	0.695747	0
223.288208	0.795875	mountain	6	0	0.000000	0.770581	1	0	0	0	CorrectOmission	0.708295	0.704943	0
224.084167	0.796031	city	8	1	0.797691	0.797691	0	1	0	0	CorrectCommission	0.979897	0.713406	0
224.879929	0.795503	city	7	1	0.797815	0.797815	0	1	0	0	CorrectCommission	0.981144	0.719235	0
225.675751	0.796142	city	6	1	0.813495	0.813495	0	1	0	0	CorrectCommission	1.138223	0.721083	0
226.471725	0.795794	city	5	1	0.907495	0.907495	0	1	0	0	CorrectCommission	2.079953	0.718247	0
227.267517	0.795796	city	6	1	0.710461	0.710461	0	1	0	0	CorrectCommission	0.105992	0.710741	0
228.063324	0.795827	city	7	1	0.698731	0.698731	0	1	0	0	CorrectCommission	0.011514	0.699319	0
228.858963	0.795435	city	10	1	0.598642	0.598642	0	1	0	0	CorrectCommission	1.014246	0.685141	0
229.654602	0.795863	city	4	1	0.814801	0.814801	0	1	0	0	CorrectCommission	1.151312	0.669532	1
230.450439	0.795797	city	2	1	0.702326	0.702326	0	1	0	0	CorrectCommission	0.024493	0.653787	1
231.246231	0.795773	city	4	1	0.699391	0.699391	0	1	0	0	CorrectCommission	0.004906	0.639015	1
232.042160	0.796097	city	10	1	0.614970	0.614970	0	1	0	0	CorrectCommission	0.850664	0.625843	1
232.837952	0.795486	city	1	1	0.648447	0.648447	0	1	0	0	CorrectCommission	0.515278	0.614439	1
233.633636	0.795873	city	2	1	0.699020	0.699020	0	1	0	0	CorrectCommission	0.008619	0.604531	1
234.429459	0.795799	city	8	1	0.549179	0.549179	0	1	0	0	CorrectCommission	1.509780	0.595634	1
235.225266	0.795805	city	5	1	0.648823	0.648823	0	1	0	0	CorrectCommission	0.511511	0.587027	1
236.021072	0.795797	city	7	1	0.661379	0.661379	0	1	0	0	CorrectCommission	0.385726	0.578171	1
236.817017	0.796092	city	1	1	0.652228	0.652228	0	1	0	0	CorrectCommission	0.477405	0.568759	1
237.612946	0.795787	city	2	1	0.598652	0.598652	0	1	0	0	CorrectCommission	1.014147	0.558859	1
238.408600	0.795495	city	8	1	0.556114	0.556114	0	1	0	0	CorrectCommission	1.440303	0.548977	1
239.204239	0.795797	city	2	1	0.698391	0.698391	0	1	0	0	CorrectCommission	0.014928	0.540015	1
240.000015	0.795757	city	10	1	0.698514	0.698514	0	1	0	0	CorrectCommission	0.013695	0.533207	1
240.795837	0.795874	city	6	1	0.813389	0.813389	0	1	0	0	CorrectCommission	1.137166	0.529784	1
241.591675	0.795823	city	3	1	0.704987	0.704987	0	1	0	0	CorrectCommission	0.051160	0.530811	1
242.387451	0.795711	mountain	2	0	0.000000	0.699412	1	0	0	0	CorrectOmission	0.004700	0.537127	1
243.183212	0.795812	city	7	1	0.701348	0.701348	0	1	0	0	CorrectCommission	0.014696	0.548992	1
243.979019	0.795808	city	3	1	0.615482	0.615482	0	1	0	0	CorrectCommission	0.845540	0.566069	1
244.774857	0.795875	city	2	1	0.702155	0.702155	0	1	0	0	CorrectCommission	0.022784	0.587521	1
245.570679	0.795766	city	1	1	0.802004	0.802004	0	1	0	0	CorrectCommission	1.023111	0.612212	1
246.366455	0.795773	city	10	1	0.708341	0.708341	0	1	0	0	CorrectCommission	0.084759	0.638673	1
247.162262	0.795847	city	5	1	0.807682	0.807682	0	1	0	0	CorrectCommission	1.079993	0.665507	1
247.958054	0.795733	city	6	1	0.805018	0.805018	0	1	0	0	CorrectCommission	1.053300	0.691481	0
248.753830	0.795826	city	5	1	0.760685	0.760685	0	1	0	0	CorrectCommission	0.609163	0.715767	0
249.549637	0.795779	city	6	1	0.898012	0.898012	0	1	0	0	CorrectCommission	1.984948	0.737963	0
250.345444	0.795847	city	7	1	0.797852	0.797852	0	1	0	0	CorrectCommission	0.981512	0.758007	0
251.141266	0.795803	city	4	1	0.748147	0.748147	0	1	0	0	CorrectCommission	0.483548	0.776206	0
251.937225	0.796119	city	1	1	0.648663	0.648663	0	1	0	0	CorrectCommission	0.513122	0.792887	0
252.733063	0.795532	city	7	1	0.707764	0.707764	0	1	0	0	CorrectCommission	0.078977	0.808311	0
253.528717	0.795805	city	1	1	0.698253	0.698253	0	1	0	0	CorrectCommission	0.016306	0.822548	0
254.324661	0.796066	city	3	1	0.804430	0.804430	0	1	0	0	CorrectCommission	1.047413	0.835380	0
255.120468	0.795538	city	7	1	0.803814	0.803814	0	1	0	0	CorrectCommission	1.041239	0.846301	0
255.916077	0.795699	city	10	1	0.660882	0.660882	0	1	0	0	CorrectCommission	0.390705	0.854656	0
256.711853	0.795864	mountain	9	0	0.000000	0.836545	1	0	0	0	CorrectOmission	1.369154	0.859886	0
257.507843	0.796107	city	6	1	0.996806	0.996806	0	1	0	0	CorrectCommission	2.974705	0.861578	0
258.303650	0.795519	city	2	1	0.807667	0.807667	0	1	0	0	CorrectCommission	1.079836	0.859560	0
259.099274	0.795710	mountain	10	0	0.000000	0.706026	1	0	0	0	CorrectOmission	0.061566	0.854161	0
259.895020	0.795809	city	3	1	0.714215	0.714215	0	1	0	0	CorrectCommission	0.143606	0.845984	0
260.690857	0.795851	city	4	1	0.854564	0.854564	0	1	0	0	CorrectCommission	1.549667	0.835793	0
261.486847	0.796099	city	3	1	0.763100	0.763100	0	1	0	0	CorrectCommission	0.633355	0.824335	0
262.282623	0.795449	city	6	1	0.710164	0.710164	0	1	0	0	CorrectCommission	0.103020	0.812395	0
263.078400	0.796141	city	8	1	0.699243	0.699243	0	1	0	0	CorrectCommission	0.006394	0.800529	0
263.874237	0.795497	city	4	1	0.648271	0.648271	0	1	0	0	CorrectCommission	0.517044	0.789101	0
264.669891	0.795851	city	7	1	0.549287	0.549287	0	1	0	0	CorrectCommission	1.508702	0.778263	0
265.465698	0.795719	city	8	1	0.507139	0.507139	0	1	0	0	CorrectCommission	1.930956	0.768045	0
266.261627	0.796158	city	3	1	0.563568	0.563568	0	1	0	0	CorrectCommission	1.365633	0.758509	0
267.057465	0.795539	city	2	1	0.670872	0.670872	0	1	0	0	CorrectCommission	0.290621	0.749744	0
267.853119	0.795724	city	7	1	0.698433	0.698433	0	1	0	0	CorrectCommission	0.014505	0.741926	0
268.648895	0.795875	city	2	1	0.648609	0.648609	0	1	0	0	CorrectCommission	0.513655	0.735237	0
269.444733	0.795751	city	3	1	0.612394	0.612394	0	1	0	0	CorrectCommission	0.876477	0.729752	0
270.240479	0.795795	city	8	1	0.798059	0.798059	0	1	0	0	CorrectCommission	0.983586	0.725436	0
271.036438	0.796126	city	9	1	0.704383	0.704383	0	1	0	0	CorrectCommission	0.045109	0.722057	0
271.832245	0.795465	city	6	1	0.664919	0.664919	0	1	0	0	CorrectCommission	0.350259	0.719158	0
272.627930	0.795874	city	2	1	0.598858	0.598858	0	1	0	0	CorrectCommission	1.012087	0.716019	0
273.423889	0.796045	city	5	1	0.602370	0.602370	0	1	0	0	CorrectCommission	0.976902	0.711805	0
274.219666	0.795515	city	6	1	0.598766	0.598766	0	1	0	0	CorrectCommission	1.013001	0.705669	0
275.015350	0.795858	city	5	1	0.603389	0.603389	0	1	0	0	CorrectCommission	0.966690	0.696882	0
275.811310	0.796054	city	2	1	0.747960	0.747960	0	1	0	0	CorrectCommission	0.481674	0.684951	0
276.607086	0.795509	city	4	1	0.756003	0.756003	0	1	0	0	CorrectCommission	0.562253	0.669780	1
277.402710	0.795782	mountain	6	0	0.000000	0.806668	1	0	0	0	CorrectOmission	1.069835	0.651687	1
278.198517	0.795820	city	6	1	0.803475	0.803475	0	1	0	0	CorrectCommission	1.037845	0.631405	1
278.994354	0.795808	city	1	1	0.649943	0.649943	0	1	0	0	CorrectCommission	0.500294	0.610045	1
279.790283	0.796086	mountain	10	1	0.648905	0.648905	0	0	1	0	CommissionError	0.510698	0.589016	1
280.586090	0.795508	city	4	1	0.704846	0.704846	0	1	0	0	CorrectCommission	0.049739	0.569856	1
281.381744	0.795788	city	6	1	0.751222	0.751222	0	1	0	0	CorrectCommission	0.514359	0.554074	1
282.177551	0.795827	city	1	1	0.649951	0.649951	0	1	0	0	CorrectCommission	0.500216	0.542931	1
282.973358	0.795789	city	6	1	0.655487	0.655487	0	1	0	0	CorrectCommission	0.444753	0.537350	1
283.769135	0.795785	city	3	1	0.649441	0.649441	0	1	0	0	CorrectCommission	0.505321	0.537823	1
284.564941	0.795808	mountain	10	0	0.000000	0.705474	1	0	0	0	CorrectOmission	0.056030	0.544317	1
285.360748	0.795825	city	8	1	0.762152	0.762152	0	1	0	0	CorrectCommission	0.623858	0.556301	1
286.156555	0.795784	city	6	1	0.758046	0.758046	0	1	0	0	CorrectCommission	0.582721	0.572687	1
286.952362	0.795826	city	4	1	0.748061	0.748061	0	1	0	0	CorrectCommission	0.482682	0.592019	1
287.748169	0.795801	city	7	1	0.716562	0.716562	0	1	0	0	CorrectCommission	0.167116	0.612577	1
288.543976	0.795792	city	9	1	0.648503	0.648503	0	1	0	0	CorrectCommission	0.514725	0.632563	1
289.339905	0.796068	city	1	1	0.648829	0.648829	0	1	0	0	CorrectCommission	0.511455	0.650238	1
290.135712	0.795565	city	4	1	0.948058	0.948058	0	1	0	0	CorrectCommission	2.486322	0.664116	1
290.931396	0.795775	city	5	1	0.748019	0.748019	0	1	0	0	CorrectCommission	0.482270	0.673054	1
291.727173	0.795791	city	2	1	0.715311	0.715311	0	1	0	0	CorrectCommission	0.154590	0.676539	1
292.522980	0.795806	city	10	1	0.759260	0.759260	0	1	0	0	CorrectCommission	0.594884	0.674524	1
293.318787	0.795824	city	2	1	0.898138	0.898138	0	1	0	0	CorrectCommission	1.986209	0.667473	1
294.114594	0.795814	city	10	1	0.752301	0.752301	0	1	0	0	CorrectCommission	0.525163	0.656183	1
294.910400	0.795782	city	1	1	0.699306	0.699306	0	1	0	0	CorrectCommission	0.005756	0.641849	1
295.706238	0.795871	city	4	1	0.752331	0.752331	0	1	0	0	CorrectCommission	0.525463	0.625758	1
296.502014	0.795719	city	5	1	0.654888	0.654888	0	1	0	0	CorrectCommission	0.450752	0.609192	1
297.297791	0.795815	city	4	1	0.748132	0.748132	0	1	0	0	CorrectCommission	0.483397	0.593359	1
298.093597	0.795819	city	10	1	0.748100	0.748100	0	1	0	0	CorrectCommission	0.483080	0.579316	1
298.889374	0.795698	city	7	1	0.797769	0.797769	0	1	0	0	CorrectCommission	0.980682	0.567915	1
299.685150	0.795869	city	5	1	0.748827	0.748827	0	1	0	0	CorrectCommission	0.490356	0.559831	1
300.481140	0.796107	city	9	1	0.755622	0.755622	0	1	0	0	CorrectCommission	0.558437	0.555601	1
301.276947	0.795496	city	2	1	0.698648	0.698648	0	1	0	0	CorrectCommission	0.012348	0.555599	1
302.072571	0.795784	city	3	1	0.748290	0.748290	0	1	0	0	CorrectCommission	0.484982	0.560107	1
302.868378	0.795847	city	9	1	0.797895	0.797895	0	1	0	0	CorrectCommission	0.981938	0.569190	1
303.664185	0.795714	city	2	1	0.753879	0.753879	0	1	0	0	CorrectCommission	0.540972	0.582725	1
304.459930	0.795815	city	1	1	0.748233	0.748233	0	1	0	0	CorrectCommission	0.484410	0.600392	1
305.255920	0.796139	city	2	1	0.720755	0.720755	0	1	0	0	CorrectCommission	0.209125	0.621604	1
306.051758	0.795546	city	6	1	0.755650	0.755650	0	1	0	0	CorrectCommission	0.558716	0.645479	1
306.847382	0.795725	city	4	1	0.747934	0.747934	0	1	0	0	CorrectCommission	0.481418	0.670918	1
307.643188	0.795847	city	9	1	0.753297	0.753297	0	1	0	0	CorrectCommission	0.535143	0.696650	0
308.439026	0.795824	city	5	1	0.564024	0.564024	0	1	0	0	CorrectCommission	1.361057	0.721482	0
309.234955	0.796045	city	7	1	0.711162	0.711162	0	1	0	0	CorrectCommission	0.113020	0.744372	0
310.030884	0.795822	city	2	1	0.598673	0.598673	0	1	0	0	CorrectCommission	1.013938	0.764739	0
310.826538	0.795503	city	6	1	0.602426	0.602426	0	1	0	0	CorrectCommission	0.976340	0.782383	0
311.622162	0.795742	city	5	1	0.556416	0.556416	0	1	0	0	CorrectCommission	1.437284	0.797757	0
312.417938	0.795818	mountain	6	0	0.000000	0.550248	1	0	0	0	CorrectOmission	1.499073	0.811822	0
313.213928	0.796154	mountain	4	0	0.000000	0.583355	1	0	0	0	CorrectOmission	1.167392	0.825882	0
314.009766	0.795511	city	5	1	0.655170	0.655170	0	1	0	0	CorrectCommission	0.447928	0.841316	0
314.805420	0.795820	city	7	1	0.765124	0.765124	0	1	0	0	CorrectCommission	0.653633	0.859276	0
315.601227	0.795786	city	10	1	0.699958	0.699958	0	1	0	0	CorrectCommission	0.000773	0.880280	0
316.397003	0.795785	city	4	1	0.698558	0.698558	0	1	0	0	CorrectCommission	0.013255	0.904035	0
317.192780	0.795738	city	3	1	0.648676	0.648676	0	1	0	0	CorrectCommission	0.512983	0.929284	0
317.988586	0.795877	city	5	1	0.648851	0.648851	0	1	0	0	CorrectCommission	0.511232	0.953829	0
318.784424	0.795779	city	3	1	0.598858	0.598858	0	1	0	0	CorrectCommission	1.012086	0.974880	0
319.580353	0.796107	city	9	1	0.518738	0.518738	0	1	0	0	CorrectCommission	1.814756	0.989358	0
320.376160	0.795512	city	4	1	0.466550	0.466550	0	1	0	0	CorrectCommission	2.337585	0.994370	0
321.171967	0.796093	city	3	1	0.549057	0.549057	0	1	0	0	CorrectCommission	1.511005	0.987716	0
321.967804	0.795547	city	9	1	0.552809	0.552809	0	1	0	0	CorrectCommission	1.473416	0.968316	0
322.763580	0.796036	city	2	1	0.549836	0.549836	0	1	0	0	CorrectCommission	1.503200	0.936363	0
323.559387	0.795570	city	1	1	0.557080	0.557080	0	1	0	0	CorrectCommission	1.430631	0.893369	0
324.355072	0.795790	city	8	1	0.649863	0.649863	0	1	0	0	CorrectCommission	0.501091	0.842046	0
325.150818	0.795706	city	5	1	0.651428	0.651428	0	1	0	0	CorrectCommission	0.485420	0.786051	0
325.946594	0.795848	city	7	1	0.706022	0.706022	0	1	0	0	CorrectCommission	0.061527	0.729483	0
326.742554	0.796061	city	3	1	0.648951	0.648951	0	1	0	0	CorrectCommission	0.510237	0.676577	1
327.538361	0.795584	city	9	1	0.651615	0.651615	0	1	0	0	CorrectCommission	0.483546	0.631181	1
328.334076	0.795817	city	4	1	0.648787	0.648787	0	1	0	0	CorrectCommission	0.511880	0.596493	1
329.129852	0.795747	city	2	1	0.698537	0.698537	0	1	0	0	CorrectCommission	0.013462	0.574757	1
329.925659	0.795853	mountain	1	1	0.655181	0.655181	0	0	1	0	CommissionError	0.447821	0.567125	1
330.721466	0.795802	city	6	1	0.698415	0.698415	0	1	0	0	CorrectCommission	0.014685	0.573607	1
331.517242	0.795716	city	2	1	0.661000	0.661000	0	1	0	0	CorrectCommission	0.389520	0.593093	1
332.312988	0.795788	city	9	1	0.760292	0.760292	0	1	0	0	CorrectCommission	0.605220	0.623430	1
333.108795	0.795856	city	4	1	0.708229	0.708229	0	1	0	0	CorrectCommission	0.083640	0.661659	1
333.904663	0.795839	city	6	1	0.609774	0.609774	0	1	0	0	CorrectCommission	0.902717	0.704280	0
334.700470	0.795770	city	2	1	0.605964	0.605964	0	1	0	0	CorrectCommission	0.940894	0.747463	0
335.496246	0.795795	city	9	1	0.608351	0.608351	0	1	0	0	CorrectCommission	0.916978	0.787457	0
336.292023	0.795779	city	4	1	0.748124	0.748124	0	1	0	0	CorrectCommission	0.483316	0.820849	0
337.087799	0.795770	mountain	4	0	0.000000	0.823636	1	0	0	0	CorrectOmission	1.239824	0.844877	0
337.883606	0.795810	mountain	1	0	0.000000	0.853145	1	0	0	0	CorrectOmission	1.535457	0.857608	0
338.679565	0.796156	mountain	7	0	0.000000	0.854909	1	0	0	0	CorrectOmission	1.553127	0.858212	0
339.475372	0.795455	city	8	1	0.847185	0.847185	0	1	0	0	CorrectCommission	1.475742	0.846964	0
340.271057	0.795872	city	2	1	0.848230	0.848230	0	1	0	0	CorrectCommission	1.486214	0.825159	0
341.066895	0.795820	city	9	1	0.798947	0.798947	0	1	0	0	CorrectCommission	0.992479	0.794949	0
341.862823	0.796068	city	5	1	0.750165	0.750165	0	1	0	0	CorrectCommission	0.503769	0.759112	0
342.658600	0.795466	city	2	1	0.698566	0.698566	0	1	0	0	CorrectCommission	0.013176	0.720664	0
343.454254	0.795827	city	1	1	0.702650	0.702650	0	1	0	0	CorrectCommission	0.027746	0.682568	1
344.250061	0.795803	city	7	1	0.698913	0.698913	0	1	0	0	CorrectCommission	0.009699	0.647415	1
345.045868	0.795797	city	9	1	0.699230	0.699230	0	1	0	0	CorrectCommission	0.006523	0.617342	1
345.841675	0.795798	city	3	1	0.898082	0.898082	0	1	0	0	CorrectCommission	1.985646	0.593796	1
346.637451	0.795758	city	8	1	0.763555	0.763555	0	1	0	0	CorrectCommission	0.637908	0.577644	1
347.433228	0.795840	city	2	1	0.649895	0.649895	0	1	0	0	CorrectCommission	0.500779	0.569331	1
348.229065	0.795820	city	3	1	0.698353	0.698353	0	1	0	0	CorrectCommission	0.015309	0.568931	1
349.024872	0.795795	city	9	1	0.700190	0.700190	0	1	0	0	CorrectCommission	0.003094	0.576246	1
349.820831	0.796104	mountain	5	0	0.000000	0.755766	1	0	0	0	CorrectOmission	0.559880	0.590923	1
350.616608	0.795440	city	1	1	0.797567	0.797567	0	1	0	0	CorrectCommission	0.978650	0.612507	1
351.412231	0.795848	city	8	1	0.758075	0.758075	0	1	0	0	CorrectCommission	0.583006	0.640441	1
352.208069	0.795829	city	2	1	0.748010	0.748010	0	1	0	0	CorrectCommission	0.482174	0.674108	1
353.003876	0.795753	city	3	1	0.748123	0.748123	0	1	0	0	CorrectCommission	0.483310	0.712734	0
353.799652	0.795808	city	8	1	0.805146	0.805146	0	1	0	0	CorrectCommission	1.054587	0.755433	0
354.595581	0.796078	city	4	1	0.801459	0.801459	0	1	0	0	CorrectCommission	1.017647	0.801096	0
355.391418	0.795544	city	7	1	0.713727	0.713727	0	1	0	0	CorrectCommission	0.138720	0.848452	0
356.187103	0.795848	city	4	1	0.663918	0.663918	0	1	0	0	CorrectCommission	0.360292	0.896137	0
356.982880	0.795724	city	7	1	0.606204	0.606204	0	1	0	0	CorrectCommission	0.938492	0.942730	0
357.778687	0.795843	city	1	1	0.599724	0.599724	0	1	0	0	CorrectCommission	1.003402	0.986831	0
358.574463	0.795765	city	4	1	0.563958	0.563958	0	1	0	0	CorrectCommission	1.361720	1.027231	0
359.370422	0.796140	mountain	8	0	0.000000	0.859136	1	0	0	0	CorrectOmission	1.595473	1.062953	0
360.166260	0.795527	city	6	1	1.054341	1.054341	0	1	0	0	CorrectCommission	3.551107	1.093286	0
360.962067	0.796068	city	8	1	0.718658	0.718658	0	1	0	0	CorrectCommission	0.188114	1.117679	0
361.757996	0.795793	city	2	1	0.611944	0.611944	0	1	0	0	CorrectCommission	0.880986	1.135891	0
362.553650	0.795507	city	8	1	0.698300	0.698300	0	1	0	0	CorrectCommission	0.015839	1.147586	0
363.349304	0.795826	city	7	1	0.599782	0.599782	0	1	0	0	CorrectCommission	1.002822	1.152363	0
364.145111	0.795807	city	4	1	0.651657	0.651657	0	1	0	0	CorrectCommission	0.483122	1.149700	0
364.940918	0.795804	city	5	1	0.550278	0.550278	0	1	0	0	CorrectCommission	1.498771	1.139107	0
365.736725	0.795808	city	3	1	0.505426	0.505426	0	1	0	0	CorrectCommission	1.948120	1.120145	0
366.532532	0.795792	city	9	1	0.516079	0.516079	0	1	0	0	CorrectCommission	1.841395	1.092728	0
367.328461	0.796086	mountain	9	1	0.507085	0.507085	0	0	1	0	CommissionError	1.931492	1.057266	0
368.124268	0.795518	city	3	1	0.598497	0.598497	0	1	0	0	CorrectCommission	1.015702	1.014766	0
368.919922	0.795769	city	5	1	0.549774	0.549774	0	1	0	0	CorrectCommission	1.503821	0.966963	0
369.715729	0.795838	city	7	1	0.601107	0.601107	0	1	0	0	CorrectCommission	0.989547	0.916089	0
370.511536	0.795808	city	10	1	0.699162	0.699162	0	1	0	0	CorrectCommission	0.007199	0.864743	0
371.307343	0.795783	city	9	1	0.698486	0.698486	0	1	0	0	CorrectCommission	0.013971	0.815616	0
372.103119	0.795781	city	8	1	0.605772	0.605772	0	1	0	0	CorrectCommission	0.942812	0.771152	0
372.898926	0.795827	city	1	1	0.650110	0.650110	0	1	0	0	CorrectCommission	0.498625	0.733257	0
373.694733	0.795803	city	9	1	0.648637	0.648637	0	1	0	0	CorrectCommission	0.513376	0.703186	0
374.490540	0.795800	city	6	1	0.655497	0.655497	0	1	0	0	CorrectCommission	0.444653	0.681367	1
375.286346	0.795821	mountain	6	0	0.000000	0.722865	1	0	0	0	CorrectOmission	0.230267	0.667427	1
376.082153	0.795749	city	7	1	0.754744	0.754744	0	1	0	0	CorrectCommission	0.549637	0.660333	1
376.878052	0.796102	city	4	1	0.655134	0.655134	0	1	0	0	CorrectCommission	0.448287	0.658535	1
377.673889	0.795541	city	1	1	0.599257	0.599257	0	1	0	0	CorrectCommission	1.008086	0.660203	1
378.469543	0.795778	city	4	1	0.599495	0.599495	0	1	0	0	CorrectCommission	1.005698	0.663562	1
379.265350	0.795810	city	6	1	0.616128	0.616128	0	1	0	0	CorrectCommission	0.839061	0.667035	1
380.061127	0.795758	city	1	1	0.599570	0.599570	0	1	0	0	CorrectCommission	1.004949	0.669425	1
380.857086	0.796137	city	4	1	0.652036	0.652036	0	1	0	0	CorrectCommission	0.479326	0.669971	1
381.652863	0.795460	city	2	1	0.598661	0.598661	0	1	0	0	CorrectCommission	1.014053	0.668390	1
382.448517	0.795858	city	7	1	0.648623	0.648623	0	1	0	0	CorrectCommission	0.513514	0.664695	1
383.244385	0.795879	city	5	1	0.704421	0.704421	0	1	0	0	CorrectCommission	0.045489	0.659187	1
384.040192	0.795723	city	10	1	0.601080	0.601080	0	1	0	0	CorrectCommission	0.989824	0.652343	1
384.835968	0.795818	city	3	1	0.615140	0.615140	0	1	0	0	CorrectCommission	0.848963	0.644667	1
385.631775	0.795768	city	1	1	0.705204	0.705204	0	1	0	0	CorrectCommission	0.053333	0.636711	1
386.427551	0.795797	city	9	1	0.648582	0.648582	0	1	0	0	CorrectCommission	0.513929	0.629013	1
387.223358	0.795835	city	3	1	0.562508	0.562508	0	1	0	0	CorrectCommission	1.376253	0.622009	1
388.019196	0.795806	city	6	1	0.656188	0.656188	0	1	0	0	CorrectCommission	0.437725	0.616098	1
388.814972	0.795798	city	10	1	0.654198	0.654198	0	1	0	0	CorrectCommission	0.457663	0.611695	1
389.610779	0.795777	city	5	1	0.615737	0.615737	0	1	0	0	CorrectCommission	0.842983	0.609070	1
390.406708	0.796071	city	1	1	0.648835	0.648835	0	1	0	0	CorrectCommission	0.511396	0.608361	1
391.202637	0.795823	city	9	1	0.797460	0.797460	0	1	0	0	CorrectCommission	0.977586	0.609615	1
391.998291	0.795508	mountain	5	1	0.701917	0.701917	0	0	1	0	CommissionError	0.020397	0.612763	1
392.793976	0.795845	city	10	1	0.748117	0.748117	0	1	0	0	CorrectCommission	0.483242	0.617574	1
393.589783	0.795782	mountain	8	0	0.000000	0.708831	1	0	0	0	CorrectOmission	0.089667	0.623686	1
394.385712	0.796068	mountain	9	0	0.000000	0.666107	1	0	0	0	CorrectOmission	0.338356	0.630719	1
395.181519	0.795523	city	10	1	0.701992	0.701992	0	1	0	0	CorrectCommission	0.021147	0.638323	1
395.977325	0.796096	city	7	1	0.898531	0.898531	0	1	0	0	CorrectCommission	1.990152	0.646408	1
396.773132	0.795541	mountain	10	0	0.000000	0.897469	1	0	0	0	CorrectOmission	1.979505	0.655010	1
397.568817	0.795788	city	7	1	0.797780	0.797780	0	1	0	0	CorrectCommission	0.980792	0.664474	1
398.364563	0.795730	city	6	1	0.698443	0.698443	0	1	0	0	CorrectCommission	0.014400	0.675421	1
399.160370	0.795843	city	1	1	0.700833	0.700833	0	1	0	0	CorrectCommission	0.009537	0.688542	0
399.956329	0.796096	city	9	1	0.757842	0.757842	0	1	0	0	CorrectCommission	0.580674	0.704417	0
400.752136	0.795542	city	7	1	0.698025	0.698025	0	1	0	0	CorrectCommission	0.018593	0.723367	0
401.547760	0.795713	city	9	1	0.649059	0.649059	0	1	0	0	CorrectCommission	0.509147	0.745351	0
402.343658	0.796058	city	8	1	0.666690	0.666690	0	1	0	0	CorrectCommission	0.332514	0.769849	0
403.139465	0.795576	city	4	1	0.797647	0.797647	0	1	0	0	CorrectCommission	0.979458	0.795986	0
403.935181	0.795838	mountain	7	0	0.000000	0.869290	1	0	0	0	CorrectOmission	1.697204	0.822506	0
404.730988	0.795775	city	4	1	0.847541	0.847541	0	1	0	0	CorrectCommission	1.479311	0.847970	0
405.526825	0.795907	city	2	1	0.698320	0.698320	0	1	0	0	CorrectCommission	0.015634	0.870942	0
406.322632	0.795671	city	7	1	0.747954	0.747954	0	1	0	0	CorrectCommission	0.481617	0.890124	0
407.118378	0.795847	city	6	1	0.997575	0.997575	0	1	0	0	CorrectCommission	2.982407	0.904360	0
407.914185	0.795783	city	3	1	0.650110	0.650110	0	1	0	0	CorrectCommission	0.498625	0.912705	0
408.709961	0.795763	city	2	1	0.614095	0.614095	0	1	0	0	CorrectCommission	0.859436	0.914650	0
409.505737	0.795810	city	7	1	0.705426	0.705426	0	1	0	0	CorrectCommission	0.055556	0.909919	0
410.301544	0.795785	city	8	1	0.698585	0.698585	0	1	0	0	CorrectCommission	0.012980	0.898545	0
411.097351	0.795801	city	4	1	0.950490	0.950490	0	1	0	0	CorrectCommission	2.510688	0.880847	0
411.893311	0.796157	city	10	1	0.819259	0.819259	0	1	0	0	CorrectCommission	1.195970	0.857381	0
412.689270	0.795766	city	1	1	0.663981	0.663981	0	1	0	0	CorrectCommission	0.359655	0.829218	0
413.484924	0.795547	city	8	1	0.599822	0.599822	0	1	0	0	CorrectCommission	1.002427	0.797697	0
414.280609	0.795792	mountain	9	1	0.549239	0.549239	0	0	1	0	CommissionError	1.509179	0.764475	0
415.076385	0.795789	city	1	1	0.598892	0.598892	0	1	0	0	CorrectCommission	1.011737	0.731464	0
415.872192	0.795773	city	5	1	0.652537	0.652537	0	1	0	0	CorrectCommission	0.474308	0.700719	0
416.667999	0.795880	city	6	1	0.704942	0.704942	0	1	0	0	CorrectCommission	0.050702	0.674206	1
417.463837	0.795779	city	4	1	0.698361	0.698361	0	1	0	0	CorrectCommission	0.015230	0.653565	1
418.259613	0.795799	city	3	1	0.649453	0.649453	0	1	0	0	CorrectCommission	0.505207	0.639899	1
419.055573	0.796104	city	10	1	0.701670	0.701670	0	1	0	0	CorrectCommission	0.017927	0.633625	1
419.851379	0.795510	mountain	4	1	0.598614	0.598614	0	0	1	0	CommissionError	1.014529	0.634456	1
420.647034	0.795791	mountain	1	0	0.000000	0.639375	1	0	0	0	CorrectOmission	0.606171	0.641310	1
421.442810	0.795775	city	10	1	0.698637	0.698637	0	1	0	0	CorrectCommission	0.012458	0.652528	1
422.238617	0.795853	city	3	1	0.651085	0.651085	0	1	0	0	CorrectCommission	0.488852	0.666032	1
423.034454	0.795778	city	4	1	0.802734	0.802734	0	1	0	0	CorrectCommission	1.030418	0.679603	1
423.830231	0.795779	city	9	1	0.603746	0.603746	0	1	0	0	CorrectCommission	0.963107	0.691154	0
424.626007	0.795816	city	2	1	0.549087	0.549087	0	1	0	0	CorrectCommission	1.510705	0.698890	0
425.421844	0.795807	mountain	2	0	0.000000	0.595334	1	0	0	0	CorrectOmission	1.047391	0.701646	0
426.217621	0.795787	city	9	1	0.648787	0.648787	0	1	0	0	CorrectCommission	0.511872	0.698929	0
427.013550	0.796078	mountain	2	0	0.000000	0.615750	1	0	0	0	CorrectOmission	0.842855	0.690968	0
427.809357	0.795500	city	7	1	0.598479	0.598479	0	1	0	0	CorrectCommission	1.015877	0.678607	1
428.605011	0.795824	city	1	1	0.699234	0.699234	0	1	0	0	CorrectCommission	0.006476	0.663068	1
429.400970	0.796115	city	10	1	0.608997	0.608997	0	1	0	0	CorrectCommission	0.910510	0.645917	1
430.196808	0.795509	city	9	1	0.650977	0.650977	0	1	0	0	CorrectCommission	0.489936	0.628774	1
430.992432	0.795740	city	6	1	0.665448	0.665448	0	1	0	0	CorrectCommission	0.344960	0.613138	1
431.788239	0.795876	city	10	1	0.648985	0.648985	0	1	0	0	CorrectCommission	0.509894	0.600199	1
432.584198	0.796072	city	5	1	0.797754	0.797754	0	1	0	0	CorrectCommission	0.980530	0.590806	1
433.380127	0.795796	city	10	1	0.702082	0.702082	0	1	0	0	CorrectCommission	0.022055	0.585398	1
434.175812	0.795528	city	5	1	0.653289	0.653289	0	1	0	0	CorrectCommission	0.466777	0.584095	1
434.971466	0.795804	city	6	1	0.758855	0.758855	0	1	0	0	CorrectCommission	0.590825	0.586631	1
435.767273	0.795792	city	10	1	0.748201	0.748201	0	1	0	0	CorrectCommission	0.484087	0.592464	1
436.563049	0.795809	city	7	1	0.748203	0.748203	0	1	0	0	CorrectCommission	0.484113	0.600943	1
437.358856	0.795776	city	3	1	0.658323	0.658323	0	1	0	0	CorrectCommission	0.416339	0.611294	1
438.154785	0.796111	city	9	1	0.599687	0.599687	0	1	0	0	CorrectCommission	1.003778	0.622724	1
438.950623	0.795547	city	4	1	0.556179	0.556179	0	1	0	0	CorrectCommission	1.439653	0.634480	1
439.746277	0.795768	city	3	1	0.653446	0.653446	0	1	0	0	CorrectCommission	0.465199	0.645850	1
440.542206	0.796098	city	10	1	0.648583	0.648583	0	1	0	0	CorrectCommission	0.513919	0.656204	1
441.338165	0.795770	city	3	1	0.698807	0.698807	0	1	0	0	CorrectCommission	0.010761	0.664921	1
442.133789	0.795535	city	7	1	0.751140	0.751140	0	1	0	0	CorrectCommission	0.513536	0.671416	1
442.929626	0.796102	city	1	1	0.797779	0.797779	0	1	0	0	CorrectCommission	0.980775	0.675145	1
443.725403	0.795484	city	2	1	0.748445	0.748445	0	1	0	0	CorrectCommission	0.486538	0.675666	1
444.521057	0.795819	city	10	1	0.748394	0.748394	0	1	0	0	CorrectCommission	0.486025	0.672717	1
445.316895	0.795809	city	7	1	0.909677	0.909677	0	1	0	0	CorrectCommission	2.101813	0.666265	1
446.112701	0.795823	city	2	1	0.816151	0.816151	0	1	0	0	CorrectCommission	1.164836	0.656507	1
446.908508	0.795788	city	4	1	0.704420	0.704420	0	1	0	0	CorrectCommission	0.045473	0.644022	1
447.704285	0.795787	city	7	1	0.748120	0.748120	0	1	0	0	CorrectCommission	0.483277	0.629700	1
448.500214	0.796044	city	5	1	0.660515	0.660515	0	1	0	0	CorrectCommission	0.394381	0.614571	1
449.295959	0.795486	city	8	1	0.762843	0.762843	0	1	0	0	CorrectCommission	0.630774	0.599834	1
450.091644	0.795867	city	3	1	0.750611	0.750611	0	1	0	0	CorrectCommission	0.508235	0.586642	1
450.887634	0.796093	city	4	1	0.699132	0.699132	0	1	0	0	CorrectCommission	0.007502	0.576057	1
451.683594	0.795814	city	8	1	0.598522	0.598522	0	1	0	0	CorrectCommission	1.015446	0.568980	1
452.479218	0.795483	city	7	1	0.617451	0.617451	0	1	0	0	CorrectCommission	0.825806	0.565965	1
453.274872	0.795783	city	6	1	0.710572	0.710572	0	1	0	0	CorrectCommission	0.107105	0.567358	1
454.070679	0.795841	city	10	1	0.658321	0.658321	0	1	0	0	CorrectCommission	0.416365	0.573182	1
454.866638	0.796074	city	9	1	0.748264	0.748264	0	1	0	0	CorrectCommission	0.484722	0.583245	1
455.662445	0.795535	city	10	1	0.747695	0.747695	0	1	0	0	CorrectCommission	0.479022	0.597048	1
456.458099	0.795787	city	1	1	0.655298	0.655298	0	1	0	0	CorrectCommission	0.446642	0.613971	1
457.253906	0.795811	city	2	1	0.648664	0.648664	0	1	0	0	CorrectCommission	0.513104	0.633325	1
458.049713	0.795802	city	7	1	0.598773	0.598773	0	1	0	0	CorrectCommission	1.012936	0.654403	1
458.845642	0.796096	city	10	1	0.599787	0.599787	0	1	0	0	CorrectCommission	1.002771	0.676587	1
459.641418	0.795436	city	9	1	0.747811	0.747811	0	1	0	0	CorrectCommission	0.480178	0.699305	0
460.437073	0.795894	city	2	1	0.819595	0.819595	0	1	0	0	CorrectCommission	1.199343	0.722110	0
461.232910	0.795741	mountain	1	1	0.713270	0.713270	0	0	1	0	CommissionError	0.134140	0.744541	0
462.028687	0.795831	city	2	1	0.748090	0.748090	0	1	0	0	CorrectCommission	0.482976	0.766317	0
462.824463	0.795748	city	4	1	0.810594	0.810594	0	1	0	0	CorrectCommission	1.109161	0.786985	0
463.620270	0.795860	city	7	1	0.748268	0.748268	0	1	0	0	CorrectCommission	0.484761	0.806142	0
464.416138	0.795839	city	3	1	0.858264	0.858264	0	1	0	0	CorrectCommission	1.586740	0.823424	0
465.211914	0.795755	city	1	1	0.812987	0.812987	0	1	0	0	CorrectCommission	1.133137	0.838415	0
466.007721	0.795837	city	2	1	0.698425	0.698425	0	1	0	0	CorrectCommission	0.014583	0.850786	0
466.803528	0.795798	city	8	1	0.601378	0.601378	0	1	0	0	CorrectCommission	0.986837	0.860326	0
467.599335	0.795800	mountain	3	0	0.000000	0.737262	1	0	0	0	CorrectOmission	0.374503	0.866848	0
468.395111	0.795775	city	6	1	0.866605	0.866605	0	1	0	0	CorrectCommission	1.670298	0.870396	0
469.190887	0.795747	city	3	1	0.749930	0.749930	0	1	0	0	CorrectCommission	0.501409	0.871025	0
469.986816	0.796120	city	4	1	0.996808	0.996808	0	1	0	0	CorrectCommission	2.974720	0.869052	0
470.782654	0.795535	city	8	1	0.715160	0.715160	0	1	0	0	CorrectCommission	0.153073	0.864673	0
471.578308	0.795806	city	6	1	0.752365	0.752365	0	1	0	0	CorrectCommission	0.525803	0.858243	0
472.374115	0.795764	mountain	8	0	0.000000	0.706705	1	0	0	0	CorrectOmission	0.068366	0.849897	0
473.169861	0.795780	city	2	1	0.698429	0.698429	0	1	0	0	CorrectCommission	0.014548	0.839619	0
473.965698	0.795874	city	9	1	0.847784	0.847784	0	1	0	0	CorrectCommission	1.481750	0.827309	0
474.761536	0.795764	city	10	1	0.751807	0.751807	0	1	0	0	CorrectCommission	0.520210	0.812693	0
475.557343	0.795856	city	7	1	0.852892	0.852892	0	1	0	0	CorrectCommission	1.532916	0.795595	0
476.353149	0.795763	city	10	1	0.748103	0.748103	0	1	0	0	CorrectCommission	0.483103	0.775867	0
477.148926	0.795827	city	4	1	0.947832	0.947832	0	1	0	0	CorrectCommission	2.484058	0.753694	0
477.944885	0.796083	city	5	1	0.705224	0.705224	0	1	0	0	CorrectCommission	0.053526	0.729373	0
478.740662	0.795465	mountain	6	1	0.598556	0.598556	0	0	1	0	CommissionError	1.015110	0.703668	0
479.536316	0.795864	mountain	2	0	0.000000	0.674529	1	0	0	0	CorrectOmission	0.253985	0.677384	1
480.332123	0.795715	city	2	1	0.764791	0.764791	0	1	0	0	CorrectCommission	0.650298	0.651486	1
481.127899	0.795819	city	1	1	0.700992	0.700992	0	1	0	0	CorrectCommission	0.011129	0.626788	1
481.923676	0.795788	city	4	1	0.748817	0.748817	0	1	0	0	CorrectCommission	0.490262	0.604003	1
482.719482	0.795819	city	2	1	0.701658	0.701658	0	1	0	0	CorrectCommission	0.017809	0.583490	1
483.515472	0.796115	mountain	10	0	0.000000	0.650497	1	0	0	0	CorrectOmission	0.494748	0.565416	1
484.311432	0.795821	city	3	1	0.698002	0.698002	0	1	0	0	CorrectCommission	0.018823	0.549562	1
485.107117	0.795537	city	6	1	0.946844	0.946844	0	1	0	0	CorrectCommission	2.474166	0.535597	1
485.902740	0.795725	city	7	1	0.797867	0.797867	0	1	0	0	CorrectCommission	0.981661	0.522874	1
486.698486	0.795789	mountain	7	0	0.000000	0.648890	1	0	0	0	CorrectOmission	0.510845	0.510845	1
