onset	duration	trial_type	image_type	Press	ReactionTime	ReactionTime_Interpolated	CorrectOmission	CorrectCommission	CommissionError	OmissionError	response_type	nonsmoothVarianceTimeCourse	VarianceTimeCourse	In_the_Zone
8.421624	0.795828	city	4	1	0.698985	0.698985	0	1	0	0	CorrectCommission	0.678876	0.678876	1
9.217444	0.795812	city	8	1	0.567688	0.567688	0	1	0	0	CorrectCommission	1.574908	0.757486	1
10.013227	0.795751	city	4	1	0.566213	0.566213	0	1	0	0	CorrectCommission	1.584973	0.833961	0
10.809012	0.795821	city	8	1	0.553317	0.553317	0	1	0	0	CorrectCommission	1.672982	0.906288	0
11.604841	0.795837	mountain	6	0	0.000000	0.715029	1	0	0	0	CorrectOmission	0.569387	0.972672	0
12.400796	0.796072	city	3	1	0.798385	0.798385	0	1	0	0	CorrectCommission	0.000525	1.031619	0
13.196588	0.795511	city	10	1	0.550423	0.550423	0	1	0	0	CorrectCommission	1.692730	1.081928	0
13.992247	0.795808	city	8	1	0.549906	0.549906	0	1	0	0	CorrectCommission	1.696262	1.122675	0
14.788029	0.795757	city	2	1	0.655992	0.655992	0	1	0	0	CorrectCommission	0.972279	1.153334	0
15.583801	0.795788	city	7	1	0.549871	0.549871	0	1	0	0	CorrectCommission	1.696496	1.173763	0
16.379622	0.795854	city	6	1	0.598790	0.598790	0	1	0	0	CorrectCommission	1.362655	1.184131	0
17.175440	0.795783	city	5	1	0.617285	0.617285	0	1	0	0	CorrectCommission	1.236432	1.184981	0
17.971256	0.795849	city	10	1	0.598982	0.598982	0	1	0	0	CorrectCommission	1.361342	1.177160	0
18.767075	0.795787	city	9	1	0.598951	0.598951	0	1	0	0	CorrectCommission	1.361555	1.161795	0
19.562870	0.795805	city	8	1	0.649670	0.649670	0	1	0	0	CorrectCommission	1.015422	1.140232	0
20.358665	0.795785	city	5	1	0.599627	0.599627	0	1	0	0	CorrectCommission	1.356939	1.113990	0
21.154442	0.795767	city	2	1	0.599483	0.599483	0	1	0	0	CorrectCommission	1.357922	1.084631	0
21.950233	0.795816	city	4	1	0.699245	0.699245	0	1	0	0	CorrectCommission	0.677101	1.053646	0
22.746052	0.795820	mountain	9	1	0.648548	0.648548	0	0	1	0	CommissionError	1.023079	1.022410	0
23.541861	0.795797	mountain	2	0	0.000000	0.673279	1	0	0	0	CorrectOmission	0.854306	0.992072	0
24.337646	0.795777	city	4	1	0.698549	0.698549	0	1	0	0	CorrectCommission	0.681855	0.963513	0
25.133465	0.795858	city	2	1	0.649468	0.649468	0	1	0	0	CorrectCommission	1.016800	0.937329	0
25.929276	0.795762	city	4	1	0.712178	0.712178	0	1	0	0	CorrectCommission	0.588843	0.913756	0
26.725069	0.795825	city	9	1	0.648804	0.648804	0	1	0	0	CorrectCommission	1.021333	0.892832	0
27.521021	0.796080	city	10	1	0.608199	0.608199	0	1	0	0	CorrectCommission	1.298442	0.874375	0
28.316814	0.795506	city	9	1	0.747733	0.747733	0	1	0	0	CorrectCommission	0.346196	0.858085	0
29.112463	0.795793	city	4	1	0.699506	0.699506	0	1	0	0	CorrectCommission	0.675322	0.843719	0
29.908276	0.795832	city	5	1	0.649055	0.649055	0	1	0	0	CorrectCommission	1.019620	0.831050	0
30.704084	0.795785	city	2	1	0.664819	0.664819	0	1	0	0	CorrectCommission	0.912041	0.819900	0
31.499859	0.795765	city	6	1	0.600130	0.600130	0	1	0	0	CorrectCommission	1.353508	0.810194	0
32.295647	0.795807	mountain	1	0	0.000000	0.655539	1	0	0	0	CorrectOmission	0.975369	0.801967	0
33.091457	0.795817	city	4	1	0.748883	0.748883	0	1	0	0	CorrectCommission	0.338347	0.795289	0
33.887291	0.795846	city	9	1	0.797998	0.797998	0	1	0	0	CorrectCommission	0.003164	0.790246	0
34.683247	0.796067	city	3	1	0.699296	0.699296	0	1	0	0	CorrectCommission	0.676752	0.786917	1
35.479038	0.795516	city	2	1	0.661225	0.661225	0	1	0	0	CorrectCommission	0.936566	0.785308	1
36.274700	0.795805	city	9	1	0.649332	0.649332	0	1	0	0	CorrectCommission	1.017729	0.785430	1
37.070492	0.795784	city	1	1	0.648845	0.648845	0	1	0	0	CorrectCommission	1.021056	0.787298	1
37.866295	0.795822	city	9	1	0.700465	0.700465	0	1	0	0	CorrectCommission	0.668780	0.790922	0
38.662239	0.796065	city	5	1	0.698320	0.698320	0	1	0	0	CorrectCommission	0.683413	0.796384	0
39.458031	0.795519	city	8	1	0.648592	0.648592	0	1	0	0	CorrectCommission	1.022779	0.803765	0
40.253689	0.795794	city	6	1	0.607091	0.607091	0	1	0	0	CorrectCommission	1.306004	0.813108	0
41.049500	0.795828	city	2	1	0.798600	0.798600	0	1	0	0	CorrectCommission	0.000943	0.824395	0
41.845310	0.795795	city	4	1	0.648743	0.648743	0	1	0	0	CorrectCommission	1.021750	0.837441	0
42.641113	0.795806	city	9	1	0.898774	0.898774	0	1	0	0	CorrectCommission	0.684573	0.851736	0
43.437054	0.796078	mountain	9	0	0.000000	0.825816	1	0	0	0	CorrectOmission	0.186678	0.866558	0
44.232815	0.795444	city	7	1	0.664711	0.664711	0	1	0	0	CorrectCommission	0.912777	0.880904	0
45.028435	0.795797	city	6	1	0.650299	0.650299	0	1	0	0	CorrectCommission	1.011133	0.893501	0
45.824238	0.795806	city	3	1	0.599685	0.599685	0	1	0	0	CorrectCommission	1.356542	0.903040	0
46.620071	0.795862	city	6	1	0.656823	0.656823	0	1	0	0	CorrectCommission	0.966608	0.908275	0
47.415874	0.795743	city	10	1	0.550844	0.550844	0	1	0	0	CorrectCommission	1.689855	0.908210	0
48.211689	0.795890	mountain	3	0	0.000000	0.649779	1	0	0	0	CorrectOmission	1.014678	0.902190	0
49.007668	0.796065	city	4	1	0.750161	0.750161	0	1	0	0	CorrectCommission	0.329626	0.890071	0
49.803463	0.795522	city	5	1	0.648524	0.648524	0	1	0	0	CorrectCommission	1.023248	0.872240	0
50.599110	0.795769	city	2	1	0.649355	0.649355	0	1	0	0	CorrectCommission	1.017573	0.849646	0
51.394882	0.795777	city	1	1	0.559015	0.559015	0	1	0	0	CorrectCommission	1.634094	0.823726	0
52.190681	0.795822	city	7	1	0.649424	0.649424	0	1	0	0	CorrectCommission	1.017102	0.796237	0
52.986481	0.795778	mountain	8	0	0.000000	0.804845	1	0	0	0	CorrectOmission	0.043561	0.769187	1
53.782276	0.795812	city	10	1	0.897258	0.897258	0	1	0	0	CorrectCommission	0.674229	0.744641	1
54.578068	0.795768	city	7	1	0.798643	0.798643	0	1	0	0	CorrectCommission	0.001238	0.724501	1
55.373890	0.795879	city	6	1	0.847838	0.847838	0	1	0	0	CorrectCommission	0.336965	0.710399	1
56.169868	0.796082	city	1	1	1.047479	1.047479	0	1	0	0	CorrectCommission	1.699407	0.703519	1
56.965672	0.795521	city	3	1	0.798280	0.798280	0	1	0	0	CorrectCommission	0.001239	0.704465	1
57.761318	0.795770	city	4	1	0.748150	0.748150	0	1	0	0	CorrectCommission	0.343352	0.713355	1
58.557106	0.795810	city	9	1	0.660980	0.660980	0	1	0	0	CorrectCommission	0.938241	0.729723	1
59.353062	0.796101	mountain	7	0	0.000000	0.687179	1	0	0	0	CorrectOmission	0.759448	0.752516	1
60.148872	0.795520	city	10	1	0.747761	0.747761	0	1	0	0	CorrectCommission	0.346007	0.780245	1
60.944504	0.795741	city	2	1	0.763741	0.763741	0	1	0	0	CorrectCommission	0.236955	0.811094	0
61.740318	0.795891	city	1	1	0.654916	0.654916	0	1	0	0	CorrectCommission	0.979622	0.843027	0
62.536144	0.795763	city	3	1	0.599859	0.599859	0	1	0	0	CorrectCommission	1.355359	0.873899	0
63.331932	0.795810	city	5	1	0.605629	0.605629	0	1	0	0	CorrectCommission	1.315977	0.901692	0
64.127716	0.795761	mountain	1	0	0.000000	0.687157	1	0	0	0	CorrectOmission	0.759597	0.924691	0
64.923508	0.795818	city	2	1	0.861831	0.861831	0	1	0	0	CorrectCommission	0.432459	0.941577	0
65.719299	0.795762	city	5	1	1.147042	1.147042	0	1	0	0	CorrectCommission	2.378867	0.951560	0
66.515251	0.796152	city	9	1	1.047774	1.047774	0	1	0	0	CorrectCommission	1.701419	0.954357	0
67.311073	0.795485	city	6	1	0.897244	0.897244	0	1	0	0	CorrectCommission	0.674134	0.950327	0
68.106705	0.795787	mountain	10	0	0.000000	0.829894	1	0	0	0	CorrectOmission	0.214509	0.940368	0
68.902512	0.795818	city	6	1	0.749139	0.749139	0	1	0	0	CorrectCommission	0.336606	0.925749	0
69.698311	0.795790	city	10	1	0.558391	0.558391	0	1	0	0	CorrectCommission	1.638356	0.908065	0
70.494141	0.795860	city	1	1	0.649617	0.649617	0	1	0	0	CorrectCommission	1.015787	0.889108	0
71.289970	0.795809	city	3	1	0.614985	0.614985	0	1	0	0	CorrectCommission	1.252134	0.870776	0
72.085777	0.795794	mountain	5	0	0.000000	0.692351	1	0	0	0	CorrectOmission	0.724149	0.854882	0
72.881554	0.795768	city	6	1	0.748266	0.748266	0	1	0	0	CorrectCommission	0.342558	0.843017	0
73.677330	0.795784	city	3	1	0.649280	0.649280	0	1	0	0	CorrectCommission	1.018088	0.836349	0
74.473145	0.795837	city	4	1	0.713034	0.713034	0	1	0	0	CorrectCommission	0.582998	0.835515	0
75.268974	0.795829	mountain	2	0	0.000000	0.765139	1	0	0	0	CorrectOmission	0.227411	0.840541	0
76.064774	0.795768	city	10	1	0.748378	0.748378	0	1	0	0	CorrectCommission	0.341796	0.850725	0
76.860519	0.795726	mountain	10	1	0.605535	0.605535	0	0	1	0	CommissionError	1.316622	0.864682	0
77.656311	0.795857	city	9	1	0.698769	0.698769	0	1	0	0	CorrectCommission	0.680348	0.880424	0
78.452148	0.795810	city	6	1	0.664116	0.664116	0	1	0	0	CorrectCommission	0.916839	0.895629	0
79.247963	0.795817	city	10	1	0.649643	0.649643	0	1	0	0	CorrectCommission	1.015612	0.907775	0
80.043785	0.795834	city	7	1	0.698557	0.698557	0	1	0	0	CorrectCommission	0.681795	0.914484	0
80.839584	0.795765	city	1	1	0.649542	0.649542	0	1	0	0	CorrectCommission	1.016301	0.913769	0
81.635353	0.795774	mountain	3	0	0.000000	0.568974	1	0	0	0	CorrectOmission	1.566131	0.904302	0
82.431145	0.795806	city	10	1	0.506088	0.506088	0	1	0	0	CorrectCommission	1.995292	0.885577	0
83.226959	0.795825	mountain	6	1	0.510118	0.510118	0	0	1	0	CommissionError	1.967793	0.857941	0
84.022926	0.796111	city	5	1	0.715388	0.715388	0	1	0	0	CorrectCommission	0.566933	0.822601	0
84.818726	0.795484	mountain	10	0	0.000000	0.832887	1	0	0	0	CorrectOmission	0.234929	0.781483	1
85.614365	0.795798	city	6	1	0.848609	0.848609	0	1	0	0	CorrectCommission	0.342223	0.736893	1
86.410324	0.796122	city	9	1	0.748550	0.748550	0	1	0	0	CorrectCommission	0.340623	0.691271	1
87.206139	0.795513	city	2	1	0.708128	0.708128	0	1	0	0	CorrectCommission	0.616481	0.646895	1
88.001801	0.795812	city	3	1	0.807093	0.807093	0	1	0	0	CorrectCommission	0.058903	0.605712	1
88.797592	0.795768	city	5	1	0.698513	0.698513	0	1	0	0	CorrectCommission	0.682096	0.569198	1
89.593399	0.795843	city	4	1	0.898573	0.898573	0	1	0	0	CorrectCommission	0.683202	0.538280	1
90.389198	0.795746	city	3	1	0.707928	0.707928	0	1	0	0	CorrectCommission	0.617846	0.513407	1
91.184975	0.795809	city	9	1	0.752106	0.752106	0	1	0	0	CorrectCommission	0.316356	0.494589	1
91.980782	0.795807	city	3	1	0.748116	0.748116	0	1	0	0	CorrectCommission	0.343583	0.481501	1
92.776550	0.795738	city	2	1	0.752420	0.752420	0	1	0	0	CorrectCommission	0.314215	0.473565	1
93.572350	0.795849	city	5	1	0.748158	0.748158	0	1	0	0	CorrectCommission	0.343300	0.470046	1
94.368187	0.795834	mountain	8	0	0.000000	0.871853	1	0	0	0	CorrectOmission	0.500854	0.470069	1
95.163994	0.795775	city	3	1	0.947330	0.947330	0	1	0	0	CorrectCommission	1.015940	0.472728	1
95.959785	0.795806	city	8	1	0.798411	0.798411	0	1	0	0	CorrectCommission	0.000346	0.477062	1
96.755730	0.796091	city	4	1	0.748309	0.748309	0	1	0	0	CorrectCommission	0.342269	0.482145	1
97.551537	0.795522	city	9	1	0.797775	0.797775	0	1	0	0	CorrectCommission	0.004687	0.487051	1
98.347191	0.795782	city	7	1	0.897633	0.897633	0	1	0	0	CorrectCommission	0.676789	0.490972	1
99.142982	0.795798	city	6	1	0.947068	0.947068	0	1	0	0	CorrectCommission	1.014155	0.493195	1
99.938934	0.796118	city	5	1	0.897457	0.897457	0	1	0	0	CorrectCommission	0.675587	0.493250	1
100.734741	0.795489	city	9	1	0.859452	0.859452	0	1	0	0	CorrectCommission	0.416223	0.490971	1
101.530418	0.795860	city	7	1	0.904587	0.904587	0	1	0	0	CorrectCommission	0.724245	0.486554	1
102.326202	0.795708	city	9	1	0.897404	0.897404	0	1	0	0	CorrectCommission	0.675225	0.480453	1
103.121956	0.795808	city	5	1	0.897471	0.897471	0	1	0	0	CorrectCommission	0.675684	0.473452	1
103.917938	0.796148	city	7	1	0.812237	0.812237	0	1	0	0	CorrectCommission	0.094007	0.466513	1
104.713768	0.795519	city	5	1	0.848255	0.848255	0	1	0	0	CorrectCommission	0.339808	0.460709	1
105.509392	0.795726	mountain	7	0	0.000000	0.779917	1	0	0	0	CorrectOmission	0.126561	0.457120	1
106.305344	0.796172	city	4	1	0.712883	0.712883	0	1	0	0	CorrectCommission	0.584027	0.456683	1
107.101173	0.795488	mountain	7	0	0.000000	0.752815	1	0	0	0	CorrectOmission	0.311519	0.460112	1
107.896797	0.795764	mountain	5	0	0.000000	0.823461	1	0	0	0	CorrectOmission	0.170607	0.467839	1
108.692741	0.796122	city	5	1	0.848576	0.848576	0	1	0	0	CorrectCommission	0.341998	0.479983	1
109.488579	0.795564	mountain	1	0	0.000000	0.751908	1	0	0	0	CorrectOmission	0.317704	0.496287	1
110.284233	0.795731	city	4	1	0.649676	0.649676	0	1	0	0	CorrectCommission	1.015386	0.516177	1
111.080025	0.795862	city	1	1	0.658094	0.658094	0	1	0	0	CorrectCommission	0.957936	0.538730	1
111.875832	0.795756	city	8	1	0.757646	0.757646	0	1	0	0	CorrectCommission	0.278548	0.562756	1
112.671623	0.795825	mountain	7	0	0.000000	0.760546	1	0	0	0	CorrectOmission	0.258757	0.586859	1
113.467430	0.795778	city	1	1	0.748233	0.748233	0	1	0	0	CorrectCommission	0.342786	0.609495	1
114.263367	0.796094	city	2	1	0.802146	0.802146	0	1	0	0	CorrectCommission	0.025140	0.629100	1
115.059158	0.795494	city	1	1	0.897285	0.897285	0	1	0	0	CorrectCommission	0.674411	0.644281	1
115.854797	0.795779	city	8	1	0.997084	0.997084	0	1	0	0	CorrectCommission	1.355490	0.653888	1
116.650757	0.796150	city	4	1	1.096483	1.096483	0	1	0	0	CorrectCommission	2.033831	0.657264	1
117.446571	0.795480	city	3	1	0.747813	0.747813	0	1	0	0	CorrectCommission	0.345652	0.654391	1
118.242233	0.795839	city	10	1	0.599516	0.599516	0	1	0	0	CorrectCommission	1.357700	0.646029	1
119.038025	0.795746	city	6	1	0.748312	0.748312	0	1	0	0	CorrectCommission	0.342247	0.633487	1
119.833961	0.796132	city	7	1	0.809071	0.809071	0	1	0	0	CorrectCommission	0.072400	0.618724	1
120.629807	0.795549	city	10	1	0.947605	0.947605	0	1	0	0	CorrectCommission	1.017817	0.604023	1
121.425476	0.795789	city	9	1	0.847401	0.847401	0	1	0	0	CorrectCommission	0.333983	0.591792	1
122.221275	0.795815	city	1	1	0.710749	0.710749	0	1	0	0	CorrectCommission	0.598593	0.584304	1
123.017220	0.796070	city	2	1	0.798406	0.798406	0	1	0	0	CorrectCommission	0.000379	0.583382	1
123.813148	0.795792	city	10	1	0.749121	0.749121	0	1	0	0	CorrectCommission	0.336725	0.590224	1
124.608818	0.795549	city	6	1	0.801582	0.801582	0	1	0	0	CorrectCommission	0.021290	0.605192	1
125.404495	0.795801	city	10	1	0.711206	0.711206	0	1	0	0	CorrectCommission	0.595472	0.627816	1
126.200241	0.795693	city	3	1	0.897771	0.897771	0	1	0	0	CorrectCommission	0.677730	0.656739	1
126.996033	0.795884	city	1	1	0.847496	0.847496	0	1	0	0	CorrectCommission	0.334630	0.689946	1
127.791885	0.795832	city	5	1	0.947314	0.947314	0	1	0	0	CorrectCommission	1.015832	0.724958	1
128.587677	0.795753	city	6	1	0.897470	0.897470	0	1	0	0	CorrectCommission	0.675677	0.759015	1
129.383484	0.795837	city	4	1	0.964553	0.964553	0	1	0	0	CorrectCommission	1.133481	0.789546	0
130.179291	0.795777	city	7	1	0.996866	0.996866	0	1	0	0	CorrectCommission	1.353998	0.814279	0
130.975067	0.795782	city	6	1	0.865912	0.865912	0	1	0	0	CorrectCommission	0.460312	0.831578	0
131.771011	0.796109	city	2	1	0.948069	0.948069	0	1	0	0	CorrectCommission	1.020989	0.840608	0
132.566818	0.795519	city	5	1	1.047811	1.047811	0	1	0	0	CorrectCommission	1.701675	0.841355	0
133.362457	0.795762	city	4	1	0.550101	0.550101	0	1	0	0	CorrectCommission	1.694930	0.834580	0
134.158234	0.795782	city	3	1	0.898327	0.898327	0	1	0	0	CorrectCommission	0.681524	0.821726	0
134.954056	0.795847	city	2	1	0.706059	0.706059	0	1	0	0	CorrectCommission	0.630598	0.804840	0
135.749878	0.795795	mountain	7	1	0.804931	0.804931	0	0	1	0	CommissionError	0.044148	0.786087	1
136.545639	0.795756	city	4	1	0.948062	0.948062	0	1	0	0	CorrectCommission	1.020940	0.767647	1
137.341446	0.795856	city	2	1	0.847864	0.847864	0	1	0	0	CorrectCommission	0.337139	0.751414	1
138.137253	0.795743	city	10	1	0.749209	0.749209	0	1	0	0	CorrectCommission	0.336122	0.738875	1
138.933014	0.795786	city	8	1	0.699033	0.699033	0	1	0	0	CorrectCommission	0.678546	0.730977	1
139.728821	0.795834	city	10	1	0.698445	0.698445	0	1	0	0	CorrectCommission	0.682565	0.728145	1
140.524689	0.795881	city	8	1	0.660613	0.660613	0	1	0	0	CorrectCommission	0.940744	0.730388	1
141.320480	0.795710	city	4	1	0.848113	0.848113	0	1	0	0	CorrectCommission	0.338839	0.737379	1
142.116241	0.795809	city	3	1	0.901387	0.901387	0	1	0	0	CorrectCommission	0.702407	0.748637	1
142.912048	0.795814	city	4	1	1.012194	1.012194	0	1	0	0	CorrectCommission	1.458605	0.763551	1
143.707886	0.795853	city	9	0	0.000000	0.776279	0	0	0	1	OmissionError	0.151384	0.781457	1
144.503677	0.795720	city	8	1	0.564587	0.564587	0	1	0	0	CorrectCommission	1.596070	0.801753	0
145.299484	0.795901	city	2	1	0.748061	0.748061	0	1	0	0	CorrectCommission	0.343961	0.823678	0
146.095306	0.795739	city	10	1	0.947034	0.947034	0	1	0	0	CorrectCommission	1.013923	0.846471	0
146.891098	0.795855	city	6	0	0.000000	0.764801	0	0	0	1	OmissionError	0.229719	0.869089	0
147.686935	0.795818	city	2	1	0.599529	0.599529	0	1	0	0	CorrectCommission	1.357607	0.890337	0
148.482727	0.795762	city	7	1	0.849388	0.849388	0	1	0	0	CorrectCommission	0.347541	0.908756	0
149.278473	0.795753	city	5	1	0.748137	0.748137	0	1	0	0	CorrectCommission	0.343439	0.922928	0
150.074280	0.795836	city	1	1	0.554643	0.554643	0	1	0	0	CorrectCommission	1.663930	0.931497	0
150.870239	0.796090	city	3	1	0.649551	0.649551	0	1	0	0	CorrectCommission	1.016239	0.933366	0
151.666061	0.795561	city	7	1	0.958831	0.958831	0	1	0	0	CorrectCommission	1.094433	0.928119	0
152.461700	0.795720	city	2	1	1.108539	1.108539	0	1	0	0	CorrectCommission	2.116109	0.916083	0
153.257629	0.796144	city	6	1	1.096408	1.096408	0	1	0	0	CorrectCommission	2.033322	0.898378	0
154.053452	0.795491	city	9	0	0.000000	0.887203	0	0	0	1	OmissionError	0.605610	0.876917	0
154.849121	0.795847	city	2	1	0.704924	0.704924	0	1	0	0	CorrectCommission	0.638349	0.854239	0
155.644943	0.795799	mountain	10	0	0.000000	0.773569	1	0	0	0	CorrectOmission	0.169880	0.833085	0
156.440704	0.795711	city	6	1	0.864269	0.864269	0	1	0	0	CorrectCommission	0.449096	0.816061	0
157.236465	0.795813	city	1	1	0.748151	0.748151	0	1	0	0	CorrectCommission	0.343345	0.805176	0
158.032318	0.795886	mountain	4	0	0.000000	0.720429	1	0	0	0	CorrectOmission	0.532534	0.801563	0
158.828110	0.795703	city	9	1	0.748991	0.748991	0	1	0	0	CorrectCommission	0.337609	0.805268	0
159.623901	0.795902	city	4	1	0.801728	0.801728	0	1	0	0	CorrectCommission	0.022289	0.815186	0
160.419876	0.796033	mountain	9	0	0.000000	0.930267	1	0	0	0	CorrectOmission	0.899496	0.829178	0
161.215652	0.795517	mountain	6	0	0.000000	1.017757	1	0	0	0	CorrectOmission	1.496569	0.844370	0
162.011475	0.796130	city	6	1	0.947348	0.947348	0	1	0	0	CorrectCommission	1.016065	0.857483	0
162.807434	0.795784	city	9	1	0.602189	0.602189	0	1	0	0	CorrectCommission	1.339459	0.865391	0
163.603088	0.795520	city	4	1	0.848241	0.848241	0	1	0	0	CorrectCommission	0.339711	0.865378	0
164.398758	0.795836	mountain	7	0	0.000000	1.079473	1	0	0	0	CorrectOmission	1.917745	0.855637	0
165.194565	0.795781	city	2	1	1.096291	1.096291	0	1	0	0	CorrectCommission	2.032521	0.835258	0
165.990356	0.795790	city	5	1	0.699101	0.699101	0	1	0	0	CorrectCommission	0.678083	0.804518	0
166.786133	0.795775	city	7	1	0.705204	0.705204	0	1	0	0	CorrectCommission	0.636436	0.764789	1
167.582077	0.796107	city	1	1	0.606828	0.606828	0	1	0	0	CorrectCommission	1.307797	0.718177	1
168.377869	0.795461	city	6	1	0.816465	0.816465	0	1	0	0	CorrectCommission	0.122857	0.667309	1
169.173508	0.795826	city	4	1	0.748336	0.748336	0	1	0	0	CorrectCommission	0.342083	0.615097	1
169.969330	0.795826	city	6	1	0.797929	0.797929	0	1	0	0	CorrectCommission	0.003639	0.564326	1
170.765152	0.795827	city	7	1	0.748283	0.748283	0	1	0	0	CorrectCommission	0.342448	0.517463	1
171.560959	0.795769	city	3	1	0.698736	0.698736	0	1	0	0	CorrectCommission	0.680575	0.476509	1
172.356720	0.795753	city	5	1	0.798260	0.798260	0	1	0	0	CorrectCommission	0.001379	0.442942	1
173.152527	0.795856	city	7	1	0.748320	0.748320	0	1	0	0	CorrectCommission	0.342195	0.417760	1
173.948364	0.795844	city	1	1	0.698988	0.698988	0	1	0	0	CorrectCommission	0.678859	0.401505	1
174.744141	0.795701	city	4	1	0.798738	0.798738	0	1	0	0	CorrectCommission	0.001880	0.394374	1
175.539932	0.795884	city	10	1	0.847774	0.847774	0	1	0	0	CorrectCommission	0.336528	0.396346	1
176.335785	0.795817	city	9	1	0.847526	0.847526	0	1	0	0	CorrectCommission	0.334835	0.407161	1
177.131577	0.795776	city	1	1	0.749087	0.749087	0	1	0	0	CorrectCommission	0.336956	0.426393	1
177.927383	0.795819	city	7	1	0.708813	0.708813	0	1	0	0	CorrectCommission	0.611809	0.453413	1
178.723145	0.795699	city	9	1	0.807974	0.807974	0	1	0	0	CorrectCommission	0.064916	0.487379	1
179.518906	0.795836	city	5	1	0.847885	0.847885	0	1	0	0	CorrectCommission	0.337287	0.527196	1
180.314758	0.795882	city	8	1	0.807514	0.807514	0	1	0	0	CorrectCommission	0.061777	0.571449	1
181.110611	0.795799	city	6	1	0.851661	0.851661	0	1	0	0	CorrectCommission	0.363053	0.618521	1
181.906403	0.795782	city	10	1	0.947119	0.947119	0	1	0	0	CorrectCommission	1.014501	0.666557	1
182.702179	0.795791	city	1	1	0.947115	0.947115	0	1	0	0	CorrectCommission	1.014477	0.713603	1
183.497971	0.795784	city	5	1	0.903155	0.903155	0	1	0	0	CorrectCommission	0.714470	0.757845	1
184.293762	0.795812	city	9	1	0.897930	0.897930	0	1	0	0	CorrectCommission	0.678816	0.797637	0
185.089584	0.795828	city	5	1	1.058729	1.058729	0	1	0	0	CorrectCommission	1.776179	0.831671	0
185.885544	0.796068	mountain	2	0	0.000000	0.996609	1	0	0	0	CorrectOmission	1.352243	0.859111	0
186.681335	0.795542	city	3	1	0.897405	0.897405	0	1	0	0	CorrectCommission	0.675233	0.879591	0
187.477005	0.795781	city	5	1	0.946954	0.946954	0	1	0	0	CorrectCommission	1.013375	0.893342	0
188.272812	0.795831	city	9	1	0.857539	0.857539	0	1	0	0	CorrectCommission	0.403170	0.900977	0
189.068588	0.795715	city	8	1	0.952363	0.952363	0	1	0	0	CorrectCommission	1.050292	0.903542	0
189.864380	0.795872	city	7	1	0.953849	0.953849	0	1	0	0	CorrectCommission	1.060430	0.902331	0
190.660339	0.796050	city	3	1	0.965767	0.965767	0	1	0	0	CorrectCommission	1.141767	0.898823	0
191.456100	0.795475	city	1	1	0.946742	0.946742	0	1	0	0	CorrectCommission	1.011929	0.894534	0
192.251770	0.795856	city	2	1	0.849851	0.849851	0	1	0	0	CorrectCommission	0.350700	0.890956	0
193.047592	0.795800	city	8	1	0.699542	0.699542	0	1	0	0	CorrectCommission	0.675079	0.889339	0
193.843536	0.796079	city	3	1	0.505363	0.505363	0	1	0	0	CorrectCommission	2.000240	0.890566	0
194.639313	0.795494	city	2	1	0.699258	0.699258	0	1	0	0	CorrectCommission	0.677012	0.895038	0
195.434952	0.795784	mountain	6	0	0.000000	0.764368	1	0	0	0	CorrectOmission	0.232674	0.902694	0
196.230927	0.796148	city	10	1	0.798062	0.798062	0	1	0	0	CorrectCommission	0.002731	0.912877	0
197.026733	0.795476	city	4	1	0.897710	0.897710	0	1	0	0	CorrectCommission	0.677313	0.924354	0
197.822540	0.796136	city	10	1	0.948156	0.948156	0	1	0	0	CorrectCommission	1.021582	0.935430	0
198.618378	0.795523	city	6	1	1.096927	1.096927	0	1	0	0	CorrectCommission	2.036863	0.944131	0
199.414017	0.795767	city	1	1	0.748068	0.748068	0	1	0	0	CorrectCommission	0.343911	0.948391	0
200.209961	0.796117	city	6	1	0.948898	0.948898	0	1	0	0	CorrectCommission	1.026642	0.946406	0
201.005753	0.795487	city	4	1	1.146679	1.146679	0	1	0	0	CorrectCommission	2.376393	0.936708	0
201.801422	0.795827	city	3	0	0.000000	0.829606	0	0	0	1	OmissionError	0.212542	0.918410	0
202.597198	0.795730	city	6	1	0.499844	0.499844	0	1	0	0	CorrectCommission	2.037908	0.891421	0
203.392990	0.795868	city	5	1	0.659557	0.659557	0	1	0	0	CorrectCommission	0.947952	0.856238	0
204.188812	0.795775	city	10	1	0.652305	0.652305	0	1	0	0	CorrectCommission	0.997440	0.814111	0
204.984589	0.795768	city	3	1	0.748387	0.748387	0	1	0	0	CorrectCommission	0.341732	0.766727	1
205.780411	0.795879	city	8	1	0.798649	0.798649	0	1	0	0	CorrectCommission	0.001274	0.716156	1
206.576202	0.795707	city	10	1	0.865973	0.865973	0	1	0	0	CorrectCommission	0.460727	0.664549	1
207.371994	0.795872	city	9	1	1.046773	1.046773	0	1	0	0	CorrectCommission	1.694591	0.614016	1
208.167816	0.795784	city	8	1	0.847818	0.847818	0	1	0	0	CorrectCommission	0.336826	0.566457	1
208.963593	0.795763	city	3	1	0.797911	0.797911	0	1	0	0	CorrectCommission	0.003757	0.523559	1
209.759415	0.795861	city	10	1	0.748382	0.748382	0	1	0	0	CorrectCommission	0.341771	0.486704	1
210.555237	0.795809	city	9	1	0.750651	0.750651	0	1	0	0	CorrectCommission	0.326288	0.456974	1
211.351181	0.796079	city	5	1	0.748025	0.748025	0	1	0	0	CorrectCommission	0.344205	0.435182	1
212.146973	0.795488	city	10	1	0.806111	0.806111	0	1	0	0	CorrectCommission	0.052197	0.421961	1
212.942581	0.795743	city	1	1	0.848178	0.848178	0	1	0	0	CorrectCommission	0.339287	0.417788	1
213.738358	0.795816	city	2	1	0.848493	0.848493	0	1	0	0	CorrectCommission	0.341431	0.422945	1
214.534210	0.795862	city	3	1	0.897523	0.897523	0	1	0	0	CorrectCommission	0.676039	0.437524	1
215.330017	0.795760	city	4	1	0.856695	0.856695	0	1	0	0	CorrectCommission	0.397410	0.461264	1
216.125809	0.795827	city	10	1	0.764543	0.764543	0	1	0	0	CorrectCommission	0.231481	0.493505	1
216.921616	0.795778	city	4	1	0.857588	0.857588	0	1	0	0	CorrectCommission	0.403505	0.533183	1
217.717407	0.795825	city	8	1	0.848208	0.848208	0	1	0	0	CorrectCommission	0.339488	0.578645	1
218.513260	0.795855	city	6	1	0.863914	0.863914	0	1	0	0	CorrectCommission	0.446676	0.627679	1
219.309036	0.795721	city	9	1	0.797914	0.797914	0	1	0	0	CorrectCommission	0.003742	0.677701	1
220.104965	0.796118	city	5	1	0.798040	0.798040	0	1	0	0	CorrectCommission	0.002877	0.725831	1
220.900772	0.795517	city	3	1	0.946719	0.946719	0	1	0	0	CorrectCommission	1.011772	0.769251	1
221.696457	0.795846	city	8	1	0.963293	0.963293	0	1	0	0	CorrectCommission	1.124880	0.805448	0
222.492233	0.795706	city	4	1	1.149787	1.149787	0	1	0	0	CorrectCommission	2.397604	0.832614	0
223.288025	0.795876	city	2	1	1.196164	1.196164	0	1	0	0	CorrectCommission	2.714099	0.849776	0
224.083832	0.795721	mountain	3	0	0.000000	0.947068	1	0	0	0	CorrectOmission	1.014156	0.856974	0
224.879593	0.795813	city	7	1	0.698901	0.698901	0	1	0	0	CorrectCommission	0.679452	0.855200	0
225.675430	0.795879	city	5	1	0.748062	0.748062	0	1	0	0	CorrectCommission	0.343955	0.846135	0
226.471283	0.795811	city	3	1	0.847581	0.847581	0	1	0	0	CorrectCommission	0.335213	0.831860	0
227.267044	0.795715	city	5	1	0.798752	0.798752	0	1	0	0	CorrectCommission	0.001976	0.814476	0
228.062851	0.795886	city	8	1	0.847543	0.847543	0	1	0	0	CorrectCommission	0.334948	0.795828	0
228.858643	0.795717	city	10	1	0.911438	0.911438	0	1	0	0	CorrectCommission	0.771001	0.777239	1
229.654449	0.795875	city	6	1	1.096336	1.096336	0	1	0	0	CorrectCommission	2.032830	0.759438	1
230.450287	0.795829	city	9	1	0.848233	0.848233	0	1	0	0	CorrectCommission	0.339657	0.742502	1
231.246109	0.795790	city	2	1	0.810801	0.810801	0	1	0	0	CorrectCommission	0.084206	0.726126	1
232.041885	0.795772	city	3	1	0.599039	0.599039	0	1	0	0	CorrectCommission	1.360957	0.709620	1
232.837677	0.795816	city	7	1	0.698406	0.698406	0	1	0	0	CorrectCommission	0.682830	0.692129	1
233.633453	0.795747	mountain	5	0	0.000000	0.664789	1	0	0	0	CorrectOmission	0.912243	0.672950	1
234.429245	0.795821	city	10	1	0.660618	0.660618	0	1	0	0	CorrectCommission	0.940711	0.651538	1
235.225067	0.795817	city	7	1	0.848320	0.848320	0	1	0	0	CorrectCommission	0.340255	0.627683	1
236.020874	0.795798	city	1	1	0.700917	0.700917	0	1	0	0	CorrectCommission	0.665692	0.601524	1
236.816650	0.795748	city	10	1	0.712263	0.712263	0	1	0	0	CorrectCommission	0.588258	0.573506	1
237.612427	0.795826	city	7	1	0.698733	0.698733	0	1	0	0	CorrectCommission	0.680597	0.544378	1
238.408279	0.795870	city	8	1	0.762422	0.762422	0	1	0	0	CorrectCommission	0.245950	0.515040	1
239.204102	0.795778	mountain	6	0	0.000000	0.740155	1	0	0	0	CorrectOmission	0.397913	0.486544	1
239.999878	0.795781	city	9	1	0.700037	0.700037	0	1	0	0	CorrectCommission	0.671701	0.459896	1
240.795685	0.795831	city	7	1	0.710172	0.710172	0	1	0	0	CorrectCommission	0.602530	0.436043	1
241.591476	0.795736	city	5	1	0.762563	0.762563	0	1	0	0	CorrectCommission	0.244991	0.415873	1
242.387268	0.795851	mountain	7	0	0.000000	0.790576	1	0	0	0	CorrectOmission	0.053815	0.400147	1
243.183105	0.795819	mountain	9	0	0.000000	0.791249	1	0	0	0	CorrectOmission	0.049225	0.389445	1
243.979050	0.796093	city	3	1	0.761617	0.761617	0	1	0	0	CorrectCommission	0.251444	0.384140	1
244.774857	0.795503	city	2	1	0.698719	0.698719	0	1	0	0	CorrectCommission	0.680694	0.384408	1
245.570496	0.795780	city	7	1	0.748107	0.748107	0	1	0	0	CorrectCommission	0.343643	0.390161	1
246.366257	0.795743	city	8	1	0.748185	0.748185	0	1	0	0	CorrectCommission	0.343113	0.401127	1
247.162079	0.795890	city	10	1	0.814688	0.814688	0	1	0	0	CorrectCommission	0.110733	0.416772	1
247.957886	0.795740	city	7	1	0.764415	0.764415	0	1	0	0	CorrectCommission	0.232352	0.436400	1
248.753677	0.795834	city	8	1	0.700266	0.700266	0	1	0	0	CorrectCommission	0.670136	0.459153	1
249.549484	0.795770	city	7	1	0.759456	0.759456	0	1	0	0	CorrectCommission	0.266195	0.483993	1
250.345291	0.795856	city	3	1	0.705981	0.705981	0	1	0	0	CorrectCommission	0.631130	0.509846	1
251.141129	0.795810	city	6	1	0.848605	0.848605	0	1	0	0	CorrectCommission	0.342196	0.535583	1
251.937073	0.796079	city	2	1	0.749114	0.749114	0	1	0	0	CorrectCommission	0.336771	0.560143	1
252.732880	0.795533	city	9	1	0.652248	0.652248	0	1	0	0	CorrectCommission	0.997834	0.582591	1
253.528549	0.795810	city	3	1	0.649828	0.649828	0	1	0	0	CorrectCommission	1.014350	0.602092	1
254.324341	0.795779	city	9	1	0.598736	0.598736	0	1	0	0	CorrectCommission	1.363022	0.618047	1
255.120270	0.796085	city	8	1	0.748285	0.748285	0	1	0	0	CorrectCommission	0.342428	0.629992	1
255.916061	0.795497	city	5	1	0.756515	0.756515	0	1	0	0	CorrectCommission	0.286263	0.637692	1
256.711700	0.795748	city	7	1	0.817188	0.817188	0	1	0	0	CorrectCommission	0.127794	0.641008	1
257.507477	0.795858	city	6	1	0.897352	0.897352	0	1	0	0	CorrectCommission	0.674872	0.639918	1
258.303284	0.795737	mountain	6	0	0.000000	0.928012	1	0	0	0	CorrectOmission	0.884105	0.634460	1
259.099091	0.795880	city	10	1	0.948161	0.948161	0	1	0	0	CorrectCommission	1.021613	0.624824	1
259.894928	0.795783	city	3	1	0.996795	0.996795	0	1	0	0	CorrectCommission	1.353513	0.611308	1
260.690735	0.795833	city	8	1	0.748138	0.748138	0	1	0	0	CorrectCommission	0.343435	0.594316	1
261.486572	0.795809	city	5	1	0.848256	0.848256	0	1	0	0	CorrectCommission	0.339814	0.574450	1
262.282349	0.795787	city	9	1	0.706527	0.706527	0	1	0	0	CorrectCommission	0.627404	0.552411	1
263.078125	0.795742	city	7	1	0.754869	0.754869	0	1	0	0	CorrectCommission	0.297501	0.529033	1
263.873871	0.795781	city	3	1	0.712492	0.712492	0	1	0	0	CorrectCommission	0.586696	0.505278	1
264.669739	0.795906	city	10	1	0.699131	0.699131	0	1	0	0	CorrectCommission	0.677883	0.482164	1
265.465546	0.795763	city	2	1	0.752090	0.752090	0	1	0	0	CorrectCommission	0.316463	0.460741	1
266.261353	0.795833	mountain	7	0	0.000000	0.767634	1	0	0	0	CorrectOmission	0.210386	0.442023	1
267.057159	0.795765	city	1	1	0.748788	0.748788	0	1	0	0	CorrectCommission	0.338995	0.426935	1
267.852966	0.795832	city	2	1	0.698581	0.698581	0	1	0	0	CorrectCommission	0.681635	0.416174	1
268.648773	0.795810	mountain	8	0	0.000000	0.813695	1	0	0	0	CorrectOmission	0.103957	0.410180	1
269.444519	0.795704	city	6	1	0.911679	0.911679	0	1	0	0	CorrectCommission	0.772641	0.409099	1
270.240326	0.795903	city	5	1	0.810079	0.810079	0	1	0	0	CorrectCommission	0.079277	0.412643	1
271.036316	0.796053	city	3	1	0.797789	0.797789	0	1	0	0	CorrectCommission	0.004592	0.420169	1
271.832092	0.795513	city	10	1	0.798496	0.798496	0	1	0	0	CorrectCommission	0.000233	0.430645	1
272.627716	0.795726	mountain	8	0	0.000000	0.831436	1	0	0	0	CorrectOmission	0.225028	0.442810	1
273.423523	0.795869	city	9	1	0.799451	0.799451	0	1	0	0	CorrectCommission	0.006751	0.455283	1
274.219330	0.795766	city	1	1	0.605386	0.605386	0	1	0	0	CorrectCommission	1.317639	0.466778	1
275.015137	0.795823	mountain	9	1	0.610893	0.610893	0	0	1	0	CommissionError	1.280058	0.476177	1
275.810944	0.795807	city	4	1	0.897612	0.897612	0	1	0	0	CorrectCommission	0.676647	0.482800	1
276.606750	0.795799	city	5	1	0.703764	0.703764	0	1	0	0	CorrectCommission	0.646263	0.486437	1
277.402527	0.795795	city	8	1	0.706397	0.706397	0	1	0	0	CorrectCommission	0.628295	0.487304	1
278.198334	0.795805	city	6	1	0.754744	0.754744	0	1	0	0	CorrectCommission	0.298351	0.486003	1
278.994171	0.795861	city	1	1	0.766624	0.766624	0	1	0	0	CorrectCommission	0.217275	0.483357	1
279.790009	0.795800	city	6	1	0.764887	0.764887	0	1	0	0	CorrectCommission	0.229130	0.480220	1
280.585785	0.795781	city	8	1	0.748267	0.748267	0	1	0	0	CorrectCommission	0.342551	0.477297	1
281.381592	0.795817	city	5	1	0.748494	0.748494	0	1	0	0	CorrectCommission	0.341004	0.474999	1
282.177551	0.796072	city	4	1	0.903862	0.903862	0	1	0	0	CorrectCommission	0.719295	0.473401	1
282.973297	0.795436	city	7	1	0.797947	0.797947	0	1	0	0	CorrectCommission	0.003512	0.472274	1
283.768921	0.795841	city	8	1	0.752088	0.752088	0	1	0	0	CorrectCommission	0.316479	0.471145	1
284.564789	0.795848	city	3	1	0.698367	0.698367	0	1	0	0	CorrectCommission	0.683092	0.469459	1
285.360565	0.795707	city	1	1	0.617215	0.617215	0	1	0	0	CorrectCommission	1.236911	0.466700	1
286.156342	0.795880	city	10	1	0.716778	0.716778	0	1	0	0	CorrectCommission	0.557450	0.462606	1
286.952179	0.795786	city	6	1	0.848547	0.848547	0	1	0	0	CorrectCommission	0.341799	0.457285	1
287.747955	0.795797	city	7	1	0.748124	0.748124	0	1	0	0	CorrectCommission	0.343527	0.451248	1
288.543732	0.795743	city	10	1	0.716446	0.716446	0	1	0	0	CorrectCommission	0.559718	0.445378	1
289.339691	0.796183	city	7	1	0.699365	0.699365	0	1	0	0	CorrectCommission	0.676282	0.440819	1
290.135681	0.795795	city	4	1	0.750017	0.750017	0	1	0	0	CorrectCommission	0.330611	0.438789	1
290.931335	0.795502	city	2	1	0.748086	0.748086	0	1	0	0	CorrectCommission	0.343789	0.440421	1
291.726990	0.795786	city	7	1	0.801765	0.801765	0	1	0	0	CorrectCommission	0.022543	0.446494	1
292.522797	0.795854	city	8	1	0.806540	0.806540	0	1	0	0	CorrectCommission	0.055126	0.457349	1
293.318634	0.795793	city	1	1	0.812321	0.812321	0	1	0	0	CorrectCommission	0.094581	0.472763	1
294.114441	0.795809	city	10	1	0.817796	0.817796	0	1	0	0	CorrectCommission	0.131945	0.491941	1
294.910248	0.795803	city	8	1	0.653083	0.653083	0	1	0	0	CorrectCommission	0.992133	0.513620	1
295.705994	0.795741	mountain	1	0	0.000000	0.714628	1	0	0	0	CorrectOmission	0.572121	0.536187	1
296.501770	0.795758	city	10	1	0.847902	0.847902	0	1	0	0	CorrectCommission	0.337400	0.557974	1
297.297577	0.795861	city	7	1	0.898375	0.898375	0	1	0	0	CorrectCommission	0.681849	0.577406	1
298.093414	0.795821	city	9	1	1.053509	1.053509	0	1	0	0	CorrectCommission	1.740556	0.593175	1
298.889191	0.795723	city	1	0	0.000000	0.835675	0	0	0	1	OmissionError	0.253957	0.604368	1
299.684998	0.795898	city	6	1	0.599163	0.599163	0	1	0	0	CorrectCommission	1.360106	0.610612	1
300.480804	0.795721	city	7	1	0.698265	0.698265	0	1	0	0	CorrectCommission	0.683790	0.611885	1
301.276550	0.795809	mountain	6	0	0.000000	0.757691	1	0	0	0	CorrectOmission	0.278238	0.608546	1
302.072540	0.796124	mountain	2	0	0.000000	0.777503	1	0	0	0	CorrectOmission	0.143036	0.601144	1
302.868317	0.795461	city	7	1	0.757760	0.757760	0	1	0	0	CorrectCommission	0.277769	0.590264	1
303.663971	0.795851	city	3	1	0.698524	0.698524	0	1	0	0	CorrectCommission	0.682024	0.576471	1
304.459808	0.795826	city	9	1	0.650215	0.650215	0	1	0	0	CorrectCommission	1.011703	0.560224	1
305.255615	0.795776	city	2	1	0.705198	0.705198	0	1	0	0	CorrectCommission	0.636474	0.541887	1
306.051422	0.795817	mountain	3	0	0.000000	0.753894	1	0	0	0	CorrectOmission	0.304150	0.521820	1
306.847198	0.795769	city	4	1	0.750478	0.750478	0	1	0	0	CorrectCommission	0.327464	0.500405	1
307.643005	0.795823	city	1	1	0.649124	0.649124	0	1	0	0	CorrectCommission	1.019150	0.478123	1
308.438843	0.795842	city	2	1	0.670247	0.670247	0	1	0	0	CorrectCommission	0.875001	0.455628	1
309.234650	0.795799	city	1	1	0.761701	0.761701	0	1	0	0	CorrectCommission	0.250872	0.433835	1
310.030609	0.796076	city	9	1	0.749206	0.749206	0	1	0	0	CorrectCommission	0.336145	0.413857	1
310.826385	0.795500	mountain	8	0	0.000000	0.798566	1	0	0	0	CorrectOmission	0.000709	0.396892	1
311.622040	0.795842	city	7	1	0.847791	0.847791	0	1	0	0	CorrectCommission	0.336645	0.384213	1
312.417847	0.795765	mountain	1	0	0.000000	0.834893	1	0	0	0	CorrectOmission	0.248620	0.376949	1
313.213623	0.795773	city	5	1	0.812394	0.812394	0	1	0	0	CorrectCommission	0.095081	0.376041	1
314.009430	0.795806	mountain	10	0	0.000000	0.832821	1	0	0	0	CorrectOmission	0.234480	0.382164	1
314.805206	0.795749	mountain	3	0	0.000000	0.857470	1	0	0	0	CorrectOmission	0.402699	0.395599	1
315.600983	0.795830	city	4	1	0.847642	0.847642	0	1	0	0	CorrectCommission	0.335625	0.416218	1
316.396973	0.796151	city	3	1	0.764634	0.764634	0	1	0	0	CorrectCommission	0.230860	0.443610	1
317.192963	0.795802	city	2	1	0.763364	0.763364	0	1	0	0	CorrectCommission	0.239525	0.477033	1
317.988617	0.795518	city	1	1	0.764539	0.764539	0	1	0	0	CorrectCommission	0.231508	0.515535	1
318.784393	0.796072	city	6	1	0.898450	0.898450	0	1	0	0	CorrectCommission	0.682366	0.558010	1
319.580200	0.795523	city	10	1	0.699057	0.699057	0	1	0	0	CorrectCommission	0.678388	0.603289	1
320.376007	0.796081	city	3	1	0.698675	0.698675	0	1	0	0	CorrectCommission	0.680995	0.650274	1
321.171814	0.795529	city	9	1	0.598963	0.598963	0	1	0	0	CorrectCommission	1.361473	0.697929	1
321.967621	0.796065	city	1	1	0.648811	0.648811	0	1	0	0	CorrectCommission	1.021288	0.745309	1
322.763550	0.795803	mountain	10	0	0.000000	0.795200	1	0	0	0	CorrectOmission	0.022264	0.791623	0
323.559204	0.795513	city	4	1	0.847572	0.847572	0	1	0	0	CorrectCommission	0.335150	0.836214	0
324.354858	0.795804	city	6	1	0.615372	0.615372	0	1	0	0	CorrectCommission	1.249493	0.878364	0
325.150818	0.796099	mountain	2	0	0.000000	0.641847	1	0	0	0	CorrectOmission	1.068811	0.917346	0
325.946625	0.795510	city	7	1	0.698328	0.698328	0	1	0	0	CorrectCommission	0.683360	0.952460	0
326.742249	0.795753	city	8	1	0.556143	0.556143	0	1	0	0	CorrectCommission	1.653693	0.983004	0
327.538025	0.795783	mountain	6	0	0.000000	0.587270	1	0	0	0	CorrectOmission	1.441272	1.008235	0
328.333832	0.795858	city	5	1	0.649103	0.649103	0	1	0	0	CorrectCommission	1.019297	1.027502	0
329.129669	0.795824	city	9	1	0.599037	0.599037	0	1	0	0	CorrectCommission	1.360964	1.040244	0
329.925476	0.795788	city	10	1	0.759969	0.759969	0	1	0	0	CorrectCommission	0.262693	1.045965	0
330.721436	0.796096	city	8	1	0.847978	0.847978	0	1	0	0	CorrectCommission	0.337922	1.044443	0
331.517181	0.795449	city	10	1	0.997489	0.997489	0	1	0	0	CorrectCommission	1.358248	1.035588	0
332.312805	0.795792	city	5	1	1.106055	1.106055	0	1	0	0	CorrectCommission	2.099156	1.019577	0
333.108612	0.795827	city	1	1	1.146405	1.146405	0	1	0	0	CorrectCommission	2.374523	0.996898	0
333.904602	0.796140	city	4	1	0.649420	0.649420	0	1	0	0	CorrectCommission	1.017130	0.968343	0
334.700439	0.795528	city	2	1	0.847745	0.847745	0	1	0	0	CorrectCommission	0.336330	0.935001	0
335.496124	0.795806	city	4	1	0.897266	0.897266	0	1	0	0	CorrectCommission	0.674281	0.898103	0
336.291901	0.795791	city	1	1	0.798677	0.798677	0	1	0	0	CorrectCommission	0.001469	0.858878	0
337.087708	0.795796	city	5	1	0.847747	0.847747	0	1	0	0	CorrectCommission	0.336345	0.818529	0
337.883453	0.795730	city	2	1	0.947331	0.947331	0	1	0	0	CorrectCommission	1.015948	0.778088	1
338.679260	0.795847	city	6	1	1.114936	1.114936	0	1	0	0	CorrectCommission	2.159760	0.738380	1
339.475098	0.795826	city	3	1	0.847543	0.847543	0	1	0	0	CorrectCommission	0.334951	0.700000	1
340.270874	0.795760	city	6	1	0.897944	0.897944	0	1	0	0	CorrectCommission	0.678914	0.663463	1
341.066681	0.795852	city	8	1	0.898318	0.898318	0	1	0	0	CorrectCommission	0.681462	0.629096	1
341.862518	0.795794	city	10	1	0.798421	0.798421	0	1	0	0	CorrectCommission	0.000281	0.597101	1
342.658295	0.795801	city	8	1	0.807196	0.807196	0	1	0	0	CorrectCommission	0.059602	0.567689	1
343.454071	0.795734	city	6	1	0.754787	0.754787	0	1	0	0	CorrectCommission	0.298061	0.541105	1
344.249878	0.795855	city	1	1	0.649810	0.649810	0	1	0	0	CorrectCommission	1.014472	0.517671	1
345.045685	0.795784	mountain	7	1	0.764556	0.764556	0	0	1	0	CommissionError	0.231389	0.497904	1
345.841644	0.796101	city	9	1	1.046490	1.046490	0	1	0	0	CorrectCommission	1.692657	0.482621	1
346.637604	0.795817	city	6	1	0.797786	0.797786	0	1	0	0	CorrectCommission	0.004610	0.472735	1
347.433258	0.795494	city	7	1	0.748262	0.748262	0	1	0	0	CorrectCommission	0.342589	0.469389	1
348.228912	0.795827	city	9	1	0.748512	0.748512	0	1	0	0	CorrectCommission	0.340884	0.473636	1
349.024719	0.795814	mountain	2	0	0.000000	0.782205	1	0	0	0	CorrectOmission	0.110943	0.486286	1
349.820496	0.795710	city	6	1	0.799248	0.799248	0	1	0	0	CorrectCommission	0.005362	0.507697	1
350.616272	0.795873	city	1	1	0.749544	0.749544	0	1	0	0	CorrectCommission	0.333840	0.537638	1
351.412109	0.795777	city	8	1	0.757340	0.757340	0	1	0	0	CorrectCommission	0.280636	0.575223	1
352.208069	0.796126	mountain	9	0	0.000000	0.770968	1	0	0	0	CorrectOmission	0.187631	0.618901	1
353.003876	0.795525	city	4	1	0.748697	0.748697	0	1	0	0	CorrectCommission	0.339620	0.666520	1
353.799500	0.795723	city	2	1	0.648795	0.648795	0	1	0	0	CorrectCommission	1.021398	0.715556	1
354.595276	0.795815	city	3	1	0.951724	0.951724	0	1	0	0	CorrectCommission	1.045930	0.763332	1
355.391113	0.795860	city	10	1	0.852164	0.852164	0	1	0	0	CorrectCommission	0.366490	0.807359	0
356.187073	0.796075	city	4	1	1.096773	1.096773	0	1	0	0	CorrectCommission	2.035807	0.845560	0
356.982880	0.795505	city	2	1	1.050142	1.050142	0	1	0	0	CorrectCommission	1.717580	0.876400	0
357.778503	0.795738	mountain	5	0	0.000000	1.022108	1	0	0	0	CorrectOmission	1.526264	0.899107	0
358.574280	0.795820	city	6	1	0.956682	0.956682	0	1	0	0	CorrectCommission	1.079767	0.913624	0
359.370117	0.795885	city	1	1	0.797875	0.797875	0	1	0	0	CorrectCommission	0.004005	0.920543	0
360.165955	0.795766	city	6	1	0.851587	0.851587	0	1	0	0	CorrectCommission	0.362548	0.920947	0
360.961731	0.795768	city	4	1	0.946953	0.946953	0	1	0	0	CorrectCommission	1.013370	0.916211	0
361.757507	0.795844	city	2	1	0.947377	0.947377	0	1	0	0	CorrectCommission	1.016261	0.907813	0
362.553345	0.795793	city	10	1	0.897752	0.897752	0	1	0	0	CorrectCommission	0.677602	0.897339	0
363.349121	0.795800	city	3	1	1.012061	1.012061	0	1	0	0	CorrectCommission	1.457700	0.886260	0
364.144928	0.795812	city	4	1	1.001627	1.001627	0	1	0	0	CorrectCommission	1.386488	0.875941	0
364.940735	0.795797	city	2	1	0.863409	0.863409	0	1	0	0	CorrectCommission	0.443227	0.867571	0
365.736542	0.795804	city	8	1	0.908400	0.908400	0	1	0	0	CorrectCommission	0.750266	0.862127	0
366.532379	0.795835	city	6	1	0.997374	0.997374	0	1	0	0	CorrectCommission	1.357466	0.860206	0
367.328308	0.796055	city	9	1	0.898295	0.898295	0	1	0	0	CorrectCommission	0.681303	0.861959	0
368.124054	0.795447	city	2	1	0.814026	0.814026	0	1	0	0	CorrectCommission	0.106219	0.867067	0
368.919678	0.795793	city	9	1	0.801897	0.801897	0	1	0	0	CorrectCommission	0.023442	0.874694	0
369.715515	0.795853	city	5	1	0.849729	0.849729	0	1	0	0	CorrectCommission	0.349868	0.883493	0
370.511353	0.795814	city	7	0	0.000000	0.608564	0	0	0	1	OmissionError	1.295954	0.891786	0
371.307159	0.795834	city	3	1	0.500394	0.500394	0	1	0	0	CorrectCommission	2.034149	0.897684	0
372.102936	0.795716	city	9	1	0.947214	0.947214	0	1	0	0	CorrectCommission	1.015152	0.899395	0
372.898682	0.795800	city	2	1	0.706305	0.706305	0	1	0	0	CorrectCommission	0.628923	0.895535	0
373.694550	0.795896	city	6	1	0.997048	0.997048	0	1	0	0	CorrectCommission	1.355239	0.885217	0
374.490540	0.796073	mountain	8	0	0.000000	1.010206	1	0	0	0	CorrectOmission	1.445040	0.868341	0
375.286316	0.795494	city	2	1	0.947465	0.947465	0	1	0	0	CorrectCommission	1.016864	0.845674	0
376.081970	0.795820	city	4	1	1.010508	1.010508	0	1	0	0	CorrectCommission	1.447096	0.818709	0
376.877747	0.795746	city	1	1	0.748318	0.748318	0	1	0	0	CorrectCommission	0.342206	0.789675	0
377.673706	0.796141	city	9	1	0.713657	0.713657	0	1	0	0	CorrectCommission	0.578749	0.761274	1
378.469482	0.795444	city	3	1	0.798261	0.798261	0	1	0	0	CorrectCommission	0.001374	0.736369	1
379.265106	0.795809	city	7	1	0.848612	0.848612	0	1	0	0	CorrectCommission	0.342249	0.717796	1
380.060944	0.795862	city	8	1	0.856154	0.856154	0	1	0	0	CorrectCommission	0.393717	0.708024	1
380.856781	0.795813	city	1	1	0.961434	0.961434	0	1	0	0	CorrectCommission	1.112196	0.708940	1
381.652588	0.795765	city	4	1	0.947184	0.947184	0	1	0	0	CorrectCommission	1.014948	0.721690	1
382.448334	0.795770	city	1	1	0.848265	0.848265	0	1	0	0	CorrectCommission	0.339881	0.746585	1
383.244171	0.795873	city	8	1	0.798117	0.798117	0	1	0	0	CorrectCommission	0.002356	0.783054	1
384.039978	0.795749	city	4	1	0.748859	0.748859	0	1	0	0	CorrectCommission	0.338513	0.829630	0
384.835907	0.796124	city	8	1	0.798061	0.798061	0	1	0	0	CorrectCommission	0.002739	0.884019	0
385.631714	0.795479	city	10	1	1.011005	1.011005	0	1	0	0	CorrectCommission	1.450491	0.943306	0
386.427338	0.795769	city	4	1	0.997379	0.997379	0	1	0	0	CorrectCommission	1.357497	1.004066	0
387.223145	0.795855	city	10	1	1.046431	1.046431	0	1	0	0	CorrectCommission	1.692253	1.062721	0
388.019012	0.795852	city	2	0	0.000000	0.897314	0	0	0	1	OmissionError	0.674612	1.115722	0
388.814789	0.795735	city	10	1	0.848065	0.848065	0	1	0	0	CorrectCommission	0.338515	1.159876	0
389.610718	0.796108	city	4	1	1.196722	1.196722	0	1	0	0	CorrectCommission	2.717906	1.192533	0
390.406677	0.795805	city	3	1	1.309080	1.309080	0	1	0	0	CorrectCommission	3.484693	1.211669	0
391.202301	0.795478	city	1	1	0.798209	0.798209	0	1	0	0	CorrectCommission	0.001725	1.216132	0
391.997986	0.795840	city	2	1	0.997223	0.997223	0	1	0	0	CorrectCommission	1.356433	1.205850	0
392.793793	0.795795	city	7	1	0.897303	0.897303	0	1	0	0	CorrectCommission	0.674538	1.181457	0
393.589600	0.795816	city	5	0	0.000000	0.601418	0	0	0	1	OmissionError	1.344716	1.144532	0
394.385559	0.796097	city	2	1	0.507423	0.507423	0	1	0	0	CorrectCommission	1.986186	1.097415	0
395.181335	0.795471	city	6	1	1.013171	1.013171	0	1	0	0	CorrectCommission	1.465275	1.043095	0
395.976990	0.795815	city	4	1	0.699152	0.699152	0	1	0	0	CorrectCommission	0.677738	0.985143	0
396.772766	0.795749	mountain	6	1	0.599169	0.599169	0	0	1	0	CommissionError	1.360068	0.927514	0
397.568542	0.795834	city	8	1	0.748371	0.748371	0	1	0	0	CorrectCommission	0.341847	0.874227	0
398.364349	0.795777	city	1	1	0.848241	0.848241	0	1	0	0	CorrectCommission	0.339714	0.829218	0
399.160187	0.795862	city	5	1	0.947852	0.947852	0	1	0	0	CorrectCommission	1.019507	0.795960	0
399.955994	0.795796	city	7	1	0.848268	0.848268	0	1	0	0	CorrectCommission	0.339902	0.777119	1
400.751831	0.795838	mountain	2	0	0.000000	0.804532	1	0	0	0	CorrectOmission	0.041424	0.774382	1
401.547607	0.795754	city	2	1	0.807589	0.807589	0	1	0	0	CorrectCommission	0.062288	0.788127	0
402.343384	0.795772	city	6	1	0.848387	0.848387	0	1	0	0	CorrectCommission	0.340708	0.817337	0
403.139191	0.795854	city	1	1	0.710763	0.710763	0	1	0	0	CorrectCommission	0.598495	0.859580	0
403.934998	0.795745	city	8	1	0.947275	0.947275	0	1	0	0	CorrectCommission	1.015566	0.911250	0
404.730804	0.795849	city	9	1	0.904536	0.904536	0	1	0	0	CorrectCommission	0.723897	0.967734	0
405.526611	0.795758	city	3	1	0.847764	0.847764	0	1	0	0	CorrectCommission	0.336459	1.024057	0
406.322418	0.795885	city	8	1	0.897608	0.897608	0	1	0	0	CorrectCommission	0.676618	1.075258	0
407.118378	0.796056	city	6	1	1.196074	1.196074	0	1	0	0	CorrectCommission	2.713484	1.116892	0
407.914185	0.795537	city	3	1	1.095984	1.095984	0	1	0	0	CorrectCommission	2.030426	1.145572	0
408.709839	0.795791	city	10	1	1.196030	1.196030	0	1	0	0	CorrectCommission	2.713186	1.159486	0
409.505615	0.795722	city	2	0	0.000000	1.125621	0	0	0	1	OmissionError	2.232681	1.158453	0
410.301392	0.795875	city	7	1	0.956391	0.956391	0	1	0	0	CorrectCommission	1.077777	1.143999	0
411.097229	0.795765	city	2	0	0.000000	0.759974	0	0	0	1	OmissionError	0.262657	1.119105	0
411.893036	0.795865	city	1	1	0.648994	0.648994	0	1	0	0	CorrectCommission	1.020037	1.087829	0
412.688995	0.796063	mountain	4	0	0.000000	0.736072	1	0	0	0	CorrectOmission	0.425777	1.054794	0
413.484802	0.795521	city	3	1	0.897269	0.897269	0	1	0	0	CorrectCommission	0.674303	1.024852	0
414.280457	0.795793	city	4	1	1.008644	1.008644	0	1	0	0	CorrectCommission	1.434381	1.002427	0
415.076263	0.795825	city	1	1	0.849505	0.849505	0	1	0	0	CorrectCommission	0.348341	0.991246	0
415.872040	0.795747	city	10	1	0.897266	0.897266	0	1	0	0	CorrectCommission	0.674281	0.994049	0
416.667847	0.795825	city	2	1	0.897391	0.897391	0	1	0	0	CorrectCommission	0.675137	1.012188	0
417.463623	0.795766	city	9	1	0.754975	0.754975	0	1	0	0	CorrectCommission	0.296778	1.045666	0
418.259430	0.795826	city	3	1	0.912467	0.912467	0	1	0	0	CorrectCommission	0.778020	1.093131	0
419.055237	0.795803	city	2	1	1.096744	1.096744	0	1	0	0	CorrectCommission	2.035615	1.151910	0
419.851013	0.795735	city	5	0	0.000000	0.794020	0	0	0	1	OmissionError	0.030314	1.218218	0
420.646820	0.795862	city	4	1	0.500040	0.500040	0	1	0	0	CorrectCommission	2.036569	1.287576	0
421.442627	0.795810	mountain	8	0	0.000000	0.710550	1	0	0	0	CorrectOmission	0.599949	1.354891	0
422.238434	0.795762	city	2	1	0.852014	0.852014	0	1	0	0	CorrectCommission	0.365466	1.415130	0
423.034241	0.795890	city	3	1	0.350895	0.350895	0	1	0	0	CorrectCommission	3.054402	1.463622	0
423.830109	0.795793	city	7	1	0.649496	0.649496	0	1	0	0	CorrectCommission	1.016610	1.496424	0
424.626007	0.796059	city	9	1	0.301377	0.301377	0	1	0	0	CorrectCommission	3.392335	1.510941	0
425.421814	0.795535	city	3	0	0.000000	0.300971	0	0	0	1	OmissionError	3.395103	1.505917	0
426.217529	0.795864	city	5	1	0.449695	0.449695	0	1	0	0	CorrectCommission	2.380146	1.481720	0
427.013275	0.795670	city	9	1	0.548963	0.548963	0	1	0	0	CorrectCommission	1.702692	1.440238	0
427.809021	0.795818	city	4	1	0.848224	0.848224	0	1	0	0	CorrectCommission	0.339600	1.384621	0
428.604828	0.795799	city	8	1	0.698386	0.698386	0	1	0	0	CorrectCommission	0.682965	1.318993	0
429.400665	0.795872	city	1	1	0.798215	0.798215	0	1	0	0	CorrectCommission	0.001686	1.247830	0
430.196503	0.795764	mountain	6	0	0.000000	1.063212	1	0	0	0	CorrectOmission	1.806776	1.175735	0
430.992249	0.795770	city	6	1	1.146045	1.146045	0	1	0	0	CorrectCommission	2.372065	1.107001	0
431.788208	0.796136	city	3	1	0.699381	0.699381	0	1	0	0	CorrectCommission	0.676174	1.045401	0
432.583984	0.795436	city	5	1	0.798299	0.798299	0	1	0	0	CorrectCommission	0.001114	0.994050	0
433.379791	0.796168	city	8	1	0.757705	0.757705	0	1	0	0	CorrectCommission	0.278142	0.955241	0
434.175629	0.795481	city	7	1	0.853339	0.853339	0	1	0	0	CorrectCommission	0.374508	0.930401	0
434.971436	0.796122	mountain	3	0	0.000000	0.944847	1	0	0	0	CorrectOmission	0.998996	0.920177	0
435.767395	0.795799	city	10	1	1.002544	1.002544	0	1	0	0	CorrectCommission	1.392748	0.924416	0
436.563019	0.795493	city	7	1	0.996747	0.996747	0	1	0	0	CorrectCommission	1.353190	0.942219	0
437.358673	0.795810	city	8	1	0.850746	0.850746	0	1	0	0	CorrectCommission	0.356809	0.972097	0
438.154480	0.795767	city	5	1	0.807876	0.807876	0	1	0	0	CorrectCommission	0.064246	1.011933	0
438.950287	0.795851	city	10	1	0.805991	0.805991	0	1	0	0	CorrectCommission	0.051380	1.059058	0
439.746094	0.795795	city	1	1	0.996792	0.996792	0	1	0	0	CorrectCommission	1.353497	1.110358	0
440.541901	0.795794	city	5	1	1.047579	1.047579	0	1	0	0	CorrectCommission	1.700087	1.162246	0
441.337677	0.795737	city	3	1	1.008757	1.008757	0	1	0	0	CorrectCommission	1.435151	1.211085	0
442.133453	0.795869	city	6	1	1.003326	1.003326	0	1	0	0	CorrectCommission	1.398084	1.253256	0
442.929260	0.795747	city	1	1	1.049125	1.049125	0	1	0	0	CorrectCommission	1.710639	1.285386	0
443.725098	0.795876	city	6	1	1.196340	1.196340	0	1	0	0	CorrectCommission	2.715298	1.304622	0
444.520905	0.795776	city	7	0	0.000000	0.946681	0	0	0	1	OmissionError	1.011515	1.308767	0
445.316711	0.795815	mountain	5	1	0.764343	0.764343	0	0	1	0	CommissionError	0.232843	1.296594	0
446.112671	0.796084	city	6	1	1.113518	1.113518	0	1	0	0	CorrectCommission	2.150086	1.267767	0
446.908447	0.795512	city	9	1	1.195727	1.195727	0	1	0	0	CorrectCommission	2.711119	1.222828	0
447.704254	0.796088	city	5	0	0.000000	0.915302	0	0	0	1	OmissionError	0.797372	1.163286	0
448.500061	0.795495	city	2	1	0.605384	0.605384	0	1	0	0	CorrectCommission	1.317651	1.091566	0
449.295685	0.795755	mountain	3	1	0.599114	0.599114	0	0	1	0	CommissionError	1.360444	1.010753	0
450.091461	0.795835	city	6	1	0.997167	0.997167	0	1	0	0	CorrectCommission	1.356055	0.924440	0
450.887299	0.795806	city	4	1	0.866189	0.866189	0	1	0	0	CorrectCommission	0.462202	0.836423	0
451.683105	0.795835	city	9	1	0.753251	0.753251	0	1	0	0	CorrectCommission	0.308542	0.750528	1
452.478912	0.795774	city	2	1	0.798031	0.798031	0	1	0	0	CorrectCommission	0.002943	0.670229	1
453.274719	0.795826	city	5	1	0.897603	0.897603	0	1	0	0	CorrectCommission	0.676584	0.598503	1
454.070526	0.795815	city	7	1	0.847426	0.847426	0	1	0	0	CorrectCommission	0.334153	0.537569	1
454.866302	0.795750	mountain	2	0	0.000000	0.814269	1	0	0	0	CorrectOmission	0.107875	0.488906	1
455.662109	0.795868	city	5	1	0.797862	0.797862	0	1	0	0	CorrectCommission	0.004098	0.453189	1
456.458099	0.796070	city	7	1	0.797933	0.797933	0	1	0	0	CorrectCommission	0.003613	0.430299	1
457.253845	0.795446	city	9	1	0.897222	0.897222	0	1	0	0	CorrectCommission	0.673983	0.419413	1
458.049500	0.795853	city	6	1	0.802914	0.802914	0	1	0	0	CorrectCommission	0.030380	0.419193	1
458.845306	0.795750	mountain	5	0	0.000000	0.743151	1	0	0	0	CorrectOmission	0.377470	0.428078	1
459.641113	0.795888	city	10	1	0.760690	0.760690	0	1	0	0	CorrectCommission	0.257775	0.444407	1
460.436951	0.795776	city	1	1	0.898288	0.898288	0	1	0	0	CorrectCommission	0.681258	0.466705	1
461.232727	0.795761	city	5	1	0.954219	0.954219	0	1	0	0	CorrectCommission	1.062958	0.493724	1
462.028503	0.795812	city	7	1	0.798057	0.798057	0	1	0	0	CorrectCommission	0.002766	0.524609	1
462.824341	0.795847	city	3	1	0.756620	0.756620	0	1	0	0	CorrectCommission	0.285548	0.558961	1
463.620148	0.795793	city	10	1	0.898084	0.898084	0	1	0	0	CorrectCommission	0.679868	0.596605	1
464.415955	0.795791	city	7	1	0.997431	0.997431	0	1	0	0	CorrectCommission	1.357853	0.637501	1
465.211761	0.795803	mountain	10	0	0.000000	0.933096	1	0	0	0	CorrectOmission	0.918801	0.681639	1
466.007538	0.795805	city	10	1	0.801630	0.801630	0	1	0	0	CorrectCommission	0.021617	0.728861	1
466.803314	0.795735	city	9	1	0.699583	0.699583	0	1	0	0	CorrectCommission	0.674798	0.778661	1
467.599121	0.795845	city	5	1	0.798106	0.798106	0	1	0	0	CorrectCommission	0.002433	0.829970	0
468.394928	0.795802	city	3	1	0.899302	0.899302	0	1	0	0	CorrectCommission	0.688178	0.881353	0
469.190735	0.795824	city	5	0	0.000000	0.827272	0	0	0	1	OmissionError	0.196615	0.930972	0
469.986694	0.796090	city	2	1	0.648511	0.648511	0	1	0	0	CorrectCommission	1.023335	0.976925	0
470.782501	0.795524	city	5	0	0.000000	0.429512	0	0	0	1	OmissionError	2.517885	1.017382	0
471.578156	0.795760	city	10	1	0.451881	0.451881	0	1	0	0	CorrectCommission	2.365226	1.050897	0
472.374084	0.796116	city	9	1	0.997226	0.997226	0	1	0	0	CorrectCommission	1.356455	1.076676	0
473.169891	0.795506	city	2	1	0.947373	0.947373	0	1	0	0	CorrectCommission	1.016235	1.094643	0
473.965698	0.796098	city	10	1	0.897165	0.897165	0	1	0	0	CorrectCommission	0.673595	1.105358	0
474.761505	0.795526	city	9	1	0.903510	0.903510	0	1	0	0	CorrectCommission	0.716894	1.109823	0
475.557159	0.795793	city	6	1	1.046996	1.046996	0	1	0	0	CorrectCommission	1.696110	1.109253	0
476.352966	0.795800	mountain	5	0	0.000000	1.020660	1	0	0	0	CorrectOmission	1.516382	1.104637	0
477.148743	0.795748	mountain	6	0	0.000000	0.922006	1	0	0	0	CorrectOmission	0.843119	1.096579	0
477.944519	0.795809	city	2	1	0.848537	0.848537	0	1	0	0	CorrectCommission	0.341735	1.085044	0
478.740326	0.795803	city	6	1	0.897758	0.897758	0	1	0	0	CorrectCommission	0.677639	1.069178	0
479.536163	0.795862	city	2	0	0.000000	0.847835	0	0	0	1	OmissionError	0.336945	1.047378	0
480.332001	0.795800	city	4	1	0.698553	0.698553	0	1	0	0	CorrectCommission	0.681824	1.017544	0
481.127930	0.796063	city	7	1	0.449695	0.449695	0	1	0	0	CorrectCommission	2.380148	0.977346	0
481.923706	0.795522	city	2	1	0.400128	0.400128	0	1	0	0	CorrectCommission	2.718414	0.924601	0
482.719360	0.795795	city	3	1	0.657875	0.657875	0	1	0	0	CorrectCommission	0.959431	0.857816	0
483.515137	0.795741	city	5	1	0.947527	0.947527	0	1	0	0	CorrectCommission	1.017284	0.776611	1
484.310974	0.795893	city	4	1	0.897476	0.897476	0	1	0	0	CorrectCommission	0.675716	0.681728	1
485.106812	0.795785	city	10	1	0.946924	0.946924	0	1	0	0	CorrectCommission	1.013174	0.575215	1
485.902557	0.795724	mountain	9	0	0.000000	0.917401	1	0	0	0	CorrectOmission	0.811693	0.460215	1
486.698364	0.795883	city	2	1	0.848392	0.848392	0	1	0	0	CorrectCommission	0.340745	0.340745	1
