onset	duration	trial_type	image_type	Press	ReactionTime	ReactionTime_Interpolated	CorrectOmission	CorrectCommission	CommissionError	OmissionError	response_type	nonsmoothVarianceTimeCourse	VarianceTimeCourse	In_the_Zone
8.421760	0.795529	city	7	1	0.768110	0.768110	0	1	0	0	CorrectCommission	0.032970	0.032970	1
9.217552	0.796055	mountain	10	0	0.000000	0.675406	1	0	0	0	CorrectOmission	0.613717	0.086905	1
10.013347	0.795534	city	10	1	0.660458	0.660458	0	1	0	0	CorrectCommission	0.717991	0.139351	1
10.809005	0.795782	city	4	1	0.801023	0.801023	0	1	0	0	CorrectCommission	0.262563	0.189013	1
11.604801	0.795810	city	3	1	0.701208	0.701208	0	1	0	0	CorrectCommission	0.433724	0.234841	1
12.400615	0.795817	mountain	8	0	0.000000	0.761882	1	0	0	0	CorrectOmission	0.010478	0.276144	1
13.196412	0.795777	city	7	1	0.804293	0.804293	0	1	0	0	CorrectCommission	0.285375	0.312624	1
13.992204	0.795807	city	1	1	0.649692	0.649692	0	1	0	0	CorrectCommission	0.793094	0.344301	1
14.788030	0.795843	city	4	1	0.750042	0.750042	0	1	0	0	CorrectCommission	0.093067	0.371472	1
15.583820	0.795738	city	7	1	0.648501	0.648501	0	1	0	0	CorrectCommission	0.801402	0.394687	1
16.379581	0.795785	city	9	1	0.698392	0.698392	0	1	0	0	CorrectCommission	0.453369	0.414524	1
17.175549	0.796152	city	7	1	0.698454	0.698454	0	1	0	0	CorrectCommission	0.452937	0.431602	1
17.971502	0.795753	city	9	1	0.702309	0.702309	0	1	0	0	CorrectCommission	0.426048	0.446414	1
18.767141	0.795526	city	4	1	0.748192	0.748192	0	1	0	0	CorrectCommission	0.105976	0.459324	1
19.562799	0.795790	city	5	1	0.710199	0.710199	0	1	0	0	CorrectCommission	0.371005	0.470491	1
20.358622	0.795857	city	6	1	0.748281	0.748281	0	1	0	0	CorrectCommission	0.105352	0.479961	1
21.154411	0.795720	city	4	1	0.648734	0.648734	0	1	0	0	CorrectCommission	0.799775	0.487670	1
21.950174	0.795807	city	5	1	0.598836	0.598836	0	1	0	0	CorrectCommission	1.147856	0.493524	1
22.746012	0.795867	city	6	1	0.699058	0.699058	0	1	0	0	CorrectCommission	0.448721	0.497510	1
23.541985	0.796081	city	1	1	0.648651	0.648651	0	1	0	0	CorrectCommission	0.800356	0.499809	1
24.337788	0.795523	city	5	1	0.705395	0.705395	0	1	0	0	CorrectCommission	0.404522	0.500692	1
25.133413	0.795731	city	4	1	0.798637	0.798637	0	1	0	0	CorrectCommission	0.245921	0.500611	1
25.929230	0.795899	city	5	1	0.649343	0.649343	0	1	0	0	CorrectCommission	0.795531	0.500092	1
26.725206	0.796056	city	4	1	0.749135	0.749135	0	1	0	0	CorrectCommission	0.099394	0.499653	1
27.521002	0.795536	city	2	1	0.698835	0.698835	0	1	0	0	CorrectCommission	0.450278	0.499801	1
28.316809	0.796076	city	1	1	0.699156	0.699156	0	1	0	0	CorrectCommission	0.448041	0.500909	1
29.112606	0.795519	city	4	1	0.848107	0.848107	0	1	0	0	CorrectCommission	0.591013	0.503176	1
29.908257	0.795781	city	7	1	0.748784	0.748784	0	1	0	0	CorrectCommission	0.101842	0.506634	1
30.704195	0.796098	city	2	1	0.649355	0.649355	0	1	0	0	CorrectCommission	0.795445	0.511154	1
31.499966	0.795442	city	8	1	0.708874	0.708874	0	1	0	0	CorrectCommission	0.380248	0.516423	1
32.295628	0.795879	city	5	1	0.649327	0.649327	0	1	0	0	CorrectCommission	0.795641	0.522114	1
33.091461	0.795794	city	4	1	0.847484	0.847484	0	1	0	0	CorrectCommission	0.586671	0.527782	1
33.887268	0.795820	city	3	1	0.657946	0.657946	0	1	0	0	CorrectCommission	0.735512	0.533069	1
34.683064	0.795766	city	1	1	0.748061	0.748061	0	1	0	0	CorrectCommission	0.106891	0.537661	1
35.478855	0.795815	city	9	1	0.897244	0.897244	0	1	0	0	CorrectCommission	0.933786	0.541342	1
36.274666	0.795808	city	6	1	0.748341	0.748341	0	1	0	0	CorrectCommission	0.104937	0.543979	1
37.070480	0.795821	city	7	1	0.699631	0.699631	0	1	0	0	CorrectCommission	0.444730	0.545610	1
37.866287	0.795797	city	1	1	0.709285	0.709285	0	1	0	0	CorrectCommission	0.377380	0.546385	1
38.662071	0.795765	city	10	1	0.997140	0.997140	0	1	0	0	CorrectCommission	1.630646	0.546575	1
39.457867	0.795826	city	2	1	0.704266	0.704266	0	1	0	0	CorrectCommission	0.412391	0.546495	1
40.253685	0.795808	city	8	1	0.699517	0.699517	0	1	0	0	CorrectCommission	0.445521	0.546607	1
41.049450	0.795722	city	7	1	0.797837	0.797837	0	1	0	0	CorrectCommission	0.240340	0.547297	1
41.845222	0.795827	city	2	1	0.700775	0.700775	0	1	0	0	CorrectCommission	0.436748	0.548921	1
42.641041	0.795813	city	1	1	0.698606	0.698606	0	1	0	0	CorrectCommission	0.451879	0.551709	1
43.436878	0.795861	city	2	1	0.650789	0.650789	0	1	0	0	CorrectCommission	0.785439	0.555682	1
44.232830	0.796040	city	8	1	0.713025	0.713025	0	1	0	0	CorrectCommission	0.351291	0.560708	1
45.028625	0.795553	city	1	1	0.698493	0.698493	0	1	0	0	CorrectCommission	0.452668	0.566501	1
45.824436	0.796063	city	4	1	0.797988	0.797988	0	1	0	0	CorrectCommission	0.241393	0.572636	1
46.620224	0.795516	city	6	1	0.653809	0.653809	0	1	0	0	CorrectCommission	0.764371	0.578653	1
47.415867	0.795766	city	10	1	0.604800	0.604800	0	1	0	0	CorrectCommission	1.106255	0.584122	1
48.211662	0.795823	city	4	1	0.757500	0.757500	0	1	0	0	CorrectCommission	0.041044	0.588721	1
49.007477	0.795810	city	5	1	0.600070	0.600070	0	1	0	0	CorrectCommission	1.139247	0.592394	1
49.803288	0.795814	city	9	1	0.950612	0.950612	0	1	0	0	CorrectCommission	1.306073	0.595163	1
50.599087	0.795784	city	7	1	0.798433	0.798433	0	1	0	0	CorrectCommission	0.244498	0.597285	1
51.394878	0.795799	city	3	1	0.710724	0.710724	0	1	0	0	CorrectCommission	0.367348	0.599168	1
52.190651	0.795746	city	5	1	0.748014	0.748014	0	1	0	0	CorrectCommission	0.107216	0.601274	1
52.986462	0.795877	city	10	1	0.848216	0.848216	0	1	0	0	CorrectCommission	0.591776	0.603995	1
53.782448	0.796096	city	7	1	0.851814	0.851814	0	1	0	0	CorrectCommission	0.616875	0.607617	1
54.578224	0.795450	city	10	1	0.897321	0.897321	0	1	0	0	CorrectCommission	0.934323	0.612262	1
55.373848	0.795803	city	5	1	0.698308	0.698308	0	1	0	0	CorrectCommission	0.453958	0.617883	1
56.169827	0.796149	mountain	3	0	0.000000	0.756110	1	0	0	0	CorrectOmission	0.050737	0.624233	1
56.965801	0.795806	city	10	1	0.897693	0.897693	0	1	0	0	CorrectCommission	0.936916	0.630930	1
57.761456	0.795500	city	4	1	0.950018	0.950018	0	1	0	0	CorrectCommission	1.301931	0.637463	1
58.557117	0.795819	city	10	1	0.716966	0.716966	0	1	0	0	CorrectCommission	0.323799	0.643298	1
59.352913	0.795772	city	1	1	0.648862	0.648862	0	1	0	0	CorrectCommission	0.798886	0.647983	0
60.148697	0.795798	city	2	1	0.653355	0.653355	0	1	0	0	CorrectCommission	0.767543	0.651086	0
60.944515	0.795844	city	6	1	0.816220	0.816220	0	1	0	0	CorrectCommission	0.368577	0.652310	0
61.740292	0.795707	city	1	1	0.698536	0.698536	0	1	0	0	CorrectCommission	0.452367	0.651563	0
62.536217	0.796146	city	6	1	0.698813	0.698813	0	1	0	0	CorrectCommission	0.450434	0.648947	0
63.332062	0.795541	mountain	8	0	0.000000	0.872674	1	0	0	0	CorrectOmission	0.762390	0.644804	0
64.127716	0.795775	city	7	1	0.996755	0.996755	0	1	0	0	CorrectCommission	1.627956	0.639666	1
64.923515	0.795816	city	8	1	0.847691	0.847691	0	1	0	0	CorrectCommission	0.588113	0.634193	1
65.719299	0.795747	city	7	1	0.850680	0.850680	0	1	0	0	CorrectCommission	0.608964	0.629247	1
66.515076	0.795815	city	4	1	0.809517	0.809517	0	1	0	0	CorrectCommission	0.321821	0.625569	1
67.310905	0.795840	city	6	1	0.897355	0.897355	0	1	0	0	CorrectCommission	0.934560	0.623743	1
68.106728	0.795806	city	8	1	0.748287	0.748287	0	1	0	0	CorrectCommission	0.105314	0.624050	1
68.902519	0.795776	city	2	1	0.748267	0.748267	0	1	0	0	CorrectCommission	0.105448	0.626425	1
69.698463	0.796111	city	10	1	0.747976	0.747976	0	1	0	0	CorrectCommission	0.107479	0.630341	1
70.494392	0.795750	city	2	1	0.897664	0.897664	0	1	0	0	CorrectCommission	0.936714	0.634881	1
71.290054	0.795571	city	6	1	0.904510	0.904510	0	1	0	0	CorrectCommission	0.984474	0.638833	1
72.085739	0.795803	city	10	1	0.798056	0.798056	0	1	0	0	CorrectCommission	0.241868	0.640895	1
72.881546	0.795800	city	1	1	0.897206	0.897206	0	1	0	0	CorrectCommission	0.933524	0.639926	1
73.677330	0.795771	city	4	1	0.915778	0.915778	0	1	0	0	CorrectCommission	1.063080	0.635058	1
74.473091	0.795755	city	6	1	1.001098	1.001098	0	1	0	0	CorrectCommission	1.658254	0.625950	1
75.268883	0.795824	city	10	1	0.900770	0.900770	0	1	0	0	CorrectCommission	0.958382	0.612828	1
76.064720	0.795860	city	1	1	0.798560	0.798560	0	1	0	0	CorrectCommission	0.245384	0.596655	1
76.860535	0.795760	city	5	1	0.757945	0.757945	0	1	0	0	CorrectCommission	0.037942	0.578989	1
77.656334	0.795842	city	1	1	0.712532	0.712532	0	1	0	0	CorrectCommission	0.354735	0.561837	1
78.452148	0.795787	city	6	1	0.701923	0.701923	0	1	0	0	CorrectCommission	0.428737	0.547531	1
79.247948	0.795810	city	7	1	0.704915	0.704915	0	1	0	0	CorrectCommission	0.407865	0.538585	1
80.043716	0.795728	mountain	10	0	0.000000	0.818329	1	0	0	0	CorrectOmission	0.383289	0.537481	1
80.839653	0.796148	city	10	1	0.897441	0.897441	0	1	0	0	CorrectCommission	0.935164	0.546416	1
81.635506	0.795549	city	3	1	0.797530	0.797530	0	1	0	0	CorrectCommission	0.238198	0.567085	1
82.431320	0.796080	city	4	1	0.801384	0.801384	0	1	0	0	CorrectCommission	0.265081	0.600573	1
83.227127	0.795534	city	9	1	0.807775	0.807775	0	1	0	0	CorrectCommission	0.309668	0.647086	0
84.022758	0.795736	city	10	1	0.699238	0.699238	0	1	0	0	CorrectCommission	0.447468	0.705868	0
84.818520	0.795781	city	7	1	0.748327	0.748327	0	1	0	0	CorrectCommission	0.105029	0.775079	0
85.614334	0.795853	city	6	1	0.699043	0.699043	0	1	0	0	CorrectCommission	0.448828	0.851902	0
86.410179	0.795836	city	9	1	0.654047	0.654047	0	1	0	0	CorrectCommission	0.762711	0.932582	0
87.205971	0.795741	city	8	1	0.648599	0.648599	0	1	0	0	CorrectCommission	0.800716	1.012759	0
88.001755	0.795828	city	2	1	0.567722	0.567722	0	1	0	0	CorrectCommission	1.364904	1.087810	0
88.797554	0.795777	city	9	1	0.598901	0.598901	0	1	0	0	CorrectCommission	1.147400	1.153259	0
89.593346	0.795796	city	7	1	0.449872	0.449872	0	1	0	0	CorrectCommission	2.187005	1.205266	0
90.389290	0.796101	city	2	1	0.458321	0.458321	0	1	0	0	CorrectCommission	2.128062	1.240915	0
91.185120	0.795555	city	3	1	0.400153	0.400153	0	1	0	0	CorrectCommission	2.533833	1.258610	0
91.980751	0.795712	city	9	1	0.400863	0.400863	0	1	0	0	CorrectCommission	2.528880	1.258098	0
92.776527	0.795843	city	5	1	0.897954	0.897954	0	1	0	0	CorrectCommission	0.938737	1.240488	0
93.572372	0.795844	city	8	1	0.798236	0.798236	0	1	0	0	CorrectCommission	0.243126	1.208050	0
94.368187	0.795779	city	3	1	0.607709	0.607709	0	1	0	0	CorrectCommission	1.085962	1.163822	0
95.163963	0.795780	city	10	1	0.499571	0.499571	0	1	0	0	CorrectCommission	1.840310	1.111161	0
95.959740	0.795775	city	6	1	0.664831	0.664831	0	1	0	0	CorrectCommission	0.687489	1.053404	0
96.755554	0.795849	city	4	1	0.649081	0.649081	0	1	0	0	CorrectCommission	0.797354	0.993612	0
97.551346	0.795741	city	6	1	0.717232	0.717232	0	1	0	0	CorrectCommission	0.321946	0.934211	0
98.347153	0.795861	city	9	1	0.698608	0.698608	0	1	0	0	CorrectCommission	0.451865	0.876946	0
99.142967	0.795770	city	2	1	0.603230	0.603230	0	1	0	0	CorrectCommission	1.117202	0.822848	0
99.938911	0.796127	mountain	3	1	0.599117	0.599117	0	0	1	0	CommissionError	1.145898	0.772324	0
100.734863	0.795776	city	10	1	0.598635	0.598635	0	1	0	0	CorrectCommission	1.149260	0.725362	0
101.530670	0.795835	city	7	1	0.747860	0.747860	0	1	0	0	CorrectCommission	0.108287	0.681666	0
102.326363	0.795541	city	4	1	0.714425	0.714425	0	1	0	0	CorrectCommission	0.341528	0.640889	1
103.122162	0.796062	city	1	1	0.648774	0.648774	0	1	0	0	CorrectCommission	0.799499	0.602686	1
103.918091	0.795799	city	10	1	0.598782	0.598782	0	1	0	0	CorrectCommission	1.148234	0.566816	1
104.713867	0.795762	city	5	1	0.800342	0.800342	0	1	0	0	CorrectCommission	0.257813	0.533210	1
105.509666	0.795834	city	2	1	0.757088	0.757088	0	1	0	0	CorrectCommission	0.043920	0.501961	1
106.305481	0.795792	city	10	1	0.705576	0.705576	0	1	0	0	CorrectCommission	0.403256	0.473251	1
107.101112	0.795469	city	9	1	0.698688	0.698688	0	1	0	0	CorrectCommission	0.451306	0.447236	1
107.896790	0.795883	city	1	1	0.662768	0.662768	0	1	0	0	CorrectCommission	0.701879	0.424079	1
108.692612	0.795758	city	5	1	0.747991	0.747991	0	1	0	0	CorrectCommission	0.107379	0.403819	1
109.488419	0.795856	city	2	1	0.698427	0.698427	0	1	0	0	CorrectCommission	0.453125	0.386410	1
110.284225	0.795771	city	1	1	0.813303	0.813303	0	1	0	0	CorrectCommission	0.348230	0.371683	1
111.080025	0.795824	city	7	1	0.748149	0.748149	0	1	0	0	CorrectCommission	0.106271	0.359389	1
111.875824	0.795765	mountain	10	0	0.000000	0.718435	1	0	0	0	CorrectOmission	0.313556	0.349188	1
112.671616	0.795830	city	2	1	0.748286	0.748286	0	1	0	0	CorrectCommission	0.105320	0.340731	1
113.467415	0.795761	city	7	1	0.861830	0.861830	0	1	0	0	CorrectCommission	0.686745	0.333742	1
114.263214	0.795833	city	5	1	0.715193	0.715193	0	1	0	0	CorrectCommission	0.336173	0.328011	1
115.059021	0.795783	city	4	1	0.797882	0.797882	0	1	0	0	CorrectCommission	0.240653	0.323532	1
115.854828	0.795832	city	1	1	0.667844	0.667844	0	1	0	0	CorrectCommission	0.666468	0.320451	1
116.650635	0.795782	city	4	1	0.806525	0.806525	0	1	0	0	CorrectCommission	0.300943	0.319017	1
117.446548	0.796046	city	7	1	0.748278	0.748278	0	1	0	0	CorrectCommission	0.105375	0.319606	1
118.242363	0.795583	city	3	1	0.716105	0.716105	0	1	0	0	CorrectCommission	0.329806	0.322576	1
119.038033	0.795766	city	10	1	0.754743	0.754743	0	1	0	0	CorrectCommission	0.060274	0.328203	1
119.833794	0.795752	city	5	1	0.798545	0.798545	0	1	0	0	CorrectCommission	0.245279	0.336570	1
120.629601	0.795866	city	6	1	0.798640	0.798640	0	1	0	0	CorrectCommission	0.245940	0.347499	1
121.425407	0.795736	city	10	1	0.709041	0.709041	0	1	0	0	CorrectCommission	0.379082	0.360490	1
122.221214	0.795888	city	5	1	0.748838	0.748838	0	1	0	0	CorrectCommission	0.101470	0.374774	1
123.017029	0.795738	mountain	1	1	0.665624	0.665624	0	0	1	0	CommissionError	0.681956	0.389394	1
123.812782	0.795767	city	6	1	0.748207	0.748207	0	1	0	0	CorrectCommission	0.105868	0.403239	1
124.608597	0.795861	city	4	1	0.698317	0.698317	0	1	0	0	CorrectCommission	0.453896	0.415270	1
125.404396	0.795743	city	10	1	0.660556	0.660556	0	1	0	0	CorrectCommission	0.717311	0.424611	1
126.200203	0.795860	city	7	1	0.864961	0.864961	0	1	0	0	CorrectCommission	0.708582	0.430760	1
126.996002	0.795750	city	8	1	0.748857	0.748857	0	1	0	0	CorrectCommission	0.101337	0.433622	1
127.791962	0.796159	city	4	1	0.553078	0.553078	0	1	0	0	CorrectCommission	1.467058	0.433616	1
128.587753	0.795433	city	9	1	0.853862	0.853862	0	1	0	0	CorrectCommission	0.631160	0.431505	1
129.383423	0.795915	city	2	1	0.748437	0.748437	0	1	0	0	CorrectCommission	0.104262	0.428421	1
130.179245	0.795720	mountain	2	0	0.000000	0.714739	1	0	0	0	CorrectOmission	0.339339	0.425613	1
130.975021	0.795841	mountain	9	0	0.000000	0.728123	1	0	0	0	CorrectOmission	0.245975	0.424197	1
131.770996	0.796085	city	5	1	0.763946	0.763946	0	1	0	0	CorrectCommission	0.003926	0.425017	1
132.566818	0.795560	city	4	1	0.797568	0.797568	0	1	0	0	CorrectCommission	0.238462	0.428466	1
133.362473	0.795763	city	5	1	0.748042	0.748042	0	1	0	0	CorrectCommission	0.107024	0.434384	1
134.158249	0.795800	city	6	1	0.797770	0.797770	0	1	0	0	CorrectCommission	0.239875	0.442118	1
134.954041	0.795756	city	8	1	0.752290	0.752290	0	1	0	0	CorrectCommission	0.077385	0.450621	1
135.749969	0.796100	city	2	1	0.602574	0.602574	0	1	0	0	CorrectCommission	1.121783	0.458650	1
136.545792	0.795551	city	8	1	0.649037	0.649037	0	1	0	0	CorrectCommission	0.797660	0.464973	1
137.341431	0.795745	city	9	1	0.661367	0.661367	0	1	0	0	CorrectCommission	0.711650	0.468648	1
138.137207	0.795797	city	8	1	0.601011	0.601011	0	1	0	0	CorrectCommission	1.132683	0.469132	1
138.933044	0.795888	mountain	6	0	0.000000	0.671828	1	0	0	0	CorrectOmission	0.638676	0.466358	1
139.728867	0.795733	mountain	2	0	0.000000	0.771548	1	0	0	0	CorrectOmission	0.056950	0.460799	1
140.524612	0.795777	city	2	1	0.797899	0.797899	0	1	0	0	CorrectCommission	0.240773	0.453301	1
141.320450	0.795891	city	9	1	0.648612	0.648612	0	1	0	0	CorrectCommission	0.800629	0.444938	1
142.116272	0.795767	city	7	1	0.764177	0.764177	0	1	0	0	CorrectCommission	0.005532	0.436816	1
142.912033	0.795746	city	10	1	0.698266	0.698266	0	1	0	0	CorrectCommission	0.454248	0.429914	1
143.707855	0.795903	city	8	1	0.748110	0.748110	0	1	0	0	CorrectCommission	0.106543	0.424859	1
144.503693	0.795776	city	7	1	0.762547	0.762547	0	1	0	0	CorrectCommission	0.005835	0.421940	1
145.299454	0.795733	city	5	1	0.798639	0.798639	0	1	0	0	CorrectCommission	0.245938	0.420976	1
146.095245	0.795852	city	2	1	0.847598	0.847598	0	1	0	0	CorrectCommission	0.587462	0.421446	1
146.891083	0.795825	city	7	1	0.897236	0.897236	0	1	0	0	CorrectCommission	0.933728	0.422573	1
147.686859	0.795726	city	3	1	0.856764	0.856764	0	1	0	0	CorrectCommission	0.651407	0.423433	1
148.482651	0.795842	city	10	1	0.854163	0.854163	0	1	0	0	CorrectCommission	0.633264	0.423132	1
149.278458	0.795780	city	1	1	0.801185	0.801185	0	1	0	0	CorrectCommission	0.263693	0.420914	1
150.074280	0.795877	city	3	1	0.748078	0.748078	0	1	0	0	CorrectCommission	0.106770	0.416252	1
150.870255	0.796072	city	6	1	0.748800	0.748800	0	1	0	0	CorrectCommission	0.101733	0.408900	1
151.666031	0.795484	city	2	1	0.648542	0.648542	0	1	0	0	CorrectCommission	0.801117	0.398897	1
152.461838	0.796106	mountain	9	0	0.000000	0.638845	1	0	0	0	CorrectOmission	0.868760	0.386609	1
153.257751	0.795740	city	1	1	0.698096	0.698096	0	1	0	0	CorrectCommission	0.455438	0.372707	1
154.053406	0.795557	city	7	1	0.804680	0.804680	0	1	0	0	CorrectCommission	0.288073	0.358143	1
154.849075	0.795806	mountain	4	1	0.803612	0.803612	0	0	1	0	CommissionError	0.280628	0.344083	1
155.644897	0.795815	city	6	1	0.755985	0.755985	0	1	0	0	CorrectCommission	0.051614	0.331789	1
156.440689	0.795788	city	5	1	0.748035	0.748035	0	1	0	0	CorrectCommission	0.107067	0.322566	1
157.236542	0.795900	city	4	1	0.862255	0.862255	0	1	0	0	CorrectCommission	0.689710	0.317670	1
158.032349	0.795727	city	7	1	0.748445	0.748445	0	1	0	0	CorrectCommission	0.104206	0.318118	1
158.828110	0.795792	city	8	1	0.748056	0.748056	0	1	0	0	CorrectCommission	0.106920	0.324659	1
159.623932	0.795837	city	4	1	0.748331	0.748331	0	1	0	0	CorrectCommission	0.105004	0.337667	1
160.419739	0.795776	city	1	1	0.747940	0.747940	0	1	0	0	CorrectCommission	0.107731	0.357039	1
161.215515	0.795790	city	4	1	0.698526	0.698526	0	1	0	0	CorrectCommission	0.452436	0.382199	1
162.011429	0.796030	city	6	1	0.798823	0.798823	0	1	0	0	CorrectCommission	0.247221	0.412139	1
162.807220	0.795547	city	7	1	0.767021	0.767021	0	1	0	0	CorrectCommission	0.025374	0.445496	1
163.602905	0.795819	city	2	1	0.748372	0.748372	0	1	0	0	CorrectCommission	0.104717	0.480691	1
164.398712	0.795823	city	3	1	0.648456	0.648456	0	1	0	0	CorrectCommission	0.801716	0.516058	1
165.194672	0.796092	city	9	1	0.600150	0.600150	0	1	0	0	CorrectCommission	1.138692	0.550043	1
165.990631	0.795801	city	10	1	0.598557	0.598557	0	1	0	0	CorrectCommission	1.149802	0.581387	1
166.786423	0.795802	city	5	1	0.716012	0.716012	0	1	0	0	CorrectCommission	0.330456	0.609277	1
167.582230	0.795802	city	10	1	0.660553	0.660553	0	1	0	0	CorrectCommission	0.717326	0.633425	1
168.377838	0.795430	city	9	1	0.598521	0.598521	0	1	0	0	CorrectCommission	1.150050	0.653975	0
169.173477	0.795827	city	8	1	0.659564	0.659564	0	1	0	0	CorrectCommission	0.724229	0.671442	0
169.969299	0.795836	city	1	1	0.655089	0.655089	0	1	0	0	CorrectCommission	0.755446	0.686646	0
170.765121	0.795794	city	3	1	0.798012	0.798012	0	1	0	0	CorrectCommission	0.241558	0.700506	0
171.560913	0.795806	city	9	1	0.748284	0.748284	0	1	0	0	CorrectCommission	0.105334	0.713894	0
172.356750	0.795845	city	5	1	0.606401	0.606401	0	1	0	0	CorrectCommission	1.095081	0.727495	0
173.152573	0.795798	city	8	1	0.698696	0.698696	0	1	0	0	CorrectCommission	0.451248	0.741722	0
173.948349	0.795781	city	3	1	0.648563	0.648563	0	1	0	0	CorrectCommission	0.800971	0.756789	0
174.744125	0.795773	city	10	1	0.598804	0.598804	0	1	0	0	CorrectCommission	1.148077	0.772610	0
175.539932	0.795812	city	5	1	0.660627	0.660627	0	1	0	0	CorrectCommission	0.716810	0.788947	0
176.335724	0.795794	city	6	1	0.718733	0.718733	0	1	0	0	CorrectCommission	0.311475	0.805495	0
177.131531	0.795805	city	7	1	0.599172	0.599172	0	1	0	0	CorrectCommission	1.145511	0.821936	0
177.927490	0.796117	city	4	1	0.599088	0.599088	0	1	0	0	CorrectCommission	1.146097	0.837966	0
178.723434	0.795769	city	10	1	0.549681	0.549681	0	1	0	0	CorrectCommission	1.490750	0.853409	0
179.519089	0.795531	city	4	1	0.649185	0.649185	0	1	0	0	CorrectCommission	0.796628	0.868182	0
180.314728	0.795759	city	1	1	0.699213	0.699213	0	1	0	0	CorrectCommission	0.447640	0.882379	0
181.110519	0.795821	city	10	1	0.748368	0.748368	0	1	0	0	CorrectCommission	0.104745	0.896200	0
181.906326	0.795809	mountain	3	0	0.000000	0.858199	1	0	0	0	CorrectOmission	0.661413	0.909978	0
182.702133	0.795798	city	7	1	0.947852	0.947852	0	1	0	0	CorrectCommission	1.286816	0.924139	0
183.497955	0.795848	mountain	7	0	0.000000	0.936474	1	0	0	0	CorrectOmission	1.207448	0.939282	0
184.293747	0.795714	city	1	1	0.915887	0.915887	0	1	0	0	CorrectCommission	1.063835	0.956157	0
185.089539	0.795875	mountain	8	0	0.000000	0.977910	1	0	0	0	CorrectOmission	1.496501	0.975623	0
185.885376	0.795805	city	1	1	0.997139	0.997139	0	1	0	0	CorrectCommission	1.630634	0.998490	0
186.681168	0.795768	city	5	1	0.848165	0.848165	0	1	0	0	CorrectCommission	0.591418	1.025422	0
187.476929	0.795772	city	4	1	0.717344	0.717344	0	1	0	0	CorrectCommission	0.321167	1.056741	0
188.272888	0.796133	city	5	1	0.698288	0.698288	0	1	0	0	CorrectCommission	0.454094	1.092214	0
189.068726	0.795544	city	3	1	0.648336	0.648336	0	1	0	0	CorrectCommission	0.802551	1.130903	0
189.864349	0.795715	city	1	1	0.649035	0.649035	0	1	0	0	CorrectCommission	0.797673	1.171027	0
190.660110	0.795814	city	6	1	0.604377	0.604377	0	1	0	0	CorrectCommission	1.109200	1.210257	0
191.456100	0.796154	city	10	1	0.554100	0.554100	0	1	0	0	CorrectCommission	1.459929	1.245809	0
192.251892	0.795433	city	8	1	0.517878	0.517878	0	1	0	0	CorrectCommission	1.712602	1.274744	0
193.047516	0.795822	city	3	1	0.499621	0.499621	0	1	0	0	CorrectCommission	1.839960	1.294517	0
193.843323	0.795778	city	2	1	0.463009	0.463009	0	1	0	0	CorrectCommission	2.095358	1.303306	0
194.639282	0.796140	city	1	1	0.549243	0.549243	0	1	0	0	CorrectCommission	1.493811	1.300348	0
195.435120	0.795542	city	6	1	0.499558	0.499558	0	1	0	0	CorrectCommission	1.840399	1.286182	0
196.230927	0.796061	city	10	1	0.553872	0.553872	0	1	0	0	CorrectCommission	1.461516	1.262578	0
197.026703	0.795508	city	9	1	0.511618	0.511618	0	1	0	0	CorrectCommission	1.756272	1.232456	0
197.822418	0.795910	mountain	7	1	0.599169	0.599169	0	0	1	0	CommissionError	1.145534	1.199451	0
198.618378	0.796020	city	6	1	0.996755	0.996755	0	1	0	0	CorrectCommission	1.627958	1.167475	0
199.414291	0.795795	city	9	1	0.747744	0.747744	0	1	0	0	CorrectCommission	0.109097	1.140063	0
200.209915	0.795448	city	8	1	0.698298	0.698298	0	1	0	0	CorrectCommission	0.454025	1.119946	0
201.005539	0.795796	city	2	1	0.748191	0.748191	0	1	0	0	CorrectCommission	0.105981	1.108498	0
201.801514	0.796157	city	1	1	0.713392	0.713392	0	1	0	0	CorrectCommission	0.348735	1.105629	0
202.597366	0.795545	city	6	1	0.797558	0.797558	0	1	0	0	CorrectCommission	0.238392	1.109714	0
203.392990	0.795711	mountain	8	0	0.000000	0.974973	1	0	0	0	CorrectOmission	1.476007	1.117878	0
204.188919	0.796150	city	6	1	1.047219	1.047219	0	1	0	0	CorrectCommission	1.979985	1.126429	0
204.984756	0.795529	city	3	1	0.815879	0.815879	0	1	0	0	CorrectCommission	0.366202	1.131477	0
205.780411	0.795765	city	6	1	1.164372	1.164372	0	1	0	0	CorrectCommission	2.797228	1.129590	0
206.576202	0.795833	city	9	1	1.195769	1.195769	0	1	0	0	CorrectCommission	3.016247	1.118050	0
207.371994	0.795760	city	7	0	0.000000	0.832834	0	0	0	1	OmissionError	0.484471	1.095438	0
208.167801	0.795839	city	5	1	0.506752	0.506752	0	1	0	0	CorrectCommission	1.790217	1.061774	0
208.963593	0.795733	city	3	1	0.648711	0.648711	0	1	0	0	CorrectCommission	0.799935	1.018186	0
209.759384	0.795856	city	1	1	0.617433	0.617433	0	1	0	0	CorrectCommission	1.018129	0.966878	0
210.555206	0.795795	city	5	1	0.659167	0.659167	0	1	0	0	CorrectCommission	0.727000	0.910587	0
211.351028	0.795846	city	8	1	0.802962	0.802962	0	1	0	0	CorrectCommission	0.276095	0.852226	0
212.146973	0.796056	city	4	1	0.797706	0.797706	0	1	0	0	CorrectCommission	0.239429	0.794511	0
212.942780	0.795536	mountain	6	0	0.000000	0.819883	1	0	0	0	CorrectOmission	0.394133	0.739587	0
213.738419	0.795743	city	3	1	0.847787	0.847787	0	1	0	0	CorrectCommission	0.588780	0.688920	0
214.534210	0.795845	city	10	1	0.859708	0.859708	0	1	0	0	CorrectCommission	0.671944	0.643256	1
215.329987	0.795731	city	5	1	0.897193	0.897193	0	1	0	0	CorrectCommission	0.933430	0.602765	1
216.125793	0.795866	city	3	1	0.848143	0.848143	0	1	0	0	CorrectCommission	0.591267	0.567148	1
216.921616	0.795795	city	2	1	0.897261	0.897261	0	1	0	0	CorrectCommission	0.933904	0.535898	1
217.717438	0.795829	city	4	1	0.848189	0.848189	0	1	0	0	CorrectCommission	0.591588	0.508413	1
218.513229	0.795763	city	3	1	0.748144	0.748144	0	1	0	0	CorrectCommission	0.106311	0.484196	1
219.308990	0.795745	city	9	1	0.748819	0.748819	0	1	0	0	CorrectCommission	0.101602	0.462910	1
220.104767	0.795809	city	6	1	0.748153	0.748153	0	1	0	0	CorrectCommission	0.106246	0.444421	1
220.900574	0.795818	city	2	1	0.660605	0.660605	0	1	0	0	CorrectCommission	0.716963	0.428707	1
221.696533	0.796103	city	9	1	0.698468	0.698468	0	1	0	0	CorrectCommission	0.452838	0.415846	1
222.492325	0.795487	city	5	1	0.698810	0.698810	0	1	0	0	CorrectCommission	0.450455	0.406036	1
223.288162	0.796165	city	1	1	0.699840	0.699840	0	1	0	0	CorrectCommission	0.443267	0.399397	1
224.084137	0.795792	city	3	1	0.798627	0.798627	0	1	0	0	CorrectCommission	0.245848	0.395946	1
224.879944	0.795812	city	5	1	0.698068	0.698068	0	1	0	0	CorrectCommission	0.455632	0.395646	1
225.675583	0.795481	city	3	1	0.750491	0.750491	0	1	0	0	CorrectCommission	0.089936	0.398234	1
226.471375	0.796089	city	1	1	0.798021	0.798021	0	1	0	0	CorrectCommission	0.241623	0.403300	1
227.267181	0.795543	city	4	1	0.659078	0.659078	0	1	0	0	CorrectCommission	0.727615	0.410209	1
228.062836	0.795769	city	7	1	0.748161	0.748161	0	1	0	0	CorrectCommission	0.106188	0.418157	1
228.858795	0.796125	city	6	1	0.748946	0.748946	0	1	0	0	CorrectCommission	0.100717	0.426258	1
229.654739	0.795768	city	1	1	0.797701	0.797701	0	1	0	0	CorrectCommission	0.239390	0.433573	1
230.450363	0.795476	mountain	4	0	0.000000	0.912939	1	0	0	0	CorrectOmission	1.043275	0.439198	1
231.246017	0.795846	city	6	1	0.958597	0.958597	0	1	0	0	CorrectCommission	1.361771	0.442297	1
232.041855	0.795822	city	10	1	0.798607	0.798607	0	1	0	0	CorrectCommission	0.245715	0.442265	1
232.837631	0.795735	city	7	1	0.797853	0.797853	0	1	0	0	CorrectCommission	0.240449	0.438785	1
233.633423	0.795855	city	4	1	0.753002	0.753002	0	1	0	0	CorrectCommission	0.072420	0.431798	1
234.429276	0.795834	mountain	5	1	0.797813	0.797813	0	0	1	0	CommissionError	0.240173	0.421535	1
235.225204	0.796045	city	5	1	0.599172	0.599172	0	1	0	0	CorrectCommission	1.145510	0.408527	1
236.020996	0.795520	city	10	1	0.748243	0.748243	0	1	0	0	CorrectCommission	0.105615	0.393524	1
236.816666	0.795820	city	8	1	0.897538	0.897538	0	1	0	0	CorrectCommission	0.935835	0.377527	1
237.612442	0.795742	city	6	1	0.798051	0.798051	0	1	0	0	CorrectCommission	0.241830	0.361616	1
238.408234	0.795833	city	3	1	0.806193	0.806193	0	1	0	0	CorrectCommission	0.298630	0.346945	1
239.204071	0.795861	city	1	1	0.749037	0.749037	0	1	0	0	CorrectCommission	0.100081	0.334602	1
239.999863	0.795699	city	2	1	0.759675	0.759675	0	1	0	0	CorrectCommission	0.025868	0.325547	1
240.795792	0.796166	city	4	1	0.798503	0.798503	0	1	0	0	CorrectCommission	0.244989	0.320559	1
241.591751	0.795763	city	5	1	0.798827	0.798827	0	1	0	0	CorrectCommission	0.247247	0.320186	1
242.387375	0.795482	city	1	1	0.766805	0.766805	0	1	0	0	CorrectCommission	0.023867	0.324763	1
243.183197	0.796152	city	7	1	0.800840	0.800840	0	1	0	0	CorrectCommission	0.261289	0.334484	1
243.979034	0.795535	city	8	1	0.747861	0.747861	0	1	0	0	CorrectCommission	0.108286	0.349411	1
244.774673	0.795754	city	9	1	0.849054	0.849054	0	1	0	0	CorrectCommission	0.597623	0.369518	1
245.570618	0.796126	city	1	1	0.897374	0.897374	0	1	0	0	CorrectCommission	0.934694	0.394698	1
246.366455	0.795530	city	8	1	0.754346	0.754346	0	1	0	0	CorrectCommission	0.063048	0.424755	1
247.162125	0.795809	city	5	1	0.698282	0.698282	0	1	0	0	CorrectCommission	0.454135	0.459384	1
247.958038	0.796029	city	9	1	0.699020	0.699020	0	1	0	0	CorrectCommission	0.448993	0.497973	1
248.753799	0.795500	city	4	1	0.702500	0.702500	0	1	0	0	CorrectCommission	0.424711	0.539591	1
249.549469	0.795845	city	6	1	0.749330	0.749330	0	1	0	0	CorrectCommission	0.098033	0.582947	1
250.345291	0.795803	city	9	1	0.665372	0.665372	0	1	0	0	CorrectCommission	0.683712	0.626359	1
251.141098	0.795811	city	1	1	0.715507	0.715507	0	1	0	0	CorrectCommission	0.333979	0.667775	0
251.936874	0.795716	city	8	1	0.748499	0.748499	0	1	0	0	CorrectCommission	0.103833	0.705011	0
252.732803	0.796158	city	1	1	0.618141	0.618141	0	1	0	0	CorrectCommission	1.013190	0.735924	0
253.528641	0.795520	city	2	1	0.551249	0.551249	0	1	0	0	CorrectCommission	1.479813	0.758666	0
254.324310	0.795804	city	10	1	0.502086	0.502086	0	1	0	0	CorrectCommission	1.822767	0.771960	0
255.120117	0.795811	city	6	1	0.549302	0.549302	0	1	0	0	CorrectCommission	1.493398	0.775332	0
255.915909	0.795765	mountain	3	1	0.549699	0.549699	0	0	1	0	CommissionError	1.490625	0.769203	0
256.711670	0.795753	city	7	1	0.648914	0.648914	0	1	0	0	CorrectCommission	0.798520	0.754861	0
257.507477	0.795852	city	3	1	0.757503	0.757503	0	1	0	0	CorrectCommission	0.041023	0.734297	0
258.303284	0.795778	city	9	1	0.802844	0.802844	0	1	0	0	CorrectCommission	0.275268	0.710002	0
259.099091	0.795868	mountain	8	0	0.000000	0.839562	1	0	0	0	CorrectOmission	0.531403	0.684590	0
259.894928	0.795758	city	5	1	0.847784	0.847784	0	1	0	0	CorrectCommission	0.588764	0.660654	0
260.690674	0.795755	city	1	1	0.807641	0.807641	0	1	0	0	CorrectCommission	0.308731	0.640488	1
261.486481	0.795869	mountain	4	0	0.000000	0.843548	1	0	0	0	CorrectOmission	0.559213	0.625981	1
262.282318	0.795788	city	6	1	0.848333	0.848333	0	1	0	0	CorrectCommission	0.592588	0.618467	1
263.078094	0.795795	city	4	1	0.714821	0.714821	0	1	0	0	CorrectCommission	0.338766	0.618767	1
263.873871	0.795751	city	5	1	0.847563	0.847563	0	1	0	0	CorrectCommission	0.587221	0.627225	1
264.669708	0.795904	city	9	1	0.649468	0.649468	0	1	0	0	CorrectCommission	0.794659	0.643741	0
265.465546	0.795751	city	3	1	0.648985	0.648985	0	1	0	0	CorrectCommission	0.798023	0.667729	0
266.261475	0.796099	city	2	1	0.699019	0.699019	0	1	0	0	CorrectCommission	0.448994	0.698232	0
267.057281	0.795546	city	7	1	0.698342	0.698342	0	1	0	0	CorrectCommission	0.453719	0.733934	0
267.853088	0.796060	city	3	1	0.603722	0.603722	0	1	0	0	CorrectCommission	1.113774	0.773116	0
268.648834	0.795465	city	8	1	0.798267	0.798267	0	1	0	0	CorrectCommission	0.243341	0.813755	0
269.444489	0.795811	city	6	1	0.748844	0.748844	0	1	0	0	CorrectCommission	0.101424	0.853704	0
270.240326	0.795861	city	7	1	0.847886	0.847886	0	1	0	0	CorrectCommission	0.589472	0.890646	0
271.036133	0.795761	city	3	1	0.914411	0.914411	0	1	0	0	CorrectCommission	1.053543	0.922419	0
271.832062	0.796115	city	6	1	1.113882	1.113882	0	1	0	0	CorrectCommission	2.445016	0.947203	0
272.627899	0.795519	city	5	1	0.997373	0.997373	0	1	0	0	CorrectCommission	1.632267	0.963782	0
273.423553	0.795793	city	6	1	1.050801	1.050801	0	1	0	0	CorrectCommission	2.004975	0.971783	0
274.219299	0.795731	mountain	2	0	0.000000	0.825957	1	0	0	0	CorrectOmission	0.436501	0.971674	0
275.015106	0.795860	city	6	1	0.599701	0.599701	0	1	0	0	CorrectCommission	1.141818	0.964861	0
275.810944	0.795819	city	9	1	0.648896	0.648896	0	1	0	0	CorrectCommission	0.798645	0.953368	0
276.606903	0.796097	city	10	1	0.648895	0.648895	0	1	0	0	CorrectCommission	0.798654	0.939759	0
277.402832	0.795800	city	8	1	0.747947	0.747947	0	1	0	0	CorrectCommission	0.107682	0.926794	0
278.198486	0.795494	city	3	1	0.667232	0.667232	0	1	0	0	CorrectCommission	0.670738	0.917250	0
278.994110	0.795743	city	10	1	0.648914	0.648914	0	1	0	0	CorrectCommission	0.798522	0.913586	0
279.789917	0.795867	city	9	1	1.100958	1.100958	0	1	0	0	CorrectCommission	2.354861	0.917775	0
280.585754	0.795830	city	2	1	0.800496	0.800496	0	1	0	0	CorrectCommission	0.258891	0.931134	0
281.381531	0.795723	city	7	1	0.798071	0.798071	0	1	0	0	CorrectCommission	0.241970	0.954388	0
282.177338	0.795872	city	4	1	0.798602	0.798602	0	1	0	0	CorrectCommission	0.245676	0.987409	0
282.973145	0.795718	city	7	1	0.761866	0.761866	0	1	0	0	CorrectCommission	0.010586	1.029376	0
283.768921	0.795853	city	6	1	0.947548	0.947548	0	1	0	0	CorrectCommission	1.284695	1.078864	0
284.564880	0.796089	city	10	1	1.149625	1.149625	0	1	0	0	CorrectCommission	2.694351	1.133912	0
285.360687	0.795529	city	5	0	0.000000	0.863691	0	0	0	1	OmissionError	0.699725	1.192167	0
286.156372	0.795789	city	4	1	0.549035	0.549035	0	1	0	0	CorrectCommission	1.495262	1.251232	0
286.952148	0.795819	city	9	1	0.664946	0.664946	0	1	0	0	CorrectCommission	0.686686	1.308545	0
287.747955	0.795761	city	7	1	0.570653	0.570653	0	1	0	0	CorrectCommission	1.344453	1.361679	0
288.543701	0.795769	city	5	1	0.549359	0.549359	0	1	0	0	CorrectCommission	1.493001	1.408389	0
289.339539	0.795856	city	4	1	0.500147	0.500147	0	1	0	0	CorrectCommission	1.836292	1.446692	0
290.135345	0.795803	city	10	1	0.450264	0.450264	0	1	0	0	CorrectCommission	2.184270	1.475035	0
290.931183	0.795815	city	2	1	0.499716	0.499716	0	1	0	0	CorrectCommission	1.839301	1.492261	0
291.726990	0.795836	city	6	1	0.500629	0.500629	0	1	0	0	CorrectCommission	1.832930	1.497754	0
292.522766	0.795704	city	3	1	0.615873	0.615873	0	1	0	0	CorrectCommission	1.029008	1.491340	0
293.318542	0.795848	city	10	1	0.549254	0.549254	0	1	0	0	CorrectCommission	1.493732	1.473327	0
294.114502	0.796105	city	2	1	0.464003	0.464003	0	1	0	0	CorrectCommission	2.088426	1.444400	0
294.910309	0.795511	city	7	1	0.555593	0.555593	0	1	0	0	CorrectCommission	1.449511	1.405591	0
295.706116	0.796091	city	3	1	0.499317	0.499317	0	1	0	0	CorrectCommission	1.842081	1.358214	0
296.501892	0.795468	city	8	1	0.500056	0.500056	0	1	0	0	CorrectCommission	1.836925	1.303757	0
297.297546	0.795789	city	4	1	0.698401	0.698401	0	1	0	0	CorrectCommission	0.453309	1.243766	0
298.093353	0.795844	city	3	1	0.652853	0.652853	0	1	0	0	CorrectCommission	0.771039	1.179945	0
298.889191	0.795829	city	5	1	0.615224	0.615224	0	1	0	0	CorrectCommission	1.033533	1.113897	0
299.685120	0.796067	city	8	1	0.549982	0.549982	0	1	0	0	CorrectCommission	1.488652	1.047171	0
300.480927	0.795507	city	10	1	0.598582	0.598582	0	1	0	0	CorrectCommission	1.149630	0.981237	0
301.276611	0.795851	city	3	1	0.947761	0.947761	0	1	0	0	CorrectCommission	1.286187	0.917464	0
302.072540	0.796057	city	6	1	0.847421	0.847421	0	1	0	0	CorrectCommission	0.586233	0.857038	0
302.868500	0.795805	city	2	1	0.748104	0.748104	0	1	0	0	CorrectCommission	0.106588	0.801083	0
303.664124	0.795500	city	6	1	0.897816	0.897816	0	1	0	0	CorrectCommission	0.937775	0.750507	0
304.459930	0.796107	city	3	1	0.797916	0.797916	0	1	0	0	CorrectCommission	0.240889	0.705986	0
305.255707	0.795443	city	9	1	0.896969	0.896969	0	1	0	0	CorrectCommission	0.931868	0.667998	0
306.051361	0.795869	city	4	1	0.811752	0.811752	0	1	0	0	CorrectCommission	0.337408	0.636680	1
306.847198	0.795805	mountain	5	0	0.000000	0.821701	1	0	0	0	CorrectOmission	0.406809	0.611933	1
307.642975	0.795737	city	4	1	0.847523	0.847523	0	1	0	0	CorrectCommission	0.586943	0.593349	1
308.438782	0.795875	city	5	1	0.809927	0.809927	0	1	0	0	CorrectCommission	0.324680	0.580247	1
309.234589	0.795717	city	3	1	0.897329	0.897329	0	1	0	0	CorrectCommission	0.934377	0.571744	1
310.030518	0.796128	city	8	1	0.851482	0.851482	0	1	0	0	CorrectCommission	0.614558	0.566794	1
310.826324	0.795495	city	5	1	0.747842	0.747842	0	1	0	0	CorrectCommission	0.108417	0.564274	1
311.621979	0.795842	mountain	4	1	0.699229	0.699229	0	0	1	0	CommissionError	0.447529	0.563097	1
312.417816	0.795828	mountain	6	0	0.000000	0.809050	1	0	0	0	CorrectOmission	0.318563	0.562262	1
313.213593	0.795732	city	2	1	0.913221	0.913221	0	1	0	0	CorrectCommission	1.045238	0.561012	1
314.009399	0.795881	city	1	1	0.847656	0.847656	0	1	0	0	CorrectCommission	0.587871	0.558962	1
314.805237	0.795788	city	3	1	0.897548	0.897548	0	1	0	0	CorrectCommission	0.935910	0.556150	1
315.601044	0.795821	mountain	6	0	0.000000	0.880753	1	0	0	0	CorrectOmission	0.818749	0.553065	1
316.396820	0.795702	city	8	1	0.847569	0.847569	0	1	0	0	CorrectCommission	0.587260	0.550601	1
317.192596	0.795853	city	6	1	0.848293	0.848293	0	1	0	0	CorrectCommission	0.592314	0.550007	1
317.988434	0.795831	city	10	1	0.748728	0.748728	0	1	0	0	CorrectCommission	0.102237	0.552728	1
318.784241	0.795823	city	4	1	0.797825	0.797825	0	1	0	0	CorrectCommission	0.240258	0.560214	1
319.580200	0.796058	city	6	1	0.797694	0.797694	0	1	0	0	CorrectCommission	0.239341	0.573724	1
320.375977	0.795488	city	2	1	0.648571	0.648571	0	1	0	0	CorrectCommission	0.800916	0.594157	1
321.171600	0.795807	city	7	1	0.798494	0.798494	0	1	0	0	CorrectCommission	0.244925	0.621816	1
321.967590	0.796119	city	1	1	0.698276	0.698276	0	1	0	0	CorrectCommission	0.454182	0.656439	0
322.763519	0.795782	city	3	1	0.648562	0.648562	0	1	0	0	CorrectCommission	0.800976	0.697024	0
323.559143	0.795450	city	8	1	0.797624	0.797624	0	1	0	0	CorrectCommission	0.238857	0.741946	0
324.354797	0.795875	city	4	1	0.854209	0.854209	0	1	0	0	CorrectCommission	0.633579	0.789103	0
325.150635	0.795782	city	1	1	0.919980	0.919980	0	1	0	0	CorrectCommission	1.092386	0.836012	0
325.946442	0.795843	city	2	0	0.000000	0.670374	0	0	0	1	OmissionError	0.648818	0.880106	0
326.742218	0.795723	city	3	1	0.516134	0.516134	0	1	0	0	CorrectCommission	1.724773	0.918933	0
327.538025	0.795888	city	1	1	0.868000	0.868000	0	1	0	0	CorrectCommission	0.729783	0.950382	0
328.333984	0.796022	city	5	1	0.851176	0.851176	0	1	0	0	CorrectCommission	0.612423	0.972928	0
329.129761	0.795533	city	6	1	1.209741	1.209741	0	1	0	0	CorrectCommission	3.113711	0.985658	0
329.925446	0.795805	city	8	0	0.000000	0.900644	0	0	0	1	OmissionError	0.957502	0.988260	0
330.721222	0.795759	city	5	1	0.553537	0.553537	0	1	0	0	CorrectCommission	1.463857	0.981185	0
331.517029	0.795863	city	2	1	0.798072	0.798072	0	1	0	0	CorrectCommission	0.241979	0.965294	0
332.312866	0.795799	city	9	1	0.649271	0.649271	0	1	0	0	CorrectCommission	0.796033	0.941826	0
333.108643	0.795753	city	7	1	0.648647	0.648647	0	1	0	0	CorrectCommission	0.800385	0.912134	0
333.904449	0.795859	city	1	1	0.698591	0.698591	0	1	0	0	CorrectCommission	0.451984	0.877573	0
334.700409	0.796092	city	9	1	0.648813	0.648813	0	1	0	0	CorrectCommission	0.799226	0.839442	0
335.496216	0.795519	city	8	1	0.599243	0.599243	0	1	0	0	CorrectCommission	1.145018	0.798890	0
336.291840	0.795719	city	10	1	0.604448	0.604448	0	1	0	0	CorrectCommission	1.108706	0.756948	0
337.087646	0.795898	city	1	1	0.561015	0.561015	0	1	0	0	CorrectCommission	1.411685	0.714585	0
337.883453	0.795708	city	6	1	0.660355	0.660355	0	1	0	0	CorrectCommission	0.718710	0.672676	0
338.679382	0.796163	city	5	1	0.748506	0.748506	0	1	0	0	CorrectCommission	0.103783	0.632089	1
339.475311	0.795706	city	4	1	0.798834	0.798834	0	1	0	0	CorrectCommission	0.247294	0.593606	1
340.270966	0.795597	city	2	1	0.747914	0.747914	0	1	0	0	CorrectCommission	0.107915	0.557858	1
341.066803	0.796082	city	5	1	0.653829	0.653829	0	1	0	0	CorrectCommission	0.764231	0.525320	1
341.862762	0.795813	city	1	1	0.754619	0.754619	0	1	0	0	CorrectCommission	0.061137	0.496220	1
342.658386	0.795450	city	10	1	0.946686	0.946686	0	1	0	0	CorrectCommission	1.278686	0.470577	1
343.454071	0.795887	city	4	1	0.748353	0.748353	0	1	0	0	CorrectCommission	0.104850	0.448144	1
344.249908	0.795795	city	7	1	0.760028	0.760028	0	1	0	0	CorrectCommission	0.023410	0.428500	1
345.045685	0.795791	city	5	1	0.804964	0.804964	0	1	0	0	CorrectCommission	0.290056	0.411095	1
345.841492	0.795801	city	1	1	0.698552	0.698552	0	1	0	0	CorrectCommission	0.452255	0.395347	1
346.637421	0.796070	mountain	1	0	0.000000	0.698708	1	0	0	0	CorrectOmission	0.451169	0.380653	1
347.433197	0.795459	city	9	1	0.703431	0.703431	0	1	0	0	CorrectCommission	0.418219	0.366631	1
348.229004	0.796151	city	2	1	0.610723	0.610723	0	1	0	0	CorrectCommission	1.064937	0.353098	1
349.024963	0.795775	city	9	1	0.761380	0.761380	0	1	0	0	CorrectCommission	0.013976	0.340090	1
349.820770	0.795833	city	5	1	0.698889	0.698889	0	1	0	0	CorrectCommission	0.449902	0.327913	1
350.616394	0.795440	city	9	1	0.748492	0.748492	0	1	0	0	CorrectCommission	0.103883	0.316990	1
351.412048	0.795860	city	6	1	0.748924	0.748924	0	1	0	0	CorrectCommission	0.100867	0.307839	1
352.208038	0.796100	city	2	1	0.713813	0.713813	0	1	0	0	CorrectCommission	0.345798	0.300947	1
353.003845	0.795522	city	9	1	0.798411	0.798411	0	1	0	0	CorrectCommission	0.244341	0.296672	1
353.799500	0.795786	city	1	1	0.755612	0.755612	0	1	0	0	CorrectCommission	0.054217	0.295221	1
354.595276	0.795768	city	9	1	0.767041	0.767041	0	1	0	0	CorrectCommission	0.025515	0.296549	1
355.391052	0.795786	city	5	1	0.707580	0.707580	0	1	0	0	CorrectCommission	0.389274	0.300427	1
356.187012	0.796133	city	1	1	0.748934	0.748934	0	1	0	0	CorrectCommission	0.100800	0.306485	1
356.982819	0.795512	city	3	1	0.698030	0.698030	0	1	0	0	CorrectCommission	0.455895	0.314276	1
357.778656	0.796121	mountain	4	1	0.698235	0.698235	0	0	1	0	CommissionError	0.454468	0.323347	1
358.574615	0.795791	city	8	1	0.905342	0.905342	0	1	0	0	CorrectCommission	0.990274	0.333327	1
359.370239	0.795475	city	6	1	0.748619	0.748619	0	1	0	0	CorrectCommission	0.102996	0.343953	1
360.165894	0.795813	city	7	1	0.797833	0.797833	0	1	0	0	CorrectCommission	0.240312	0.355134	1
360.961670	0.795778	city	4	1	0.748014	0.748014	0	1	0	0	CorrectCommission	0.107219	0.366881	1
361.757507	0.795865	city	5	1	0.748034	0.748034	0	1	0	0	CorrectCommission	0.107074	0.379373	1
362.553314	0.795787	city	1	1	0.807264	0.807264	0	1	0	0	CorrectCommission	0.306104	0.392867	1
363.349274	0.796087	city	4	1	0.909719	0.909719	0	1	0	0	CorrectCommission	1.020811	0.407692	1
364.145203	0.795806	city	8	1	0.797457	0.797457	0	1	0	0	CorrectCommission	0.237690	0.424191	1
364.940857	0.795506	city	7	1	0.811376	0.811376	0	1	0	0	CorrectCommission	0.334788	0.442784	1
365.736542	0.795820	city	5	1	0.848488	0.848488	0	1	0	0	CorrectCommission	0.593676	0.463837	1
366.532288	0.795728	city	2	1	0.765246	0.765246	0	1	0	0	CorrectCommission	0.012990	0.487732	1
367.328064	0.795810	mountain	1	1	0.704927	0.704927	0	0	1	0	CommissionError	0.407785	0.514829	1
368.123901	0.795857	city	8	1	0.653123	0.653123	0	1	0	0	CorrectCommission	0.769157	0.545334	1
368.919708	0.795726	city	4	1	0.946999	0.946999	0	1	0	0	CorrectCommission	1.280868	0.579286	1
369.715485	0.795876	city	6	1	0.767274	0.767274	0	1	0	0	CorrectCommission	0.027141	0.616502	1
370.511475	0.796102	city	3	1	0.748343	0.748343	0	1	0	0	CorrectCommission	0.104922	0.656534	0
371.307281	0.795485	city	7	1	0.854018	0.854018	0	1	0	0	CorrectCommission	0.632251	0.698544	0
372.102905	0.795794	city	6	1	0.698441	0.698441	0	1	0	0	CorrectCommission	0.453032	0.741311	0
372.898682	0.795756	city	5	1	0.648917	0.648917	0	1	0	0	CorrectCommission	0.798497	0.783293	0
373.694489	0.795845	city	4	1	0.996730	0.996730	0	1	0	0	CorrectCommission	1.627781	0.822676	0
374.490326	0.795804	city	9	1	0.654436	0.654436	0	1	0	0	CorrectCommission	0.760002	0.857489	0
375.286133	0.795806	city	6	1	0.599187	0.599187	0	1	0	0	CorrectCommission	1.145411	0.885871	0
376.081940	0.795833	city	10	1	0.748307	0.748307	0	1	0	0	CorrectCommission	0.105173	0.906071	0
376.877716	0.795731	city	6	1	0.948428	0.948428	0	1	0	0	CorrectCommission	1.290837	0.916808	0
377.673492	0.795821	mountain	6	1	0.996998	0.996998	0	0	1	0	CommissionError	1.629652	0.917256	0
378.469299	0.795777	city	4	1	1.047190	1.047190	0	1	0	0	CorrectCommission	1.979783	0.907258	0
379.265137	0.795872	city	9	0	0.000000	0.963747	0	0	0	1	OmissionError	1.397699	0.887334	0
380.060944	0.795750	city	8	1	0.847734	0.847734	0	1	0	0	CorrectCommission	0.588417	0.858669	0
380.856750	0.795874	city	9	1	0.800218	0.800218	0	1	0	0	CorrectCommission	0.256953	0.822956	0
381.652557	0.795768	city	1	1	0.859095	0.859095	0	1	0	0	CorrectCommission	0.667667	0.782281	0
382.448364	0.795799	city	4	1	0.947925	0.947925	0	1	0	0	CorrectCommission	1.287331	0.738864	0
383.244171	0.795824	city	8	1	0.710373	0.710373	0	1	0	0	CorrectCommission	0.369791	0.694922	0
384.040131	0.796089	city	6	1	0.756724	0.756724	0	1	0	0	CorrectCommission	0.046456	0.652561	0
384.835968	0.795584	city	10	1	0.605143	0.605143	0	1	0	0	CorrectCommission	1.103860	0.613567	1
385.631744	0.795971	city	8	1	0.698655	0.698655	0	1	0	0	CorrectCommission	0.451534	0.579321	1
386.427490	0.795571	city	4	1	0.814055	0.814055	0	1	0	0	CorrectCommission	0.353473	0.550812	1
387.223206	0.795810	city	1	1	0.798076	0.798076	0	1	0	0	CorrectCommission	0.242008	0.528638	1
388.018982	0.795794	city	4	1	0.799602	0.799602	0	1	0	0	CorrectCommission	0.252654	0.513023	1
388.814789	0.795814	city	3	1	0.798633	0.798633	0	1	0	0	CorrectCommission	0.245893	0.503797	1
389.610748	0.796061	city	10	1	0.848227	0.848227	0	1	0	0	CorrectCommission	0.591851	0.500565	1
390.406494	0.795486	city	6	1	0.948028	0.948028	0	1	0	0	CorrectCommission	1.288045	0.502663	1
391.202148	0.795814	city	1	1	0.752440	0.752440	0	1	0	0	CorrectCommission	0.076340	0.509254	1
391.998108	0.796079	city	7	1	0.748311	0.748311	0	1	0	0	CorrectCommission	0.105143	0.519504	1
392.793884	0.795487	city	1	1	0.798265	0.798265	0	1	0	0	CorrectCommission	0.243329	0.532462	1
393.589569	0.795850	city	8	1	0.700767	0.700767	0	1	0	0	CorrectCommission	0.436800	0.547201	1
394.385376	0.795785	city	10	1	0.648492	0.648492	0	1	0	0	CorrectCommission	0.801461	0.562847	1
395.181152	0.795772	city	6	1	0.648747	0.648747	0	1	0	0	CorrectCommission	0.799684	0.578589	1
395.976929	0.795789	city	4	1	0.665479	0.665479	0	1	0	0	CorrectCommission	0.682965	0.593805	1
396.772766	0.795883	city	10	1	0.613457	0.613457	0	1	0	0	CorrectCommission	1.045861	0.608036	1
397.568604	0.795774	city	3	1	0.704186	0.704186	0	1	0	0	CorrectCommission	0.412954	0.621014	1
398.364380	0.795768	city	8	1	0.648676	0.648676	0	1	0	0	CorrectCommission	0.800180	0.632659	1
399.160126	0.795773	mountain	9	0	0.000000	0.708137	1	0	0	0	CorrectOmission	0.385390	0.643016	1
399.955933	0.795846	city	4	1	0.814782	0.814782	0	1	0	0	CorrectCommission	0.358548	0.652272	0
400.751801	0.795844	city	2	1	0.900824	0.900824	0	1	0	0	CorrectCommission	0.958763	0.660657	0
401.547607	0.795780	city	6	1	0.811386	0.811386	0	1	0	0	CorrectCommission	0.334855	0.668508	0
402.343414	0.795815	city	3	1	0.866158	0.866158	0	1	0	0	CorrectCommission	0.716935	0.676241	0
403.139191	0.795788	city	5	1	0.951324	0.951324	0	1	0	0	CorrectCommission	1.311037	0.684338	0
403.935028	0.795841	city	6	0	0.000000	0.741110	0	0	0	1	OmissionError	0.155375	0.693421	0
404.730835	0.795767	city	3	1	0.563898	0.563898	0	1	0	0	CorrectCommission	1.391580	0.704236	0
405.526764	0.796099	city	4	1	0.748065	0.748065	0	1	0	0	CorrectCommission	0.106858	0.717557	0
406.322540	0.795442	city	7	1	0.847563	0.847563	0	1	0	0	CorrectCommission	0.587222	0.734302	0
407.118164	0.795844	mountain	7	0	0.000000	0.905498	1	0	0	0	CorrectOmission	0.991367	0.755273	0
407.914001	0.795810	city	5	1	0.897268	0.897268	0	1	0	0	CorrectCommission	0.933952	0.781188	0
408.709808	0.795799	city	10	1	0.798269	0.798269	0	1	0	0	CorrectCommission	0.243354	0.812645	0
409.505737	0.796075	city	9	1	0.901030	0.901030	0	1	0	0	CorrectCommission	0.960196	0.849992	0
410.301544	0.795518	mountain	9	1	0.766230	0.766230	0	0	1	0	CommissionError	0.019858	0.893188	0
411.097351	0.796110	city	5	1	0.600085	0.600085	0	1	0	0	CorrectCommission	1.139145	0.941911	0
411.893188	0.795543	city	10	1	0.648606	0.648606	0	1	0	0	CorrectCommission	0.800671	0.995409	0
412.688965	0.796045	city	6	1	0.947212	0.947212	0	1	0	0	CorrectCommission	1.282354	1.052626	0
413.484772	0.795533	city	2	1	0.847292	0.847292	0	1	0	0	CorrectCommission	0.585332	1.112173	0
414.280426	0.795822	mountain	7	0	0.000000	0.998770	1	0	0	0	CorrectOmission	1.642014	1.172398	0
415.076385	0.796070	city	2	1	1.097068	1.097068	0	1	0	0	CorrectCommission	2.327721	1.231450	0
415.872192	0.795523	city	4	0	0.000000	0.837608	0	0	0	1	OmissionError	0.517777	1.287300	0
416.667816	0.795776	city	8	1	0.558752	0.558752	0	1	0	0	CorrectCommission	1.427474	1.337912	0
417.463776	0.796109	city	10	1	0.598860	0.598860	0	1	0	0	CorrectCommission	1.147688	1.381167	0
418.259583	0.795504	city	2	1	0.896970	0.896970	0	1	0	0	CorrectCommission	0.931875	1.415141	0
419.055237	0.795819	city	8	1	1.113689	1.113689	0	1	0	0	CorrectCommission	2.443666	1.438331	0
419.851013	0.795735	city	5	1	0.946944	0.946944	0	1	0	0	CorrectCommission	1.280482	1.449621	0
420.646820	0.795869	city	9	1	1.046472	1.046472	0	1	0	0	CorrectCommission	1.974773	1.448749	0
421.442627	0.795726	mountain	4	1	1.096386	1.096386	0	0	1	0	CommissionError	2.322963	1.436221	0
422.238403	0.795878	city	6	1	0.599574	0.599574	0	1	0	0	CorrectCommission	1.142710	1.413421	0
423.034241	0.795787	city	8	1	1.047184	1.047184	0	1	0	0	CorrectCommission	1.979739	1.382628	0
423.830048	0.795786	mountain	3	0	0.000000	1.132088	1	0	0	0	CorrectOmission	2.572021	1.346687	0
424.625793	0.795748	city	6	1	1.000383	1.000383	0	1	0	0	CorrectCommission	1.653266	1.308727	0
425.421570	0.795806	city	3	1	0.798162	0.798162	0	1	0	0	CorrectCommission	0.242604	1.271892	0
426.217438	0.795889	city	2	1	0.748424	0.748424	0	1	0	0	CorrectCommission	0.104354	1.238889	0
427.013245	0.795760	city	4	1	0.707794	0.707794	0	1	0	0	CorrectCommission	0.387782	1.211616	0
427.809021	0.795804	city	6	1	0.798689	0.798689	0	1	0	0	CorrectCommission	0.246281	1.191019	0
428.604858	0.795850	city	4	1	0.847533	0.847533	0	1	0	0	CorrectCommission	0.587013	1.177043	0
429.400665	0.795772	city	7	1	0.847683	0.847683	0	1	0	0	CorrectCommission	0.588056	1.168845	0
430.196472	0.795799	city	9	1	1.211358	1.211358	0	1	0	0	CorrectCommission	3.124992	1.165089	0
430.992401	0.796087	city	6	0	0.000000	1.182822	0	0	0	1	OmissionError	2.925925	1.164226	0
431.788300	0.795706	mountain	10	0	0.000000	0.962489	1	0	0	0	CorrectOmission	1.388927	1.164971	0
432.583954	0.795593	city	6	1	0.750779	0.750779	0	1	0	0	CorrectCommission	0.087930	1.166466	0
433.379608	0.795745	city	9	1	0.748106	0.748106	0	1	0	0	CorrectCommission	0.106574	1.168386	0
434.175415	0.795831	city	5	1	1.096800	1.096800	0	1	0	0	CorrectCommission	2.325855	1.170723	0
434.971252	0.795843	city	2	0	0.000000	0.807558	0	0	0	1	OmissionError	0.308152	1.173678	0
435.767029	0.795754	city	4	1	0.465987	0.465987	0	1	0	0	CorrectCommission	2.074586	1.177588	0
436.562805	0.795781	mountain	2	0	0.000000	0.657696	1	0	0	0	CorrectOmission	0.737259	1.182355	0
437.358612	0.795801	city	1	1	0.897153	0.897153	0	1	0	0	CorrectCommission	0.933150	1.187576	0
438.154572	0.796137	city	7	1	0.698827	0.698827	0	1	0	0	CorrectCommission	0.450337	1.192317	0
438.950378	0.795467	city	4	1	0.598625	0.598625	0	1	0	0	CorrectCommission	1.149326	1.195188	0
439.746063	0.795893	mountain	8	1	0.698637	0.698637	0	0	1	0	CommissionError	0.451664	1.194629	0
440.541901	0.795812	city	10	1	0.515992	0.515992	0	1	0	0	CorrectCommission	1.725761	1.189173	0
441.337677	0.795718	city	9	1	0.997575	0.997575	0	1	0	0	CorrectCommission	1.633676	1.177687	0
442.133423	0.795788	city	4	1	1.196072	1.196072	0	1	0	0	CorrectCommission	3.018355	1.159868	0
442.929260	0.795882	city	8	0	0.000000	1.090715	0	0	0	1	OmissionError	2.283408	1.136366	0
443.725067	0.795759	city	3	1	0.901726	0.901726	0	1	0	0	CorrectCommission	0.965053	1.108941	0
444.520844	0.795772	city	1	1	0.849324	0.849324	0	1	0	0	CorrectCommission	0.599508	1.080150	0
445.316620	0.795809	city	2	1	0.848051	0.848051	0	1	0	0	CorrectCommission	0.590626	1.053076	0
446.112488	0.795879	city	6	1	0.748078	0.748078	0	1	0	0	CorrectCommission	0.106767	1.030848	0
446.908447	0.796071	city	4	1	0.698646	0.698646	0	1	0	0	CorrectCommission	0.451596	1.016275	0
447.704224	0.795501	city	1	1	0.658077	0.658077	0	1	0	0	CorrectCommission	0.734601	1.011268	0
448.500031	0.796101	city	8	1	0.649491	0.649491	0	1	0	0	CorrectCommission	0.794497	1.016741	0
449.295837	0.795514	city	9	1	0.762365	0.762365	0	1	0	0	CorrectCommission	0.007106	1.032534	0
450.091492	0.795785	city	2	1	0.998973	0.998973	0	1	0	0	CorrectCommission	1.643431	1.057447	0
450.887451	0.796101	city	5	1	0.948472	0.948472	0	1	0	0	CorrectCommission	1.291143	1.089418	0
451.683380	0.795777	city	9	1	0.946647	0.946647	0	1	0	0	CorrectCommission	1.278411	1.125871	0
452.479034	0.795543	city	8	0	0.000000	0.705497	0	0	0	1	OmissionError	0.403806	1.164227	0
453.274719	0.795801	city	7	1	0.499359	0.499359	0	1	0	0	CorrectCommission	1.841789	1.202117	0
454.070496	0.795796	city	9	1	0.602568	0.602568	0	1	0	0	CorrectCommission	1.121821	1.237705	0
454.866425	0.796063	city	6	1	1.199951	1.199951	0	1	0	0	CorrectCommission	3.045419	1.269878	0
455.662354	0.795792	city	7	0	0.000000	1.033765	0	0	0	1	OmissionError	1.886131	1.298154	0
456.458038	0.795572	city	6	1	0.702582	0.702582	0	1	0	0	CorrectCommission	0.424145	1.322846	0
457.253723	0.795800	city	4	1	0.804974	0.804974	0	1	0	0	CorrectCommission	0.290129	1.344707	0
458.049530	0.795783	city	3	1	0.897463	0.897463	0	1	0	0	CorrectCommission	0.935316	1.364609	0
458.845306	0.795803	city	6	1	0.400757	0.400757	0	1	0	0	CorrectCommission	2.529621	1.383506	0
459.641235	0.796062	city	5	1	0.649226	0.649226	0	1	0	0	CorrectCommission	0.796343	1.402018	0
460.437042	0.795523	city	10	1	0.555731	0.555731	0	1	0	0	CorrectCommission	1.448549	1.420639	0
461.232666	0.795749	city	5	1	0.947263	0.947263	0	1	0	0	CorrectCommission	1.282710	1.439411	0
462.028503	0.795874	city	8	1	1.013333	1.013333	0	1	0	0	CorrectCommission	1.743602	1.458106	0
462.824371	0.795878	city	7	0	0.000000	0.652999	0	0	0	1	OmissionError	0.770022	1.476217	0
463.620148	0.795711	city	10	1	0.502087	0.502087	0	1	0	0	CorrectCommission	1.822763	1.493116	0
464.415924	0.795805	city	6	1	1.196419	1.196419	0	1	0	0	CorrectCommission	3.020780	1.508032	0
465.211731	0.795834	city	3	0	0.000000	0.947392	0	0	0	1	OmissionError	1.283611	1.520107	0
466.007538	0.795779	city	8	1	0.549909	0.549909	0	1	0	0	CorrectCommission	1.489162	1.528565	0
466.803436	0.796000	city	2	1	0.798873	0.798873	0	1	0	0	CorrectCommission	0.247571	1.532531	0
467.599365	0.795867	city	8	1	0.996749	0.996749	0	1	0	0	CorrectCommission	1.627916	1.531158	0
468.395050	0.795526	city	2	1	0.997419	0.997419	0	1	0	0	CorrectCommission	1.632592	1.523555	0
469.190735	0.795807	city	1	1	1.162248	1.162248	0	1	0	0	CorrectCommission	2.782405	1.509051	0
469.986511	0.795784	city	7	0	0.000000	0.952730	0	0	0	1	OmissionError	1.320846	1.487242	0
470.782349	0.795851	city	8	1	0.816298	0.816298	0	1	0	0	CorrectCommission	0.369124	1.458132	0
471.578156	0.795786	city	9	1	1.200386	1.200386	0	1	0	0	CorrectCommission	3.048452	1.422304	0
472.373932	0.795778	city	2	0	0.000000	0.994765	0	0	0	1	OmissionError	1.614077	1.380788	0
473.169708	0.795746	city	7	1	0.798549	0.798549	0	1	0	0	CorrectCommission	0.245310	1.335372	0
473.965515	0.795845	city	4	1	1.210852	1.210852	0	1	0	0	CorrectCommission	3.121464	1.288458	0
474.761353	0.795845	city	9	0	0.000000	0.887363	0	0	0	1	OmissionError	0.864856	1.242716	0
475.557312	0.796071	city	4	1	0.508097	0.508097	0	1	0	0	CorrectCommission	1.780835	1.201108	0
476.353088	0.795497	city	3	1	0.753072	0.753072	0	1	0	0	CorrectCommission	0.071930	1.166295	0
477.148743	0.795842	city	7	1	0.764707	0.764707	0	1	0	0	CorrectCommission	0.009231	1.140600	0
477.944702	0.796063	city	9	1	0.798053	0.798053	0	1	0	0	CorrectCommission	0.241848	1.125606	0
478.740631	0.795804	city	7	1	0.747564	0.747564	0	1	0	0	CorrectCommission	0.110357	1.122066	0
479.536316	0.795524	city	6	1	0.996469	0.996469	0	1	0	0	CorrectCommission	1.625961	1.129920	0
480.331970	0.795813	city	4	1	1.005218	1.005218	0	1	0	0	CorrectCommission	1.686997	1.148332	0
481.127777	0.795813	city	10	1	1.096761	1.096761	0	1	0	0	CorrectCommission	2.325585	1.175956	0
481.923584	0.795775	city	8	0	0.000000	0.871845	0	0	0	1	OmissionError	0.756605	1.211067	0
482.719360	0.795778	city	4	1	0.649510	0.649510	0	1	0	0	CorrectCommission	0.794362	1.251941	0
483.515167	0.795826	city	5	1	0.748800	0.748800	0	1	0	0	CorrectCommission	0.101732	1.296928	0
484.310974	0.795788	city	2	1	1.002139	1.002139	0	1	0	0	CorrectCommission	1.665516	1.344632	0
485.106903	0.796082	city	3	1	1.150141	1.150141	0	1	0	0	CorrectCommission	2.697953	1.393963	0
485.902679	0.795464	city	2	0	0.000000	0.939335	0	0	0	1	OmissionError	1.227406	1.444135	0
486.698334	0.795876	city	7	1	0.549125	0.549125	0	1	0	0	CorrectCommission	1.494633	1.494633	0
