onset	duration	trial_type	image_type	Press	ReactionTime	ReactionTime_Interpolated	CorrectOmission	CorrectCommission	CommissionError	OmissionError	response_type	nonsmoothVarianceTimeCourse	VarianceTimeCourse	In_the_Zone
8.421817	0.796163	city	4	1	0.997339	0.997339	0	1	0	0	CorrectCommission	3.307690	3.307690	0
9.217654	0.795512	mountain	1	1	0.565494	0.565494	0	0	1	0	CommissionError	0.614780	3.056387	0
10.013313	0.795806	city	3	1	0.450641	0.450641	0	1	0	0	CorrectCommission	1.657996	2.808775	0
10.809078	0.795723	city	8	1	0.350221	0.350221	0	1	0	0	CorrectCommission	2.570113	2.568361	0
11.604841	0.795804	city	3	1	0.307460	0.307460	0	1	0	0	CorrectCommission	2.958513	2.338594	0
12.400820	0.796152	city	6	1	1.046844	1.046844	0	1	0	0	CorrectCommission	3.757347	2.122748	0
13.196794	0.795795	city	7	1	0.765782	0.765782	0	1	0	0	CorrectCommission	1.204449	1.923746	0
13.992593	0.795804	city	3	1	0.698046	0.698046	0	1	0	0	CorrectCommission	0.589193	1.744111	0
14.788216	0.795444	mountain	9	1	0.549127	0.549127	0	0	1	0	CommissionError	0.763445	1.585594	0
15.584023	0.796170	city	9	1	0.500266	0.500266	0	1	0	0	CorrectCommission	1.207251	1.449030	0
16.379833	0.795451	city	3	1	0.550106	0.550106	0	1	0	0	CorrectCommission	0.754553	1.334278	0
17.175453	0.795787	city	8	1	0.599006	0.599006	0	1	0	0	CorrectCommission	0.310391	1.240142	0
17.971292	0.795893	city	7	1	0.508217	0.508217	0	1	0	0	CorrectCommission	1.135026	1.164460	0
18.767107	0.795738	mountain	7	0	0.000000	0.621671	1	0	0	0	CorrectOmission	0.104521	1.104241	0
19.562866	0.795778	city	4	1	0.699425	0.699425	0	1	0	0	CorrectCommission	0.601724	1.056104	0
20.358702	0.795893	city	6	1	0.501538	0.501538	0	1	0	0	CorrectCommission	1.195690	1.016565	0
21.154509	0.795722	city	1	1	0.400842	0.400842	0	1	0	0	CorrectCommission	2.110318	0.982463	0
21.950302	0.795866	city	6	1	0.362406	0.362406	0	1	0	0	CorrectCommission	2.459438	0.951339	0
22.746143	0.795814	city	10	1	0.449689	0.449689	0	1	0	0	CorrectCommission	1.666644	0.921650	0
23.541937	0.795773	city	4	1	0.648541	0.648541	0	1	0	0	CorrectCommission	0.139541	0.892836	0
24.337730	0.795817	city	2	1	0.657374	0.657374	0	1	0	0	CorrectCommission	0.219774	0.865272	0
25.133520	0.795761	city	3	1	0.611165	0.611165	0	1	0	0	CorrectCommission	0.199951	0.839952	0
25.929283	0.795763	city	9	1	0.663350	0.663350	0	1	0	0	CorrectCommission	0.274053	0.818309	0
26.725065	0.795802	city	3	1	0.551141	0.551141	0	1	0	0	CorrectCommission	0.745145	0.801915	0
27.520895	0.795856	city	9	1	0.549957	0.549957	0	1	0	0	CorrectCommission	0.755903	0.792077	0
28.316694	0.795742	city	3	1	0.500541	0.500541	0	1	0	0	CorrectCommission	1.204747	0.789610	0
29.112507	0.795882	city	4	1	0.511832	0.511832	0	1	0	0	CorrectCommission	1.102195	0.794672	0
29.908350	0.795808	city	8	1	0.563626	0.563626	0	1	0	0	CorrectCommission	0.631743	0.806651	0
30.704296	0.796084	city	3	1	0.649805	0.649805	0	1	0	0	CorrectCommission	0.151020	0.824209	0
31.500053	0.795430	city	7	1	0.598958	0.598958	0	1	0	0	CorrectCommission	0.310827	0.845317	0
32.295849	0.796160	city	4	1	0.700484	0.700484	0	1	0	0	CorrectCommission	0.611342	0.867427	0
33.091705	0.795549	mountain	5	0	0.000000	0.749562	1	0	0	0	CorrectOmission	1.057117	0.887651	0
33.887348	0.795738	city	5	1	0.700602	0.700602	0	1	0	0	CorrectCommission	0.612412	0.903144	0
34.683098	0.795765	city	7	1	0.508015	0.508015	0	1	0	0	CorrectCommission	1.136863	0.911466	0
35.478909	0.795856	city	8	1	0.400605	0.400605	0	1	0	0	CorrectCommission	2.112478	0.910802	0
36.274757	0.795839	mountain	1	1	0.400360	0.400360	0	0	1	0	CommissionError	2.114696	0.900224	0
37.070553	0.795754	city	5	1	0.514150	0.514150	0	1	0	0	CorrectCommission	1.081143	0.879838	0
37.866306	0.795749	city	8	1	0.468553	0.468553	0	1	0	0	CorrectCommission	1.495303	0.850771	0
38.662109	0.795856	city	6	1	0.599243	0.599243	0	1	0	0	CorrectCommission	0.308234	0.814907	0
39.457962	0.795854	city	2	1	0.599915	0.599915	0	1	0	0	CorrectCommission	0.302132	0.774713	0
40.253765	0.795753	city	5	1	0.561293	0.561293	0	1	0	0	CorrectCommission	0.652939	0.732829	0
41.049561	0.795839	city	9	1	0.650578	0.650578	0	1	0	0	CorrectCommission	0.158043	0.691823	0
41.845387	0.795813	city	1	1	0.649658	0.649658	0	1	0	0	CorrectCommission	0.149682	0.653900	1
42.641167	0.795748	city	8	1	0.699301	0.699301	0	1	0	0	CorrectCommission	0.600592	0.620704	1
43.436954	0.795823	mountain	10	1	0.600163	0.600163	0	0	1	0	CommissionError	0.299880	0.593258	1
44.232784	0.795838	mountain	4	1	0.549427	0.549427	0	0	1	0	CommissionError	0.760715	0.572021	1
45.028553	0.795705	city	3	1	0.748616	0.748616	0	1	0	0	CorrectCommission	1.048525	0.556985	1
45.824318	0.795825	city	7	1	0.609070	0.609070	0	1	0	0	CorrectCommission	0.218975	0.547884	1
46.620304	0.796145	city	9	1	0.648596	0.648596	0	1	0	0	CorrectCommission	0.140038	0.544358	1
47.416130	0.795502	city	5	1	0.464130	0.464130	0	1	0	0	CorrectCommission	1.535476	0.546047	1
48.211769	0.795783	city	6	1	0.649613	0.649613	0	1	0	0	CorrectCommission	0.149276	0.552690	1
49.007576	0.795831	city	3	1	0.648826	0.648826	0	1	0	0	CorrectCommission	0.142127	0.564182	1
49.803352	0.795714	city	1	1	0.649619	0.649619	0	1	0	0	CorrectCommission	0.149328	0.580428	1
50.599155	0.795897	city	9	1	0.750059	0.750059	0	1	0	0	CorrectCommission	1.061633	0.601267	1
51.394989	0.795766	city	4	1	0.601134	0.601134	0	1	0	0	CorrectCommission	0.291056	0.626384	1
52.190777	0.795814	city	7	1	0.599524	0.599524	0	1	0	0	CorrectCommission	0.305687	0.655206	1
52.986580	0.795787	city	9	1	0.549249	0.549249	0	1	0	0	CorrectCommission	0.762331	0.686762	0
53.782375	0.795804	city	10	1	0.501558	0.501558	0	1	0	0	CorrectCommission	1.195509	0.719675	0
54.578156	0.795762	city	6	1	0.698574	0.698574	0	1	0	0	CorrectCommission	0.593996	0.752273	0
55.374115	0.796152	city	7	1	0.648598	0.648598	0	1	0	0	CorrectCommission	0.140063	0.782613	0
56.169918	0.795452	city	5	1	0.710558	0.710558	0	1	0	0	CorrectCommission	0.702845	0.808684	0
56.965557	0.795830	city	1	1	0.748133	0.748133	0	1	0	0	CorrectCommission	1.044137	0.828580	0
57.761398	0.795853	mountain	3	0	0.000000	0.799390	1	0	0	0	CorrectOmission	1.509704	0.840657	0
58.557217	0.795781	mountain	4	0	0.000000	0.815743	1	0	0	0	CorrectOmission	1.658246	0.843804	0
59.353016	0.795819	city	9	1	0.748609	0.748609	0	1	0	0	CorrectCommission	1.048459	0.837563	0
60.148800	0.795752	city	2	1	0.549400	0.549400	0	1	0	0	CorrectCommission	0.760960	0.822205	0
60.944572	0.795793	mountain	2	1	0.465873	0.465873	0	0	1	0	CommissionError	1.519638	0.798697	0
61.740356	0.795770	mountain	6	0	0.000000	0.573788	1	0	0	0	CorrectOmission	0.539443	0.768535	0
62.536163	0.795848	city	9	1	0.648963	0.648963	0	1	0	0	CorrectCommission	0.143376	0.733680	0
63.331982	0.795790	city	1	1	0.467218	0.467218	0	1	0	0	CorrectCommission	1.507428	0.696300	0
64.127769	0.795783	city	8	1	0.648536	0.648536	0	1	0	0	CorrectCommission	0.139499	0.658474	1
64.923584	0.795840	city	9	1	0.649607	0.649607	0	1	0	0	CorrectCommission	0.149222	0.622103	1
65.719505	0.796004	city	1	1	0.650125	0.650125	0	1	0	0	CorrectCommission	0.153932	0.588723	1
66.515274	0.795541	city	10	1	0.500461	0.500461	0	1	0	0	CorrectCommission	1.205480	0.559436	1
67.310944	0.795797	city	7	1	0.660187	0.660187	0	1	0	0	CorrectCommission	0.245325	0.534905	1
68.106766	0.795848	city	1	1	0.615614	0.615614	0	1	0	0	CorrectCommission	0.159540	0.515503	1
68.902748	0.796119	city	7	1	0.649441	0.649441	0	1	0	0	CorrectCommission	0.147713	0.501310	1
69.698578	0.795531	city	4	1	0.748487	0.748487	0	1	0	0	CorrectCommission	1.047354	0.492290	1
70.494240	0.795803	city	9	1	0.657710	0.657710	0	1	0	0	CorrectCommission	0.222823	0.488289	1
71.290176	0.796071	city	10	1	0.599066	0.599066	0	1	0	0	CorrectCommission	0.309845	0.489203	1
72.086098	0.795766	city	6	1	0.802290	0.802290	0	1	0	0	CorrectCommission	1.536050	0.494902	1
72.881737	0.795504	city	3	1	0.650333	0.650333	0	1	0	0	CorrectCommission	0.155815	0.505172	1
73.677391	0.795816	city	7	1	0.603290	0.603290	0	1	0	0	CorrectCommission	0.271473	0.519696	1
74.473213	0.795819	city	2	1	0.617097	0.617097	0	1	0	0	CorrectCommission	0.146069	0.537863	1
75.269020	0.795805	city	1	1	0.648785	0.648785	0	1	0	0	CorrectCommission	0.141756	0.558783	1
76.064796	0.795742	mountain	4	0	0.000000	0.657468	1	0	0	0	CorrectOmission	0.220627	0.581173	1
76.860748	0.796157	mountain	2	0	0.000000	0.633598	1	0	0	0	CorrectOmission	0.003812	0.603557	1
77.656555	0.795459	city	10	1	0.567625	0.567625	0	1	0	0	CorrectCommission	0.595426	0.624390	1
78.452202	0.795841	city	4	1	0.450000	0.450000	0	1	0	0	CorrectCommission	1.663819	0.642201	1
79.248047	0.795839	city	3	1	0.450730	0.450730	0	1	0	0	CorrectCommission	1.657185	0.655877	1
80.043816	0.795711	city	5	1	0.499545	0.499545	0	1	0	0	CorrectCommission	1.213797	0.664913	1
80.839615	0.795874	city	10	1	0.549456	0.549456	0	1	0	0	CorrectCommission	0.760457	0.669409	1
81.635460	0.795817	city	3	1	0.598976	0.598976	0	1	0	0	CorrectCommission	0.310662	0.670162	1
82.431267	0.795798	city	5	1	0.664922	0.664922	0	1	0	0	CorrectCommission	0.288329	0.668497	1
83.227020	0.795716	city	7	1	0.747972	0.747972	0	1	0	0	CorrectCommission	1.042674	0.666044	1
84.022789	0.795825	city	3	1	0.649542	0.649542	0	1	0	0	CorrectCommission	0.148630	0.664466	1
84.818634	0.795860	city	6	1	0.716618	0.716618	0	1	0	0	CorrectCommission	0.757888	0.665322	1
85.614464	0.795801	city	2	1	0.649297	0.649297	0	1	0	0	CorrectCommission	0.146409	0.669746	1
86.410263	0.795794	city	9	1	0.599416	0.599416	0	1	0	0	CorrectCommission	0.306662	0.678414	0
87.206070	0.795814	city	1	1	0.700071	0.700071	0	1	0	0	CorrectCommission	0.607593	0.691381	0
88.001869	0.795788	city	9	1	0.748602	0.748602	0	1	0	0	CorrectCommission	1.048400	0.708259	0
88.797638	0.795748	city	1	1	0.603207	0.603207	0	1	0	0	CorrectCommission	0.272231	0.728312	0
89.593567	0.796117	city	7	1	0.698501	0.698501	0	1	0	0	CorrectCommission	0.593327	0.750625	0
90.389397	0.795545	city	4	1	0.851896	0.851896	0	1	0	0	CorrectCommission	1.986623	0.774258	0
91.185066	0.795794	city	5	1	0.648502	0.648502	0	1	0	0	CorrectCommission	0.139191	0.798332	0
91.980881	0.795825	city	6	1	0.754672	0.754672	0	1	0	0	CorrectCommission	1.103534	0.822217	0
92.776649	0.795711	mountain	8	0	0.000000	0.773733	1	0	0	0	CorrectOmission	1.276661	0.845309	0
93.572441	0.795874	mountain	10	0	0.000000	0.744766	1	0	0	0	CorrectOmission	1.013558	0.867094	0
94.368240	0.795731	mountain	9	1	0.706856	0.706856	0	0	1	0	CommissionError	0.669215	0.887003	0
95.164032	0.795842	city	10	1	0.699084	0.699084	0	1	0	0	CorrectCommission	0.598621	0.904304	0
95.959869	0.795847	city	3	1	0.608842	0.608842	0	1	0	0	CorrectCommission	0.221043	0.917998	0
96.755669	0.795751	city	8	1	0.549318	0.549318	0	1	0	0	CorrectCommission	0.761708	0.926897	0
97.551590	0.796086	city	1	1	0.511502	0.511502	0	1	0	0	CorrectCommission	1.105191	0.929719	0
98.347374	0.795482	city	9	1	0.549700	0.549700	0	1	0	0	CorrectCommission	0.758234	0.925353	0
99.143059	0.795888	city	4	1	0.450322	0.450322	0	1	0	0	CorrectCommission	1.660889	0.913106	0
99.938889	0.795776	city	8	1	0.449833	0.449833	0	1	0	0	CorrectCommission	1.665331	0.892858	0
100.734673	0.795787	city	3	1	0.399961	0.399961	0	1	0	0	CorrectCommission	2.118325	0.865279	0
101.530624	0.796116	city	2	1	0.450352	0.450352	0	1	0	0	CorrectCommission	1.660621	0.831852	0
102.326431	0.795505	city	8	1	0.612035	0.612035	0	1	0	0	CorrectCommission	0.192044	0.794724	0
103.122086	0.795797	city	2	1	0.649363	0.649363	0	1	0	0	CorrectCommission	0.147005	0.756480	0
103.917870	0.795768	city	4	1	0.648648	0.648648	0	1	0	0	CorrectCommission	0.140514	0.719698	0
104.713638	0.795779	city	3	1	0.613162	0.613162	0	1	0	0	CorrectCommission	0.181809	0.686626	0
105.509445	0.795832	city	7	1	0.648732	0.648732	0	1	0	0	CorrectCommission	0.141277	0.658870	1
106.305298	0.795865	city	1	1	0.698653	0.698653	0	1	0	0	CorrectCommission	0.594710	0.637183	1
107.101089	0.795718	city	5	1	0.648590	0.648590	0	1	0	0	CorrectCommission	0.139984	0.621445	1
107.896866	0.795845	city	4	1	0.648643	0.648643	0	1	0	0	CorrectCommission	0.140463	0.610740	1
108.692657	0.795739	city	8	1	0.748144	0.748144	0	1	0	0	CorrectCommission	1.044238	0.603644	1
109.488457	0.795850	city	1	1	0.748523	0.748523	0	1	0	0	CorrectCommission	1.047680	0.598450	1
110.284256	0.795751	city	7	1	0.799916	0.799916	0	1	0	0	CorrectCommission	1.514486	0.593585	1
111.080040	0.795812	city	6	1	0.748430	0.748430	0	1	0	0	CorrectCommission	1.046834	0.587830	1
111.875847	0.795800	city	4	1	0.600411	0.600411	0	1	0	0	CorrectCommission	0.297627	0.580575	1
112.671677	0.795872	city	3	1	0.648714	0.648714	0	1	0	0	CorrectCommission	0.141111	0.571876	1
113.467499	0.795766	city	4	1	0.703780	0.703780	0	1	0	0	CorrectCommission	0.641277	0.562300	1
114.263390	0.796022	city	10	1	0.700698	0.700698	0	1	0	0	CorrectCommission	0.613285	0.552797	1
115.059204	0.795601	city	7	1	0.648287	0.648287	0	1	0	0	CorrectCommission	0.137229	0.544562	1
115.854912	0.795820	city	4	1	0.668982	0.668982	0	1	0	0	CorrectCommission	0.325209	0.538858	1
116.650696	0.795745	city	9	1	0.712058	0.712058	0	1	0	0	CorrectCommission	0.716469	0.536735	1
117.446503	0.795865	city	7	1	0.705130	0.705130	0	1	0	0	CorrectCommission	0.653545	0.538950	1
118.242294	0.795722	city	3	1	0.650987	0.650987	0	1	0	0	CorrectCommission	0.161761	0.545873	1
119.038101	0.795891	city	4	1	0.649461	0.649461	0	1	0	0	CorrectCommission	0.147895	0.557476	1
119.833931	0.795771	city	10	1	0.599240	0.599240	0	1	0	0	CorrectCommission	0.308259	0.573347	1
120.629723	0.795813	city	4	1	0.762353	0.762353	0	1	0	0	CorrectCommission	1.173296	0.592720	1
121.425659	0.796055	city	9	1	0.648644	0.648644	0	1	0	0	CorrectCommission	0.140480	0.614515	1
122.221436	0.795503	city	1	1	0.505742	0.505742	0	1	0	0	CorrectCommission	1.157508	0.637521	1
123.017082	0.795777	city	8	1	0.499659	0.499659	0	1	0	0	CorrectCommission	1.212764	0.660318	1
123.812874	0.795815	city	6	1	0.698793	0.698793	0	1	0	0	CorrectCommission	0.595981	0.681414	0
124.608719	0.795876	city	4	1	0.615360	0.615360	0	1	0	0	CorrectCommission	0.161843	0.699347	0
125.404541	0.795762	city	6	1	0.648783	0.648783	0	1	0	0	CorrectCommission	0.141741	0.712686	0
126.200325	0.795804	city	10	1	0.615346	0.615346	0	1	0	0	CorrectCommission	0.161974	0.720128	0
126.996124	0.795805	mountain	8	1	0.509257	0.509257	0	0	1	0	CommissionError	1.125579	0.720632	0
127.791908	0.795757	city	2	1	0.949191	0.949191	0	1	0	0	CorrectCommission	2.870357	0.713504	0
128.587692	0.795822	city	7	1	0.759127	0.759127	0	1	0	0	CorrectCommission	1.144002	0.698495	0
129.383514	0.795828	city	10	1	0.648678	0.648678	0	1	0	0	CorrectCommission	0.140788	0.676043	0
130.179352	0.795829	city	9	1	0.599552	0.599552	0	1	0	0	CorrectCommission	0.305432	0.647102	1
130.975159	0.795800	city	2	1	0.549040	0.549040	0	1	0	0	CorrectCommission	0.764228	0.613044	1
131.770935	0.795748	city	1	1	0.549265	0.549265	0	1	0	0	CorrectCommission	0.762192	0.575615	1
132.566696	0.795770	city	9	1	0.563760	0.563760	0	1	0	0	CorrectCommission	0.630533	0.536771	1
133.362488	0.795801	city	6	1	0.606873	0.606873	0	1	0	0	CorrectCommission	0.238935	0.498540	1
134.158325	0.795877	city	9	1	0.654231	0.654231	0	1	0	0	CorrectCommission	0.191222	0.462816	1
134.954117	0.795724	city	7	1	0.648906	0.648906	0	1	0	0	CorrectCommission	0.142857	0.431263	1
135.749893	0.795820	city	10	1	0.599880	0.599880	0	1	0	0	CorrectCommission	0.302447	0.405238	1
136.545731	0.795838	city	8	1	0.648929	0.648929	0	1	0	0	CorrectCommission	0.143061	0.385762	1
137.341522	0.795772	mountain	5	0	0.000000	0.679696	1	0	0	0	CorrectOmission	0.422527	0.373542	1
138.137360	0.795882	mountain	9	0	0.000000	0.682746	1	0	0	0	CorrectOmission	0.450229	0.368885	1
138.933182	0.795779	city	5	1	0.648641	0.648641	0	1	0	0	CorrectCommission	0.140444	0.371853	1
139.728973	0.795797	city	10	1	0.567941	0.567941	0	1	0	0	CorrectCommission	0.592550	0.382205	1
140.524780	0.795802	city	8	1	0.649152	0.649152	0	1	0	0	CorrectCommission	0.145091	0.399441	1
141.320724	0.796085	city	10	1	0.599495	0.599495	0	1	0	0	CorrectCommission	0.305945	0.422829	1
142.116486	0.795461	city	6	1	0.648435	0.648435	0	1	0	0	CorrectCommission	0.138577	0.451366	1
142.912125	0.795811	city	2	1	0.599936	0.599936	0	1	0	0	CorrectCommission	0.301941	0.483833	1
143.707916	0.795770	city	5	1	0.649510	0.649510	0	1	0	0	CorrectCommission	0.148343	0.518785	1
144.503708	0.795804	city	9	1	0.549557	0.549557	0	1	0	0	CorrectCommission	0.759537	0.554636	1
145.299561	0.795895	city	10	1	0.549616	0.549616	0	1	0	0	CorrectCommission	0.758997	0.589663	1
146.095535	0.796054	city	5	1	0.698258	0.698258	0	1	0	0	CorrectCommission	0.591123	0.622326	1
146.891312	0.795522	city	9	1	0.499081	0.499081	0	1	0	0	CorrectCommission	1.218015	0.651250	1
147.686966	0.795775	mountain	5	1	0.561686	0.561686	0	0	1	0	CommissionError	0.649368	0.675339	1
148.482742	0.795774	city	6	1	0.798795	0.798795	0	1	0	0	CorrectCommission	1.504303	0.693950	0
149.278549	0.795838	city	5	1	0.699030	0.699030	0	1	0	0	CorrectCommission	0.598131	0.706833	0
150.074371	0.795799	city	6	1	0.698959	0.698959	0	1	0	0	CorrectCommission	0.597491	0.714256	0
150.870178	0.795824	city	4	1	0.648913	0.648913	0	1	0	0	CorrectCommission	0.142918	0.716925	0
151.665955	0.795723	city	10	1	0.549815	0.549815	0	1	0	0	CorrectCommission	0.757190	0.715922	0
152.461731	0.795847	mountain	4	1	0.466230	0.466230	0	0	1	0	CommissionError	1.516400	0.712574	0
153.257538	0.795766	city	2	1	0.698339	0.698339	0	1	0	0	CorrectCommission	0.591860	0.708364	0
154.053360	0.795871	mountain	5	0	0.000000	0.711094	1	0	0	0	CorrectOmission	0.707711	0.704804	0
154.849182	0.795774	city	1	1	0.609800	0.609800	0	1	0	0	CorrectCommission	0.212347	0.703217	0
155.644974	0.795815	city	2	1	0.499763	0.499763	0	1	0	0	CorrectCommission	1.211816	0.704624	0
156.440765	0.795773	city	4	1	0.698761	0.698761	0	1	0	0	CorrectCommission	0.595693	0.709548	0
157.236725	0.796142	city	9	1	0.648968	0.648968	0	1	0	0	CorrectCommission	0.143417	0.717989	0
158.032547	0.795510	city	5	1	0.554614	0.554614	0	1	0	0	CorrectCommission	0.713606	0.729375	0
158.828171	0.795727	city	2	1	0.599286	0.599286	0	1	0	0	CorrectCommission	0.307849	0.742563	0
159.623978	0.795869	city	7	1	0.649157	0.649157	0	1	0	0	CorrectCommission	0.145139	0.756092	0
160.419800	0.795798	city	1	1	0.648931	0.648931	0	1	0	0	CorrectCommission	0.143083	0.768320	0
161.215591	0.795774	mountain	7	1	0.898553	0.898553	0	0	1	0	CommissionError	2.410413	0.777742	0
162.011368	0.795791	city	7	0	0.000000	0.759449	0	0	0	1	OmissionError	1.146924	0.783182	0
162.807190	0.795847	city	5	1	0.515371	0.515371	0	1	0	0	CorrectCommission	1.070050	0.784259	0
163.602997	0.795755	city	8	1	0.450070	0.450070	0	1	0	0	CorrectCommission	1.663179	0.781371	0
164.398804	0.795874	city	9	1	0.749136	0.749136	0	1	0	0	CorrectCommission	1.053252	0.775643	0
165.194626	0.795766	city	1	1	0.613755	0.613755	0	1	0	0	CorrectCommission	0.176426	0.768898	0
165.990417	0.795811	city	8	1	0.698908	0.698908	0	1	0	0	CorrectCommission	0.597023	0.763283	0
166.786224	0.795799	city	1	1	0.648575	0.648575	0	1	0	0	CorrectCommission	0.139853	0.760887	0
167.582031	0.795822	city	2	1	0.599144	0.599144	0	1	0	0	CorrectCommission	0.309139	0.763416	0
168.377808	0.795736	city	4	1	0.749032	0.749032	0	1	0	0	CorrectCommission	1.052302	0.771796	0
169.173569	0.795774	city	7	1	0.648946	0.648946	0	1	0	0	CorrectCommission	0.143217	0.785939	0
169.969528	0.796163	mountain	8	0	0.000000	0.589003	1	0	0	0	CorrectOmission	0.401250	0.804736	0
170.765366	0.795502	city	6	0	0.000000	0.559142	0	0	0	1	OmissionError	0.672470	0.826096	0
171.561172	0.796104	city	5	1	0.549306	0.549306	0	1	0	0	CorrectCommission	0.761817	0.847168	0
172.356979	0.795506	city	2	1	0.549433	0.549433	0	1	0	0	CorrectCommission	0.760663	0.864796	0
173.152771	0.796076	city	4	1	0.499385	0.499385	0	1	0	0	CorrectCommission	1.215251	0.875892	0
173.948578	0.795537	city	6	1	0.458080	0.458080	0	1	0	0	CorrectCommission	1.590428	0.877893	0
174.744202	0.795717	city	3	1	0.366622	0.366622	0	1	0	0	CorrectCommission	2.421140	0.869172	0
175.540146	0.796171	city	7	1	0.449765	0.449765	0	1	0	0	CorrectCommission	1.665955	0.849214	0
176.335983	0.795517	city	4	1	0.549024	0.549024	0	1	0	0	CorrectCommission	0.764378	0.818752	0
177.131607	0.795730	city	3	1	0.599690	0.599690	0	1	0	0	CorrectCommission	0.304171	0.779612	0
177.927414	0.795883	city	5	1	0.598890	0.598890	0	1	0	0	CorrectCommission	0.311438	0.734431	0
178.723251	0.795787	city	6	1	0.748041	0.748041	0	1	0	0	CorrectCommission	1.043305	0.686209	0
179.519028	0.795763	city	9	1	0.599498	0.599498	0	1	0	0	CorrectCommission	0.305921	0.638002	1
180.314819	0.795812	city	7	1	0.648931	0.648931	0	1	0	0	CorrectCommission	0.143083	0.592574	1
181.110641	0.795830	city	4	1	0.604687	0.604687	0	1	0	0	CorrectCommission	0.258786	0.552025	1
181.906464	0.795825	city	7	1	0.652625	0.652625	0	1	0	0	CorrectCommission	0.176637	0.517667	1
182.702271	0.795799	city	4	1	0.698981	0.698981	0	1	0	0	CorrectCommission	0.597690	0.490055	1
183.498199	0.796048	mountain	9	0	0.000000	0.647110	1	0	0	0	CorrectOmission	0.126540	0.468969	1
184.293991	0.795532	city	3	1	0.609432	0.609432	0	1	0	0	CorrectCommission	0.215692	0.453733	1
185.089630	0.795737	city	7	1	0.698367	0.698367	0	1	0	0	CorrectCommission	0.592116	0.443417	1
185.885437	0.795888	city	6	1	0.748901	0.748901	0	1	0	0	CorrectCommission	1.051115	0.437066	1
186.681244	0.795728	city	1	1	0.657827	0.657827	0	1	0	0	CorrectCommission	0.223884	0.434030	1
187.477005	0.795787	city	5	1	0.698924	0.698924	0	1	0	0	CorrectCommission	0.597172	0.434128	1
188.272797	0.795817	city	10	1	0.710414	0.710414	0	1	0	0	CorrectCommission	0.701532	0.437707	1
189.068634	0.795829	city	5	1	0.611032	0.611032	0	1	0	0	CorrectCommission	0.201152	0.445537	1
189.864456	0.795837	city	7	1	0.662901	0.662901	0	1	0	0	CorrectCommission	0.269977	0.458798	1
190.660263	0.795776	city	10	1	0.699186	0.699186	0	1	0	0	CorrectCommission	0.599547	0.478775	1
191.456055	0.795809	city	8	1	0.649198	0.649198	0	1	0	0	CorrectCommission	0.145512	0.506573	1
192.251831	0.795746	city	4	1	0.612269	0.612269	0	1	0	0	CorrectCommission	0.189920	0.542908	1
193.047791	0.796161	city	9	1	0.649073	0.649073	0	1	0	0	CorrectCommission	0.144374	0.587855	1
193.843765	0.795788	city	7	1	0.607189	0.607189	0	1	0	0	CorrectCommission	0.236063	0.640777	1
194.639420	0.795515	city	3	1	0.698753	0.698753	0	1	0	0	CorrectCommission	0.595616	0.700163	0
195.435043	0.795735	city	10	1	0.698572	0.698572	0	1	0	0	CorrectCommission	0.593973	0.763730	0
196.230850	0.795883	city	9	1	0.698319	0.698319	0	1	0	0	CorrectCommission	0.591678	0.828583	0
197.026672	0.795765	city	10	1	0.716763	0.716763	0	1	0	0	CorrectCommission	0.759200	0.891502	0
197.822464	0.795802	city	4	1	0.847883	0.847883	0	1	0	0	CorrectCommission	1.950174	0.949226	0
198.618286	0.795856	city	5	1	0.768192	0.768192	0	1	0	0	CorrectCommission	1.226333	0.998692	0
199.414093	0.795764	city	1	1	0.798393	0.798393	0	1	0	0	CorrectCommission	1.500650	1.037451	0
200.209839	0.795734	city	3	1	0.849031	0.849031	0	1	0	0	CorrectCommission	1.960597	1.063755	0
201.005661	0.795899	city	5	1	0.748462	0.748462	0	1	0	0	CorrectCommission	1.047126	1.076710	0
201.801636	0.796063	city	8	1	0.748086	0.748086	0	1	0	0	CorrectCommission	1.043715	1.076359	0
202.597427	0.795516	city	1	1	0.699038	0.699038	0	1	0	0	CorrectCommission	0.598209	1.063496	0
203.393234	0.796101	city	2	1	0.898969	0.898969	0	1	0	0	CorrectCommission	2.414191	1.039574	0
204.189041	0.795499	city	7	1	0.600216	0.600216	0	1	0	0	CorrectCommission	0.299400	1.006460	0
204.984695	0.795796	city	9	1	0.500043	0.500043	0	1	0	0	CorrectCommission	1.209274	0.966396	0
205.780640	0.796102	city	2	1	0.450574	0.450574	0	1	0	0	CorrectCommission	1.658600	0.921545	0
206.576447	0.795512	city	8	1	0.598607	0.598607	0	1	0	0	CorrectCommission	0.314011	0.873956	0
207.372238	0.796087	city	7	1	0.649204	0.649204	0	1	0	0	CorrectCommission	0.145566	0.825453	0
208.168045	0.795518	city	2	1	0.649280	0.649280	0	1	0	0	CorrectCommission	0.146253	0.777439	0
208.963699	0.795783	city	3	1	0.848183	0.848183	0	1	0	0	CorrectCommission	1.952900	0.730974	0
209.759491	0.795818	city	7	1	0.698969	0.698969	0	1	0	0	CorrectCommission	0.597577	0.686628	0
210.555313	0.795813	city	8	1	0.649261	0.649261	0	1	0	0	CorrectCommission	0.146081	0.644826	1
211.351105	0.795772	city	5	1	0.599867	0.599867	0	1	0	0	CorrectCommission	0.302566	0.605765	1
212.146896	0.795806	city	6	1	0.704400	0.704400	0	1	0	0	CorrectCommission	0.646913	0.569554	1
212.942719	0.795837	city	5	1	0.506440	0.506440	0	1	0	0	CorrectCommission	1.151170	0.536317	1
213.738541	0.795796	city	6	1	0.599370	0.599370	0	1	0	0	CorrectCommission	0.307083	0.506285	1
214.534317	0.795768	city	2	1	0.599347	0.599347	0	1	0	0	CorrectCommission	0.307295	0.479861	1
215.330093	0.795802	mountain	9	0	0.000000	0.584751	1	0	0	0	CorrectOmission	0.439869	0.457489	1
216.125916	0.795820	city	10	1	0.603250	0.603250	0	1	0	0	CorrectCommission	0.271837	0.439715	1
216.921722	0.795801	city	7	1	0.702513	0.702513	0	1	0	0	CorrectCommission	0.629769	0.427045	1
217.717499	0.795764	city	8	1	0.649239	0.649239	0	1	0	0	CorrectCommission	0.145881	0.419863	1
218.513306	0.795846	city	6	1	0.649033	0.649033	0	1	0	0	CorrectCommission	0.144009	0.418355	1
219.309143	0.795811	mountain	9	1	0.598852	0.598852	0	0	1	0	CommissionError	0.311790	0.422425	1
220.104904	0.795726	city	1	1	0.599848	0.599848	0	1	0	0	CorrectCommission	0.302738	0.431684	1
220.900696	0.795861	city	9	1	0.649342	0.649342	0	1	0	0	CorrectCommission	0.146812	0.445383	1
221.696533	0.795799	city	4	1	0.655523	0.655523	0	1	0	0	CorrectCommission	0.202957	0.462604	1
222.492477	0.796103	city	3	1	0.600927	0.600927	0	1	0	0	CorrectCommission	0.292937	0.482248	1
223.288254	0.795429	city	1	1	0.698411	0.698411	0	1	0	0	CorrectCommission	0.592514	0.503151	1
224.083878	0.795841	city	5	1	0.851371	0.851371	0	1	0	0	CorrectCommission	1.981853	0.524221	1
224.879730	0.795843	city	4	1	0.649675	0.649675	0	1	0	0	CorrectCommission	0.149838	0.544435	1
225.675507	0.795721	city	3	1	0.708262	0.708262	0	1	0	0	CorrectCommission	0.681988	0.563059	1
226.471283	0.795841	city	5	1	0.667106	0.667106	0	1	0	0	CorrectCommission	0.308168	0.579349	1
227.267090	0.795776	city	7	1	0.704110	0.704110	0	1	0	0	CorrectCommission	0.644278	0.592731	1
228.062912	0.795871	city	10	1	0.608592	0.608592	0	1	0	0	CorrectCommission	0.223321	0.602701	1
228.858765	0.795816	city	6	1	0.716680	0.716680	0	1	0	0	CorrectCommission	0.758449	0.608795	1
229.654541	0.795748	city	8	1	0.698382	0.698382	0	1	0	0	CorrectCommission	0.592249	0.610581	1
230.450317	0.795803	mountain	9	1	0.601174	0.601174	0	0	1	0	CommissionError	0.290697	0.607703	1
231.246109	0.795787	city	1	1	0.501759	0.501759	0	1	0	0	CorrectCommission	1.193684	0.600035	1
232.041931	0.795832	city	4	1	0.698662	0.698662	0	1	0	0	CorrectCommission	0.594794	0.587666	1
232.837738	0.795786	city	1	1	0.450613	0.450613	0	1	0	0	CorrectCommission	1.658246	0.571110	1
233.633514	0.795766	city	5	1	0.599180	0.599180	0	1	0	0	CorrectCommission	0.308805	0.551208	1
234.429321	0.795842	city	7	1	0.698421	0.698421	0	1	0	0	CorrectCommission	0.592599	0.529236	1
235.225143	0.795810	city	6	1	0.699082	0.699082	0	1	0	0	CorrectCommission	0.598603	0.506705	1
236.020935	0.795768	city	3	1	0.648817	0.648817	0	1	0	0	CorrectCommission	0.142050	0.485262	1
236.816727	0.795831	city	10	1	0.615651	0.615651	0	1	0	0	CorrectCommission	0.159197	0.466506	1
237.612534	0.795790	city	1	1	0.648697	0.648697	0	1	0	0	CorrectCommission	0.140957	0.451789	1
238.408325	0.795791	city	9	1	0.599224	0.599224	0	1	0	0	CorrectCommission	0.308412	0.442066	1
239.204147	0.795845	city	4	1	0.599079	0.599079	0	1	0	0	CorrectCommission	0.309729	0.437741	1
240.000122	0.796095	city	9	1	0.648624	0.648624	0	1	0	0	CorrectCommission	0.140296	0.438706	1
240.795929	0.795518	city	6	1	0.563460	0.563460	0	1	0	0	CorrectCommission	0.633250	0.444366	1
241.591583	0.795795	city	7	1	0.655544	0.655544	0	1	0	0	CorrectCommission	0.203153	0.453627	1
242.387390	0.795811	city	10	1	0.648818	0.648818	0	1	0	0	CorrectCommission	0.142060	0.465264	1
243.183167	0.795759	city	2	1	0.748005	0.748005	0	1	0	0	CorrectCommission	1.042974	0.478018	1
243.978928	0.795752	city	1	1	0.698465	0.698465	0	1	0	0	CorrectCommission	0.592999	0.490705	1
244.774704	0.795807	city	10	1	0.750552	0.750552	0	1	0	0	CorrectCommission	1.066115	0.502490	1
245.570526	0.795850	city	5	1	0.650961	0.650961	0	1	0	0	CorrectCommission	0.161521	0.512930	1
246.366348	0.795783	city	2	1	0.698661	0.698661	0	1	0	0	CorrectCommission	0.594779	0.522031	1
247.162308	0.796137	city	5	1	0.664386	0.664386	0	1	0	0	CorrectCommission	0.283463	0.530129	1
247.958130	0.795505	city	8	1	0.749998	0.749998	0	1	0	0	CorrectCommission	1.061081	0.537892	1
248.753754	0.795740	city	2	1	0.704289	0.704289	0	1	0	0	CorrectCommission	0.645898	0.546052	1
249.549515	0.795785	city	8	1	0.665287	0.665287	0	1	0	0	CorrectCommission	0.291648	0.555422	1
250.345352	0.795880	city	3	1	0.663742	0.663742	0	1	0	0	CorrectCommission	0.277615	0.566587	1
251.141205	0.795825	city	6	1	0.657792	0.657792	0	1	0	0	CorrectCommission	0.223570	0.579910	1
251.936996	0.795764	city	9	1	0.649102	0.649102	0	1	0	0	CorrectCommission	0.144637	0.595467	1
252.732742	0.795735	mountain	6	0	0.000000	0.716396	1	0	0	0	CorrectOmission	0.755867	0.612975	1
253.528549	0.795875	city	9	1	0.752280	0.752280	0	1	0	0	CorrectCommission	1.081805	0.631890	1
254.324387	0.795795	city	2	1	0.649362	0.649362	0	1	0	0	CorrectCommission	0.146997	0.651534	1
255.120163	0.795755	city	7	1	0.503154	0.503154	0	1	0	0	CorrectCommission	1.181012	0.671247	1
255.915970	0.795854	mountain	10	1	0.467232	0.467232	0	0	1	0	CommissionError	1.507294	0.690369	0
256.711792	0.795802	city	9	1	0.648607	0.648607	0	1	0	0	CorrectCommission	0.140137	0.708448	0
257.507568	0.795747	city	2	1	0.599159	0.599159	0	1	0	0	CorrectCommission	0.309003	0.725284	0
258.303375	0.795848	city	3	1	0.456477	0.456477	0	1	0	0	CorrectCommission	1.604987	0.740822	0
259.099182	0.795804	city	6	1	0.613797	0.613797	0	1	0	0	CorrectCommission	0.176045	0.755108	0
259.894958	0.795748	city	5	1	0.599558	0.599558	0	1	0	0	CorrectCommission	0.305375	0.768349	0
260.690765	0.795855	city	2	1	0.500505	0.500505	0	1	0	0	CorrectCommission	1.205075	0.780640	0
261.486572	0.795778	city	8	1	0.499759	0.499759	0	1	0	0	CorrectCommission	1.211850	0.791972	0
262.282379	0.795785	city	2	1	0.549182	0.549182	0	1	0	0	CorrectCommission	0.762943	0.802196	0
263.078186	0.795827	city	1	1	0.549491	0.549491	0	1	0	0	CorrectCommission	0.760138	0.811023	0
263.873993	0.795813	mountain	7	0	0.000000	0.665682	1	0	0	0	CorrectOmission	0.295236	0.817948	0
264.669800	0.795787	city	4	1	0.748653	0.748653	0	1	0	0	CorrectCommission	1.048860	0.822365	0
265.465576	0.795757	city	6	1	0.649298	0.649298	0	1	0	0	CorrectCommission	0.146419	0.823539	0
266.261383	0.795871	city	5	1	0.550180	0.550180	0	1	0	0	CorrectCommission	0.753881	0.820850	0
267.057190	0.795785	city	4	1	0.905968	0.905968	0	1	0	0	CorrectCommission	2.477761	0.813742	0
267.852997	0.795817	city	8	1	0.748152	0.748152	0	1	0	0	CorrectCommission	1.044308	0.801824	0
268.648773	0.795742	city	3	1	0.549058	0.549058	0	1	0	0	CorrectCommission	0.764070	0.785065	0
269.444550	0.795801	city	6	1	0.551645	0.551645	0	1	0	0	CorrectCommission	0.740569	0.763646	0
270.240417	0.795900	city	4	1	0.558608	0.558608	0	1	0	0	CorrectCommission	0.677328	0.737944	0
271.036255	0.795765	mountain	5	0	0.000000	0.645421	1	0	0	0	CorrectOmission	0.111205	0.708502	0
271.832031	0.795808	city	8	1	0.700186	0.700186	0	1	0	0	CorrectCommission	0.608634	0.676029	1
272.627808	0.795730	city	4	1	0.611001	0.611001	0	1	0	0	CorrectCommission	0.201439	0.641243	1
273.423584	0.795823	city	10	1	0.503270	0.503270	0	1	0	0	CorrectCommission	1.179963	0.604955	1
274.219421	0.795883	city	9	1	0.500086	0.500086	0	1	0	0	CorrectCommission	1.208887	0.568063	1
275.015228	0.795722	city	4	1	0.549381	0.549381	0	1	0	0	CorrectCommission	0.761134	0.531642	1
275.811005	0.795830	city	6	1	0.599014	0.599014	0	1	0	0	CorrectCommission	0.310315	0.496839	1
276.606964	0.796115	city	4	1	0.648828	0.648828	0	1	0	0	CorrectCommission	0.142145	0.464968	1
277.402771	0.795455	city	9	1	0.599314	0.599314	0	1	0	0	CorrectCommission	0.307593	0.437458	1
278.198395	0.795830	city	2	1	0.599873	0.599873	0	1	0	0	CorrectCommission	0.302517	0.415664	1
278.994202	0.795772	city	8	1	0.648524	0.648524	0	1	0	0	CorrectCommission	0.139387	0.400878	1
279.790009	0.795859	city	3	1	0.649840	0.649840	0	1	0	0	CorrectCommission	0.151343	0.394193	1
280.585815	0.795740	city	10	1	0.648832	0.648832	0	1	0	0	CorrectCommission	0.142183	0.396342	1
281.381622	0.795884	city	6	1	0.698994	0.698994	0	1	0	0	CorrectCommission	0.597804	0.407640	1
282.177460	0.795795	city	3	1	0.650854	0.650854	0	1	0	0	CorrectCommission	0.160546	0.427829	1
282.973267	0.795779	city	9	1	0.652171	0.652171	0	1	0	0	CorrectCommission	0.172514	0.456164	1
283.769073	0.795835	city	10	1	0.599265	0.599265	0	1	0	0	CorrectCommission	0.308039	0.491269	1
284.564850	0.795746	city	1	1	0.600385	0.600385	0	1	0	0	CorrectCommission	0.297862	0.531195	1
285.360779	0.796131	city	8	1	0.599911	0.599911	0	1	0	0	CorrectCommission	0.302167	0.573611	1
286.156738	0.795788	city	5	1	0.549415	0.549415	0	1	0	0	CorrectCommission	0.760825	0.615946	1
286.952393	0.795485	city	6	1	0.751048	0.751048	0	1	0	0	CorrectCommission	1.070615	0.655576	1
287.748016	0.795777	city	3	1	0.549651	0.549651	0	1	0	0	CorrectCommission	0.758678	0.690024	0
288.543823	0.795852	city	4	1	0.562981	0.562981	0	1	0	0	CorrectCommission	0.637609	0.717388	0
289.339630	0.795748	mountain	8	1	0.499493	0.499493	0	0	1	0	CommissionError	1.214274	0.736449	0
290.135590	0.796153	city	2	1	0.847592	0.847592	0	1	0	0	CorrectCommission	1.947533	0.746798	0
290.931366	0.795438	city	7	1	0.698007	0.698007	0	1	0	0	CorrectCommission	0.588841	0.749057	0
291.727051	0.795908	city	4	1	0.599353	0.599353	0	1	0	0	CorrectCommission	0.307239	0.744939	0
292.522888	0.795793	mountain	1	1	0.450600	0.450600	0	0	1	0	CommissionError	1.658370	0.737106	0
293.318665	0.795738	city	7	1	0.608369	0.608369	0	1	0	0	CorrectCommission	0.225343	0.728916	0
294.114441	0.795838	city	1	1	0.550043	0.550043	0	1	0	0	CorrectCommission	0.755122	0.724322	0
294.910278	0.795794	city	5	1	0.550181	0.550181	0	1	0	0	CorrectCommission	0.753865	0.727202	0
295.706085	0.795823	city	9	1	0.648849	0.648849	0	1	0	0	CorrectCommission	0.142338	0.741050	0
296.501892	0.795801	city	4	1	0.612955	0.612955	0	1	0	0	CorrectCommission	0.183692	0.768482	0
297.297668	0.795748	city	7	1	0.599107	0.599107	0	1	0	0	CorrectCommission	0.309475	0.810773	0
298.093445	0.795777	city	3	1	0.762584	0.762584	0	1	0	0	CorrectCommission	1.175402	0.867599	0
298.889252	0.795844	city	2	1	0.648987	0.648987	0	1	0	0	CorrectCommission	0.143590	0.936796	0
299.685059	0.795815	mountain	5	0	0.000000	0.631546	1	0	0	0	CorrectOmission	0.014827	1.014611	0
300.480865	0.795790	city	8	1	0.617633	0.617633	0	1	0	0	CorrectCommission	0.141201	1.095780	0
301.276642	0.795768	city	7	1	0.514618	0.514618	0	1	0	0	CorrectCommission	1.076884	1.174126	0
302.072601	0.796141	mountain	2	1	0.417935	0.417935	0	0	1	0	CommissionError	1.955062	1.243196	0
302.868439	0.795502	city	1	1	0.549154	0.549154	0	1	0	0	CorrectCommission	0.763198	1.297097	0
303.664062	0.795741	city	9	1	1.062911	1.062911	0	1	0	0	CorrectCommission	3.903286	1.331225	0
304.459869	0.795880	city	3	1	1.164756	1.164756	0	1	0	0	CorrectCommission	4.828342	1.342646	0
305.255676	0.795782	city	6	0	0.000000	0.805187	0	0	0	1	OmissionError	1.562366	1.330686	0
306.051483	0.795801	city	10	1	0.450658	0.450658	0	1	0	0	CorrectCommission	1.657843	1.297010	0
306.847260	0.795750	city	2	1	0.567618	0.567618	0	1	0	0	CorrectCommission	0.595488	1.245056	0
307.643036	0.795823	city	6	1	0.699407	0.699407	0	1	0	0	CorrectCommission	0.601558	1.179663	0
308.438904	0.795874	city	2	1	0.649728	0.649728	0	1	0	0	CorrectCommission	0.150318	1.106381	0
309.234711	0.795759	city	10	1	0.798015	0.798015	0	1	0	0	CorrectCommission	1.497220	1.030765	0
310.030518	0.795836	city	3	1	0.599562	0.599562	0	1	0	0	CorrectCommission	0.305339	0.957607	0
310.826294	0.795756	city	7	1	0.698911	0.698911	0	1	0	0	CorrectCommission	0.597058	0.890719	0
311.622070	0.795751	city	10	1	0.648966	0.648966	0	1	0	0	CorrectCommission	0.143400	0.832471	0
312.417847	0.795850	city	2	1	0.613279	0.613279	0	1	0	0	CorrectCommission	0.180748	0.783843	0
313.213837	0.796118	city	6	1	0.763298	0.763298	0	1	0	0	CorrectCommission	1.181887	0.744573	0
314.009674	0.795525	city	2	1	0.697896	0.697896	0	1	0	0	CorrectCommission	0.587835	0.713395	0
314.805328	0.795794	city	9	1	0.848713	0.848713	0	1	0	0	CorrectCommission	1.957709	0.688517	0
315.601135	0.795815	city	3	1	0.614847	0.614847	0	1	0	0	CorrectCommission	0.166504	0.667847	1
316.397064	0.796087	city	6	1	0.654367	0.654367	0	1	0	0	CorrectCommission	0.192461	0.649563	1
317.192871	0.795481	city	5	1	0.662292	0.662292	0	1	0	0	CorrectCommission	0.264438	0.632211	1
317.988525	0.795855	city	4	1	0.798124	0.798124	0	1	0	0	CorrectCommission	1.498206	0.614885	1
318.784363	0.795787	city	10	1	0.714223	0.714223	0	1	0	0	CorrectCommission	0.736133	0.597190	1
319.580139	0.795793	city	8	1	0.598744	0.598744	0	1	0	0	CorrectCommission	0.312764	0.579332	1
320.375916	0.795740	city	1	1	0.706502	0.706502	0	1	0	0	CorrectCommission	0.666002	0.562013	1
321.171692	0.795841	city	3	1	0.549389	0.549389	0	1	0	0	CorrectCommission	0.761059	0.546150	1
321.967529	0.795832	city	1	1	0.599658	0.599658	0	1	0	0	CorrectCommission	0.304469	0.532868	1
322.763306	0.795726	city	3	1	0.615559	0.615559	0	1	0	0	CorrectCommission	0.160039	0.523361	1
323.559082	0.795810	city	6	1	0.698736	0.698736	0	1	0	0	CorrectCommission	0.595461	0.518792	1
324.354889	0.795784	mountain	7	1	0.648660	0.648660	0	0	1	0	CommissionError	0.140623	0.520212	1
325.150696	0.795852	city	2	1	0.648728	0.648728	0	1	0	0	CorrectCommission	0.141237	0.528640	1
325.946533	0.795826	city	8	1	0.601496	0.601496	0	1	0	0	CorrectCommission	0.287772	0.545071	1
326.742340	0.795813	city	1	1	0.549491	0.549491	0	1	0	0	CorrectCommission	0.760132	0.570491	1
327.538147	0.795767	city	5	1	0.549425	0.549425	0	1	0	0	CorrectCommission	0.760737	0.605977	1
328.333893	0.795762	city	6	1	0.748243	0.748243	0	1	0	0	CorrectCommission	1.045140	0.652605	1
329.129730	0.795870	city	8	1	0.699055	0.699055	0	1	0	0	CorrectCommission	0.598363	0.711301	0
329.925568	0.795816	city	4	1	0.611556	0.611556	0	1	0	0	CorrectCommission	0.196398	0.782635	0
330.721313	0.795694	city	6	1	0.648894	0.648894	0	1	0	0	CorrectCommission	0.142746	0.866478	0
331.517090	0.795812	city	1	1	0.603880	0.603880	0	1	0	0	CorrectCommission	0.266120	0.961722	0
332.312927	0.795892	city	5	1	0.450032	0.450032	0	1	0	0	CorrectCommission	1.663529	1.065965	0
333.108765	0.795784	city	1	1	0.450289	0.450289	0	1	0	0	CorrectCommission	1.661191	1.175417	0
333.904694	0.796091	city	3	1	0.651540	0.651540	0	1	0	0	CorrectCommission	0.166784	1.284983	0
334.700500	0.795505	city	2	1	0.648669	0.648669	0	1	0	0	CorrectCommission	0.140704	1.388530	0
335.496155	0.795821	city	3	1	0.700341	0.700341	0	1	0	0	CorrectCommission	0.610041	1.479213	0
336.291962	0.795789	city	6	1	0.798030	0.798030	0	1	0	0	CorrectCommission	1.497351	1.550264	0
337.087738	0.795743	city	8	1	1.146371	1.146371	0	1	0	0	CorrectCommission	4.661351	1.595749	0
337.883545	0.795880	city	10	1	0.948106	0.948106	0	1	0	0	CorrectCommission	2.860504	1.611281	0
338.679382	0.795807	city	5	1	1.096319	1.096319	0	1	0	0	CorrectCommission	4.206730	1.594908	0
339.475159	0.795710	city	7	1	0.956423	0.956423	0	1	0	0	CorrectCommission	2.936047	1.547133	0
340.270935	0.795844	city	4	1	0.897531	0.897531	0	1	0	0	CorrectCommission	2.401125	1.471246	0
341.066742	0.795799	city	6	1	0.748808	0.748808	0	1	0	0	CorrectCommission	1.050269	1.372824	0
341.862549	0.795779	city	3	1	0.649700	0.649700	0	1	0	0	CorrectCommission	0.150070	1.259200	0
342.658325	0.795828	city	4	1	0.601680	0.601680	0	1	0	0	CorrectCommission	0.286096	1.138643	0
343.454163	0.795823	city	7	1	0.603243	0.603243	0	1	0	0	CorrectCommission	0.271903	1.019452	0
344.250122	0.796083	city	3	1	0.599905	0.599905	0	1	0	0	CorrectCommission	0.302222	0.909200	0
345.045898	0.795495	city	9	1	0.600727	0.600727	0	1	0	0	CorrectCommission	0.294760	0.814223	0
345.841553	0.795797	city	3	1	0.565990	0.565990	0	1	0	0	CorrectCommission	0.610272	0.739145	0
346.637360	0.795808	mountain	7	0	0.000000	0.614581	1	0	0	0	CorrectOmission	0.168915	0.686793	0
347.433136	0.795761	city	5	1	0.655932	0.655932	0	1	0	0	CorrectCommission	0.206677	0.658264	1
348.228943	0.795841	city	1	1	0.599475	0.599475	0	1	0	0	CorrectCommission	0.306127	0.653062	1
349.024780	0.795814	city	2	1	0.549935	0.549935	0	1	0	0	CorrectCommission	0.756100	0.669420	1
349.820557	0.795766	city	9	1	0.549044	0.549044	0	1	0	0	CorrectCommission	0.764196	0.704472	0
350.616364	0.795842	city	2	1	0.599985	0.599985	0	1	0	0	CorrectCommission	0.301498	0.754626	0
351.412231	0.795891	city	6	1	0.599441	0.599441	0	1	0	0	CorrectCommission	0.306435	0.815819	0
352.208008	0.795677	city	10	1	0.599061	0.599061	0	1	0	0	CorrectCommission	0.309893	0.883655	0
353.003906	0.796137	city	9	1	0.499499	0.499499	0	1	0	0	CorrectCommission	1.214215	0.953595	0
353.799866	0.795779	city	5	1	0.400972	0.400972	0	1	0	0	CorrectCommission	2.109143	1.021129	0
354.595673	0.795823	city	3	1	0.599396	0.599396	0	1	0	0	CorrectCommission	0.306845	1.081877	0
355.391357	0.795528	city	6	1	0.500087	0.500087	0	1	0	0	CorrectCommission	1.208874	1.132076	0
356.186981	0.795760	city	7	1	0.449547	0.449547	0	1	0	0	CorrectCommission	1.667929	1.168483	0
356.982788	0.795843	city	2	1	0.449724	0.449724	0	1	0	0	CorrectCommission	1.666327	1.188759	0
357.778625	0.795803	city	1	1	0.350446	0.350446	0	1	0	0	CorrectCommission	2.568065	1.191620	0
358.574432	0.795797	mountain	1	1	0.409887	0.409887	0	0	1	0	CommissionError	2.028163	1.176913	0
359.370209	0.795799	city	2	1	0.558317	0.558317	0	1	0	0	CorrectCommission	0.679965	1.145664	0
360.166016	0.795782	city	6	1	0.853513	0.853513	0	1	0	0	CorrectCommission	2.001306	1.099963	0
360.961792	0.795794	city	7	1	0.698633	0.698633	0	1	0	0	CorrectCommission	0.594526	1.042613	0
361.757599	0.795790	city	1	1	0.550122	0.550122	0	1	0	0	CorrectCommission	0.754407	0.977061	0
362.553375	0.795761	city	10	1	0.698394	0.698394	0	1	0	0	CorrectCommission	0.592353	0.906949	0
363.349152	0.795802	city	2	1	0.698911	0.698911	0	1	0	0	CorrectCommission	0.597052	0.835828	0
364.145111	0.796151	city	9	1	0.797818	0.797818	0	1	0	0	CorrectCommission	1.495430	0.766941	0
364.940948	0.795484	city	8	1	0.654233	0.654233	0	1	0	0	CorrectCommission	0.191244	0.702965	0
365.736603	0.795819	city	1	1	0.598896	0.598896	0	1	0	0	CorrectCommission	0.311383	0.645943	1
366.532440	0.795851	city	4	1	0.659897	0.659897	0	1	0	0	CorrectCommission	0.242691	0.597164	1
367.328247	0.795777	city	6	1	0.663948	0.663948	0	1	0	0	CorrectCommission	0.279486	0.557223	1
368.124023	0.795820	city	8	1	0.603426	0.603426	0	1	0	0	CorrectCommission	0.270241	0.526098	1
368.919800	0.795725	city	7	1	0.567302	0.567302	0	1	0	0	CorrectCommission	0.598357	0.503276	1
369.715607	0.795861	mountain	10	1	0.607809	0.607809	0	0	1	0	CommissionError	0.230427	0.487908	1
370.511414	0.795777	city	9	1	0.567412	0.567412	0	1	0	0	CorrectCommission	0.597354	0.478978	1
371.307190	0.795755	city	3	1	0.549439	0.549439	0	1	0	0	CorrectCommission	0.760606	0.475341	1
372.102997	0.795888	mountain	10	1	0.599251	0.599251	0	0	1	0	CommissionError	0.308166	0.475977	1
372.898834	0.795781	city	10	1	0.599155	0.599155	0	1	0	0	CorrectCommission	0.309033	0.479962	1
373.694611	0.795729	city	4	1	0.551588	0.551588	0	1	0	0	CorrectCommission	0.741084	0.486491	1
374.490387	0.795849	city	1	1	0.598903	0.598903	0	1	0	0	CorrectCommission	0.311328	0.494914	1
375.286224	0.795801	city	2	1	0.553513	0.553513	0	1	0	0	CorrectCommission	0.723602	0.504676	1
376.082001	0.795805	city	1	1	0.600111	0.600111	0	1	0	0	CorrectCommission	0.300354	0.515302	1
376.877808	0.795756	city	3	1	0.648777	0.648777	0	1	0	0	CorrectCommission	0.141685	0.526449	1
377.673553	0.795787	city	7	1	0.699303	0.699303	0	1	0	0	CorrectCommission	0.600611	0.537763	1
378.469421	0.795902	city	5	1	0.648784	0.648784	0	1	0	0	CorrectCommission	0.141744	0.548946	1
379.265259	0.795810	city	1	1	0.748742	0.748742	0	1	0	0	CorrectCommission	1.049672	0.559776	1
380.061035	0.795702	city	5	1	0.806318	0.806318	0	1	0	0	CorrectCommission	1.572636	0.570003	1
380.856812	0.795857	city	10	1	0.651334	0.651334	0	1	0	0	CorrectCommission	0.164912	0.579410	1
381.652649	0.795835	mountain	10	1	0.698234	0.698234	0	0	1	0	CommissionError	0.590903	0.587830	1
382.448456	0.795808	city	10	1	0.699888	0.699888	0	1	0	0	CorrectCommission	0.605929	0.594989	1
383.244232	0.795717	city	1	1	0.654292	0.654292	0	1	0	0	CorrectCommission	0.191776	0.600550	1
384.039978	0.795792	city	9	1	0.649864	0.649864	0	1	0	0	CorrectCommission	0.151555	0.604113	1
384.835968	0.796172	city	5	1	0.699149	0.699149	0	1	0	0	CorrectCommission	0.599219	0.605177	1
385.631775	0.795434	city	9	1	0.748717	0.748717	0	1	0	0	CorrectCommission	1.049441	0.603228	1
386.427582	0.796159	city	1	1	0.699425	0.699425	0	1	0	0	CorrectCommission	0.601720	0.597806	1
387.223389	0.795503	city	6	1	0.748772	0.748772	0	1	0	0	CorrectCommission	1.049939	0.588663	1
388.019043	0.795800	city	8	1	0.560172	0.560172	0	1	0	0	CorrectCommission	0.663122	0.575790	1
388.814850	0.795783	city	5	1	0.550159	0.550159	0	1	0	0	CorrectCommission	0.754063	0.559480	1
389.610779	0.796096	mountain	4	1	0.500412	0.500412	0	0	1	0	CommissionError	1.205923	0.540358	1
390.406586	0.795532	city	2	1	0.648290	0.648290	0	1	0	0	CorrectCommission	0.137260	0.519277	1
391.202271	0.795799	city	3	1	0.664415	0.664415	0	1	0	0	CorrectCommission	0.283725	0.497302	1
391.998077	0.795806	city	2	1	0.648633	0.648633	0	1	0	0	CorrectCommission	0.140376	0.475528	1
392.794006	0.796091	city	7	1	0.599207	0.599207	0	1	0	0	CorrectCommission	0.308562	0.454983	1
393.589813	0.795509	city	9	1	0.648997	0.648997	0	1	0	0	CorrectCommission	0.143681	0.436503	1
394.385498	0.795842	city	5	1	0.549365	0.549365	0	1	0	0	CorrectCommission	0.761281	0.420723	1
395.181274	0.795742	city	4	1	0.649622	0.649622	0	1	0	0	CorrectCommission	0.149359	0.407960	1
395.977051	0.795803	city	5	1	0.649049	0.649049	0	1	0	0	CorrectCommission	0.144156	0.398372	1
396.772858	0.795838	city	9	1	0.748298	0.748298	0	1	0	0	CorrectCommission	1.045638	0.391888	1
397.568695	0.795810	city	4	1	0.648923	0.648923	0	1	0	0	CorrectCommission	0.143013	0.388247	1
398.364502	0.795786	city	8	1	0.663391	0.663391	0	1	0	0	CorrectCommission	0.274426	0.387236	1
399.160278	0.795809	city	4	1	0.698356	0.698356	0	1	0	0	CorrectCommission	0.592017	0.388562	1
399.956085	0.795786	city	9	1	0.649385	0.649385	0	1	0	0	CorrectCommission	0.147208	0.391961	1
400.751892	0.795819	city	5	1	0.599965	0.599965	0	1	0	0	CorrectCommission	0.301676	0.397204	1
401.547699	0.795804	city	2	1	0.600734	0.600734	0	1	0	0	CorrectCommission	0.294694	0.404064	1
402.343506	0.795809	city	3	1	0.648836	0.648836	0	1	0	0	CorrectCommission	0.142220	0.412336	1
403.139282	0.795710	city	7	1	0.748269	0.748269	0	1	0	0	CorrectCommission	1.045379	0.421845	1
403.935059	0.795886	city	10	1	0.616150	0.616150	0	1	0	0	CorrectCommission	0.154672	0.432379	1
404.730865	0.795712	city	3	1	0.555922	0.555922	0	1	0	0	CorrectCommission	0.701719	0.443811	1
405.526672	0.795903	city	7	1	0.617915	0.617915	0	1	0	0	CorrectCommission	0.138639	0.455967	1
406.322540	0.795808	city	2	1	0.648920	0.648920	0	1	0	0	CorrectCommission	0.142980	0.468736	1
407.118317	0.795769	city	9	1	0.704882	0.704882	0	1	0	0	CorrectCommission	0.651292	0.482054	1
407.914246	0.796100	city	10	1	0.748890	0.748890	0	1	0	0	CorrectCommission	1.051011	0.495864	1
408.710052	0.795483	city	4	1	0.664781	0.664781	0	1	0	0	CorrectCommission	0.287045	0.510178	1
409.505676	0.795805	city	7	1	0.702889	0.702889	0	1	0	0	CorrectCommission	0.633187	0.525092	1
410.301636	0.796111	city	1	1	0.658185	0.658185	0	1	0	0	CorrectCommission	0.227142	0.540707	1
411.097595	0.795798	city	7	1	0.698815	0.698815	0	1	0	0	CorrectCommission	0.596181	0.557170	1
411.893219	0.795462	city	9	1	0.698435	0.698435	0	1	0	0	CorrectCommission	0.592733	0.574690	1
412.688873	0.795804	city	2	1	0.610277	0.610277	0	1	0	0	CorrectCommission	0.208012	0.593413	1
413.484680	0.795843	city	8	1	0.699113	0.699113	0	1	0	0	CorrectCommission	0.598889	0.613546	1
414.280518	0.795799	city	6	1	0.699295	0.699295	0	1	0	0	CorrectCommission	0.600537	0.635186	1
415.076294	0.795744	city	3	1	0.452651	0.452651	0	1	0	0	CorrectCommission	1.639736	0.658515	1
415.872223	0.796140	city	8	1	0.555382	0.555382	0	1	0	0	CorrectCommission	0.706628	0.683666	0
416.668060	0.795532	mountain	2	0	0.000000	0.642409	1	0	0	0	CorrectOmission	0.083841	0.710838	0
417.463715	0.795760	city	6	1	0.650354	0.650354	0	1	0	0	CorrectCommission	0.156006	0.740208	0
418.259491	0.795802	city	4	1	0.515839	0.515839	0	1	0	0	CorrectCommission	1.065798	0.771920	0
419.055298	0.795828	city	7	1	0.599536	0.599536	0	1	0	0	CorrectCommission	0.305576	0.806056	0
419.851105	0.795808	city	10	1	0.499813	0.499813	0	1	0	0	CorrectCommission	1.211366	0.842697	0
420.646942	0.795829	city	6	1	0.553256	0.553256	0	1	0	0	CorrectCommission	0.725942	0.881707	0
421.442749	0.795797	mountain	8	1	0.549747	0.549747	0	0	1	0	CommissionError	0.757807	0.922857	0
422.238525	0.795779	city	4	1	0.904188	0.904188	0	1	0	0	CorrectCommission	2.461590	0.965630	0
423.034332	0.795794	city	7	1	0.716783	0.716783	0	1	0	0	CorrectCommission	0.759381	1.009097	0
423.830109	0.795788	city	5	1	0.552787	0.552787	0	1	0	0	CorrectCommission	0.730195	1.052027	0
424.625916	0.795836	city	6	1	0.648664	0.648664	0	1	0	0	CorrectCommission	0.140660	1.092681	0
425.421692	0.795725	city	8	1	0.598814	0.598814	0	1	0	0	CorrectCommission	0.312132	1.128912	0
426.217499	0.795839	city	4	1	0.649230	0.649230	0	1	0	0	CorrectCommission	0.145796	1.158280	0
427.013336	0.795855	city	10	1	1.047179	1.047179	0	1	0	0	CorrectCommission	3.760390	1.178309	0
427.809143	0.795760	mountain	9	0	0.000000	0.768137	1	0	0	0	CorrectOmission	1.225834	1.186649	0
428.605072	0.796123	city	3	1	0.404533	0.404533	0	1	0	0	CorrectCommission	2.076799	1.181720	0
429.400909	0.795518	city	7	1	0.548798	0.548798	0	1	0	0	CorrectCommission	0.766433	1.162654	0
430.196564	0.795799	city	4	1	0.400611	0.400611	0	1	0	0	CorrectCommission	2.112419	1.129708	0
430.992310	0.795724	city	1	1	0.418189	0.418189	0	1	0	0	CorrectCommission	1.952759	1.084117	0
431.788269	0.796164	city	5	1	0.455297	0.455297	0	1	0	0	CorrectCommission	1.615705	1.028125	0
432.584076	0.795425	city	1	1	0.599628	0.599628	0	1	0	0	CorrectCommission	0.304734	0.964682	0
433.388000	0.812440	city	2	1	0.665560	0.665560	0	1	0	0	CorrectCommission	0.294121	0.897173	0
434.192261	0.796106	city	1	1	0.698660	0.698660	0	1	0	0	CorrectCommission	0.594776	0.828974	0
434.988068	0.795522	city	3	1	0.698820	0.698820	0	1	0	0	CorrectCommission	0.596228	0.763126	0
435.783752	0.795829	city	9	1	0.612490	0.612490	0	1	0	0	CorrectCommission	0.187908	0.702035	0
436.579712	0.796053	city	8	1	0.599437	0.599437	0	1	0	0	CorrectCommission	0.306474	0.647387	1
437.375458	0.795439	city	7	1	0.553739	0.553739	0	1	0	0	CorrectCommission	0.721548	0.600029	1
438.171112	0.795910	city	8	1	0.612997	0.612997	0	1	0	0	CorrectCommission	0.183308	0.560091	1
438.966949	0.795745	city	1	1	0.660169	0.660169	0	1	0	0	CorrectCommission	0.245157	0.527242	1
439.762726	0.795805	city	10	1	0.748430	0.748430	0	1	0	0	CorrectCommission	1.046838	0.500823	1
440.558533	0.795790	city	7	1	0.749778	0.749778	0	1	0	0	CorrectCommission	1.059081	0.480148	1
441.354462	0.796125	city	1	1	0.599245	0.599245	0	1	0	0	CorrectCommission	0.308220	0.464721	1
442.150452	0.795801	city	5	1	0.598963	0.598963	0	1	0	0	CorrectCommission	0.310775	0.454378	1
442.946075	0.795450	city	3	1	0.598852	0.598852	0	1	0	0	CorrectCommission	0.311784	0.449242	1
443.741730	0.795855	city	5	1	0.654512	0.654512	0	1	0	0	CorrectCommission	0.193778	0.449803	1
444.537537	0.795801	mountain	1	1	0.649379	0.649379	0	0	1	0	CommissionError	0.147151	0.456673	1
445.333344	0.795777	city	3	1	0.599905	0.599905	0	1	0	0	CorrectCommission	0.302220	0.470623	1
446.129150	0.795867	city	2	1	0.549446	0.549446	0	1	0	0	CorrectCommission	0.760545	0.492309	1
446.925110	0.796029	city	6	1	0.648589	0.648589	0	1	0	0	CorrectCommission	0.139978	0.522159	1
447.720856	0.795489	city	10	1	0.607331	0.607331	0	1	0	0	CorrectCommission	0.234772	0.560198	1
448.516541	0.795861	city	7	1	0.599175	0.599175	0	1	0	0	CorrectCommission	0.308850	0.605946	1
449.312347	0.795774	mountain	5	0	0.000000	0.705791	1	0	0	0	CorrectOmission	0.659547	0.658370	1
450.108307	0.796118	city	6	1	0.749146	0.749146	0	1	0	0	CorrectCommission	1.053341	0.715900	0
450.904114	0.795494	city	10	1	0.551207	0.551207	0	1	0	0	CorrectCommission	0.744545	0.776450	0
451.699768	0.795830	city	3	1	0.563463	0.563463	0	1	0	0	CorrectCommission	0.633226	0.837586	0
452.495575	0.795790	city	1	1	0.553749	0.553749	0	1	0	0	CorrectCommission	0.721455	0.896663	0
453.291382	0.795809	city	8	1	0.611839	0.611839	0	1	0	0	CorrectCommission	0.193825	0.951045	0
454.087189	0.795818	city	1	1	0.549972	0.549972	0	1	0	0	CorrectCommission	0.755766	0.998365	0
454.882996	0.795808	city	2	1	0.401490	0.401490	0	1	0	0	CorrectCommission	2.104438	1.036665	0
455.678802	0.795787	city	1	1	0.399928	0.399928	0	1	0	0	CorrectCommission	2.118627	1.064611	0
456.474579	0.795756	city	10	1	0.897125	0.897125	0	1	0	0	CorrectCommission	2.397445	1.081680	0
457.270355	0.795802	city	6	1	0.847564	0.847564	0	1	0	0	CorrectCommission	1.947277	1.087999	0
458.066315	0.796116	city	9	1	0.702322	0.702322	0	1	0	0	CorrectCommission	0.628034	1.084320	0
458.862091	0.795458	mountain	2	0	0.000000	0.670487	1	0	0	0	CorrectOmission	0.338879	1.071875	0
459.657745	0.795838	city	10	1	0.665170	0.665170	0	1	0	0	CorrectCommission	0.290578	1.052002	0
460.453552	0.795788	city	7	1	0.599478	0.599478	0	1	0	0	CorrectCommission	0.306100	1.025996	0
461.249390	0.795856	city	1	1	0.499310	0.499310	0	1	0	0	CorrectCommission	1.215933	0.995000	0
462.045166	0.795708	city	3	1	0.499411	0.499411	0	1	0	0	CorrectCommission	1.215014	0.959916	0
462.840942	0.795842	city	1	1	0.512068	0.512068	0	1	0	0	CorrectCommission	1.100046	0.921541	0
463.636749	0.795766	city	5	1	0.466155	0.466155	0	1	0	0	CorrectCommission	1.517082	0.880615	0
464.432556	0.795825	city	10	1	0.450127	0.450127	0	1	0	0	CorrectCommission	1.662659	0.837973	0
465.228516	0.796143	city	5	1	0.500619	0.500619	0	1	0	0	CorrectCommission	1.204038	0.794631	0
466.024353	0.795482	city	4	1	0.598765	0.598765	0	1	0	0	CorrectCommission	0.312573	0.751839	0
466.819946	0.795756	city	6	1	0.667209	0.667209	0	1	0	0	CorrectCommission	0.309103	0.710973	0
467.615784	0.795893	city	7	1	0.599830	0.599830	0	1	0	0	CorrectCommission	0.302903	0.673402	1
468.411591	0.795729	city	6	1	0.649144	0.649144	0	1	0	0	CorrectCommission	0.145014	0.640348	1
469.207520	0.796139	city	9	1	0.600081	0.600081	0	1	0	0	CorrectCommission	0.300623	0.612735	1
470.003357	0.795521	city	10	1	0.598981	0.598981	0	1	0	0	CorrectCommission	0.310616	0.591039	1
470.799011	0.795794	city	8	1	0.598926	0.598926	0	1	0	0	CorrectCommission	0.311112	0.575303	1
471.594818	0.795821	city	9	1	0.798514	0.798514	0	1	0	0	CorrectCommission	1.501749	0.565136	1
472.390778	0.796080	city	7	1	0.664704	0.664704	0	1	0	0	CorrectCommission	0.286352	0.559741	1
473.186554	0.795460	city	6	1	0.649803	0.649803	0	1	0	0	CorrectCommission	0.151001	0.558237	1
473.982208	0.795866	city	10	1	0.499399	0.499399	0	1	0	0	CorrectCommission	1.215123	0.559670	1
474.778015	0.795759	city	7	1	0.598849	0.598849	0	1	0	0	CorrectCommission	0.311815	0.563209	1
475.573761	0.795748	city	9	1	0.649228	0.649228	0	1	0	0	CorrectCommission	0.145784	0.568443	1
476.369568	0.795855	city	8	1	0.558848	0.558848	0	1	0	0	CorrectCommission	0.675144	0.575394	1
477.165375	0.795770	city	5	1	0.549463	0.549463	0	1	0	0	CorrectCommission	0.760387	0.584561	1
477.961212	0.795869	city	6	1	0.749136	0.749136	0	1	0	0	CorrectCommission	1.053247	0.596998	1
478.757172	0.796055	city	9	1	0.698641	0.698641	0	1	0	0	CorrectCommission	0.594604	0.614170	1
479.552948	0.795515	mountain	1	0	0.000000	0.683951	1	0	0	0	CorrectOmission	0.461170	0.637876	1
480.348633	0.795819	city	1	1	0.654680	0.654680	0	1	0	0	CorrectCommission	0.195303	0.670000	1
481.144440	0.795810	city	2	1	0.560445	0.560445	0	1	0	0	CorrectCommission	0.660637	0.712298	0
481.940247	0.795792	city	9	1	0.610865	0.610865	0	1	0	0	CorrectCommission	0.202670	0.766110	0
482.736176	0.796100	city	7	1	0.549560	0.549560	0	1	0	0	CorrectCommission	0.759512	0.832208	0
483.531952	0.795435	city	8	1	0.550184	0.550184	0	1	0	0	CorrectCommission	0.753845	0.910548	0
484.327606	0.795881	city	4	1	0.563251	0.563251	0	1	0	0	CorrectCommission	0.635153	1.000176	0
485.123444	0.795819	city	5	1	0.652625	0.652625	0	1	0	0	CorrectCommission	0.176637	1.099271	0
485.919250	0.795752	city	7	1	0.715275	0.715275	0	1	0	0	CorrectCommission	0.745684	1.205218	0
486.715027	0.795811	mountain	6	0	0.000000	0.777924	1	0	0	0	CorrectOmission	1.314732	1.314732	0
