onset	duration	trial_type	image_type	Press	ReactionTime	ReactionTime_Interpolated	CorrectOmission	CorrectCommission	CommissionError	OmissionError	response_type	nonsmoothVarianceTimeCourse	VarianceTimeCourse	In_the_Zone
8.417590	0.792361	mountain	1	0	0.000000	0.690632	1	0	0	0	CorrectOmission	0.195962	0.195962	1
9.209867	0.792192	city	9	1	0.698376	0.698376	0	1	0	0	CorrectCommission	0.133118	0.237124	1
10.002014	0.792102	city	8	1	0.706121	0.706121	0	1	0	0	CorrectCommission	0.070275	0.276791	1
10.794320	0.792509	city	6	1	0.844237	0.844237	0	1	0	0	CorrectCommission	1.050550	0.313599	1
11.586559	0.791971	city	1	1	0.603314	0.603314	0	1	0	0	CorrectCommission	0.904551	0.346462	1
12.378649	0.792207	city	7	1	0.695157	0.695157	0	1	0	0	CorrectCommission	0.159246	0.374752	1
13.171039	0.792573	city	8	1	0.645819	0.645819	0	1	0	0	CorrectCommission	0.559622	0.398303	1
13.963326	0.792001	city	4	1	0.695389	0.695389	0	1	0	0	CorrectCommission	0.157365	0.417346	1
14.755594	0.792537	city	10	1	0.646066	0.646066	0	1	0	0	CorrectCommission	0.557617	0.432531	1
15.548018	0.792311	city	5	1	0.793987	0.793987	0	1	0	0	CorrectCommission	0.642764	0.444716	1
16.340158	0.791970	city	1	1	0.645497	0.645497	0	1	0	0	CorrectCommission	0.562237	0.454932	1
17.132429	0.792572	city	9	1	0.655050	0.655050	0	1	0	0	CorrectCommission	0.484713	0.464219	1
17.924702	0.791973	city	8	1	0.744370	0.744370	0	1	0	0	CorrectCommission	0.240124	0.473487	1
18.716944	0.792512	city	3	1	0.695967	0.695967	0	1	0	0	CorrectCommission	0.152669	0.483414	1
19.509312	0.792220	city	7	1	0.654865	0.654865	0	1	0	0	CorrectCommission	0.486217	0.494375	1
20.301456	0.792071	city	5	1	0.645907	0.645907	0	1	0	0	CorrectCommission	0.558907	0.506405	1
21.093742	0.792501	city	10	1	0.661511	0.661511	0	1	0	0	CorrectCommission	0.432286	0.519240	1
21.885998	0.792010	city	9	1	0.794399	0.794399	0	1	0	0	CorrectCommission	0.646112	0.532333	1
22.678143	0.792276	mountain	9	1	0.744600	0.744600	0	0	1	0	CommissionError	0.241990	0.544970	1
23.470411	0.792262	city	7	1	0.646191	0.646191	0	1	0	0	CorrectCommission	0.556606	0.556376	1
24.262749	0.792414	city	9	1	0.605182	0.605182	0	1	0	0	CorrectCommission	0.889394	0.565745	1
25.055124	0.792339	city	10	1	0.546484	0.546484	0	1	0	0	CorrectCommission	1.365729	0.572458	1
25.847397	0.792204	city	3	1	0.744821	0.744821	0	1	0	0	CorrectCommission	0.243780	0.576013	1
26.639660	0.792325	city	4	1	0.662595	0.662595	0	1	0	0	CorrectCommission	0.423487	0.576218	1
27.431807	0.791966	city	7	1	0.645894	0.645894	0	1	0	0	CorrectCommission	0.559012	0.573101	1
28.224068	0.792556	city	6	1	0.794814	0.794814	0	1	0	0	CorrectCommission	0.649474	0.566933	1
29.016483	0.792276	city	5	1	0.647095	0.647095	0	1	0	0	CorrectCommission	0.549272	0.558235	1
29.808773	0.792303	city	3	1	0.596929	0.596929	0	1	0	0	CorrectCommission	0.956366	0.547774	1
30.600916	0.791984	city	8	1	0.698429	0.698429	0	1	0	0	CorrectCommission	0.132689	0.536410	1
31.393143	0.792467	mountain	3	0	0.000000	0.793962	1	0	0	0	CorrectOmission	0.642563	0.525181	1
32.185528	0.792305	city	7	1	0.803136	0.803136	0	1	0	0	CorrectCommission	0.717008	0.515084	1
32.977676	0.791994	city	9	1	0.645559	0.645559	0	1	0	0	CorrectCommission	0.561735	0.507056	1
33.769825	0.792300	city	4	1	0.695161	0.695161	0	1	0	0	CorrectCommission	0.159212	0.501916	1
34.562225	0.792505	city	7	1	0.695494	0.695494	0	1	0	0	CorrectCommission	0.156507	0.500282	1
35.354576	0.792194	city	4	1	0.811267	0.811267	0	1	0	0	CorrectCommission	0.782996	0.502508	1
36.146816	0.792286	city	8	0	0.000000	0.770278	0	0	0	1	OmissionError	0.450364	0.508639	1
36.939007	0.792096	city	4	1	0.704283	0.704283	0	1	0	0	CorrectCommission	0.085185	0.518508	1
37.731194	0.792274	city	2	1	0.745041	0.745041	0	1	0	0	CorrectCommission	0.245565	0.531722	1
38.523552	0.792443	city	5	1	0.711983	0.711983	0	1	0	0	CorrectCommission	0.022702	0.547720	1
39.315910	0.792271	city	7	1	0.744961	0.744961	0	1	0	0	CorrectCommission	0.244916	0.565867	1
40.108204	0.792321	city	9	1	1.048964	1.048964	0	1	0	0	CorrectCommission	2.711911	0.585527	1
40.900368	0.792002	city	4	1	0.794360	0.794360	0	1	0	0	CorrectCommission	0.645794	0.606034	1
41.692612	0.792487	city	3	1	0.662403	0.662403	0	1	0	0	CorrectCommission	0.425048	0.626941	1
42.484871	0.792030	city	8	1	0.695707	0.695707	0	1	0	0	CorrectCommission	0.154784	0.647753	1
43.277103	0.792443	city	5	1	0.744759	0.744759	0	1	0	0	CorrectCommission	0.243278	0.667992	1
44.069332	0.792014	mountain	6	0	0.000000	0.665642	1	0	0	0	CorrectOmission	0.398760	0.687109	1
44.861488	0.792294	city	10	1	0.601505	0.601505	0	1	0	0	CorrectCommission	0.919232	0.704479	1
45.653877	0.792484	city	5	1	0.695498	0.695498	0	1	0	0	CorrectCommission	0.156474	0.719425	0
46.446136	0.792033	mountain	5	0	0.000000	0.859506	1	0	0	0	CorrectOmission	1.174455	0.731357	0
47.238277	0.792250	city	6	1	0.893191	0.893191	0	1	0	0	CorrectCommission	1.447808	0.739711	0
48.030655	0.792504	city	10	1	0.596215	0.596215	0	1	0	0	CorrectCommission	0.962163	0.744218	0
48.823078	0.792348	city	4	1	0.843704	0.843704	0	1	0	0	CorrectCommission	1.046224	0.744889	0
49.615246	0.791989	mountain	3	1	0.596329	0.596329	0	0	1	0	CommissionError	0.961241	0.742050	0
50.407379	0.792274	mountain	10	1	0.794514	0.794514	0	0	1	0	CommissionError	0.647043	0.736289	0
51.199799	0.792570	city	9	1	0.710705	0.710705	0	1	0	0	CorrectCommission	0.033068	0.728416	0
51.992077	0.791982	city	2	1	0.595934	0.595934	0	1	0	0	CorrectCommission	0.964447	0.719316	0
52.784294	0.792455	city	1	1	0.596536	0.596536	0	1	0	0	CorrectCommission	0.959554	0.709726	1
53.576672	0.792295	city	9	1	0.794334	0.794334	0	1	0	0	CorrectCommission	0.645577	0.700221	1
54.368839	0.792044	city	7	1	0.698428	0.698428	0	1	0	0	CorrectCommission	0.132698	0.691120	1
55.160984	0.792242	city	10	1	0.695040	0.695040	0	1	0	0	CorrectCommission	0.160193	0.682426	1
55.953327	0.792446	mountain	4	0	0.000000	0.637377	1	0	0	0	CorrectOmission	0.628130	0.673837	1
56.745716	0.792330	mountain	9	0	0.000000	0.572520	1	0	0	0	CorrectOmission	1.154448	0.664860	1
57.538010	0.792262	city	5	1	0.547550	0.547550	0	1	0	0	CorrectCommission	1.357084	0.654834	1
58.330154	0.792025	city	10	1	0.609547	0.609547	0	1	0	0	CorrectCommission	0.853975	0.643186	1
59.122429	0.792524	city	9	1	0.646015	0.646015	0	1	0	0	CorrectCommission	0.558030	0.629496	1
59.914688	0.791995	city	6	1	0.744928	0.744928	0	1	0	0	CorrectCommission	0.244653	0.613576	1
60.706921	0.792463	city	5	1	0.645600	0.645600	0	1	0	0	CorrectCommission	0.561402	0.595485	1
61.499187	0.792073	city	4	1	0.814581	0.814581	0	1	0	0	CorrectCommission	0.809883	0.575510	1
62.291512	0.792578	city	6	1	0.745153	0.745153	0	1	0	0	CorrectCommission	0.246472	0.554155	1
63.083801	0.791996	city	7	1	0.596255	0.596255	0	1	0	0	CorrectCommission	0.961841	0.532142	1
63.876003	0.792411	city	4	1	0.695298	0.695298	0	1	0	0	CorrectCommission	0.158100	0.510231	1
64.668266	0.792112	city	10	1	0.607398	0.607398	0	1	0	0	CorrectCommission	0.871411	0.489289	1
65.460571	0.792497	city	7	1	0.695463	0.695463	0	1	0	0	CorrectCommission	0.156764	0.470132	1
66.252922	0.792203	city	1	1	0.645259	0.645259	0	1	0	0	CorrectCommission	0.564165	0.453528	1
67.045143	0.792250	mountain	8	0	0.000000	0.658965	1	0	0	0	CorrectOmission	0.452948	0.440094	1
67.837456	0.792362	mountain	10	0	0.000000	0.694643	1	0	0	0	CorrectOmission	0.163413	0.430320	1
68.629730	0.792186	city	9	1	0.710361	0.710361	0	1	0	0	CorrectCommission	0.035863	0.424524	1
69.421951	0.792266	city	1	1	0.664183	0.664183	0	1	0	0	CorrectCommission	0.410599	0.422909	1
70.214104	0.792042	city	10	1	0.654160	0.654160	0	1	0	0	CorrectCommission	0.491938	0.425456	1
71.006386	0.792520	mountain	10	0	0.000000	0.747168	1	0	0	0	CorrectOmission	0.262830	0.432099	1
71.798759	0.792224	city	7	1	0.794023	0.794023	0	1	0	0	CorrectCommission	0.643055	0.442763	1
72.590904	0.792069	city	2	1	0.645537	0.645537	0	1	0	0	CorrectCommission	0.561913	0.457324	1
73.383163	0.792440	city	4	1	0.695452	0.695452	0	1	0	0	CorrectCommission	0.156854	0.475690	1
74.175552	0.792343	city	6	1	0.695534	0.695534	0	1	0	0	CorrectCommission	0.156182	0.497777	1
74.967728	0.792007	city	3	1	0.606807	0.606807	0	1	0	0	CorrectCommission	0.876204	0.523446	1
75.759956	0.792455	city	7	1	0.612028	0.612028	0	1	0	0	CorrectCommission	0.833837	0.552446	1
76.552368	0.792372	city	9	1	0.659262	0.659262	0	1	0	0	CorrectCommission	0.450532	0.584413	1
77.344681	0.792248	city	5	1	0.651782	0.651782	0	1	0	0	CorrectCommission	0.511231	0.618772	1
78.136925	0.792244	city	1	1	0.744933	0.744933	0	1	0	0	CorrectCommission	0.244689	0.654640	1
78.929131	0.792168	city	9	0	0.000000	0.702258	0	0	0	1	OmissionError	0.101617	0.690856	1
79.721237	0.792034	city	6	1	0.610587	0.610587	0	1	0	0	CorrectCommission	0.845535	0.726025	0
80.513512	0.792524	city	9	1	0.556747	0.556747	0	1	0	0	CorrectCommission	1.282449	0.758548	0
81.305832	0.792115	city	10	1	0.646056	0.646056	0	1	0	0	CorrectCommission	0.557703	0.786839	0
82.098106	0.792430	city	8	1	0.844149	0.844149	0	1	0	0	CorrectCommission	1.049829	0.809523	0
82.890358	0.792074	city	4	1	0.896633	0.896633	0	1	0	0	CorrectCommission	1.475745	0.825531	0
83.682648	0.792509	city	5	1	0.646106	0.646106	0	1	0	0	CorrectCommission	0.557298	0.834250	0
84.474991	0.792178	city	4	1	1.042057	1.042057	0	1	0	0	CorrectCommission	2.655866	0.835702	0
85.267136	0.792103	city	1	1	0.695404	0.695404	0	1	0	0	CorrectCommission	0.157241	0.830387	0
86.059418	0.792470	city	4	1	0.744932	0.744932	0	1	0	0	CorrectCommission	0.244683	0.819488	0
86.851814	0.792317	city	8	1	0.596749	0.596749	0	1	0	0	CorrectCommission	0.957827	0.804464	0
87.644096	0.792257	city	3	1	0.645581	0.645581	0	1	0	0	CorrectCommission	0.561553	0.786958	0
88.436249	0.792040	city	8	0	0.000000	0.595734	0	0	0	1	OmissionError	0.966068	0.768678	0
89.228386	0.792244	city	5	1	0.596158	0.596158	0	1	0	0	CorrectCommission	0.962622	0.751102	0
90.020744	0.792470	city	9	1	0.795807	0.795807	0	1	0	0	CorrectCommission	0.657535	0.735346	0
90.813156	0.792351	mountain	7	1	0.706044	0.706044	0	0	1	0	CommissionError	0.070898	0.722115	0
91.605331	0.791996	city	7	1	0.802060	0.802060	0	1	0	0	CorrectCommission	0.708275	0.711631	1
92.397575	0.792496	city	6	1	0.808891	0.808891	0	1	0	0	CorrectCommission	0.763710	0.703642	1
93.189835	0.792023	city	8	1	0.654043	0.654043	0	1	0	0	CorrectCommission	0.492888	0.697544	1
93.982101	0.792511	city	2	1	0.645879	0.645879	0	1	0	0	CorrectCommission	0.559140	0.692534	1
94.774437	0.792156	city	1	1	0.645740	0.645740	0	1	0	0	CorrectCommission	0.560265	0.687753	1
95.566528	0.792034	mountain	6	0	0.000000	0.596411	1	0	0	0	CorrectOmission	0.960571	0.682457	1
96.358810	0.792522	city	1	1	0.646082	0.646082	0	1	0	0	CorrectCommission	0.557489	0.676144	1
97.151222	0.792309	city	6	1	0.942943	0.942943	0	1	0	0	CorrectCommission	1.851551	0.668698	1
97.943398	0.792032	city	2	1	0.552387	0.552387	0	1	0	0	CorrectCommission	1.317827	0.660255	1
98.735672	0.792527	city	5	1	0.695392	0.695392	0	1	0	0	CorrectCommission	0.157334	0.651339	1
99.528038	0.792202	city	7	1	0.695220	0.695220	0	1	0	0	CorrectCommission	0.158733	0.642679	1
100.320297	0.792315	city	2	1	0.696255	0.696255	0	1	0	0	CorrectCommission	0.150334	0.635000	1
101.112427	0.791945	city	10	1	0.695002	0.695002	0	1	0	0	CorrectCommission	0.160505	0.629038	1
101.904686	0.792577	city	3	1	0.698735	0.698735	0	1	0	0	CorrectCommission	0.130205	0.625345	1
102.697075	0.792198	city	4	1	0.794632	0.794632	0	1	0	0	CorrectCommission	0.648003	0.624429	1
103.489311	0.792267	mountain	8	0	0.000000	0.885076	1	0	0	0	CorrectOmission	1.381956	0.626689	1
104.281586	0.792290	city	2	1	0.893769	0.893769	0	1	0	0	CorrectCommission	1.452498	0.632406	1
105.073853	0.792240	city	8	1	0.744413	0.744413	0	1	0	0	CorrectCommission	0.240470	0.641868	1
105.866005	0.792065	city	10	1	0.648812	0.648812	0	1	0	0	CorrectCommission	0.535337	0.655352	1
106.658310	0.792544	city	8	1	0.695084	0.695084	0	1	0	0	CorrectCommission	0.159833	0.672954	1
107.450592	0.792018	city	5	1	0.563574	0.563574	0	1	0	0	CorrectCommission	1.227049	0.694624	1
108.242813	0.792426	city	4	1	0.794447	0.794447	0	1	0	0	CorrectCommission	0.646501	0.719934	0
109.035164	0.792273	city	3	1	0.695083	0.695083	0	1	0	0	CorrectCommission	0.159842	0.748117	0
109.827469	0.792335	city	4	1	0.754187	0.754187	0	1	0	0	CorrectCommission	0.319784	0.777957	0
110.619720	0.792177	city	10	1	0.695335	0.695335	0	1	0	0	CorrectCommission	0.157798	0.807805	0
111.411949	0.792279	city	3	1	0.744944	0.744944	0	1	0	0	CorrectCommission	0.244781	0.835910	0
112.204132	0.792084	city	9	1	0.943040	0.943040	0	1	0	0	CorrectCommission	1.852335	0.860524	0
112.996391	0.792438	city	1	1	0.513529	0.513529	0	1	0	0	CorrectCommission	1.633165	0.880127	0
113.788765	0.792303	city	6	1	0.943109	0.943109	0	1	0	0	CorrectCommission	1.852897	0.893879	0
114.580933	0.792036	city	5	1	0.496976	0.496976	0	1	0	0	CorrectCommission	1.767491	0.901824	0
115.373207	0.792508	city	2	1	0.596282	0.596282	0	1	0	0	CorrectCommission	0.961617	0.904960	0
116.165466	0.792018	city	8	1	0.662468	0.662468	0	1	0	0	CorrectCommission	0.424520	0.905296	0
116.957733	0.792509	city	7	1	0.695266	0.695266	0	1	0	0	CorrectCommission	0.158359	0.905588	0
117.750122	0.792270	city	9	1	0.646188	0.646188	0	1	0	0	CorrectCommission	0.556630	0.909003	0
118.542274	0.792034	mountain	6	1	0.558292	0.558292	0	0	1	0	CommissionError	1.269907	0.918695	0
119.334389	0.792201	city	9	1	0.645890	0.645890	0	1	0	0	CorrectCommission	0.559051	0.937357	0
120.126762	0.792536	mountain	6	0	0.000000	0.611231	1	0	0	0	CorrectOmission	0.840307	0.966854	0
120.919197	0.792339	city	2	1	0.596688	0.596688	0	1	0	0	CorrectCommission	0.958328	1.007758	0
121.711433	0.792136	city	7	1	0.744630	0.744630	0	1	0	0	CorrectCommission	0.242234	1.059149	0
122.503654	0.792300	city	8	1	0.844247	0.844247	0	1	0	0	CorrectCommission	1.050631	1.118630	0
123.295990	0.792369	city	7	1	0.695070	0.695070	0	1	0	0	CorrectCommission	0.159954	1.182358	0
124.088257	0.792178	city	5	1	0.595819	0.595819	0	1	0	0	CorrectCommission	0.965373	1.245473	0
124.880386	0.792073	city	3	1	0.596013	0.596013	0	1	0	0	CorrectCommission	0.963802	1.302435	0
125.672646	0.792448	city	4	1	0.745053	0.745053	0	1	0	0	CorrectCommission	0.245666	1.347858	0
126.465042	0.792343	city	8	1	1.257911	1.257911	0	1	0	0	CorrectCommission	4.407528	1.377163	0
127.257332	0.792237	mountain	4	0	0.000000	1.258438	1	0	0	0	CorrectOmission	4.411803	1.386951	0
128.049545	0.792189	city	8	1	0.992654	0.992654	0	1	0	0	CorrectCommission	2.254960	1.375792	0
128.841827	0.792374	city	9	1	0.706582	0.706582	0	1	0	0	CorrectCommission	0.066534	1.344326	0
129.634003	0.791977	city	1	1	0.451529	0.451529	0	1	0	0	CorrectCommission	2.136298	1.295071	0
130.426270	0.792553	city	8	1	0.843735	0.843735	0	1	0	0	CorrectCommission	1.046473	1.231962	0
131.218643	0.792213	mountain	4	1	0.596281	0.596281	0	0	1	0	CommissionError	0.961630	1.160077	0
132.010773	0.792038	city	9	1	0.843741	0.843741	0	1	0	0	CorrectCommission	1.046518	1.084826	0
132.803024	0.792453	city	3	1	0.649164	0.649164	0	1	0	0	CorrectCommission	0.532482	1.011370	0
133.595367	0.792253	city	5	1	0.744836	0.744836	0	1	0	0	CorrectCommission	0.243901	0.944062	0
134.387634	0.792280	city	6	0	0.000000	0.711152	0	0	0	1	OmissionError	0.029447	0.886064	0
135.179916	0.792276	city	9	1	0.645622	0.645622	0	1	0	0	CorrectCommission	0.561222	0.839144	0
135.972092	0.792058	city	7	1	0.645758	0.645758	0	1	0	0	CorrectCommission	0.560117	0.803632	0
136.764252	0.792264	city	9	1	0.695560	0.695560	0	1	0	0	CorrectCommission	0.155970	0.778728	0
137.556656	0.792544	city	5	1	0.645635	0.645635	0	1	0	0	CorrectCommission	0.561118	0.762758	0
138.348877	0.791924	city	9	1	0.998322	0.998322	0	1	0	0	CorrectCommission	2.300951	0.753507	0
139.141113	0.792546	city	3	1	0.510202	0.510202	0	1	0	0	CorrectCommission	1.660159	0.748616	0
139.933502	0.792210	city	7	1	0.701722	0.701722	0	1	0	0	CorrectCommission	0.105972	0.745933	0
140.725647	0.792090	city	3	1	0.654832	0.654832	0	1	0	0	CorrectCommission	0.486483	0.743720	0
141.517944	0.792516	city	9	1	0.794591	0.794591	0	1	0	0	CorrectCommission	0.647665	0.740609	0
142.310303	0.792191	city	6	1	0.745152	0.745152	0	1	0	0	CorrectCommission	0.246471	0.735655	0
143.102463	0.792136	mountain	9	0	0.000000	0.625549	1	0	0	0	CorrectOmission	0.724116	0.728427	0
143.894791	0.792516	city	1	1	0.605133	0.605133	0	1	0	0	CorrectCommission	0.889790	0.718699	0
144.687027	0.791956	city	3	1	0.853258	0.853258	0	1	0	0	CorrectCommission	1.123755	0.706513	1
145.479294	0.792563	city	5	1	0.794457	0.794457	0	1	0	0	CorrectCommission	0.646579	0.692179	1
146.271713	0.792274	city	8	0	0.000000	0.829252	0	0	0	1	OmissionError	0.928942	0.676286	1
147.063965	0.792233	city	9	1	0.811778	0.811778	0	1	0	0	CorrectCommission	0.787142	0.659485	1
147.856079	0.792003	city	1	1	0.596171	0.596171	0	1	0	0	CorrectCommission	0.962523	0.642574	1
148.648224	0.792284	city	5	1	0.695112	0.695112	0	1	0	0	CorrectCommission	0.159612	0.626369	1
149.440491	0.792246	city	7	1	0.756466	0.756466	0	1	0	0	CorrectCommission	0.338282	0.611655	1
150.232834	0.792450	city	2	1	0.794097	0.794097	0	1	0	0	CorrectCommission	0.643655	0.599012	1
151.025208	0.792282	city	3	1	0.695291	0.695291	0	1	0	0	CorrectCommission	0.158159	0.588771	1
151.817520	0.792342	city	10	1	0.610298	0.610298	0	1	0	0	CorrectCommission	0.847875	0.580976	1
152.609802	0.792242	mountain	10	1	0.645566	0.645566	0	0	1	0	CommissionError	0.561676	0.575266	1
153.402023	0.792189	city	3	1	0.744676	0.744676	0	1	0	0	CorrectCommission	0.242602	0.571010	1
154.194260	0.792291	city	6	1	0.646187	0.646187	0	1	0	0	CorrectCommission	0.556635	0.567333	1
154.986404	0.791998	city	7	1	0.645625	0.645625	0	1	0	0	CorrectCommission	0.561199	0.563232	1
155.778717	0.792626	city	9	1	0.646029	0.646029	0	1	0	0	CorrectCommission	0.557924	0.557728	1
156.571121	0.792188	city	3	1	0.597293	0.597293	0	1	0	0	CorrectCommission	0.953415	0.550081	1
157.363205	0.791975	city	8	1	0.700443	0.700443	0	1	0	0	CorrectCommission	0.116346	0.539936	1
158.155441	0.792496	city	4	1	0.548177	0.548177	0	1	0	0	CorrectCommission	1.351997	0.527435	1
158.947891	0.792391	city	5	1	0.553594	0.553594	0	1	0	0	CorrectCommission	1.308034	0.513168	1
159.740067	0.791965	city	4	1	0.744794	0.744794	0	1	0	0	CorrectCommission	0.243564	0.498209	1
160.532196	0.792308	city	7	1	0.706523	0.706523	0	1	0	0	CorrectCommission	0.067012	0.483980	1
161.324600	0.792479	mountain	6	0	0.000000	0.736319	1	0	0	0	CorrectOmission	0.174789	0.472021	1
162.116943	0.792215	city	3	1	0.757950	0.757950	0	1	0	0	CorrectCommission	0.350323	0.463826	1
162.909103	0.792100	city	8	1	0.695181	0.695181	0	1	0	0	CorrectCommission	0.159054	0.460668	1
163.701233	0.792182	city	10	1	0.745613	0.745613	0	1	0	0	CorrectCommission	0.250207	0.463425	1
164.493622	0.792581	city	9	1	0.751165	0.751165	0	1	0	0	CorrectCommission	0.295265	0.472471	1
165.286041	0.792256	city	10	1	0.712155	0.712155	0	1	0	0	CorrectCommission	0.021305	0.487648	1
166.078308	0.792275	city	1	1	0.661101	0.661101	0	1	0	0	CorrectCommission	0.435610	0.508345	1
166.870590	0.792290	city	8	0	0.000000	0.633825	0	0	0	1	OmissionError	0.656957	0.533488	1
167.662735	0.792006	city	10	1	0.604453	0.604453	0	1	0	0	CorrectCommission	0.895312	0.561694	1
168.454849	0.792226	city	1	1	0.547112	0.547112	0	1	0	0	CorrectCommission	1.360637	0.591391	1
169.247223	0.792504	city	7	1	0.646021	0.646021	0	1	0	0	CorrectCommission	0.557984	0.620868	1
170.039627	0.792329	city	6	1	0.701763	0.701763	0	1	0	0	CorrectCommission	0.105638	0.648456	1
170.831894	0.792200	city	2	1	0.694960	0.694960	0	1	0	0	CorrectCommission	0.160845	0.672639	1
171.624023	0.792037	city	3	1	0.794327	0.794327	0	1	0	0	CorrectCommission	0.645525	0.692037	1
172.416275	0.792480	city	2	1	0.794465	0.794465	0	1	0	0	CorrectCommission	0.646641	0.705612	1
173.208542	0.792043	mountain	1	1	0.597019	0.597019	0	0	1	0	CommissionError	0.955637	0.712766	0
174.000809	0.792512	city	5	1	0.447855	0.447855	0	1	0	0	CorrectCommission	2.166110	0.713494	0
174.793076	0.792023	city	3	1	0.565179	0.565179	0	1	0	0	CorrectCommission	1.214025	0.708445	1
175.585236	0.792286	city	4	1	0.794812	0.794812	0	1	0	0	CorrectCommission	0.649460	0.698965	1
176.377502	0.792241	city	5	1	0.695697	0.695697	0	1	0	0	CorrectCommission	0.154862	0.686998	1
177.169891	0.792526	city	2	1	0.646035	0.646035	0	1	0	0	CorrectCommission	0.557868	0.674954	1
177.962250	0.792199	city	8	1	0.609455	0.609455	0	1	0	0	CorrectCommission	0.854719	0.665420	1
178.754517	0.792341	city	4	1	0.648883	0.648883	0	1	0	0	CorrectCommission	0.534760	0.660906	1
179.546646	0.791929	city	9	1	0.694780	0.694780	0	1	0	0	CorrectCommission	0.162300	0.663542	1
180.338867	0.792508	city	8	1	0.695438	0.695438	0	1	0	0	CorrectCommission	0.156961	0.674797	1
181.131302	0.792354	city	9	1	0.794023	0.794023	0	1	0	0	CorrectCommission	0.643057	0.695248	1
181.923569	0.792167	city	4	1	0.744739	0.744739	0	1	0	0	CorrectCommission	0.243113	0.724499	0
182.715790	0.792290	city	1	1	0.794233	0.794233	0	1	0	0	CorrectCommission	0.644758	0.761295	0
183.508118	0.792365	mountain	3	0	0.000000	0.787225	1	0	0	0	CorrectOmission	0.587889	0.803529	0
184.300278	0.791957	city	2	1	0.759026	0.759026	0	1	0	0	CorrectCommission	0.359055	0.848621	0
185.092499	0.792489	city	10	1	0.744947	0.744947	0	1	0	0	CorrectCommission	0.244805	0.893861	0
185.884735	0.791984	city	4	1	1.046052	1.046052	0	1	0	0	CorrectCommission	2.688280	0.936714	0
186.676971	0.792497	city	3	1	0.547103	0.547103	0	1	0	0	CorrectCommission	1.360711	0.975077	0
187.469376	0.792282	city	9	1	0.942895	0.942895	0	1	0	0	CorrectCommission	1.851160	1.007703	0
188.261658	0.792309	city	10	1	0.645655	0.645655	0	1	0	0	CorrectCommission	0.560955	1.034072	0
189.053925	0.792208	city	9	0	0.000000	0.501562	0	0	0	1	OmissionError	1.730277	1.054443	0
189.846085	0.792114	city	1	1	0.504864	0.504864	0	1	0	0	CorrectCommission	1.703484	1.069510	0
190.638397	0.792525	city	3	1	0.649808	0.649808	0	1	0	0	CorrectCommission	0.527250	1.080200	0
191.430664	0.791990	city	2	1	0.744887	0.744887	0	1	0	0	CorrectCommission	0.244317	1.087370	0
192.222900	0.792489	city	1	1	0.745035	0.745035	0	1	0	0	CorrectCommission	0.245516	1.091559	0
193.015289	0.792293	mountain	4	0	0.000000	0.654078	1	0	0	0	CorrectOmission	0.492598	1.092779	0
193.807541	0.792217	city	7	1	0.546558	0.546558	0	1	0	0	CorrectCommission	1.365131	1.090609	0
194.599701	0.792090	city	8	1	0.497013	0.497013	0	1	0	0	CorrectCommission	1.767191	1.084267	0
195.391937	0.792384	city	3	1	0.497388	0.497388	0	1	0	0	CorrectCommission	1.764145	1.072939	0
196.184143	0.792037	mountain	10	1	0.546746	0.546746	0	0	1	0	CommissionError	1.363604	1.056056	0
196.976349	0.792361	mountain	8	1	0.547092	0.547092	0	0	1	0	CommissionError	1.360796	1.033568	0
197.768723	0.792400	city	4	1	0.992691	0.992691	0	1	0	0	CorrectCommission	2.255258	1.006024	0
198.561096	0.792336	city	6	1	0.762408	0.762408	0	1	0	0	CorrectCommission	0.386497	0.974570	0
199.353409	0.792286	city	5	1	0.744757	0.744757	0	1	0	0	CorrectCommission	0.243258	0.940991	0
200.145676	0.792248	city	6	1	0.845185	0.845185	0	1	0	0	CorrectCommission	1.058236	0.907240	0
200.937820	0.792059	city	7	1	0.602575	0.602575	0	1	0	0	CorrectCommission	0.910553	0.875198	0
201.729980	0.792239	city	10	1	0.645882	0.645882	0	1	0	0	CorrectCommission	0.559115	0.846462	0
202.522217	0.792242	mountain	8	0	0.000000	0.693477	1	0	0	0	CorrectOmission	0.172876	0.822020	0
203.314590	0.792499	mountain	5	0	0.000000	0.743582	1	0	0	0	CorrectOmission	0.233729	0.802098	0
204.106873	0.792067	city	2	1	0.794418	0.794418	0	1	0	0	CorrectCommission	0.646263	0.786196	0
204.899170	0.792523	city	4	1	0.844206	0.844206	0	1	0	0	CorrectCommission	1.050292	0.773159	0
205.691528	0.792208	city	1	1	0.696801	0.696801	0	1	0	0	CorrectCommission	0.145907	0.761527	0
206.483795	0.792318	city	10	1	0.843791	0.843791	0	1	0	0	CorrectCommission	1.046926	0.749776	0
207.276047	0.792179	city	9	1	1.007265	1.007265	0	1	0	0	CorrectCommission	2.373527	0.736564	0
208.068176	0.792102	city	10	1	0.607436	0.607436	0	1	0	0	CorrectCommission	0.871107	0.721040	0
208.860504	0.792532	city	6	1	0.843993	0.843993	0	1	0	0	CorrectCommission	1.048564	0.703059	1
209.652832	0.792141	city	4	1	0.744322	0.744322	0	1	0	0	CorrectCommission	0.239729	0.683017	1
210.444946	0.792077	city	5	1	0.658148	0.658148	0	1	0	0	CorrectCommission	0.459578	0.661863	1
211.237213	0.792476	city	10	1	0.744661	0.744661	0	1	0	0	CorrectCommission	0.242480	0.640781	1
212.029633	0.792357	city	4	1	0.808904	0.808904	0	1	0	0	CorrectCommission	0.763814	0.621037	1
212.821930	0.792230	city	2	1	0.701159	0.701159	0	1	0	0	CorrectCommission	0.110538	0.603698	1
213.614166	0.792231	city	4	1	0.744735	0.744735	0	1	0	0	CorrectCommission	0.243085	0.589548	1
214.406433	0.792321	city	10	1	0.596126	0.596126	0	1	0	0	CorrectCommission	0.962886	0.578946	1
215.198700	0.792210	city	2	1	0.695393	0.695393	0	1	0	0	CorrectCommission	0.157333	0.571721	1
215.990982	0.792341	city	8	1	0.694949	0.694949	0	1	0	0	CorrectCommission	0.160931	0.567448	1
216.783234	0.792182	city	4	1	0.892983	0.892983	0	1	0	0	CorrectCommission	1.446124	0.565412	1
217.575439	0.792234	city	6	1	0.744357	0.744357	0	1	0	0	CorrectCommission	0.240014	0.564759	1
218.367722	0.792308	city	5	1	0.551366	0.551366	0	1	0	0	CorrectCommission	1.326112	0.564740	1
219.160019	0.792308	city	4	1	0.794376	0.794376	0	1	0	0	CorrectCommission	0.645919	0.564702	1
219.952271	0.792192	city	3	1	0.708291	0.708291	0	1	0	0	CorrectCommission	0.052662	0.564238	1
220.744400	0.792059	city	9	1	0.651867	0.651867	0	1	0	0	CorrectCommission	0.510547	0.563166	1
221.536713	0.792569	city	7	1	0.695941	0.695941	0	1	0	0	CorrectCommission	0.152880	0.561460	1
222.329102	0.792199	city	10	1	0.647402	0.647402	0	1	0	0	CorrectCommission	0.546778	0.559272	1
223.121338	0.792292	mountain	10	0	0.000000	0.609685	1	0	0	0	CorrectOmission	0.852851	0.556856	1
223.913635	0.792282	city	9	1	0.602565	0.602565	0	1	0	0	CorrectCommission	0.910632	0.554493	1
224.705887	0.792220	city	4	1	0.645815	0.645815	0	1	0	0	CorrectCommission	0.559658	0.552450	1
225.498016	0.792046	city	5	1	0.608965	0.608965	0	1	0	0	CorrectCommission	0.858695	0.551002	1
226.290283	0.792501	city	1	1	0.695018	0.695018	0	1	0	0	CorrectCommission	0.160374	0.550336	1
227.082520	0.791968	city	8	1	0.744850	0.744850	0	1	0	0	CorrectCommission	0.244019	0.550576	1
227.874756	0.792489	city	9	1	0.713285	0.713285	0	1	0	0	CorrectCommission	0.012139	0.551732	1
228.667191	0.792384	city	8	1	0.657675	0.657675	0	1	0	0	CorrectCommission	0.463409	0.553735	1
229.459381	0.792000	city	2	1	0.892877	0.892877	0	1	0	0	CorrectCommission	1.445262	0.556440	1
230.251511	0.792270	city	10	1	0.645996	0.645996	0	1	0	0	CorrectCommission	0.558185	0.559625	1
231.043839	0.792371	city	9	1	0.794382	0.794382	0	1	0	0	CorrectCommission	0.645970	0.563241	1
231.836166	0.792273	city	10	1	0.711794	0.711794	0	1	0	0	CorrectCommission	0.024232	0.567204	1
232.628357	0.792110	city	9	1	0.843593	0.843593	0	1	0	0	CorrectCommission	1.045320	0.571630	1
233.420639	0.792463	city	5	1	0.745100	0.745100	0	1	0	0	CorrectCommission	0.246043	0.576688	1
234.213043	0.792352	city	9	1	0.843930	0.843930	0	1	0	0	CorrectCommission	1.048055	0.582707	1
235.005341	0.792231	city	1	1	0.695577	0.695577	0	1	0	0	CorrectCommission	0.155837	0.590122	1
235.797607	0.792310	city	9	1	0.750686	0.750686	0	1	0	0	CorrectCommission	0.291377	0.599425	1
236.589752	0.791997	city	5	1	0.645568	0.645568	0	1	0	0	CorrectCommission	0.561659	0.611074	1
237.381973	0.792430	city	6	0	0.000000	0.578846	0	0	0	1	OmissionError	1.103117	0.625438	1
238.174194	0.792005	city	3	1	0.596699	0.596699	0	1	0	0	CorrectCommission	0.958233	0.642674	1
238.966461	0.792532	mountain	5	1	0.745311	0.745311	0	0	1	0	CommissionError	0.247756	0.662710	1
239.758728	0.792002	city	1	1	0.645726	0.645726	0	1	0	0	CorrectCommission	0.560380	0.685106	1
240.550995	0.792526	city	6	1	0.696742	0.696742	0	1	0	0	CorrectCommission	0.146380	0.709036	1
241.343430	0.792354	city	2	1	0.613781	0.613781	0	1	0	0	CorrectCommission	0.819617	0.733322	0
242.135681	0.792143	city	10	1	0.744825	0.744825	0	1	0	0	CorrectCommission	0.243812	0.756469	0
242.927902	0.792310	city	4	1	0.843734	0.843734	0	1	0	0	CorrectCommission	1.046467	0.776886	0
243.720230	0.792343	city	8	1	0.596141	0.596141	0	1	0	0	CorrectCommission	0.962765	0.792962	0
244.512512	0.792217	mountain	9	1	0.942857	0.942857	0	0	1	0	CommissionError	1.850849	0.803355	0
245.304733	0.792213	city	8	1	0.710260	0.710260	0	1	0	0	CorrectCommission	0.036679	0.807094	0
246.096954	0.792253	city	9	1	0.992519	0.992519	0	1	0	0	CorrectCommission	2.253859	0.803830	0
246.889221	0.792261	city	6	1	0.803184	0.803184	0	1	0	0	CorrectCommission	0.717402	0.793629	0
247.681488	0.792288	city	1	1	0.562331	0.562331	0	1	0	0	CorrectCommission	1.237136	0.777251	0
248.473801	0.792318	city	6	1	0.744931	0.744931	0	1	0	0	CorrectCommission	0.244672	0.755820	0
249.266068	0.792222	city	1	1	0.695083	0.695083	0	1	0	0	CorrectCommission	0.159848	0.730799	0
250.058350	0.792362	city	4	1	0.843913	0.843913	0	1	0	0	CorrectCommission	1.047918	0.703662	1
250.850662	0.792241	city	2	1	0.645720	0.645720	0	1	0	0	CorrectCommission	0.560425	0.675776	1
251.642899	0.792234	city	7	1	0.659849	0.659849	0	1	0	0	CorrectCommission	0.445773	0.648283	1
252.435165	0.792317	city	4	1	0.754181	0.754181	0	1	0	0	CorrectCommission	0.319735	0.622002	1
253.227310	0.791958	city	7	1	0.793998	0.793998	0	1	0	0	CorrectCommission	0.642857	0.597381	1
254.019562	0.792539	city	5	1	0.844066	0.844066	0	1	0	0	CorrectCommission	1.049155	0.574522	1
254.811981	0.792302	city	8	0	0.000000	0.720232	0	0	0	1	OmissionError	0.044236	0.553243	1
255.604248	0.792254	city	3	1	0.596195	0.596195	0	1	0	0	CorrectCommission	0.962326	0.533234	1
256.396484	0.792203	city	10	1	0.645654	0.645654	0	1	0	0	CorrectCommission	0.560962	0.514066	1
257.188660	0.792173	city	7	1	0.695246	0.695246	0	1	0	0	CorrectCommission	0.158522	0.495347	1
257.980957	0.792420	city	4	1	0.807394	0.807394	0	1	0	0	CorrectCommission	0.751567	0.476766	1
258.773132	0.791903	city	2	1	0.694918	0.694918	0	1	0	0	CorrectCommission	0.161187	0.458098	1
259.565247	0.792327	city	6	1	0.795173	0.795173	0	1	0	0	CorrectCommission	0.652393	0.439321	1
260.357635	0.792431	city	3	1	0.646162	0.646162	0	1	0	0	CorrectCommission	0.556840	0.420502	1
261.149994	0.792292	city	4	1	0.748938	0.748938	0	1	0	0	CorrectCommission	0.277194	0.401898	1
261.942139	0.792005	city	7	1	0.661930	0.661930	0	1	0	0	CorrectCommission	0.428886	0.383876	1
262.734283	0.792274	city	6	1	0.712424	0.712424	0	1	0	0	CorrectCommission	0.019125	0.366954	1
263.526581	0.792364	city	1	1	0.646599	0.646599	0	1	0	0	CorrectCommission	0.553292	0.351683	1
264.318970	0.792399	city	2	1	0.645911	0.645911	0	1	0	0	CorrectCommission	0.558880	0.338655	1
265.111298	0.792273	city	9	1	0.744993	0.744993	0	1	0	0	CorrectCommission	0.245176	0.328474	1
265.903625	0.792337	city	2	1	0.695308	0.695308	0	1	0	0	CorrectCommission	0.158021	0.321698	1
266.695892	0.792197	city	10	1	0.694896	0.694896	0	1	0	0	CorrectCommission	0.161366	0.318778	1
267.488037	0.792111	city	4	1	0.744923	0.744923	0	1	0	0	CorrectCommission	0.244607	0.319940	1
268.280304	0.792438	city	5	1	0.698732	0.698732	0	1	0	0	CorrectCommission	0.130235	0.325221	1
269.072540	0.792050	city	4	1	0.744839	0.744839	0	1	0	0	CorrectCommission	0.243928	0.334390	1
269.864838	0.792510	city	3	1	0.745050	0.745050	0	1	0	0	CorrectCommission	0.245636	0.346962	1
270.657227	0.792281	city	7	1	0.698619	0.698619	0	1	0	0	CorrectCommission	0.131152	0.362235	1
271.449524	0.792288	city	8	1	0.646003	0.646003	0	1	0	0	CorrectCommission	0.558134	0.379307	1
272.241760	0.792181	city	3	1	0.645909	0.645909	0	1	0	0	CorrectCommission	0.558893	0.397215	1
273.033966	0.792244	city	9	1	0.694886	0.694886	0	1	0	0	CorrectCommission	0.161443	0.415006	1
273.826233	0.792291	city	6	1	0.610105	0.610105	0	1	0	0	CorrectCommission	0.849449	0.431839	1
274.618561	0.792360	city	3	1	0.645415	0.645415	0	1	0	0	CorrectCommission	0.562905	0.447062	1
275.410706	0.791915	city	2	1	0.695328	0.695328	0	1	0	0	CorrectCommission	0.157857	0.460247	1
276.202911	0.792537	city	6	1	0.645794	0.645794	0	1	0	0	CorrectCommission	0.559826	0.471252	1
276.995239	0.792078	city	8	1	0.595863	0.595863	0	1	0	0	CorrectCommission	0.965021	0.480136	1
277.787384	0.792247	city	1	1	0.645811	0.645811	0	1	0	0	CorrectCommission	0.559688	0.487140	1
278.579742	0.792452	city	2	1	0.646090	0.646090	0	1	0	0	CorrectCommission	0.557429	0.492634	1
279.372131	0.792324	city	7	1	0.714341	0.714341	0	1	0	0	CorrectCommission	0.003562	0.496973	1
280.164307	0.792014	city	9	1	0.794408	0.794408	0	1	0	0	CorrectCommission	0.646179	0.500474	1
280.956421	0.792241	city	2	1	0.744792	0.744792	0	1	0	0	CorrectCommission	0.243549	0.503253	1
281.748810	0.792551	city	1	1	0.645546	0.645546	0	1	0	0	CorrectCommission	0.561839	0.505311	1
282.541199	0.792182	city	2	1	0.695098	0.695098	0	1	0	0	CorrectCommission	0.159725	0.506498	1
283.333466	0.792380	city	1	1	0.609172	0.609172	0	1	0	0	CorrectCommission	0.857013	0.506591	1
284.125763	0.792240	mountain	5	1	0.645832	0.645832	0	0	1	0	CommissionError	0.559521	0.505332	1
284.917969	0.792140	city	10	1	0.794076	0.794076	0	1	0	0	CorrectCommission	0.643491	0.502582	1
285.710205	0.792343	city	6	1	0.848692	0.848692	0	1	0	0	CorrectCommission	1.086699	0.498396	1
286.502411	0.792064	city	9	1	0.752556	0.752556	0	1	0	0	CorrectCommission	0.306553	0.493055	1
287.294647	0.792422	city	3	1	0.746172	0.746172	0	1	0	0	CorrectCommission	0.254742	0.487134	1
288.087006	0.792290	mountain	9	1	0.794241	0.794241	0	0	1	0	CommissionError	0.644830	0.481447	1
288.879272	0.792227	city	4	1	0.695124	0.695124	0	1	0	0	CorrectCommission	0.159512	0.476957	1
289.671509	0.792244	city	8	1	0.611609	0.611609	0	1	0	0	CorrectCommission	0.837237	0.474693	1
290.463837	0.792400	city	7	1	0.703295	0.703295	0	1	0	0	CorrectCommission	0.093201	0.475610	1
291.255981	0.791930	city	4	1	0.695315	0.695315	0	1	0	0	CorrectCommission	0.157963	0.480608	1
292.048248	0.792590	city	5	1	0.645710	0.645710	0	1	0	0	CorrectCommission	0.560508	0.490363	1
292.840637	0.792184	city	4	1	0.793981	0.793981	0	1	0	0	CorrectCommission	0.642717	0.505226	1
293.632874	0.792271	city	1	1	0.661913	0.661913	0	1	0	0	CorrectCommission	0.429024	0.525333	1
294.425140	0.792266	city	4	1	0.744461	0.744461	0	1	0	0	CorrectCommission	0.240861	0.550684	1
295.217407	0.792292	city	1	1	0.744910	0.744910	0	1	0	0	CorrectCommission	0.244507	0.581232	1
296.009735	0.792328	city	7	1	0.705731	0.705731	0	1	0	0	CorrectCommission	0.073436	0.616937	1
296.802002	0.792234	mountain	8	0	0.000000	0.799013	1	0	0	0	CorrectOmission	0.683548	0.657931	1
297.594116	0.792019	city	5	1	0.893459	0.893459	0	1	0	0	CorrectCommission	1.449982	0.704523	1
298.386383	0.792464	city	4	1	0.857773	0.857773	0	1	0	0	CorrectCommission	1.160390	0.757184	0
299.178711	0.792219	city	6	1	0.845079	0.845079	0	1	0	0	CorrectCommission	1.057381	0.816453	0
299.970978	0.792278	city	3	1	0.645462	0.645462	0	1	0	0	CorrectCommission	0.562524	0.882769	0
300.763123	0.792052	city	8	0	0.000000	0.603848	0	0	0	1	OmissionError	0.900220	0.956176	0
301.555389	0.792465	city	6	1	0.649382	0.649382	0	1	0	0	CorrectCommission	0.530713	1.036139	0
302.347748	0.792265	city	1	1	0.711206	0.711206	0	1	0	0	CorrectCommission	0.029007	1.121353	0
303.140045	0.792337	city	5	1	0.794423	0.794423	0	1	0	0	CorrectCommission	0.646300	1.209606	0
303.932312	0.792188	city	4	1	0.854753	0.854753	0	1	0	0	CorrectCommission	1.135883	1.297875	0
304.724579	0.792344	city	5	1	0.645731	0.645731	0	1	0	0	CorrectCommission	0.560338	1.382554	0
305.516846	0.792192	city	2	1	0.843753	0.843753	0	1	0	0	CorrectCommission	1.046621	1.459839	0
306.309143	0.792369	city	8	0	0.000000	1.198482	0	0	0	1	OmissionError	3.925257	1.526139	0
307.101288	0.791931	city	5	1	1.338814	1.338814	0	1	0	0	CorrectCommission	5.064058	1.578326	0
307.893402	0.792318	city	3	1	0.893647	0.893647	0	1	0	0	CorrectCommission	1.451509	1.614302	0
308.685822	0.792498	city	2	1	0.794163	0.794163	0	1	0	0	CorrectCommission	0.644193	1.633258	0
309.478210	0.792277	city	7	1	0.893133	0.893133	0	1	0	0	CorrectCommission	1.447336	1.635361	0
310.270447	0.792238	city	6	1	0.942690	0.942690	0	1	0	0	CorrectCommission	1.849492	1.621752	0
311.062683	0.792223	city	5	1	0.596300	0.596300	0	1	0	0	CorrectCommission	0.961473	1.594330	0
311.854797	0.792013	city	3	1	0.844007	0.844007	0	1	0	0	CorrectCommission	1.048679	1.555549	0
312.646942	0.792269	mountain	1	0	0.000000	1.034148	1	0	0	0	CorrectOmission	2.591685	1.508036	0
313.439362	0.792551	city	4	1	0.992867	0.992867	0	1	0	0	CorrectCommission	2.256685	1.454410	0
314.231750	0.792249	city	9	1	0.546306	0.546306	0	1	0	0	CorrectCommission	1.367180	1.397198	0
315.023926	0.792087	mountain	6	0	0.000000	0.546420	1	0	0	0	CorrectOmission	1.366251	1.338668	0
315.816162	0.792409	city	3	1	0.744813	0.744813	0	1	0	0	CorrectCommission	0.243715	1.280765	0
316.608521	0.792300	city	6	1	0.893086	0.893086	0	1	0	0	CorrectCommission	1.446961	1.225095	0
317.400818	0.792262	city	9	1	0.893536	0.893536	0	1	0	0	CorrectCommission	1.450606	1.172792	0
318.192963	0.792045	city	5	1	0.658383	0.658383	0	1	0	0	CorrectCommission	0.457670	1.124645	0
318.985229	0.792514	city	8	1	0.602353	0.602353	0	1	0	0	CorrectCommission	0.912356	1.081098	0
319.777527	0.792044	city	1	1	0.596247	0.596247	0	1	0	0	CorrectCommission	0.961905	1.042232	0
320.569763	0.792422	city	8	1	0.844008	0.844008	0	1	0	0	CorrectCommission	1.048690	1.007861	0
321.362091	0.792241	city	7	1	0.942725	0.942725	0	1	0	0	CorrectCommission	1.849783	0.977556	0
322.154388	0.792374	city	5	1	0.695496	0.695496	0	1	0	0	CorrectCommission	0.156492	0.950731	0
322.946594	0.792028	city	7	1	0.656613	0.656613	0	1	0	0	CorrectCommission	0.472027	0.926813	0
323.738831	0.792440	city	1	1	0.546900	0.546900	0	1	0	0	CorrectCommission	1.362356	0.905167	0
324.531189	0.792283	city	3	1	0.744478	0.744478	0	1	0	0	CorrectCommission	0.240995	0.885214	0
325.323456	0.792243	city	9	1	0.893511	0.893511	0	1	0	0	CorrectCommission	1.450408	0.866682	0
326.115692	0.792242	city	5	1	0.596750	0.596750	0	1	0	0	CorrectCommission	0.957819	0.849549	0
326.907959	0.792292	mountain	4	0	0.000000	0.546752	1	0	0	0	CorrectOmission	1.363560	0.834121	0
327.700165	0.792102	city	10	1	0.645780	0.645780	0	1	0	0	CorrectCommission	0.559938	0.820974	0
328.492310	0.792204	city	5	1	0.796102	0.796102	0	1	0	0	CorrectCommission	0.659924	0.811040	0
329.284515	0.792225	city	4	0	0.000000	0.777336	0	0	0	1	OmissionError	0.507643	0.805388	0
330.076813	0.792362	city	10	1	0.745125	0.745125	0	1	0	0	CorrectCommission	0.246246	0.805047	0
330.869110	0.792220	city	4	1	0.855108	0.855108	0	1	0	0	CorrectCommission	1.138763	0.810924	0
331.661469	0.792495	city	2	1	0.595998	0.595998	0	1	0	0	CorrectCommission	0.963924	0.823579	0
332.453857	0.792297	city	6	1	0.661208	0.661208	0	1	0	0	CorrectCommission	0.434744	0.843147	0
333.246124	0.792206	city	2	1	0.608407	0.608407	0	1	0	0	CorrectCommission	0.863228	0.869241	0
334.038361	0.792259	city	5	1	0.645808	0.645808	0	1	0	0	CorrectCommission	0.559715	0.900818	0
334.830627	0.792319	city	2	1	0.655840	0.655840	0	1	0	0	CorrectCommission	0.478306	0.936243	0
335.622925	0.792261	city	10	1	0.595782	0.595782	0	1	0	0	CorrectCommission	0.965680	0.973398	0
336.415161	0.792200	city	2	1	0.613750	0.613750	0	1	0	0	CorrectCommission	0.819864	1.009761	0
337.207306	0.792090	city	6	1	0.596455	0.596455	0	1	0	0	CorrectCommission	0.960219	1.042665	0
337.999573	0.792463	city	1	1	0.596532	0.596532	0	1	0	0	CorrectCommission	0.959590	1.069525	0
338.791931	0.792245	city	3	1	0.410986	0.410986	0	1	0	0	CorrectCommission	2.465306	1.088042	0
339.584259	0.792380	city	7	1	0.365684	0.365684	0	1	0	0	CorrectCommission	2.832934	1.096388	0
340.376526	0.792166	city	3	1	0.653246	0.653246	0	1	0	0	CorrectCommission	0.499355	1.093401	0
341.168732	0.792279	city	8	1	0.555293	0.555293	0	1	0	0	CorrectCommission	1.294250	1.078670	0
341.961060	0.792334	city	7	1	0.757320	0.757320	0	1	0	0	CorrectCommission	0.345210	1.052405	0
342.753235	0.792022	city	6	1	0.757206	0.757206	0	1	0	0	CorrectCommission	0.344286	1.015461	0
343.545502	0.792536	mountain	8	0	0.000000	0.907756	1	0	0	0	CorrectOmission	1.566009	0.969200	0
344.337830	0.792116	city	6	1	0.942802	0.942802	0	1	0	0	CorrectCommission	1.850404	0.915381	0
345.130066	0.792369	city	5	1	0.596173	0.596173	0	1	0	0	CorrectCommission	0.962505	0.856148	0
345.922241	0.791986	city	7	1	0.596266	0.596266	0	1	0	0	CorrectCommission	0.961752	0.793902	0
346.714386	0.792299	city	5	1	0.646017	0.646017	0	1	0	0	CorrectCommission	0.558017	0.731147	0
347.506744	0.792419	city	9	1	0.645659	0.645659	0	1	0	0	CorrectCommission	0.560923	0.670414	1
348.298981	0.792047	city	7	1	0.744631	0.744631	0	1	0	0	CorrectCommission	0.242237	0.614061	1
349.091278	0.792521	city	5	1	0.794193	0.794193	0	1	0	0	CorrectCommission	0.644439	0.564183	1
349.883667	0.792282	city	2	1	0.711451	0.711451	0	1	0	0	CorrectCommission	0.027017	0.522456	1
350.675964	0.792284	mountain	9	0	0.000000	0.695425	1	0	0	0	CorrectOmission	0.157066	0.490079	1
351.468140	0.792055	city	4	1	0.704000	0.704000	0	1	0	0	CorrectCommission	0.087486	0.467645	1
352.260345	0.792401	city	5	1	0.695057	0.695057	0	1	0	0	CorrectCommission	0.160052	0.455226	1
353.052612	0.792088	city	6	1	0.650466	0.650466	0	1	0	0	CorrectCommission	0.521912	0.452367	1
353.844910	0.792565	city	10	1	0.609795	0.609795	0	1	0	0	CorrectCommission	0.851960	0.458236	1
354.637268	0.792138	city	5	1	0.713856	0.713856	0	1	0	0	CorrectCommission	0.007499	0.471762	1
355.429352	0.792032	city	2	1	0.709639	0.709639	0	1	0	0	CorrectCommission	0.041724	0.491815	1
356.221619	0.792489	city	5	1	0.751190	0.751190	0	1	0	0	CorrectCommission	0.295464	0.517224	1
357.014008	0.792290	city	10	1	0.849285	0.849285	0	1	0	0	CorrectCommission	1.091512	0.546905	1
357.806213	0.792090	city	5	1	0.843656	0.843656	0	1	0	0	CorrectCommission	1.045827	0.579963	1
358.598450	0.792405	city	2	1	0.661735	0.661735	0	1	0	0	CorrectCommission	0.430464	0.615579	1
359.390839	0.792389	city	8	0	0.000000	0.593839	0	0	0	1	OmissionError	0.981445	0.652981	1
360.183167	0.792254	city	10	1	0.613808	0.613808	0	1	0	0	CorrectCommission	0.819391	0.691267	1
360.975372	0.792161	city	8	1	0.695485	0.695485	0	1	0	0	CorrectCommission	0.156579	0.729313	0
361.767487	0.792036	city	2	1	0.745133	0.745133	0	1	0	0	CorrectCommission	0.246315	0.765736	0
362.559784	0.792561	city	7	1	0.745381	0.745381	0	1	0	0	CorrectCommission	0.248321	0.798928	0
363.352142	0.792209	city	1	1	0.651975	0.651975	0	1	0	0	CorrectCommission	0.509668	0.827173	0
364.144409	0.792293	city	4	1	0.844020	0.844020	0	1	0	0	CorrectCommission	1.048787	0.848857	0
364.936615	0.792096	city	10	1	0.509309	0.509309	0	1	0	0	CorrectCommission	1.667407	0.862764	0
365.728882	0.792454	city	9	0	0.000000	0.414607	0	0	0	1	OmissionError	2.435923	0.868402	0
366.521240	0.792296	city	3	1	0.546822	0.546822	0	1	0	0	CorrectCommission	1.362992	0.866271	0
367.313507	0.792197	city	9	1	0.892864	0.892864	0	1	0	0	CorrectCommission	1.445154	0.858116	0
368.105652	0.792096	city	5	1	0.645616	0.645616	0	1	0	0	CorrectCommission	0.561272	0.846640	0
368.897797	0.792176	city	2	1	0.745125	0.745125	0	1	0	0	CorrectCommission	0.246249	0.835458	0
369.690125	0.792538	city	6	1	0.794662	0.794662	0	1	0	0	CorrectCommission	0.648240	0.828567	0
370.482544	0.792250	city	4	1	0.745063	0.745063	0	1	0	0	CorrectCommission	0.245745	0.829885	0
371.274811	0.792332	mountain	5	0	0.000000	0.700675	1	0	0	0	CorrectOmission	0.114464	0.842741	0
372.067108	0.792253	city	1	1	0.645350	0.645350	0	1	0	0	CorrectCommission	0.563432	0.869367	0
372.859406	0.792325	mountain	7	1	0.562938	0.562938	0	0	1	0	CommissionError	1.232205	0.910534	0
373.651550	0.791984	city	3	1	0.645839	0.645839	0	1	0	0	CorrectCommission	0.559462	0.965296	0
374.443665	0.792225	mountain	10	1	0.695430	0.695430	0	0	1	0	CommissionError	0.157028	1.031069	0
375.235931	0.792298	city	7	1	0.744998	0.744998	0	1	0	0	CorrectCommission	0.245218	1.103754	0
376.028320	0.792484	city	3	1	0.695820	0.695820	0	1	0	0	CorrectCommission	0.153866	1.178198	0
376.820679	0.792236	city	4	1	0.843959	0.843959	0	1	0	0	CorrectCommission	1.048287	1.248754	0
377.612946	0.792303	city	8	0	0.000000	1.058313	0	0	0	1	OmissionError	2.787785	1.309882	0
378.405243	0.792280	city	6	1	1.190348	1.190348	0	1	0	0	CorrectCommission	3.859253	1.356855	0
379.197479	0.792218	city	2	1	1.091527	1.091527	0	1	0	0	CorrectCommission	3.057315	1.386259	0
379.989746	0.792333	city	7	1	0.943057	0.943057	0	1	0	0	CorrectCommission	1.852473	1.396400	0
380.782074	0.792269	mountain	1	0	0.000000	0.676613	1	0	0	0	CorrectOmission	0.309731	1.387328	0
381.574310	0.792233	city	1	1	0.605224	0.605224	0	1	0	0	CorrectCommission	0.889054	1.360712	0
382.366547	0.792251	city	6	1	1.041920	1.041920	0	1	0	0	CorrectCommission	2.654747	1.319470	0
383.158813	0.792278	city	3	1	0.794504	0.794504	0	1	0	0	CorrectCommission	0.646960	1.267283	0
383.950989	0.792041	city	6	1	0.893560	0.893560	0	1	0	0	CorrectCommission	1.450803	1.208370	0
384.743073	0.792169	city	5	1	0.661106	0.661106	0	1	0	0	CorrectCommission	0.435568	1.146710	0
385.535461	0.792611	city	4	1	0.612254	0.612254	0	1	0	0	CorrectCommission	0.832005	1.085943	0
386.327911	0.792239	city	9	1	0.596848	0.596848	0	1	0	0	CorrectCommission	0.957028	1.028963	0
387.120026	0.792006	city	10	1	0.651742	0.651742	0	1	0	0	CorrectCommission	0.511559	0.977852	0
387.912262	0.792500	city	7	1	0.893484	0.893484	0	1	0	0	CorrectCommission	1.450190	0.933870	0
388.704529	0.792030	city	8	1	0.794274	0.794274	0	1	0	0	CorrectCommission	0.645097	0.897479	0
389.496796	0.792488	city	5	1	0.843597	0.843597	0	1	0	0	CorrectCommission	1.045352	0.868550	0
390.289154	0.792222	city	1	1	0.757466	0.757466	0	1	0	0	CorrectCommission	0.346396	0.846389	0
391.081299	0.792067	mountain	1	0	0.000000	0.653650	1	0	0	0	CorrectOmission	0.496073	0.830000	0
391.873566	0.792449	city	10	1	0.598215	0.598215	0	1	0	0	CorrectCommission	0.945929	0.818142	0
392.665955	0.792368	city	2	1	0.657227	0.657227	0	1	0	0	CorrectCommission	0.467048	0.809456	0
393.458130	0.791936	city	4	1	0.893031	0.893031	0	1	0	0	CorrectCommission	1.446510	0.802614	0
394.250366	0.792570	city	8	1	0.603117	0.603117	0	1	0	0	CorrectCommission	0.906157	0.796273	0
395.042755	0.792206	city	5	1	0.608910	0.608910	0	1	0	0	CorrectCommission	0.859141	0.789255	0
395.834930	0.792117	city	6	1	0.753266	0.753266	0	1	0	0	CorrectCommission	0.312315	0.780553	0
396.627106	0.792252	city	7	1	0.695306	0.695306	0	1	0	0	CorrectCommission	0.158033	0.769461	0
397.419434	0.792416	city	6	1	0.896503	0.896503	0	1	0	0	CorrectCommission	1.474686	0.755598	0
398.211761	0.792248	city	3	1	0.554655	0.554655	0	1	0	0	CorrectCommission	1.299422	0.738873	0
399.004059	0.792344	mountain	2	0	0.000000	0.550137	1	0	0	0	CorrectOmission	1.336088	0.719610	0
399.796356	0.792234	city	1	1	0.695131	0.695131	0	1	0	0	CorrectCommission	0.159455	0.698385	1
400.588623	0.792281	city	4	1	0.801820	0.801820	0	1	0	0	CorrectCommission	0.706334	0.676127	1
401.380859	0.792232	city	9	1	0.646031	0.646031	0	1	0	0	CorrectCommission	0.557906	0.653810	1
402.173126	0.792297	city	6	1	0.809338	0.809338	0	1	0	0	CorrectCommission	0.767335	0.632491	1
402.965454	0.792331	city	5	1	0.712512	0.712512	0	1	0	0	CorrectCommission	0.018410	0.613074	1
403.757599	0.791958	city	4	0	0.000000	0.661485	0	0	0	1	OmissionError	0.432496	0.596254	1
404.549713	0.792262	city	6	0	0.000000	0.643440	0	0	0	1	OmissionError	0.578931	0.582437	1
405.342072	0.792476	city	3	1	0.645560	0.645560	0	1	0	0	CorrectCommission	0.561724	0.571660	1
406.134430	0.792246	city	8	1	0.655029	0.655029	0	1	0	0	CorrectCommission	0.484885	0.563742	1
406.926697	0.792295	city	7	1	0.656301	0.656301	0	1	0	0	CorrectCommission	0.474565	0.558290	1
407.718994	0.792282	city	1	1	0.615441	0.615441	0	1	0	0	CorrectCommission	0.806144	0.554810	1
408.511230	0.792217	mountain	3	1	0.596510	0.596510	0	0	1	0	CommissionError	0.959769	0.552840	1
409.303497	0.792325	city	5	1	0.695456	0.695456	0	1	0	0	CorrectCommission	0.156822	0.552000	1
410.095825	0.792307	city	9	1	0.710274	0.710274	0	1	0	0	CorrectCommission	0.036570	0.552107	1
410.888062	0.792158	city	6	1	0.794248	0.794248	0	1	0	0	CorrectCommission	0.644880	0.553219	1
411.680267	0.792279	mountain	7	1	0.843505	0.843505	0	0	1	0	CommissionError	1.044607	0.555555	1
412.472626	0.792385	city	4	1	0.893145	0.893145	0	1	0	0	CorrectCommission	1.447438	0.559537	1
413.264801	0.791991	city	2	1	0.709567	0.709567	0	1	0	0	CorrectCommission	0.042310	0.565691	1
414.057068	0.792522	city	1	1	0.695616	0.695616	0	1	0	0	CorrectCommission	0.155520	0.574652	1
414.849426	0.792239	city	3	1	0.744710	0.744710	0	1	0	0	CorrectCommission	0.242878	0.586901	1
415.641632	0.792155	city	2	1	0.700767	0.700767	0	1	0	0	CorrectCommission	0.113718	0.602756	1
416.433899	0.792375	city	1	1	0.744751	0.744751	0	1	0	0	CorrectCommission	0.243213	0.622299	1
417.226227	0.792293	city	10	1	0.843956	0.843956	0	1	0	0	CorrectCommission	1.048263	0.645349	1
418.018341	0.791909	city	5	1	0.843585	0.843585	0	1	0	0	CorrectCommission	1.045254	0.671409	1
418.810425	0.792260	city	3	1	0.800827	0.800827	0	1	0	0	CorrectCommission	0.698269	0.699753	1
419.602692	0.792314	city	7	1	0.893929	0.893929	0	1	0	0	CorrectCommission	1.453799	0.729381	0
420.395020	0.792311	city	2	1	0.695488	0.695488	0	1	0	0	CorrectCommission	0.156556	0.759097	0
421.187378	0.792403	city	8	1	0.649341	0.649341	0	1	0	0	CorrectCommission	0.531042	0.787593	0
421.979706	0.792272	mountain	6	0	0.000000	0.631338	1	0	0	0	CorrectOmission	0.677139	0.813397	0
422.772034	0.792365	city	5	1	0.694884	0.694884	0	1	0	0	CorrectCommission	0.161461	0.835045	0
423.564331	0.792236	city	3	1	0.893384	0.893384	0	1	0	0	CorrectCommission	1.449377	0.851211	0
424.356567	0.792258	city	6	1	0.893040	0.893040	0	1	0	0	CorrectCommission	1.446587	0.860763	0
425.148865	0.792318	city	10	1	0.699438	0.699438	0	1	0	0	CorrectCommission	0.124503	0.863031	0
425.941010	0.791992	city	3	1	1.049847	1.049847	0	1	0	0	CorrectCommission	2.719078	0.857873	0
426.733276	0.792497	mountain	10	0	0.000000	0.856248	1	0	0	0	CorrectOmission	1.148018	0.845619	0
427.525635	0.792226	city	2	1	0.595972	0.595972	0	1	0	0	CorrectCommission	0.964136	0.827271	0
428.317902	0.792300	city	6	1	0.746347	0.746347	0	1	0	0	CorrectCommission	0.256162	0.804243	0
429.110046	0.792041	city	9	1	0.645827	0.645827	0	1	0	0	CorrectCommission	0.559559	0.778259	0
429.902283	0.792423	city	10	1	0.614816	0.614816	0	1	0	0	CorrectCommission	0.811217	0.751066	0
430.694641	0.792275	city	8	1	0.645779	0.645779	0	1	0	0	CorrectCommission	0.559951	0.724410	0
431.486938	0.792327	mountain	7	0	0.000000	0.663628	1	0	0	0	CorrectOmission	0.415104	0.699775	1
432.279114	0.791988	city	2	1	0.703171	0.703171	0	1	0	0	CorrectCommission	0.094213	0.678296	1
433.071350	0.792511	city	4	1	0.799215	0.799215	0	1	0	0	CorrectCommission	0.685191	0.660810	1
433.863708	0.792213	city	3	1	0.843430	0.843430	0	1	0	0	CorrectCommission	1.044000	0.647829	1
434.655853	0.792099	city	2	1	0.744800	0.744800	0	1	0	0	CorrectCommission	0.243613	0.639653	1
435.448090	0.792349	city	9	1	0.847497	0.847497	0	1	0	0	CorrectCommission	1.077003	0.636565	1
436.240356	0.792184	city	10	1	0.596518	0.596518	0	1	0	0	CorrectCommission	0.959701	0.638817	1
437.032715	0.792507	mountain	7	1	0.659453	0.659453	0	0	1	0	CommissionError	0.448987	0.646753	1
437.825073	0.792214	city	8	1	0.653971	0.653971	0	1	0	0	CorrectCommission	0.493467	0.660875	1
438.617188	0.792004	city	10	1	0.754173	0.754173	0	1	0	0	CorrectCommission	0.319673	0.681706	1
439.409485	0.792618	city	1	1	0.744776	0.744776	0	1	0	0	CorrectCommission	0.243419	0.709716	1
440.201782	0.792001	city	5	1	0.843772	0.843772	0	1	0	0	CorrectCommission	1.046775	0.745243	0
440.994019	0.792447	city	8	1	0.744595	0.744595	0	1	0	0	CorrectCommission	0.241946	0.788300	0
441.786407	0.792347	city	6	1	0.843979	0.843979	0	1	0	0	CorrectCommission	1.048454	0.838546	0
442.578552	0.791898	city	9	1	0.744570	0.744570	0	1	0	0	CorrectCommission	0.241747	0.895183	0
443.370758	0.792517	city	2	1	0.596519	0.596519	0	1	0	0	CorrectCommission	0.959692	0.956921	0
444.163055	0.792076	city	8	0	0.000000	0.551577	0	0	0	1	OmissionError	1.324405	1.022004	0
444.955231	0.792308	city	10	1	0.657123	0.657123	0	1	0	0	CorrectCommission	0.467890	1.088320	0
445.747528	0.792260	city	4	1	0.960541	0.960541	0	1	0	0	CorrectCommission	1.994357	1.153536	0
446.539886	0.792489	city	1	1	0.555210	0.555210	0	1	0	0	CorrectCommission	1.294922	1.215065	0
447.332275	0.792298	city	7	1	0.794252	0.794252	0	1	0	0	CorrectCommission	0.644913	1.270381	0
448.124390	0.791904	city	10	1	0.943209	0.943209	0	1	0	0	CorrectCommission	1.853705	1.317100	0
448.916656	0.792616	city	9	0	0.000000	0.941591	0	0	0	1	OmissionError	1.840574	1.353081	0
449.708954	0.792005	city	7	1	0.905269	0.905269	0	1	0	0	CorrectCommission	1.545822	1.376698	0
450.501221	0.792525	city	5	0	0.000000	0.950115	0	0	0	1	OmissionError	1.909753	1.386879	0
451.293457	0.791919	city	4	1	0.892819	0.892819	0	1	0	0	CorrectCommission	1.444794	1.383183	0
452.085571	0.792340	city	10	1	0.550071	0.550071	0	1	0	0	CorrectCommission	1.336627	1.365970	0
452.877991	0.792492	mountain	2	1	0.497546	0.497546	0	0	1	0	CommissionError	1.762868	1.336296	0
453.670349	0.792246	city	6	1	0.948764	0.948764	0	1	0	0	CorrectCommission	1.898790	1.295915	0
454.462616	0.792256	city	8	1	0.557823	0.557823	0	1	0	0	CorrectCommission	1.273716	1.247226	0
455.254791	0.792084	city	7	1	0.559736	0.559736	0	1	0	0	CorrectCommission	1.258188	1.193099	0
456.046906	0.792168	mountain	5	1	0.497504	0.497504	0	0	1	0	CommissionError	1.763205	1.136631	0
456.839233	0.792497	city	1	1	0.612330	0.612330	0	1	0	0	CorrectCommission	0.831393	1.080930	0
457.631500	0.792055	city	10	1	0.755904	0.755904	0	1	0	0	CorrectCommission	0.333721	1.028883	0
458.423798	0.792539	city	2	1	0.695424	0.695424	0	1	0	0	CorrectCommission	0.157080	0.982923	0
459.216064	0.791976	city	8	1	0.702974	0.702974	0	1	0	0	CorrectCommission	0.095813	0.944782	0
460.008209	0.792326	city	6	1	0.854631	0.854631	0	1	0	0	CorrectCommission	1.134895	0.915494	0
460.800598	0.792460	city	10	1	0.546934	0.546934	0	1	0	0	CorrectCommission	1.362078	0.895272	0
461.592896	0.792080	city	6	1	0.844275	0.844275	0	1	0	0	CorrectCommission	1.050855	0.883622	0
462.385162	0.792501	city	5	1	0.798500	0.798500	0	1	0	0	CorrectCommission	0.679392	0.879492	0
463.177551	0.792253	city	1	1	0.744680	0.744680	0	1	0	0	CorrectCommission	0.242636	0.881354	0
463.969788	0.792239	city	6	1	0.794167	0.794167	0	1	0	0	CorrectCommission	0.644222	0.887400	0
464.762024	0.792204	mountain	8	0	0.000000	0.869347	1	0	0	0	CorrectOmission	1.254318	0.895701	0
465.554321	0.792378	city	7	1	0.845341	0.845341	0	1	0	0	CorrectCommission	1.059502	0.904335	0
466.346588	0.792210	city	9	1	0.597264	0.597264	0	1	0	0	CorrectCommission	0.953646	0.911631	0
467.138885	0.792361	mountain	4	0	0.000000	0.558087	1	0	0	0	CorrectOmission	1.271569	0.916220	0
467.931152	0.792189	city	6	1	0.603853	0.603853	0	1	0	0	CorrectCommission	0.900183	0.917118	0
468.723389	0.792241	city	4	1	0.610603	0.610603	0	1	0	0	CorrectCommission	0.845402	0.913841	0
469.515533	0.792085	mountain	3	1	0.559715	0.559715	0	0	1	0	CommissionError	1.258360	0.906389	0
470.307831	0.792476	city	1	1	0.596580	0.596580	0	1	0	0	CorrectCommission	0.959200	0.895220	0
471.100067	0.792032	city	10	1	0.807129	0.807129	0	1	0	0	CorrectCommission	0.749415	0.881222	0
471.892334	0.792505	city	2	1	0.844222	0.844222	0	1	0	0	CorrectCommission	1.050425	0.865680	0
472.684723	0.792270	city	6	1	0.843918	0.843918	0	1	0	0	CorrectCommission	1.047955	0.850133	0
473.476990	0.792275	city	2	1	0.599862	0.599862	0	1	0	0	CorrectCommission	0.932568	0.836220	0
474.269226	0.792183	city	1	1	0.695657	0.695657	0	1	0	0	CorrectCommission	0.155187	0.825606	0
475.061493	0.792365	mountain	6	0	0.000000	0.628358	1	0	0	0	CorrectOmission	0.701318	0.819847	0
475.853760	0.792168	city	10	1	0.596235	0.596235	0	1	0	0	CorrectCommission	0.962000	0.820199	0
476.645996	0.792291	city	6	1	0.797556	0.797556	0	1	0	0	CorrectCommission	0.671725	0.827602	0
477.438171	0.792039	city	5	1	0.744826	0.744826	0	1	0	0	CorrectCommission	0.243820	0.842582	0
478.230286	0.792213	city	6	1	0.844231	0.844231	0	1	0	0	CorrectCommission	1.050493	0.865300	0
479.022675	0.792523	city	9	1	0.646681	0.646681	0	1	0	0	CorrectCommission	0.552626	0.895502	0
479.815063	0.792253	city	7	1	0.655718	0.655718	0	1	0	0	CorrectCommission	0.479294	0.932680	0
480.607330	0.792327	city	1	1	0.645919	0.645919	0	1	0	0	CorrectCommission	0.558814	0.976098	0
481.399628	0.792243	city	6	1	0.942819	0.942819	0	1	0	0	CorrectCommission	1.850544	1.024925	0
482.191925	0.792329	city	10	1	0.546854	0.546854	0	1	0	0	CorrectCommission	1.362733	1.078244	0
482.984070	0.791971	city	9	1	0.546717	0.546717	0	1	0	0	CorrectCommission	1.363840	1.135251	0
483.776337	0.792567	city	3	1	0.566221	0.566221	0	1	0	0	CorrectCommission	1.205568	1.195218	0
484.568756	0.792262	city	1	1	0.606308	0.606308	0	1	0	0	CorrectCommission	0.880261	1.257502	0
485.360962	0.792202	city	2	1	0.596221	0.596221	0	1	0	0	CorrectCommission	0.962111	1.321513	0
486.153076	0.792024	city	4	1	0.756735	0.756735	0	1	0	0	CorrectCommission	0.340465	1.386678	0
486.945374	0.792546	city	6	1	0.893762	0.893762	0	1	0	0	CorrectCommission	1.452444	1.452444	0
