onset	duration	trial_type	image_type	Press	ReactionTime	ReactionTime_Interpolated	CorrectOmission	CorrectCommission	CommissionError	OmissionError	response_type	nonsmoothVarianceTimeCourse	VarianceTimeCourse	In_the_Zone
8.422048	0.795802	city	8	1	0.946975	0.946975	0	1	0	0	CorrectCommission	1.114062	1.114062	0
9.217807	0.795715	city	1	1	0.648434	0.648434	0	1	0	0	CorrectCommission	0.488416	1.076389	0
10.013436	0.795545	mountain	5	1	0.449362	0.449362	0	0	1	0	CommissionError	1.556970	1.040768	0
10.809273	0.796128	city	3	1	0.599039	0.599039	0	1	0	0	CorrectCommission	0.753553	1.008951	0
11.605113	0.795553	mountain	7	1	0.510599	0.510599	0	0	1	0	CommissionError	1.228268	0.982372	0
12.400869	0.795960	city	2	1	0.549417	0.549417	0	1	0	0	CorrectCommission	1.019910	0.961811	0
13.196638	0.795578	city	4	1	0.747891	0.747891	0	1	0	0	CorrectCommission	0.045439	0.947435	0
13.992474	0.796093	city	7	1	0.748293	0.748293	0	1	0	0	CorrectCommission	0.047597	0.938695	0
14.788443	0.795845	city	9	1	0.648509	0.648509	0	1	0	0	CorrectCommission	0.488012	0.934283	0
15.584227	0.795723	city	10	1	0.449770	0.449770	0	1	0	0	CorrectCommission	1.554783	0.932382	0
16.379995	0.795814	city	3	1	0.499144	0.499144	0	1	0	0	CorrectCommission	1.289759	0.930820	0
17.175848	0.795892	city	6	1	0.517319	0.517319	0	1	0	0	CorrectCommission	1.192202	0.927427	0
17.971685	0.795786	city	1	1	0.549075	0.549075	0	1	0	0	CorrectCommission	1.021743	0.920276	0
18.767452	0.795747	city	2	1	0.518220	0.518220	0	1	0	0	CorrectCommission	1.187363	0.908007	0
19.563200	0.795747	mountain	6	1	0.648460	0.648460	0	0	1	0	CommissionError	0.488277	0.889986	0
20.359026	0.795906	mountain	2	0	0.000000	0.446384	1	0	0	0	CorrectOmission	1.572955	0.866496	0
21.154737	0.795514	city	10	1	0.350153	0.350153	0	1	0	0	CorrectCommission	2.089494	0.838644	0
21.950499	0.796011	mountain	7	1	0.797926	0.797926	0	0	1	0	CommissionError	0.314010	0.808301	0
22.746304	0.795596	mountain	4	0	0.000000	0.817792	1	0	0	0	CorrectOmission	0.420644	0.777925	0
23.542133	0.796065	city	8	1	0.765861	0.765861	0	1	0	0	CorrectCommission	0.141898	0.750025	1
24.338057	0.795782	city	10	1	0.998244	0.998244	0	1	0	0	CorrectCommission	1.389259	0.726941	1
25.133835	0.795776	city	2	1	0.698662	0.698662	0	1	0	0	CorrectCommission	0.218805	0.710389	1
25.929602	0.795757	city	5	1	0.748330	0.748330	0	1	0	0	CorrectCommission	0.047798	0.701323	1
26.725393	0.795827	city	10	1	0.697942	0.697942	0	1	0	0	CorrectCommission	0.222672	0.699734	1
27.521103	0.795593	city	3	1	0.748234	0.748234	0	1	0	0	CorrectCommission	0.047281	0.704604	1
28.316820	0.795838	city	10	1	0.662845	0.662845	0	1	0	0	CorrectCommission	0.411061	0.714221	1
29.112715	0.795951	city	8	1	0.598881	0.598881	0	1	0	0	CorrectCommission	0.754402	0.726418	1
29.908627	0.795873	city	2	1	0.599057	0.599057	0	1	0	0	CorrectCommission	0.753455	0.739041	1
30.704468	0.795809	city	5	1	0.400119	0.400119	0	1	0	0	CorrectCommission	1.821293	0.750434	1
31.500259	0.795776	city	9	1	0.399451	0.399451	0	1	0	0	CorrectCommission	1.824876	0.759732	0
32.295929	0.795562	city	6	1	0.452783	0.452783	0	1	0	0	CorrectCommission	1.538610	0.767090	0
33.091717	0.796017	city	9	1	0.603605	0.603605	0	1	0	0	CorrectCommission	0.729041	0.773649	0
33.887665	0.795879	city	10	1	0.648424	0.648424	0	1	0	0	CorrectCommission	0.488468	0.781352	0
34.683479	0.795749	city	4	1	0.698412	0.698412	0	1	0	0	CorrectCommission	0.220147	0.792475	0
35.479237	0.795760	city	1	1	0.701693	0.701693	0	1	0	0	CorrectCommission	0.202538	0.809148	0
36.275028	0.795826	city	10	1	0.618264	0.618264	0	1	0	0	CorrectCommission	0.650358	0.832805	0
37.070827	0.795776	city	4	1	0.698165	0.698165	0	1	0	0	CorrectCommission	0.221476	0.863777	0
37.866661	0.795887	city	3	1	0.648434	0.648434	0	1	0	0	CorrectCommission	0.488415	0.901040	0
38.662476	0.795743	city	5	1	0.747660	0.747660	0	1	0	0	CorrectCommission	0.044201	0.942135	0
39.458256	0.795816	city	10	1	0.797465	0.797465	0	1	0	0	CorrectCommission	0.311535	0.983531	0
40.254059	0.795790	city	5	1	1.046077	1.046077	0	1	0	0	CorrectCommission	1.646011	1.020955	0
41.049896	0.795887	city	8	1	1.046840	1.046840	0	1	0	0	CorrectCommission	1.650105	1.049993	0
41.845699	0.795721	city	10	1	1.195603	1.195603	0	1	0	0	CorrectCommission	2.448619	1.066791	0
42.641495	0.795866	city	5	1	1.145613	1.145613	0	1	0	0	CorrectCommission	2.180287	1.068610	0
43.437317	0.795776	city	7	1	1.160009	1.160009	0	1	0	0	CorrectCommission	2.257559	1.054271	0
44.233051	0.795699	mountain	6	0	0.000000	1.005756	1	0	0	0	CorrectOmission	1.429578	1.024268	0
45.028690	0.795581	city	2	1	0.847759	0.847759	0	1	0	0	CorrectCommission	0.581501	0.980737	0
45.824497	0.796032	city	7	1	0.850924	0.850924	0	1	0	0	CorrectCommission	0.598489	0.927136	0
46.620327	0.795629	city	5	1	0.946855	0.946855	0	1	0	0	CorrectCommission	1.113417	0.867700	0
47.416035	0.795786	city	9	1	0.799518	0.799518	0	1	0	0	CorrectCommission	0.322556	0.806912	0
48.211849	0.795840	city	8	1	0.714751	0.714751	0	1	0	0	CorrectCommission	0.132448	0.749004	1
49.007774	0.796009	city	9	1	0.803689	0.803689	0	1	0	0	CorrectCommission	0.344945	0.697497	1
49.803677	0.795794	city	10	1	0.759769	0.759769	0	1	0	0	CorrectCommission	0.109196	0.654906	1
50.599468	0.795788	city	3	1	0.698417	0.698417	0	1	0	0	CorrectCommission	0.220121	0.622703	1
51.395241	0.795764	city	6	1	0.657284	0.657284	0	1	0	0	CorrectCommission	0.440910	0.601321	1
52.191036	0.795827	mountain	3	0	0.000000	0.620590	1	0	0	0	CorrectOmission	0.637871	0.590386	1
52.986866	0.795828	city	3	1	0.599421	0.599421	0	1	0	0	CorrectCommission	0.751500	0.588999	1
53.782669	0.795780	city	1	1	0.604862	0.604862	0	1	0	0	CorrectCommission	0.722294	0.596003	1
54.578503	0.795886	city	10	1	0.548945	0.548945	0	1	0	0	CorrectCommission	1.022441	0.610246	1
55.374321	0.795756	city	2	1	0.598772	0.598772	0	1	0	0	CorrectCommission	0.754987	0.630679	1
56.169949	0.795496	city	6	1	0.708782	0.708782	0	1	0	0	CorrectCommission	0.164486	0.656484	1
56.965645	0.795893	city	2	1	0.648778	0.648778	0	1	0	0	CorrectCommission	0.486569	0.686992	1
57.761620	0.796056	city	5	1	0.609915	0.609915	0	1	0	0	CorrectCommission	0.695172	0.721503	1
58.557507	0.795724	city	10	1	0.648634	0.648634	0	1	0	0	CorrectCommission	0.487342	0.759233	0
59.353306	0.795872	city	2	1	0.648751	0.648751	0	1	0	0	CorrectCommission	0.486716	0.799173	0
60.149120	0.795755	city	5	1	0.698078	0.698078	0	1	0	0	CorrectCommission	0.221944	0.840037	0
60.944798	0.795601	city	2	1	0.499157	0.499157	0	1	0	0	CorrectCommission	1.289688	0.880215	0
61.740463	0.795732	city	5	1	0.463442	0.463442	0	1	0	0	CorrectCommission	1.481395	0.917848	0
62.536274	0.795889	city	7	1	0.549144	0.549144	0	1	0	0	CorrectCommission	1.021375	0.951016	0
63.332188	0.795940	city	5	1	0.549715	0.549715	0	1	0	0	CorrectCommission	1.018311	0.977874	0
64.127975	0.795640	city	4	1	0.449869	0.449869	0	1	0	0	CorrectCommission	1.554253	0.996791	0
64.923820	0.796046	city	3	1	0.500698	0.500698	0	1	0	0	CorrectCommission	1.281418	1.006534	0
65.719612	0.795534	city	4	1	0.499010	0.499010	0	1	0	0	CorrectCommission	1.290474	1.006409	0
66.515427	0.796097	city	10	1	0.598783	0.598783	0	1	0	0	CorrectCommission	0.754926	0.996312	0
67.311348	0.795754	city	1	1	0.598988	0.598988	0	1	0	0	CorrectCommission	0.753827	0.976819	0
68.107025	0.795588	city	4	1	0.513251	0.513251	0	1	0	0	CorrectCommission	1.214035	0.949155	0
68.902702	0.795778	city	1	1	0.449668	0.449668	0	1	0	0	CorrectCommission	1.555327	0.915189	0
69.698593	0.796005	city	10	1	0.499365	0.499365	0	1	0	0	CorrectCommission	1.288572	0.877390	0
70.494415	0.795637	city	2	1	0.598497	0.598497	0	1	0	0	CorrectCommission	0.756462	0.838697	0
71.290207	0.795944	city	4	1	0.599489	0.599489	0	1	0	0	CorrectCommission	0.751139	0.802360	0
72.085991	0.795619	city	2	1	0.664080	0.664080	0	1	0	0	CorrectCommission	0.404433	0.771668	0
72.881813	0.796035	city	1	1	0.698644	0.698644	0	1	0	0	CorrectCommission	0.218901	0.749737	1
73.677589	0.795507	city	7	1	0.698664	0.698664	0	1	0	0	CorrectCommission	0.218794	0.739203	1
74.473389	0.796089	city	2	1	0.865475	0.865475	0	1	0	0	CorrectCommission	0.676592	0.741906	1
75.269180	0.795506	city	4	1	0.947017	0.947017	0	1	0	0	CorrectCommission	1.114284	0.758625	0
76.064842	0.795818	city	2	1	0.754228	0.754228	0	1	0	0	CorrectCommission	0.079453	0.788914	0
76.860649	0.795790	city	1	1	0.698965	0.698965	0	1	0	0	CorrectCommission	0.217179	0.831029	0
77.656570	0.796047	city	5	1	0.707597	0.707597	0	1	0	0	CorrectCommission	0.170844	0.881905	0
78.452530	0.795875	city	8	1	0.698446	0.698446	0	1	0	0	CorrectCommission	0.219968	0.937349	0
79.248329	0.795722	city	2	1	0.548804	0.548804	0	1	0	0	CorrectCommission	1.023196	0.992370	0
80.044113	0.795857	city	9	1	0.399637	0.399637	0	1	0	0	CorrectCommission	1.823878	1.041621	0
80.839943	0.795799	city	4	1	0.400191	0.400191	0	1	0	0	CorrectCommission	1.820905	1.079958	0
81.635597	0.795507	mountain	6	1	0.400110	0.400110	0	0	1	0	CommissionError	1.821339	1.102951	0
82.431389	0.796071	city	4	1	0.400259	0.400259	0	1	0	0	CorrectCommission	1.820540	1.107389	0
83.227325	0.795814	city	6	1	0.464494	0.464494	0	1	0	0	CorrectCommission	1.475746	1.091582	0
84.023155	0.795843	city	5	1	0.399904	0.399904	0	1	0	0	CorrectCommission	1.822445	1.055579	0
84.818855	0.795552	city	10	1	0.350155	0.350155	0	1	0	0	CorrectCommission	2.089483	1.001080	0
85.614540	0.795823	city	5	1	0.964884	0.964884	0	1	0	0	CorrectCommission	1.210189	0.931233	0
86.410339	0.795777	city	9	1	0.861443	0.861443	0	1	0	0	CorrectCommission	0.654953	0.850275	0
87.206215	0.795970	city	1	1	0.757430	0.757430	0	1	0	0	CorrectCommission	0.096643	0.763014	0
88.002136	0.795875	city	10	1	0.698268	0.698268	0	1	0	0	CorrectCommission	0.220921	0.674333	1
88.797943	0.795735	city	9	1	0.709245	0.709245	0	1	0	0	CorrectCommission	0.162000	0.588684	1
89.593719	0.795818	city	2	1	0.748309	0.748309	0	1	0	0	CorrectCommission	0.047682	0.509758	1
90.389580	0.795901	city	6	1	0.709905	0.709905	0	1	0	0	CorrectCommission	0.158457	0.440219	1
91.185371	0.795689	city	8	1	0.648406	0.648406	0	1	0	0	CorrectCommission	0.488566	0.381639	1
91.981125	0.795807	city	6	1	0.748322	0.748322	0	1	0	0	CorrectCommission	0.047753	0.334599	1
92.776924	0.795795	city	1	1	0.748106	0.748106	0	1	0	0	CorrectCommission	0.046596	0.298811	1
93.572723	0.795811	city	9	1	0.797764	0.797764	0	1	0	0	CorrectCommission	0.313140	0.273462	1
94.368446	0.795632	city	8	1	0.716282	0.716282	0	1	0	0	CorrectCommission	0.124229	0.257423	1
95.164146	0.795764	city	7	1	0.748603	0.748603	0	1	0	0	CorrectCommission	0.049262	0.249571	1
95.959930	0.795800	city	10	1	0.848138	0.848138	0	1	0	0	CorrectCommission	0.583533	0.248986	1
96.755737	0.795825	mountain	6	1	0.748282	0.748282	0	0	1	0	CommissionError	0.047539	0.255031	1
97.551697	0.796095	city	3	1	0.849287	0.849287	0	1	0	0	CorrectCommission	0.589699	0.267429	1
98.347588	0.795676	city	6	1	0.761168	0.761168	0	1	0	0	CorrectCommission	0.116707	0.286148	1
99.143227	0.795609	city	9	1	0.709495	0.709495	0	1	0	0	CorrectCommission	0.160660	0.311304	1
99.939041	0.796013	city	2	1	0.698803	0.698803	0	1	0	0	CorrectCommission	0.218053	0.342909	1
100.734962	0.795837	city	3	1	0.797718	0.797718	0	1	0	0	CorrectCommission	0.312895	0.380691	1
101.530678	0.795590	city	9	1	0.747986	0.747986	0	1	0	0	CorrectCommission	0.045949	0.423899	1
102.326378	0.795814	city	2	1	0.748171	0.748171	0	1	0	0	CorrectCommission	0.046943	0.471171	1
103.122299	0.796027	city	4	1	0.748401	0.748401	0	1	0	0	CorrectCommission	0.048178	0.520573	1
103.918182	0.795738	city	5	1	0.663158	0.663158	0	1	0	0	CorrectCommission	0.409381	0.569685	1
104.713951	0.795805	city	7	1	0.548813	0.548813	0	1	0	0	CorrectCommission	1.023150	0.615801	1
105.509758	0.795794	city	6	1	0.609286	0.609286	0	1	0	0	CorrectCommission	0.698547	0.656213	1
106.305466	0.795624	mountain	10	1	0.897026	0.897026	0	0	1	0	CommissionError	0.845948	0.688568	1
107.101280	0.796005	city	10	1	1.195952	1.195952	0	1	0	0	CorrectCommission	2.450490	0.711110	1
107.897171	0.795786	city	9	0	0.000000	0.887042	0	0	0	1	OmissionError	0.792357	0.722907	1
108.693008	0.795882	city	6	1	0.510431	0.510431	0	1	0	0	CorrectCommission	1.229174	0.724047	1
109.488846	0.795786	city	9	1	0.606253	0.606253	0	1	0	0	CorrectCommission	0.714827	0.715503	1
110.284592	0.795706	city	5	1	0.648731	0.648731	0	1	0	0	CorrectCommission	0.486820	0.699092	1
111.080254	0.795631	city	9	1	0.598798	0.598798	0	1	0	0	CorrectCommission	0.754848	0.677171	1
111.875977	0.795805	mountain	10	1	0.648798	0.648798	0	0	1	0	CommissionError	0.486463	0.652347	1
112.671890	0.796019	city	1	1	0.698995	0.698995	0	1	0	0	CorrectCommission	0.217017	0.627215	1
113.467682	0.795565	city	9	1	0.802850	0.802850	0	1	0	0	CorrectCommission	0.340441	0.604057	1
114.263367	0.795806	city	4	1	0.798772	0.798772	0	1	0	0	CorrectCommission	0.318552	0.584696	1
115.059303	0.796070	mountain	9	0	0.000000	0.649777	1	0	0	0	CorrectOmission	0.481204	0.570308	1
115.855232	0.795794	city	3	1	0.604801	0.604801	0	1	0	0	CorrectCommission	0.722622	0.561432	1
116.651016	0.795771	city	4	1	0.912778	0.912778	0	1	0	0	CorrectCommission	0.930502	0.558035	1
117.446800	0.795795	city	2	1	0.757083	0.757083	0	1	0	0	CorrectCommission	0.094778	0.559554	1
118.242592	0.795788	city	5	1	0.797799	0.797799	0	1	0	0	CorrectCommission	0.313330	0.565111	1
119.038437	0.795908	city	6	1	0.648563	0.648563	0	1	0	0	CorrectCommission	0.487724	0.573577	1
119.834152	0.795529	city	1	1	0.648154	0.648154	0	1	0	0	CorrectCommission	0.489918	0.583763	1
120.629906	0.795977	mountain	1	0	0.000000	0.584298	1	0	0	0	CorrectOmission	0.832680	0.594554	1
121.425774	0.795751	mountain	8	1	0.598823	0.598823	0	0	1	0	CommissionError	0.754714	0.605041	1
122.221474	0.795653	mountain	10	0	0.000000	0.833558	1	0	0	0	CorrectOmission	0.505275	0.614547	1
123.017220	0.795838	city	7	1	0.997121	0.997121	0	1	0	0	CorrectCommission	1.383227	0.622733	1
123.813126	0.795972	city	4	1	0.798125	0.798125	0	1	0	0	CorrectCommission	0.315081	0.629535	1
124.609047	0.795867	mountain	4	0	0.000000	0.813980	1	0	0	0	CorrectOmission	0.400186	0.635173	1
125.404877	0.795788	city	6	1	0.897371	0.897371	0	1	0	0	CorrectCommission	0.847800	0.640041	1
126.200554	0.795573	city	5	1	0.900982	0.900982	0	1	0	0	CorrectCommission	0.867182	0.644556	1
126.996323	0.795968	mountain	10	0	0.000000	0.831030	1	0	0	0	CorrectOmission	0.491704	0.649123	1
127.792221	0.795818	mountain	6	0	0.000000	0.769328	1	0	0	0	CorrectOmission	0.160505	0.653996	1
128.587921	0.795583	city	1	1	0.797685	0.797685	0	1	0	0	CorrectCommission	0.312720	0.659172	1
129.383698	0.795962	city	10	1	0.997914	0.997914	0	1	0	0	CorrectCommission	1.387486	0.664366	1
130.179642	0.795938	mountain	8	0	0.000000	0.837455	1	0	0	0	CorrectOmission	0.526193	0.668987	1
130.975479	0.795736	city	10	1	0.697851	0.697851	0	1	0	0	CorrectCommission	0.223159	0.672306	1
131.771271	0.795834	city	9	1	0.960643	0.960643	0	1	0	0	CorrectCommission	1.187426	0.673459	1
132.567108	0.795846	mountain	6	1	0.660237	0.660237	0	0	1	0	CommissionError	0.425062	0.671537	1
133.362869	0.795676	city	7	1	0.897291	0.897291	0	1	0	0	CorrectCommission	0.847369	0.665827	1
134.158524	0.795644	city	6	1	0.897743	0.897743	0	1	0	0	CorrectCommission	0.849800	0.655838	1
134.954376	0.796071	city	10	1	0.897444	0.897444	0	1	0	0	CorrectCommission	0.848192	0.641487	1
135.750137	0.795454	city	2	0	0.000000	0.614131	0	0	0	1	OmissionError	0.672542	0.623038	1
136.545807	0.795864	city	3	1	0.450394	0.450394	0	1	0	0	CorrectCommission	1.551431	0.601186	1
137.341766	0.796079	city	4	1	0.808822	0.808822	0	1	0	0	CorrectCommission	0.372496	0.576935	1
138.137665	0.795696	city	2	1	0.698282	0.698282	0	1	0	0	CorrectCommission	0.220849	0.551580	1
138.933426	0.795848	city	3	1	0.759959	0.759959	0	1	0	0	CorrectCommission	0.110217	0.526501	1
139.729294	0.795882	city	10	1	0.660231	0.660231	0	1	0	0	CorrectCommission	0.425092	0.503080	1
140.525116	0.795745	city	3	1	0.698421	0.698421	0	1	0	0	CorrectCommission	0.220101	0.482521	1
141.320892	0.795808	city	8	1	0.747995	0.747995	0	1	0	0	CorrectCommission	0.045998	0.465860	1
142.116684	0.795781	city	1	1	0.598800	0.598800	0	1	0	0	CorrectCommission	0.754836	0.453889	1
142.912445	0.795746	city	5	1	0.600819	0.600819	0	1	0	0	CorrectCommission	0.743999	0.447038	1
143.708237	0.795826	city	7	1	0.648280	0.648280	0	1	0	0	CorrectCommission	0.489243	0.445451	1
144.503952	0.795624	city	9	1	0.648191	0.648191	0	1	0	0	CorrectCommission	0.489721	0.448984	1
145.299652	0.795769	city	10	1	0.751380	0.751380	0	1	0	0	CorrectCommission	0.064165	0.457190	1
146.095459	0.795851	mountain	3	0	0.000000	0.799516	1	0	0	0	CorrectOmission	0.322547	0.469356	1
146.891418	0.796054	mountain	6	1	0.797956	0.797956	0	0	1	0	CommissionError	0.314171	0.484478	1
147.687286	0.795697	city	2	0	0.000000	0.752054	0	0	0	1	OmissionError	0.067783	0.501410	1
148.482971	0.795651	city	8	1	0.755412	0.755412	0	1	0	0	CorrectCommission	0.085812	0.518907	1
149.278778	0.795969	city	5	1	0.901634	0.901634	0	1	0	0	CorrectCommission	0.870684	0.535772	1
150.074554	0.795591	city	6	1	1.049986	1.049986	0	1	0	0	CorrectCommission	1.666990	0.551026	1
150.870361	0.796029	city	3	0	0.000000	0.768009	0	0	0	1	OmissionError	0.153427	0.564022	1
151.666275	0.795788	city	1	1	0.564255	0.564255	0	1	0	0	CorrectCommission	0.940262	0.574692	1
152.462067	0.795789	city	7	1	0.947275	0.947275	0	1	0	0	CorrectCommission	1.115670	0.583404	1
153.257874	0.795840	city	9	1	0.847710	0.847710	0	1	0	0	CorrectCommission	0.581235	0.591057	1
154.053574	0.795557	city	7	1	0.806657	0.806657	0	1	0	0	CorrectCommission	0.360878	0.598926	1
154.849380	0.796064	city	9	1	0.798274	0.798274	0	1	0	0	CorrectCommission	0.315880	0.608496	1
155.645279	0.795725	mountain	5	0	0.000000	0.764093	1	0	0	0	CorrectOmission	0.132408	0.621223	1
156.441086	0.795899	city	5	1	0.798715	0.798715	0	1	0	0	CorrectCommission	0.318247	0.638345	1
157.236923	0.795763	city	9	1	0.996739	0.996739	0	1	0	0	CorrectCommission	1.381180	0.660658	1
158.032593	0.795576	city	6	1	0.847548	0.847548	0	1	0	0	CorrectCommission	0.580367	0.688373	1
158.828278	0.795797	city	2	1	0.748201	0.748201	0	1	0	0	CorrectCommission	0.047104	0.721191	1
159.624207	0.796048	city	6	1	0.765665	0.765665	0	1	0	0	CorrectCommission	0.140842	0.758206	1
160.420120	0.795796	city	3	1	0.816205	0.816205	0	1	0	0	CorrectCommission	0.412130	0.798027	0
161.215958	0.795858	city	7	1	0.897420	0.897420	0	1	0	0	CorrectCommission	0.848063	0.838971	0
162.011719	0.795674	city	5	1	1.046599	1.046599	0	1	0	0	CorrectCommission	1.648813	0.879248	0
162.807480	0.795840	city	2	1	1.146385	1.146385	0	1	0	0	CorrectCommission	2.184432	0.917203	0
163.603195	0.795591	city	7	0	0.000000	0.845547	0	0	0	1	OmissionError	0.569625	0.951464	0
164.398880	0.795802	city	6	1	0.508520	0.508520	0	1	0	0	CorrectCommission	1.239427	0.981114	0
165.194778	0.795973	city	4	1	0.499743	0.499743	0	1	0	0	CorrectCommission	1.286544	1.005609	0
165.990646	0.795771	city	3	1	0.663819	0.663819	0	1	0	0	CorrectCommission	0.405832	1.024850	0
166.786438	0.795829	mountain	1	1	0.897613	0.897613	0	0	1	0	CommissionError	0.849103	1.039121	0
167.582260	0.795807	city	6	1	0.897009	0.897009	0	1	0	0	CorrectCommission	0.845856	1.048882	0
168.378098	0.795853	city	5	1	0.947212	0.947212	0	1	0	0	CorrectCommission	1.115331	1.054864	0
169.173950	0.795874	city	9	1	1.046155	1.046155	0	1	0	0	CorrectCommission	1.646426	1.057907	0
169.969772	0.795752	city	10	1	0.996716	0.996716	0	1	0	0	CorrectCommission	1.381053	1.058901	0
170.765549	0.795823	city	9	1	0.946734	0.946734	0	1	0	0	CorrectCommission	1.112764	1.058793	0
171.561325	0.795724	city	10	1	0.947056	0.947056	0	1	0	0	CorrectCommission	1.114496	1.058472	0
172.357147	0.795914	city	9	1	0.897478	0.897478	0	1	0	0	CorrectCommission	0.848373	1.058680	0
173.152954	0.795690	mountain	1	1	0.848019	0.848019	0	0	1	0	CommissionError	0.582894	1.059936	0
173.948715	0.795852	city	1	1	0.954338	0.954338	0	1	0	0	CorrectCommission	1.153584	1.062436	0
174.744568	0.795851	city	7	1	0.947173	0.947173	0	1	0	0	CorrectCommission	1.115125	1.065894	0
175.540268	0.795549	city	1	1	0.903125	0.903125	0	1	0	0	CorrectCommission	0.878686	1.069642	0
176.336014	0.795938	city	5	1	0.897068	0.897068	0	1	0	0	CorrectCommission	0.846173	1.072600	0
177.131927	0.795885	mountain	7	1	0.856537	0.856537	0	0	1	0	CommissionError	0.628619	1.073392	0
177.927734	0.795720	city	3	1	0.996432	0.996432	0	1	0	0	CorrectCommission	1.379528	1.070501	0
178.723526	0.795867	city	2	1	1.055616	1.055616	0	1	0	0	CorrectCommission	1.697209	1.062461	0
179.519318	0.795710	city	7	1	0.949775	0.949775	0	1	0	0	CorrectCommission	1.129089	1.048065	0
180.315094	0.795849	city	5	1	0.996729	0.996729	0	1	0	0	CorrectCommission	1.381122	1.026679	0
181.110962	0.795882	city	4	1	0.996766	0.996766	0	1	0	0	CorrectCommission	1.381321	0.998364	0
181.906799	0.795804	city	5	1	1.046591	1.046591	0	1	0	0	CorrectCommission	1.648768	0.963964	0
182.702560	0.795704	mountain	3	0	0.000000	0.839179	1	0	0	0	CorrectOmission	0.535442	0.925081	0
183.498322	0.795836	city	6	1	0.598693	0.598693	0	1	0	0	CorrectCommission	0.755408	0.884046	0
184.294006	0.795521	city	5	1	0.549300	0.549300	0	1	0	0	CorrectCommission	1.020535	0.843554	0
185.089661	0.795793	city	4	1	0.609879	0.609879	0	1	0	0	CorrectCommission	0.695365	0.806432	0
185.885574	0.796049	city	1	1	0.650436	0.650436	0	1	0	0	CorrectCommission	0.477667	0.775312	0
186.681534	0.795860	city	3	1	0.698331	0.698331	0	1	0	0	CorrectCommission	0.220584	0.752313	1
187.477386	0.795846	city	4	1	0.817031	0.817031	0	1	0	0	CorrectCommission	0.416560	0.738812	1
188.273193	0.795748	city	1	1	0.850548	0.850548	0	1	0	0	CorrectCommission	0.596469	0.735256	1
189.068954	0.795798	city	7	1	0.847828	0.847828	0	1	0	0	CorrectCommission	0.581872	0.741132	1
189.864777	0.795831	city	2	1	0.748339	0.748339	0	1	0	0	CorrectCommission	0.047841	0.755086	1
190.660477	0.795586	city	3	1	0.649726	0.649726	0	1	0	0	CorrectCommission	0.481479	0.775194	0
191.456299	0.796035	city	4	1	0.748045	0.748045	0	1	0	0	CorrectCommission	0.046267	0.799136	0
192.252213	0.795814	city	7	1	0.996902	0.996902	0	1	0	0	CorrectCommission	1.382052	0.824634	0
193.048019	0.795778	city	1	1	1.096231	1.096231	0	1	0	0	CorrectCommission	1.915221	0.849658	0
193.843674	0.795547	city	9	1	1.196851	1.196851	0	1	0	0	CorrectCommission	2.455319	0.872740	0
194.639435	0.795975	city	7	0	0.000000	0.839960	0	0	0	1	OmissionError	0.539635	0.893026	0
195.435257	0.795662	city	4	1	0.499542	0.499542	0	1	0	0	CorrectCommission	1.287622	0.910275	0
196.231064	0.795954	city	10	1	0.649584	0.649584	0	1	0	0	CorrectCommission	0.482241	0.924528	0
197.026947	0.795802	city	9	1	0.797801	0.797801	0	1	0	0	CorrectCommission	0.313339	0.936032	0
197.822647	0.795605	city	1	1	0.798030	0.798030	0	1	0	0	CorrectCommission	0.314571	0.944862	0
198.618362	0.795833	city	10	1	0.847971	0.847971	0	1	0	0	CorrectCommission	0.582638	0.950747	0
199.414246	0.795945	city	8	1	0.897459	0.897459	0	1	0	0	CorrectCommission	0.848271	0.952978	0
200.210190	0.795925	city	4	1	0.946865	0.946865	0	1	0	0	CorrectCommission	1.113472	0.950540	0
201.005875	0.795444	city	5	1	0.904953	0.904953	0	1	0	0	CorrectCommission	0.888499	0.942234	0
201.801544	0.795905	mountain	1	1	1.046678	1.046678	0	0	1	0	CommissionError	1.649234	0.926970	0
202.597473	0.795940	city	4	1	1.153752	1.153752	0	1	0	0	CorrectCommission	2.223972	0.904021	0
203.393265	0.795658	city	10	1	1.046666	1.046666	0	1	0	0	CorrectCommission	1.649171	0.873278	0
204.188980	0.795757	mountain	3	0	0.000000	0.879601	1	0	0	0	CorrectOmission	0.752418	0.835381	0
204.984726	0.795753	city	1	1	0.698664	0.698664	0	1	0	0	CorrectCommission	0.218798	0.791711	0
205.780640	0.796065	city	3	1	0.549960	0.549960	0	1	0	0	CorrectCommission	1.016994	0.744188	1
206.576584	0.795838	city	6	1	0.648385	0.648385	0	1	0	0	CorrectCommission	0.488679	0.695043	1
207.372284	0.795553	city	3	1	0.705221	0.705221	0	1	0	0	CorrectCommission	0.183600	0.646616	1
208.168091	0.796064	city	1	1	0.748243	0.748243	0	1	0	0	CorrectCommission	0.047330	0.601020	1
208.963989	0.795721	city	7	1	0.648595	0.648595	0	1	0	0	CorrectCommission	0.487550	0.560007	1
209.759811	0.795925	city	8	1	0.648964	0.648964	0	1	0	0	CorrectCommission	0.485568	0.524770	1
210.555496	0.795457	mountain	4	0	0.000000	0.717278	1	0	0	0	CorrectOmission	0.118881	0.495936	1
211.351303	0.796146	city	2	1	0.815217	0.815217	0	1	0	0	CorrectCommission	0.406824	0.473716	1
212.147247	0.795757	mountain	4	0	0.000000	0.904461	1	0	0	0	CorrectOmission	0.885860	0.458039	1
212.942932	0.795589	city	7	1	0.896971	0.896971	0	1	0	0	CorrectCommission	0.845654	0.448655	1
213.738678	0.795924	city	2	1	0.704706	0.704706	0	1	0	0	CorrectCommission	0.186362	0.445348	1
214.534592	0.795880	mountain	2	0	0.000000	0.752480	1	0	0	0	CorrectOmission	0.070074	0.448030	1
215.330292	0.795543	city	8	1	0.847679	0.847679	0	1	0	0	CorrectCommission	0.581069	0.456777	1
216.126099	0.796049	city	5	1	0.797688	0.797688	0	1	0	0	CorrectCommission	0.312732	0.471718	1
216.921997	0.795761	city	1	1	0.747795	0.747795	0	1	0	0	CorrectCommission	0.044924	0.493041	1
217.717667	0.795589	city	10	1	0.648796	0.648796	0	1	0	0	CorrectCommission	0.486473	0.520873	1
218.513519	0.796099	city	2	1	0.599155	0.599155	0	1	0	0	CorrectCommission	0.752929	0.555141	1
219.309341	0.795559	city	3	1	0.705590	0.705590	0	1	0	0	CorrectCommission	0.181621	0.595457	1
220.105164	0.796063	city	6	1	0.897412	0.897412	0	1	0	0	CorrectCommission	0.848019	0.641110	1
220.900970	0.795549	city	9	1	0.699470	0.699470	0	1	0	0	CorrectCommission	0.214467	0.691016	1
221.696747	0.796010	city	8	1	0.599965	0.599965	0	1	0	0	CorrectCommission	0.748579	0.743831	1
222.492523	0.795539	city	2	1	0.698433	0.698433	0	1	0	0	CorrectCommission	0.220037	0.797977	0
223.288269	0.795977	city	6	1	0.847435	0.847435	0	1	0	0	CorrectCommission	0.579759	0.851804	0
224.084183	0.795837	mountain	2	0	0.000000	1.094280	1	0	0	0	CorrectOmission	1.904747	0.903752	0
224.879898	0.795596	city	7	1	1.163315	1.163315	0	1	0	0	CorrectCommission	2.275304	0.952403	0
225.675705	0.796017	city	8	0	0.000000	0.778886	0	0	0	1	OmissionError	0.211811	0.996753	0
226.471603	0.795773	city	7	1	0.516846	0.516846	0	1	0	0	CorrectCommission	1.194737	1.036271	0
227.267273	0.795567	city	10	1	0.953048	0.953048	0	1	0	0	CorrectCommission	1.146658	1.070718	0
228.063080	0.796069	city	6	1	0.949395	0.949395	0	1	0	0	CorrectCommission	1.127049	1.100330	0
228.859024	0.795792	mountain	3	0	0.000000	0.881603	1	0	0	0	CorrectOmission	0.763164	1.125607	0
229.654861	0.795890	city	6	1	0.897691	0.897691	0	1	0	0	CorrectCommission	0.849517	1.147279	0
230.450562	0.795512	city	8	1	1.145676	1.145676	0	1	0	0	CorrectCommission	2.180624	1.166181	0
231.246231	0.795820	city	4	0	0.000000	0.938408	0	0	0	1	OmissionError	1.068077	1.183094	0
232.042099	0.795932	city	8	1	0.599005	0.599005	0	1	0	0	CorrectCommission	0.753736	1.198892	0
232.838028	0.795934	city	10	1	0.450582	0.450582	0	1	0	0	CorrectCommission	1.550423	1.214207	0
233.633865	0.795731	city	8	1	0.449946	0.449946	0	1	0	0	CorrectCommission	1.553837	1.229440	0
234.429626	0.795788	city	2	1	0.599060	0.599060	0	1	0	0	CorrectCommission	0.753439	1.244783	0
235.225327	0.795603	city	1	1	0.610206	0.610206	0	1	0	0	CorrectCommission	0.693609	1.260178	0
236.021118	0.796000	city	2	1	0.996611	0.996611	0	1	0	0	CorrectCommission	1.380489	1.275318	0
236.817078	0.795900	city	1	1	0.996957	0.996957	0	1	0	0	CorrectCommission	1.382350	1.289671	0
237.612778	0.795504	mountain	1	1	1.017934	1.017934	0	0	1	0	CommissionError	1.494946	1.302623	0
238.408417	0.795783	city	6	1	0.996777	0.996777	0	1	0	0	CorrectCommission	1.381381	1.313609	0
239.204376	0.796126	city	1	1	1.146351	1.146351	0	1	0	0	CorrectCommission	2.184249	1.322119	0
240.000198	0.795513	city	2	0	0.000000	0.826983	0	0	0	1	OmissionError	0.469980	1.327835	0
240.795959	0.796023	city	1	1	0.455652	0.455652	0	1	0	0	CorrectCommission	1.523207	1.330798	0
241.591858	0.795759	city	4	1	0.449340	0.449340	0	1	0	0	CorrectCommission	1.557091	1.331207	0
242.387695	0.795913	city	8	1	0.549165	0.549165	0	1	0	0	CorrectCommission	1.021262	1.329486	0
243.183411	0.795527	city	10	1	0.300414	0.300414	0	1	0	0	CorrectCommission	2.356480	1.326320	0
243.979187	0.796038	city	5	1	0.549014	0.549014	0	1	0	0	CorrectCommission	1.022070	1.322314	0
244.775070	0.795732	city	9	0	0.000000	0.528224	0	0	0	1	OmissionError	1.133666	1.318085	0
245.570862	0.795833	city	1	1	0.505501	0.505501	0	1	0	0	CorrectCommission	1.255636	1.313961	0
246.366562	0.795581	city	2	1	0.748303	0.748303	0	1	0	0	CorrectCommission	0.047650	1.309949	0
247.162354	0.795987	city	4	1	0.300486	0.300486	0	1	0	0	CorrectCommission	2.356091	1.305751	0
247.958237	0.795793	city	2	1	0.946759	0.946759	0	1	0	0	CorrectCommission	1.112901	1.300559	0
248.753952	0.795628	mountain	3	1	0.564645	0.564645	0	0	1	0	CommissionError	0.938170	1.293467	0
249.549652	0.795774	city	4	1	0.499447	0.499447	0	1	0	0	CorrectCommission	1.288132	1.283477	0
250.345581	0.796089	mountain	1	1	0.499592	0.499592	0	0	1	0	CommissionError	1.287355	1.269720	0
251.141510	0.795756	city	3	1	0.305600	0.305600	0	1	0	0	CorrectCommission	2.328643	1.251701	0
251.937271	0.795780	city	1	1	0.947360	0.947360	0	1	0	0	CorrectCommission	1.116125	1.229460	0
252.732971	0.795626	city	5	1	0.997110	0.997110	0	1	0	0	CorrectCommission	1.383170	1.203735	0
253.528824	0.796064	city	4	1	1.150491	1.150491	0	1	0	0	CorrectCommission	2.206472	1.175837	0
254.324738	0.795768	city	7	1	0.847719	0.847719	0	1	0	0	CorrectCommission	0.581283	1.147539	0
255.120544	0.795850	city	4	1	0.847270	0.847270	0	1	0	0	CorrectCommission	0.578873	1.120960	0
255.916367	0.795786	mountain	5	1	0.549000	0.549000	0	0	1	0	CommissionError	1.022145	1.098149	0
256.712097	0.795694	city	3	1	0.996278	0.996278	0	1	0	0	CorrectCommission	1.378702	1.080767	0
257.507751	0.795626	city	10	1	0.698278	0.698278	0	1	0	0	CorrectCommission	0.220870	1.069945	0
258.303589	0.796024	city	7	1	0.605301	0.605301	0	1	0	0	CorrectCommission	0.719939	1.066084	0
259.099518	0.795867	city	8	1	0.664755	0.664755	0	1	0	0	CorrectCommission	0.400809	1.068703	0
259.895325	0.795706	city	3	1	0.598423	0.598423	0	1	0	0	CorrectCommission	0.756857	1.076709	0
260.691132	0.795899	city	1	1	0.548938	0.548938	0	1	0	0	CorrectCommission	1.022480	1.088504	0
261.486938	0.795721	city	6	1	0.498953	0.498953	0	1	0	0	CorrectCommission	1.290782	1.102353	0
262.282684	0.795771	city	10	1	0.399696	0.399696	0	1	0	0	CorrectCommission	1.823563	1.116709	0
263.078522	0.795913	city	3	1	0.350143	0.350143	0	1	0	0	CorrectCommission	2.089550	1.130481	0
263.874237	0.795543	city	4	1	0.998146	0.998146	0	1	0	0	CorrectCommission	1.388728	1.143190	0
264.669983	0.795945	mountain	3	1	0.958784	0.958784	0	0	1	0	CommissionError	1.177445	1.154955	0
265.465912	0.795870	city	3	1	0.997902	0.997902	0	1	0	0	CorrectCommission	1.387423	1.166394	0
266.261627	0.795576	city	10	1	0.910242	0.910242	0	1	0	0	CorrectCommission	0.916890	1.178332	0
267.057404	0.795958	city	1	1	0.900672	0.900672	0	1	0	0	CorrectCommission	0.865519	1.191534	0
267.853210	0.795663	mountain	4	0	0.000000	0.755841	1	0	0	0	CorrectOmission	0.088115	1.206314	0
268.648895	0.795719	city	7	1	0.610346	0.610346	0	1	0	0	CorrectCommission	0.692859	1.222343	0
269.444763	0.796021	city	6	1	0.598780	0.598780	0	1	0	0	CorrectCommission	0.754940	1.238532	0
270.240723	0.795916	city	1	1	0.499509	0.499509	0	1	0	0	CorrectCommission	1.287798	1.253109	0
271.036591	0.795784	city	9	1	0.399453	0.399453	0	1	0	0	CorrectCommission	1.824865	1.263777	0
271.832367	0.795795	city	10	1	0.350358	0.350358	0	1	0	0	CorrectCommission	2.088396	1.268130	0
272.628143	0.795768	city	2	1	0.312207	0.312207	0	1	0	0	CorrectCommission	2.293177	1.263933	0
273.423950	0.795811	mountain	4	1	0.311123	0.311123	0	0	1	0	CommissionError	2.298996	1.249465	0
274.219727	0.795780	city	6	1	0.897303	0.897303	0	1	0	0	CorrectCommission	0.847435	1.223741	0
275.015411	0.795588	city	2	1	0.599086	0.599086	0	1	0	0	CorrectCommission	0.753301	1.186780	0
275.811218	0.795986	city	9	1	0.499806	0.499806	0	1	0	0	CorrectCommission	1.286206	1.139433	0
276.607147	0.795914	mountain	2	0	0.000000	0.666445	1	0	0	0	CorrectOmission	0.391736	1.083391	0
277.402893	0.795529	city	1	1	0.952882	0.952882	0	1	0	0	CorrectCommission	1.145766	1.021046	0
278.198608	0.795950	city	4	1	1.212992	1.212992	0	1	0	0	CorrectCommission	2.541958	0.955203	0
278.994507	0.795845	city	7	1	0.897410	0.897410	0	1	0	0	CorrectCommission	0.848008	0.888849	0
279.790314	0.795744	city	10	1	0.656051	0.656051	0	1	0	0	CorrectCommission	0.447527	0.825010	0
280.585999	0.795632	city	3	1	0.698472	0.698472	0	1	0	0	CorrectCommission	0.219829	0.766338	0
281.381683	0.795740	city	5	1	0.748480	0.748480	0	1	0	0	CorrectCommission	0.048603	0.714943	1
282.177643	0.796159	city	7	1	0.897455	0.897455	0	1	0	0	CorrectCommission	0.848252	0.672205	1
282.973450	0.795445	city	6	1	0.748169	0.748169	0	1	0	0	CorrectCommission	0.046929	0.638586	1
283.769165	0.796035	city	5	1	0.698260	0.698260	0	1	0	0	CorrectCommission	0.220964	0.613735	1
284.565155	0.795937	city	6	1	0.847428	0.847428	0	1	0	0	CorrectCommission	0.579724	0.596448	1
285.360992	0.795750	city	3	1	0.698438	0.698438	0	1	0	0	CorrectCommission	0.220007	0.584881	1
286.156647	0.795533	city	5	1	0.654661	0.654661	0	1	0	0	CorrectCommission	0.454992	0.576773	1
286.952454	0.796100	city	6	1	0.499882	0.499882	0	1	0	0	CorrectCommission	1.285798	0.569709	1
287.748383	0.795722	mountain	6	1	0.607216	0.607216	0	0	1	0	CommissionError	0.709659	0.561449	1
288.544128	0.795805	city	8	0	0.000000	0.595737	0	0	0	1	OmissionError	0.771274	0.550174	1
289.339966	0.795840	city	1	1	0.649247	0.649247	0	1	0	0	CorrectCommission	0.484052	0.534720	1
290.135681	0.795579	city	4	1	0.951547	0.951547	0	1	0	0	CorrectCommission	1.138599	0.514720	1
290.931427	0.795947	city	5	1	0.848181	0.848181	0	1	0	0	CorrectCommission	0.583766	0.490613	1
291.727203	0.795611	city	8	1	0.897344	0.897344	0	1	0	0	CorrectCommission	0.847658	0.463693	1
292.522949	0.795861	city	6	1	0.749692	0.749692	0	1	0	0	CorrectCommission	0.055107	0.435867	1
293.318878	0.795982	city	9	1	0.698280	0.698280	0	1	0	0	CorrectCommission	0.220857	0.409513	1
294.114655	0.795609	city	10	1	0.798064	0.798064	0	1	0	0	CorrectCommission	0.314752	0.387163	1
294.910492	0.796030	city	3	1	0.748616	0.748616	0	1	0	0	CorrectCommission	0.049331	0.371276	1
295.706299	0.795584	city	1	1	0.748027	0.748027	0	1	0	0	CorrectCommission	0.046169	0.363965	1
296.502075	0.796009	city	8	1	0.753274	0.753274	0	1	0	0	CorrectCommission	0.074334	0.366888	1
297.298004	0.795848	city	9	1	0.797582	0.797582	0	1	0	0	CorrectCommission	0.312167	0.381065	1
298.093842	0.795777	city	10	1	0.747999	0.747999	0	1	0	0	CorrectCommission	0.046021	0.406780	1
298.889465	0.795469	city	1	1	0.748212	0.748212	0	1	0	0	CorrectCommission	0.047161	0.443645	1
299.685211	0.796056	city	8	1	0.648929	0.648929	0	1	0	0	CorrectCommission	0.485758	0.490563	1
300.481049	0.795636	city	3	1	0.648395	0.648395	0	1	0	0	CorrectCommission	0.488627	0.545872	1
301.276855	0.795945	city	6	1	0.698412	0.698412	0	1	0	0	CorrectCommission	0.220147	0.607501	1
302.072723	0.795813	city	4	1	0.797827	0.797827	0	1	0	0	CorrectCommission	0.313482	0.673084	1
302.868530	0.795814	city	7	1	0.354836	0.354836	0	1	0	0	CorrectCommission	2.064359	0.740124	1
303.664246	0.795603	city	10	1	0.799306	0.799306	0	1	0	0	CorrectCommission	0.321416	0.806083	0
304.460083	0.796041	city	8	1	0.567290	0.567290	0	1	0	0	CorrectCommission	0.923972	0.868636	0
305.255920	0.795664	city	6	1	0.598822	0.598822	0	1	0	0	CorrectCommission	0.754718	0.925620	0
306.051758	0.796009	city	7	1	0.499754	0.499754	0	1	0	0	CorrectCommission	1.286483	0.975167	0
306.847504	0.795494	city	6	1	0.499379	0.499379	0	1	0	0	CorrectCommission	1.288498	1.015723	0
307.643280	0.796015	city	10	1	0.505722	0.505722	0	1	0	0	CorrectCommission	1.254448	1.046078	0
308.439178	0.795831	mountain	3	1	0.356382	0.356382	0	0	1	0	CommissionError	2.056060	1.065424	0
309.234863	0.795502	mountain	9	1	0.549279	0.549279	0	0	1	0	CommissionError	1.020650	1.073219	0
310.030670	0.796130	city	3	1	0.604994	0.604994	0	1	0	0	CorrectCommission	0.721586	1.069415	0
310.826630	0.795793	city	9	1	0.610000	0.610000	0	1	0	0	CorrectCommission	0.694715	1.054317	0
311.622437	0.795782	city	10	1	0.499393	0.499393	0	1	0	0	CorrectCommission	1.288422	1.028615	0
312.418213	0.795826	city	3	1	0.417037	0.417037	0	1	0	0	CorrectCommission	1.730479	0.993447	0
313.214050	0.795818	city	2	1	0.549296	0.549296	0	1	0	0	CorrectCommission	1.020555	0.950433	0
314.009827	0.795712	city	6	1	0.458888	0.458888	0	1	0	0	CorrectCommission	1.505840	0.901724	0
314.805573	0.795827	city	5	1	0.549071	0.549071	0	1	0	0	CorrectCommission	1.021763	0.849871	0
315.601440	0.795889	city	4	1	0.648660	0.648660	0	1	0	0	CorrectCommission	0.487205	0.797806	0
316.397125	0.795486	mountain	9	1	0.607622	0.607622	0	0	1	0	CommissionError	0.707480	0.748633	1
317.192902	0.796090	city	9	1	0.666606	0.666606	0	1	0	0	CorrectCommission	0.390872	0.705369	1
317.988831	0.795724	city	3	1	0.698314	0.698314	0	1	0	0	CorrectCommission	0.220675	0.670723	1
318.784607	0.795823	city	5	1	0.648671	0.648671	0	1	0	0	CorrectCommission	0.487141	0.646850	1
319.580444	0.795860	city	4	1	0.704776	0.704776	0	1	0	0	CorrectCommission	0.185989	0.635112	1
320.376221	0.795733	city	1	1	0.651711	0.651711	0	1	0	0	CorrectCommission	0.470823	0.635865	1
321.171997	0.795794	city	7	1	0.748284	0.748284	0	1	0	0	CorrectCommission	0.047551	0.648474	1
321.967834	0.795858	city	1	1	0.715319	0.715319	0	1	0	0	CorrectCommission	0.129398	0.671300	1
322.763550	0.795589	city	4	1	0.809079	0.809079	0	1	0	0	CorrectCommission	0.373878	0.701845	1
323.559326	0.795979	city	2	1	0.996800	0.996800	0	1	0	0	CorrectCommission	1.381505	0.736976	1
324.355194	0.795753	city	6	1	0.713894	0.713894	0	1	0	0	CorrectCommission	0.137046	0.773226	0
325.151001	0.795825	city	1	1	0.460630	0.460630	0	1	0	0	CorrectCommission	1.496489	0.807281	0
325.946777	0.795775	city	6	1	0.399531	0.399531	0	1	0	0	CorrectCommission	1.824450	0.836176	0
326.742584	0.795797	city	5	1	0.549264	0.549264	0	1	0	0	CorrectCommission	1.020730	0.857713	0
327.538422	0.795878	city	8	1	0.556723	0.556723	0	1	0	0	CorrectCommission	0.980690	0.870737	0
328.334229	0.795754	city	3	1	0.598993	0.598993	0	1	0	0	CorrectCommission	0.753799	0.875180	0
329.129913	0.795608	city	7	1	0.557160	0.557160	0	1	0	0	CorrectCommission	0.978343	0.872030	0
329.925720	0.795993	city	8	1	0.499672	0.499672	0	1	0	0	CorrectCommission	1.286921	0.863218	0
330.721466	0.795550	city	2	1	0.505806	0.505806	0	1	0	0	CorrectCommission	1.253999	0.851362	0
331.517334	0.796142	city	3	1	0.549482	0.549482	0	1	0	0	CorrectCommission	1.019558	0.839448	0
332.313141	0.795517	city	4	1	0.601800	0.601800	0	1	0	0	CorrectCommission	0.738733	0.830386	0
333.108887	0.795972	city	2	1	0.748373	0.748373	0	1	0	0	CorrectCommission	0.048027	0.826644	0
333.904785	0.795813	city	9	1	0.698135	0.698135	0	1	0	0	CorrectCommission	0.221636	0.829891	0
334.700653	0.795920	city	4	1	0.649230	0.649230	0	1	0	0	CorrectCommission	0.484141	0.840716	0
335.496521	0.795779	city	10	1	0.747879	0.747879	0	1	0	0	CorrectCommission	0.045377	0.858526	0
336.292297	0.795816	city	7	1	0.648216	0.648216	0	1	0	0	CorrectCommission	0.489584	0.881623	0
337.088074	0.795703	city	10	1	0.598509	0.598509	0	1	0	0	CorrectCommission	0.756398	0.907399	0
337.883728	0.795643	city	8	1	0.449304	0.449304	0	1	0	0	CorrectCommission	1.557285	0.932680	0
338.679535	0.795952	city	7	1	0.407924	0.407924	0	1	0	0	CorrectCommission	1.779399	0.954158	0
339.475342	0.795640	city	4	1	0.996444	0.996444	0	1	0	0	CorrectCommission	1.379593	0.968803	0
340.270996	0.795720	city	7	1	0.947102	0.947102	0	1	0	0	CorrectCommission	1.114739	0.974258	0
341.066925	0.796142	city	3	1	1.145862	1.145862	0	1	0	0	CorrectCommission	2.181625	0.969035	0
341.862885	0.795728	city	8	1	0.853663	0.853663	0	1	0	0	CorrectCommission	0.613193	0.952669	0
342.658661	0.795858	city	5	1	0.558926	0.558926	0	1	0	0	CorrectCommission	0.968867	0.925764	0
343.454498	0.795821	city	1	1	0.996854	0.996854	0	1	0	0	CorrectCommission	1.381794	0.889703	0
344.250336	0.795826	city	3	1	0.797455	0.797455	0	1	0	0	CorrectCommission	0.311483	0.846547	0
345.045990	0.795511	city	1	1	0.896851	0.896851	0	1	0	0	CorrectCommission	0.845009	0.798826	0
345.841736	0.795987	city	6	0	0.000000	0.681668	0	0	0	1	OmissionError	0.310026	0.749180	1
346.637665	0.795838	city	8	1	0.499483	0.499483	0	1	0	0	CorrectCommission	1.287937	0.700223	1
347.433502	0.795860	city	6	1	0.697873	0.697873	0	1	0	0	CorrectCommission	0.223041	0.654269	1
348.229187	0.795496	city	2	1	0.698419	0.698419	0	1	0	0	CorrectCommission	0.220108	0.613364	1
349.024933	0.796002	mountain	1	1	0.847949	0.847949	0	0	1	0	CommissionError	0.582522	0.579118	1
349.820709	0.795568	city	9	1	0.897367	0.897367	0	1	0	0	CorrectCommission	0.847781	0.552702	1
350.616577	0.796116	city	3	1	0.812398	0.812398	0	1	0	0	CorrectCommission	0.391693	0.534824	1
351.412384	0.795549	city	8	1	0.748076	0.748076	0	1	0	0	CorrectCommission	0.046435	0.525745	1
352.208160	0.795997	mountain	10	1	0.797914	0.797914	0	0	1	0	CommissionError	0.313947	0.525258	1
353.004059	0.795765	city	2	0	0.000000	0.684963	0	0	0	1	OmissionError	0.292341	0.532727	1
353.799835	0.795822	city	3	1	0.605413	0.605413	0	1	0	0	CorrectCommission	0.719336	0.547078	1
354.595673	0.795819	city	9	1	0.755458	0.755458	0	1	0	0	CorrectCommission	0.086056	0.566873	1
355.391388	0.795623	city	8	1	0.766956	0.766956	0	1	0	0	CorrectCommission	0.147774	0.590431	1
356.187164	0.795946	city	7	1	0.599265	0.599265	0	1	0	0	CorrectCommission	0.752338	0.615914	1
356.982971	0.795646	city	2	1	0.549122	0.549122	0	1	0	0	CorrectCommission	1.021489	0.641525	1
357.778778	0.795980	city	7	1	0.500957	0.500957	0	1	0	0	CorrectCommission	1.280026	0.665641	1
358.574677	0.795799	city	6	1	0.847289	0.847289	0	1	0	0	CorrectCommission	0.578979	0.686909	1
359.370392	0.795649	mountain	3	1	0.648702	0.648702	0	0	1	0	CommissionError	0.486976	0.704470	1
360.166199	0.795980	city	2	0	0.000000	0.531047	0	0	0	1	OmissionError	1.118510	0.717900	1
360.962067	0.795762	city	1	1	0.499112	0.499112	0	1	0	0	CorrectCommission	1.289928	0.727175	1
361.757874	0.795844	city	9	1	0.557683	0.557683	0	1	0	0	CorrectCommission	0.975537	0.732696	1
362.553741	0.795854	city	4	1	0.698488	0.698488	0	1	0	0	CorrectCommission	0.219741	0.735074	1
363.349579	0.795821	mountain	8	0	0.000000	0.768354	1	0	0	0	CorrectOmission	0.155278	0.735034	1
364.145325	0.795689	city	4	1	0.847096	0.847096	0	1	0	0	CorrectCommission	0.577941	0.733173	1
364.941071	0.795834	city	8	1	1.014529	1.014529	0	1	0	0	CorrectCommission	1.476669	0.729897	1
365.736877	0.795765	city	10	1	0.850666	0.850666	0	1	0	0	CorrectCommission	0.597104	0.725316	1
366.532654	0.795778	city	8	1	0.797420	0.797420	0	1	0	0	CorrectCommission	0.311294	0.719337	1
367.328522	0.795938	city	5	1	0.848023	0.848023	0	1	0	0	CorrectCommission	0.582917	0.711656	1
368.124329	0.795698	city	4	1	1.015155	1.015155	0	1	0	0	CorrectCommission	1.480026	0.701779	1
368.920105	0.795873	city	2	1	0.848591	0.848591	0	1	0	0	CorrectCommission	0.585965	0.689281	1
369.715973	0.795855	mountain	1	1	0.648579	0.648579	0	0	1	0	CommissionError	0.487636	0.673996	1
370.511810	0.795777	city	5	1	0.798362	0.798362	0	1	0	0	CorrectCommission	0.316353	0.656103	1
371.307434	0.795528	city	1	1	0.863787	0.863787	0	1	0	0	CorrectCommission	0.667532	0.636228	1
372.103180	0.795953	city	6	1	1.096649	1.096649	0	1	0	0	CorrectCommission	1.917465	0.615509	1
372.899139	0.795926	mountain	6	0	0.000000	0.927719	1	0	0	0	CorrectOmission	1.010701	0.595526	1
373.694916	0.795667	city	9	1	0.697971	0.697971	0	1	0	0	CorrectCommission	0.222515	0.578267	1
374.490570	0.795626	city	10	1	0.748379	0.748379	0	1	0	0	CorrectCommission	0.048058	0.565830	1
375.286407	0.796025	mountain	2	0	0.000000	0.741974	1	0	0	0	CorrectOmission	0.013677	0.560160	1
376.082214	0.795607	city	2	1	0.754378	0.754378	0	1	0	0	CorrectCommission	0.080257	0.562829	1
376.877930	0.795808	city	5	1	0.861213	0.861213	0	1	0	0	CorrectCommission	0.653717	0.574817	1
377.673706	0.795786	city	2	1	0.805572	0.805572	0	1	0	0	CorrectCommission	0.355053	0.596367	1
378.469666	0.796108	city	9	1	0.713066	0.713066	0	1	0	0	CorrectCommission	0.141490	0.626966	1
379.265472	0.795528	city	8	1	0.797891	0.797891	0	1	0	0	CorrectCommission	0.313824	0.665515	1
380.061279	0.796069	city	10	1	0.798031	0.798031	0	1	0	0	CorrectCommission	0.314575	0.710461	1
380.857056	0.795485	city	2	1	0.797742	0.797742	0	1	0	0	CorrectCommission	0.313021	0.760063	0
381.652832	0.796082	city	9	1	1.007908	1.007908	0	1	0	0	CorrectCommission	1.441127	0.812654	0
382.448761	0.795743	city	4	1	1.295214	1.295214	0	1	0	0	CorrectCommission	2.983299	0.866813	0
383.244385	0.795529	city	5	1	0.797608	0.797608	0	1	0	0	CorrectCommission	0.312307	0.921489	0
384.040192	0.796044	city	3	1	0.915537	0.915537	0	1	0	0	CorrectCommission	0.945313	0.976207	0
384.836029	0.795651	city	10	1	0.953687	0.953687	0	1	0	0	CorrectCommission	1.150086	1.030673	0
385.631836	0.795953	city	3	1	0.965016	0.965016	0	1	0	0	CorrectCommission	1.210900	1.084717	0
386.427704	0.795814	city	8	1	0.816156	0.816156	0	1	0	0	CorrectCommission	0.411867	1.138044	0
387.223511	0.795813	city	6	1	0.698215	0.698215	0	1	0	0	CorrectCommission	0.221204	1.190052	0
388.019348	0.795836	city	9	1	0.648387	0.648387	0	1	0	0	CorrectCommission	0.488666	1.239612	0
388.815186	0.795808	city	10	1	0.455368	0.455368	0	1	0	0	CorrectCommission	1.524734	1.285067	0
389.610931	0.795737	city	2	1	0.399811	0.399811	0	1	0	0	CorrectCommission	1.822947	1.324286	0
390.406647	0.795666	city	8	1	0.318084	0.318084	0	1	0	0	CorrectCommission	2.261633	1.354955	0
391.202362	0.795757	city	9	1	0.314881	0.314881	0	1	0	0	CorrectCommission	2.278826	1.374810	0
391.998260	0.796061	city	5	1	0.350128	0.350128	0	1	0	0	CorrectCommission	2.089631	1.381913	0
392.794189	0.795809	mountain	10	1	0.350480	0.350480	0	0	1	0	CommissionError	2.087740	1.374866	0
393.589874	0.795558	city	6	1	0.759361	0.759361	0	1	0	0	CorrectCommission	0.107005	1.353031	0
394.385681	0.796059	city	9	1	1.004214	1.004214	0	1	0	0	CorrectCommission	1.421303	1.316665	0
395.181610	0.795753	city	3	1	0.996332	0.996332	0	1	0	0	CorrectCommission	1.378992	1.266821	0
395.977264	0.795605	city	5	1	0.963043	0.963043	0	1	0	0	CorrectCommission	1.200307	1.205446	0
396.772949	0.795750	city	10	1	1.046862	1.046862	0	1	0	0	CorrectCommission	1.650221	1.135368	0
397.568848	0.796032	city	3	1	1.196152	1.196152	0	1	0	0	CorrectCommission	2.451567	1.060086	0
398.364685	0.795625	city	5	0	0.000000	0.930661	0	0	0	1	OmissionError	1.026493	0.983699	0
399.160461	0.795937	city	1	1	0.648583	0.648583	0	1	0	0	CorrectCommission	0.487616	0.910642	0
399.956238	0.795629	city	7	1	0.748111	0.748111	0	1	0	0	CorrectCommission	0.046622	0.845318	0
400.752045	0.795998	city	6	1	0.855138	0.855138	0	1	0	0	CorrectCommission	0.621107	0.791869	0
401.547852	0.795607	city	1	1	0.748132	0.748132	0	1	0	0	CorrectCommission	0.046734	0.753730	1
402.343658	0.796001	city	2	1	0.815064	0.815064	0	1	0	0	CorrectCommission	0.406005	0.733373	1
403.139587	0.795831	city	3	1	0.748207	0.748207	0	1	0	0	CorrectCommission	0.047136	0.731982	1
403.935364	0.795775	city	9	1	0.698577	0.698577	0	1	0	0	CorrectCommission	0.219264	0.749440	1
404.731171	0.795800	city	5	1	0.648969	0.648969	0	1	0	0	CorrectCommission	0.485545	0.784200	0
405.527008	0.795915	city	2	1	0.648820	0.648820	0	1	0	0	CorrectCommission	0.486341	0.833477	0
406.322815	0.795665	city	9	1	0.648702	0.648702	0	1	0	0	CorrectCommission	0.486979	0.893441	0
407.118561	0.795820	city	3	1	0.598845	0.598845	0	1	0	0	CorrectCommission	0.754594	0.959588	0
407.914368	0.795813	mountain	6	1	0.616898	0.616898	0	0	1	0	CommissionError	0.657691	1.027133	0
408.710205	0.795847	city	6	1	1.145962	1.145962	0	1	0	0	CorrectCommission	2.182162	1.091454	0
409.505890	0.795553	city	10	1	1.195752	1.195752	0	1	0	0	CorrectCommission	2.449419	1.148446	0
410.301697	0.796045	city	6	1	1.196191	1.196191	0	1	0	0	CorrectCommission	2.451775	1.194884	0
411.097656	0.795843	city	4	0	0.000000	0.797759	0	0	0	1	OmissionError	0.313113	1.228630	0
411.893433	0.795760	city	5	1	0.449234	0.449234	0	1	0	0	CorrectCommission	1.557658	1.248664	0
412.689240	0.795838	mountain	3	1	0.599398	0.599398	0	0	1	0	CommissionError	0.751626	1.254867	0
413.485077	0.795802	city	7	1	1.145963	1.145963	0	1	0	0	CorrectCommission	2.182166	1.248030	0
414.280823	0.795693	city	3	0	0.000000	0.878766	0	0	0	1	OmissionError	0.747936	1.229469	0
415.076569	0.795820	city	2	1	0.451168	0.451168	0	1	0	0	CorrectCommission	1.547280	1.200969	0
415.872375	0.795799	mountain	6	1	0.516529	0.516529	0	0	1	0	CommissionError	1.196442	1.164422	0
416.668243	0.795902	city	7	1	1.096105	1.096105	0	1	0	0	CorrectCommission	1.914545	1.121758	0
417.464081	0.795794	mountain	3	0	0.000000	0.965334	1	0	0	0	CorrectOmission	1.212605	1.074735	0
418.259888	0.795829	city	5	1	0.705344	0.705344	0	1	0	0	CorrectCommission	0.182937	1.024938	0
419.055695	0.795772	city	10	1	0.897267	0.897267	0	1	0	0	CorrectCommission	0.847244	0.973735	0
419.851471	0.795790	city	6	1	0.712114	0.712114	0	1	0	0	CorrectCommission	0.146603	0.922219	0
420.647156	0.795550	city	4	1	0.503871	0.503871	0	1	0	0	CorrectCommission	1.264384	0.871395	0
421.442963	0.796063	city	10	1	0.505665	0.505665	0	1	0	0	CorrectCommission	1.254753	0.822149	0
422.238770	0.795559	city	3	1	0.498965	0.498965	0	1	0	0	CorrectCommission	1.290720	0.775441	0
423.034546	0.796017	city	2	1	0.564328	0.564328	0	1	0	0	CorrectCommission	0.939869	0.732334	1
423.830322	0.795561	city	1	1	0.698484	0.698484	0	1	0	0	CorrectCommission	0.219761	0.694019	1
424.626129	0.796013	mountain	8	0	0.000000	0.676798	1	0	0	0	CorrectOmission	0.336165	0.661743	1
425.422028	0.795808	city	8	1	0.648204	0.648204	0	1	0	0	CorrectCommission	0.489651	0.636702	1
426.217865	0.795845	city	4	1	0.761635	0.761635	0	1	0	0	CorrectCommission	0.119213	0.619877	1
427.013672	0.795776	city	10	1	0.798010	0.798010	0	1	0	0	CorrectCommission	0.314462	0.611922	1
427.809326	0.795554	city	5	1	0.897055	0.897055	0	1	0	0	CorrectCommission	0.846104	0.612942	1
428.605103	0.795991	city	10	1	0.847979	0.847979	0	1	0	0	CorrectCommission	0.582679	0.622490	1
429.400909	0.795609	mountain	1	1	0.798058	0.798058	0	0	1	0	CommissionError	0.314718	0.639464	1
430.196625	0.795837	city	6	1	0.847707	0.847707	0	1	0	0	CorrectCommission	0.581223	0.662185	1
430.992523	0.795923	city	10	1	0.797864	0.797864	0	1	0	0	CorrectCommission	0.313677	0.688391	1
431.788269	0.795598	city	3	1	0.698084	0.698084	0	1	0	0	CorrectCommission	0.221911	0.715555	1
432.584076	0.796029	city	4	1	0.648491	0.648491	0	1	0	0	CorrectCommission	0.488109	0.741000	1
433.379944	0.795665	city	9	1	0.500957	0.500957	0	1	0	0	CorrectCommission	1.280026	0.762204	0
434.175781	0.796032	city	6	1	0.449847	0.449847	0	1	0	0	CorrectCommission	1.554369	0.777006	0
434.971710	0.795823	city	7	1	0.408603	0.408603	0	1	0	0	CorrectCommission	1.775752	0.783889	0
435.767395	0.795526	city	4	1	1.015134	1.015134	0	1	0	0	CorrectCommission	1.479915	0.782089	0
436.563141	0.795983	city	10	1	0.897649	0.897649	0	1	0	0	CorrectCommission	0.849291	0.771577	0
437.359009	0.795760	city	9	1	0.847240	0.847240	0	1	0	0	CorrectCommission	0.578712	0.753034	1
438.154846	0.795890	city	10	1	0.797827	0.797827	0	1	0	0	CorrectCommission	0.313480	0.727650	1
438.950562	0.795555	city	6	1	0.797803	0.797803	0	1	0	0	CorrectCommission	0.313353	0.696959	1
439.746246	0.795844	city	2	1	0.748348	0.748348	0	1	0	0	CorrectCommission	0.047893	0.662645	1
440.542175	0.795984	city	4	1	0.648805	0.648805	0	1	0	0	CorrectCommission	0.486425	0.626439	1
441.337921	0.795523	city	7	1	0.499421	0.499421	0	1	0	0	CorrectCommission	1.288271	0.590032	1
442.133636	0.795878	city	6	1	0.996946	0.996946	0	1	0	0	CorrectCommission	1.382289	0.555059	1
442.929321	0.795535	city	8	1	0.847882	0.847882	0	1	0	0	CorrectCommission	0.582162	0.523123	1
443.725098	0.795987	city	4	1	0.759802	0.759802	0	1	0	0	CorrectCommission	0.109374	0.495813	1
444.520996	0.795845	city	5	1	0.754582	0.754582	0	1	0	0	CorrectCommission	0.081356	0.474640	1
445.316925	0.796010	city	6	1	0.698555	0.698555	0	1	0	0	CorrectCommission	0.219382	0.460976	1
446.112854	0.795841	city	3	1	0.747770	0.747770	0	1	0	0	CorrectCommission	0.044788	0.455937	1
446.908661	0.795775	city	1	1	0.648212	0.648212	0	1	0	0	CorrectCommission	0.489606	0.460298	1
447.704468	0.795824	city	10	1	0.698243	0.698243	0	1	0	0	CorrectCommission	0.221056	0.474297	1
448.500275	0.795783	city	4	1	0.802410	0.802410	0	1	0	0	CorrectCommission	0.338080	0.497583	1
449.296051	0.795797	city	5	1	0.797904	0.797904	0	1	0	0	CorrectCommission	0.313893	0.529095	1
450.091888	0.795841	city	10	1	0.847452	0.847452	0	1	0	0	CorrectCommission	0.579851	0.567047	1
450.887665	0.795751	city	7	1	0.814784	0.814784	0	1	0	0	CorrectCommission	0.404499	0.608993	1
451.683472	0.795837	city	3	1	0.748220	0.748220	0	1	0	0	CorrectCommission	0.047203	0.652001	1
452.479309	0.795844	city	6	1	0.698310	0.698310	0	1	0	0	CorrectCommission	0.220695	0.692900	1
453.275024	0.795563	city	10	1	0.996921	0.996921	0	1	0	0	CorrectCommission	1.382157	0.728555	1
454.070801	0.796012	city	1	1	1.046329	1.046329	0	1	0	0	CorrectCommission	1.647364	0.756183	1
454.866730	0.795827	city	2	1	1.004651	1.004651	0	1	0	0	CorrectCommission	1.423647	0.773714	0
455.662415	0.795576	city	7	1	0.951313	0.951313	0	1	0	0	CorrectCommission	1.137344	0.780013	0
456.458221	0.796015	city	2	1	0.916362	0.916362	0	1	0	0	CorrectCommission	0.949742	0.774983	0
457.254089	0.795756	city	4	1	0.997193	0.997193	0	1	0	0	CorrectCommission	1.383614	0.759561	0
458.049866	0.795779	city	1	1	0.947232	0.947232	0	1	0	0	CorrectCommission	1.115441	0.735538	1
458.845673	0.795820	city	5	1	0.809524	0.809524	0	1	0	0	CorrectCommission	0.376267	0.705339	1
459.641510	0.795835	city	8	1	0.756966	0.756966	0	1	0	0	CorrectCommission	0.094151	0.671727	1
460.437286	0.795734	city	1	1	0.599035	0.599035	0	1	0	0	CorrectCommission	0.753572	0.637461	1
461.233093	0.795881	city	9	1	0.748356	0.748356	0	1	0	0	CorrectCommission	0.047936	0.604960	1
462.028900	0.795763	city	7	1	0.711975	0.711975	0	1	0	0	CorrectCommission	0.147347	0.576161	1
462.824554	0.795532	city	2	1	0.799145	0.799145	0	1	0	0	CorrectCommission	0.320557	0.552326	1
463.620239	0.795856	city	5	1	0.858980	0.858980	0	1	0	0	CorrectCommission	0.641733	0.534053	1
464.416168	0.796004	city	6	1	0.897736	0.897736	0	1	0	0	CorrectCommission	0.849762	0.521320	1
465.211945	0.795541	city	2	1	0.797618	0.797618	0	1	0	0	CorrectCommission	0.312358	0.513647	1
466.007782	0.796113	city	1	1	0.849403	0.849403	0	1	0	0	CorrectCommission	0.590325	0.510278	1
466.803711	0.795721	city	2	1	0.810436	0.810436	0	1	0	0	CorrectCommission	0.381159	0.510272	1
467.599457	0.795819	city	8	1	0.863356	0.863356	0	1	0	0	CorrectCommission	0.665222	0.512663	1
468.395172	0.795603	city	5	1	0.864970	0.864970	0	1	0	0	CorrectCommission	0.673885	0.516558	1
469.190887	0.795803	city	2	1	0.798217	0.798217	0	1	0	0	CorrectCommission	0.315574	0.521217	1
469.986694	0.795806	city	1	1	0.801075	0.801075	0	1	0	0	CorrectCommission	0.330914	0.526074	1
470.782623	0.796070	city	2	1	0.813252	0.813252	0	1	0	0	CorrectCommission	0.396279	0.530685	1
471.578552	0.795805	city	4	1	0.865135	0.865135	0	1	0	0	CorrectCommission	0.674771	0.534732	1
472.374359	0.795798	city	9	1	0.897058	0.897058	0	1	0	0	CorrectCommission	0.846120	0.537996	1
473.170135	0.795735	city	1	1	0.847235	0.847235	0	1	0	0	CorrectCommission	0.578688	0.540326	1
473.965881	0.795774	city	2	1	0.797396	0.797396	0	1	0	0	CorrectCommission	0.311165	0.541612	1
474.761688	0.795842	city	6	1	0.847664	0.847664	0	1	0	0	CorrectCommission	0.580992	0.541732	1
475.557495	0.795767	city	8	1	0.913247	0.913247	0	1	0	0	CorrectCommission	0.933020	0.540511	1
476.353180	0.795576	city	9	1	0.855085	0.855085	0	1	0	0	CorrectCommission	0.620826	0.537703	1
477.148895	0.795879	city	4	1	0.798258	0.798258	0	1	0	0	CorrectCommission	0.315792	0.533010	1
477.944733	0.795818	city	7	1	0.798220	0.798220	0	1	0	0	CorrectCommission	0.315588	0.526035	1
478.740662	0.796029	city	9	1	0.798158	0.798158	0	1	0	0	CorrectCommission	0.315258	0.516327	1
479.536560	0.795729	city	10	1	0.697908	0.697908	0	1	0	0	CorrectCommission	0.222852	0.503394	1
480.332214	0.795620	city	9	1	0.862771	0.862771	0	1	0	0	CorrectCommission	0.662077	0.486783	1
481.128021	0.795975	mountain	6	0	0.000000	0.979375	1	0	0	0	CorrectOmission	1.287972	0.466122	1
481.923828	0.795628	city	9	1	0.955354	0.955354	0	1	0	0	CorrectCommission	1.159038	0.441187	1
482.719635	0.796012	city	3	1	0.698343	0.698343	0	1	0	0	CorrectCommission	0.220518	0.412005	1
483.515442	0.795614	city	7	1	0.698558	0.698558	0	1	0	0	CorrectCommission	0.219365	0.378868	1
484.311127	0.795702	city	4	1	0.702962	0.702962	0	1	0	0	CorrectCommission	0.195727	0.342279	1
485.106995	0.796054	city	7	1	0.762444	0.762444	0	1	0	0	CorrectCommission	0.123553	0.302928	1
485.902832	0.795628	city	6	1	0.709131	0.709131	0	1	0	0	CorrectCommission	0.162611	0.261650	1
486.698669	0.796039	city	9	1	0.698554	0.698554	0	1	0	0	CorrectCommission	0.219384	0.219384	1
