onset	duration	trial_type	image_type	Press	ReactionTime	ReactionTime_Interpolated	CorrectOmission	CorrectCommission	CommissionError	OmissionError	response_type	nonsmoothVarianceTimeCourse	VarianceTimeCourse	In_the_Zone
8.421992	0.795840	city	10	1	1.149058	1.149058	0	1	0	0	CorrectCommission	1.621523	1.621523	0
9.217647	0.795470	city	7	1	0.748982	0.748982	0	1	0	0	CorrectCommission	0.359159	1.463966	0
10.013453	0.796144	city	2	1	1.046950	1.046950	0	1	0	0	CorrectCommission	1.116009	1.310599	0
10.809367	0.795683	city	3	1	0.897042	0.897042	0	1	0	0	CorrectCommission	0.373852	1.165253	0
11.605168	0.795919	city	7	1	0.748183	0.748183	0	1	0	0	CorrectCommission	0.363114	1.031276	0
12.400977	0.795698	mountain	7	1	0.598972	0.598972	0	0	1	0	CommissionError	1.101822	0.911225	0
13.196641	0.795630	city	9	1	0.662232	0.662232	0	1	0	0	CorrectCommission	0.788637	0.806779	1
13.992479	0.796045	city	2	1	0.698855	0.698855	0	1	0	0	CorrectCommission	0.607325	0.718759	1
14.788401	0.795799	city	7	1	0.797701	0.797701	0	1	0	0	CorrectCommission	0.117960	0.647116	1
15.584061	0.795521	city	6	1	0.847553	0.847553	0	1	0	0	CorrectCommission	0.128845	0.590996	1
16.379753	0.795862	city	3	1	0.759175	0.759175	0	1	0	0	CorrectCommission	0.308696	0.548901	1
17.175537	0.795707	city	5	1	0.764247	0.764247	0	1	0	0	CorrectCommission	0.283583	0.518798	1
17.971334	0.795888	city	4	1	0.897383	0.897383	0	1	0	0	CorrectCommission	0.375541	0.498375	1
18.767267	0.795978	city	10	1	0.757161	0.757161	0	1	0	0	CorrectCommission	0.318666	0.485186	1
19.563148	0.795786	mountain	3	0	0.000000	0.674393	1	0	0	0	CorrectOmission	0.728428	0.476867	1
20.358849	0.795612	mountain	7	1	0.659738	0.659738	0	0	1	0	CommissionError	0.800984	0.471290	1
21.154560	0.795811	city	1	0	0.000000	0.723851	0	0	0	1	OmissionError	0.483576	0.466743	1
21.950464	0.795997	city	8	1	0.756701	0.756701	0	1	0	0	CorrectCommission	0.320942	0.461998	1
22.746256	0.795589	city	6	1	0.648257	0.648257	0	1	0	0	CorrectCommission	0.857821	0.456337	1
23.542055	0.796008	city	7	1	0.757043	0.757043	0	1	0	0	CorrectCommission	0.319248	0.449518	1
24.338011	0.795903	city	3	1	0.657244	0.657244	0	1	0	0	CorrectCommission	0.813331	0.441801	1
25.175180	0.878434	city	8	1	0.808532	0.808532	0	1	0	0	CorrectCommission	0.064342	0.433733	1
26.012377	0.795959	city	4	1	0.947174	0.947174	0	1	0	0	CorrectCommission	0.622042	0.426124	1
26.808178	0.795643	city	8	1	0.748290	0.748290	0	1	0	0	CorrectCommission	0.362583	0.419897	1
27.603989	0.795976	city	10	1	0.800244	0.800244	0	1	0	0	CorrectCommission	0.105370	0.415949	1
28.399866	0.795782	city	5	1	0.850624	0.850624	0	1	0	0	CorrectCommission	0.144048	0.415129	1
29.195675	0.795834	mountain	8	0	0.000000	0.764158	1	0	0	0	CorrectOmission	0.284023	0.418170	1
29.991459	0.795736	city	9	1	0.698047	0.698047	0	1	0	0	CorrectCommission	0.611325	0.425667	1
30.787260	0.795867	city	6	1	0.809489	0.809489	0	1	0	0	CorrectCommission	0.059601	0.438155	1
31.582983	0.795578	city	1	1	0.996836	0.996836	0	1	0	0	CorrectCommission	0.867905	0.456180	1
32.378815	0.796084	mountain	4	0	0.000000	0.837072	1	0	0	0	CorrectOmission	0.076954	0.480229	1
33.174591	0.795470	city	3	1	0.697911	0.697911	0	1	0	0	CorrectCommission	0.611996	0.510826	1
33.970379	0.796103	city	4	1	0.947066	0.947066	0	1	0	0	CorrectCommission	0.621510	0.548330	1
34.766300	0.795738	city	5	1	0.698491	0.698491	0	1	0	0	CorrectCommission	0.609125	0.592885	1
35.562088	0.795838	city	6	1	0.748056	0.748056	0	1	0	0	CorrectCommission	0.363744	0.644223	1
36.357883	0.795752	mountain	8	1	0.650308	0.650308	0	0	1	0	CommissionError	0.847667	0.701496	1
37.153717	0.795921	city	7	1	0.797989	0.797989	0	1	0	0	CorrectCommission	0.116537	0.763090	1
37.949562	0.795764	city	10	1	0.898780	0.898780	0	1	0	0	CorrectCommission	0.382457	0.826651	0
38.745213	0.795540	city	2	1	0.707037	0.707037	0	1	0	0	CorrectCommission	0.566819	0.889053	0
39.541027	0.796089	city	3	1	0.703047	0.703047	0	1	0	0	CorrectCommission	0.586570	0.946622	0
40.336823	0.795506	city	8	1	1.095927	1.095927	0	1	0	0	CorrectCommission	1.358481	0.995468	0
41.132629	0.796104	city	5	1	0.614955	0.614955	0	1	0	0	CorrectCommission	1.022691	1.031894	0
41.928555	0.795742	city	8	1	0.350099	0.350099	0	1	0	0	CorrectCommission	2.333931	1.052888	0
42.724293	0.795741	city	7	1	0.400430	0.400430	0	1	0	0	CorrectCommission	2.084751	1.056485	0
43.519981	0.795634	city	3	1	0.362712	0.362712	0	1	0	0	CorrectCommission	2.271486	1.042148	0
44.315842	0.796083	city	8	1	0.415404	0.415404	0	1	0	0	CorrectCommission	2.010619	1.010848	0
45.111774	0.795783	city	1	1	0.648626	0.648626	0	1	0	0	CorrectCommission	0.855996	0.964999	0
45.907543	0.795760	city	8	1	0.710883	0.710883	0	1	0	0	CorrectCommission	0.547774	0.908215	0
46.703209	0.795571	mountain	8	1	0.698344	0.698344	0	0	1	0	CommissionError	0.609856	0.844821	0
47.499035	0.796079	city	4	1	0.847741	0.847741	0	1	0	0	CorrectCommission	0.129774	0.779379	1
48.294930	0.795708	city	1	1	0.748197	0.748197	0	1	0	0	CorrectCommission	0.363043	0.716298	1
49.090588	0.795606	city	7	1	0.847424	0.847424	0	1	0	0	CorrectCommission	0.128203	0.659325	1
49.886318	0.795856	city	10	1	0.765918	0.765918	0	1	0	0	CorrectCommission	0.275311	0.611377	1
50.682236	0.795978	city	9	1	0.897244	0.897244	0	1	0	0	CorrectCommission	0.374850	0.574332	1
51.478165	0.795884	city	6	1	0.747872	0.747872	0	1	0	0	CorrectCommission	0.364654	0.549070	1
52.274014	0.795813	city	9	1	0.748153	0.748153	0	1	0	0	CorrectCommission	0.363260	0.535560	1
53.069790	0.795741	city	6	1	1.016204	1.016204	0	1	0	0	CorrectCommission	0.963796	0.533026	1
53.865593	0.795859	mountain	3	1	0.653806	0.653806	0	0	1	0	CommissionError	0.830348	0.540079	1
54.661350	0.795658	city	2	1	0.861644	0.861644	0	1	0	0	CorrectCommission	0.198604	0.554922	1
55.457085	0.795815	city	5	1	0.916901	0.916901	0	1	0	0	CorrectCommission	0.472170	0.575449	1
56.252815	0.795641	city	10	1	0.759803	0.759803	0	1	0	0	CorrectCommission	0.305584	0.599295	1
57.048500	0.795728	mountain	8	0	0.000000	0.761062	1	0	0	0	CorrectOmission	0.299354	0.623993	1
57.844299	0.795874	city	1	1	0.847797	0.847797	0	1	0	0	CorrectCommission	0.130049	0.647019	1
58.640282	0.796091	city	7	1	0.947128	0.947128	0	1	0	0	CorrectCommission	0.621815	0.665999	1
59.436157	0.795660	city	5	1	0.566612	0.566612	0	1	0	0	CorrectCommission	1.262026	0.678785	1
60.231827	0.795682	city	7	1	0.548755	0.548755	0	1	0	0	CorrectCommission	1.350430	0.683740	1
61.027542	0.795748	mountain	3	0	0.000000	0.513242	1	0	0	0	CorrectOmission	1.526249	0.679917	1
61.823318	0.795799	city	8	1	0.599610	0.599610	0	1	0	0	CorrectCommission	1.098662	0.667136	1
62.619148	0.795858	city	6	1	0.947398	0.947398	0	1	0	0	CorrectCommission	0.623151	0.646130	1
63.415047	0.795942	city	4	1	0.651699	0.651699	0	1	0	0	CorrectCommission	0.840783	0.618460	1
64.210922	0.795815	mountain	1	1	0.698593	0.698593	0	0	1	0	CommissionError	0.608622	0.586338	1
65.006775	0.795881	city	6	1	0.756716	0.756716	0	1	0	0	CorrectCommission	0.320867	0.552442	1
65.802574	0.795723	mountain	6	1	0.852332	0.852332	0	0	1	0	CommissionError	0.152503	0.519584	1
66.598389	0.795907	city	2	0	0.000000	0.840677	0	0	0	1	OmissionError	0.094805	0.490483	1
67.394180	0.795680	city	3	1	0.797330	0.797330	0	1	0	0	CorrectCommission	0.119799	0.467441	1
68.189827	0.795612	city	10	1	0.797866	0.797866	0	1	0	0	CorrectCommission	0.117147	0.452156	1
68.985664	0.796063	city	2	1	0.648915	0.648915	0	1	0	0	CorrectCommission	0.854567	0.445590	1
69.781555	0.795715	city	4	1	0.748111	0.748111	0	1	0	0	CorrectCommission	0.363468	0.447902	1
70.577385	0.795937	city	2	1	0.798000	0.798000	0	1	0	0	CorrectCommission	0.116480	0.458525	1
71.373230	0.795754	city	9	1	0.806641	0.806641	0	1	0	0	CorrectCommission	0.073699	0.476226	1
72.168877	0.795541	city	3	1	0.754710	0.754710	0	1	0	0	CorrectCommission	0.330798	0.499252	1
72.964523	0.795757	city	10	1	0.751632	0.751632	0	1	0	0	CorrectCommission	0.346038	0.525505	1
73.760460	0.796114	city	6	1	0.947680	0.947680	0	1	0	0	CorrectCommission	0.624545	0.552772	1
74.556297	0.795557	city	7	1	0.697920	0.697920	0	1	0	0	CorrectCommission	0.611953	0.578859	1
75.352081	0.796022	city	8	1	0.555564	0.555564	0	1	0	0	CorrectCommission	1.316724	0.601873	1
76.148033	0.795873	mountain	10	1	0.499527	0.499527	0	0	1	0	CommissionError	1.594150	0.620254	1
76.943710	0.795478	city	8	1	0.758571	0.758571	0	1	0	0	CorrectCommission	0.311685	0.632931	1
77.739449	0.796006	mountain	5	0	0.000000	0.783791	1	0	0	0	CorrectOmission	0.186827	0.639417	1
78.535233	0.795566	mountain	10	1	0.698555	0.698555	0	0	1	0	CommissionError	0.608811	0.639718	1
79.331055	0.796075	city	9	0	0.000000	0.626229	0	0	0	1	OmissionError	0.966876	0.634307	1
80.127007	0.795831	city	5	1	0.648521	0.648521	0	1	0	0	CorrectCommission	0.856516	0.624057	1
80.922699	0.795554	mountain	7	1	0.847135	0.847135	0	0	1	0	CommissionError	0.126773	0.610148	1
81.718468	0.795987	city	1	1	1.063561	1.063561	0	1	0	0	CorrectCommission	1.198246	0.593973	1
82.514381	0.795839	city	9	1	0.997043	0.997043	0	1	0	0	CorrectCommission	0.868930	0.576887	1
83.310181	0.795759	city	8	1	0.946801	0.946801	0	1	0	0	CorrectCommission	0.620194	0.560200	1
84.105949	0.795780	city	10	1	0.858712	0.858712	0	1	0	0	CorrectCommission	0.184091	0.544980	1
84.901756	0.795828	city	4	1	0.847645	0.847645	0	1	0	0	CorrectCommission	0.129297	0.531975	1
85.697441	0.795545	city	6	1	0.847315	0.847315	0	1	0	0	CorrectCommission	0.127665	0.521493	1
86.493279	0.796132	city	9	1	0.897187	0.897187	0	1	0	0	CorrectCommission	0.374572	0.513410	1
87.289215	0.795743	city	8	1	0.851011	0.851011	0	1	0	0	CorrectCommission	0.145966	0.507284	1
88.084877	0.795575	city	4	1	0.958186	0.958186	0	1	0	0	CorrectCommission	0.676561	0.502488	1
88.880569	0.795808	city	1	1	1.046871	1.046871	0	1	0	0	CorrectCommission	1.115621	0.498350	1
89.676483	0.796011	city	10	0	0.000000	0.790647	0	0	0	1	OmissionError	0.152884	0.494344	1
90.472366	0.795762	city	3	1	0.555083	0.555083	0	1	0	0	CorrectCommission	1.319105	0.490357	1
91.268204	0.795911	city	2	1	0.705749	0.705749	0	1	0	0	CorrectCommission	0.573192	0.486620	1
92.064064	0.795817	city	7	1	0.915816	0.915816	0	1	0	0	CorrectCommission	0.466795	0.483934	1
92.859871	0.795793	city	10	1	0.802633	0.802633	0	1	0	0	CorrectCommission	0.093543	0.483420	1
93.655624	0.795718	city	3	1	0.947014	0.947014	0	1	0	0	CorrectCommission	0.621249	0.486427	1
94.451447	0.795920	city	1	1	0.913173	0.913173	0	1	0	0	CorrectCommission	0.453713	0.494303	1
95.247253	0.795701	city	6	1	0.814535	0.814535	0	1	0	0	CorrectCommission	0.034620	0.508177	1
96.042892	0.795576	city	7	1	0.847728	0.847728	0	1	0	0	CorrectCommission	0.129711	0.528673	1
96.838692	0.796023	city	3	1	0.702595	0.702595	0	1	0	0	CorrectCommission	0.588808	0.555748	1
97.634605	0.795796	city	4	1	0.797727	0.797727	0	1	0	0	CorrectCommission	0.117832	0.588615	1
98.430389	0.795781	city	2	1	0.847143	0.847143	0	1	0	0	CorrectCommission	0.126816	0.625810	1
99.226112	0.795663	city	7	1	0.906868	0.906868	0	1	0	0	CorrectCommission	0.422498	0.665218	1
100.021927	0.795962	city	8	1	1.097449	1.097449	0	1	0	0	CorrectCommission	1.366017	0.704340	1
100.817802	0.795793	city	7	1	0.997041	0.997041	0	1	0	0	CorrectCommission	0.868921	0.740538	1
101.613487	0.795574	city	8	1	0.965223	0.965223	0	1	0	0	CorrectCommission	0.711397	0.771459	1
102.409294	0.796031	city	4	1	1.146344	1.146344	0	1	0	0	CorrectCommission	1.608086	0.795122	1
103.205223	0.795840	city	6	1	1.153834	1.153834	0	1	0	0	CorrectCommission	1.645166	0.810172	1
104.001083	0.795868	city	7	1	1.096217	1.096217	0	1	0	0	CorrectCommission	1.359920	0.816017	1
104.796898	0.795769	mountain	8	0	0.000000	0.879672	1	0	0	0	CorrectOmission	0.287859	0.812829	1
105.592545	0.795525	city	7	1	0.698788	0.698788	0	1	0	0	CorrectCommission	0.607654	0.801452	1
106.388184	0.795747	city	3	1	0.748154	0.748154	0	1	0	0	CorrectCommission	0.363257	0.783219	1
107.183960	0.795813	city	7	1	0.549610	0.549610	0	1	0	0	CorrectCommission	1.346199	0.759847	1
107.979790	0.795849	city	8	1	0.700300	0.700300	0	1	0	0	CorrectCommission	0.600171	0.733203	1
108.775642	0.795846	city	9	1	0.698613	0.698613	0	1	0	0	CorrectCommission	0.608523	0.705304	1
109.571526	0.795928	city	6	1	0.997037	0.997037	0	1	0	0	CorrectCommission	0.868901	0.678098	1
110.367462	0.795939	city	2	1	1.011879	1.011879	0	1	0	0	CorrectCommission	0.942381	0.653455	1
111.163292	0.795723	city	1	1	0.811121	0.811121	0	1	0	0	CorrectCommission	0.051521	0.633041	1
111.959068	0.795833	city	6	1	0.748220	0.748220	0	1	0	0	CorrectCommission	0.362931	0.618431	1
112.754906	0.795841	city	3	1	0.649142	0.649142	0	1	0	0	CorrectCommission	0.853443	0.610917	1
113.550667	0.795682	city	10	1	0.709519	0.709519	0	1	0	0	CorrectCommission	0.554528	0.611508	1
114.346451	0.795876	city	6	1	0.859454	0.859454	0	1	0	0	CorrectCommission	0.187761	0.620890	1
115.142151	0.795535	city	3	1	0.797570	0.797570	0	1	0	0	CorrectCommission	0.118609	0.639356	1
115.937851	0.795862	city	1	1	0.852610	0.852610	0	1	0	0	CorrectCommission	0.153881	0.666684	1
116.733795	0.796022	city	8	1	1.196039	1.196039	0	1	0	0	CorrectCommission	1.854112	0.702122	1
117.529663	0.795716	city	10	1	0.809284	0.809284	0	1	0	0	CorrectCommission	0.060616	0.744213	1
118.325462	0.795886	city	1	1	0.898700	0.898700	0	1	0	0	CorrectCommission	0.382058	0.791048	1
119.121315	0.795815	mountain	6	0	0.000000	0.971378	1	0	0	0	CorrectOmission	0.741869	0.840137	0
119.917084	0.795718	city	4	1	1.001487	1.001487	0	1	0	0	CorrectCommission	0.890935	0.888533	0
120.712868	0.795860	city	9	1	0.963198	0.963198	0	1	0	0	CorrectCommission	0.701373	0.933086	0
121.508698	0.795790	city	6	1	1.153351	1.153351	0	1	0	0	CorrectCommission	1.642774	0.970667	0
122.304474	0.795770	mountain	7	1	0.956586	0.956586	0	0	1	0	CommissionError	0.668637	0.998440	0
123.100258	0.795798	city	8	1	1.146121	1.146121	0	1	0	0	CorrectCommission	1.606980	1.014170	0
123.896049	0.795782	city	1	1	1.211027	1.211027	0	1	0	0	CorrectCommission	1.928315	1.016393	0
124.691879	0.795883	city	3	1	1.152235	1.152235	0	1	0	0	CorrectCommission	1.637252	1.004593	0
125.487587	0.795525	city	8	1	1.205332	1.205332	0	1	0	0	CorrectCommission	1.900118	0.979309	0
126.283371	0.796047	city	3	0	0.000000	0.846109	0	0	0	1	OmissionError	0.121692	0.942017	0
127.079269	0.795745	city	2	1	0.514058	0.514058	0	1	0	0	CorrectCommission	1.522209	0.895048	0
127.874977	0.795665	city	9	1	0.648671	0.648671	0	1	0	0	CorrectCommission	0.855772	0.841140	0
128.670792	0.795958	city	7	1	0.757191	0.757191	0	1	0	0	CorrectCommission	0.318519	0.783384	1
129.466568	0.795605	city	8	1	0.748254	0.748254	0	1	0	0	CorrectCommission	0.362763	0.724778	1
130.262421	0.796107	city	2	1	0.701663	0.701663	0	1	0	0	CorrectCommission	0.593422	0.667984	1
131.058319	0.795690	city	7	1	0.847611	0.847611	0	1	0	0	CorrectCommission	0.129133	0.615171	1
131.854065	0.795782	city	8	1	0.650060	0.650060	0	1	0	0	CorrectCommission	0.848897	0.567983	1
132.649734	0.795558	city	3	1	0.797618	0.797618	0	1	0	0	CorrectCommission	0.118372	0.527433	1
133.445572	0.796131	city	2	1	0.861495	0.861495	0	1	0	0	CorrectCommission	0.197866	0.494091	1
134.241547	0.795814	mountain	4	1	1.011519	1.011519	0	0	1	0	CommissionError	0.940598	0.468077	1
135.037323	0.795726	mountain	1	0	0.000000	0.886614	1	0	0	0	CorrectOmission	0.322223	0.449286	1
135.833069	0.795788	city	7	1	0.748164	0.748164	0	1	0	0	CorrectCommission	0.363209	0.437545	1
136.628906	0.795879	city	5	1	0.857553	0.857553	0	1	0	0	CorrectCommission	0.178352	0.432630	1
137.424759	0.795838	city	6	1	0.947091	0.947091	0	1	0	0	CorrectCommission	0.621634	0.434258	1
138.220551	0.795740	mountain	9	1	0.802135	0.802135	0	0	1	0	CommissionError	0.096011	0.442184	1
139.016312	0.795760	city	7	1	0.946657	0.946657	0	1	0	0	CorrectCommission	0.619483	0.456110	1
139.811981	0.795586	city	1	1	0.899117	0.899117	0	1	0	0	CorrectCommission	0.384126	0.475656	1
140.607773	0.796015	city	8	1	0.850955	0.850955	0	1	0	0	CorrectCommission	0.145685	0.500304	1
141.403717	0.795857	city	2	1	0.857393	0.857393	0	1	0	0	CorrectCommission	0.177562	0.529376	1
142.199509	0.795731	city	6	1	0.900636	0.900636	0	1	0	0	CorrectCommission	0.391646	0.562107	1
142.995331	0.795923	city	3	1	0.903515	0.903515	0	1	0	0	CorrectCommission	0.405897	0.597631	1
143.791168	0.795737	city	2	1	1.046598	1.046598	0	1	0	0	CorrectCommission	1.114266	0.635170	1
144.586914	0.795748	city	8	1	0.960944	0.960944	0	1	0	0	CorrectCommission	0.690214	0.673962	1
145.382721	0.795895	city	5	1	0.996692	0.996692	0	1	0	0	CorrectCommission	0.867196	0.713420	1
146.178558	0.795760	city	1	1	1.000084	1.000084	0	1	0	0	CorrectCommission	0.883986	0.753089	1
146.974182	0.795504	city	10	1	1.145855	1.145855	0	1	0	0	CorrectCommission	1.605663	0.792538	1
147.770004	0.796137	city	4	0	0.000000	1.012405	0	0	0	1	OmissionError	0.944988	0.831277	0
148.565857	0.795556	city	5	1	0.847182	0.847182	0	1	0	0	CorrectCommission	0.127006	0.868707	0
149.361633	0.796011	city	2	1	0.897630	0.897630	0	1	0	0	CorrectCommission	0.376763	0.903949	0
150.157547	0.795802	mountain	5	1	0.813179	0.813179	0	0	1	0	CommissionError	0.041332	0.935789	0
150.953369	0.795854	city	1	1	1.046728	1.046728	0	1	0	0	CorrectCommission	1.114908	0.962783	0
151.749191	0.795778	city	9	1	1.213853	1.213853	0	1	0	0	CorrectCommission	1.942307	0.983231	0
152.544983	0.795806	city	8	0	0.000000	0.868921	0	0	0	1	OmissionError	0.234631	0.995520	0
153.340759	0.795750	city	5	1	0.451185	0.451185	0	1	0	0	CorrectCommission	1.833477	0.998441	0
154.136520	0.795779	city	10	1	0.399901	0.399901	0	1	0	0	CorrectCommission	2.087371	0.991225	0
154.932312	0.795796	mountain	10	1	0.350064	0.350064	0	0	1	0	CommissionError	2.334101	0.973839	0
155.728149	0.795884	city	2	1	0.549211	0.549211	0	1	0	0	CorrectCommission	1.348176	0.947045	0
156.523956	0.795725	city	1	1	0.847651	0.847651	0	1	0	0	CorrectCommission	0.129331	0.912351	0
157.319763	0.795883	city	4	1	0.897072	0.897072	0	1	0	0	CorrectCommission	0.373998	0.871842	0
158.115555	0.795708	city	3	1	0.847614	0.847614	0	1	0	0	CorrectCommission	0.129145	0.827899	0
158.911316	0.795823	city	9	1	0.909541	0.909541	0	1	0	0	CorrectCommission	0.435729	0.783014	1
159.707047	0.795641	city	4	1	0.996917	0.996917	0	1	0	0	CorrectCommission	0.868309	0.739508	1
160.502838	0.795937	city	5	1	0.996739	0.996739	0	1	0	0	CorrectCommission	0.867427	0.699359	1
161.298630	0.795625	city	7	1	1.145990	1.145990	0	1	0	0	CorrectCommission	1.606331	0.664097	1
162.094330	0.795787	city	10	1	0.847812	0.847812	0	1	0	0	CorrectCommission	0.130127	0.634728	1
162.890152	0.795850	city	4	1	0.762055	0.762055	0	1	0	0	CorrectCommission	0.294438	0.611804	1
163.685974	0.795800	city	10	1	0.813674	0.813674	0	1	0	0	CorrectCommission	0.038882	0.595364	1
164.481873	0.795994	city	2	1	0.748657	0.748657	0	1	0	0	CorrectCommission	0.360766	0.584982	1
165.277756	0.795788	city	10	1	0.904888	0.904888	0	1	0	0	CorrectCommission	0.412694	0.579985	1
166.073563	0.795826	city	1	1	1.057165	1.057165	0	1	0	0	CorrectCommission	1.166583	0.579570	1
166.869232	0.795510	city	5	1	0.847560	0.847560	0	1	0	0	CorrectCommission	0.128879	0.582903	1
167.664917	0.795845	city	10	1	0.797839	0.797839	0	1	0	0	CorrectCommission	0.117280	0.589362	1
168.460739	0.795812	city	6	1	0.996653	0.996653	0	1	0	0	CorrectCommission	0.867001	0.598551	1
169.256653	0.796021	city	2	1	1.096671	1.096671	0	1	0	0	CorrectCommission	1.362166	0.610427	1
170.052460	0.795597	city	6	1	1.000624	1.000624	0	1	0	0	CorrectCommission	0.886660	0.625355	1
170.848297	0.796066	city	4	1	0.947285	0.947285	0	1	0	0	CorrectCommission	0.622592	0.644010	1
171.644104	0.795536	city	7	1	0.896888	0.896888	0	1	0	0	CorrectCommission	0.373091	0.667203	1
172.439896	0.796070	mountain	1	0	0.000000	0.882950	1	0	0	0	CorrectOmission	0.304087	0.695692	1
173.235687	0.795510	city	4	1	0.903144	0.903144	0	1	0	0	CorrectCommission	0.404060	0.729924	1
174.031357	0.795827	mountain	2	0	0.000000	0.955142	1	0	0	0	CorrectOmission	0.661492	0.769893	1
174.827255	0.795958	city	3	1	0.962522	0.962522	0	1	0	0	CorrectCommission	0.698025	0.814825	1
175.623016	0.795574	city	7	1	0.848857	0.848857	0	1	0	0	CorrectCommission	0.135301	0.863236	0
176.418854	0.796087	mountain	7	1	0.947214	0.947214	0	0	1	0	CommissionError	0.622242	0.912968	0
177.214767	0.795759	city	1	1	1.061807	1.061807	0	1	0	0	CorrectCommission	1.189565	0.961284	0
178.010559	0.795826	city	9	1	1.096430	1.096430	0	1	0	0	CorrectCommission	1.360973	1.005233	0
178.806274	0.795600	city	10	1	1.200220	1.200220	0	1	0	0	CorrectCommission	1.874810	1.041998	0
179.602066	0.795966	city	5	0	0.000000	0.858257	0	0	0	1	OmissionError	0.181836	1.069284	0
180.397842	0.795583	city	2	1	0.449649	0.449649	0	1	0	0	CorrectCommission	1.841081	1.085703	0
181.193558	0.795860	city	9	1	0.353504	0.353504	0	1	0	0	CorrectCommission	2.317072	1.090803	0
181.989471	0.795979	city	3	1	0.360457	0.360457	0	1	0	0	CorrectCommission	2.282649	1.085283	0
182.785355	0.795783	city	1	1	1.046738	1.046738	0	1	0	0	CorrectCommission	1.114962	1.070879	0
183.581192	0.795888	city	4	0	0.000000	0.879117	0	0	0	1	OmissionError	0.285107	1.050097	0
184.377045	0.795815	city	9	1	0.549076	0.549076	0	1	0	0	CorrectCommission	1.348845	1.025848	0
185.172714	0.795514	city	7	1	0.748100	0.748100	0	1	0	0	CorrectCommission	0.363526	1.001017	0
185.968338	0.795757	city	10	1	0.906202	0.906202	0	1	0	0	CorrectCommission	0.419198	0.978188	0
186.764160	0.795885	city	6	1	0.848032	0.848032	0	1	0	0	CorrectCommission	0.131215	0.959298	0
187.560074	0.795930	city	3	1	0.946767	0.946767	0	1	0	0	CorrectCommission	0.620029	0.945591	0
188.355972	0.795878	city	8	1	0.898597	0.898597	0	1	0	0	CorrectCommission	0.381551	0.937608	0
189.151810	0.795773	city	6	1	1.245332	1.245332	0	1	0	0	CorrectCommission	2.098151	0.935380	0
189.947632	0.795892	mountain	6	0	0.000000	0.948952	1	0	0	0	CorrectOmission	0.630845	0.938597	0
190.743454	0.795733	city	10	1	0.515202	0.515202	0	1	0	0	CorrectCommission	1.516543	0.947011	0
191.539261	0.795883	city	9	1	0.449830	0.449830	0	1	0	0	CorrectCommission	1.840186	0.960368	0
192.334961	0.795518	city	6	1	0.614566	0.614566	0	1	0	0	CorrectCommission	1.024620	0.978602	0
193.130600	0.795768	city	3	1	0.748373	0.748373	0	1	0	0	CorrectCommission	0.362173	1.001786	0
193.926392	0.795804	city	9	1	0.959899	0.959899	0	1	0	0	CorrectCommission	0.685042	1.029904	0
194.722198	0.795823	city	5	1	0.760929	0.760929	0	1	0	0	CorrectCommission	0.300011	1.062585	0
195.518127	0.796019	city	7	1	0.698232	0.698232	0	1	0	0	CorrectCommission	0.610409	1.098993	0
196.314011	0.795753	mountain	10	1	0.656685	0.656685	0	0	1	0	CommissionError	0.816095	1.137607	0
197.109711	0.795654	city	6	0	0.000000	0.577174	0	0	0	1	OmissionError	1.209736	1.176332	0
197.905426	0.795772	mountain	3	0	0.000000	0.508526	1	0	0	0	CorrectOmission	1.549597	1.212587	0
198.701309	0.795992	city	2	1	0.499568	0.499568	0	1	0	0	CorrectCommission	1.593945	1.243610	0
199.497208	0.795825	city	4	1	0.599129	0.599129	0	1	0	0	CorrectCommission	1.101045	1.266748	0
200.293030	0.795807	city	5	1	0.399755	0.399755	0	1	0	0	CorrectCommission	2.088093	1.279979	0
201.088806	0.795741	mountain	8	1	0.449743	0.449743	0	0	1	0	CommissionError	1.840617	1.282055	0
201.884567	0.795795	city	2	1	0.399761	0.399761	0	1	0	0	CorrectCommission	2.088063	1.272809	0
202.680405	0.795879	city	6	1	0.449407	0.449407	0	1	0	0	CorrectCommission	1.842280	1.253175	0
203.476120	0.795558	city	7	1	0.502280	0.502280	0	1	0	0	CorrectCommission	1.580521	1.225072	0
204.271957	0.796106	city	10	1	0.698335	0.698335	0	1	0	0	CorrectCommission	0.609900	1.191161	0
205.067917	0.795805	city	3	1	0.996449	0.996449	0	1	0	0	CorrectCommission	0.865990	1.154467	0
205.863663	0.795699	city	6	1	1.012288	1.012288	0	1	0	0	CorrectCommission	0.944404	1.117950	0
206.659454	0.795865	city	8	1	0.797792	0.797792	0	1	0	0	CorrectCommission	0.117509	1.084055	0
207.455154	0.795545	city	2	1	0.715718	0.715718	0	1	0	0	CorrectCommission	0.523840	1.054626	0
208.250824	0.795789	city	6	1	0.658143	0.658143	0	1	0	0	CorrectCommission	0.808878	1.030535	0
209.046753	0.796091	city	10	1	1.096387	1.096387	0	1	0	0	CorrectCommission	1.360760	1.011739	0
209.842682	0.795738	city	7	1	1.096146	1.096146	0	1	0	0	CorrectCommission	1.359568	0.997435	0
210.638412	0.795749	city	6	1	1.110427	1.110427	0	1	0	0	CorrectCommission	1.430269	0.986269	0
211.434204	0.795821	city	2	1	0.997955	0.997955	0	1	0	0	CorrectCommission	0.873448	0.976595	0
212.229919	0.795624	city	10	1	0.853968	0.853968	0	1	0	0	CorrectCommission	0.160604	0.966746	0
213.025635	0.795782	city	5	1	1.046569	1.046569	0	1	0	0	CorrectCommission	1.114124	0.955255	0
213.821564	0.796081	city	1	1	1.216229	1.216229	0	1	0	0	CorrectCommission	1.954067	0.941023	0
214.617371	0.795552	city	4	0	0.000000	0.827449	0	0	0	1	OmissionError	0.029314	0.923501	0
215.413162	0.796014	city	8	1	0.449972	0.449972	0	1	0	0	CorrectCommission	1.839484	0.902819	0
216.209045	0.795760	mountain	1	1	0.653538	0.653538	0	0	1	0	CommissionError	0.831676	0.879542	0
217.004745	0.795646	city	2	1	0.565601	0.565601	0	1	0	0	CorrectCommission	1.267031	0.854891	0
217.800598	0.796056	mountain	3	1	0.648677	0.648677	0	0	1	0	CommissionError	0.855743	0.830346	0
218.596527	0.795807	city	3	1	0.766120	0.766120	0	1	0	0	CorrectCommission	0.274311	0.807580	1
219.392273	0.795689	city	5	1	0.747875	0.747875	0	1	0	0	CorrectCommission	0.364637	0.788242	1
220.187943	0.795623	city	8	1	0.697979	0.697979	0	1	0	0	CorrectCommission	0.611662	0.773809	1
220.983795	0.796094	city	2	1	0.996970	0.996970	0	1	0	0	CorrectCommission	0.868568	0.765376	1
221.779709	0.795744	city	3	0	0.000000	0.814502	0	0	0	1	OmissionError	0.034783	0.763672	1
222.575500	0.795817	city	9	1	0.563667	0.563667	0	1	0	0	CorrectCommission	1.276604	0.768938	1
223.371170	0.795549	city	4	1	0.657556	0.657556	0	1	0	0	CorrectCommission	0.811784	0.780831	1
224.166946	0.795998	mountain	7	1	0.848028	0.848028	0	0	1	0	CommissionError	0.131193	0.798623	1
224.962769	0.795645	city	9	1	0.948236	0.948236	0	1	0	0	CorrectCommission	0.627301	0.821150	1
225.758606	0.796010	city	6	0	0.000000	0.695715	0	0	0	1	OmissionError	0.622870	0.846852	0
226.554489	0.795771	city	7	1	0.449226	0.449226	0	1	0	0	CorrectCommission	1.843174	0.873917	0
227.350281	0.795825	city	2	1	0.567533	0.567533	0	1	0	0	CorrectCommission	1.257465	0.900300	0
228.146103	0.795805	city	3	1	0.748034	0.748034	0	1	0	0	CorrectCommission	0.363853	0.923960	0
228.941925	0.795830	city	2	1	0.946650	0.946650	0	1	0	0	CorrectCommission	0.619446	0.942909	0
229.737717	0.795775	city	9	1	1.046523	1.046523	0	1	0	0	CorrectCommission	1.113894	0.955304	0
230.533493	0.795754	city	2	1	0.996328	0.996328	0	1	0	0	CorrectCommission	0.865395	0.959604	0
231.329254	0.795778	mountain	1	0	0.000000	0.662485	1	0	0	0	CorrectOmission	0.787381	0.954718	0
232.125076	0.795886	city	2	1	0.358910	0.358910	0	1	0	0	CorrectCommission	2.290310	0.940185	0
232.920898	0.795736	city	8	1	0.399519	0.399519	0	1	0	0	CorrectCommission	2.089266	0.916083	0
233.716690	0.795845	city	2	1	0.648733	0.648733	0	1	0	0	CorrectCommission	0.855466	0.883284	0
234.512527	0.795853	city	5	1	0.798710	0.798710	0	1	0	0	CorrectCommission	0.112966	0.843346	0
235.308212	0.795504	city	6	1	1.064478	1.064478	0	1	0	0	CorrectCommission	1.202784	0.798363	1
236.103973	0.796008	city	9	0	0.000000	0.801870	0	0	0	1	OmissionError	0.097324	0.750736	1
236.899872	0.795789	city	5	1	0.562390	0.562390	0	1	0	0	CorrectCommission	1.282930	0.703103	1
237.695724	0.795918	city	8	1	0.897542	0.897542	0	1	0	0	CorrectCommission	0.376325	0.658010	1
238.491425	0.795488	city	7	1	0.847836	0.847836	0	1	0	0	CorrectCommission	0.130247	0.617876	1
239.287231	0.796121	city	5	1	0.897487	0.897487	0	1	0	0	CorrectCommission	0.376057	0.584781	1
240.083008	0.795437	city	1	1	0.748974	0.748974	0	1	0	0	CorrectCommission	0.359198	0.560302	1
240.878799	0.796148	city	7	1	0.747999	0.747999	0	1	0	0	CorrectCommission	0.364023	0.545528	1
241.674774	0.795785	city	3	1	0.704129	0.704129	0	1	0	0	CorrectCommission	0.581213	0.541103	1
242.470535	0.795738	city	1	1	0.798161	0.798161	0	1	0	0	CorrectCommission	0.115684	0.547195	1
243.266296	0.795785	city	7	1	0.948993	0.948993	0	1	0	0	CorrectCommission	0.631050	0.563611	1
244.061996	0.795631	city	1	1	0.947141	0.947141	0	1	0	0	CorrectCommission	0.621880	0.589699	1
244.857849	0.796065	city	7	1	0.847692	0.847692	0	1	0	0	CorrectCommission	0.129534	0.624553	1
245.653641	0.795531	city	5	1	0.959171	0.959171	0	1	0	0	CorrectCommission	0.681436	0.666988	1
246.449387	0.795961	mountain	3	0	0.000000	0.987878	1	0	0	0	CorrectOmission	0.823557	0.715471	1
247.245209	0.795663	city	4	1	0.947398	0.947398	0	1	0	0	CorrectCommission	0.623154	0.768229	1
248.041016	0.795972	city	1	1	0.851318	0.851318	0	1	0	0	CorrectCommission	0.147483	0.823289	0
248.836823	0.795645	mountain	1	0	0.000000	0.667865	1	0	0	0	CorrectOmission	0.760748	0.878554	0
249.632614	0.795934	city	7	1	0.499736	0.499736	0	1	0	0	CorrectCommission	1.593112	0.931782	0
250.428543	0.795926	city	9	1	0.449628	0.449628	0	1	0	0	CorrectCommission	1.841186	0.980774	0
251.224365	0.795710	city	3	1	0.648315	0.648315	0	1	0	0	CorrectCommission	0.857534	1.023572	0
252.020035	0.795615	city	5	1	0.806608	0.806608	0	1	0	0	CorrectCommission	0.073864	1.058542	0
252.815826	0.795990	mountain	4	0	0.000000	0.607838	1	0	0	0	CorrectOmission	1.057928	1.084452	0
253.611710	0.795754	city	7	1	0.350256	0.350256	0	1	0	0	CorrectCommission	2.333154	1.100579	0
254.407471	0.795790	mountain	4	0	0.000000	0.332114	1	0	0	0	CorrectOmission	2.422969	1.106753	0
255.203308	0.795869	city	7	1	0.499363	0.499363	0	1	0	0	CorrectCommission	1.594960	1.103408	0
255.999023	0.795573	city	1	1	0.797954	0.797954	0	1	0	0	CorrectCommission	0.116711	1.091518	0
256.794739	0.795849	city	8	1	0.711767	0.711767	0	1	0	0	CorrectCommission	0.543398	1.072447	0
257.590546	0.795754	mountain	5	1	1.006275	1.006275	0	0	1	0	CommissionError	0.914636	1.047765	0
258.386414	0.796027	city	1	0	0.000000	1.108374	0	0	0	1	OmissionError	1.420104	1.019104	0
259.182373	0.795880	mountain	10	1	0.946695	0.946695	0	0	1	0	CommissionError	0.619673	0.988057	0
259.978088	0.795505	city	3	1	0.449870	0.449870	0	1	0	0	CorrectCommission	1.839989	0.956096	0
260.773834	0.796040	mountain	4	0	0.000000	0.551227	1	0	0	0	CorrectOmission	1.338196	0.924366	0
261.569641	0.795557	city	9	1	0.798636	0.798636	0	1	0	0	CorrectCommission	0.113332	0.893751	0
262.365448	0.796073	mountain	5	0	0.000000	0.739969	1	0	0	0	CorrectOmission	0.403781	0.864871	0
263.161346	0.795716	city	10	1	0.698295	0.698295	0	1	0	0	CorrectCommission	0.610096	0.837977	0
263.957153	0.795867	city	7	1	0.996687	0.996687	0	1	0	0	CorrectCommission	0.867172	0.813057	1
264.752869	0.795602	city	8	1	0.956053	0.956053	0	1	0	0	CorrectCommission	0.666002	0.789900	1
265.548553	0.795754	city	1	0	0.000000	0.650298	0	0	0	1	OmissionError	0.847716	0.768214	1
266.344482	0.796099	city	5	1	0.459113	0.459113	0	1	0	0	CorrectCommission	1.794226	0.747660	1
267.140411	0.795740	city	9	1	0.762189	0.762189	0	1	0	0	CorrectCommission	0.293772	0.727834	1
267.936157	0.795751	city	6	1	0.897734	0.897734	0	1	0	0	CorrectCommission	0.377279	0.708544	1
268.731812	0.795563	city	5	0	0.000000	0.712959	0	0	0	1	OmissionError	0.537497	0.689656	1
269.527527	0.795870	city	1	1	0.549301	0.549301	0	1	0	0	CorrectCommission	1.347730	0.671168	1
270.323517	0.796100	city	6	1	0.748197	0.748197	0	1	0	0	CorrectCommission	0.363046	0.653209	1
271.119415	0.795731	city	2	1	0.748073	0.748073	0	1	0	0	CorrectCommission	0.363657	0.636050	1
271.915070	0.795567	city	6	1	0.797928	0.797928	0	1	0	0	CorrectCommission	0.116836	0.620041	1
272.710754	0.795799	city	9	1	1.048245	1.048245	0	1	0	0	CorrectCommission	1.122421	0.605647	1
273.506683	0.796067	city	4	0	0.000000	0.857068	0	0	0	1	OmissionError	0.175949	0.593393	1
274.302612	0.795790	city	9	1	0.598972	0.598972	0	1	0	0	CorrectCommission	1.101822	0.583949	1
275.098297	0.795555	city	3	1	0.648533	0.648533	0	1	0	0	CorrectCommission	0.856457	0.577922	1
275.894073	0.796028	city	6	1	0.997271	0.997271	0	1	0	0	CorrectCommission	0.870063	0.575884	1
276.689911	0.795599	city	5	1	0.847695	0.847695	0	1	0	0	CorrectCommission	0.129545	0.578299	1
277.485657	0.795946	city	2	1	0.807302	0.807302	0	1	0	0	CorrectCommission	0.070429	0.585413	1
278.281525	0.795793	city	7	1	0.797426	0.797426	0	1	0	0	CorrectCommission	0.119324	0.597212	1
279.077362	0.795865	mountain	3	0	0.000000	0.820680	1	0	0	0	CorrectOmission	0.004200	0.613494	1
279.873077	0.795569	city	8	1	0.897034	0.897034	0	1	0	0	CorrectCommission	0.373814	0.633841	1
280.668854	0.795978	city	1	1	1.046460	1.046460	0	1	0	0	CorrectCommission	1.113586	0.657671	1
281.464813	0.795913	city	7	1	1.196908	1.196908	0	1	0	0	CorrectCommission	1.858414	0.684367	1
282.260651	0.795757	city	4	0	0.000000	0.823451	0	0	0	1	OmissionError	0.009520	0.713319	1
283.056427	0.795843	city	8	1	0.549040	0.549040	0	1	0	0	CorrectCommission	1.349023	0.744149	1
283.852234	0.795761	city	7	1	0.996623	0.996623	0	1	0	0	CorrectCommission	0.866855	0.776380	1
284.648010	0.795797	city	8	0	0.000000	0.829974	0	0	0	1	OmissionError	0.041812	0.809699	1
285.443787	0.795725	city	5	1	0.549165	0.549165	0	1	0	0	CorrectCommission	1.348404	0.843768	0
286.239563	0.795860	city	10	1	0.654272	0.654272	0	1	0	0	CorrectCommission	0.828045	0.878031	0
287.035400	0.795818	city	7	1	0.914631	0.914631	0	1	0	0	CorrectCommission	0.460928	0.911744	0
287.831238	0.795829	city	2	1	0.847927	0.847927	0	1	0	0	CorrectCommission	0.130696	0.943979	0
288.627075	0.795846	city	3	1	0.797733	0.797733	0	1	0	0	CorrectCommission	0.117803	0.973661	0
289.422852	0.795735	city	4	1	1.195609	1.195609	0	1	0	0	CorrectCommission	1.851985	0.999688	0
290.218536	0.795605	city	7	1	1.294792	1.294792	0	1	0	0	CorrectCommission	2.343015	1.021044	0
291.014343	0.795998	mountain	6	0	0.000000	1.243568	1	0	0	0	CorrectOmission	2.089418	1.037094	0
291.810242	0.795812	city	4	1	1.095890	1.095890	0	1	0	0	CorrectCommission	1.358299	1.047631	0
292.605927	0.795535	city	10	0	0.000000	0.905710	0	0	0	1	OmissionError	0.416763	1.052993	0
293.401733	0.796115	city	1	1	0.847521	0.847521	0	1	0	0	CorrectCommission	0.128685	1.054045	0
294.197662	0.795741	city	5	1	1.095818	1.095818	0	1	0	0	CorrectCommission	1.357943	1.051971	0
294.993469	0.795865	city	7	1	1.113194	1.113194	0	1	0	0	CorrectCommission	1.443967	1.048172	0
295.789246	0.795719	city	3	1	1.001518	1.001518	0	1	0	0	CorrectCommission	0.891088	1.044140	0
296.584930	0.795619	city	5	1	1.096321	1.096321	0	1	0	0	CorrectCommission	1.360432	1.041285	0
297.380707	0.795955	city	1	0	0.000000	0.804782	0	0	0	1	OmissionError	0.082907	1.040671	0
298.176605	0.795839	city	8	1	0.549043	0.549043	0	1	0	0	CorrectCommission	1.349007	1.043072	0
298.972321	0.795597	city	9	1	0.751247	0.751247	0	1	0	0	CorrectCommission	0.347946	1.048682	0
299.767975	0.795718	city	2	1	1.002651	1.002651	0	1	0	0	CorrectCommission	0.896695	1.057354	0
300.563904	0.796141	city	3	1	1.207527	1.207527	0	1	0	0	CorrectCommission	1.910985	1.068432	0
301.359833	0.795698	mountain	7	0	0.000000	1.155229	1	0	0	0	CorrectOmission	1.652074	1.080922	0
302.155640	0.795908	city	1	1	0.948430	0.948430	0	1	0	0	CorrectCommission	0.628262	1.093687	0
302.951477	0.795769	city	8	0	0.000000	0.689800	0	0	0	1	OmissionError	0.652153	1.105442	0
303.747284	0.795821	city	1	1	0.616290	0.616290	0	1	0	0	CorrectCommission	1.016082	1.114883	0
304.542938	0.795524	city	8	1	0.964853	0.964853	0	1	0	0	CorrectCommission	0.709566	1.120854	0
305.338745	0.796094	city	9	1	1.196099	1.196099	0	1	0	0	CorrectCommission	1.854412	1.122486	0
306.134674	0.795768	city	6	0	0.000000	1.121068	0	0	0	1	OmissionError	1.482948	1.119228	0
306.930481	0.795834	city	2	1	1.013164	1.013164	0	1	0	0	CorrectCommission	0.948745	1.110982	0
307.726318	0.795810	city	10	1	1.145796	1.145796	0	1	0	0	CorrectCommission	1.605373	1.098117	0
308.522125	0.795799	city	8	1	1.362410	1.362410	0	1	0	0	CorrectCommission	2.677775	1.081399	0
309.317902	0.795784	city	6	1	0.797993	0.797993	0	1	0	0	CorrectCommission	0.116518	1.062006	0
310.113708	0.795800	city	9	1	0.897236	0.897236	0	1	0	0	CorrectCommission	0.374814	1.041509	0
310.909363	0.795537	city	4	1	0.911166	0.911166	0	1	0	0	CorrectCommission	0.443778	1.021468	0
311.705139	0.796003	city	7	1	1.046725	1.046725	0	1	0	0	CorrectCommission	1.114896	1.003388	0
312.501068	0.795873	city	9	0	0.000000	0.762026	0	0	0	1	OmissionError	0.294580	0.988598	0
313.296906	0.795794	city	5	1	0.449731	0.449731	0	1	0	0	CorrectCommission	1.840677	0.978177	0
314.092590	0.795552	city	2	1	0.502501	0.502501	0	1	0	0	CorrectCommission	1.579427	0.972701	0
314.888367	0.796014	city	8	1	0.897412	0.897412	0	1	0	0	CorrectCommission	0.375683	0.972455	0
315.684296	0.795861	city	3	1	0.748162	0.748162	0	1	0	0	CorrectCommission	0.363216	0.977295	0
316.480133	0.795797	city	6	1	0.996673	0.996673	0	1	0	0	CorrectCommission	0.867098	0.986599	0
317.275879	0.795683	city	5	1	1.146134	1.146134	0	1	0	0	CorrectCommission	1.607046	0.999377	0
318.071686	0.795928	city	1	0	0.000000	0.961070	0	0	0	1	OmissionError	0.690838	1.014301	0
318.867493	0.795694	city	5	1	0.797755	0.797755	0	1	0	0	CorrectCommission	0.117694	1.029863	0
319.663269	0.795874	city	6	1	1.012464	1.012464	0	1	0	0	CorrectCommission	0.945278	1.044511	0
320.458984	0.795530	city	5	0	0.000000	1.143527	0	0	0	1	OmissionError	1.594137	1.056723	0
321.254791	0.796113	city	4	1	1.196472	1.196472	0	1	0	0	CorrectCommission	1.856258	1.065202	0
322.050751	0.795777	mountain	1	0	0.000000	1.176831	1	0	0	0	CorrectOmission	1.759019	1.069030	0
322.846527	0.795774	city	4	1	1.046307	1.046307	0	1	0	0	CorrectCommission	1.112828	1.067751	0
323.642303	0.795809	city	10	0	0.000000	0.766605	0	0	0	1	OmissionError	0.271908	1.061334	0
324.438110	0.795816	city	8	0	0.000000	0.524201	0	0	0	1	OmissionError	1.471996	1.050241	0
325.233826	0.795564	city	2	1	0.505568	0.505568	0	1	0	0	CorrectCommission	1.564239	1.035195	0
326.029602	0.796039	city	10	1	0.897184	0.897184	0	1	0	0	CorrectCommission	0.374555	1.017104	0
326.825470	0.795700	city	5	0	0.000000	0.707347	0	0	0	1	OmissionError	0.565284	0.997159	0
327.621277	0.795910	city	2	1	0.449514	0.449514	0	1	0	0	CorrectCommission	1.841751	0.976472	0
328.416992	0.795520	city	10	0	0.000000	0.637143	0	0	0	1	OmissionError	0.912844	0.956090	0
329.212769	0.796023	city	9	1	0.847880	0.847880	0	1	0	0	CorrectCommission	0.130461	0.937008	0
330.008545	0.795522	city	7	0	0.000000	0.659368	0	0	0	1	OmissionError	0.802814	0.920129	0
330.804321	0.796044	city	5	1	0.499834	0.499834	0	1	0	0	CorrectCommission	1.592629	0.906135	0
331.600281	0.795862	city	2	1	0.797503	0.797503	0	1	0	0	CorrectCommission	0.118943	0.895559	0
332.396149	0.795861	mountain	4	0	0.000000	1.061216	1	0	0	0	CorrectOmission	1.186637	0.888888	0
333.191956	0.795781	city	9	1	1.154504	1.154504	0	1	0	0	CorrectCommission	1.648482	0.886281	0
333.987701	0.795716	city	2	0	0.000000	0.940896	0	0	0	1	OmissionError	0.590961	0.887666	0
334.783478	0.795797	city	5	1	0.698282	0.698282	0	1	0	0	CorrectCommission	0.610158	0.892679	0
335.579285	0.795819	city	9	1	0.704554	0.704554	0	1	0	0	CorrectCommission	0.579108	0.900549	0
336.375122	0.795855	city	2	1	0.748137	0.748137	0	1	0	0	CorrectCommission	0.363342	0.910130	0
337.170929	0.795774	city	4	1	0.847121	0.847121	0	1	0	0	CorrectCommission	0.126706	0.919944	0
337.966705	0.795750	city	9	1	1.195548	1.195548	0	1	0	0	CorrectCommission	1.851681	0.928345	0
338.762451	0.795796	city	8	0	0.000000	0.886167	0	0	0	1	OmissionError	0.320010	0.933670	0
339.558258	0.795802	city	1	1	0.452675	0.452675	0	1	0	0	CorrectCommission	1.826101	0.934643	0
340.354065	0.795813	mountain	2	0	0.000000	0.428771	1	0	0	0	CorrectOmission	1.944446	0.930396	0
341.149902	0.795819	city	3	1	0.710986	0.710986	0	1	0	0	CorrectCommission	0.547268	0.920854	0
341.945740	0.795860	city	4	1	1.195853	1.195853	0	1	0	0	CorrectCommission	1.853192	0.906727	0
342.741547	0.795781	city	9	0	0.000000	0.962707	0	0	0	1	OmissionError	0.698945	0.889330	0
343.537354	0.795834	city	10	1	0.599184	0.599184	0	1	0	0	CorrectCommission	1.100771	0.870613	0
344.333130	0.795701	mountain	2	0	0.000000	0.692917	1	0	0	0	CorrectOmission	0.636720	0.852728	0
345.128815	0.795663	city	4	1	0.897229	0.897229	0	1	0	0	CorrectCommission	0.374779	0.837733	0
345.924683	0.796074	city	6	1	0.865442	0.865442	0	1	0	0	CorrectCommission	0.217405	0.827247	0
346.720490	0.795538	city	2	1	0.847576	0.847576	0	1	0	0	CorrectCommission	0.128956	0.822249	1
347.516266	0.796052	mountain	10	1	0.960462	0.960462	0	0	1	0	CommissionError	0.687826	0.822925	1
348.312195	0.795806	mountain	6	0	0.000000	0.835192	1	0	0	0	CorrectOmission	0.067649	0.828618	0
349.107819	0.795445	city	10	0	0.000000	0.619885	0	0	0	1	OmissionError	0.998287	0.838162	0
349.903564	0.796050	city	4	1	0.462655	0.462655	0	1	0	0	CorrectCommission	1.776694	0.849909	0
350.699402	0.795618	city	7	0	0.000000	0.511619	0	0	0	1	OmissionError	1.534284	0.862144	0
351.495209	0.795971	mountain	3	0	0.000000	0.637578	1	0	0	0	CorrectOmission	0.910692	0.873458	0
352.291107	0.795805	city	2	1	0.711332	0.711332	0	1	0	0	CorrectCommission	0.545553	0.882862	0
353.086823	0.795665	mountain	2	0	0.000000	0.603682	1	0	0	0	CorrectOmission	1.078503	0.889943	0
353.882629	0.795939	city	2	1	0.505932	0.505932	0	1	0	0	CorrectCommission	1.562437	0.894861	0
354.678497	0.795801	mountain	8	0	0.000000	0.609388	1	0	0	0	CorrectOmission	1.050253	0.898279	0
355.474335	0.795852	city	10	1	0.797913	0.797913	0	1	0	0	CorrectCommission	0.116910	0.901140	0
356.270050	0.795590	mountain	7	0	0.000000	0.955373	1	0	0	0	CorrectOmission	0.662632	0.904575	0
357.065887	0.796071	city	10	1	0.962815	0.962815	0	1	0	0	CorrectCommission	0.699477	0.909535	0
357.861816	0.795781	city	4	1	0.701289	0.701289	0	1	0	0	CorrectCommission	0.595275	0.916727	0
358.657562	0.795710	city	7	1	0.698193	0.698193	0	1	0	0	CorrectCommission	0.610599	0.926521	0
359.453217	0.795613	city	6	0	0.000000	0.537619	0	0	0	1	OmissionError	1.405565	0.938873	0
360.249023	0.796020	city	1	1	0.459220	0.459220	0	1	0	0	CorrectCommission	1.793697	0.953400	0
361.044922	0.795790	mountain	3	1	0.702653	0.702653	0	0	1	0	CommissionError	0.588521	0.969408	0
361.840790	0.795910	city	2	0	0.000000	0.922425	0	0	0	1	OmissionError	0.499517	0.986113	0
362.636597	0.795711	city	10	1	1.046617	1.046617	0	1	0	0	CorrectCommission	1.114360	1.002644	0
363.432343	0.795781	city	2	1	1.003308	1.003308	0	1	0	0	CorrectCommission	0.899951	1.018103	0
364.228119	0.795790	city	6	1	1.147003	1.147003	0	1	0	0	CorrectCommission	1.611348	1.031796	0
365.023834	0.795653	city	2	1	0.947056	0.947056	0	1	0	0	CorrectCommission	0.621459	1.043209	0
365.819672	0.795970	city	7	0	0.000000	0.631514	0	0	0	1	OmissionError	0.940712	1.052143	0
366.615417	0.795551	city	8	1	0.449280	0.449280	0	1	0	0	CorrectCommission	1.842908	1.058663	0
367.411194	0.796027	city	2	1	0.649257	0.649257	0	1	0	0	CorrectCommission	0.852873	1.063073	0
368.207031	0.795633	city	7	1	0.996713	0.996713	0	1	0	0	CorrectCommission	0.867298	1.066085	0
369.002869	0.796022	city	5	1	1.146221	1.146221	0	1	0	0	CorrectCommission	1.607475	1.068566	0
369.798798	0.795866	city	10	0	0.000000	1.067877	0	0	0	1	OmissionError	1.219613	1.071468	0
370.594604	0.795739	city	9	1	0.946818	0.946818	0	1	0	0	CorrectCommission	0.620278	1.075784	0
371.390259	0.795577	mountain	8	0	0.000000	0.968180	1	0	0	0	CorrectOmission	0.726037	1.082318	0
372.185974	0.795832	city	4	1	1.046519	1.046519	0	1	0	0	CorrectCommission	1.113875	1.091552	0
372.981903	0.796021	city	7	1	1.096391	1.096391	0	1	0	0	CorrectCommission	1.360778	1.103594	0
373.777802	0.795762	city	3	0	0.000000	0.871948	0	0	0	1	OmissionError	0.249615	1.118046	0
374.573608	0.795863	mountain	10	1	0.599410	0.599410	0	0	1	0	CommissionError	1.099650	1.134086	0
375.369293	0.795542	city	5	0	0.000000	0.505000	0	0	0	1	OmissionError	1.567052	1.150463	0
376.165070	0.796010	city	2	1	0.650248	0.650248	0	1	0	0	CorrectCommission	0.847965	1.165701	0
376.960999	0.795793	city	10	1	1.096686	1.096686	0	1	0	0	CorrectCommission	1.362238	1.178277	0
377.756775	0.795758	city	5	1	1.195841	1.195841	0	1	0	0	CorrectCommission	1.853131	1.186743	0
378.552551	0.795818	city	6	0	0.000000	0.907144	0	0	0	1	OmissionError	0.423866	1.190030	0
379.348236	0.795558	mountain	9	0	0.000000	0.514115	1	0	0	0	CorrectOmission	1.521924	1.187610	0
380.144043	0.796031	city	4	1	0.300274	0.300274	0	1	0	0	CorrectCommission	2.580603	1.179371	0
380.939972	0.795854	city	8	1	0.549138	0.549138	0	1	0	0	CorrectCommission	1.348534	1.165768	0
381.735809	0.795834	city	9	1	1.096189	1.096189	0	1	0	0	CorrectCommission	1.359778	1.147738	0
382.531616	0.795790	city	5	0	0.000000	0.814306	0	0	0	1	OmissionError	0.035755	1.126511	0
383.327423	0.795826	city	3	1	0.499311	0.499311	0	1	0	0	CorrectCommission	1.595219	1.103435	0
384.123108	0.795534	mountain	10	1	0.947024	0.947024	0	0	1	0	CommissionError	0.621301	1.079604	0
384.918945	0.796093	city	2	0	0.000000	0.814296	0	0	0	1	OmissionError	0.035802	1.055969	0
385.714844	0.795741	city	7	1	0.548984	0.548984	0	1	0	0	CorrectCommission	1.349298	1.033116	0
386.510498	0.795575	mountain	7	1	0.598944	0.598944	0	0	1	0	CommissionError	1.101960	1.011181	0
387.306274	0.795989	city	3	1	1.046332	1.046332	0	1	0	0	CorrectCommission	1.112949	0.990038	0
388.102173	0.795793	city	7	1	1.195583	1.195583	0	1	0	0	CorrectCommission	1.851856	0.969404	0
388.897980	0.795841	city	10	0	0.000000	1.022589	0	0	0	1	OmissionError	0.995405	0.948874	0
389.693695	0.795580	city	6	1	0.752897	0.752897	0	1	0	0	CorrectCommission	0.339773	0.928122	0
390.489380	0.795746	city	8	0	0.000000	0.612056	0	0	0	1	OmissionError	1.037045	0.906949	0
391.285156	0.795832	city	7	1	0.599666	0.599666	0	1	0	0	CorrectCommission	1.098386	0.885333	0
392.080994	0.795860	city	2	0	0.000000	0.715328	0	0	0	1	OmissionError	0.525772	0.863467	0
392.876923	0.795971	city	6	1	0.897578	0.897578	0	1	0	0	CorrectCommission	0.376504	0.841718	0
393.672852	0.795897	city	3	0	0.000000	1.084952	0	0	0	1	OmissionError	1.304149	0.820628	1
394.468536	0.795460	city	5	1	1.096070	1.096070	0	1	0	0	CorrectCommission	1.359190	0.800780	1
395.264282	0.796026	city	2	1	0.749550	0.749550	0	1	0	0	CorrectCommission	0.356347	0.782798	1
396.060242	0.795913	city	6	1	0.947015	0.947015	0	1	0	0	CorrectCommission	0.621256	0.767359	1
396.856110	0.795790	city	8	0	0.000000	0.771711	0	0	0	1	OmissionError	0.246632	0.754983	1
397.651917	0.795823	city	10	1	0.560092	0.560092	0	1	0	0	CorrectCommission	1.294307	0.745954	1
398.447693	0.795773	city	9	1	0.648613	0.648613	0	1	0	0	CorrectCommission	0.856061	0.740352	1
399.243439	0.795696	city	6	1	0.747968	0.747968	0	1	0	0	CorrectCommission	0.364177	0.737979	1
400.039124	0.795659	city	7	1	0.757999	0.757999	0	1	0	0	CorrectCommission	0.314516	0.738419	1
400.834930	0.795999	city	2	1	0.698731	0.698731	0	1	0	0	CorrectCommission	0.607939	0.740963	1
401.630737	0.795571	city	4	1	0.649360	0.649360	0	1	0	0	CorrectCommission	0.852364	0.744719	1
402.426422	0.795822	city	3	1	0.761517	0.761517	0	1	0	0	CorrectCommission	0.297098	0.748753	1
403.222229	0.795807	city	6	1	1.146399	1.146399	0	1	0	0	CorrectCommission	1.608356	0.752154	1
404.018127	0.796003	city	4	0	0.000000	1.033024	0	0	0	1	OmissionError	1.047066	0.754065	1
404.813904	0.795524	city	1	0	0.000000	0.755713	0	0	0	1	OmissionError	0.325833	0.753952	1
405.609680	0.796036	city	2	1	0.648785	0.648785	0	1	0	0	CorrectCommission	0.855209	0.751571	1
406.405609	0.795827	city	4	1	1.046558	1.046558	0	1	0	0	CorrectCommission	1.114071	0.746976	1
407.201477	0.795890	city	5	1	1.113879	1.113879	0	1	0	0	CorrectCommission	1.447359	0.740570	1
407.997284	0.795697	city	1	1	0.898717	0.898717	0	1	0	0	CorrectCommission	0.382142	0.732976	1
408.793030	0.795794	city	4	1	0.906291	0.906291	0	1	0	0	CorrectCommission	0.419643	0.725040	1
409.588837	0.795841	city	7	1	0.815544	0.815544	0	1	0	0	CorrectCommission	0.029623	0.717658	1
410.384705	0.795882	mountain	8	0	0.000000	0.865166	1	0	0	0	CorrectOmission	0.216040	0.711779	1
411.180511	0.795748	city	3	1	1.007598	1.007598	0	1	0	0	CorrectCommission	0.921189	0.708243	1
411.976318	0.795847	city	2	1	1.195285	1.195285	0	1	0	0	CorrectCommission	1.850379	0.707765	1
412.772095	0.795717	mountain	1	0	0.000000	0.862584	1	0	0	0	CorrectOmission	0.203257	0.710909	1
413.567841	0.795782	city	4	1	0.549944	0.549944	0	1	0	0	CorrectCommission	1.344548	0.718085	1
414.363678	0.795916	city	10	1	0.797813	0.797813	0	1	0	0	CorrectCommission	0.117405	0.729354	1
415.159485	0.795710	city	3	1	0.797615	0.797615	0	1	0	0	CorrectCommission	0.118388	0.744510	1
415.955170	0.795627	city	6	1	0.996647	0.996647	0	1	0	0	CorrectCommission	0.866971	0.762939	1
416.750977	0.795988	city	7	1	0.900767	0.900767	0	1	0	0	CorrectCommission	0.392294	0.783623	1
417.546875	0.795804	city	9	1	0.999638	0.999638	0	1	0	0	CorrectCommission	0.881779	0.805210	1
418.342682	0.795803	city	3	1	1.053014	1.053014	0	1	0	0	CorrectCommission	1.146029	0.826004	0
419.138367	0.795601	city	1	0	0.000000	0.878503	0	0	0	1	OmissionError	0.282069	0.844150	0
419.934174	0.796010	mountain	1	1	0.648963	0.648963	0	0	1	0	CommissionError	0.854329	0.857856	0
420.729980	0.795575	mountain	2	0	0.000000	0.537250	1	0	0	0	CorrectOmission	1.407391	0.865442	0
421.525787	0.796036	city	6	1	0.499641	0.499641	0	1	0	0	CorrectCommission	1.593583	0.865604	0
422.321686	0.795781	city	3	0	0.000000	0.492412	0	0	0	1	OmissionError	1.629371	0.857573	0
423.117371	0.795605	city	9	1	0.614166	0.614166	0	1	0	0	CorrectCommission	1.026598	0.841154	0
423.913177	0.795967	city	1	1	0.963505	0.963505	0	1	0	0	CorrectCommission	0.702892	0.816753	1
424.709106	0.795888	city	10	1	0.847500	0.847500	0	1	0	0	CorrectCommission	0.128582	0.785286	1
425.504822	0.795558	city	3	1	0.648893	0.648893	0	1	0	0	CorrectCommission	0.854674	0.748144	1
426.300507	0.795808	mountain	7	1	0.950520	0.950520	0	0	1	0	CommissionError	0.638606	0.706958	1
427.096405	0.795989	city	3	0	0.000000	1.047154	0	0	0	1	OmissionError	1.117019	0.663570	1
427.892334	0.795866	city	7	1	1.000611	1.000611	0	1	0	0	CorrectCommission	0.886598	0.619842	1
428.688141	0.795769	city	4	0	0.000000	0.872707	0	0	0	1	OmissionError	0.253375	0.577631	1
429.483948	0.795841	city	1	1	0.797468	0.797468	0	1	0	0	CorrectCommission	0.119114	0.538707	1
430.279633	0.795522	city	4	1	0.908921	0.908921	0	1	0	0	CorrectCommission	0.432663	0.504724	1
431.075287	0.795783	city	2	1	0.748286	0.748286	0	1	0	0	CorrectCommission	0.362604	0.477103	1
431.871185	0.796017	city	7	1	0.716891	0.716891	0	1	0	0	CorrectCommission	0.518031	0.457178	1
432.667084	0.795811	city	2	1	0.747698	0.747698	0	1	0	0	CorrectCommission	0.365513	0.446028	1
433.462921	0.795815	city	3	1	0.798290	0.798290	0	1	0	0	CorrectCommission	0.115047	0.444463	1
434.258575	0.795499	city	5	1	0.897049	0.897049	0	1	0	0	CorrectCommission	0.373886	0.452983	1
435.054352	0.796081	city	10	1	0.748594	0.748594	0	1	0	0	CorrectCommission	0.361079	0.471664	1
435.850281	0.795762	city	9	1	0.897829	0.897829	0	1	0	0	CorrectCommission	0.377750	0.500100	1
436.645996	0.795643	city	5	1	0.849148	0.849148	0	1	0	0	CorrectCommission	0.136739	0.537370	1
437.441833	0.796050	city	2	1	0.797940	0.797940	0	1	0	0	CorrectCommission	0.116778	0.581981	1
438.237640	0.795556	city	10	1	0.905139	0.905139	0	1	0	0	CorrectCommission	0.413939	0.631877	1
439.033417	0.796030	city	3	1	0.897583	0.897583	0	1	0	0	CorrectCommission	0.376531	0.684547	1
439.829193	0.795504	city	1	1	0.996959	0.996959	0	1	0	0	CorrectCommission	0.868518	0.737214	1
440.624969	0.796065	city	10	1	1.096525	1.096525	0	1	0	0	CorrectCommission	1.361445	0.786980	1
441.420959	0.795893	city	4	1	1.101971	1.101971	0	1	0	0	CorrectCommission	1.388407	0.831087	0
442.216797	0.795787	city	5	1	1.047486	1.047486	0	1	0	0	CorrectCommission	1.118662	0.867164	0
443.012543	0.795712	city	1	1	1.000631	1.000631	0	1	0	0	CorrectCommission	0.886693	0.893402	0
443.808319	0.795806	city	9	0	0.000000	0.624817	0	0	0	1	OmissionError	0.973868	0.908726	0
444.604095	0.795805	city	10	1	0.449815	0.449815	0	1	0	0	CorrectCommission	1.840262	0.912787	0
445.399933	0.795831	city	6	1	1.005393	1.005393	0	1	0	0	CorrectCommission	0.910273	0.905998	0
446.195740	0.795790	city	9	0	0.000000	0.795271	0	0	0	1	OmissionError	0.129993	0.889536	0
446.991577	0.795860	city	1	1	0.449594	0.449594	0	1	0	0	CorrectCommission	1.841352	0.865195	0
447.787262	0.795542	city	8	1	0.598512	0.598512	0	1	0	0	CorrectCommission	1.104098	0.835092	0
448.582947	0.795810	city	7	1	0.997915	0.997915	0	1	0	0	CorrectCommission	0.873251	0.801656	1
449.378845	0.795985	city	1	1	0.915580	0.915580	0	1	0	0	CorrectCommission	0.465627	0.767319	1
450.174744	0.795803	city	7	1	0.908501	0.908501	0	1	0	0	CorrectCommission	0.430582	0.734367	1
450.970581	0.795867	city	8	1	0.897236	0.897236	0	1	0	0	CorrectCommission	0.374810	0.704842	1
451.766388	0.795764	city	10	1	0.897255	0.897255	0	1	0	0	CorrectCommission	0.374905	0.680403	1
452.562195	0.795845	city	2	1	0.912601	0.912601	0	1	0	0	CorrectCommission	0.450881	0.662309	1
453.358002	0.795768	city	1	1	0.896917	0.896917	0	1	0	0	CorrectCommission	0.373235	0.651385	1
454.153778	0.795808	city	3	1	0.953056	0.953056	0	1	0	0	CorrectCommission	0.651166	0.648138	1
454.949554	0.795717	city	8	1	1.097608	1.097608	0	1	0	0	CorrectCommission	1.366806	0.652785	1
455.745361	0.795890	city	6	1	0.947783	0.947783	0	1	0	0	CorrectCommission	0.625060	0.665249	1
456.541168	0.795754	city	5	1	0.897404	0.897404	0	1	0	0	CorrectCommission	0.375644	0.685254	1
457.336975	0.795855	city	6	0	0.000000	0.814216	0	0	0	1	OmissionError	0.036202	0.712250	1
458.132660	0.795509	city	9	1	0.698181	0.698181	0	1	0	0	CorrectCommission	0.610663	0.745382	1
458.928436	0.796048	city	3	1	0.549262	0.549262	0	1	0	0	CorrectCommission	1.347922	0.783433	1
459.724335	0.795761	city	1	1	0.751415	0.751415	0	1	0	0	CorrectCommission	0.347111	0.824807	0
460.519989	0.795550	city	4	1	0.909842	0.909842	0	1	0	0	CorrectCommission	0.437222	0.867608	0
461.315704	0.795846	city	2	1	0.798228	0.798228	0	1	0	0	CorrectCommission	0.115350	0.909600	0
462.111511	0.795810	city	4	1	1.145819	1.145819	0	1	0	0	CorrectCommission	1.605485	0.948349	0
462.907440	0.796051	city	3	0	0.000000	1.229311	0	0	0	1	OmissionError	2.018834	0.981363	0
463.703339	0.795740	city	2	1	1.145837	1.145837	0	1	0	0	CorrectCommission	1.605575	1.006372	0
464.499176	0.795905	city	7	0	0.000000	0.992529	0	0	0	1	OmissionError	0.846584	1.021421	0
465.294983	0.795743	city	3	1	0.763424	0.763424	0	1	0	0	CorrectCommission	0.287661	1.025185	0
466.090759	0.795767	city	6	0	0.000000	0.452557	0	0	0	1	OmissionError	1.826683	1.017014	0
466.886536	0.795794	city	2	1	0.450023	0.450023	0	1	0	0	CorrectCommission	1.839228	0.996998	0
467.682251	0.795625	city	5	1	1.145914	1.145914	0	1	0	0	CorrectCommission	1.605956	0.966114	0
468.478088	0.796050	city	7	1	0.847707	0.847707	0	1	0	0	CorrectCommission	0.129605	0.926146	0
469.274017	0.795830	city	1	1	0.947041	0.947041	0	1	0	0	CorrectCommission	0.621386	0.879612	0
470.069824	0.795801	city	3	1	1.146107	1.146107	0	1	0	0	CorrectCommission	1.606912	0.829502	0
470.865509	0.795536	city	4	1	1.058395	1.058395	0	1	0	0	CorrectCommission	1.172669	0.779054	1
471.661194	0.795825	city	7	1	0.899090	0.899090	0	1	0	0	CorrectCommission	0.383989	0.731575	1
472.457092	0.796024	city	3	1	0.758147	0.758147	0	1	0	0	CorrectCommission	0.313786	0.690092	1
473.252899	0.795584	city	1	1	0.797964	0.797964	0	1	0	0	CorrectCommission	0.116657	0.657082	1
474.048676	0.795977	city	6	1	0.897878	0.897878	0	1	0	0	CorrectCommission	0.377988	0.634331	1
474.844574	0.795782	city	10	1	0.847724	0.847724	0	1	0	0	CorrectCommission	0.129690	0.622762	1
475.640411	0.795880	city	4	1	0.858094	0.858094	0	1	0	0	CorrectCommission	0.181029	0.622433	1
476.436249	0.795817	city	10	1	0.797864	0.797864	0	1	0	0	CorrectCommission	0.117153	0.632570	1
477.232025	0.795743	city	8	1	0.897347	0.897347	0	1	0	0	CorrectCommission	0.375363	0.651801	1
478.027679	0.795575	city	9	0	0.000000	1.044673	0	0	0	1	OmissionError	1.104735	0.678330	1
478.823456	0.795987	city	5	1	1.052925	1.052925	0	1	0	0	CorrectCommission	1.145591	0.710281	1
479.619354	0.795788	city	2	0	0.000000	0.735189	0	0	0	1	OmissionError	0.427443	0.745863	1
480.415192	0.795872	city	3	1	0.460707	0.460707	0	1	0	0	CorrectCommission	1.786336	0.783621	1
481.210907	0.795580	city	4	1	0.598721	0.598721	0	1	0	0	CorrectCommission	1.103062	0.822456	1
482.006561	0.795711	city	10	1	0.698265	0.698265	0	1	0	0	CorrectCommission	0.610244	0.861763	0
482.802368	0.795894	city	4	1	0.897760	0.897760	0	1	0	0	CorrectCommission	0.377406	0.901293	0
483.598328	0.796042	city	9	0	0.000000	0.748846	0	0	0	1	OmissionError	0.359831	0.940982	0
484.394104	0.795506	city	2	1	0.699045	0.699045	0	1	0	0	CorrectCommission	0.606384	0.980870	0
485.189789	0.795865	city	1	1	1.195879	1.195879	0	1	0	0	CorrectCommission	1.853321	1.020992	0
485.985596	0.795775	city	10	0	0.000000	1.056484	0	0	0	1	OmissionError	1.163211	1.061318	0
486.781494	0.796002	city	1	1	0.598975	0.598975	0	1	0	0	CorrectCommission	1.101806	1.101806	0
