onset	duration	trial_type	image_type	Press	ReactionTime	ReactionTime_Interpolated	CorrectOmission	CorrectCommission	CommissionError	OmissionError	response_type	nonsmoothVarianceTimeCourse	VarianceTimeCourse	In_the_Zone	Reward_trial
8.433765	0.792266	city	8	1	0.745327	0.745327	0	1	0	0	CorrectCommission	0.189036	0.189036	1	1
9.226037	0.792278	mountain	7	0	0.000000	0.770405	1	0	0	0	CorrectOmission	0.456874	0.312467	1	1
10.018411	0.792469	city	7	1	0.751735	0.751735	0	1	0	0	CorrectCommission	0.257470	0.432198	1	1
10.810671	0.792051	city	6	1	0.645570	0.645570	0	1	0	0	CorrectCommission	0.876417	0.544688	1	1
11.602829	0.792264	city	5	1	0.645778	0.645778	0	1	0	0	CorrectCommission	0.874201	0.646717	1	1
12.395201	0.792480	city	10	1	0.646086	0.646086	0	1	0	0	CorrectCommission	0.870910	0.735527	0	1
13.187572	0.792264	city	3	1	0.655424	0.655424	0	1	0	0	CorrectCommission	0.771173	0.809022	0	1
13.979730	0.792050	city	7	1	0.600372	0.600372	0	1	0	0	CorrectCommission	1.359152	0.865927	0	1
14.771906	0.792302	city	8	1	0.546778	0.546778	0	1	0	0	CorrectCommission	1.931566	0.905885	0	1
15.564278	0.792441	city	2	1	0.596212	0.596212	0	1	0	0	CorrectCommission	1.403581	0.929505	0	1
16.356575	0.792155	city	5	1	0.596051	0.596051	0	1	0	0	CorrectCommission	1.405309	0.938326	0	1
17.148731	0.792158	city	3	1	0.645691	0.645691	0	1	0	0	CorrectCommission	0.875130	0.934635	0	1
17.940954	0.792285	city	1	1	0.696172	0.696172	0	1	0	0	CorrectCommission	0.335971	0.921253	0	1
18.733225	0.792259	city	4	1	0.794328	0.794328	0	1	0	0	CorrectCommission	0.712384	0.901199	0	1
19.525501	0.792294	city	8	1	0.844167	0.844167	0	1	0	0	CorrectCommission	1.244692	0.877364	0	1
20.317814	0.792330	city	5	1	0.799484	0.799484	0	1	0	0	CorrectCommission	0.767460	0.852236	0	1
21.110056	0.792155	city	8	1	0.803882	0.803882	0	1	0	0	CorrectCommission	0.814425	0.827690	0	1
21.902374	0.792484	city	1	1	0.754600	0.754600	0	1	0	0	CorrectCommission	0.288068	0.804851	0	1
22.694660	0.792087	city	7	1	0.843640	0.843640	0	1	0	0	CorrectCommission	1.239060	0.784095	0	1
23.486818	0.792227	city	5	1	0.744925	0.744925	0	1	0	0	CorrectCommission	0.184735	0.765088	0	1
24.279062	0.792263	city	10	1	0.750172	0.750172	0	1	0	0	CorrectCommission	0.240782	0.747037	0	1
25.071434	0.792479	city	5	1	0.794413	0.794413	0	1	0	0	CorrectCommission	0.713291	0.728872	1	1
25.863697	0.792048	city	7	1	0.844581	0.844581	0	1	0	0	CorrectCommission	1.249115	0.709545	1	1
26.655962	0.792482	city	10	1	0.893337	0.893337	0	1	0	0	CorrectCommission	1.769854	0.688271	1	1
27.448242	0.792078	city	2	1	0.800727	0.800727	0	1	0	0	CorrectCommission	0.780734	0.664728	1	1
28.240435	0.792305	city	8	1	0.755486	0.755486	0	1	0	0	CorrectCommission	0.297541	0.639145	1	1
29.032713	0.792254	city	1	1	0.801054	0.801054	0	1	0	0	CorrectCommission	0.784220	0.612253	1	1
29.824942	0.792203	city	2	1	0.699019	0.699019	0	1	0	0	CorrectCommission	0.305557	0.585149	1	1
30.617188	0.792288	city	1	1	0.698931	0.698931	0	1	0	0	CorrectCommission	0.306501	0.559151	1	1
31.409454	0.792245	mountain	6	0	0.000000	0.712610	1	0	0	0	CorrectOmission	0.160397	0.535566	1	1
32.201717	0.792286	city	1	1	0.706171	0.706171	0	1	0	0	CorrectCommission	0.229170	0.515512	1	1
32.994091	0.792460	city	6	1	0.645727	0.645727	0	1	0	0	CorrectCommission	0.874742	0.499806	1	1
33.786400	0.792156	city	5	1	0.663030	0.663030	0	1	0	0	CorrectCommission	0.689937	0.488895	1	1
34.578609	0.792263	city	8	1	0.695184	0.695184	0	1	0	0	CorrectCommission	0.346518	0.482855	1	1
35.370819	0.792156	city	3	1	0.695165	0.695165	0	1	0	0	CorrectCommission	0.346722	0.481428	1	1
36.163139	0.792484	mountain	8	0	0.000000	0.743068	1	0	0	0	CorrectOmission	0.164905	0.484048	1	1
36.955406	0.792047	city	7	1	0.758612	0.758612	0	1	0	0	CorrectCommission	0.330926	0.489954	1	1
37.747562	0.792266	city	2	1	0.661517	0.661517	0	1	0	0	CorrectCommission	0.706095	0.498265	1	1
38.539879	0.792370	city	8	1	0.696900	0.696900	0	1	0	0	CorrectCommission	0.328186	0.508084	1	1
39.332142	0.792156	city	5	1	0.794175	0.794175	0	1	0	0	CorrectCommission	0.710754	0.518629	1	1
40.124355	0.792266	city	4	1	0.696134	0.696134	0	1	0	0	CorrectCommission	0.336374	0.529269	1	1
40.916729	0.792481	city	10	1	0.652761	0.652761	0	1	0	0	CorrectCommission	0.799615	0.539611	1	1
41.708992	0.792047	city	9	1	0.646545	0.646545	0	1	0	0	CorrectCommission	0.866007	0.549478	1	1
42.501183	0.792334	city	10	1	0.646048	0.646048	0	1	0	0	CorrectCommission	0.871310	0.558879	1	1
43.293446	0.792196	city	5	1	0.695255	0.695255	0	1	0	0	CorrectCommission	0.345763	0.567915	1	1
44.085678	0.792264	mountain	3	0	0.000000	0.748949	1	0	0	0	CorrectOmission	0.227717	0.576666	1	1
44.877941	0.792265	city	10	1	0.763494	0.763494	0	1	0	0	CorrectCommission	0.383063	0.585105	1	1
45.670208	0.792270	city	2	1	0.695252	0.695252	0	1	0	0	CorrectCommission	0.345792	0.593017	1	1
46.462475	0.792259	city	7	1	0.646227	0.646227	0	1	0	0	CorrectCommission	0.869403	0.599964	1	1
47.254791	0.792374	mountain	5	0	0.000000	0.680556	1	0	0	0	CorrectOmission	0.502756	0.605377	1	1
48.047058	0.792160	city	5	1	0.697730	0.697730	0	1	0	0	CorrectCommission	0.319331	0.608685	1	1
48.839302	0.792329	city	4	1	0.597240	0.597240	0	1	0	0	CorrectCommission	1.392605	0.609473	1	1
49.631672	0.792416	city	2	1	0.645705	0.645705	0	1	0	0	CorrectCommission	0.874981	0.607602	1	1
50.423916	0.792070	city	9	1	0.645494	0.645494	0	1	0	0	CorrectCommission	0.877232	0.603375	1	1
51.216072	0.792240	city	10	1	0.695271	0.695271	0	1	0	0	CorrectCommission	0.345587	0.597533	1	1
52.008324	0.792265	city	1	1	0.652131	0.652131	0	1	0	0	CorrectCommission	0.806348	0.591214	1	1
52.800591	0.792266	city	10	1	0.744814	0.744814	0	1	0	0	CorrectCommission	0.183557	0.585784	1	1
53.592854	0.792266	city	2	1	0.699189	0.699189	0	1	0	0	CorrectCommission	0.303737	0.582655	1	1
54.385120	0.792264	city	6	1	0.705013	0.705013	0	1	0	0	CorrectCommission	0.241541	0.583038	1	1
55.177383	0.792262	city	1	1	0.596328	0.596328	0	1	0	0	CorrectCommission	1.402347	0.587704	1	1
55.969650	0.792271	city	10	1	0.745289	0.745289	0	1	0	0	CorrectCommission	0.188632	0.596832	1	1
56.761917	0.792262	city	3	1	0.695741	0.695741	0	1	0	0	CorrectCommission	0.340568	0.609924	1	1
57.554234	0.792371	city	9	1	0.744779	0.744779	0	1	0	0	CorrectCommission	0.183177	0.625781	1	1
58.346523	0.792208	city	10	1	0.695943	0.695943	0	1	0	0	CorrectCommission	0.338412	0.642640	1	1
59.138767	0.792283	city	1	1	0.711772	0.711772	0	1	0	0	CorrectCommission	0.169353	0.658391	1	1
59.931114	0.792412	city	10	1	0.855919	0.855919	0	1	0	0	CorrectCommission	1.370212	0.670881	1	1
60.723343	0.792046	city	6	1	0.893738	0.893738	0	1	0	0	CorrectCommission	1.774132	0.678225	1	1
61.515518	0.792305	city	9	1	0.656986	0.656986	0	1	0	0	CorrectCommission	0.754494	0.679113	1	1
62.307785	0.792226	mountain	3	0	0.000000	0.624013	1	0	0	0	CorrectOmission	1.106654	0.673031	1	1
63.100056	0.792319	city	2	1	0.663905	0.663905	0	1	0	0	CorrectCommission	0.680593	0.660275	1	1
63.892353	0.792270	city	3	1	0.645744	0.645744	0	1	0	0	CorrectCommission	0.874557	0.641903	1	1
64.684700	0.792423	city	1	1	0.695267	0.695267	0	1	0	0	CorrectCommission	0.345632	0.619550	1	1
65.476936	0.792052	city	5	1	0.695130	0.695130	0	1	0	0	CorrectCommission	0.347098	0.595203	1	1
66.269089	0.792261	city	9	1	0.695278	0.695278	0	1	0	0	CorrectCommission	0.345512	0.570875	1	1
67.061356	0.792267	city	5	1	0.744800	0.744800	0	1	0	0	CorrectCommission	0.183406	0.548408	1	1
67.853622	0.792264	city	10	1	0.794404	0.794404	0	1	0	0	CorrectCommission	0.713197	0.529303	1	0
68.645882	0.792265	city	9	1	0.744836	0.744836	0	1	0	0	CorrectCommission	0.183794	0.514625	1	0
69.438148	0.792262	city	8	1	0.798303	0.798303	0	1	0	0	CorrectCommission	0.754842	0.505002	1	0
70.230469	0.792374	city	10	1	0.744869	0.744869	0	1	0	0	CorrectCommission	0.184141	0.500647	1	0
71.022842	0.792373	city	7	1	0.844166	0.844166	0	1	0	0	CorrectCommission	1.244679	0.501398	1	0
71.815102	0.792156	city	2	1	0.706626	0.706626	0	1	0	0	CorrectCommission	0.224314	0.506739	1	0
72.607269	0.792167	city	7	1	0.744809	0.744809	0	1	0	0	CorrectCommission	0.183501	0.515866	1	0
73.399582	0.792472	city	10	1	0.695332	0.695332	0	1	0	0	CorrectCommission	0.344932	0.527709	1	0
74.191849	0.792050	city	5	1	0.699341	0.699341	0	1	0	0	CorrectCommission	0.302121	0.540951	1	0
74.984001	0.792261	city	1	1	0.744847	0.744847	0	1	0	0	CorrectCommission	0.183904	0.554155	1	0
75.776375	0.792483	city	7	1	0.795155	0.795155	0	1	0	0	CorrectCommission	0.721216	0.565860	1	0
76.568642	0.792047	city	3	1	0.794652	0.794652	0	1	0	0	CorrectCommission	0.715848	0.574805	1	0
77.360794	0.792264	city	5	1	0.858118	0.858118	0	1	0	0	CorrectCommission	1.393695	0.580096	1	0
78.153168	0.792483	city	6	1	0.843818	0.843818	0	1	0	0	CorrectCommission	1.240968	0.581364	1	0
78.945541	0.792264	city	8	1	0.698973	0.698973	0	1	0	0	CorrectCommission	0.306051	0.578910	1	0
79.737724	0.792109	city	9	1	0.759603	0.759603	0	1	0	0	CorrectCommission	0.341511	0.573693	1	0
80.529991	0.792420	city	2	1	0.794245	0.794245	0	1	0	0	CorrectCommission	0.711499	0.567209	1	0
81.322227	0.792048	city	10	1	0.795441	0.795441	0	1	0	0	CorrectCommission	0.724279	0.561288	1	0
82.114403	0.792301	city	1	1	0.744785	0.744785	0	1	0	0	CorrectCommission	0.183240	0.557847	1	0
82.906670	0.792234	city	10	1	0.702071	0.702071	0	1	0	0	CorrectCommission	0.272962	0.558610	1	0
83.698921	0.792265	city	8	1	0.744781	0.744781	0	1	0	0	CorrectCommission	0.183206	0.564814	1	0
84.491180	0.792258	city	7	1	0.702414	0.702414	0	1	0	0	CorrectCommission	0.269297	0.577050	1	0
85.283440	0.792268	city	3	1	0.844308	0.844308	0	1	0	0	CorrectCommission	1.246199	0.595092	1	0
86.075706	0.792263	city	10	1	0.744890	0.744890	0	1	0	0	CorrectCommission	0.184371	0.617918	1	0
86.867973	0.792263	city	5	1	0.744804	0.744804	0	1	0	0	CorrectCommission	0.183445	0.643821	1	0
87.660233	0.792266	city	6	1	0.695254	0.695254	0	1	0	0	CorrectCommission	0.345772	0.670579	1	0
88.452507	0.792269	city	1	1	0.606285	0.606285	0	1	0	0	CorrectCommission	1.296001	0.695695	1	0
89.244873	0.792477	city	10	1	0.655046	0.655046	0	1	0	0	CorrectCommission	0.775211	0.716739	1	0
90.037140	0.792047	city	9	1	0.596028	0.596028	0	1	0	0	CorrectCommission	1.405548	0.731676	1	0
90.829323	0.792323	city	7	1	0.695321	0.695321	0	1	0	0	CorrectCommission	0.345057	0.739086	0	0
91.621590	0.792207	city	8	1	0.596302	0.596302	0	1	0	0	CorrectCommission	1.402628	0.738405	0	0
92.413826	0.792269	mountain	4	0	0.000000	0.596698	1	0	0	0	CorrectOmission	1.398391	0.729920	1	0
93.206093	0.792262	city	5	1	0.646378	0.646378	0	1	0	0	CorrectCommission	0.867786	0.714785	1	0
93.998367	0.792289	city	10	1	0.695209	0.695209	0	1	0	0	CorrectCommission	0.346250	0.694853	1	0
94.790634	0.792244	city	4	1	0.757782	0.757782	0	1	0	0	CorrectCommission	0.322059	0.672420	1	0
95.582993	0.792476	city	6	1	0.794288	0.794288	0	1	0	0	CorrectCommission	0.711955	0.649934	1	0
96.375259	0.792050	city	9	1	0.794089	0.794089	0	1	0	0	CorrectCommission	0.709830	0.629732	1	0
97.167442	0.792326	city	1	1	0.744777	0.744777	0	1	0	0	CorrectCommission	0.183161	0.613765	1	0
97.959709	0.792202	city	5	1	0.744730	0.744730	0	1	0	0	CorrectCommission	0.182662	0.603436	1	0
98.752052	0.792480	city	1	1	0.708044	0.708044	0	1	0	0	CorrectCommission	0.209171	0.599464	1	0
99.544319	0.792047	city	7	1	0.843918	0.843918	0	1	0	0	CorrectCommission	1.242036	0.601897	1	0
100.336494	0.792310	city	6	1	0.760794	0.760794	0	1	0	0	CorrectCommission	0.354229	0.610148	1	0
101.128769	0.792233	city	4	1	0.657784	0.657784	0	1	0	0	CorrectCommission	0.745968	0.623144	1	0
101.921120	0.792468	city	5	1	0.695391	0.695391	0	1	0	0	CorrectCommission	0.344305	0.639402	1	0
102.713432	0.792157	city	9	1	0.801126	0.801126	0	1	0	0	CorrectCommission	0.784994	0.657244	1	0
103.505585	0.792161	city	2	1	0.744953	0.744953	0	1	0	0	CorrectCommission	0.185039	0.674967	1	0
104.297798	0.792260	city	3	1	0.794274	0.794274	0	1	0	0	CorrectCommission	0.711812	0.691036	1	0
105.090057	0.792264	city	9	1	0.645923	0.645923	0	1	0	0	CorrectCommission	0.872647	0.704215	1	0
105.882324	0.792269	city	1	1	0.598839	0.598839	0	1	0	0	CorrectCommission	1.375528	0.713715	1	0
106.674591	0.792260	city	3	1	0.596231	0.596231	0	1	0	0	CorrectCommission	1.403384	0.719295	1	0
107.466850	0.792264	city	8	1	0.662264	0.662264	0	1	0	0	CorrectCommission	0.698122	0.721231	1	0
108.259155	0.792337	city	2	1	0.662762	0.662762	0	1	0	0	CorrectCommission	0.692797	0.720295	1	0
109.051422	0.792205	city	4	1	0.701892	0.701892	0	1	0	0	CorrectCommission	0.274874	0.717574	1	0
109.843651	0.792253	city	6	1	0.702788	0.702788	0	1	0	0	CorrectCommission	0.265305	0.714326	1	0
110.636024	0.792483	city	8	1	0.695256	0.695256	0	1	0	0	CorrectCommission	0.345751	0.711856	1	0
111.428299	0.792079	city	3	1	0.596023	0.596023	0	1	0	0	CorrectCommission	1.405604	0.711409	1	0
112.220512	0.792343	city	8	1	0.663004	0.663004	0	1	0	0	CorrectCommission	0.690218	0.714111	1	0
113.012764	0.792162	city	6	1	0.646716	0.646716	0	1	0	0	CorrectCommission	0.864180	0.721016	1	0
113.805084	0.792475	city	9	1	0.703685	0.703685	0	1	0	0	CorrectCommission	0.255720	0.733085	1	0
114.597351	0.792052	city	4	1	0.709418	0.709418	0	1	0	0	CorrectCommission	0.194497	0.751262	0	0
115.389610	0.792477	city	7	1	0.844260	0.844260	0	1	0	0	CorrectCommission	1.245682	0.776430	0	0
116.181877	0.792048	mountain	9	0	0.000000	0.833415	1	0	0	0	CorrectOmission	1.129850	0.809335	0	0
116.974037	0.792274	city	7	1	0.744939	0.744939	0	1	0	0	CorrectCommission	0.184892	0.850477	0	0
117.766304	0.792259	city	5	1	0.646891	0.646891	0	1	0	0	CorrectCommission	0.862307	0.899921	0	0
118.558670	0.792477	city	10	1	0.603577	0.603577	0	1	0	0	CorrectCommission	1.324927	0.957029	0	0
119.350960	0.792101	city	7	1	0.654185	0.654185	0	1	0	0	CorrectCommission	0.784412	1.020267	0	0
120.143120	0.792214	city	5	1	0.695730	0.695730	0	1	0	0	CorrectCommission	0.340685	1.087086	0	0
120.935463	0.792480	city	6	1	0.744784	0.744784	0	1	0	0	CorrectCommission	0.183230	1.153938	0	0
121.727730	0.792046	city	4	1	0.604219	0.604219	0	1	0	0	CorrectCommission	1.318065	1.216458	0	0
122.519882	0.792272	city	9	1	0.612338	0.612338	0	1	0	0	CorrectCommission	1.231351	1.269859	0	0
123.312172	0.792306	city	6	1	0.546854	0.546854	0	1	0	0	CorrectCommission	1.930753	1.309542	0	0
124.104439	0.792221	mountain	1	1	0.457032	0.457032	0	0	1	0	CommissionError	2.890096	1.331683	0	0
124.896683	0.792263	city	4	1	0.547551	0.547551	0	1	0	0	CorrectCommission	1.923304	1.333863	0	0
125.688995	0.792371	city	5	1	0.513931	0.513931	0	1	0	0	CorrectCommission	2.282391	1.315560	0	0
126.481369	0.792374	city	4	1	0.561664	0.561664	0	1	0	0	CorrectCommission	1.772581	1.278247	0	0
127.273590	0.792063	city	2	1	0.561277	0.561277	0	1	0	0	CorrectCommission	1.776706	1.225318	0	1
128.065796	0.792360	city	1	1	0.596851	0.596851	0	1	0	0	CorrectCommission	1.396764	1.161648	0	1
128.858063	0.792155	city	5	1	0.695191	0.695191	0	1	0	0	CorrectCommission	0.346443	1.092936	0	1
129.650299	0.792324	city	6	1	0.751257	0.751257	0	1	0	0	CorrectCommission	0.252370	1.024976	0	1
130.442673	0.792423	city	9	1	0.744824	0.744824	0	1	0	0	CorrectCommission	0.183659	0.962865	0	1
131.234909	0.792047	city	8	1	0.695104	0.695104	0	1	0	0	CorrectCommission	0.347377	0.910424	0	1
132.027100	0.792330	city	6	1	0.655198	0.655198	0	1	0	0	CorrectCommission	0.773588	0.869835	0	1
132.819397	0.792277	city	10	1	0.695659	0.695659	0	1	0	0	CorrectCommission	0.341442	0.841505	0	1
133.611679	0.792295	city	6	1	0.846605	0.846605	0	1	0	0	CorrectCommission	1.270727	0.824250	0	1
134.404022	0.792373	city	9	1	0.800104	0.800104	0	1	0	0	CorrectCommission	0.774075	0.815630	0	1
135.196335	0.792265	mountain	1	0	0.000000	0.692456	1	0	0	0	CorrectOmission	0.375655	0.812469	0	1
135.988510	0.792089	city	6	1	0.661303	0.661303	0	1	0	0	CorrectCommission	0.708381	0.811380	0	1
136.780716	0.792333	city	2	1	0.844288	0.844288	0	1	0	0	CorrectCommission	1.245980	0.809278	0	1
137.573029	0.792265	city	1	1	0.843724	0.843724	0	1	0	0	CorrectCommission	1.239957	0.803792	0	1
138.365265	0.792229	city	7	1	0.893237	0.893237	0	1	0	0	CorrectCommission	1.768784	0.793534	0	1
139.157593	0.792409	city	8	1	0.803522	0.803522	0	1	0	0	CorrectCommission	0.810583	0.778123	0	1
139.949814	0.792054	city	4	1	0.762809	0.762809	0	1	0	0	CorrectCommission	0.375749	0.758145	0	1
140.741974	0.792261	city	9	1	0.843816	0.843816	0	1	0	0	CorrectCommission	1.240940	0.734850	1	1
141.534256	0.792305	city	5	1	0.744806	0.744806	0	1	0	0	CorrectCommission	0.183466	0.709811	1	1
142.326630	0.792437	city	10	1	0.744745	0.744745	0	1	0	0	CorrectCommission	0.182819	0.684671	1	1
143.118881	0.792051	city	8	1	0.695070	0.695070	0	1	0	0	CorrectCommission	0.347740	0.660767	1	1
143.911026	0.792261	city	9	1	0.794357	0.794357	0	1	0	0	CorrectCommission	0.712694	0.638971	1	1
144.703293	0.792268	city	2	1	0.794339	0.794339	0	1	0	0	CorrectCommission	0.712507	0.619671	1	1
145.495560	0.792264	city	3	1	0.801213	0.801213	0	1	0	0	CorrectCommission	0.785927	0.602856	1	1
146.287842	0.792286	mountain	10	0	0.000000	0.734740	1	0	0	0	CorrectOmission	0.075955	0.588295	1	1
147.080109	0.792246	city	2	1	0.658522	0.658522	0	1	0	0	CorrectCommission	0.738084	0.575756	1	1
147.872360	0.792264	mountain	5	0	0.000000	0.636166	1	0	0	0	CorrectOmission	0.976863	0.565179	1	1
148.664673	0.792370	city	8	1	0.648125	0.648125	0	1	0	0	CorrectCommission	0.849134	0.556831	1	1
149.457047	0.792374	mountain	6	0	0.000000	0.674854	1	0	0	0	CorrectOmission	0.563649	0.551318	1	1
150.249252	0.792033	city	10	1	0.695137	0.695137	0	1	0	0	CorrectCommission	0.347022	0.549525	1	1
151.041458	0.792387	mountain	2	0	0.000000	0.687754	1	0	0	0	CorrectOmission	0.425871	0.552372	1	1
151.833740	0.792160	city	6	1	0.695209	0.695209	0	1	0	0	CorrectCommission	0.346254	0.560596	1	1
152.626053	0.792478	city	1	1	0.760002	0.760002	0	1	0	0	CorrectCommission	0.345767	0.574489	1	1
153.418320	0.792049	city	5	1	0.695176	0.695176	0	1	0	0	CorrectCommission	0.346601	0.593663	1	1
154.210464	0.792263	city	2	1	0.746720	0.746720	0	1	0	0	CorrectCommission	0.203906	0.616959	1	1
155.002747	0.792281	city	6	1	0.711431	0.711431	0	1	0	0	CorrectCommission	0.172997	0.642525	1	1
155.795013	0.792250	city	9	1	0.752969	0.752969	0	1	0	0	CorrectCommission	0.270657	0.667976	1	1
156.587265	0.792263	mountain	2	0	0.000000	0.837192	1	0	0	0	CorrectOmission	1.170193	0.690739	1	1
157.379639	0.792484	mountain	7	0	0.000000	0.904098	1	0	0	0	CorrectOmission	1.884784	0.708423	1	1
158.171906	0.792045	city	4	1	0.893688	0.893688	0	1	0	0	CorrectCommission	1.773599	0.719192	1	1
158.964081	0.792305	city	9	1	0.745961	0.745961	0	1	0	0	CorrectCommission	0.195809	0.722056	1	1
159.756348	0.792225	mountain	8	0	0.000000	0.646573	1	0	0	0	CorrectOmission	0.865705	0.717032	1	1
160.548599	0.792274	city	3	1	0.645921	0.645921	0	1	0	0	CorrectCommission	0.872666	0.705044	1	1
161.340973	0.792474	city	10	1	0.794404	0.794404	0	1	0	0	CorrectCommission	0.713201	0.687791	1	1
162.133331	0.792265	city	7	1	0.695204	0.695204	0	1	0	0	CorrectCommission	0.346299	0.667487	1	1
162.925491	0.792050	city	8	1	0.794099	0.794099	0	1	0	0	CorrectCommission	0.709944	0.646512	1	1
163.717682	0.792320	mountain	1	0	0.000000	0.777607	1	0	0	0	CorrectOmission	0.533799	0.627111	1	1
164.509933	0.792205	city	5	1	0.744722	0.744722	0	1	0	0	CorrectCommission	0.182572	0.611154	1	1
165.302231	0.792375	city	4	1	0.794439	0.794439	0	1	0	0	CorrectCommission	0.713571	0.599971	1	1
166.094604	0.792373	city	8	1	0.707429	0.707429	0	1	0	0	CorrectCommission	0.215733	0.594272	1	1
166.886810	0.792047	city	5	1	0.695076	0.695076	0	1	0	0	CorrectCommission	0.347672	0.594221	1	1
167.678970	0.792267	city	8	1	0.646957	0.646957	0	1	0	0	CorrectCommission	0.861601	0.599530	1	1
168.471237	0.792264	city	3	1	0.695867	0.695867	0	1	0	0	CorrectCommission	0.339228	0.609623	1	1
169.263504	0.792264	city	1	1	0.695283	0.695283	0	1	0	0	CorrectCommission	0.345462	0.623827	1	1
170.055771	0.792267	city	9	1	0.596343	0.596343	0	1	0	0	CorrectCommission	1.402187	0.641478	1	1
170.848145	0.792478	mountain	5	0	0.000000	0.622745	1	0	0	0	CorrectOmission	1.120197	0.662002	1	1
171.640457	0.792154	city	3	1	0.697778	0.697778	0	1	0	0	CorrectCommission	0.318810	0.684995	1	1
172.432663	0.792266	city	6	1	0.744730	0.744730	0	1	0	0	CorrectCommission	0.182656	0.710141	1	1
173.224884	0.792158	city	10	1	0.646106	0.646106	0	1	0	0	CorrectCommission	0.870691	0.737145	0	1
174.017090	0.792261	city	2	1	0.745333	0.745333	0	1	0	0	CorrectCommission	0.189095	0.765639	0	1
174.809357	0.792267	city	10	1	0.794444	0.794444	0	1	0	0	CorrectCommission	0.713623	0.795151	0	1
175.601624	0.792276	city	2	1	0.843826	0.843826	0	1	0	0	CorrectCommission	1.241044	0.825038	0	1
176.393890	0.792251	city	3	1	0.808294	0.808294	0	1	0	0	CorrectCommission	0.861546	0.854552	0	1
177.186142	0.792266	city	7	1	0.843839	0.843839	0	1	0	0	CorrectCommission	1.241188	0.882837	0	1
177.978409	0.792266	city	1	1	0.809669	0.809669	0	1	0	0	CorrectCommission	0.876235	0.908997	0	1
178.770676	0.792263	city	8	1	0.806608	0.806608	0	1	0	0	CorrectCommission	0.843545	0.932115	0	1
179.562943	0.792266	city	10	1	0.844315	0.844315	0	1	0	0	CorrectCommission	1.246277	0.951324	0	1
180.355240	0.792324	city	2	1	0.843818	0.843818	0	1	0	0	CorrectCommission	1.240962	0.965801	0	1
181.147522	0.792233	city	7	1	0.794205	0.794205	0	1	0	0	CorrectCommission	0.711079	0.974841	0	1
181.939758	0.792254	city	1	1	0.760346	0.760346	0	1	0	0	CorrectCommission	0.349447	0.977957	0	1
182.732010	0.792255	city	6	1	0.794895	0.794895	0	1	0	0	CorrectCommission	0.718442	0.974930	0	1
183.524277	0.792258	city	7	1	0.893373	0.893373	0	1	0	0	CorrectCommission	1.770230	0.965933	0	1
184.316528	0.792265	city	5	1	0.893498	0.893498	0	1	0	0	CorrectCommission	1.771572	0.951610	0	1
185.108902	0.792481	mountain	9	0	0.000000	0.849560	1	0	0	0	CorrectOmission	1.302293	0.933107	0	1
185.901169	0.792051	city	6	1	0.815152	0.815152	0	1	0	0	CorrectCommission	0.934801	0.912005	0	1
186.693329	0.792262	city	9	1	0.843868	0.843868	0	1	0	0	CorrectCommission	1.241502	0.890109	0	0
187.485611	0.792297	city	1	1	0.744786	0.744786	0	1	0	0	CorrectCommission	0.183252	0.869135	0	0
188.277924	0.792338	city	6	1	0.744998	0.744998	0	1	0	0	CorrectCommission	0.185521	0.850475	0	0
189.070282	0.792376	city	4	1	0.794873	0.794873	0	1	0	0	CorrectCommission	0.718207	0.834863	0	0
189.862503	0.792076	city	3	1	0.749987	0.749987	0	1	0	0	CorrectCommission	0.238807	0.822227	0	0
190.654663	0.792238	city	1	1	0.747538	0.747538	0	1	0	0	CorrectCommission	0.212651	0.811700	0	0
191.446976	0.792385	city	6	1	0.843860	0.843860	0	1	0	0	CorrectCommission	1.241414	0.801793	0	0
192.239243	0.792144	city	3	1	0.794185	0.794185	0	1	0	0	CorrectCommission	0.710860	0.790663	0	0
193.031448	0.792263	city	5	1	0.942837	0.942837	0	1	0	0	CorrectCommission	2.298538	0.776538	0	0
193.823822	0.792482	city	7	1	0.794770	0.794770	0	1	0	0	CorrectCommission	0.717106	0.758014	0	0
194.616074	0.792046	city	3	1	0.843627	0.843627	0	1	0	0	CorrectCommission	1.238923	0.734406	1	0
195.408234	0.792264	city	8	1	0.801729	0.801729	0	1	0	0	CorrectCommission	0.791437	0.705768	1	0
196.200500	0.792278	city	1	1	0.745608	0.745608	0	1	0	0	CorrectCommission	0.192034	0.672893	1	0
196.992874	0.792469	mountain	8	1	0.645865	0.645865	0	0	1	0	CommissionError	0.873266	0.637122	1	0
197.785141	0.792065	city	1	1	0.695185	0.695185	0	1	0	0	CorrectCommission	0.346504	0.600068	1	0
198.577301	0.792246	city	5	1	0.744831	0.744831	0	1	0	0	CorrectCommission	0.183736	0.563403	1	0
199.369675	0.792482	city	1	1	0.711254	0.711254	0	1	0	0	CorrectCommission	0.174885	0.528615	1	0
200.162048	0.792265	city	3	1	0.695077	0.695077	0	1	0	0	CorrectCommission	0.347662	0.496861	1	0
200.954208	0.792080	city	1	1	0.654762	0.654762	0	1	0	0	CorrectCommission	0.778241	0.468944	1	0
201.746399	0.792279	city	9	1	0.794370	0.794370	0	1	0	0	CorrectCommission	0.712832	0.445386	1	0
202.538635	0.792217	city	2	1	0.745354	0.745354	0	1	0	0	CorrectCommission	0.189318	0.426538	1	0
203.330887	0.792267	city	9	1	0.794303	0.794303	0	1	0	0	CorrectCommission	0.712124	0.412716	1	0
204.123154	0.792264	city	10	1	0.711833	0.711833	0	1	0	0	CorrectCommission	0.168703	0.404206	1	0
204.915466	0.792372	city	7	1	0.744821	0.744821	0	1	0	0	CorrectCommission	0.183631	0.401372	1	0
205.707733	0.792161	city	9	1	0.709139	0.709139	0	1	0	0	CorrectCommission	0.197468	0.404584	1	0
206.500046	0.792477	mountain	3	0	0.000000	0.688947	1	0	0	0	CorrectOmission	0.413130	0.414154	1	0
207.292313	0.792047	city	10	1	0.696819	0.696819	0	1	0	0	CorrectCommission	0.329058	0.430239	1	0
208.084488	0.792305	city	4	1	0.745328	0.745328	0	1	0	0	CorrectCommission	0.189043	0.452763	1	0
208.876770	0.792263	city	1	1	0.748396	0.748396	0	1	0	0	CorrectCommission	0.221815	0.481300	1	0
209.669037	0.792258	city	2	1	0.794305	0.794305	0	1	0	0	CorrectCommission	0.712140	0.515079	1	0
210.461288	0.792237	city	3	1	0.794398	0.794398	0	1	0	0	CorrectCommission	0.713132	0.552940	1	0
211.253586	0.792370	city	9	1	0.703648	0.703648	0	1	0	0	CorrectCommission	0.256114	0.593463	1	0
212.045883	0.792209	mountain	9	0	0.000000	0.724696	1	0	0	0	CorrectOmission	0.031312	0.635011	1	0
212.838089	0.792216	city	1	1	0.794706	0.794706	0	1	0	0	CorrectCommission	0.716420	0.675879	1	0
213.630325	0.792261	city	7	1	0.850840	0.850840	0	1	0	0	CorrectCommission	1.315962	0.714425	1	0
214.422607	0.792295	city	4	1	0.894399	0.894399	0	1	0	0	CorrectCommission	1.781195	0.749197	0	0
215.214920	0.792348	city	2	1	0.794261	0.794261	0	1	0	0	CorrectCommission	0.711674	0.779037	0	0
216.007172	0.792149	city	1	1	0.763709	0.763709	0	1	0	0	CorrectCommission	0.385362	0.803167	0	0
216.799393	0.792277	city	6	1	0.794820	0.794820	0	1	0	0	CorrectCommission	0.717639	0.821152	0	0
217.591766	0.792471	city	10	1	0.695471	0.695471	0	1	0	0	CorrectCommission	0.343452	0.832874	0	0
218.384018	0.792049	city	2	1	0.555695	0.555695	0	1	0	0	CorrectCommission	1.836324	0.838512	0	0
219.176178	0.792262	city	4	1	0.645804	0.645804	0	1	0	0	CorrectCommission	0.873916	0.838449	0	0
219.968445	0.792265	city	8	1	0.657505	0.657505	0	1	0	0	CorrectCommission	0.748953	0.833282	0	0
220.760712	0.792268	city	3	1	0.658122	0.658122	0	1	0	0	CorrectCommission	0.742362	0.823701	0	0
221.552979	0.792263	city	9	1	0.604165	0.604165	0	1	0	0	CorrectCommission	1.318643	0.810460	0	0
222.345230	0.792263	city	6	1	0.646327	0.646327	0	1	0	0	CorrectCommission	0.868338	0.794295	0	0
223.137497	0.792266	city	5	1	0.645745	0.645745	0	1	0	0	CorrectCommission	0.874546	0.775900	0	0
223.929779	0.792288	city	1	1	0.712010	0.712010	0	1	0	0	CorrectCommission	0.166808	0.755870	0	0
224.722046	0.792261	city	5	1	0.744916	0.744916	0	1	0	0	CorrectCommission	0.184644	0.734726	1	0
225.514297	0.792247	city	1	1	0.794320	0.794320	0	1	0	0	CorrectCommission	0.712297	0.712938	1	0
226.306671	0.792480	city	6	1	0.855441	0.855441	0	1	0	0	CorrectCommission	1.365101	0.690990	1	0
227.098938	0.792049	city	4	1	0.661633	0.661633	0	1	0	0	CorrectCommission	0.704859	0.669478	1	0
227.891098	0.792286	city	7	1	0.645756	0.645756	0	1	0	0	CorrectCommission	0.874434	0.649236	1	0
228.683426	0.792350	city	4	1	0.655669	0.655669	0	1	0	0	CorrectCommission	0.768553	0.631345	1	0
229.475677	0.792160	city	10	1	0.646411	0.646411	0	1	0	0	CorrectCommission	0.867439	0.617127	1	0
230.267883	0.792262	city	4	1	0.746093	0.746093	0	1	0	0	CorrectCommission	0.197210	0.608029	1	0
231.060181	0.792324	city	9	1	0.744915	0.744915	0	1	0	0	CorrectCommission	0.184630	0.605488	1	0
231.852493	0.792314	mountain	3	0	0.000000	0.729348	1	0	0	0	CorrectOmission	0.018373	0.610717	1	0
232.644730	0.792159	city	8	1	0.709477	0.709477	0	1	0	0	CorrectCommission	0.193861	0.624606	1	0
233.436996	0.792371	city	9	1	0.695385	0.695385	0	1	0	0	CorrectCommission	0.344374	0.647569	1	0
234.229263	0.792161	city	8	1	0.597005	0.597005	0	1	0	0	CorrectCommission	1.395114	0.679482	1	0
235.021469	0.792260	city	2	1	0.652667	0.652667	0	1	0	0	CorrectCommission	0.800618	0.719655	1	0
235.813751	0.792291	city	3	1	0.654274	0.654274	0	1	0	0	CorrectCommission	0.783460	0.766849	0	0
236.606125	0.792456	city	6	1	0.661939	0.661939	0	1	0	0	CorrectCommission	0.701594	0.819310	0	0
237.398376	0.792048	city	4	1	0.698853	0.698853	0	1	0	0	CorrectCommission	0.307331	0.874850	0	0
238.190643	0.792482	city	6	1	0.744793	0.744793	0	1	0	0	CorrectCommission	0.183328	0.930958	0	0
238.982910	0.792058	city	2	1	0.794101	0.794101	0	1	0	0	CorrectCommission	0.709966	0.984924	0	0
239.775116	0.792362	city	1	1	0.893446	0.893446	0	1	0	0	CorrectCommission	1.771017	1.034051	0	0
240.567490	0.792373	city	3	1	0.954638	0.954638	0	1	0	0	CorrectCommission	2.424572	1.075870	0	0
241.359695	0.792047	mountain	7	0	0.000000	0.884591	1	0	0	0	CorrectOmission	1.676437	1.108355	0	0
242.151855	0.792265	city	9	1	0.794307	0.794307	0	1	0	0	CorrectCommission	0.712159	1.130121	0	0
242.944138	0.792293	city	5	1	0.794786	0.794786	0	1	0	0	CorrectCommission	0.717283	1.140490	0	0
243.736450	0.792344	city	8	1	0.844150	0.844150	0	1	0	0	CorrectCommission	1.244508	1.139524	0	0
244.528702	0.792157	city	3	1	0.893504	0.893504	0	1	0	0	CorrectCommission	1.771631	1.127979	0	0
245.320908	0.792269	city	8	1	0.893316	0.893316	0	1	0	0	CorrectCommission	1.769627	1.107189	0	0
246.113174	0.792266	city	4	1	0.856276	0.856276	0	1	0	0	CorrectCommission	1.374021	1.078966	0	1
246.905441	0.792263	city	5	1	0.751167	0.751167	0	1	0	0	CorrectCommission	0.251402	1.045416	0	1
247.697708	0.792264	city	4	1	0.794455	0.794455	0	1	0	0	CorrectCommission	0.713741	1.008806	0	1
248.490021	0.792371	city	3	1	0.806753	0.806753	0	1	0	0	CorrectCommission	0.845097	0.971352	0	1
249.282288	0.792153	city	1	1	0.844166	0.844166	0	1	0	0	CorrectCommission	1.244679	0.935114	0	1
250.074554	0.792374	city	6	1	0.843953	0.843953	0	1	0	0	CorrectCommission	1.242407	0.901853	0	1
250.866821	0.792157	city	3	1	0.797878	0.797878	0	1	0	0	CorrectCommission	0.750299	0.872938	0	1
251.659027	0.792264	city	9	1	0.749588	0.749588	0	1	0	0	CorrectCommission	0.234546	0.849239	0	1
252.451309	0.792283	city	3	1	0.794998	0.794998	0	1	0	0	CorrectCommission	0.719544	0.831079	0	1
253.243591	0.792281	mountain	3	0	0.000000	0.818653	1	0	0	0	CorrectOmission	0.972188	0.818177	0	1
254.035950	0.792451	city	9	1	0.794458	0.794458	0	1	0	0	CorrectCommission	0.713776	0.809699	0	1
254.828201	0.792047	city	2	1	0.696319	0.696319	0	1	0	0	CorrectCommission	0.334396	0.804343	0	1
255.620468	0.792481	city	8	1	0.646129	0.646129	0	1	0	0	CorrectCommission	0.870445	0.800506	0	1
256.412720	0.792053	city	4	1	0.695076	0.695076	0	1	0	0	CorrectCommission	0.347673	0.796494	0	1
257.204895	0.792260	city	6	1	0.646217	0.646217	0	1	0	0	CorrectCommission	0.869507	0.790845	0	1
257.997162	0.792261	city	10	1	0.803474	0.803474	0	1	0	0	CorrectCommission	0.810075	0.782577	0	1
258.789459	0.792374	city	5	1	0.943027	0.943027	0	1	0	0	CorrectCommission	2.300563	0.771462	0	1
259.581726	0.792158	city	4	1	0.893250	0.893250	0	1	0	0	CorrectCommission	1.768926	0.758060	0	1
260.373993	0.792372	city	10	1	0.744767	0.744767	0	1	0	0	CorrectCommission	0.183048	0.743713	0	1
261.166260	0.792157	city	2	1	0.695150	0.695150	0	1	0	0	CorrectCommission	0.346885	0.730272	1	1
261.958527	0.792373	city	4	1	0.744767	0.744767	0	1	0	0	CorrectCommission	0.183056	0.719684	1	1
262.750793	0.792160	city	8	1	0.745204	0.745204	0	1	0	0	CorrectCommission	0.187720	0.713623	1	1
263.542999	0.792266	city	6	1	0.695272	0.695272	0	1	0	0	CorrectCommission	0.345575	0.713087	1	1
264.335266	0.792259	city	10	1	0.695414	0.695414	0	1	0	0	CorrectCommission	0.344065	0.718154	1	1
265.127533	0.792263	mountain	10	1	0.794364	0.794364	0	0	1	0	CommissionError	0.712776	0.727881	1	1
265.919800	0.792271	city	2	1	0.649454	0.649454	0	1	0	0	CorrectCommission	0.834933	0.740412	0	1
266.712067	0.792275	city	4	1	0.646221	0.646221	0	1	0	0	CorrectCommission	0.869461	0.753270	0	1
267.504333	0.792252	city	5	1	0.646307	0.646307	0	1	0	0	CorrectCommission	0.868548	0.763746	0	1
268.296600	0.792261	city	6	1	0.645779	0.645779	0	1	0	0	CorrectCommission	0.874182	0.769380	0	1
269.088898	0.792375	city	2	1	0.601252	0.601252	0	1	0	0	CorrectCommission	1.349760	0.768367	0	1
269.881287	0.792374	city	9	1	0.600953	0.600953	0	1	0	0	CorrectCommission	1.352954	0.759870	0	1
270.673492	0.792049	mountain	2	0	0.000000	0.615746	1	0	0	0	CorrectOmission	1.194954	0.744214	0	1
271.465637	0.792267	city	5	1	0.646108	0.646108	0	1	0	0	CorrectCommission	0.870673	0.722899	1	1
272.257935	0.792281	mountain	2	0	0.000000	0.692515	1	0	0	0	CorrectOmission	0.375023	0.698454	1	1
273.050293	0.792461	city	2	1	0.745160	0.745160	0	1	0	0	CorrectCommission	0.187245	0.674126	1	1
273.842590	0.792155	city	7	1	0.794234	0.794234	0	1	0	0	CorrectCommission	0.711383	0.653500	1	1
274.634766	0.792159	city	1	1	0.695139	0.695139	0	1	0	0	CorrectCommission	0.346996	0.640060	1	1
275.426971	0.792263	city	3	1	0.665106	0.665106	0	1	0	0	CorrectCommission	0.667765	0.636808	1	1
276.219299	0.792373	city	8	1	0.702012	0.702012	0	1	0	0	CorrectCommission	0.273594	0.645852	1	1
277.011566	0.792156	city	2	1	0.744717	0.744717	0	1	0	0	CorrectCommission	0.182523	0.668206	1	1
277.803772	0.792267	city	9	1	0.701905	0.701905	0	1	0	0	CorrectCommission	0.274729	0.703619	1	1
278.596039	0.792271	city	3	1	0.695374	0.695374	0	1	0	0	CorrectCommission	0.344490	0.750566	0	1
279.388306	0.792260	mountain	4	0	0.000000	0.679692	1	0	0	0	CorrectOmission	0.511982	0.806373	0	1
280.180573	0.792267	city	9	1	0.652682	0.652682	0	1	0	0	CorrectCommission	0.800455	0.867487	0	1
280.972839	0.792259	city	5	1	0.612169	0.612169	0	1	0	0	CorrectCommission	1.233162	0.929807	0	1
281.765198	0.792484	city	8	1	0.612050	0.612050	0	1	0	0	CorrectCommission	1.234430	0.989106	0	1
282.557465	0.792065	city	4	1	0.645540	0.645540	0	1	0	0	CorrectCommission	0.876737	1.041447	0	1
283.349640	0.792278	city	8	1	0.556264	0.556264	0	1	0	0	CorrectCommission	1.830249	1.083553	0	1
284.141998	0.792450	city	1	1	0.546769	0.546769	0	1	0	0	CorrectCommission	1.931666	1.113028	0	1
284.934265	0.792052	city	2	1	0.562574	0.562574	0	1	0	0	CorrectCommission	1.762853	1.128522	0	1
285.726471	0.792369	city	1	1	0.596709	0.596709	0	1	0	0	CorrectCommission	1.398279	1.129702	0	1
286.518738	0.792157	city	3	1	0.646140	0.646140	0	1	0	0	CorrectCommission	0.870334	1.117111	0	1
287.310944	0.792268	city	2	1	0.645741	0.645741	0	1	0	0	CorrectCommission	0.874588	1.091947	0	1
288.103271	0.792369	city	8	1	0.649695	0.649695	0	1	0	0	CorrectCommission	0.832357	1.055841	0	1
288.895538	0.792170	city	5	1	0.645622	0.645622	0	1	0	0	CorrectCommission	0.875859	1.010668	0	1
289.687805	0.792360	city	2	1	0.606125	0.606125	0	1	0	0	CorrectCommission	1.297714	0.958390	0	1
290.480164	0.792373	city	6	1	0.604530	0.604530	0	1	0	0	CorrectCommission	1.314741	0.901013	0	1
291.272430	0.792158	city	2	1	0.645577	0.645577	0	1	0	0	CorrectCommission	0.876340	0.840563	0	1
292.064575	0.792159	mountain	7	1	0.596371	0.596371	0	0	1	0	CommissionError	1.401888	0.779119	0	1
292.856781	0.792259	mountain	6	1	0.695383	0.695383	0	0	1	0	CommissionError	0.344394	0.718760	1	1
293.649170	0.792484	city	5	1	0.695626	0.695626	0	1	0	0	CorrectCommission	0.341796	0.661553	1	1
294.441498	0.792155	city	4	1	0.744583	0.744583	0	1	0	0	CorrectCommission	0.181090	0.609410	1	1
295.233704	0.792263	city	7	1	0.794195	0.794195	0	1	0	0	CorrectCommission	0.710970	0.563987	1	1
296.025909	0.792158	city	1	1	0.695184	0.695184	0	1	0	0	CorrectCommission	0.346523	0.526540	1	1
296.818115	0.792274	city	8	1	0.744823	0.744823	0	1	0	0	CorrectCommission	0.183652	0.497845	1	1
297.610382	0.792254	city	5	1	0.711647	0.711647	0	1	0	0	CorrectCommission	0.170681	0.478121	1	1
298.402649	0.792271	city	6	1	0.696103	0.696103	0	1	0	0	CorrectCommission	0.336704	0.467059	1	1
299.194916	0.792261	city	4	1	0.695545	0.695545	0	1	0	0	CorrectCommission	0.342663	0.463963	1	1
299.987183	0.792264	city	2	1	0.695319	0.695319	0	1	0	0	CorrectCommission	0.345076	0.467924	1	1
300.779449	0.792264	mountain	8	0	0.000000	0.762049	1	0	0	0	CorrectOmission	0.367636	0.477967	1	1
301.571716	0.792269	city	3	1	0.794833	0.794833	0	1	0	0	CorrectCommission	0.717776	0.493287	1	1
302.364075	0.792479	mountain	6	0	0.000000	0.692765	1	0	0	0	CorrectOmission	0.372353	0.513381	1	1
303.156342	0.792051	city	8	1	0.645906	0.645906	0	1	0	0	CorrectCommission	0.872825	0.538119	1	1
303.948517	0.792263	city	1	1	0.844316	0.844316	0	1	0	0	CorrectCommission	1.246285	0.567651	1	1
304.740753	0.792261	city	7	1	0.744829	0.744829	0	1	0	0	CorrectCommission	0.183711	0.602257	1	1
305.533051	0.792321	city	6	1	0.756438	0.756438	0	1	0	0	CorrectCommission	0.307703	0.642123	1	0
306.325317	0.792209	city	9	1	0.744782	0.744782	0	1	0	0	CorrectCommission	0.183217	0.687059	1	0
307.117554	0.792265	city	10	1	0.695493	0.695493	0	1	0	0	CorrectCommission	0.343216	0.736303	0	0
307.909821	0.792264	city	5	1	0.646725	0.646725	0	1	0	0	CorrectCommission	0.864082	0.788476	0	0
308.702087	0.792268	city	2	1	0.744798	0.744798	0	1	0	0	CorrectCommission	0.183382	0.841709	0	0
309.494354	0.792291	city	3	1	0.747570	0.747570	0	1	0	0	CorrectCommission	0.212991	0.893937	0	0
310.286621	0.792238	city	4	1	0.596198	0.596198	0	1	0	0	CorrectCommission	1.403733	0.943332	0	0
311.078888	0.792263	city	3	1	0.497864	0.497864	0	1	0	0	CorrectCommission	2.453994	0.988709	0	0
311.871155	0.792271	city	1	1	0.497278	0.497278	0	1	0	0	CorrectCommission	2.460253	1.029906	0	0
312.663483	0.792366	city	3	1	0.596682	0.596682	0	1	0	0	CorrectCommission	1.398563	1.067913	0	0
313.455719	0.792155	mountain	1	0	0.000000	0.728655	1	0	0	0	CorrectOmission	0.010966	1.104758	0	0
314.247986	0.792373	city	6	1	0.843954	0.843954	0	1	0	0	CorrectCommission	1.242414	1.143090	0	0
315.040375	0.792374	city	9	1	0.893338	0.893338	0	1	0	0	CorrectCommission	1.769861	1.185496	0	0
315.832581	0.792053	city	2	1	0.745148	0.745148	0	1	0	0	CorrectCommission	0.187117	1.233838	0	0
316.624786	0.792368	city	3	1	0.714821	0.714821	0	1	0	0	CorrectCommission	0.136784	1.288696	0	0
317.417053	0.792163	city	1	1	0.695744	0.695744	0	1	0	0	CorrectCommission	0.340540	1.348925	0	0
318.209381	0.792475	city	10	1	0.645702	0.645702	0	1	0	0	CorrectCommission	0.875013	1.411627	0	0
319.001678	0.792105	city	7	1	0.596079	0.596079	0	1	0	0	CorrectCommission	1.405003	1.472531	0	0
319.793823	0.792212	city	4	1	0.546831	0.546831	0	1	0	0	CorrectCommission	1.931000	1.526697	0	0
320.586060	0.792259	city	8	1	0.497210	0.497210	0	1	0	0	CorrectCommission	2.460978	1.569376	0	0
321.378418	0.792483	city	7	1	0.398783	0.398783	0	1	0	0	CorrectCommission	3.512222	1.596914	0	0
322.170685	0.792049	city	4	1	0.454023	0.454023	0	1	0	0	CorrectCommission	2.922230	1.607435	0	0
322.962860	0.792263	city	3	1	0.497846	0.497846	0	1	0	0	CorrectCommission	2.454184	1.601189	0	0
323.755127	0.792270	city	8	1	0.546778	0.546778	0	1	0	0	CorrectCommission	1.931567	1.580431	0	0
324.547394	0.792294	city	7	1	0.646164	0.646164	0	1	0	0	CorrectCommission	0.870079	1.548901	0	0
325.339691	0.792303	city	9	1	0.656382	0.656382	0	1	0	0	CorrectCommission	0.760946	1.511034	0	0
326.131958	0.792206	city	6	1	0.656332	0.656332	0	1	0	0	CorrectCommission	0.761480	1.471028	0	0
326.924225	0.792358	city	9	1	0.652780	0.652780	0	1	0	0	CorrectCommission	0.799414	1.432053	0	0
327.716522	0.792229	city	8	1	0.703414	0.703414	0	1	0	0	CorrectCommission	0.258622	1.395703	0	0
328.508850	0.792410	city	3	1	0.646170	0.646170	0	1	0	0	CorrectCommission	0.870011	1.361867	0	0
329.301117	0.792097	city	9	1	0.546538	0.546538	0	1	0	0	CorrectCommission	1.934132	1.328935	0	0
330.093384	0.792432	city	3	1	0.500990	0.500990	0	1	0	0	CorrectCommission	2.420598	1.294383	0	0
330.885620	0.792048	city	9	1	0.596113	0.596113	0	1	0	0	CorrectCommission	1.404647	1.255496	0	0
331.677765	0.792265	city	4	1	0.546856	0.546856	0	1	0	0	CorrectCommission	1.930729	1.210066	0	0
332.470062	0.792300	city	7	1	0.497595	0.497595	0	1	0	0	CorrectCommission	2.456863	1.156892	0	0
333.262299	0.792228	mountain	4	0	0.000000	0.644298	1	0	0	0	CorrectOmission	0.890001	1.096145	0	0
334.054626	0.792382	city	10	1	0.804235	0.804235	0	1	0	0	CorrectCommission	0.818194	1.029415	0	0
334.846893	0.792183	city	6	1	0.794672	0.794672	0	1	0	0	CorrectCommission	0.716056	0.959379	0	0
335.639099	0.792231	city	5	1	0.707144	0.707144	0	1	0	0	CorrectCommission	0.218775	0.889402	0	0
336.431396	0.792374	city	6	1	0.805153	0.805153	0	1	0	0	CorrectCommission	0.828007	0.823040	0	0
337.223785	0.792376	city	10	1	0.794489	0.794489	0	1	0	0	CorrectCommission	0.714104	0.763530	0	0
338.016052	0.792153	city	2	1	0.707904	0.707904	0	1	0	0	CorrectCommission	0.210658	0.713452	1	0
338.808197	0.792156	mountain	3	0	0.000000	0.708338	1	0	0	0	CorrectOmission	0.206023	0.674426	1	0
339.600525	0.792483	city	4	1	0.755221	0.755221	0	1	0	0	CorrectCommission	0.294709	0.647104	1	0
340.392792	0.792047	city	5	1	0.807984	0.807984	0	1	0	0	CorrectCommission	0.858236	0.631210	1	0
341.185059	0.792482	city	3	1	0.808095	0.808095	0	1	0	0	CorrectCommission	0.859421	0.625658	1	0
341.977356	0.792156	city	5	1	0.794204	0.794204	0	1	0	0	CorrectCommission	0.711058	0.628854	1	0
342.769531	0.792157	city	2	1	0.744671	0.744671	0	1	0	0	CorrectCommission	0.182026	0.638923	1	0
343.561737	0.792267	city	10	1	0.744900	0.744900	0	1	0	0	CorrectCommission	0.184474	0.653963	1	0
344.354004	0.792266	city	2	1	0.745300	0.745300	0	1	0	0	CorrectCommission	0.188748	0.672260	1	0
345.146271	0.792273	city	7	1	0.843819	0.843819	0	1	0	0	CorrectCommission	1.240978	0.692471	1	0
345.938538	0.792256	city	1	1	0.855376	0.855376	0	1	0	0	CorrectCommission	1.364406	0.713672	1	0
346.730804	0.792263	city	6	1	0.844046	0.844046	0	1	0	0	CorrectCommission	1.243395	0.735410	0	0
347.523071	0.792273	city	9	1	0.798208	0.798208	0	1	0	0	CorrectCommission	0.753829	0.757595	0	0
348.315338	0.792252	city	5	1	0.759003	0.759003	0	1	0	0	CorrectCommission	0.335097	0.780362	0	0
349.107574	0.792268	city	7	1	0.806630	0.806630	0	1	0	0	CorrectCommission	0.843783	0.803801	0	0
349.899963	0.792480	city	5	1	0.800131	0.800131	0	1	0	0	CorrectCommission	0.774364	0.827714	0	0
350.692322	0.792265	city	10	1	0.744548	0.744548	0	1	0	0	CorrectCommission	0.180718	0.851474	0	0
351.484497	0.792047	city	7	1	0.744601	0.744601	0	1	0	0	CorrectCommission	0.181280	0.873954	0	0
352.276672	0.792342	city	2	1	0.800029	0.800029	0	1	0	0	CorrectCommission	0.773272	0.893585	0	0
353.068970	0.792254	city	3	1	0.900175	0.900175	0	1	0	0	CorrectCommission	1.842887	0.908591	0	0
353.861237	0.792261	city	7	1	0.695235	0.695235	0	1	0	0	CorrectCommission	0.345972	0.917289	0	0
354.653473	0.792202	city	10	1	0.515405	0.515405	0	1	0	0	CorrectCommission	2.266645	0.918490	0	0
355.445801	0.792482	mountain	8	1	0.459046	0.459046	0	0	1	0	CommissionError	2.868589	0.911664	0	0
356.238068	0.792047	city	2	1	0.698890	0.698890	0	1	0	0	CorrectCommission	0.306940	0.897159	0	0
357.030243	0.792273	city	7	1	0.744820	0.744820	0	1	0	0	CorrectCommission	0.183621	0.876245	0	0
357.822601	0.792474	city	8	1	0.695374	0.695374	0	1	0	0	CorrectCommission	0.344490	0.850878	0	0
358.614868	0.792053	mountain	7	0	0.000000	0.761368	1	0	0	0	CorrectOmission	0.360364	0.823526	0	0
359.407043	0.792285	city	2	1	0.843852	0.843852	0	1	0	0	CorrectCommission	1.241323	0.796923	0	0
360.199310	0.792239	city	6	1	0.843871	0.843871	0	1	0	0	CorrectCommission	1.241529	0.773794	0	0
360.991577	0.792318	city	8	1	0.695274	0.695274	0	1	0	0	CorrectCommission	0.345560	0.756662	0	0
361.783875	0.792240	city	1	1	0.695348	0.695348	0	1	0	0	CorrectCommission	0.344767	0.747688	0	0
362.576111	0.792234	city	10	1	0.695789	0.695789	0	1	0	0	CorrectCommission	0.340055	0.748514	0	0
363.368408	0.792375	city	9	1	0.645970	0.645970	0	1	0	0	CorrectCommission	0.872144	0.760179	0	0
364.160675	0.792171	city	2	1	0.663929	0.663929	0	1	0	0	CorrectCommission	0.680338	0.783010	0	0
364.952911	0.792309	city	9	1	0.844234	0.844234	0	1	0	0	CorrectCommission	1.245404	0.816567	0	1
365.745178	0.792203	city	2	1	0.695254	0.695254	0	1	0	0	CorrectCommission	0.345770	0.859578	0	1
366.537415	0.792267	city	9	1	0.744805	0.744805	0	1	0	0	CorrectCommission	0.183456	0.909945	0	1
367.329681	0.792265	city	6	1	0.761377	0.761377	0	1	0	0	CorrectCommission	0.360453	0.964815	0	1
368.121948	0.792262	city	2	1	0.794310	0.794310	0	1	0	0	CorrectCommission	0.712195	1.020782	0	1
368.914246	0.792374	city	10	1	0.843726	0.843726	0	1	0	0	CorrectCommission	1.239976	1.074178	0	1
369.706512	0.792157	city	1	1	0.893732	0.893732	0	1	0	0	CorrectCommission	1.774074	1.121411	0	1
370.498840	0.792482	city	5	1	0.942944	0.942944	0	1	0	0	CorrectCommission	2.299673	1.159332	0	1
371.291107	0.792051	city	7	1	0.912930	0.912930	0	1	0	0	CorrectCommission	1.979118	1.185585	0	1
372.083374	0.792478	city	10	1	0.844094	0.844094	0	1	0	0	CorrectCommission	1.243911	1.198791	0	1
372.875641	0.792046	city	5	1	0.843578	0.843578	0	1	0	0	CorrectCommission	1.238402	1.198569	0	1
373.667786	0.792266	city	4	1	0.843805	0.843805	0	1	0	0	CorrectCommission	1.240824	1.185491	0	1
374.460114	0.792373	city	2	1	0.843798	0.843798	0	1	0	0	CorrectCommission	1.240747	1.160820	0	1
375.252380	0.792177	city	7	1	0.853253	0.853253	0	1	0	0	CorrectCommission	1.341739	1.126257	0	1
376.044647	0.792354	city	8	1	0.794283	0.794283	0	1	0	0	CorrectCommission	0.711903	1.083712	0	1
376.836914	0.792156	city	4	1	0.756115	0.756115	0	1	0	0	CorrectCommission	0.304257	1.035142	0	1
377.629211	0.792481	city	10	1	0.843915	0.843915	0	1	0	0	CorrectCommission	1.242004	0.982463	0	1
378.421478	0.792051	city	8	1	0.862010	0.862010	0	1	0	0	CorrectCommission	1.435267	0.927554	0	1
379.213654	0.792262	city	1	1	0.844361	0.844361	0	1	0	0	CorrectCommission	1.246766	0.872366	0	1
380.005981	0.792374	city	5	1	0.804331	0.804331	0	1	0	0	CorrectCommission	0.819225	0.819007	0	1
380.798248	0.792161	city	1	1	0.859856	0.859856	0	1	0	0	CorrectCommission	1.412253	0.769770	0	1
381.590454	0.792259	city	5	1	0.744873	0.744873	0	1	0	0	CorrectCommission	0.184185	0.727040	1	1
382.382721	0.792269	city	4	1	0.744770	0.744770	0	1	0	0	CorrectCommission	0.183084	0.693233	1	1
383.175018	0.792369	city	7	1	0.744766	0.744766	0	1	0	0	CorrectCommission	0.183040	0.670571	1	1
383.967285	0.792158	city	10	1	0.695134	0.695134	0	1	0	0	CorrectCommission	0.347056	0.660840	1	1
384.759552	0.792372	city	2	1	0.708443	0.708443	0	1	0	0	CorrectCommission	0.204910	0.665187	1	1
385.551849	0.792218	city	8	1	0.761313	0.761313	0	1	0	0	CorrectCommission	0.359767	0.683943	1	1
386.344086	0.792283	city	2	1	0.745483	0.745483	0	1	0	0	CorrectCommission	0.190699	0.716527	1	1
387.136322	0.792189	city	8	1	0.845018	0.845018	0	1	0	0	CorrectCommission	1.253784	0.761432	0	1
387.928558	0.792261	city	2	1	0.794819	0.794819	0	1	0	0	CorrectCommission	0.717635	0.816243	0	1
388.720825	0.792267	city	10	1	0.844420	0.844420	0	1	0	0	CorrectCommission	1.247395	0.877815	0	1
389.513092	0.792282	mountain	2	0	0.000000	0.785455	1	0	0	0	CorrectOmission	0.617620	0.942354	0	1
390.305359	0.792247	city	5	1	0.695247	0.695247	0	1	0	0	CorrectCommission	0.345848	1.005720	0	1
391.097626	0.792284	city	7	1	0.651118	0.651118	0	1	0	0	CorrectCommission	0.817168	1.063622	0	1
391.889893	0.792245	city	2	1	0.893312	0.893312	0	1	0	0	CorrectCommission	1.769581	1.111995	0	1
392.682190	0.792325	city	4	1	0.893338	0.893338	0	1	0	0	CorrectCommission	1.769866	1.147388	0	1
393.474457	0.792203	city	10	1	0.844095	0.844095	0	1	0	0	CorrectCommission	1.243922	1.167363	0	1
394.266724	0.792374	city	4	1	0.861954	0.861954	0	1	0	0	CorrectCommission	1.434668	1.170845	0	1
395.059113	0.792374	city	7	1	0.942723	0.942723	0	1	0	0	CorrectCommission	2.297321	1.158273	0	1
395.851318	0.792050	city	3	1	0.998889	0.998889	0	1	0	0	CorrectCommission	2.897197	1.131632	0	1
396.643524	0.792370	city	9	1	0.794264	0.794264	0	1	0	0	CorrectCommission	0.711705	1.094233	0	1
397.435791	0.792162	city	3	1	0.695148	0.695148	0	1	0	0	CorrectCommission	0.346901	1.050342	0	1
398.228027	0.792324	city	2	1	0.645774	0.645774	0	1	0	0	CorrectCommission	0.874243	1.004480	0	1
399.020325	0.792241	city	10	1	0.703731	0.703731	0	1	0	0	CorrectCommission	0.255229	0.960823	0	1
399.812561	0.792226	city	1	1	0.794613	0.794613	0	1	0	0	CorrectCommission	0.715431	0.922626	0	1
400.604858	0.792372	city	4	1	0.744909	0.744909	0	1	0	0	CorrectCommission	0.184567	0.891735	0	1
401.397125	0.792158	mountain	1	0	0.000000	0.694181	1	0	0	0	CorrectOmission	0.357234	0.868437	0	1
402.189453	0.792507	city	8	1	0.695761	0.695761	0	1	0	0	CorrectCommission	0.340353	0.851519	0	1
402.981720	0.792021	city	9	1	0.802983	0.802983	0	1	0	0	CorrectCommission	0.804827	0.838606	0	1
403.773865	0.792268	city	2	1	0.893352	0.893352	0	1	0	0	CorrectCommission	1.770010	0.826695	0	1
404.566132	0.792288	city	6	1	0.794463	0.794463	0	1	0	0	CorrectCommission	0.713828	0.812720	0	1
405.358398	0.792237	city	2	1	0.942828	0.942828	0	1	0	0	CorrectCommission	2.298443	0.794189	0	1
406.150635	0.792265	city	9	1	0.803536	0.803536	0	1	0	0	CorrectCommission	0.810738	0.769493	0	1
406.942902	0.792266	city	8	1	0.794318	0.794318	0	1	0	0	CorrectCommission	0.712276	0.738276	0	1
407.735168	0.792261	city	3	1	0.843798	0.843798	0	1	0	0	CorrectCommission	1.240752	0.701331	1	1
408.527435	0.792267	city	9	1	0.744765	0.744765	0	1	0	0	CorrectCommission	0.183035	0.660422	1	1
409.319763	0.792373	mountain	8	0	0.000000	0.742533	1	0	0	0	CorrectOmission	0.159196	0.617995	1	1
410.112030	0.792162	city	2	1	0.744714	0.744714	0	1	0	0	CorrectCommission	0.182487	0.576727	1	1
410.904236	0.792262	city	8	1	0.658920	0.658920	0	1	0	0	CorrectCommission	0.733837	0.539200	1	1
411.696503	0.792264	city	5	1	0.695382	0.695382	0	1	0	0	CorrectCommission	0.344403	0.507585	1	1
412.488770	0.792260	city	8	1	0.704521	0.704521	0	1	0	0	CorrectCommission	0.246799	0.483463	1	1
413.281067	0.792326	mountain	5	0	0.000000	0.708057	1	0	0	0	CorrectOmission	0.209025	0.467714	1	1
414.073364	0.792314	city	1	1	0.695228	0.695228	0	1	0	0	CorrectCommission	0.346048	0.460540	1	1
414.865601	0.792156	city	2	1	0.655269	0.655269	0	1	0	0	CorrectCommission	0.772833	0.461495	1	1
415.657928	0.792481	city	3	1	0.695273	0.695273	0	1	0	0	CorrectCommission	0.345567	0.469557	1	1
416.450256	0.792156	city	5	1	0.745033	0.745033	0	1	0	0	CorrectCommission	0.185895	0.483269	1	1
417.242401	0.792159	city	6	1	0.746597	0.746597	0	1	0	0	CorrectCommission	0.202594	0.500822	1	1
418.034607	0.792246	city	2	1	0.746567	0.746567	0	1	0	0	CorrectCommission	0.202272	0.520198	1	1
418.826874	0.792284	city	10	1	0.794758	0.794758	0	1	0	0	CorrectCommission	0.716979	0.539307	1	1
419.619141	0.792262	city	2	1	0.843875	0.843875	0	1	0	0	CorrectCommission	1.241578	0.556138	1	1
420.411530	0.792481	city	4	1	0.794802	0.794802	0	1	0	0	CorrectCommission	0.717451	0.568916	1	1
421.203827	0.792155	city	10	1	0.695082	0.695082	0	1	0	0	CorrectCommission	0.347611	0.576268	1	1
421.996063	0.792266	city	6	1	0.662088	0.662088	0	1	0	0	CorrectCommission	0.700001	0.577352	1	1
422.788269	0.792156	mountain	10	1	0.645676	0.645676	0	0	1	0	CommissionError	0.875285	0.571881	1	1
423.580475	0.792265	city	2	1	0.663693	0.663693	0	1	0	0	CorrectCommission	0.682852	0.560200	1	1
424.372742	0.792273	city	8	1	0.596353	0.596353	0	1	0	0	CorrectCommission	1.402080	0.543227	1	0
425.165009	0.792257	city	1	1	0.745314	0.745314	0	1	0	0	CorrectCommission	0.188891	0.522322	1	0
425.957306	0.792372	mountain	1	0	0.000000	0.737709	1	0	0	0	CorrectOmission	0.107665	0.499222	1	0
426.749695	0.792375	city	7	1	0.696482	0.696482	0	1	0	0	CorrectCommission	0.332652	0.475798	1	0
427.541901	0.792059	city	8	1	0.744579	0.744579	0	1	0	0	CorrectCommission	0.181046	0.453880	1	0
428.334076	0.792260	city	9	1	0.798025	0.798025	0	1	0	0	CorrectCommission	0.751870	0.435155	1	0
429.126373	0.792367	city	6	1	0.744772	0.744772	0	1	0	0	CorrectCommission	0.183109	0.421040	1	0
429.918671	0.792191	city	3	1	0.699041	0.699041	0	1	0	0	CorrectCommission	0.305327	0.412648	1	0
430.710876	0.792229	city	2	1	0.695211	0.695211	0	1	0	0	CorrectCommission	0.346226	0.410724	1	0
431.503113	0.792264	city	3	1	0.695739	0.695739	0	1	0	0	CorrectCommission	0.340593	0.415663	1	0
432.295410	0.792293	city	9	1	0.695709	0.695709	0	1	0	0	CorrectCommission	0.340911	0.427523	1	0
433.087677	0.792273	city	7	1	0.744895	0.744895	0	1	0	0	CorrectCommission	0.184419	0.446062	1	0
433.879974	0.792336	city	1	1	0.695251	0.695251	0	1	0	0	CorrectCommission	0.345800	0.470753	1	0
434.672241	0.792161	city	6	1	0.695323	0.695323	0	1	0	0	CorrectCommission	0.345029	0.500794	1	0
435.464447	0.792261	city	9	1	0.696034	0.696034	0	1	0	0	CorrectCommission	0.337440	0.535157	1	0
436.256714	0.792265	city	7	1	0.645705	0.645705	0	1	0	0	CorrectCommission	0.874980	0.572584	1	0
437.048981	0.792265	city	9	1	0.648417	0.648417	0	1	0	0	CorrectCommission	0.846015	0.611616	1	0
437.841248	0.792271	city	1	1	0.651186	0.651186	0	1	0	0	CorrectCommission	0.816442	0.650656	1	0
438.633514	0.792257	city	3	1	0.695270	0.695270	0	1	0	0	CorrectCommission	0.345599	0.688005	1	0
439.425751	0.792265	mountain	2	0	0.000000	0.745256	1	0	0	0	CorrectOmission	0.188273	0.721955	1	0
440.218018	0.792270	city	3	1	0.799335	0.799335	0	1	0	0	CorrectCommission	0.765867	0.750887	0	0
441.010284	0.792261	city	4	1	0.855701	0.855701	0	1	0	0	CorrectCommission	1.367875	0.773431	0	0
441.802551	0.792267	city	2	1	0.893759	0.893759	0	1	0	0	CorrectCommission	1.774361	0.788640	0	0
442.594818	0.792270	city	9	1	0.745058	0.745058	0	1	0	0	CorrectCommission	0.186156	0.796196	0	0
443.387085	0.792257	city	4	1	0.645882	0.645882	0	1	0	0	CorrectCommission	0.873082	0.796588	0	0
444.179352	0.792264	city	7	1	0.596213	0.596213	0	1	0	0	CorrectCommission	1.403581	0.791102	0	0
444.971649	0.792302	city	9	1	0.613781	0.613781	0	1	0	0	CorrectCommission	1.215937	0.781869	0	0
445.764008	0.792446	city	4	1	0.645864	0.645864	0	1	0	0	CorrectCommission	0.873278	0.771721	0	0
446.556274	0.792074	city	1	1	0.749486	0.749486	0	1	0	0	CorrectCommission	0.233452	0.763939	0	0
447.348419	0.792238	city	3	1	0.748439	0.748439	0	1	0	0	CorrectCommission	0.222269	0.761884	0	0
448.140686	0.792268	city	10	1	0.794307	0.794307	0	1	0	0	CorrectCommission	0.712167	0.768562	0	0
448.933044	0.792478	city	8	1	0.794333	0.794333	0	1	0	0	CorrectCommission	0.712444	0.786188	0	0
449.725433	0.792265	city	2	1	0.696746	0.696746	0	1	0	0	CorrectCommission	0.329833	0.815799	0	0
450.517578	0.792050	city	4	1	0.654383	0.654383	0	1	0	0	CorrectCommission	0.782289	0.856952	0	0
451.309784	0.792371	city	2	1	0.695314	0.695314	0	1	0	0	CorrectCommission	0.345133	0.907555	0	0
452.102173	0.792373	city	5	1	0.758365	0.758365	0	1	0	0	CorrectCommission	0.328287	0.963975	0	0
452.894409	0.792100	city	6	1	0.798160	0.798160	0	1	0	0	CorrectCommission	0.753320	1.021267	0	0
453.686554	0.792210	city	7	1	0.660348	0.660348	0	1	0	0	CorrectCommission	0.718580	1.073687	0	0
454.478790	0.792266	city	3	1	0.564006	0.564006	0	1	0	0	CorrectCommission	1.747558	1.115392	0	0
455.271057	0.792267	city	9	1	0.546957	0.546957	0	1	0	0	CorrectCommission	1.929653	1.141147	0	0
456.063324	0.792265	city	2	1	0.497203	0.497203	0	1	0	0	CorrectCommission	2.461052	1.147096	0	0
456.855591	0.792265	city	5	1	0.497177	0.497177	0	1	0	0	CorrectCommission	2.461327	1.131278	0	0
457.647858	0.792262	city	3	1	0.546697	0.546697	0	1	0	0	CorrectCommission	1.932425	1.093941	0	0
458.440125	0.792272	city	10	1	0.597061	0.597061	0	1	0	0	CorrectCommission	1.394518	1.037495	0	0
459.232422	0.792312	city	4	1	0.657799	0.657799	0	1	0	0	CorrectCommission	0.745807	0.966171	0	0
460.024689	0.792217	city	9	1	0.695377	0.695377	0	1	0	0	CorrectCommission	0.344456	0.885476	0	0
460.816925	0.792260	city	6	1	0.760305	0.760305	0	1	0	0	CorrectCommission	0.349009	0.801419	0	0
461.609192	0.792273	city	4	1	0.760979	0.760979	0	1	0	0	CorrectCommission	0.356205	0.719789	1	0
462.401550	0.792473	city	1	1	0.744786	0.744786	0	1	0	0	CorrectCommission	0.183258	0.645571	1	0
463.193817	0.792050	city	8	1	0.745341	0.745341	0	1	0	0	CorrectCommission	0.189177	0.582524	1	0
463.985962	0.792266	city	3	1	0.695527	0.695527	0	1	0	0	CorrectCommission	0.342857	0.533004	1	0
464.778229	0.792260	city	5	1	0.744787	0.744787	0	1	0	0	CorrectCommission	0.183269	0.497997	1	0
465.570557	0.792374	mountain	9	0	0.000000	0.735592	1	0	0	0	CorrectOmission	0.085055	0.477332	1	0
466.362915	0.792372	city	5	1	0.746689	0.746689	0	1	0	0	CorrectCommission	0.203585	0.470011	1	0
467.155182	0.792110	city	6	1	0.856830	0.856830	0	1	0	0	CorrectCommission	1.379940	0.474582	1	0
467.947388	0.792311	city	3	1	0.759630	0.759630	0	1	0	0	CorrectCommission	0.341794	0.489448	1	0
468.739624	0.792188	city	8	1	0.695220	0.695220	0	1	0	0	CorrectCommission	0.346135	0.513198	1	0
469.531830	0.792236	mountain	5	0	0.000000	0.687088	1	0	0	0	CorrectOmission	0.432989	0.544724	1	0
470.324188	0.792478	city	7	1	0.695248	0.695248	0	1	0	0	CorrectCommission	0.345829	0.583317	1	0
471.116455	0.792050	mountain	7	0	0.000000	0.679716	1	0	0	0	CorrectOmission	0.511720	0.628661	1	0
471.908630	0.792267	city	4	1	0.696044	0.696044	0	1	0	0	CorrectCommission	0.337335	0.680711	1	0
472.700897	0.792261	city	1	1	0.799784	0.799784	0	1	0	0	CorrectCommission	0.770655	0.739595	0	0
473.493256	0.792481	city	5	1	0.756905	0.756905	0	1	0	0	CorrectCommission	0.312697	0.805437	0	0
474.285522	0.792045	mountain	2	0	0.000000	0.823792	1	0	0	0	CorrectOmission	1.027082	0.878217	0	0
475.077667	0.792269	city	5	1	0.893413	0.893413	0	1	0	0	CorrectCommission	1.770662	0.957537	0	0
475.869965	0.792294	city	10	1	0.858736	0.858736	0	1	0	0	CorrectCommission	1.400293	1.042437	0	0
476.662231	0.792236	city	9	1	0.794287	0.794287	0	1	0	0	CorrectCommission	0.711948	1.131263	0	0
477.454468	0.792264	city	8	1	0.695604	0.695604	0	1	0	0	CorrectCommission	0.342027	1.221543	0	0
478.246735	0.792247	city	9	1	0.745185	0.745185	0	1	0	0	CorrectCommission	0.187517	1.309987	0	0
479.039032	0.792388	city	8	1	0.805090	0.805090	0	1	0	0	CorrectCommission	0.827332	1.392664	0	0
479.831329	0.792161	city	3	1	0.893295	0.893295	0	1	0	0	CorrectCommission	1.769407	1.465343	0	0
480.623535	0.792261	mountain	2	0	0.000000	0.963125	1	0	0	0	CorrectOmission	2.515217	1.523972	0	0
481.415833	0.792329	city	4	1	1.013319	1.013319	0	1	0	0	CorrectCommission	3.051316	1.565199	0	0
482.208099	0.792200	city	6	1	1.042619	1.042619	0	1	0	0	CorrectCommission	3.364257	1.586839	0	0
483.000336	0.792267	city	7	1	1.002459	1.002459	0	1	0	0	CorrectCommission	2.935326	1.588168	0	0
483.792603	0.792291	city	4	1	0.843797	0.843797	0	1	0	0	CorrectCommission	1.240745	1.570017	0	0
484.584869	0.792240	city	9	1	0.699194	0.699194	0	1	0	0	CorrectCommission	0.303687	1.534656	0	0
485.377136	0.792319	city	3	1	0.664443	0.664443	0	1	0	0	CorrectCommission	0.674843	1.485504	0	0
486.169403	0.792206	city	8	1	0.607765	0.607765	0	1	0	0	CorrectCommission	1.280191	1.426758	0	0
486.961700	0.792344	city	1	1	0.600003	0.600003	0	1	0	0	CorrectCommission	1.363101	1.363101	0	0
