onset	duration	trial_type	image_type	Press	ReactionTime	ReactionTime_Interpolated	CorrectOmission	CorrectCommission	CommissionError	OmissionError	response_type	nonsmoothVarianceTimeCourse	VarianceTimeCourse	In_the_Zone	Reward_trial
8.421732	0.795852	city	8	1	0.748113	0.748113	0	1	0	0	CorrectCommission	0.893428	0.893428	0	1
9.217545	0.795773	city	3	1	0.854928	0.854928	0	1	0	0	CorrectCommission	2.085784	0.887606	0	1
10.013315	0.795768	city	7	1	0.748178	0.748178	0	1	0	0	CorrectCommission	0.894150	0.882258	0	1
10.809155	0.795910	mountain	2	0	0.000000	0.745591	1	0	0	0	CorrectOmission	0.865269	0.877793	0	1
11.604956	0.795694	city	9	1	0.748465	0.748465	0	1	0	0	CorrectCommission	0.897355	0.874389	0	1
12.400703	0.795801	city	2	1	0.658100	0.658100	0	1	0	0	CorrectCommission	0.111380	0.871929	0	1
13.196530	0.795852	city	1	1	0.648651	0.648651	0	1	0	0	CorrectCommission	0.216854	0.870024	0	1
13.992332	0.795750	mountain	8	0	0.000000	0.732640	1	0	0	0	CorrectOmission	0.720702	0.867987	0	1
14.788109	0.795804	city	1	1	0.819520	0.819520	0	1	0	0	CorrectCommission	1.690529	0.864929	0	1
15.583928	0.795834	city	4	1	0.818744	0.818744	0	1	0	0	CorrectCommission	1.681866	0.859906	0	1
16.379726	0.795765	city	3	1	0.752733	0.752733	0	1	0	0	CorrectCommission	0.944999	0.852110	0	1
17.175510	0.795803	city	5	1	0.698640	0.698640	0	1	0	0	CorrectCommission	0.341161	0.841003	0	1
17.971346	0.795867	city	7	1	0.748126	0.748126	0	1	0	0	CorrectCommission	0.893566	0.826446	0	1
18.767202	0.795847	city	6	1	0.698453	0.698453	0	1	0	0	CorrectCommission	0.339082	0.808754	0	1
19.562975	0.795698	city	3	1	0.747996	0.747996	0	1	0	0	CorrectCommission	0.892118	0.788745	0	1
20.358776	0.795904	mountain	8	0	0.000000	0.797762	1	0	0	0	CorrectOmission	1.447650	0.767607	0	1
21.154573	0.795691	city	2	1	0.797849	0.797849	0	1	0	0	CorrectCommission	1.448623	0.746803	0	1
21.950331	0.795823	city	1	1	0.698355	0.698355	0	1	0	0	CorrectCommission	0.337981	0.727888	0	1
22.746134	0.795784	city	10	1	0.699922	0.699922	0	1	0	0	CorrectCommission	0.355479	0.712273	0	1
23.541925	0.795799	city	3	1	0.703972	0.703972	0	1	0	0	CorrectCommission	0.400689	0.700935	1	1
24.337835	0.796020	city	6	1	0.668788	0.668788	0	1	0	0	CorrectCommission	0.007937	0.694216	1	1
25.133694	0.795695	city	9	1	0.612474	0.612474	0	1	0	0	CorrectCommission	0.620687	0.691735	1	1
25.929386	0.795692	city	4	1	0.704046	0.704046	0	1	0	0	CorrectCommission	0.401512	0.692326	1	1
26.725241	0.796018	city	5	1	0.599567	0.599567	0	1	0	0	CorrectCommission	0.764770	0.694201	1	1
27.521044	0.795587	city	2	1	0.607967	0.607967	0	1	0	0	CorrectCommission	0.671008	0.695239	1	1
28.316847	0.796017	city	8	1	0.565939	0.565939	0	1	0	0	CorrectCommission	1.140156	0.693311	1	1
29.112797	0.795885	city	4	1	0.757389	0.757389	0	1	0	0	CorrectCommission	0.996973	0.686611	1	1
29.908489	0.795498	city	5	1	0.765915	0.765915	0	1	0	0	CorrectCommission	1.092143	0.674000	1	1
30.704193	0.795912	city	1	1	0.797841	0.797841	0	1	0	0	CorrectCommission	1.448528	0.655151	1	1
31.499994	0.795692	city	6	1	0.748041	0.748041	0	1	0	0	CorrectCommission	0.892625	0.630609	1	1
32.295853	0.796021	city	4	1	0.651375	0.651375	0	1	0	0	CorrectCommission	0.186446	0.601682	1	1
33.091763	0.795801	city	6	1	0.661904	0.661904	0	1	0	0	CorrectCommission	0.068908	0.570221	1	1
33.887455	0.795585	city	8	1	0.648544	0.648544	0	1	0	0	CorrectCommission	0.218045	0.538336	1	1
34.683258	0.796019	city	2	1	0.612567	0.612567	0	1	0	0	CorrectCommission	0.619655	0.508125	1	1
35.479088	0.795642	city	10	1	0.651036	0.651036	0	1	0	0	CorrectCommission	0.190233	0.481412	1	1
36.274780	0.795740	city	1	1	0.698312	0.698312	0	1	0	0	CorrectCommission	0.337508	0.459601	1	1
37.070660	0.796021	city	4	1	0.748076	0.748076	0	1	0	0	CorrectCommission	0.893007	0.443600	1	1
37.866463	0.795582	city	3	1	0.698146	0.698146	0	1	0	0	CorrectCommission	0.335650	0.433798	1	1
38.662266	0.796022	city	6	1	0.660388	0.660388	0	1	0	0	CorrectCommission	0.085834	0.430126	1	1
39.458176	0.795801	city	5	1	0.648909	0.648909	0	1	0	0	CorrectCommission	0.213976	0.432181	1	1
40.253922	0.795693	city	10	1	0.648359	0.648359	0	1	0	0	CorrectCommission	0.220108	0.439310	1	1
41.049644	0.795749	city	4	1	0.699308	0.699308	0	1	0	0	CorrectCommission	0.348621	0.450740	1	1
41.845501	0.795962	city	2	1	0.698283	0.698283	0	1	0	0	CorrectCommission	0.337182	0.465706	1	1
42.641327	0.795692	city	6	1	0.763355	0.763355	0	1	0	0	CorrectCommission	1.063569	0.483532	1	1
43.437130	0.795913	city	5	1	0.600761	0.600761	0	1	0	0	CorrectCommission	0.751441	0.503669	1	1
44.232880	0.795585	city	6	1	0.701206	0.701206	0	1	0	0	CorrectCommission	0.369809	0.525703	1	1
45.028679	0.796017	city	9	1	0.700877	0.700877	0	1	0	0	CorrectCommission	0.366142	0.549306	1	1
45.824478	0.795583	city	5	1	0.653603	0.653603	0	1	0	0	CorrectCommission	0.161572	0.574120	1	1
46.620171	0.795803	city	6	1	0.748130	0.748130	0	1	0	0	CorrectCommission	0.893613	0.599650	1	1
47.415974	0.795803	mountain	1	0	0.000000	0.746890	1	0	0	0	CorrectOmission	0.879774	0.625157	1	1
48.211777	0.795797	city	1	1	0.698429	0.698429	0	1	0	0	CorrectCommission	0.338814	0.649625	1	1
49.007683	0.796022	city	6	1	0.651293	0.651293	0	1	0	0	CorrectCommission	0.187362	0.671790	1	1
49.803596	0.795803	city	5	1	0.602831	0.602831	0	1	0	0	CorrectCommission	0.728337	0.690231	1	1
50.599308	0.795616	city	10	1	0.562671	0.562671	0	1	0	0	CorrectCommission	1.176639	0.703504	1	1
51.395000	0.795771	mountain	7	0	0.000000	0.679417	1	0	0	0	CorrectOmission	0.126578	0.710378	1	1
52.190784	0.795799	mountain	8	0	0.000000	0.821506	1	0	0	0	CorrectOmission	1.712696	0.710059	1	1
52.986694	0.796021	city	2	1	0.857375	0.857375	0	1	0	0	CorrectCommission	2.113098	0.702303	1	1
53.782604	0.795801	mountain	7	1	0.655461	0.655461	0	0	1	0	CommissionError	0.140834	0.687559	1	1
54.578407	0.795801	city	9	1	0.610744	0.610744	0	1	0	0	CorrectCommission	0.640003	0.666960	1	1
55.374104	0.795594	city	1	1	0.607924	0.607924	0	1	0	0	CorrectCommission	0.671479	0.642112	1	1
56.169796	0.795790	city	2	1	0.648592	0.648592	0	1	0	0	CorrectCommission	0.217514	0.614966	1	1
56.965595	0.795807	city	9	1	0.652710	0.652710	0	1	0	0	CorrectCommission	0.171542	0.587564	1	1
57.761505	0.796017	city	3	1	0.607974	0.607974	0	1	0	0	CorrectCommission	0.670924	0.561831	1	1
58.557308	0.795588	city	6	1	0.612891	0.612891	0	1	0	0	CorrectCommission	0.616038	0.539391	1	1
59.353001	0.795796	city	4	1	0.653189	0.653189	0	1	0	0	CorrectCommission	0.166193	0.521488	1	1
60.148907	0.796022	city	10	1	0.612944	0.612944	0	1	0	0	CorrectCommission	0.615449	0.508916	1	1
60.944721	0.795603	city	3	1	0.757361	0.757361	0	1	0	0	CorrectCommission	0.996655	0.502037	1	1
61.740520	0.795999	city	2	1	0.654162	0.654162	0	1	0	0	CorrectCommission	0.155341	0.500840	1	1
62.536312	0.795582	city	1	1	0.663163	0.663163	0	1	0	0	CorrectCommission	0.054854	0.504991	1	1
63.332005	0.795804	city	7	1	0.665697	0.665697	0	1	0	0	CorrectCommission	0.026577	0.513905	1	1
64.127808	0.795801	city	9	1	0.698375	0.698375	0	1	0	0	CorrectCommission	0.338206	0.526820	1	1
64.923607	0.795798	city	8	1	0.558485	0.558485	0	1	0	0	CorrectCommission	1.223363	0.542884	1	1
65.719414	0.795805	city	1	1	0.598901	0.598901	0	1	0	0	CorrectCommission	0.772210	0.561228	1	1
66.515213	0.795800	city	8	1	0.608615	0.608615	0	1	0	0	CorrectCommission	0.663774	0.581073	1	1
67.311012	0.795807	city	7	1	0.659657	0.659657	0	1	0	0	CorrectCommission	0.093995	0.601714	1	1
68.106834	0.795824	city	4	0	0.000000	0.721624	0	0	0	1	OmissionError	0.597737	0.622535	1	0
68.902634	0.795783	mountain	4	0	0.000000	0.762061	1	0	0	0	CorrectOmission	1.049121	0.642990	1	0
69.698425	0.795796	city	8	1	0.748510	0.748510	0	1	0	0	CorrectCommission	0.897854	0.662576	1	0
70.494331	0.796017	city	1	1	0.648516	0.648516	0	1	0	0	CorrectCommission	0.218364	0.680804	1	0
71.290184	0.795693	city	8	1	0.617526	0.617526	0	1	0	0	CorrectCommission	0.564302	0.697236	1	0
72.085876	0.795692	city	3	1	0.698258	0.698258	0	1	0	0	CorrectCommission	0.336900	0.711456	0	0
72.881622	0.795804	city	5	1	0.760013	0.760013	0	1	0	0	CorrectCommission	1.026263	0.723154	0	0
73.677483	0.795910	mountain	6	0	0.000000	0.795331	1	0	0	0	CorrectOmission	1.420514	0.732162	0	0
74.473282	0.795690	city	4	1	0.769875	0.769875	0	1	0	0	CorrectCommission	1.136350	0.738522	0	0
75.269058	0.795862	city	6	1	0.649307	0.649307	0	1	0	0	CorrectCommission	0.209534	0.742501	0	0
76.064919	0.795851	mountain	7	0	0.000000	0.728258	1	0	0	0	CorrectOmission	0.671784	0.744560	0	0
76.860687	0.795692	city	7	1	0.797717	0.797717	0	1	0	0	CorrectCommission	1.447144	0.745251	0	0
77.656433	0.795802	city	3	1	0.648672	0.648672	0	1	0	0	CorrectCommission	0.216614	0.745088	0	0
78.452240	0.795805	city	7	1	0.615566	0.615566	0	1	0	0	CorrectCommission	0.586171	0.744471	0	0
79.248039	0.795801	city	9	1	0.609562	0.609562	0	1	0	0	CorrectCommission	0.653193	0.743505	0	0
80.043892	0.795909	city	8	1	0.606281	0.606281	0	1	0	0	CorrectCommission	0.689823	0.741993	0	0
80.839699	0.795692	city	1	1	0.648632	0.648632	0	1	0	0	CorrectCommission	0.217062	0.739454	0	0
81.635551	0.796019	city	3	1	0.564517	0.564517	0	1	0	0	CorrectCommission	1.156034	0.735204	0	0
82.431404	0.795694	city	9	1	0.553993	0.553993	0	1	0	0	CorrectCommission	1.273504	0.728484	0	0
83.227104	0.795693	city	3	1	0.603190	0.603190	0	1	0	0	CorrectCommission	0.724330	0.718731	0	0
84.022957	0.796019	city	4	1	0.698763	0.698763	0	1	0	0	CorrectCommission	0.342543	0.705717	1	0
84.818787	0.795641	city	1	1	0.561014	0.561014	0	1	0	0	CorrectCommission	1.195136	0.689687	1	0
85.614532	0.795852	mountain	3	0	0.000000	0.565396	1	0	0	0	CorrectOmission	1.146218	0.671372	1	0
86.410309	0.795694	city	8	1	0.648828	0.648828	0	1	0	0	CorrectCommission	0.214883	0.652002	1	0
87.206055	0.795802	city	7	1	0.748226	0.748226	0	1	0	0	CorrectCommission	0.894690	0.633164	1	0
88.001854	0.795800	city	1	1	0.601990	0.601990	0	1	0	0	CorrectCommission	0.737725	0.616538	1	0
88.797653	0.795801	city	6	1	0.698369	0.698369	0	1	0	0	CorrectCommission	0.338135	0.603659	1	0
89.593460	0.795803	city	9	1	0.666584	0.666584	0	1	0	0	CorrectCommission	0.016667	0.595670	1	0
90.389259	0.795802	city	3	1	0.648632	0.648632	0	1	0	0	CorrectCommission	0.217069	0.593074	1	0
91.185066	0.795804	city	7	1	0.665600	0.665600	0	1	0	0	CorrectCommission	0.027653	0.595649	1	0
91.980865	0.795802	city	9	1	0.605432	0.605432	0	1	0	0	CorrectCommission	0.699302	0.602455	1	0
92.776665	0.795798	city	8	1	0.598977	0.598977	0	1	0	0	CorrectCommission	0.771362	0.611974	1	0
93.572517	0.795911	city	1	1	0.558487	0.558487	0	1	0	0	CorrectCommission	1.223345	0.622338	1	0
94.368378	0.795802	mountain	7	0	0.000000	0.638198	1	0	0	0	CorrectOmission	0.333543	0.631600	1	0
95.164177	0.795801	city	10	1	0.747986	0.747986	0	1	0	0	CorrectCommission	0.892003	0.638084	1	0
95.959923	0.795694	city	2	1	0.797727	0.797727	0	1	0	0	CorrectCommission	1.447253	0.640536	1	0
96.755730	0.795910	city	6	1	0.656090	0.656090	0	1	0	0	CorrectCommission	0.133816	0.638355	1	0
97.551529	0.795692	city	1	1	0.657814	0.657814	0	1	0	0	CorrectCommission	0.114569	0.631663	1	0
98.347275	0.795800	city	4	1	0.549115	0.549115	0	1	0	0	CorrectCommission	1.327962	0.621258	1	0
99.143074	0.795802	mountain	2	0	0.000000	0.557046	1	0	0	0	CorrectOmission	1.239426	0.608446	1	0
99.938934	0.795913	city	10	1	0.616200	0.616200	0	1	0	0	CorrectCommission	0.579104	0.594902	1	0
100.734734	0.795692	city	2	1	0.661167	0.661167	0	1	0	0	CorrectCommission	0.077135	0.582430	1	0
101.530510	0.795850	city	7	1	0.655096	0.655096	0	1	0	0	CorrectCommission	0.144905	0.572688	1	0
102.326309	0.795753	city	6	1	0.612734	0.612734	0	1	0	0	CorrectCommission	0.617786	0.566938	1	0
103.122139	0.795911	city	10	1	0.649377	0.649377	0	1	0	0	CorrectCommission	0.208755	0.565877	1	0
103.917938	0.795692	city	4	1	0.648687	0.648687	0	1	0	0	CorrectCommission	0.216448	0.569618	1	0
104.713745	0.795913	city	8	1	0.608035	0.608035	0	1	0	0	CorrectCommission	0.670244	0.577664	1	0
105.509544	0.795689	city	4	1	0.648505	0.648505	0	1	0	0	CorrectCommission	0.218480	0.589057	1	0
106.305397	0.796022	city	1	1	0.561786	0.561786	0	1	0	0	CorrectCommission	1.186519	0.602566	1	0
107.101257	0.795692	city	3	1	0.598685	0.598685	0	1	0	0	CorrectCommission	0.774616	0.616857	1	0
107.896950	0.795690	city	10	1	0.598907	0.598907	0	1	0	0	CorrectCommission	0.772140	0.630731	1	0
108.692696	0.795804	city	5	1	0.622542	0.622542	0	1	0	0	CorrectCommission	0.508304	0.643229	1	0
109.488495	0.795801	city	10	1	0.748130	0.748130	0	1	0	0	CorrectCommission	0.893615	0.653704	1	0
110.284302	0.795807	city	5	1	0.748125	0.748125	0	1	0	0	CorrectCommission	0.893557	0.661813	1	0
111.080215	0.796016	city	1	1	0.657604	0.657604	0	1	0	0	CorrectCommission	0.116918	0.667442	1	0
111.876015	0.795590	city	8	1	0.567694	0.567694	0	1	0	0	CorrectCommission	1.120567	0.670652	1	0
112.671707	0.795794	city	7	1	0.648613	0.648613	0	1	0	0	CorrectCommission	0.217275	0.671502	1	0
113.467506	0.795802	city	9	1	0.752837	0.752837	0	1	0	0	CorrectCommission	0.946154	0.670021	1	0
114.263306	0.795802	city	8	1	0.602934	0.602934	0	1	0	0	CorrectCommission	0.727189	0.666151	1	0
115.059113	0.795802	city	6	1	0.648857	0.648857	0	1	0	0	CorrectCommission	0.214556	0.659785	1	0
115.854965	0.795910	city	3	1	0.602560	0.602560	0	1	0	0	CorrectCommission	0.731358	0.650787	1	0
116.650764	0.795693	city	9	1	0.558815	0.558815	0	1	0	0	CorrectCommission	1.219682	0.639081	1	0
117.446625	0.796019	city	4	1	0.556504	0.556504	0	1	0	0	CorrectCommission	1.245480	0.624782	1	0
118.242424	0.795582	city	5	1	0.651738	0.651738	0	1	0	0	CorrectCommission	0.182393	0.608275	1	0
119.038132	0.795834	city	1	1	0.652229	0.652229	0	1	0	0	CorrectCommission	0.176917	0.590290	1	0
119.834045	0.795989	city	8	1	0.698345	0.698345	0	1	0	0	CorrectCommission	0.337874	0.571896	1	0
120.629868	0.795658	city	3	1	0.555335	0.555335	0	1	0	0	CorrectCommission	1.258525	0.554530	1	0
121.425560	0.795726	city	5	1	0.602282	0.602282	0	1	0	0	CorrectCommission	0.734467	0.539871	1	0
122.221336	0.795829	city	1	1	0.649034	0.649034	0	1	0	0	CorrectCommission	0.212575	0.529810	1	0
123.017250	0.795994	city	10	1	0.698364	0.698364	0	1	0	0	CorrectCommission	0.338088	0.526287	1	0
123.813042	0.795587	city	5	1	0.654705	0.654705	0	1	0	0	CorrectCommission	0.149279	0.531063	1	0
124.608788	0.795906	city	9	1	0.653532	0.653532	0	1	0	0	CorrectCommission	0.162371	0.545556	1	0
125.404587	0.795691	city	10	1	0.598803	0.598803	0	1	0	0	CorrectCommission	0.773298	0.570619	1	0
126.200356	0.795846	city	3	1	0.648964	0.648964	0	1	0	0	CorrectCommission	0.213364	0.606364	1	0
126.996178	0.795808	city	8	1	0.620184	0.620184	0	1	0	0	CorrectCommission	0.534623	0.652016	1	0
127.791962	0.795758	city	10	1	0.714186	0.714186	0	1	0	0	CorrectCommission	0.514699	0.705844	1	1
128.587769	0.795846	city	9	1	0.655389	0.655389	0	1	0	0	CorrectCommission	0.141643	0.765231	0	1
129.383560	0.795749	city	1	1	0.598908	0.598908	0	1	0	0	CorrectCommission	0.772124	0.826788	0	1
130.179398	0.795913	city	4	1	0.558621	0.558621	0	1	0	0	CorrectCommission	1.221844	0.886618	0	1
130.975189	0.795691	city	2	1	0.598814	0.598814	0	1	0	0	CorrectCommission	0.773178	0.940642	0	1
131.770966	0.795857	city	7	1	0.558801	0.558801	0	1	0	0	CorrectCommission	1.219837	0.985026	0	1
132.566803	0.795793	city	9	1	0.507047	0.507047	0	1	0	0	CorrectCommission	1.797556	1.016566	0	1
133.362564	0.795756	city	1	1	0.511092	0.511092	0	1	0	0	CorrectCommission	1.752399	1.033013	0	1
134.158356	0.795828	city	4	1	0.551974	0.551974	0	1	0	0	CorrectCommission	1.296045	1.033338	0	1
134.954163	0.795779	mountain	4	1	0.513764	0.513764	0	0	1	0	CommissionError	1.722579	1.017808	0	1
135.749954	0.795796	mountain	6	1	0.469711	0.469711	0	0	1	0	CommissionError	2.214328	0.987904	0	1
136.545761	0.795830	city	9	1	0.663573	0.663573	0	1	0	0	CorrectCommission	0.050278	0.946097	0	1
137.341568	0.795773	mountain	5	0	0.000000	0.663485	1	0	0	0	CorrectOmission	0.051261	0.895614	0	1
138.137360	0.795802	city	8	1	0.598798	0.598798	0	1	0	0	CorrectCommission	0.773356	0.839993	0	1
138.933167	0.795804	city	10	1	0.598862	0.598862	0	1	0	0	CorrectCommission	0.772642	0.782843	0	1
139.728958	0.795801	city	9	1	0.608274	0.608274	0	1	0	0	CorrectCommission	0.667572	0.727625	0	1
140.524765	0.795800	city	2	1	0.606160	0.606160	0	1	0	0	CorrectCommission	0.691174	0.677433	1	1
141.320557	0.795801	city	7	1	0.798437	0.798437	0	1	0	0	CorrectCommission	1.455184	0.634907	1	1
142.116425	0.795910	city	10	1	0.664528	0.664528	0	1	0	0	CorrectCommission	0.039623	0.602128	1	1
142.912216	0.795692	city	1	1	0.655708	0.655708	0	1	0	0	CorrectCommission	0.138073	0.580570	1	1
143.708023	0.795912	city	7	1	0.648630	0.648630	0	1	0	0	CorrectCommission	0.217093	0.571002	1	1
144.503830	0.795692	city	4	1	0.654202	0.654202	0	1	0	0	CorrectCommission	0.154891	0.573432	1	1
145.299576	0.795806	city	2	1	0.709900	0.709900	0	1	0	0	CorrectCommission	0.466861	0.587102	1	1
146.095428	0.795907	mountain	4	0	0.000000	0.673635	1	0	0	0	CorrectOmission	0.062039	0.610524	1	1
146.891235	0.795694	city	3	1	0.655570	0.655570	0	1	0	0	CorrectCommission	0.139613	0.641606	1	1
147.686981	0.795798	city	4	1	0.765871	0.765871	0	1	0	0	CorrectCommission	1.091652	0.677832	1	1
148.482834	0.795913	city	3	1	0.606593	0.606593	0	1	0	0	CorrectCommission	0.686345	0.716525	0	1
149.278656	0.795727	city	8	1	0.551412	0.551412	0	1	0	0	CorrectCommission	1.302321	0.755115	0	1
150.074432	0.795841	mountain	1	1	0.549175	0.549175	0	0	1	0	CommissionError	1.327290	0.791350	0	1
150.870239	0.795762	city	3	1	0.549088	0.549088	0	1	0	0	CorrectCommission	1.328258	0.823457	0	1
151.666016	0.795801	city	10	1	0.599784	0.599784	0	1	0	0	CorrectCommission	0.762346	0.850229	0	1
152.461807	0.795768	city	1	1	0.614181	0.614181	0	1	0	0	CorrectCommission	0.601642	0.870987	0	1
153.257690	0.796021	city	5	1	0.652668	0.652668	0	1	0	0	CorrectCommission	0.172016	0.885504	0	1
154.053497	0.795585	city	1	1	0.748027	0.748027	0	1	0	0	CorrectCommission	0.892461	0.893964	0	1
154.849243	0.795909	city	5	1	0.797902	0.797902	0	1	0	0	CorrectCommission	1.449209	0.896818	0	1
155.645065	0.795725	city	4	1	0.751473	0.751473	0	1	0	0	CorrectCommission	0.930930	0.894736	0	1
156.440811	0.795771	mountain	8	0	0.000000	0.791556	1	0	0	0	CorrectOmission	1.378368	0.888583	0	1
157.236603	0.795804	city	2	1	0.811692	0.811692	0	1	0	0	CorrectCommission	1.603141	0.879361	0	1
158.032394	0.795797	city	10	1	0.705422	0.705422	0	1	0	0	CorrectCommission	0.416869	0.868087	0	1
158.828308	0.796021	city	5	1	0.600758	0.600758	0	1	0	0	CorrectCommission	0.751472	0.855722	0	1
159.624222	0.795801	city	9	1	0.648383	0.648383	0	1	0	0	CorrectCommission	0.219849	0.843041	0	1
160.419907	0.795585	city	5	1	0.598660	0.598660	0	1	0	0	CorrectCommission	0.774901	0.830555	0	1
161.215714	0.796019	city	9	1	0.598906	0.598906	0	1	0	0	CorrectCommission	0.772151	0.818429	0	1
162.011505	0.795583	city	3	1	0.602643	0.602643	0	1	0	0	CorrectCommission	0.730439	0.806530	0	1
162.807220	0.795836	city	1	1	0.599155	0.599155	0	1	0	0	CorrectCommission	0.769365	0.794499	0	1
163.603043	0.795794	city	5	1	0.551921	0.551921	0	1	0	0	CorrectCommission	1.296632	0.781904	0	1
164.398819	0.795778	city	2	1	0.698934	0.698934	0	1	0	0	CorrectCommission	0.344450	0.768378	0	1
165.194611	0.795797	city	10	1	0.551948	0.551948	0	1	0	0	CorrectCommission	1.296339	0.753761	0	1
165.990463	0.795914	city	2	1	0.748214	0.748214	0	1	0	0	CorrectCommission	0.894550	0.738137	0	1
166.786331	0.795801	mountain	9	0	0.000000	0.771012	1	0	0	0	CorrectOmission	1.149037	0.721881	0	1
167.582077	0.795694	city	2	1	0.698256	0.698256	0	1	0	0	CorrectCommission	0.336881	0.705537	1	1
168.377823	0.795797	city	10	1	0.607863	0.607863	0	1	0	0	CorrectCommission	0.672163	0.689689	1	1
169.173615	0.795802	city	1	1	0.716305	0.716305	0	1	0	0	CorrectCommission	0.538352	0.674798	1	1
169.969528	0.796021	city	6	1	0.664928	0.664928	0	1	0	0	CorrectCommission	0.035162	0.661073	1	1
170.765442	0.795802	city	1	1	0.666132	0.666132	0	1	0	0	CorrectCommission	0.021715	0.648443	1	1
171.561127	0.795587	city	5	1	0.666708	0.666708	0	1	0	0	CorrectCommission	0.015282	0.636567	1	1
172.356827	0.795802	city	6	1	0.897449	0.897449	0	1	0	0	CorrectCommission	2.560433	0.625001	1	1
173.152679	0.795906	city	7	1	0.752886	0.752886	0	1	0	0	CorrectCommission	0.946704	0.613268	1	1
173.948486	0.795695	city	9	1	0.698133	0.698133	0	1	0	0	CorrectCommission	0.335501	0.601206	1	1
174.744278	0.795909	mountain	4	0	0.000000	0.712655	1	0	0	0	CorrectOmission	0.497609	0.588986	1	1
175.540085	0.795695	city	10	1	0.709512	0.709512	0	1	0	0	CorrectCommission	0.462527	0.577189	1	1
176.335831	0.795800	city	5	1	0.601764	0.601764	0	1	0	0	CorrectCommission	0.740248	0.566765	1	1
177.131638	0.795810	city	4	1	0.651205	0.651205	0	1	0	0	CorrectCommission	0.188347	0.558934	1	1
177.927444	0.795794	city	6	1	0.648608	0.648608	0	1	0	0	CorrectCommission	0.217337	0.554997	1	1
178.723236	0.795799	mountain	7	0	0.000000	0.714517	1	0	0	0	CorrectOmission	0.518394	0.556130	1	1
179.519043	0.795803	city	8	1	0.748134	0.748134	0	1	0	0	CorrectCommission	0.893658	0.563204	1	1
180.314880	0.795873	city	5	1	0.648662	0.648662	0	1	0	0	CorrectCommission	0.216733	0.576605	1	1
181.110794	0.795947	city	1	1	0.651011	0.651011	0	1	0	0	CorrectCommission	0.190506	0.596138	1	1
181.906555	0.795584	mountain	3	0	0.000000	0.726244	1	0	0	0	CorrectOmission	0.649308	0.620958	1	1
182.702240	0.795802	city	2	1	0.766697	0.766697	0	1	0	0	CorrectCommission	1.100879	0.649536	1	1
183.498047	0.795804	city	9	1	0.664707	0.664707	0	1	0	0	CorrectCommission	0.037623	0.679791	1	1
184.293854	0.795819	city	1	1	0.602529	0.602529	0	1	0	0	CorrectCommission	0.731712	0.709241	1	1
185.089661	0.795786	city	9	1	0.652660	0.652660	0	1	0	0	CorrectCommission	0.172103	0.735261	0	1
185.885513	0.795908	city	7	1	0.606305	0.606305	0	1	0	0	CorrectCommission	0.689560	0.755380	0	1
186.681305	0.795693	city	3	1	0.559295	0.559295	0	1	0	0	CorrectCommission	1.214316	0.767592	0	1
187.477051	0.795801	city	7	1	0.953042	0.953042	0	1	0	0	CorrectCommission	3.181017	0.770691	0	0
188.272873	0.795841	city	5	1	0.714853	0.714853	0	1	0	0	CorrectCommission	0.522145	0.764428	0	0
189.068680	0.795763	city	1	1	0.606277	0.606277	0	1	0	0	CorrectCommission	0.689865	0.749741	0	0
189.864456	0.795799	city	5	1	0.598792	0.598792	0	1	0	0	CorrectCommission	0.773422	0.728492	0	0
190.660263	0.795808	city	4	1	0.648707	0.648707	0	1	0	0	CorrectCommission	0.216224	0.703421	1	0
191.456070	0.795797	city	7	1	0.654166	0.654166	0	1	0	0	CorrectCommission	0.155287	0.677828	1	0
192.251862	0.795803	city	9	1	0.599989	0.599989	0	1	0	0	CorrectCommission	0.760059	0.655198	1	0
193.047699	0.795859	city	8	1	0.609631	0.609631	0	1	0	0	CorrectCommission	0.652427	0.638845	1	0
193.843491	0.795742	mountain	3	0	0.000000	0.703567	1	0	0	0	CorrectOmission	0.396166	0.631611	1	0
194.639328	0.795913	city	2	1	0.757991	0.757991	0	1	0	0	CorrectCommission	1.003693	0.635580	1	0
195.435135	0.795692	city	5	1	0.649097	0.649097	0	1	0	0	CorrectCommission	0.211878	0.651812	1	0
196.230911	0.795861	city	2	1	0.652960	0.652960	0	1	0	0	CorrectCommission	0.168758	0.680227	1	0
197.026703	0.795744	city	10	1	0.648609	0.648609	0	1	0	0	CorrectCommission	0.217324	0.719485	0	0
197.822479	0.795802	city	6	1	0.667133	0.667133	0	1	0	0	CorrectCommission	0.010540	0.767115	0	0
198.618286	0.795800	city	5	1	0.604059	0.604059	0	1	0	0	CorrectCommission	0.714633	0.819689	0	0
199.414139	0.795907	city	1	1	0.648625	0.648625	0	1	0	0	CorrectCommission	0.217147	0.873157	0	0
200.209930	0.795693	city	4	1	0.465996	0.465996	0	1	0	0	CorrectCommission	2.255801	0.923332	0	0
201.005676	0.795802	city	6	1	0.509489	0.509489	0	1	0	0	CorrectCommission	1.770294	0.966336	0	0
201.801483	0.795803	city	5	1	0.549147	0.549147	0	1	0	0	CorrectCommission	1.327604	0.999119	0	0
202.597290	0.795802	city	9	1	0.518566	0.518566	0	1	0	0	CorrectCommission	1.668970	1.019764	0	0
203.393097	0.795803	city	10	1	0.560490	0.560490	0	1	0	0	CorrectCommission	1.200985	1.027638	0	0
204.188904	0.795839	city	1	1	0.566924	0.566924	0	1	0	0	CorrectCommission	1.129158	1.023429	0	0
204.984711	0.795763	city	2	1	0.611270	0.611270	0	1	0	0	CorrectCommission	0.634137	1.008898	0	0
205.780518	0.795861	city	7	1	0.549247	0.549247	0	1	0	0	CorrectCommission	1.326483	0.986683	0	0
206.576431	0.795959	mountain	10	0	0.000000	0.552972	1	0	0	0	CorrectOmission	1.284908	0.959832	0	0
207.372208	0.795592	mountain	9	0	0.000000	0.597523	1	0	0	0	CorrectOmission	0.787587	0.931416	0	0
208.168015	0.796009	city	4	1	0.657982	0.657982	0	1	0	0	CorrectCommission	0.112694	0.904221	0	0
208.963806	0.795585	mountain	7	0	0.000000	0.709429	1	0	0	0	CorrectOmission	0.461598	0.880443	0	0
209.759613	0.796019	city	2	1	0.748117	0.748117	0	1	0	0	CorrectCommission	0.893474	0.861523	0	0
210.555420	0.795585	mountain	8	0	0.000000	0.770302	1	0	0	0	CorrectOmission	1.141119	0.848118	0	0
211.351105	0.795800	city	3	1	0.748638	0.748638	0	1	0	0	CorrectCommission	0.899288	0.840152	0	0
212.147018	0.796019	city	4	1	0.655781	0.655781	0	1	0	0	CorrectCommission	0.137262	0.836978	0	0
212.942841	0.795636	city	3	1	0.556217	0.556217	0	1	0	0	CorrectCommission	1.248679	0.837523	0	0
213.738586	0.795858	city	5	1	0.599112	0.599112	0	1	0	0	CorrectCommission	0.769853	0.840493	0	0
214.534363	0.795696	city	8	1	0.598837	0.598837	0	1	0	0	CorrectCommission	0.772924	0.844623	0	0
215.330215	0.796016	city	4	1	0.609095	0.609095	0	1	0	0	CorrectCommission	0.658409	0.848796	0	0
216.126022	0.795582	city	9	1	0.565615	0.565615	0	1	0	0	CorrectCommission	1.143771	0.852184	0	0
216.921707	0.795804	city	1	1	0.549035	0.549035	0	1	0	0	CorrectCommission	1.328857	0.854322	0	0
217.717529	0.795814	city	7	1	0.564077	0.564077	0	1	0	0	CorrectCommission	1.160944	0.855076	0	0
218.513321	0.795786	city	5	1	0.604896	0.604896	0	1	0	0	CorrectCommission	0.705280	0.854615	0	0
219.309128	0.795807	city	8	1	0.705104	0.705104	0	1	0	0	CorrectCommission	0.413317	0.853292	0	0
220.104980	0.795907	city	9	1	0.648688	0.648688	0	1	0	0	CorrectCommission	0.216438	0.851496	0	0
220.900879	0.795910	mountain	4	0	0.000000	0.763526	1	0	0	0	CorrectOmission	1.065482	0.849507	0	0
221.696747	0.795801	city	10	1	0.847384	0.847384	0	1	0	0	CorrectCommission	2.001575	0.847376	0	0
222.492538	0.795802	city	8	1	0.698028	0.698028	0	1	0	0	CorrectCommission	0.334337	0.844868	0	0
223.288254	0.795609	city	5	1	0.598726	0.598726	0	1	0	0	CorrectCommission	0.774157	0.841482	0	0
224.084000	0.795886	city	1	1	0.662565	0.662565	0	1	0	0	CorrectCommission	0.061535	0.836416	0	0
224.879791	0.795689	city	2	1	0.601787	0.601787	0	1	0	0	CorrectCommission	0.739988	0.828761	0	0
225.675583	0.795911	city	3	1	0.549139	0.549139	0	1	0	0	CorrectCommission	1.327689	0.817637	0	0
226.471390	0.795693	mountain	9	1	0.606920	0.606920	0	0	1	0	CommissionError	0.682693	0.802400	0	0
227.267166	0.795875	mountain	10	1	0.459257	0.459257	0	0	1	0	CommissionError	2.331033	0.782838	0	0
228.062973	0.795732	city	10	1	0.648676	0.648676	0	1	0	0	CorrectCommission	0.216575	0.759233	0	0
228.858734	0.795798	city	1	1	0.603530	0.603530	0	1	0	0	CorrectCommission	0.720534	0.732556	0	0
229.654541	0.795806	mountain	9	1	0.555737	0.555737	0	0	1	0	CommissionError	1.254041	0.704243	1	0
230.450455	0.796017	city	7	1	0.651841	0.651841	0	1	0	0	CorrectCommission	0.181248	0.676114	1	0
231.246246	0.795585	mountain	4	0	0.000000	0.692114	1	0	0	0	CorrectOmission	0.268314	0.650194	1	0
232.041946	0.795802	city	7	1	0.705609	0.705609	0	1	0	0	CorrectCommission	0.418963	0.628456	1	0
232.837860	0.796018	mountain	1	0	0.000000	0.721380	1	0	0	0	CorrectOmission	0.595014	0.612553	1	0
233.633774	0.795801	city	2	1	0.711597	0.711597	0	1	0	0	CorrectCommission	0.485801	0.603727	1	0
234.429520	0.795692	city	8	1	0.648428	0.648428	0	1	0	0	CorrectCommission	0.219341	0.602707	1	0
235.225204	0.795694	city	10	1	0.605021	0.605021	0	1	0	0	CorrectCommission	0.703890	0.609701	1	0
236.020950	0.795802	city	2	1	0.666107	0.666107	0	1	0	0	CorrectCommission	0.022000	0.624465	1	0
236.816803	0.795910	city	3	1	0.611141	0.611141	0	1	0	0	CorrectCommission	0.635576	0.646424	1	0
237.612717	0.795910	city	7	1	0.553549	0.553549	0	1	0	0	CorrectCommission	1.278464	0.674743	1	0
238.408463	0.795587	mountain	9	0	0.000000	0.579284	1	0	0	0	CorrectOmission	0.991190	0.708428	1	0
239.204193	0.795859	mountain	1	0	0.000000	0.632587	1	0	0	0	CorrectOmission	0.396177	0.746405	0	0
240.000000	0.795754	city	5	1	0.657699	0.657699	0	1	0	0	CorrectCommission	0.115848	0.787577	0	0
240.795822	0.795898	city	1	1	0.598864	0.598864	0	1	0	0	CorrectCommission	0.772624	0.830768	0	0
241.591629	0.795726	city	2	1	0.556791	0.556791	0	1	0	0	CorrectCommission	1.242274	0.874723	0	0
242.387405	0.795807	city	4	1	0.748098	0.748098	0	1	0	0	CorrectCommission	0.893257	0.918081	0	0
243.183182	0.795762	city	2	1	0.599180	0.599180	0	1	0	0	CorrectCommission	0.769091	0.959416	0	0
243.978973	0.795804	city	4	1	0.848223	0.848223	0	1	0	0	CorrectCommission	2.010938	0.997267	0	0
244.774765	0.795798	city	8	1	0.648678	0.648678	0	1	0	0	CorrectCommission	0.216557	1.030130	0	0
245.570572	0.795803	city	5	1	0.599030	0.599030	0	1	0	0	CorrectCommission	0.770766	1.056717	0	0
246.366379	0.795802	city	1	1	0.573092	0.573092	0	1	0	0	CorrectCommission	1.060304	1.075926	0	0
247.162201	0.795844	city	10	1	0.951921	0.951921	0	1	0	0	CorrectCommission	3.168498	1.087007	0	1
247.957993	0.795761	city	1	1	0.648693	0.648693	0	1	0	0	CorrectCommission	0.216386	1.089647	0	1
248.753784	0.795801	mountain	2	0	0.000000	0.551469	1	0	0	0	CorrectOmission	1.301676	1.084136	0	1
249.549576	0.795801	city	6	1	0.566214	0.566214	0	1	0	0	CorrectCommission	1.137080	1.071196	0	1
250.345444	0.795911	city	3	1	0.598892	0.598892	0	1	0	0	CorrectCommission	0.772305	1.052055	0	1
251.141342	0.795911	city	7	1	0.549010	0.549010	0	1	0	0	CorrectCommission	1.329130	1.028345	0	1
251.937149	0.795692	city	8	1	0.549063	0.549063	0	1	0	0	CorrectCommission	1.328538	1.001911	0	1
252.732864	0.795743	city	7	1	0.565768	0.565768	0	1	0	0	CorrectCommission	1.142064	0.974680	0	1
253.528641	0.795804	city	5	1	0.610390	0.610390	0	1	0	0	CorrectCommission	0.643961	0.948466	0	1
254.324417	0.795750	city	6	1	0.710229	0.710229	0	1	0	0	CorrectCommission	0.470532	0.924788	0	1
255.120193	0.795803	city	1	1	0.599066	0.599066	0	1	0	0	CorrectCommission	0.770364	0.904707	0	1
255.916046	0.795908	city	4	1	0.599019	0.599019	0	1	0	0	CorrectCommission	0.770891	0.888752	0	1
256.711853	0.795694	city	6	1	0.598656	0.598656	0	1	0	0	CorrectCommission	0.774937	0.876901	0	1
257.507690	0.796019	city	10	1	0.698354	0.698354	0	1	0	0	CorrectCommission	0.337971	0.868652	0	1
258.303497	0.795587	city	8	1	0.555843	0.555843	0	1	0	0	CorrectCommission	1.252857	0.863121	0	1
259.099304	0.796016	city	1	1	0.553542	0.553542	0	1	0	0	CorrectCommission	1.278544	0.859190	0	1
259.895233	0.795800	city	8	1	0.598904	0.598904	0	1	0	0	CorrectCommission	0.772173	0.855766	0	1
260.691010	0.795802	city	2	1	0.598702	0.598702	0	1	0	0	CorrectCommission	0.774428	0.851905	0	1
261.486725	0.795600	city	7	1	0.599658	0.599658	0	1	0	0	CorrectCommission	0.763753	0.846929	0	1
262.282410	0.795785	city	3	1	0.748192	0.748192	0	1	0	0	CorrectCommission	0.894309	0.840531	0	1
263.078308	0.796020	city	10	1	0.798014	0.798014	0	1	0	0	CorrectCommission	1.450459	0.832770	0	1
263.874115	0.795583	mountain	3	0	0.000000	0.765387	1	0	0	0	CorrectOmission	1.086256	0.824058	0	1
264.669800	0.795802	city	2	1	0.701406	0.701406	0	1	0	0	CorrectCommission	0.372037	0.815048	0	1
265.465607	0.795807	city	3	1	0.657161	0.657161	0	1	0	0	CorrectCommission	0.121858	0.806622	0	1
266.261414	0.795802	city	8	1	0.557599	0.557599	0	1	0	0	CorrectCommission	1.233254	0.799732	0	1
267.057281	0.795907	city	10	1	0.648610	0.648610	0	1	0	0	CorrectCommission	0.217316	0.795288	0	1
267.853180	0.795911	city	1	1	0.565925	0.565925	0	1	0	0	CorrectCommission	1.140313	0.794170	0	1
268.648926	0.795580	city	9	1	0.601136	0.601136	0	1	0	0	CorrectCommission	0.747255	0.797094	0	1
269.444611	0.795807	city	8	1	0.574702	0.574702	0	1	0	0	CorrectCommission	1.042334	0.804609	0	1
270.240479	0.795907	city	5	1	0.598897	0.598897	0	1	0	0	CorrectCommission	0.772247	0.817003	0	1
271.036285	0.795694	city	10	1	0.766399	0.766399	0	1	0	0	CorrectCommission	1.097548	0.834244	0	1
271.832062	0.795860	city	8	1	0.648586	0.648586	0	1	0	0	CorrectCommission	0.217580	0.855853	0	1
272.627869	0.795758	city	5	1	0.598842	0.598842	0	1	0	0	CorrectCommission	0.772865	0.880905	0	1
273.423676	0.795893	city	3	1	0.657465	0.657465	0	1	0	0	CorrectCommission	0.118467	0.907932	0	1
274.219482	0.795694	city	10	1	0.655090	0.655090	0	1	0	0	CorrectCommission	0.144978	0.935100	0	1
275.015228	0.795803	city	6	1	0.847706	0.847706	0	1	0	0	CorrectCommission	2.005169	0.960337	0	1
275.811066	0.795837	city	4	1	0.798038	0.798038	0	1	0	0	CorrectCommission	1.450731	0.981557	0	1
276.606842	0.795764	city	3	1	0.852908	0.852908	0	1	0	0	CorrectCommission	2.063236	0.997003	0	1
277.402740	0.796020	city	1	1	0.758059	0.758059	0	1	0	0	CorrectCommission	1.004451	1.005403	0	1
278.198608	0.795693	city	8	1	0.610758	0.610758	0	1	0	0	CorrectCommission	0.639845	1.006208	0	1
278.994293	0.795695	city	5	1	0.558927	0.558927	0	1	0	0	CorrectCommission	1.218424	0.999563	0	1
279.790039	0.795812	city	2	1	0.748104	0.748104	0	1	0	0	CorrectCommission	0.893323	0.986276	0	1
280.585846	0.795790	mountain	10	1	0.607944	0.607944	0	0	1	0	CommissionError	0.671256	0.967692	0	1
281.381653	0.795804	mountain	6	1	0.499406	0.499406	0	0	1	0	CommissionError	1.882849	0.945472	0	1
282.177551	0.796016	mountain	5	0	0.000000	0.566104	1	0	0	0	CorrectOmission	1.138311	0.921335	0	1
282.973389	0.795646	city	6	1	0.652548	0.652548	0	1	0	0	CorrectCommission	0.173353	0.896924	0	1
283.769073	0.795739	city	9	1	0.603247	0.603247	0	1	0	0	CorrectCommission	0.723686	0.873544	0	1
284.564850	0.795804	city	4	1	0.648604	0.648604	0	1	0	0	CorrectCommission	0.217380	0.852090	0	1
285.360748	0.796019	city	2	1	0.608636	0.608636	0	1	0	0	CorrectCommission	0.663537	0.833003	0	1
286.156586	0.795608	city	10	1	0.559587	0.559587	0	1	0	0	CorrectCommission	1.211059	0.816311	0	1
286.952332	0.795884	mountain	8	0	0.000000	0.720213	1	0	0	0	CorrectOmission	0.581976	0.801721	0	1
287.748108	0.795697	city	8	1	0.847536	0.847536	0	1	0	0	CorrectCommission	2.003266	0.788767	0	1
288.543884	0.795852	city	6	1	0.698581	0.698581	0	1	0	0	CorrectCommission	0.340504	0.776850	0	1
289.339691	0.795747	city	2	1	0.602863	0.602863	0	1	0	0	CorrectCommission	0.727974	0.765484	0	1
290.135468	0.795809	mountain	8	0	0.000000	0.673245	1	0	0	0	CorrectOmission	0.057682	0.754130	0	1
290.931274	0.795794	city	1	1	0.768725	0.768725	0	1	0	0	CorrectCommission	1.123516	0.742383	0	1
291.727173	0.796021	city	6	1	0.748305	0.748305	0	1	0	0	CorrectCommission	0.895568	0.729882	0	1
292.522980	0.795583	city	3	1	0.655117	0.655117	0	1	0	0	CorrectCommission	0.144671	0.716364	0	1
293.318665	0.795803	city	10	1	0.563399	0.563399	0	1	0	0	CorrectCommission	1.168509	0.701783	1	1
294.114471	0.795802	mountain	5	0	0.000000	0.634979	1	0	0	0	CorrectOmission	0.369477	0.686286	1	1
294.910370	0.796017	city	7	1	0.748354	0.748354	0	1	0	0	CorrectCommission	0.896112	0.670409	1	1
295.706238	0.795692	mountain	7	0	0.000000	0.782022	1	0	0	0	CorrectOmission	1.271944	0.655036	1	1
296.501923	0.795693	city	5	1	0.748040	0.748040	0	1	0	0	CorrectCommission	0.892608	0.641385	1	1
297.297699	0.795879	city	1	1	0.658465	0.658465	0	1	0	0	CorrectCommission	0.107306	0.630920	1	1
298.093536	0.795784	city	7	1	0.612563	0.612563	0	1	0	0	CorrectCommission	0.619698	0.625160	1	1
298.889404	0.795962	city	3	1	0.659415	0.659415	0	1	0	0	CorrectCommission	0.096700	0.625358	1	1
299.685303	0.795801	city	7	1	0.605398	0.605398	0	1	0	0	CorrectCommission	0.699675	0.632295	1	1
300.480988	0.795582	city	4	1	0.698200	0.698200	0	1	0	0	CorrectCommission	0.336252	0.646022	1	1
301.276794	0.796020	city	9	1	0.711464	0.711464	0	1	0	0	CorrectCommission	0.484320	0.665708	1	1
302.072693	0.795802	city	4	1	0.701648	0.701648	0	1	0	0	CorrectCommission	0.374742	0.689630	1	1
302.868408	0.795587	city	8	1	0.663328	0.663328	0	1	0	0	CorrectCommission	0.053017	0.715318	0	1
303.664093	0.795798	city	3	1	0.657635	0.657635	0	1	0	0	CorrectCommission	0.116568	0.739875	0	1
304.459991	0.796019	city	2	1	0.901866	0.901866	0	1	0	0	CorrectCommission	2.609747	0.760394	0	1
305.255798	0.795587	city	5	1	0.698126	0.698126	0	1	0	0	CorrectCommission	0.335427	0.774297	0	1
306.051544	0.795907	city	8	1	0.853856	0.853856	0	1	0	0	CorrectCommission	2.073814	0.779997	0	1
306.847443	0.795910	city	3	1	0.802864	0.802864	0	1	0	0	CorrectCommission	1.504596	0.776948	0	0
307.643219	0.795583	city	10	1	0.707415	0.707415	0	1	0	0	CorrectCommission	0.439114	0.765911	0	0
308.438904	0.795806	city	6	1	0.764841	0.764841	0	1	0	0	CorrectCommission	1.080161	0.748816	0	0
309.234711	0.795802	city	8	1	0.649447	0.649447	0	1	0	0	CorrectCommission	0.207971	0.728444	0	0
310.030609	0.796018	city	4	1	0.717249	0.717249	0	1	0	0	CorrectCommission	0.548893	0.708097	1	0
310.826416	0.795581	city	5	1	0.702728	0.702728	0	1	0	0	CorrectCommission	0.386799	0.691050	1	0
311.622101	0.795803	city	6	1	0.707290	0.707290	0	1	0	0	CorrectCommission	0.437726	0.680190	1	0
312.417908	0.795805	city	1	1	0.649672	0.649672	0	1	0	0	CorrectCommission	0.205452	0.677614	1	0
313.213715	0.795798	city	5	1	0.610354	0.610354	0	1	0	0	CorrectCommission	0.644363	0.684383	1	0
314.009521	0.795806	city	9	1	0.618402	0.618402	0	1	0	0	CorrectCommission	0.554522	0.700451	1	0
314.805298	0.795797	city	6	1	0.698487	0.698487	0	1	0	0	CorrectCommission	0.339461	0.724732	0	0
315.601135	0.795876	city	3	1	0.748123	0.748123	0	1	0	0	CorrectCommission	0.893535	0.755232	0	0
316.397003	0.795835	city	4	1	0.607759	0.607759	0	1	0	0	CorrectCommission	0.673321	0.789308	0	0
317.192810	0.795805	city	9	1	0.598813	0.598813	0	1	0	0	CorrectCommission	0.773184	0.823983	0	0
317.988586	0.795741	mountain	10	0	0.000000	0.710116	1	0	0	0	CorrectOmission	0.469269	0.856267	0	0
318.784332	0.795754	mountain	8	0	0.000000	0.830886	1	0	0	0	CorrectOmission	1.817404	0.883438	0	0
319.580139	0.795846	city	6	1	0.850342	0.850342	0	1	0	0	CorrectCommission	2.034585	0.903250	0	0
320.376007	0.795862	city	3	1	0.657702	0.657702	0	1	0	0	CorrectCommission	0.115821	0.914143	0	0
321.171875	0.795913	city	7	1	0.557464	0.557464	0	1	0	0	CorrectCommission	1.234762	0.915341	0	0
321.967682	0.795693	city	4	1	0.554138	0.554138	0	1	0	0	CorrectCommission	1.271884	0.906698	0	0
322.763397	0.795744	city	6	1	0.606417	0.606417	0	1	0	0	CorrectCommission	0.688304	0.888837	0	0
323.559265	0.795968	city	7	1	0.549905	0.549905	0	1	0	0	CorrectCommission	1.319145	0.862891	0	0
324.355042	0.795582	mountain	5	0	0.000000	0.581705	1	0	0	0	CorrectOmission	0.964158	0.830444	0	0
325.150879	0.796076	mountain	1	0	0.000000	0.636339	1	0	0	0	CorrectOmission	0.354286	0.793470	0	0
325.946686	0.795530	city	1	1	0.648327	0.648327	0	1	0	0	CorrectCommission	0.220471	0.754191	0	0
326.742340	0.795801	city	10	1	0.552188	0.552188	0	1	0	0	CorrectCommission	1.293654	0.714971	0	0
327.538147	0.795800	city	7	1	0.798205	0.798205	0	1	0	0	CorrectCommission	1.452588	0.678209	1	0
328.333954	0.795804	city	9	1	0.648636	0.648636	0	1	0	0	CorrectCommission	0.217022	0.646219	1	0
329.129730	0.795802	city	7	1	0.698422	0.698422	0	1	0	0	CorrectCommission	0.338728	0.621073	1	0
329.925690	0.796071	city	6	1	0.701225	0.701225	0	1	0	0	CorrectCommission	0.370023	0.604358	1	0
330.721527	0.795636	city	4	1	0.648307	0.648307	0	1	0	0	CorrectCommission	0.220698	0.596995	1	0
331.517212	0.795697	city	10	1	0.662522	0.662522	0	1	0	0	CorrectCommission	0.062016	0.599081	1	0
332.313049	0.796018	city	5	1	0.658063	0.658063	0	1	0	0	CorrectCommission	0.111792	0.609809	1	0
333.108856	0.795587	city	7	1	0.747771	0.747771	0	1	0	0	CorrectCommission	0.889607	0.627457	1	0
333.904541	0.795801	city	2	1	0.705284	0.705284	0	1	0	0	CorrectCommission	0.415326	0.649533	1	0
334.700470	0.796016	mountain	6	0	0.000000	0.717959	1	0	0	0	CorrectOmission	0.556819	0.673069	1	0
335.496277	0.795586	city	10	1	0.747872	0.747872	0	1	0	0	CorrectCommission	0.890733	0.694932	1	0
336.291962	0.795802	city	7	1	0.757097	0.757097	0	1	0	0	CorrectCommission	0.993714	0.712187	0	0
337.087769	0.795798	city	4	1	0.748100	0.748100	0	1	0	0	CorrectCommission	0.893277	0.722471	0	0
337.883545	0.795801	city	9	1	0.909051	0.909051	0	1	0	0	CorrectCommission	2.689947	0.724292	0	0
338.679474	0.796021	city	3	1	0.666867	0.666867	0	1	0	0	CorrectCommission	0.013507	0.717121	0	0
339.475281	0.795585	city	9	1	0.648374	0.648374	0	1	0	0	CorrectCommission	0.219941	0.701544	1	0
340.271027	0.795909	city	3	1	0.598866	0.598866	0	1	0	0	CorrectCommission	0.772601	0.679087	1	0
341.066833	0.795695	mountain	7	1	0.551748	0.551748	0	0	1	0	CommissionError	1.298570	0.651967	1	0
341.862579	0.795805	city	5	1	0.660195	0.660195	0	1	0	0	CorrectCommission	0.087995	0.622887	1	0
342.658356	0.795797	city	4	1	0.753373	0.753373	0	1	0	0	CorrectCommission	0.952146	0.594744	1	0
343.454163	0.795801	city	2	1	0.698523	0.698523	0	1	0	0	CorrectCommission	0.339855	0.570251	1	0
344.249969	0.795802	city	7	1	0.649488	0.649488	0	1	0	0	CorrectCommission	0.207513	0.551714	1	0
345.045776	0.795805	city	2	1	0.648621	0.648621	0	1	0	0	CorrectCommission	0.217192	0.540774	1	0
345.841644	0.795907	city	1	1	0.648584	0.648584	0	1	0	0	CorrectCommission	0.217600	0.538291	1	0
346.637421	0.795691	city	4	1	0.648524	0.648524	0	1	0	0	CorrectCommission	0.218273	0.544250	1	0
347.433167	0.795801	city	5	1	0.608359	0.608359	0	1	0	0	CorrectCommission	0.666622	0.557785	1	0
348.228973	0.795805	city	2	1	0.698386	0.698386	0	1	0	0	CorrectCommission	0.338328	0.577273	1	0
349.024780	0.795804	city	1	1	0.715009	0.715009	0	1	0	0	CorrectCommission	0.523891	0.600531	1	0
349.820679	0.796016	mountain	6	0	0.000000	0.733197	1	0	0	0	CorrectOmission	0.726921	0.625003	1	0
350.616486	0.795594	city	2	1	0.747878	0.747878	0	1	0	0	CorrectCommission	0.890798	0.648012	1	0
351.412201	0.795791	city	6	1	0.753979	0.753979	0	1	0	0	CorrectCommission	0.958905	0.667026	1	0
352.207977	0.795803	city	5	1	0.761708	0.761708	0	1	0	0	CorrectCommission	1.045184	0.679877	1	0
353.003815	0.795861	city	4	1	0.698444	0.698444	0	1	0	0	CorrectCommission	0.338978	0.684958	1	0
353.799622	0.795744	city	2	1	0.604687	0.604687	0	1	0	0	CorrectCommission	0.707616	0.681406	1	0
354.595398	0.795823	city	5	1	0.702200	0.702200	0	1	0	0	CorrectCommission	0.380907	0.669182	1	0
355.391205	0.795777	city	6	1	0.906530	0.906530	0	1	0	0	CorrectCommission	2.661805	0.649115	1	0
356.186981	0.795803	city	8	1	0.698365	0.698365	0	1	0	0	CorrectCommission	0.338094	0.622824	1	0
356.982788	0.795804	city	9	1	0.698527	0.698527	0	1	0	0	CorrectCommission	0.339909	0.592662	1	0
357.778625	0.795853	mountain	10	0	0.000000	0.702151	1	0	0	0	CorrectOmission	0.380363	0.561386	1	0
358.574432	0.795749	city	5	1	0.703885	0.703885	0	1	0	0	CorrectCommission	0.399715	0.531895	1	0
359.370270	0.795911	city	3	1	0.698376	0.698376	0	1	0	0	CorrectCommission	0.338224	0.506971	1	0
360.166077	0.795754	city	10	1	0.648569	0.648569	0	1	0	0	CorrectCommission	0.217772	0.488912	1	0
360.961823	0.795740	city	3	1	0.648743	0.648743	0	1	0	0	CorrectCommission	0.215825	0.479324	1	0
361.757599	0.795805	city	1	1	0.659923	0.659923	0	1	0	0	CorrectCommission	0.091031	0.478950	1	0
362.553406	0.795812	city	5	1	0.656105	0.656105	0	1	0	0	CorrectCommission	0.133646	0.487620	1	0
363.349274	0.795897	city	2	1	0.698379	0.698379	0	1	0	0	CorrectCommission	0.338254	0.504280	1	0
364.145081	0.795695	city	10	1	0.608487	0.608487	0	1	0	0	CorrectCommission	0.665201	0.527185	1	0
364.940918	0.796017	city	6	1	0.698234	0.698234	0	1	0	0	CorrectCommission	0.336633	0.554145	1	0
365.736725	0.795616	city	9	1	0.747944	0.747944	0	1	0	0	CorrectCommission	0.891541	0.582800	1	0
366.532440	0.795806	mountain	8	0	0.000000	0.765120	1	0	0	0	CorrectOmission	1.083271	0.610928	1	1
367.328247	0.795790	city	3	1	0.748911	0.748911	0	1	0	0	CorrectCommission	0.902337	0.636741	1	1
368.124054	0.795808	city	10	1	0.698469	0.698469	0	1	0	0	CorrectCommission	0.339255	0.659084	1	1
368.919891	0.795880	city	9	1	0.698310	0.698310	0	1	0	0	CorrectCommission	0.337483	0.677629	1	1
369.715790	0.795912	city	4	1	0.614719	0.614719	0	1	0	0	CorrectCommission	0.595633	0.692930	1	1
370.511536	0.795584	city	8	1	0.499107	0.499107	0	1	0	0	CorrectCommission	1.886187	0.706379	1	1
371.307220	0.795802	city	4	1	0.798458	0.798458	0	1	0	0	CorrectCommission	1.455421	0.720058	0	1
372.103149	0.796018	city	8	1	0.666776	0.666776	0	1	0	0	CorrectCommission	0.014531	0.736543	0	1
372.898987	0.795697	city	5	1	0.702528	0.702528	0	1	0	0	CorrectCommission	0.384561	0.758440	0	1
373.694702	0.795689	city	8	1	0.663736	0.663736	0	1	0	0	CorrectCommission	0.048464	0.788051	0	1
374.490479	0.795868	city	5	1	0.755826	0.755826	0	1	0	0	CorrectCommission	0.979524	0.826986	0	1
375.286377	0.795953	city	3	1	0.698334	0.698334	0	1	0	0	CorrectCommission	0.337747	0.875824	0	1
376.082153	0.795586	city	5	1	0.698191	0.698191	0	1	0	0	CorrectCommission	0.336158	0.933982	0	1
376.877838	0.795802	city	6	1	0.755758	0.755758	0	1	0	0	CorrectCommission	0.978767	0.999653	0	1
377.673645	0.795797	city	5	1	0.797848	0.797848	0	1	0	0	CorrectCommission	1.448609	1.070001	0	1
378.469452	0.795805	city	3	1	0.652664	0.652664	0	1	0	0	CorrectCommission	0.172062	1.141493	0	1
379.265259	0.795802	city	7	1	0.748074	0.748074	0	1	0	0	CorrectCommission	0.892984	1.210407	0	1
380.061035	0.795799	city	1	1	0.897318	0.897318	0	1	0	0	CorrectCommission	2.558980	1.273239	0	1
380.856903	0.795909	city	10	1	0.810495	0.810495	0	1	0	0	CorrectCommission	1.589781	1.327196	0	1
381.652802	0.795913	city	4	1	0.909279	0.909279	0	1	0	0	CorrectCommission	2.692492	1.370538	0	1
382.448547	0.795584	city	7	1	0.946847	0.946847	0	1	0	0	CorrectCommission	3.111861	1.402708	0	1
383.244354	0.796018	city	3	1	0.748341	0.748341	0	1	0	0	CorrectCommission	0.895965	1.424301	0	1
384.040161	0.795598	city	5	1	0.648434	0.648434	0	1	0	0	CorrectCommission	0.219279	1.436895	0	1
384.835846	0.795789	mountain	2	0	0.000000	0.599177	1	0	0	0	CorrectOmission	0.769126	1.442671	0	1
385.631714	0.795908	city	4	1	0.648628	0.648628	0	1	0	0	CorrectCommission	0.217110	1.444108	0	1
386.427521	0.795697	mountain	8	0	0.000000	0.844846	1	0	0	0	CorrectOmission	1.973235	1.443730	0	1
387.223267	0.795831	city	9	1	0.963618	0.963618	0	1	0	0	CorrectCommission	3.299067	1.443815	0	1
388.019196	0.795986	mountain	5	0	0.000000	0.780732	1	0	0	0	CorrectOmission	1.257542	1.446276	0	1
388.814972	0.795587	city	7	1	0.555976	0.555976	0	1	0	0	CorrectCommission	1.251374	1.452618	0	1
389.610657	0.795798	city	8	1	0.549137	0.549137	0	1	0	0	CorrectCommission	1.327713	1.463743	0	1
390.406494	0.795891	city	3	1	0.515155	0.515155	0	1	0	0	CorrectCommission	1.707053	1.479791	0	1
391.202423	0.795933	city	9	1	0.551431	0.551431	0	1	0	0	CorrectCommission	1.302100	1.500089	0	1
391.998199	0.795617	city	4	1	0.648537	0.648537	0	1	0	0	CorrectCommission	0.218125	1.523013	0	1
392.793945	0.795874	city	9	1	0.607606	0.607606	0	1	0	0	CorrectCommission	0.675037	1.546131	0	1
393.589752	0.795724	city	4	1	0.598927	0.598927	0	1	0	0	CorrectCommission	0.771916	1.566394	0	1
394.385498	0.795771	city	5	1	0.449734	0.449734	0	1	0	0	CorrectCommission	2.437332	1.580608	0	1
395.181274	0.795805	city	3	1	0.412333	0.412333	0	1	0	0	CorrectCommission	2.854834	1.585889	0	1
395.977081	0.795803	city	5	1	0.312563	0.312563	0	1	0	0	CorrectCommission	3.968546	1.580246	0	1
396.772919	0.795858	mountain	8	1	0.549140	0.549140	0	0	1	0	CommissionError	1.327684	1.562866	0	1
397.568695	0.795741	city	7	1	0.847509	0.847509	0	1	0	0	CorrectCommission	2.002971	1.534311	0	1
398.364471	0.795802	city	5	1	0.797888	0.797888	0	1	0	0	CorrectCommission	1.449056	1.496273	0	1
399.160278	0.795804	city	1	1	0.598806	0.598806	0	1	0	0	CorrectCommission	0.773265	1.451252	0	1
399.956085	0.795804	city	9	1	0.698391	0.698391	0	1	0	0	CorrectCommission	0.338388	1.402000	0	1
400.751984	0.796015	city	6	1	0.556392	0.556392	0	1	0	0	CorrectCommission	1.246731	1.351025	0	1
401.547791	0.795595	city	5	1	0.511305	0.511305	0	1	0	0	CorrectCommission	1.750028	1.300104	0	1
402.343597	0.796008	city	9	1	0.553810	0.553810	0	1	0	0	CorrectCommission	1.275547	1.250049	0	1
403.139496	0.795802	city	8	1	0.598657	0.598657	0	1	0	0	CorrectCommission	0.774927	1.200725	0	1
403.935242	0.795693	city	7	1	0.706499	0.706499	0	1	0	0	CorrectCommission	0.428896	1.151213	0	1
404.730957	0.795695	city	5	1	0.549174	0.549174	0	1	0	0	CorrectCommission	1.327303	1.100175	0	1
405.526794	0.796018	mountain	4	1	0.610757	0.610757	0	0	1	0	CommissionError	0.639856	1.046330	0	1
406.322632	0.795628	city	9	1	0.353110	0.353110	0	1	0	0	CorrectCommission	3.515931	0.988913	0	1
407.118317	0.795756	city	1	1	0.797767	0.797767	0	1	0	0	CorrectCommission	1.447704	0.927846	0	1
407.914093	0.795801	city	6	1	0.748112	0.748112	0	1	0	0	CorrectCommission	0.893417	0.864018	0	1
408.709930	0.795858	city	10	1	0.656385	0.656385	0	1	0	0	CorrectCommission	0.130521	0.799076	0	1
409.505737	0.795750	mountain	5	0	0.000000	0.640591	1	0	0	0	CorrectOmission	0.306826	0.735196	0	1
410.301514	0.795803	city	1	1	0.660675	0.660675	0	1	0	0	CorrectCommission	0.082632	0.674680	1	1
411.097321	0.795800	mountain	9	0	0.000000	0.676581	1	0	0	0	CorrectOmission	0.094927	0.619654	1	1
411.893158	0.795907	city	4	1	0.666547	0.666547	0	1	0	0	CorrectCommission	0.017084	0.571724	1	1
412.688965	0.795693	city	1	1	0.608809	0.608809	0	1	0	0	CorrectCommission	0.661600	0.531909	1	1
413.484833	0.796021	city	7	1	0.598890	0.598890	0	1	0	0	CorrectCommission	0.772329	0.500618	1	1
414.280609	0.795583	city	4	1	0.747916	0.747916	0	1	0	0	CorrectCommission	0.891228	0.477855	1	1
415.076416	0.796020	city	9	1	0.706041	0.706041	0	1	0	0	CorrectCommission	0.423782	0.463309	1	1
415.872284	0.795692	city	7	1	0.698220	0.698220	0	1	0	0	CorrectCommission	0.336480	0.456568	1	1
416.667969	0.795693	city	3	1	0.703741	0.703741	0	1	0	0	CorrectCommission	0.398103	0.457166	1	1
417.463715	0.795804	city	8	1	0.699002	0.699002	0	1	0	0	CorrectCommission	0.345201	0.464611	1	1
418.259583	0.795906	city	3	1	0.662292	0.662292	0	1	0	0	CorrectCommission	0.064577	0.478317	1	1
419.055420	0.795802	city	9	1	0.660344	0.660344	0	1	0	0	CorrectCommission	0.086323	0.497514	1	1
419.851196	0.795713	city	1	1	0.649689	0.649689	0	1	0	0	CorrectCommission	0.205262	0.521170	1	1
420.646942	0.795781	city	5	1	0.698322	0.698322	0	1	0	0	CorrectCommission	0.337614	0.547947	1	1
421.442719	0.795801	city	8	1	0.797840	0.797840	0	1	0	0	CorrectCommission	1.448522	0.576245	1	1
422.238525	0.795801	city	10	1	0.600035	0.600035	0	1	0	0	CorrectCommission	0.759543	0.604221	1	1
423.034393	0.795913	city	6	1	0.713458	0.713458	0	1	0	0	CorrectCommission	0.506581	0.630024	1	1
423.830200	0.795695	mountain	3	0	0.000000	0.739826	1	0	0	0	CorrectOmission	0.800920	0.651844	1	1
424.625946	0.795799	city	6	1	0.698431	0.698431	0	1	0	0	CorrectCommission	0.338834	0.668139	1	1
425.421722	0.795800	city	8	1	0.608566	0.608566	0	1	0	0	CorrectCommission	0.664320	0.677788	1	1
426.217590	0.795911	city	5	1	0.809468	0.809468	0	1	0	0	CorrectCommission	1.578320	0.680208	1	0
427.013397	0.795696	city	9	1	0.702802	0.702802	0	1	0	0	CorrectCommission	0.387622	0.675444	1	0
427.809143	0.795798	city	10	1	0.598942	0.598942	0	1	0	0	CorrectCommission	0.771745	0.664259	1	0
428.604950	0.795801	city	2	1	0.550176	0.550176	0	1	0	0	CorrectCommission	1.316116	0.648021	1	0
429.400787	0.795866	city	9	1	0.561459	0.561459	0	1	0	0	CorrectCommission	1.190160	0.628604	1	0
430.196564	0.795739	city	7	1	0.657944	0.657944	0	1	0	0	CorrectCommission	0.113114	0.608188	1	0
430.992401	0.795908	city	10	1	0.648658	0.648658	0	1	0	0	CorrectCommission	0.216774	0.589024	1	0
431.788208	0.795696	city	7	1	0.663572	0.663572	0	1	0	0	CorrectCommission	0.050299	0.573120	1	0
432.583954	0.795798	city	9	1	0.657452	0.657452	0	1	0	0	CorrectCommission	0.118607	0.562042	1	0
433.379761	0.795813	city	2	1	0.605868	0.605868	0	1	0	0	CorrectCommission	0.694432	0.556719	1	0
434.175659	0.796010	city	9	1	0.748090	0.748090	0	1	0	0	CorrectCommission	0.893173	0.557335	1	0
434.971466	0.795588	city	4	1	0.698118	0.698118	0	1	0	0	CorrectCommission	0.335343	0.563366	1	0
435.767151	0.795800	city	5	1	0.661173	0.661173	0	1	0	0	CorrectCommission	0.077069	0.573688	1	0
436.563080	0.796017	city	3	1	0.712992	0.712992	0	1	0	0	CorrectCommission	0.501370	0.586720	1	0
437.358856	0.795582	city	8	1	0.708492	0.708492	0	1	0	0	CorrectCommission	0.451143	0.600636	1	0
438.154663	0.796022	city	9	1	0.755638	0.755638	0	1	0	0	CorrectCommission	0.977426	0.613638	1	0
438.950470	0.795583	city	10	1	0.804266	0.804266	0	1	0	0	CorrectCommission	1.520248	0.624110	1	0
439.746185	0.795854	city	1	1	0.748209	0.748209	0	1	0	0	CorrectCommission	0.894501	0.630855	1	0
440.541992	0.795747	city	9	1	0.704528	0.704528	0	1	0	0	CorrectCommission	0.406893	0.633196	1	0
441.337769	0.795808	city	4	1	0.666059	0.666059	0	1	0	0	CorrectCommission	0.022532	0.631046	1	0
442.133575	0.795797	city	7	1	0.603992	0.603992	0	1	0	0	CorrectCommission	0.715380	0.624926	1	0
442.929382	0.795808	city	2	1	0.598901	0.598901	0	1	0	0	CorrectCommission	0.772210	0.615926	1	0
443.725159	0.795793	city	7	1	0.564980	0.564980	0	1	0	0	CorrectCommission	1.150862	0.605660	1	0
444.521027	0.795913	mountain	9	0	0.000000	0.592772	1	0	0	0	CorrectOmission	0.840627	0.596237	1	0
445.316833	0.795714	city	7	1	0.648494	0.648494	0	1	0	0	CorrectCommission	0.218610	0.590048	1	0
446.112579	0.795780	city	6	1	0.698364	0.698364	0	1	0	0	CorrectCommission	0.338084	0.589625	1	0
446.908478	0.796020	city	3	1	0.653228	0.653228	0	1	0	0	CorrectCommission	0.165758	0.597374	1	0
447.704315	0.795650	city	8	1	0.601045	0.601045	0	1	0	0	CorrectCommission	0.748268	0.615359	1	0
448.500122	0.795953	city	4	1	0.605439	0.605439	0	1	0	0	CorrectCommission	0.699226	0.644921	1	0
449.295898	0.795587	city	9	1	0.651749	0.651749	0	1	0	0	CorrectCommission	0.182276	0.686458	1	0
450.091644	0.795906	mountain	5	0	0.000000	0.687741	1	0	0	0	CorrectOmission	0.219504	0.739201	0	0
450.887451	0.795692	city	3	1	0.705813	0.705813	0	1	0	0	CorrectCommission	0.421239	0.801104	0	0
451.683228	0.795910	city	8	1	0.698361	0.698361	0	1	0	0	CorrectCommission	0.338054	0.868888	0	0
452.479034	0.795697	city	1	1	0.698288	0.698288	0	1	0	0	CorrectCommission	0.337234	0.938300	0	0
453.274780	0.795799	city	3	1	0.797841	0.797841	0	1	0	0	CorrectCommission	1.448532	1.004488	0	0
454.070587	0.795815	city	5	1	0.797989	0.797989	0	1	0	0	CorrectCommission	1.450180	1.062489	0	0
454.866394	0.795791	city	2	1	0.897993	0.897993	0	1	0	0	CorrectCommission	2.566510	1.107814	0	0
455.662201	0.795797	city	5	1	0.797894	0.797894	0	1	0	0	CorrectCommission	1.449123	1.136918	0	0
456.458008	0.795831	city	10	1	0.852663	0.852663	0	1	0	0	CorrectCommission	2.060500	1.147642	0	0
457.253815	0.795802	city	4	1	0.798183	0.798183	0	1	0	0	CorrectCommission	1.452350	1.139350	0	0
458.049652	0.795881	city	9	1	0.769700	0.769700	0	1	0	0	CorrectCommission	1.134398	1.112969	0	0
458.845520	0.795803	city	4	1	0.710293	0.710293	0	1	0	0	CorrectCommission	0.471246	1.070786	0	0
459.641266	0.795723	city	2	1	0.897924	0.897924	0	1	0	0	CorrectCommission	2.565743	1.016125	0	0
460.437073	0.795880	city	5	1	0.698467	0.698467	0	1	0	0	CorrectCommission	0.339234	0.952875	0	0
461.232849	0.795692	city	8	1	0.649270	0.649270	0	1	0	0	CorrectCommission	0.209945	0.885211	0	0
462.028625	0.795839	city	7	1	0.698558	0.698558	0	1	0	0	CorrectCommission	0.340254	0.817102	0	0
462.824432	0.795765	city	9	1	0.803269	0.803269	0	1	0	0	CorrectCommission	1.509123	0.752100	0	0
463.620270	0.795910	city	4	1	0.710808	0.710808	0	1	0	0	CorrectCommission	0.476990	0.693036	1	0
464.416077	0.795696	city	7	1	0.698271	0.698271	0	1	0	0	CorrectCommission	0.337044	0.642057	1	0
465.211823	0.795798	city	2	1	0.655928	0.655928	0	1	0	0	CorrectCommission	0.135622	0.600492	1	0
466.007629	0.795803	city	6	1	0.748157	0.748157	0	1	0	0	CorrectCommission	0.893918	0.569031	1	0
466.803406	0.795804	city	1	1	0.662175	0.662175	0	1	0	0	CorrectCommission	0.065886	0.547731	1	0
467.599335	0.796016	city	10	1	0.651285	0.651285	0	1	0	0	CorrectCommission	0.187454	0.536313	1	0
468.395172	0.795694	mountain	9	1	0.663525	0.663525	0	0	1	0	CommissionError	0.050822	0.534263	1	0
469.190887	0.795693	city	10	1	0.598776	0.598776	0	1	0	0	CorrectCommission	0.773602	0.541081	1	0
469.986633	0.795834	city	6	1	0.707940	0.707940	0	1	0	0	CorrectCommission	0.444982	0.556415	1	0
470.782440	0.795769	city	9	1	0.751670	0.751670	0	1	0	0	CorrectCommission	0.933131	0.580177	1	0
471.578217	0.795801	city	7	1	0.760697	0.760697	0	1	0	0	CorrectCommission	1.033897	0.612474	1	0
472.374084	0.795912	city	4	1	0.748967	0.748967	0	1	0	0	CorrectCommission	0.902958	0.653465	1	0
473.169922	0.795755	city	10	1	0.664680	0.664680	0	1	0	0	CorrectCommission	0.037923	0.703179	1	0
473.965668	0.795750	city	4	1	0.652603	0.652603	0	1	0	0	CorrectCommission	0.172742	0.761174	0	0
474.761444	0.795798	city	8	1	0.607841	0.607841	0	1	0	0	CorrectCommission	0.672406	0.826249	0	0
475.557251	0.795792	city	5	1	0.648633	0.648633	0	1	0	0	CorrectCommission	0.217054	0.896248	0	0
476.353027	0.795808	city	1	1	0.648814	0.648814	0	1	0	0	CorrectCommission	0.215033	0.968125	0	0
477.148865	0.795858	city	6	1	0.708837	0.708837	0	1	0	0	CorrectCommission	0.454997	1.037968	0	0
477.944794	0.795959	city	2	1	0.947033	0.947033	0	1	0	0	CorrectCommission	3.113937	1.101563	0	0
478.740540	0.795584	city	3	1	0.751123	0.751123	0	1	0	0	CorrectCommission	0.927023	1.154714	0	0
479.536346	0.796018	city	4	1	0.847476	0.847476	0	1	0	0	CorrectCommission	2.002599	1.193969	0	0
480.332214	0.795693	city	1	1	0.756919	0.756919	0	1	0	0	CorrectCommission	0.991725	1.216805	0	0
481.128021	0.795913	mountain	9	1	0.300777	0.300777	0	0	1	0	CommissionError	4.100115	1.222125	0	0
481.923859	0.795800	city	5	1	0.598737	0.598737	0	1	0	0	CorrectCommission	0.774035	1.210095	0	0
482.719543	0.795582	city	2	1	0.548976	0.548976	0	1	0	0	CorrectCommission	1.329507	1.182202	0	0
483.515259	0.795804	city	4	1	0.651950	0.651950	0	1	0	0	CorrectCommission	0.180026	1.140702	0	0
484.311066	0.795802	city	1	1	0.708693	0.708693	0	1	0	0	CorrectCommission	0.453383	1.088393	0	0
485.106903	0.795908	city	10	1	0.750524	0.750524	0	1	0	0	CorrectCommission	0.920338	1.028180	0	0
485.902771	0.795802	city	3	1	0.847586	0.847586	0	1	0	0	CorrectCommission	2.003824	0.962866	0	0
486.698578	0.795803	city	9	1	0.748258	0.748258	0	1	0	0	CorrectCommission	0.895043	0.895043	0	0
