onset	duration	trial_type	image_type	Press	ReactionTime	ReactionTime_Interpolated	CorrectOmission	CorrectCommission	CommissionError	OmissionError	response_type	nonsmoothVarianceTimeCourse	VarianceTimeCourse	In_the_Zone	Reward_trial
8.421758	0.795803	city	6	1	1.245453	1.245453	0	1	0	0	CorrectCommission	3.387920	3.387920	0	1
9.217573	0.795828	city	4	1	0.848295	0.848295	0	1	0	0	CorrectCommission	0.784227	3.068499	0	1
10.013377	0.795780	city	5	1	0.648672	0.648672	0	1	0	0	CorrectCommission	0.524461	2.760612	0	1
10.809166	0.795796	city	8	1	0.499639	0.499639	0	1	0	0	CorrectCommission	1.501492	2.474414	0	1
11.605019	0.795910	city	9	1	0.959029	0.959029	0	1	0	0	CorrectCommission	1.510179	2.217649	0	1
12.400875	0.795802	city	5	1	0.748313	0.748313	0	1	0	0	CorrectCommission	0.128763	1.995019	0	1
13.196732	0.795911	city	3	1	0.615348	0.615348	0	1	0	0	CorrectCommission	0.742926	1.808107	0	1
13.992491	0.795607	city	1	1	0.459422	0.459422	0	1	0	0	CorrectCommission	1.765149	1.655741	0	1
14.788239	0.795889	city	5	1	0.399940	0.399940	0	1	0	0	CorrectCommission	2.155101	1.534779	0	1
15.584050	0.795735	city	2	1	0.350085	0.350085	0	1	0	0	CorrectCommission	2.481935	1.441110	0	1
16.379818	0.795801	city	4	1	0.605461	0.605461	0	1	0	0	CorrectCommission	0.807743	1.370511	0	1
17.175598	0.795758	city	8	1	0.550063	0.550063	0	1	0	0	CorrectCommission	1.170923	1.319391	0	1
17.971380	0.795805	city	9	1	1.062634	1.062634	0	1	0	0	CorrectCommission	2.189391	1.285083	0	1
18.767183	0.795802	city	3	1	0.859648	0.859648	0	1	0	0	CorrectCommission	0.858658	1.265896	0	1
19.562986	0.795802	city	10	1	0.750527	0.750527	0	1	0	0	CorrectCommission	0.143284	1.260889	0	1
20.358818	0.795863	city	4	1	0.660643	0.660643	0	1	0	0	CorrectCommission	0.445980	1.269407	0	1
21.154617	0.795736	city	5	1	0.649284	0.649284	0	1	0	0	CorrectCommission	0.520446	1.290617	0	1
21.950441	0.795912	city	2	1	0.549202	0.549202	0	1	0	0	CorrectCommission	1.176569	1.323149	0	1
22.746250	0.795703	city	3	1	0.410850	0.410850	0	1	0	0	CorrectCommission	2.083575	1.364907	0	1
23.541998	0.795793	city	9	1	0.549155	0.549155	0	1	0	0	CorrectCommission	1.176876	1.413024	0	1
24.337902	0.796018	city	4	1	0.500833	0.500833	0	1	0	0	CorrectCommission	1.493666	1.464049	0	1
25.133705	0.795586	city	10	1	0.499340	0.499340	0	1	0	0	CorrectCommission	1.503451	1.514177	0	1
25.929417	0.795838	city	9	1	0.449681	0.449681	0	1	0	0	CorrectCommission	1.829003	1.559660	0	1
26.725218	0.795764	city	4	1	0.415286	0.415286	0	1	0	0	CorrectCommission	2.054496	1.597113	0	1
27.521000	0.795801	city	2	1	0.449681	0.449681	0	1	0	0	CorrectCommission	1.829004	1.623826	0	1
28.316801	0.795801	city	7	1	0.461304	0.461304	0	1	0	0	CorrectCommission	1.752811	1.637990	0	1
29.112711	0.796020	city	9	1	0.399997	0.399997	0	1	0	0	CorrectCommission	2.154727	1.638830	0	1
29.908512	0.795581	city	2	1	0.449455	0.449455	0	1	0	0	CorrectCommission	1.830491	1.626638	0	1
30.704233	0.795861	mountain	7	1	0.350618	0.350618	0	0	1	0	CommissionError	2.478444	1.602704	0	1
31.500090	0.795852	city	1	1	0.798057	0.798057	0	1	0	0	CorrectCommission	0.454881	1.569106	0	1
32.295864	0.795694	city	7	1	0.513672	0.513672	0	1	0	0	CorrectCommission	1.409491	1.528525	0	1
33.091610	0.795798	city	3	1	0.300443	0.300443	0	1	0	0	CorrectCommission	2.807379	1.483829	0	1
33.887409	0.795805	city	5	1	1.005550	1.005550	0	1	0	0	CorrectCommission	1.815159	1.437771	0	1
34.683250	0.795876	city	8	1	0.847556	0.847556	0	1	0	0	CorrectCommission	0.779385	1.392679	0	1
35.479107	0.795833	city	9	1	0.798619	0.798619	0	1	0	0	CorrectCommission	0.458566	1.350085	0	1
36.274979	0.795911	city	8	1	0.608672	0.608672	0	1	0	0	CorrectCommission	0.786690	1.310563	0	1
37.070782	0.795692	city	3	1	0.598969	0.598969	0	1	0	0	CorrectCommission	0.850302	1.273662	0	1
37.866474	0.795694	city	1	1	0.549043	0.549043	0	1	0	0	CorrectCommission	1.177612	1.238063	0	1
38.662331	0.796019	city	3	1	0.549139	0.549139	0	1	0	0	CorrectCommission	1.176977	1.201879	0	1
39.458134	0.795586	city	5	1	0.500498	0.500498	0	1	0	0	CorrectCommission	1.495861	1.163080	0	1
40.253880	0.795906	city	8	1	0.450027	0.450027	0	1	0	0	CorrectCommission	1.826736	1.119928	0	1
41.049732	0.795804	city	3	1	0.359531	0.359531	0	1	0	0	CorrectCommission	2.420015	1.071425	0	1
41.845482	0.795693	mountain	8	1	0.549338	0.549338	0	0	1	0	CommissionError	1.175675	1.017515	0	1
42.641365	0.796072	city	7	1	0.630460	0.630460	0	1	0	0	CorrectCommission	0.643854	0.959196	0	1
43.437168	0.795536	city	4	1	0.607304	0.607304	0	1	0	0	CorrectCommission	0.795659	0.898314	0	1
44.232929	0.795986	city	1	1	0.611749	0.611749	0	1	0	0	CorrectCommission	0.766520	0.837235	0	1
45.028728	0.795611	city	3	1	0.698219	0.698219	0	1	0	0	CorrectCommission	0.199639	0.778461	0	1
45.824459	0.795849	city	4	1	0.698368	0.698368	0	1	0	0	CorrectCommission	0.198665	0.724233	0	1
46.620258	0.795752	city	5	1	0.648706	0.648706	0	1	0	0	CorrectCommission	0.524237	0.676176	0	1
47.416077	0.795882	city	9	1	0.698414	0.698414	0	1	0	0	CorrectCommission	0.198363	0.635136	1	1
48.211876	0.795720	city	1	1	0.598820	0.598820	0	1	0	0	CorrectCommission	0.851283	0.601164	1	1
49.007694	0.795914	city	9	1	0.651964	0.651964	0	1	0	0	CorrectCommission	0.502876	0.573617	1	1
49.803501	0.795697	city	1	1	0.615023	0.615023	0	1	0	0	CorrectCommission	0.745058	0.551427	1	1
50.599247	0.795800	city	7	1	0.648912	0.648912	0	1	0	0	CorrectCommission	0.522886	0.533294	1	1
51.395046	0.795799	city	1	1	0.599070	0.599070	0	1	0	0	CorrectCommission	0.849639	0.518029	1	1
52.190849	0.795801	mountain	1	0	0.000000	0.721244	1	0	0	0	CorrectOmission	0.048695	0.504748	1	1
52.986706	0.795912	city	4	1	0.797856	0.797856	0	1	0	0	CorrectCommission	0.453562	0.493028	1	1
53.782528	0.795738	city	7	1	0.611332	0.611332	0	1	0	0	CorrectCommission	0.769253	0.482891	1	1
54.578297	0.795798	city	4	1	0.608849	0.608849	0	1	0	0	CorrectCommission	0.785531	0.474771	1	1
55.374077	0.795761	city	3	1	0.698449	0.698449	0	1	0	0	CorrectCommission	0.198129	0.469365	1	1
56.169861	0.795805	city	2	1	0.648624	0.648624	0	1	0	0	CorrectCommission	0.524775	0.467436	1	1
56.965660	0.795794	city	6	1	0.748550	0.748550	0	1	0	0	CorrectCommission	0.130323	0.469555	1	1
57.761566	0.796024	city	5	1	0.749200	0.749200	0	1	0	0	CorrectCommission	0.134580	0.475930	1	1
58.557377	0.795596	mountain	1	0	0.000000	0.790166	1	0	0	0	CorrectOmission	0.403143	0.486233	1	1
59.353123	0.795895	city	4	1	0.797760	0.797760	0	1	0	0	CorrectCommission	0.452928	0.499554	1	1
60.148922	0.795699	city	3	1	0.698294	0.698294	0	1	0	0	CorrectCommission	0.199150	0.514462	1	1
60.944778	0.796015	city	5	1	0.648689	0.648689	0	1	0	0	CorrectCommission	0.524352	0.529161	1	1
61.740631	0.795694	city	2	1	0.655267	0.655267	0	1	0	0	CorrectCommission	0.481226	0.541723	1	1
62.536324	0.795690	mountain	6	0	0.000000	0.851972	1	0	0	0	CorrectOmission	0.808333	0.550398	1	1
63.332069	0.795805	city	3	1	0.947023	0.947023	0	1	0	0	CorrectCommission	1.431474	0.553896	1	1
64.127869	0.795798	city	7	1	0.648642	0.648642	0	1	0	0	CorrectCommission	0.524655	0.551593	1	1
64.923676	0.795806	city	10	1	0.517843	0.517843	0	1	0	0	CorrectCommission	1.382148	0.543729	1	1
65.719490	0.795823	city	3	1	0.654464	0.654464	0	1	0	0	CorrectCommission	0.486488	0.531292	1	1
66.515396	0.795995	city	7	1	0.748286	0.748286	0	1	0	0	CorrectCommission	0.128587	0.516009	1	1
67.311218	0.795640	city	9	1	0.698315	0.698315	0	1	0	0	CorrectCommission	0.199013	0.500132	1	1
68.106911	0.795745	city	2	1	0.797787	0.797787	0	1	0	0	CorrectCommission	0.453111	0.486184	1	0
68.902710	0.795856	city	9	1	0.754670	0.754670	0	1	0	0	CorrectCommission	0.170442	0.476726	1	0
69.698509	0.795748	city	5	1	0.698377	0.698377	0	1	0	0	CorrectCommission	0.198604	0.474181	1	0
70.494339	0.795909	city	10	1	0.648653	0.648653	0	1	0	0	CorrectCommission	0.524585	0.480602	1	0
71.290154	0.795719	city	4	1	0.698239	0.698239	0	1	0	0	CorrectCommission	0.199507	0.497562	1	0
72.085953	0.795886	mountain	4	0	0.000000	0.796710	1	0	0	0	CorrectOmission	0.446048	0.526031	1	0
72.881744	0.795695	city	10	1	0.798018	0.798018	0	1	0	0	CorrectCommission	0.454621	0.566274	1	0
73.677605	0.796019	mountain	8	1	0.556115	0.556115	0	0	1	0	CommissionError	1.131246	0.617712	1	0
74.473404	0.795585	city	6	1	0.698186	0.698186	0	1	0	0	CorrectCommission	0.199859	0.678810	0	0
75.269096	0.795799	city	10	1	0.701116	0.701116	0	1	0	0	CorrectCommission	0.180646	0.747069	0	0
76.064949	0.795910	city	7	1	0.698815	0.698815	0	1	0	0	CorrectCommission	0.195732	0.819019	0	0
76.860756	0.795695	city	6	1	0.804756	0.804756	0	1	0	0	CorrectCommission	0.498794	0.890428	0	0
77.656502	0.795799	city	2	1	0.668133	0.668133	0	1	0	0	CorrectCommission	0.396879	0.956652	0	0
78.452316	0.795840	city	8	1	0.504869	0.504869	0	1	0	0	CorrectCommission	1.467207	1.013096	0	0
79.248123	0.795765	city	10	1	1.060863	1.060863	0	1	0	0	CorrectCommission	2.177781	1.055769	0	0
80.043907	0.795798	city	3	1	1.245550	1.245550	0	1	0	0	CorrectCommission	3.388553	1.081810	0	0
80.839706	0.795804	mountain	10	0	0.000000	1.003866	1	0	0	0	CorrectOmission	1.804119	1.089846	0	0
81.635506	0.795800	city	1	1	0.650346	0.650346	0	1	0	0	CorrectCommission	0.513487	1.080258	0	0
82.431305	0.795803	mountain	3	1	0.499527	0.499527	0	0	1	0	CommissionError	1.502229	1.054963	0	0
83.227119	0.795812	city	2	1	0.615011	0.615011	0	1	0	0	CorrectCommission	0.745134	1.017087	0	0
84.022919	0.795790	city	8	1	0.598861	0.598861	0	1	0	0	CorrectCommission	0.851013	0.970524	0	0
84.818710	0.795801	city	10	1	0.599038	0.599038	0	1	0	0	CorrectCommission	0.849851	0.919312	0	0
85.614571	0.795911	mountain	3	0	0.000000	0.714962	1	0	0	0	CorrectOmission	0.089879	0.867144	0	0
86.410385	0.795729	city	1	1	0.797810	0.797810	0	1	0	0	CorrectCommission	0.453262	0.816991	0	0
87.206139	0.795768	city	10	1	0.698763	0.698763	0	1	0	0	CorrectCommission	0.196070	0.770852	0	0
88.001938	0.795831	city	1	1	0.961142	0.961142	0	1	0	0	CorrectCommission	1.524034	0.729774	0	0
88.797737	0.795773	city	5	1	0.915581	0.915581	0	1	0	0	CorrectCommission	1.225341	0.693935	0	0
89.593529	0.795806	city	3	1	0.798679	0.798679	0	1	0	0	CorrectCommission	0.458958	0.662936	1	0
90.389328	0.795793	city	1	1	0.698376	0.698376	0	1	0	0	CorrectCommission	0.198613	0.636038	1	0
91.185234	0.796022	city	3	1	0.698377	0.698377	0	1	0	0	CorrectCommission	0.198605	0.612413	1	0
91.981094	0.795692	city	5	1	0.598723	0.598723	0	1	0	0	CorrectCommission	0.851915	0.591402	1	0
92.776787	0.795707	city	2	1	0.549109	0.549109	0	1	0	0	CorrectCommission	1.177177	0.572662	1	0
93.572540	0.795791	mountain	5	0	0.000000	0.715318	1	0	0	0	CorrectOmission	0.087542	0.556255	1	0
94.368332	0.795801	city	8	1	0.848156	0.848156	0	1	0	0	CorrectCommission	0.783321	0.542706	1	0
95.164139	0.795801	city	10	1	0.698430	0.698430	0	1	0	0	CorrectCommission	0.198259	0.532887	1	0
95.960045	0.796017	mountain	8	0	0.000000	0.796383	1	0	0	0	CorrectOmission	0.443907	0.527958	1	0
96.755882	0.795660	city	7	1	0.897072	0.897072	0	1	0	0	CorrectCommission	1.104004	0.529145	1	0
97.551613	0.795801	city	8	1	0.755551	0.755551	0	1	0	0	CorrectCommission	0.176215	0.537536	1	0
98.347382	0.795729	city	9	1	0.748430	0.748430	0	1	0	0	CorrectCommission	0.129532	0.553955	1	0
99.143143	0.795798	city	7	1	0.748159	0.748159	0	1	0	0	CorrectCommission	0.127760	0.578708	1	0
99.938995	0.795913	city	10	1	0.699593	0.699593	0	1	0	0	CorrectCommission	0.190634	0.611457	1	0
100.734802	0.795695	city	6	1	0.853707	0.853707	0	1	0	0	CorrectCommission	0.819708	0.651204	1	0
101.530548	0.795801	mountain	5	0	0.000000	0.851450	1	0	0	0	CorrectOmission	0.804912	0.696333	0	0
102.326355	0.795803	city	8	1	0.748083	0.748083	0	1	0	0	CorrectCommission	0.127260	0.744770	0	0
103.122208	0.795907	city	9	1	0.598868	0.598868	0	1	0	0	CorrectCommission	0.850966	0.794235	0	0
103.918045	0.795776	city	7	1	0.598917	0.598917	0	1	0	0	CorrectCommission	0.850642	0.842454	0	0
104.713799	0.795728	city	10	1	0.450788	0.450788	0	1	0	0	CorrectCommission	1.821751	0.887480	0	0
105.509567	0.795814	city	4	1	0.549522	0.549522	0	1	0	0	CorrectCommission	1.174472	0.927832	0	0
106.305420	0.795887	city	1	1	0.549591	0.549591	0	1	0	0	CorrectCommission	1.174013	0.962711	0	0
107.101212	0.795693	city	7	1	0.549498	0.549498	0	1	0	0	CorrectCommission	1.174629	0.991949	0	0
107.896957	0.795804	city	6	1	0.500584	0.500584	0	1	0	0	CorrectCommission	1.495296	1.015926	0	0
108.692818	0.795907	city	3	1	0.698349	0.698349	0	1	0	0	CorrectCommission	0.198787	1.035371	0	0
109.488617	0.795696	city	10	1	0.617515	0.617515	0	1	0	0	CorrectCommission	0.728721	1.051153	0	0
110.284378	0.795832	city	7	1	0.612906	0.612906	0	1	0	0	CorrectCommission	0.758933	1.064008	0	0
111.080238	0.795877	city	1	1	0.499693	0.499693	0	1	0	0	CorrectCommission	1.501138	1.074442	0	0
111.876038	0.795733	city	4	1	0.553115	0.553115	0	1	0	0	CorrectCommission	1.150915	1.082607	0	0
112.671844	0.795872	city	8	1	0.549446	0.549446	0	1	0	0	CorrectCommission	1.174967	1.088334	0	0
113.467628	0.795695	city	3	1	0.449920	0.449920	0	1	0	0	CorrectCommission	1.827440	1.091158	0	0
114.263405	0.795860	city	5	1	0.599341	0.599341	0	1	0	0	CorrectCommission	0.847862	1.090415	0	0
115.059204	0.795740	city	10	1	0.609348	0.609348	0	1	0	0	CorrectCommission	0.782260	1.085422	0	0
115.854973	0.795802	city	3	1	0.613687	0.613687	0	1	0	0	CorrectCommission	0.753815	1.075567	0	0
116.650795	0.795830	city	5	1	0.551678	0.551678	0	1	0	0	CorrectCommission	1.160332	1.060451	0	0
117.446609	0.795802	city	4	1	0.549105	0.549105	0	1	0	0	CorrectCommission	1.177202	1.039999	0	0
118.242393	0.795774	city	9	1	0.499290	0.499290	0	1	0	0	CorrectCommission	1.503779	1.014567	0	0
119.038200	0.795827	city	2	1	0.450044	0.450044	0	1	0	0	CorrectCommission	1.826628	0.984951	0	0
119.834000	0.795776	city	1	1	0.500728	0.500728	0	1	0	0	CorrectCommission	1.494349	0.952350	0	0
120.629822	0.795868	city	3	1	0.698654	0.698654	0	1	0	0	CorrectCommission	0.196786	0.918235	0	0
121.425728	0.795952	mountain	4	0	0.000000	0.785928	1	0	0	0	CorrectOmission	0.375365	0.884190	0	0
122.221497	0.795584	city	7	1	0.758322	0.758322	0	1	0	0	CorrectCommission	0.194385	0.851639	0	0
123.017189	0.795800	city	9	1	0.611607	0.611607	0	1	0	0	CorrectCommission	0.767448	0.821750	0	0
123.812988	0.795801	city	2	1	0.549125	0.549125	0	1	0	0	CorrectCommission	1.177072	0.795272	0	0
124.608818	0.795856	city	10	1	0.598921	0.598921	0	1	0	0	CorrectCommission	0.850619	0.772509	0	0
125.404625	0.795748	mountain	7	0	0.000000	0.656028	1	0	0	0	CorrectOmission	0.476238	0.753363	0	0
126.200394	0.795801	city	9	1	0.659914	0.659914	0	1	0	0	CorrectCommission	0.450763	0.737457	0	0
126.996223	0.795856	city	7	1	0.550047	0.550047	0	1	0	0	CorrectCommission	1.171025	0.724216	0	0
127.792023	0.795747	city	8	1	0.599624	0.599624	0	1	0	0	CorrectCommission	0.846012	0.712998	0	1
128.587860	0.795912	city	4	1	0.809154	0.809154	0	1	0	0	CorrectCommission	0.527626	0.703228	0	1
129.383652	0.795693	city	9	1	0.848003	0.848003	0	1	0	0	CorrectCommission	0.782315	0.694474	0	1
130.179520	0.796019	city	3	1	0.797883	0.797883	0	1	0	0	CorrectCommission	0.453740	0.686453	0	1
130.975311	0.795583	city	9	1	0.851824	0.851824	0	1	0	0	CorrectCommission	0.807367	0.679068	0	1
131.771011	0.795804	city	1	1	0.847597	0.847597	0	1	0	0	CorrectCommission	0.779653	0.672387	1	1
132.566803	0.795799	city	2	1	0.707669	0.707669	0	1	0	0	CorrectCommission	0.137686	0.666635	1	1
133.362610	0.795806	city	6	1	0.847678	0.847678	0	1	0	0	CorrectCommission	0.780183	0.662146	1	1
134.158463	0.795908	mountain	6	0	0.000000	0.879571	1	0	0	0	CorrectOmission	0.989268	0.659275	1	1
134.954269	0.795694	city	4	1	0.857413	0.857413	0	1	0	0	CorrectCommission	0.844006	0.658388	1	1
135.750031	0.795824	mountain	7	0	0.000000	0.835270	1	0	0	0	CorrectOmission	0.698838	0.659762	1	1
136.545944	0.795997	city	9	1	0.798397	0.798397	0	1	0	0	CorrectCommission	0.457111	0.663513	1	1
137.341736	0.795582	mountain	4	0	0.000000	0.732053	1	0	0	0	CorrectOmission	0.022171	0.669571	1	1
138.137421	0.795802	city	2	1	0.648627	0.648627	0	1	0	0	CorrectCommission	0.524758	0.677642	0	1
138.933334	0.796023	city	6	1	0.560507	0.560507	0	1	0	0	CorrectCommission	1.102450	0.687192	0	1
139.729126	0.795579	city	5	1	0.797627	0.797627	0	1	0	0	CorrectCommission	0.452058	0.697553	0	1
140.524826	0.795814	city	3	1	0.648613	0.648613	0	1	0	0	CorrectCommission	0.524846	0.708092	0	1
141.320633	0.795790	mountain	6	0	0.000000	0.557608	1	0	0	0	CorrectOmission	1.121459	0.718329	0	1
142.116440	0.795825	city	2	1	0.549490	0.549490	0	1	0	0	CorrectCommission	1.174675	0.728144	0	1
142.912354	0.795997	mountain	7	1	0.649140	0.649140	0	0	1	0	CommissionError	0.521390	0.737912	0	1
143.708145	0.795581	city	5	1	0.862446	0.862446	0	1	0	0	CorrectCommission	0.876999	0.748541	0	1
144.503845	0.795818	city	7	1	0.897362	0.897362	0	1	0	0	CorrectCommission	1.105900	0.761374	0	1
145.299698	0.795897	city	10	1	0.798270	0.798270	0	1	0	0	CorrectCommission	0.456276	0.778028	0	1
146.095490	0.795692	city	5	1	0.799075	0.799075	0	1	0	0	CorrectCommission	0.461550	0.800145	0	1
146.891342	0.796020	city	8	1	0.797943	0.797943	0	1	0	0	CorrectCommission	0.454132	0.829003	0	1
147.687256	0.795801	city	7	1	0.897548	0.897548	0	1	0	0	CorrectCommission	1.107122	0.865202	0	1
148.482971	0.795637	city	10	1	0.847530	0.847530	0	1	0	0	CorrectCommission	0.779215	0.908358	0	1
149.278702	0.795818	city	1	1	0.799229	0.799229	0	1	0	0	CorrectCommission	0.462561	0.956968	0	1
150.074539	0.795840	city	4	1	0.847814	0.847814	0	1	0	0	CorrectCommission	0.781078	1.008429	0	1
150.870316	0.795719	city	1	1	0.748250	0.748250	0	1	0	0	CorrectCommission	0.128357	1.059214	0	1
151.666092	0.795839	city	7	1	0.753464	0.753464	0	1	0	0	CorrectCommission	0.162537	1.105328	0	1
152.461884	0.795742	city	1	1	1.096229	1.096229	0	1	0	0	CorrectCommission	2.409633	1.142817	0	1
153.257706	0.795910	city	3	1	1.145977	1.145977	0	1	0	0	CorrectCommission	2.735776	1.168361	0	1
154.053513	0.795693	city	9	1	1.096156	1.096156	0	1	0	0	CorrectCommission	2.409160	1.179902	0	1
154.849365	0.796018	city	2	1	1.000436	1.000436	0	1	0	0	CorrectCommission	1.781634	1.176981	0	1
155.645218	0.795693	city	6	1	1.012427	1.012427	0	1	0	0	CorrectCommission	1.860243	1.160824	0	1
156.440918	0.795690	city	9	1	0.797745	0.797745	0	1	0	0	CorrectCommission	0.452830	1.134151	0	1
157.236664	0.795806	city	3	1	0.605645	0.605645	0	1	0	0	CorrectCommission	0.806539	1.100813	0	1
158.032578	0.796017	city	7	1	0.658422	0.658422	0	1	0	0	CorrectCommission	0.460544	1.065129	0	1
158.828369	0.795586	city	6	1	0.698082	0.698082	0	1	0	0	CorrectCommission	0.200538	1.031318	0	1
159.624176	0.796017	city	4	1	0.598799	0.598799	0	1	0	0	CorrectCommission	0.851420	1.002969	0	1
160.419998	0.795645	city	6	1	0.598677	0.598677	0	1	0	0	CorrectCommission	0.852217	0.982636	0	1
161.215698	0.795746	city	7	1	0.506449	0.506449	0	1	0	0	CorrectCommission	1.456846	0.971640	0	1
162.011490	0.795835	city	5	1	0.549747	0.549747	0	1	0	0	CorrectCommission	1.172992	0.970013	0	1
162.807297	0.795765	city	8	1	0.648776	0.648776	0	1	0	0	CorrectCommission	0.523777	0.976640	0	1
163.603104	0.795865	city	5	1	0.797909	0.797909	0	1	0	0	CorrectCommission	0.453907	0.989439	0	1
164.398926	0.795762	city	6	1	0.748049	0.748049	0	1	0	0	CorrectCommission	0.127038	1.005645	0	1
165.194748	0.795885	city	1	1	0.549149	0.549149	0	1	0	0	CorrectCommission	1.176914	1.022146	0	1
165.990524	0.795691	city	2	1	0.449684	0.449684	0	1	0	0	CorrectCommission	1.828989	1.035811	0	1
166.786285	0.795806	city	9	1	0.400090	0.400090	0	1	0	0	CorrectCommission	2.154113	1.043869	0	1
167.582092	0.795813	city	1	1	0.556238	0.556238	0	1	0	0	CorrectCommission	1.130438	1.044133	0	1
168.377884	0.795788	city	9	1	0.599073	0.599073	0	1	0	0	CorrectCommission	0.849622	1.035252	0	1
169.173798	0.796022	city	4	1	0.567464	0.567464	0	1	0	0	CorrectCommission	1.056845	1.016776	0	1
169.969589	0.795583	city	3	1	0.548856	0.548856	0	1	0	0	CorrectCommission	1.178838	0.989113	0	1
170.765289	0.795821	city	1	1	0.598879	0.598879	0	1	0	0	CorrectCommission	0.850893	0.953478	0	1
171.561096	0.795783	city	6	1	0.549604	0.549604	0	1	0	0	CorrectCommission	1.173932	0.911751	0	1
172.356888	0.795798	city	4	1	0.499441	0.499441	0	1	0	0	CorrectCommission	1.502787	0.866220	0	1
173.152695	0.795802	city	3	1	0.601581	0.601581	0	1	0	0	CorrectCommission	0.833181	0.819344	0	1
173.948486	0.795801	city	8	1	0.698382	0.698382	0	1	0	0	CorrectCommission	0.198573	0.773549	0	1
174.744293	0.795804	city	7	1	0.648765	0.648765	0	1	0	0	CorrectCommission	0.523850	0.730929	0	1
175.540146	0.795909	city	6	1	0.797870	0.797870	0	1	0	0	CorrectCommission	0.453653	0.693078	0	1
176.335953	0.795697	city	2	1	0.714515	0.714515	0	1	0	0	CorrectCommission	0.092804	0.660998	1	1
177.131805	0.796016	city	5	1	0.648641	0.648641	0	1	0	0	CorrectCommission	0.524664	0.635096	1	1
177.927612	0.795582	city	6	1	0.847494	0.847494	0	1	0	0	CorrectCommission	0.778979	0.615271	1	1
178.723297	0.795804	city	5	1	0.814803	0.814803	0	1	0	0	CorrectCommission	0.564665	0.601124	1	1
179.519165	0.795910	city	2	1	0.649055	0.649055	0	1	0	0	CorrectCommission	0.521949	0.592158	1	1
180.314972	0.795713	city	3	1	0.608627	0.608627	0	1	0	0	CorrectCommission	0.786985	0.588021	1	1
181.110718	0.795781	city	9	1	0.649171	0.649171	0	1	0	0	CorrectCommission	0.521192	0.588658	1	1
181.906509	0.795801	city	5	1	0.499450	0.499450	0	1	0	0	CorrectCommission	1.502728	0.594419	1	1
182.702423	0.796022	city	4	1	0.717320	0.717320	0	1	0	0	CorrectCommission	0.074418	0.606013	1	1
183.498276	0.795691	city	7	1	0.705280	0.705280	0	1	0	0	CorrectCommission	0.153350	0.624447	1	1
184.294022	0.795801	city	6	1	0.797742	0.797742	0	1	0	0	CorrectCommission	0.452814	0.650807	1	1
185.089767	0.795696	city	9	1	0.797986	0.797986	0	1	0	0	CorrectCommission	0.454414	0.686092	0	1
185.885544	0.795838	city	7	1	0.752915	0.752915	0	1	0	0	CorrectCommission	0.158938	0.730988	0	1
186.681335	0.795762	city	5	1	0.601625	0.601625	0	1	0	0	CorrectCommission	0.832893	0.785685	0	1
187.477234	0.796020	city	4	1	0.648700	0.648700	0	1	0	0	CorrectCommission	0.524276	0.849714	0	0
188.273087	0.795692	city	7	1	0.598694	0.598694	0	1	0	0	CorrectCommission	0.852106	0.921890	0	0
189.068771	0.795697	city	5	1	0.499333	0.499333	0	1	0	0	CorrectCommission	1.503499	1.000224	0	0
189.864548	0.795852	city	3	1	0.550074	0.550074	0	1	0	0	CorrectCommission	1.170848	1.081909	0	0
190.660370	0.795776	city	8	1	0.549250	0.549250	0	1	0	0	CorrectCommission	1.176254	1.163394	0	0
191.456146	0.795777	mountain	5	1	0.649075	0.649075	0	0	1	0	CommissionError	0.521818	1.240472	0	0
192.251968	0.795874	city	6	1	0.598978	0.598978	0	1	0	0	CorrectCommission	0.850242	1.308496	0	0
193.047775	0.795730	city	10	1	0.549098	0.549098	0	1	0	0	CorrectCommission	1.177249	1.362667	0	0
193.843536	0.795795	city	8	1	0.300777	0.300777	0	1	0	0	CorrectCommission	2.805194	1.398502	0	0
194.639328	0.795807	city	3	1	0.450156	0.450156	0	1	0	0	CorrectCommission	1.825889	1.412262	0	0
195.435242	0.796015	city	2	1	0.399976	0.399976	0	1	0	0	CorrectCommission	2.154866	1.401532	0	0
196.231049	0.795589	city	8	1	0.350589	0.350589	0	1	0	0	CorrectCommission	2.478631	1.365551	0	0
197.026733	0.795796	city	4	1	0.406788	0.406788	0	1	0	0	CorrectCommission	2.110206	1.305446	0	0
197.822601	0.795911	mountain	6	1	0.351507	0.351507	0	0	1	0	CommissionError	2.472619	1.224242	0	0
198.618454	0.795802	city	6	1	0.806786	0.806786	0	1	0	0	CorrectCommission	0.512104	1.126597	0	0
199.414200	0.795690	city	5	1	0.660367	0.660367	0	1	0	0	CorrectCommission	0.447789	1.018381	0	0
200.210052	0.796022	city	6	1	0.847565	0.847565	0	1	0	0	CorrectCommission	0.779440	0.906037	0	0
201.005859	0.795589	city	3	1	0.654709	0.654709	0	1	0	0	CorrectCommission	0.484884	0.795943	0	0
201.801666	0.796014	city	7	1	0.749038	0.749038	0	1	0	0	CorrectCommission	0.133517	0.693830	0	0
202.597458	0.795585	city	6	1	0.765363	0.765363	0	1	0	0	CorrectCommission	0.240543	0.604290	1	0
203.393158	0.795798	city	10	1	0.748261	0.748261	0	1	0	0	CorrectCommission	0.128428	0.530447	1	0
204.188950	0.795803	mountain	3	0	0.000000	0.754556	1	0	0	0	CorrectOmission	0.169694	0.473812	1	0
204.984756	0.795800	city	5	1	0.762078	0.762078	0	1	0	0	CorrectCommission	0.219006	0.434332	1	0
205.780594	0.795883	city	2	1	0.748658	0.748658	0	1	0	0	CorrectCommission	0.131030	0.410564	1	0
206.576401	0.795724	city	4	1	0.756181	0.756181	0	1	0	0	CorrectCommission	0.180351	0.399948	1	0
207.372208	0.795906	city	10	1	0.698417	0.698417	0	1	0	0	CorrectCommission	0.198339	0.399193	1	0
208.168015	0.795698	city	2	1	0.698428	0.698428	0	1	0	0	CorrectCommission	0.198273	0.404695	1	0
208.963760	0.795800	city	3	1	0.848120	0.848120	0	1	0	0	CorrectCommission	0.783081	0.412974	1	0
209.759674	0.796018	city	2	1	0.668904	0.668904	0	1	0	0	CorrectCommission	0.391825	0.421016	1	0
210.555588	0.795801	city	3	1	0.616599	0.616599	0	1	0	0	CorrectCommission	0.734727	0.426636	1	0
211.351273	0.795589	city	4	1	0.563531	0.563531	0	1	0	0	CorrectCommission	1.082629	0.428593	1	0
212.147034	0.795905	mountain	9	1	0.599319	0.599319	0	0	1	0	CommissionError	0.848008	0.426698	1	0
212.942825	0.795696	mountain	10	1	0.650927	0.650927	0	0	1	0	CommissionError	0.509678	0.421699	1	0
213.738678	0.796016	city	8	1	0.699913	0.699913	0	1	0	0	CorrectCommission	0.188534	0.415040	1	0
214.534485	0.795583	city	9	1	0.698177	0.698177	0	1	0	0	CorrectCommission	0.199918	0.408521	1	0
215.330276	0.796019	city	4	1	0.698385	0.698385	0	1	0	0	CorrectCommission	0.198552	0.403907	1	0
216.126083	0.795585	mountain	9	0	0.000000	0.731781	1	0	0	0	CorrectOmission	0.020387	0.402613	1	0
216.921783	0.795802	city	5	1	0.748426	0.748426	0	1	0	0	CorrectCommission	0.129505	0.405415	1	0
217.717575	0.795805	city	3	1	0.698378	0.698378	0	1	0	0	CorrectCommission	0.198597	0.412322	1	0
218.513489	0.796017	city	8	1	0.748577	0.748577	0	1	0	0	CorrectCommission	0.130494	0.422620	1	0
219.309341	0.795692	city	3	1	0.747894	0.747894	0	1	0	0	CorrectCommission	0.126016	0.435036	1	0
220.105042	0.795693	city	4	1	0.599018	0.599018	0	1	0	0	CorrectCommission	0.849980	0.448031	1	0
220.900803	0.795845	city	8	1	0.499483	0.499483	0	1	0	0	CorrectCommission	1.502517	0.460087	1	0
221.696609	0.795756	city	1	1	0.598843	0.598843	0	1	0	0	CorrectCommission	0.851131	0.470017	1	0
222.492386	0.795803	city	7	1	0.710172	0.710172	0	1	0	0	CorrectCommission	0.121279	0.477210	1	0
223.288193	0.795805	city	9	1	0.756410	0.756410	0	1	0	0	CorrectCommission	0.181848	0.481724	1	0
224.084045	0.795909	city	6	1	0.605803	0.605803	0	1	0	0	CorrectCommission	0.805500	0.484272	1	0
224.879898	0.795800	city	8	1	0.797818	0.797818	0	1	0	0	CorrectCommission	0.453310	0.486092	1	0
225.675674	0.795750	mountain	8	0	0.000000	0.823117	1	0	0	0	CorrectOmission	0.619168	0.488789	1	0
226.471420	0.795745	mountain	9	0	0.000000	0.766675	1	0	0	0	CorrectOmission	0.249144	0.494048	1	0
227.267258	0.795911	city	2	1	0.713465	0.713465	0	1	0	0	CorrectCommission	0.099689	0.503423	1	0
228.063171	0.795910	city	3	1	0.748461	0.748461	0	1	0	0	CorrectCommission	0.129738	0.518066	1	0
228.858963	0.795692	city	4	1	0.614566	0.614566	0	1	0	0	CorrectCommission	0.748052	0.538576	1	0
229.654663	0.795714	city	3	1	0.649375	0.649375	0	1	0	0	CorrectCommission	0.519852	0.564860	1	0
230.450455	0.795863	city	7	1	0.847603	0.847603	0	1	0	0	CorrectCommission	0.779691	0.596109	1	0
231.246277	0.795784	city	6	1	0.799590	0.799590	0	1	0	0	CorrectCommission	0.464929	0.630807	1	0
232.042099	0.795847	city	7	1	0.754487	0.754487	0	1	0	0	CorrectCommission	0.169244	0.666865	1	0
232.837860	0.795691	city	8	1	0.797738	0.797738	0	1	0	0	CorrectCommission	0.452789	0.701805	0	0
233.633606	0.795806	city	6	1	0.847625	0.847625	0	1	0	0	CorrectCommission	0.779836	0.733013	0	0
234.429474	0.795907	city	1	1	0.798223	0.798223	0	1	0	0	CorrectCommission	0.455969	0.758059	0	0
235.225281	0.795727	city	4	1	1.008454	1.008454	0	1	0	0	CorrectCommission	1.834200	0.775004	0	0
236.021027	0.795766	city	1	1	1.009884	1.009884	0	1	0	0	CorrectCommission	1.843577	0.782611	0	0
236.816818	0.795804	mountain	10	0	0.000000	0.936625	1	0	0	0	CorrectOmission	1.363303	0.780540	0	0
237.612671	0.795912	mountain	7	0	0.000000	0.846594	1	0	0	0	CorrectOmission	0.773078	0.769320	0	0
238.408539	0.795799	city	6	1	0.797709	0.797709	0	1	0	0	CorrectCommission	0.452599	0.750194	0	0
239.204285	0.795723	city	4	1	0.847889	0.847889	0	1	0	0	CorrectCommission	0.781566	0.724874	0	0
240.000076	0.795853	city	10	1	0.698354	0.698354	0	1	0	0	CorrectCommission	0.198753	0.695231	0	0
240.795868	0.795732	city	7	1	0.703660	0.703660	0	1	0	0	CorrectCommission	0.163968	0.663036	1	0
241.591751	0.796011	mountain	7	0	0.000000	0.808921	1	0	0	0	CorrectOmission	0.526098	0.629733	1	0
242.387650	0.795799	city	9	1	0.861587	0.861587	0	1	0	0	CorrectCommission	0.871367	0.596360	1	0
243.183350	0.795594	city	1	1	0.709111	0.709111	0	1	0	0	CorrectCommission	0.128234	0.563600	1	0
243.979141	0.796009	city	7	1	0.911045	0.911045	0	1	0	0	CorrectCommission	1.195607	0.531936	1	0
244.775055	0.795802	city	5	1	0.897139	0.897139	0	1	0	0	CorrectCommission	1.104442	0.501753	1	0
245.570801	0.795691	city	8	1	0.797628	0.797628	0	1	0	0	CorrectCommission	0.452065	0.473527	1	0
246.366501	0.795705	city	1	1	0.698261	0.698261	0	1	0	0	CorrectCommission	0.199362	0.447880	1	0
247.162247	0.795789	city	10	1	0.701602	0.701602	0	1	0	0	CorrectCommission	0.177459	0.425569	1	1
247.958038	0.795806	city	3	1	0.707659	0.707659	0	1	0	0	CorrectCommission	0.137750	0.407417	1	1
248.753845	0.795803	city	7	1	0.706661	0.706661	0	1	0	0	CorrectCommission	0.144295	0.394233	1	1
249.549652	0.795797	city	9	1	0.698547	0.698547	0	1	0	0	CorrectCommission	0.197488	0.386683	1	1
250.345444	0.795805	city	3	1	0.698397	0.698397	0	1	0	0	CorrectCommission	0.198475	0.385190	1	1
251.141266	0.795835	city	5	1	0.648588	0.648588	0	1	0	0	CorrectCommission	0.525012	0.389883	1	1
251.937088	0.795793	city	9	1	0.649626	0.649626	0	1	0	0	CorrectCommission	0.518208	0.400583	1	1
252.732971	0.795994	city	4	1	0.649171	0.649171	0	1	0	0	CorrectCommission	0.521186	0.416775	1	1
253.528809	0.795690	city	8	1	0.698155	0.698155	0	1	0	0	CorrectCommission	0.200060	0.437651	1	1
254.324509	0.795695	city	4	1	0.704049	0.704049	0	1	0	0	CorrectCommission	0.161423	0.462159	1	1
255.120316	0.795908	city	6	1	0.698584	0.698584	0	1	0	0	CorrectCommission	0.197246	0.489017	1	1
255.916122	0.795708	mountain	1	0	0.000000	0.836091	1	0	0	0	CorrectOmission	0.704225	0.516801	1	1
256.711853	0.795788	city	6	1	0.897314	0.897314	0	1	0	0	CorrectCommission	1.105589	0.543993	1	1
257.507690	0.795847	city	1	1	0.662996	0.662996	0	1	0	0	CorrectCommission	0.430554	0.569123	1	1
258.303497	0.795755	city	8	1	0.698329	0.698329	0	1	0	0	CorrectCommission	0.198922	0.590910	1	1
259.099274	0.795844	city	3	1	0.798364	0.798364	0	1	0	0	CorrectCommission	0.456890	0.608374	1	1
259.895081	0.795758	mountain	2	0	0.000000	0.881365	1	0	0	0	CorrectOmission	1.001030	0.620939	1	1
260.690887	0.795868	mountain	1	0	0.000000	0.926418	1	0	0	0	CorrectOmission	1.296387	0.628556	1	1
261.486725	0.795800	city	6	1	0.912607	0.912607	0	1	0	0	CorrectCommission	1.205848	0.631687	1	1
262.282532	0.795775	mountain	2	0	0.000000	0.819019	1	0	0	0	CorrectOmission	0.592299	0.631235	1	1
263.078308	0.795788	city	5	1	0.759445	0.759445	0	1	0	0	CorrectCommission	0.201747	0.628414	1	1
263.874084	0.795782	city	9	1	0.847680	0.847680	0	1	0	0	CorrectCommission	0.780199	0.624507	1	1
264.669891	0.795842	city	3	1	0.798294	0.798294	0	1	0	0	CorrectCommission	0.456432	0.620600	1	1
265.465698	0.795762	city	7	1	0.748673	0.748673	0	1	0	0	CorrectCommission	0.131129	0.617416	1	1
266.261536	0.795907	city	10	1	0.748831	0.748831	0	1	0	0	CorrectCommission	0.132164	0.615154	1	1
267.057343	0.795695	city	6	1	0.617143	0.617143	0	1	0	0	CorrectCommission	0.731161	0.613486	1	1
267.853119	0.795875	city	10	1	0.663501	0.663501	0	1	0	0	CorrectCommission	0.427246	0.611636	1	1
268.648926	0.795727	mountain	4	0	0.000000	0.832669	1	0	0	0	CorrectOmission	0.681788	0.608627	1	1
269.444702	0.795824	city	6	1	0.951687	0.951687	0	1	0	0	CorrectCommission	1.462044	0.603486	1	1
270.240509	0.795781	city	3	1	0.847593	0.847593	0	1	0	0	CorrectCommission	0.779625	0.595490	1	1
271.036285	0.795798	city	6	1	0.897451	0.897451	0	1	0	0	CorrectCommission	1.106486	0.584369	1	1
271.832153	0.795910	city	1	1	0.648679	0.648679	0	1	0	0	CorrectCommission	0.524416	0.570306	1	1
272.627960	0.795695	mountain	10	0	0.000000	0.680577	1	0	0	0	CorrectOmission	0.315298	0.553920	1	1
273.423737	0.795908	city	9	1	0.762251	0.762251	0	1	0	0	CorrectCommission	0.220139	0.536099	1	1
274.219543	0.795696	city	10	1	0.662805	0.662805	0	1	0	0	CorrectCommission	0.431808	0.517802	1	1
275.015289	0.795800	mountain	10	0	0.000000	0.708261	1	0	0	0	CorrectOmission	0.133807	0.499917	1	1
275.811127	0.795842	mountain	5	0	0.000000	0.802027	1	0	0	0	CorrectOmission	0.480903	0.483132	1	1
276.606934	0.795762	city	2	1	0.847509	0.847509	0	1	0	0	CorrectCommission	0.779078	0.467847	1	1
277.402710	0.795800	city	3	1	0.748116	0.748116	0	1	0	0	CorrectCommission	0.127476	0.454231	1	1
278.198517	0.795805	city	6	1	0.653015	0.653015	0	1	0	0	CorrectCommission	0.495989	0.442332	1	1
278.994354	0.795906	city	2	1	0.615676	0.615676	0	1	0	0	CorrectCommission	0.740773	0.432137	1	1
279.790161	0.795702	city	5	1	0.650566	0.650566	0	1	0	0	CorrectCommission	0.512044	0.423730	1	1
280.585968	0.795903	city	9	1	0.648776	0.648776	0	1	0	0	CorrectCommission	0.523777	0.417339	1	1
281.381805	0.795801	mountain	4	0	0.000000	0.750028	1	0	0	0	CorrectOmission	0.140007	0.413318	1	1
282.177612	0.795800	city	10	1	0.815896	0.815896	0	1	0	0	CorrectCommission	0.571830	0.412120	1	1
282.973358	0.795695	city	1	1	0.707959	0.707959	0	1	0	0	CorrectCommission	0.135788	0.414164	1	1
283.769226	0.796019	mountain	5	0	0.000000	0.688826	1	0	0	0	CorrectOmission	0.261220	0.419766	1	1
284.565033	0.795583	city	1	1	0.716450	0.716450	0	1	0	0	CorrectCommission	0.080124	0.428986	1	1
285.360840	0.796019	city	4	1	0.748782	0.748782	0	1	0	0	CorrectCommission	0.131840	0.441603	1	1
286.156616	0.795588	city	2	1	0.847397	0.847397	0	1	0	0	CorrectCommission	0.778340	0.457090	1	1
286.952332	0.795797	city	6	1	0.847623	0.847623	0	1	0	0	CorrectCommission	0.779826	0.474646	1	1
287.748108	0.795806	city	4	1	0.797846	0.797846	0	1	0	0	CorrectCommission	0.453495	0.493325	1	1
288.543945	0.795814	city	3	1	0.658121	0.658121	0	1	0	0	CorrectCommission	0.462513	0.512142	1	1
289.339722	0.795788	mountain	5	0	0.000000	0.714706	1	0	0	0	CorrectOmission	0.091557	0.530181	1	1
290.135590	0.795910	mountain	4	0	0.000000	0.841154	1	0	0	0	CorrectOmission	0.737411	0.546713	1	1
290.931396	0.795729	city	3	1	0.911020	0.911020	0	1	0	0	CorrectCommission	1.195443	0.561261	1	1
291.727173	0.795794	city	9	1	0.797860	0.797860	0	1	0	0	CorrectCommission	0.453585	0.573624	1	1
292.523041	0.795991	mountain	1	0	0.000000	0.828767	1	0	0	0	CorrectOmission	0.656208	0.583919	1	1
293.318848	0.795587	city	4	1	0.848043	0.848043	0	1	0	0	CorrectCommission	0.782576	0.592456	1	1
294.114532	0.795801	city	5	1	0.699987	0.699987	0	1	0	0	CorrectCommission	0.188046	0.599683	1	1
294.910339	0.795799	city	6	1	0.847531	0.847531	0	1	0	0	CorrectCommission	0.779221	0.606122	1	1
295.706207	0.795912	city	4	1	0.648929	0.648929	0	1	0	0	CorrectCommission	0.522773	0.612222	1	1
296.502014	0.795704	city	9	1	0.799155	0.799155	0	1	0	0	CorrectCommission	0.462077	0.618347	1	1
297.297791	0.795897	city	5	1	0.815999	0.815999	0	1	0	0	CorrectCommission	0.572500	0.624752	1	1
298.093658	0.795802	city	9	1	0.798319	0.798319	0	1	0	0	CorrectCommission	0.456598	0.631581	1	1
298.889404	0.795695	mountain	4	0	0.000000	0.861507	1	0	0	0	CorrectOmission	0.870843	0.638921	1	1
299.685150	0.795804	city	4	1	0.847708	0.847708	0	1	0	0	CorrectCommission	0.780381	0.646807	1	1
300.480957	0.795801	city	8	1	0.599070	0.599070	0	1	0	0	CorrectCommission	0.849642	0.655297	1	1
301.276855	0.796016	city	1	1	0.648765	0.648765	0	1	0	0	CorrectCommission	0.523849	0.664402	1	1
302.072723	0.795692	city	2	1	0.598670	0.598670	0	1	0	0	CorrectCommission	0.852262	0.674074	1	1
302.868408	0.795692	city	6	1	0.797741	0.797741	0	1	0	0	CorrectCommission	0.452806	0.684116	0	1
303.664276	0.796022	city	4	1	0.599026	0.599026	0	1	0	0	CorrectCommission	0.849932	0.694120	0	1
304.460083	0.795602	mountain	5	0	0.000000	0.670324	1	0	0	0	CorrectOmission	0.382517	0.703415	0	1
305.255768	0.795783	city	9	1	0.755649	0.755649	0	1	0	0	CorrectCommission	0.176859	0.711114	0	1
306.051544	0.795802	mountain	1	1	0.599016	0.599016	0	0	1	0	CommissionError	0.849997	0.716198	0	1
306.847351	0.795800	mountain	2	1	0.812120	0.812120	0	0	1	0	CommissionError	0.547074	0.717700	0	0
307.643158	0.795804	city	2	1	0.947092	0.947092	0	1	0	0	CorrectCommission	1.431923	0.714940	0	0
308.439087	0.796020	city	4	1	0.902337	0.902337	0	1	0	0	CorrectCommission	1.138517	0.707710	0	0
309.234863	0.795583	city	10	1	0.913921	0.913921	0	1	0	0	CorrectCommission	1.214460	0.696484	0	0
310.030609	0.795877	city	1	1	0.897327	0.897327	0	1	0	0	CorrectCommission	1.105675	0.682405	0	0
310.826416	0.795729	city	7	1	0.797750	0.797750	0	1	0	0	CorrectCommission	0.452868	0.667207	1	0
311.622162	0.795799	city	4	1	0.748235	0.748235	0	1	0	0	CorrectCommission	0.128253	0.652993	1	0
312.417969	0.795806	mountain	1	0	0.000000	0.781579	1	0	0	0	CorrectOmission	0.346851	0.641896	1	0
313.213776	0.795799	city	2	1	0.798161	0.798161	0	1	0	0	CorrectCommission	0.455560	0.635721	1	0
314.009674	0.796018	city	8	1	0.698359	0.698359	0	1	0	0	CorrectCommission	0.198723	0.635671	1	0
314.805481	0.795584	city	1	1	0.698154	0.698154	0	1	0	0	CorrectCommission	0.200069	0.642133	1	0
315.601166	0.795799	city	3	1	0.897302	0.897302	0	1	0	0	CorrectCommission	1.105507	0.654623	1	0
316.397034	0.795887	city	5	1	0.698469	0.698469	0	1	0	0	CorrectCommission	0.198004	0.671819	1	0
317.192810	0.795715	city	4	1	0.658022	0.658022	0	1	0	0	CorrectCommission	0.463164	0.691833	0	0
317.988617	0.795868	city	7	1	0.599203	0.599203	0	1	0	0	CorrectCommission	0.848767	0.712478	0	0
318.784515	0.795955	city	3	1	0.549498	0.549498	0	1	0	0	CorrectCommission	1.174625	0.731605	0	0
319.580414	0.795802	mountain	5	1	0.499189	0.499189	0	0	1	0	CommissionError	1.504441	0.747411	0	0
320.376190	0.795804	city	10	1	0.610373	0.610373	0	1	0	0	CorrectCommission	0.775544	0.758697	0	0
321.171906	0.795582	city	9	1	0.613276	0.613276	0	1	0	0	CorrectCommission	0.756512	0.765002	0	0
321.967590	0.795804	city	10	1	0.611357	0.611357	0	1	0	0	CorrectCommission	0.769092	0.766583	0	0
322.763397	0.795799	city	5	1	0.615390	0.615390	0	1	0	0	CorrectCommission	0.742652	0.764304	0	0
323.559296	0.796020	city	9	1	0.607316	0.607316	0	1	0	0	CorrectCommission	0.795580	0.759420	0	0
324.355225	0.795801	city	2	1	0.599336	0.599336	0	1	0	0	CorrectCommission	0.847900	0.753332	0	0
325.150909	0.795588	city	5	1	0.651072	0.651072	0	1	0	0	CorrectCommission	0.508729	0.747304	0	0
325.946594	0.795797	city	10	1	0.609184	0.609184	0	1	0	0	CorrectCommission	0.783334	0.742259	0	0
326.742462	0.795909	city	8	1	0.651118	0.651118	0	1	0	0	CorrectCommission	0.508423	0.738570	0	0
327.538269	0.795700	city	2	1	0.599297	0.599297	0	1	0	0	CorrectCommission	0.848154	0.736025	0	0
328.334015	0.795798	mountain	3	0	0.000000	0.721769	1	0	0	0	CorrectOmission	0.045253	0.733854	0	0
329.129852	0.795870	city	7	1	0.797905	0.797905	0	1	0	0	CorrectCommission	0.453885	0.730903	0	0
329.925629	0.795730	city	2	1	0.607080	0.607080	0	1	0	0	CorrectCommission	0.797132	0.725816	0	0
330.721405	0.795803	city	9	1	0.997206	0.997206	0	1	0	0	CorrectCommission	1.760462	0.717333	0	0
331.517212	0.795801	mountain	10	0	0.000000	0.911092	1	0	0	0	CorrectOmission	1.195912	0.704536	0	0
332.313019	0.795803	city	1	1	0.658496	0.658496	0	1	0	0	CorrectCommission	0.460055	0.687080	0	0
333.108826	0.795799	city	6	1	0.549180	0.549180	0	1	0	0	CorrectCommission	1.176710	0.665239	1	0
333.904602	0.795804	mountain	5	0	0.000000	0.602465	1	0	0	0	CorrectOmission	0.827381	0.639860	1	0
334.700409	0.795801	city	5	1	0.710060	0.710060	0	1	0	0	CorrectCommission	0.122012	0.612269	1	0
335.496216	0.795807	mountain	10	0	0.000000	0.763672	1	0	0	0	CorrectOmission	0.229454	0.584028	1	0
336.292023	0.795807	city	9	1	0.798030	0.798030	0	1	0	0	CorrectCommission	0.454700	0.556717	1	0
337.087830	0.795789	city	4	1	0.847864	0.847864	0	1	0	0	CorrectCommission	0.781406	0.531729	1	0
337.883636	0.795805	city	9	1	0.748379	0.748379	0	1	0	0	CorrectCommission	0.129198	0.510158	1	0
338.679413	0.795801	city	2	1	0.699053	0.699053	0	1	0	0	CorrectCommission	0.194172	0.492750	1	0
339.475220	0.795805	city	7	1	0.698534	0.698534	0	1	0	0	CorrectCommission	0.197574	0.479934	1	0
340.271027	0.795808	mountain	7	0	0.000000	0.823277	1	0	0	0	CorrectOmission	0.620214	0.471847	1	0
341.066833	0.795790	city	7	1	0.911011	0.911011	0	1	0	0	CorrectCommission	1.195384	0.468436	1	0
341.862671	0.795911	city	2	1	0.799469	0.799469	0	1	0	0	CorrectCommission	0.464132	0.469543	1	0
342.658539	0.795801	city	9	1	0.662751	0.662751	0	1	0	0	CorrectCommission	0.432161	0.474976	1	0
343.454407	0.795913	city	2	1	0.698390	0.698390	0	1	0	0	CorrectCommission	0.198516	0.484444	1	0
344.250244	0.795801	city	1	1	0.748508	0.748508	0	1	0	0	CorrectCommission	0.130042	0.497567	1	0
345.045990	0.795691	city	2	1	0.747872	0.747872	0	1	0	0	CorrectCommission	0.125876	0.513843	1	0
345.841705	0.795702	city	3	1	0.759951	0.759951	0	1	0	0	CorrectCommission	0.205060	0.532696	1	0
346.637451	0.795794	city	10	1	0.648620	0.648620	0	1	0	0	CorrectCommission	0.524801	0.553522	1	0
347.433258	0.795852	city	3	1	0.608225	0.608225	0	1	0	0	CorrectCommission	0.789626	0.575800	1	0
348.229065	0.795751	city	2	1	0.517716	0.517716	0	1	0	0	CorrectCommission	1.382982	0.599159	1	0
349.024841	0.795803	city	10	1	0.598892	0.598892	0	1	0	0	CorrectCommission	0.850807	0.623486	1	0
349.820648	0.795800	city	1	1	0.549249	0.549249	0	1	0	0	CorrectCommission	1.176257	0.648955	1	0
350.616547	0.796019	city	6	1	0.755132	0.755132	0	1	0	0	CorrectCommission	0.173474	0.675886	0	0
351.412354	0.795585	city	2	1	0.662282	0.662282	0	1	0	0	CorrectCommission	0.435238	0.704634	0	0
352.208069	0.795850	city	1	1	0.714602	0.714602	0	1	0	0	CorrectCommission	0.092238	0.735347	0	0
353.003876	0.795752	city	10	1	0.760753	0.760753	0	1	0	0	CorrectCommission	0.210322	0.767837	0	0
353.799652	0.795799	city	2	1	0.714432	0.714432	0	1	0	0	CorrectCommission	0.093348	0.801444	0	0
354.595459	0.795802	city	9	1	1.109863	1.109863	0	1	0	0	CorrectCommission	2.499016	0.835041	0	0
355.391266	0.795824	city	8	1	0.859498	0.859498	0	1	0	0	CorrectCommission	0.857676	0.867080	0	0
356.187134	0.795891	city	3	1	0.798183	0.798183	0	1	0	0	CorrectCommission	0.455705	0.895879	0	0
356.982971	0.795800	city	6	1	0.897247	0.897247	0	1	0	0	CorrectCommission	1.105152	0.919708	0	0
357.778778	0.795802	city	4	1	0.996747	0.996747	0	1	0	0	CorrectCommission	1.757453	0.936961	0	0
358.574554	0.795742	city	7	1	0.947611	0.947611	0	1	0	0	CorrectCommission	1.435325	0.946355	0	0
359.370331	0.795862	city	1	1	0.797814	0.797814	0	1	0	0	CorrectCommission	0.453287	0.947072	0	0
360.166138	0.795695	city	3	1	0.764185	0.764185	0	1	0	0	CorrectCommission	0.232818	0.938831	0	0
360.961914	0.795907	city	6	1	0.847661	0.847661	0	1	0	0	CorrectCommission	0.780074	0.921924	0	0
361.757751	0.795736	mountain	3	0	0.000000	1.006170	1	0	0	0	CorrectOmission	1.819228	0.897252	0	0
362.553528	0.795821	city	6	1	1.064602	1.064602	0	1	0	0	CorrectCommission	2.202296	0.866312	0	0
363.349335	0.795795	city	10	1	0.847847	0.847847	0	1	0	0	CorrectCommission	0.781294	0.831141	0	0
364.145111	0.795746	city	6	1	0.748477	0.748477	0	1	0	0	CorrectCommission	0.129841	0.794174	0	0
364.940887	0.795802	mountain	4	0	0.000000	0.780030	1	0	0	0	CorrectOmission	0.336697	0.757980	0	0
365.736664	0.795803	city	7	1	0.847566	0.847566	0	1	0	0	CorrectCommission	0.779447	0.724978	0	0
366.532471	0.795798	city	6	1	0.856142	0.856142	0	1	0	0	CorrectCommission	0.835675	0.697172	0	1
367.328278	0.795802	city	8	1	0.699349	0.699349	0	1	0	0	CorrectCommission	0.192234	0.675856	0	1
368.124146	0.795912	city	9	1	0.648629	0.648629	0	1	0	0	CorrectCommission	0.524743	0.661478	1	1
368.919952	0.795691	city	8	1	0.698364	0.698364	0	1	0	0	CorrectCommission	0.198687	0.653493	1	1
369.715698	0.795838	city	9	1	0.709657	0.709657	0	1	0	0	CorrectCommission	0.124653	0.650537	1	1
370.511505	0.795766	city	7	1	0.762086	0.762086	0	1	0	0	CorrectCommission	0.219060	0.650609	1	1
371.307281	0.795807	mountain	4	0	0.000000	0.912969	1	0	0	0	CorrectOmission	1.208220	0.651491	1	1
372.103088	0.795800	city	9	1	0.947027	0.947027	0	1	0	0	CorrectCommission	1.431499	0.651128	1	1
372.898926	0.795862	city	7	1	0.648981	0.648981	0	1	0	0	CorrectCommission	0.522432	0.648167	1	1
373.694733	0.795739	mountain	2	0	0.000000	0.530876	1	0	0	0	CorrectOmission	1.296708	0.642311	1	1
374.490509	0.795801	mountain	4	0	0.000000	0.537256	1	0	0	0	CorrectOmission	1.254883	0.634474	1	1
375.286316	0.795842	mountain	10	0	0.000000	0.612666	1	0	0	0	CorrectOmission	0.760510	0.626828	1	1
376.082123	0.795791	mountain	2	0	0.000000	0.701650	1	0	0	0	CorrectOmission	0.177144	0.622575	1	1
376.877930	0.795772	city	4	1	0.748754	0.748754	0	1	0	0	CorrectCommission	0.131660	0.625510	1	1
377.673737	0.795860	city	9	1	0.698522	0.698522	0	1	0	0	CorrectCommission	0.197650	0.639414	1	1
378.469543	0.795744	city	8	1	0.648962	0.648962	0	1	0	0	CorrectCommission	0.522561	0.667416	1	1
379.265320	0.795804	mountain	2	0	0.000000	0.690262	1	0	0	0	CorrectOmission	0.251801	0.711375	0	1
380.061096	0.795801	city	7	1	0.748095	0.748095	0	1	0	0	CorrectCommission	0.127335	0.771408	0	1
380.856903	0.795802	city	3	1	0.748128	0.748128	0	1	0	0	CorrectCommission	0.127555	0.845636	0	1
381.652771	0.795908	city	6	1	0.847597	0.847597	0	1	0	0	CorrectCommission	0.779651	0.930158	0	1
382.448669	0.795910	city	9	1	0.809046	0.809046	0	1	0	0	CorrectCommission	0.526917	1.019330	0	1
383.244415	0.795584	city	2	1	0.912140	0.912140	0	1	0	0	CorrectCommission	1.202787	1.106333	0	1
384.040100	0.795802	city	4	1	0.860621	0.860621	0	1	0	0	CorrectCommission	0.865035	1.183919	0	1
384.835907	0.795802	city	7	1	1.096321	1.096321	0	1	0	0	CorrectCommission	2.410238	1.245333	0	1
385.631714	0.795802	city	6	1	1.046528	1.046528	0	1	0	0	CorrectCommission	2.083806	1.285101	0	1
386.427521	0.795802	city	5	1	1.147285	1.147285	0	1	0	0	CorrectCommission	2.744346	1.299826	0	1
387.223358	0.795861	city	7	1	1.195803	1.195803	0	1	0	0	CorrectCommission	3.062425	1.288530	0	1
388.019165	0.795741	mountain	10	0	0.000000	1.071253	1	0	0	0	CorrectOmission	2.245896	1.252759	0	1
388.815033	0.796018	city	1	1	0.897304	0.897304	0	1	0	0	CorrectCommission	1.105523	1.196237	0	1
389.610901	0.795693	city	3	1	0.797628	0.797628	0	1	0	0	CorrectCommission	0.452068	1.124265	0	1
390.406586	0.795695	city	6	1	0.748043	0.748043	0	1	0	0	CorrectCommission	0.126994	1.042959	0	1
391.202454	0.796018	city	10	1	0.698667	0.698667	0	1	0	0	CorrectCommission	0.196703	0.958389	0	1
391.998291	0.795655	city	5	1	0.797697	0.797697	0	1	0	0	CorrectCommission	0.452517	0.875946	0	1
392.794037	0.795838	city	8	1	0.802350	0.802350	0	1	0	0	CorrectCommission	0.483022	0.799891	0	1
393.589813	0.795743	mountain	7	0	0.000000	0.856977	1	0	0	0	CorrectOmission	0.841148	0.733170	0	1
394.385559	0.795760	mountain	5	0	0.000000	0.894430	1	0	0	0	CorrectOmission	1.086682	0.677448	0	1
395.181458	0.796011	city	4	1	0.847560	0.847560	0	1	0	0	CorrectCommission	0.779410	0.633316	1	1
395.977356	0.795801	city	6	1	0.649218	0.649218	0	1	0	0	CorrectCommission	0.520882	0.600548	1	1
396.773071	0.795648	city	8	1	0.711107	0.711107	0	1	0	0	CorrectCommission	0.115150	0.578353	1	1
397.568878	0.795955	city	6	1	0.648864	0.648864	0	1	0	0	CorrectCommission	0.523199	0.565586	1	1
398.364655	0.795586	city	4	1	0.698172	0.698172	0	1	0	0	CorrectCommission	0.199946	0.560837	1	1
399.160339	0.795797	city	2	1	0.649043	0.649043	0	1	0	0	CorrectCommission	0.522026	0.562535	1	1
399.956146	0.795803	city	8	1	0.698815	0.698815	0	1	0	0	CorrectCommission	0.195734	0.568980	1	1
400.752014	0.795910	city	10	1	0.698352	0.698352	0	1	0	0	CorrectCommission	0.198770	0.578429	1	1
401.547821	0.795754	city	4	1	0.599213	0.599213	0	1	0	0	CorrectCommission	0.848706	0.589185	1	1
402.343567	0.795740	mountain	4	0	0.000000	0.839876	1	0	0	0	CorrectOmission	0.729038	0.599635	1	1
403.139404	0.795911	city	7	1	0.997382	0.997382	0	1	0	0	CorrectCommission	1.761611	0.608468	1	1
403.935333	0.795911	city	1	1	0.648767	0.648767	0	1	0	0	CorrectCommission	0.523835	0.614699	1	1
404.731079	0.795582	city	5	1	0.698186	0.698186	0	1	0	0	CorrectCommission	0.199859	0.617791	1	1
405.526825	0.795910	mountain	2	1	0.549158	0.549158	0	0	1	0	CommissionError	1.176856	0.617626	1	1
406.322601	0.795695	city	5	1	0.748389	0.748389	0	1	0	0	CorrectCommission	0.129264	0.614417	1	1
407.118378	0.795818	city	3	1	0.797858	0.797858	0	1	0	0	CorrectCommission	0.453576	0.608710	1	1
407.914154	0.795771	city	5	1	0.807337	0.807337	0	1	0	0	CorrectCommission	0.515715	0.601195	1	1
408.709961	0.795813	city	10	1	0.797876	0.797876	0	1	0	0	CorrectCommission	0.453694	0.592652	1	1
409.505768	0.795806	city	2	1	0.857787	0.857787	0	1	0	0	CorrectCommission	0.846456	0.583863	1	1
410.301636	0.795907	city	7	1	0.901167	0.901167	0	1	0	0	CorrectCommission	1.130846	0.575544	1	1
411.097412	0.795696	city	8	1	0.847485	0.847485	0	1	0	0	CorrectCommission	0.778918	0.568291	1	1
411.893158	0.795801	city	10	1	0.748084	0.748084	0	1	0	0	CorrectCommission	0.127264	0.562550	1	1
412.688995	0.795836	city	8	1	0.798453	0.798453	0	1	0	0	CorrectCommission	0.457473	0.558537	1	1
413.484833	0.795828	city	4	1	0.716573	0.716573	0	1	0	0	CorrectCommission	0.079315	0.556213	1	1
414.280609	0.795741	city	5	1	0.713460	0.713460	0	1	0	0	CorrectCommission	0.099723	0.555341	1	1
415.076477	0.796017	city	1	1	0.698338	0.698338	0	1	0	0	CorrectCommission	0.198859	0.555520	1	1
415.872284	0.795605	mountain	9	0	0.000000	0.898615	1	0	0	0	CorrectOmission	1.114119	0.556310	1	1
416.668030	0.795833	city	6	1	1.016644	1.016644	0	1	0	0	CorrectCommission	1.887890	0.557318	1	1
417.463806	0.795749	city	8	1	0.754775	0.754775	0	1	0	0	CorrectCommission	0.171132	0.558323	1	1
418.259705	0.796020	city	7	1	0.657032	0.657032	0	1	0	0	CorrectCommission	0.469656	0.559374	1	1
419.055481	0.795584	city	2	1	0.797642	0.797642	0	1	0	0	CorrectCommission	0.452160	0.560659	1	1
419.851196	0.795801	city	10	1	0.761673	0.761673	0	1	0	0	CorrectCommission	0.216351	0.562489	1	1
420.647003	0.795804	city	6	1	0.847574	0.847574	0	1	0	0	CorrectCommission	0.779500	0.565153	1	1
421.442810	0.795834	city	4	1	0.712707	0.712707	0	1	0	0	CorrectCommission	0.104662	0.568823	1	1
422.238678	0.795875	city	6	1	0.614061	0.614061	0	1	0	0	CorrectCommission	0.751360	0.573510	1	1
423.034454	0.795695	city	9	1	0.655130	0.655130	0	1	0	0	CorrectCommission	0.482120	0.578941	1	1
423.830292	0.796016	city	4	1	0.649458	0.649458	0	1	0	0	CorrectCommission	0.519306	0.584690	1	1
424.626099	0.795583	mountain	10	0	0.000000	0.656708	1	0	0	0	CorrectOmission	0.471776	0.590244	1	1
425.421783	0.795805	city	10	1	0.649112	0.649112	0	1	0	0	CorrectCommission	0.521576	0.595121	1	1
426.217590	0.795800	city	3	1	0.598901	0.598901	0	1	0	0	CorrectCommission	0.850751	0.599009	1	0
427.013397	0.795803	mountain	1	1	0.449601	0.449601	0	0	1	0	CommissionError	1.829532	0.601811	1	0
427.809204	0.795801	city	7	1	0.664304	0.664304	0	1	0	0	CorrectCommission	0.421979	0.603687	1	0
428.605072	0.795909	city	10	1	0.698715	0.698715	0	1	0	0	CorrectCommission	0.196386	0.605063	1	0
429.400909	0.795802	city	6	1	0.747969	0.747969	0	1	0	0	CorrectCommission	0.126512	0.606465	1	0
430.196686	0.795724	city	7	1	0.657198	0.657198	0	1	0	0	CorrectCommission	0.468563	0.608403	1	0
430.992523	0.795988	city	3	1	0.648590	0.648590	0	1	0	0	CorrectCommission	0.524999	0.611237	1	0
431.788330	0.795588	city	2	1	0.657047	0.657047	0	1	0	0	CorrectCommission	0.469555	0.615098	1	0
432.584015	0.795795	city	9	1	0.802856	0.802856	0	1	0	0	CorrectCommission	0.486340	0.619846	1	0
433.379822	0.795806	mountain	7	0	0.000000	0.915908	1	0	0	0	CorrectOmission	1.227489	0.625060	1	0
434.175629	0.795801	city	7	1	0.897438	0.897438	0	1	0	0	CorrectCommission	1.106399	0.630062	1	0
434.971436	0.795857	city	6	1	0.648678	0.648678	0	1	0	0	CorrectCommission	0.524418	0.634054	1	0
435.767242	0.795745	city	2	1	0.714137	0.714137	0	1	0	0	CorrectCommission	0.095287	0.636124	1	0
436.563019	0.795800	city	1	1	0.797913	0.797913	0	1	0	0	CorrectCommission	0.453932	0.635330	1	0
437.358826	0.795802	city	5	1	0.897337	0.897337	0	1	0	0	CorrectCommission	1.105738	0.630776	1	0
438.154663	0.795869	city	10	1	0.807671	0.807671	0	1	0	0	CorrectCommission	0.517908	0.621690	1	0
438.950470	0.795736	city	5	1	0.748159	0.748159	0	1	0	0	CorrectCommission	0.127757	0.607614	1	0
439.746277	0.795876	city	9	1	0.897376	0.897376	0	1	0	0	CorrectCommission	1.105995	0.588456	1	0
440.542114	0.795834	city	8	1	0.909453	0.909453	0	1	0	0	CorrectCommission	1.185170	0.564588	1	0
441.337891	0.795694	city	4	1	0.947578	0.947578	0	1	0	0	CorrectCommission	1.435110	0.536939	1	0
442.133698	0.795910	city	6	1	0.716601	0.716601	0	1	0	0	CorrectCommission	0.079134	0.506923	1	0
442.929504	0.795711	city	3	1	0.699320	0.699320	0	1	0	0	CorrectCommission	0.192424	0.476375	1	0
443.725250	0.795791	city	2	1	0.748081	0.748081	0	1	0	0	CorrectCommission	0.127243	0.447357	1	0
444.521027	0.795796	city	7	1	0.713681	0.713681	0	1	0	0	CorrectCommission	0.098272	0.421951	1	0
445.316833	0.795800	city	4	1	0.808205	0.808205	0	1	0	0	CorrectCommission	0.521405	0.402110	1	0
446.112701	0.795909	city	6	1	0.714895	0.714895	0	1	0	0	CorrectCommission	0.090314	0.389507	1	0
446.908539	0.795802	city	3	1	0.709668	0.709668	0	1	0	0	CorrectCommission	0.124581	0.385373	1	0
447.704315	0.795710	city	7	1	0.698253	0.698253	0	1	0	0	CorrectCommission	0.199414	0.390509	1	0
448.500153	0.796002	city	2	1	0.662651	0.662651	0	1	0	0	CorrectCommission	0.432819	0.405279	1	0
449.295959	0.795585	mountain	3	0	0.000000	0.766273	1	0	0	0	CorrectOmission	0.246511	0.429680	1	0
450.091644	0.795801	city	7	1	0.848422	0.848422	0	1	0	0	CorrectCommission	0.785062	0.463388	1	0
450.887451	0.795800	city	1	1	0.748397	0.748397	0	1	0	0	CorrectCommission	0.129316	0.505776	1	0
451.683258	0.795805	city	6	1	0.655438	0.655438	0	1	0	0	CorrectCommission	0.480101	0.555976	1	0
452.479065	0.795797	city	3	1	0.666949	0.666949	0	1	0	0	CorrectCommission	0.404643	0.612808	1	0
453.274902	0.795913	city	1	1	0.703160	0.703160	0	1	0	0	CorrectCommission	0.167249	0.674841	0	0
454.070709	0.795690	city	9	1	0.848137	0.848137	0	1	0	0	CorrectCommission	0.783193	0.740373	0	0
454.866516	0.795913	city	10	1	0.847942	0.847942	0	1	0	0	CorrectCommission	0.781917	0.807460	0	0
455.662323	0.795691	city	5	1	0.909163	0.909163	0	1	0	0	CorrectCommission	1.183264	0.874006	0	0
456.458099	0.795912	city	6	1	0.996758	0.996758	0	1	0	0	CorrectCommission	1.757524	0.937858	0	0
457.253967	0.795803	city	5	1	0.862773	0.862773	0	1	0	0	CorrectCommission	0.879144	0.996899	0	0
458.049713	0.795692	city	3	1	0.748067	0.748067	0	1	0	0	CorrectCommission	0.127152	1.049231	0	0
458.845490	0.795846	city	1	1	0.897214	0.897214	0	1	0	0	CorrectCommission	1.104934	1.093266	0	0
459.641296	0.795757	city	2	1	0.904308	0.904308	0	1	0	0	CorrectCommission	1.151442	1.127851	0	0
460.437164	0.796020	city	4	1	0.996814	0.996814	0	1	0	0	CorrectCommission	1.757889	1.152365	0	0
461.232971	0.795584	city	8	1	1.344953	1.344953	0	1	0	0	CorrectCommission	4.040224	1.166731	0	0
462.028687	0.795800	city	6	1	0.798461	0.798461	0	1	0	0	CorrectCommission	0.457527	1.171345	0	0
462.824463	0.795803	city	7	1	0.648643	0.648643	0	1	0	0	CorrectCommission	0.524649	1.167115	0	0
463.620270	0.795800	city	4	1	0.748089	0.748089	0	1	0	0	CorrectCommission	0.127299	1.155195	0	0
464.416077	0.795807	city	2	1	0.847796	0.847796	0	1	0	0	CorrectCommission	0.780959	1.136984	0	0
465.211975	0.796014	city	3	1	0.864907	0.864907	0	1	0	0	CorrectCommission	0.893136	1.114055	0	0
466.007782	0.795584	city	5	1	0.996574	0.996574	0	1	0	0	CorrectCommission	1.756314	1.088214	0	0
466.803497	0.795803	city	6	1	1.104127	1.104127	0	1	0	0	CorrectCommission	2.461416	1.061574	0	0
467.599304	0.795834	city	2	0	0.000000	0.836815	0	0	0	1	OmissionError	0.708966	1.036559	0	0
468.395203	0.795986	city	5	1	0.549912	0.549912	0	1	0	0	CorrectCommission	1.171911	1.016011	0	0
469.191010	0.795586	city	1	1	0.598696	0.598696	0	1	0	0	CorrectCommission	0.852094	1.002890	0	0
469.986786	0.796017	city	9	1	0.897303	0.897303	0	1	0	0	CorrectCommission	1.105515	1.000077	0	0
470.782593	0.795584	city	2	1	0.754771	0.754771	0	1	0	0	CorrectCommission	0.171107	1.009917	0	0
471.578278	0.795804	city	3	1	0.759517	0.759517	0	1	0	0	CorrectCommission	0.202216	1.033823	0	0
472.374084	0.795798	city	8	1	0.748418	0.748418	0	1	0	0	CorrectCommission	0.129454	1.071874	0	0
473.169891	0.795816	mountain	10	1	0.802316	0.802316	0	0	1	0	CommissionError	0.482799	1.122600	0	0
473.965729	0.795852	city	8	1	0.847674	0.847674	0	1	0	0	CorrectCommission	0.780158	1.182987	0	0
474.761627	0.795957	city	5	1	0.996765	0.996765	0	1	0	0	CorrectCommission	1.757572	1.248696	0	0
475.557434	0.795621	city	2	1	0.996884	0.996884	0	1	0	0	CorrectCommission	1.758347	1.314501	0	0
476.353119	0.795762	city	4	1	1.096224	1.096224	0	1	0	0	CorrectCommission	2.409600	1.374770	0	0
477.148895	0.795811	mountain	2	0	0.000000	1.011456	1	0	0	0	CorrectOmission	1.853880	1.424092	0	0
477.944702	0.795793	city	2	1	0.897446	0.897446	0	1	0	0	CorrectCommission	1.106456	1.457839	0	0
478.740509	0.795834	city	10	1	0.909061	0.909061	0	1	0	0	CorrectCommission	1.182597	1.472542	0	0
479.536316	0.795771	city	9	1	1.047127	1.047127	0	1	0	0	CorrectCommission	2.087733	1.466271	0	0
480.332123	0.795802	city	8	1	1.096276	1.096276	0	1	0	0	CorrectCommission	2.409943	1.438661	0	0
481.127899	0.795801	city	6	1	1.096239	1.096239	0	1	0	0	CorrectCommission	2.409698	1.390859	0	0
481.923706	0.795805	city	9	1	1.195745	1.195745	0	1	0	0	CorrectCommission	3.062046	1.325233	0	0
482.719574	0.795906	city	5	1	0.699059	0.699059	0	1	0	0	CorrectCommission	0.194132	1.244962	0	0
483.515472	0.795911	mountain	10	1	0.598782	0.598782	0	0	1	0	CommissionError	0.851528	1.153605	0	0
484.311218	0.795583	mountain	6	0	0.000000	0.731361	1	0	0	0	CorrectOmission	0.017631	1.054497	0	0
485.106934	0.795824	city	8	1	0.847608	0.847608	0	1	0	0	CorrectCommission	0.779728	0.950517	0	0
485.902740	0.795781	city	9	1	0.698338	0.698338	0	1	0	0	CorrectCommission	0.198860	0.843820	0	0
486.698517	0.795799	city	2	1	0.616410	0.616410	0	1	0	0	CorrectCommission	0.735966	0.735966	0	0
