onset	duration	trial_type	image_type	Press	ReactionTime	ReactionTime_Interpolated	CorrectOmission	CorrectCommission	CommissionError	OmissionError	response_type	nonsmoothVarianceTimeCourse	VarianceTimeCourse	In_the_Zone	Reward_trial
8.433937	0.792087	city	3	1	0.910420	0.910420	0	1	0	0	CorrectCommission	2.427338	2.427338	0	1
9.226094	0.792227	city	6	1	0.654238	0.654238	0	1	0	0	CorrectCommission	0.160676	2.253563	0	1
10.018339	0.792262	city	9	1	0.453987	0.453987	0	1	0	0	CorrectCommission	2.183657	2.082141	0	1
10.810711	0.792481	city	3	1	0.447704	0.447704	0	1	0	0	CorrectCommission	2.247123	1.915276	0	1
11.603030	0.792157	city	6	1	0.460320	0.460320	0	1	0	0	CorrectCommission	2.119679	1.755076	0	1
12.395196	0.792175	city	3	1	0.497084	0.497084	0	1	0	0	CorrectCommission	1.748281	1.603410	0	1
13.187514	0.792462	mountain	10	1	0.546801	0.546801	0	0	1	0	CommissionError	1.246023	1.461840	0	1
13.979796	0.792102	city	4	1	0.596022	0.596022	0	1	0	0	CorrectCommission	0.748784	1.331567	0	1
14.771953	0.792209	city	6	1	0.596409	0.596409	0	1	0	0	CorrectCommission	0.744869	1.213401	0	1
15.564209	0.792303	city	7	1	0.605036	0.605036	0	1	0	0	CorrectCommission	0.657719	1.107723	0	1
16.356474	0.792227	city	3	1	0.695295	0.695295	0	1	0	0	CorrectCommission	0.254096	1.014557	0	1
17.148756	0.792339	mountain	4	1	0.597023	0.597023	0	0	1	0	CommissionError	0.738674	0.933642	0	1
17.941023	0.792194	city	8	1	0.514159	0.514159	0	1	0	0	CorrectCommission	1.575778	0.864550	0	1
18.733305	0.792371	city	3	1	0.546832	0.546832	0	1	0	0	CorrectCommission	1.245708	0.806771	0	1
19.525623	0.792265	city	8	1	0.546592	0.546592	0	1	0	0	CorrectCommission	1.248134	0.759788	0	1
20.317835	0.792157	city	9	1	0.658576	0.658576	0	1	0	0	CorrectCommission	0.116848	0.723051	1	1
21.110153	0.792479	city	10	1	0.648529	0.648529	0	1	0	0	CorrectCommission	0.218343	0.695898	1	1
21.902525	0.792267	city	8	1	0.663625	0.663625	0	1	0	0	CorrectCommission	0.065845	0.677421	1	1
22.694702	0.792089	city	7	1	0.695065	0.695065	0	1	0	0	CorrectCommission	0.251768	0.666404	1	1
23.486912	0.792331	city	10	1	0.645739	0.645739	0	1	0	0	CorrectCommission	0.246527	0.661282	1	1
24.279173	0.792191	city	9	1	0.744822	0.744822	0	1	0	0	CorrectCommission	0.754427	0.660275	1	1
25.071384	0.792228	city	1	1	0.695232	0.695232	0	1	0	0	CorrectCommission	0.253459	0.661505	1	1
25.863739	0.792484	city	5	1	0.794274	0.794274	0	1	0	0	CorrectCommission	1.254003	0.663335	1	1
26.656059	0.792157	city	8	1	0.893200	0.893200	0	1	0	0	CorrectCommission	2.253379	0.664539	1	1
27.448271	0.792264	city	4	1	0.794216	0.794216	0	1	0	0	CorrectCommission	1.253411	0.664390	1	1
28.240480	0.792155	city	5	1	0.656835	0.656835	0	1	0	0	CorrectCommission	0.134434	0.662734	1	1
29.032690	0.792266	city	7	1	0.695274	0.695274	0	1	0	0	CorrectCommission	0.253883	0.659804	1	1
29.824972	0.792298	city	6	1	0.695240	0.695240	0	1	0	0	CorrectCommission	0.253541	0.655975	1	1
30.617346	0.792448	mountain	4	0	0.000000	0.679811	1	0	0	0	CorrectOmission	0.097671	0.651521	1	1
31.409594	0.792049	city	10	1	0.659741	0.659741	0	1	0	0	CorrectCommission	0.105081	0.646434	1	1
32.201748	0.792262	city	1	1	0.645785	0.645785	0	1	0	0	CorrectCommission	0.246069	0.640329	1	1
32.994015	0.792266	city	4	1	0.855816	0.855816	0	1	0	0	CorrectCommission	1.875715	0.632511	1	1
33.786278	0.792266	mountain	1	0	0.000000	0.800686	1	0	0	0	CorrectOmission	1.318779	0.622138	1	1
34.578598	0.792372	city	4	1	0.645732	0.645732	0	1	0	0	CorrectCommission	0.246605	0.608474	1	1
35.370914	0.792264	city	9	1	0.556290	0.556290	0	1	0	0	CorrectCommission	1.150167	0.591120	1	1
36.163139	0.792186	city	3	1	0.646481	0.646481	0	1	0	0	CorrectCommission	0.239036	0.570129	1	1
36.955353	0.792235	city	5	1	0.603804	0.603804	0	1	0	0	CorrectCommission	0.670166	0.546165	1	1
37.747631	0.792326	city	6	1	0.744796	0.744796	0	1	0	0	CorrectCommission	0.754162	0.520412	1	1
38.539951	0.792311	city	1	1	0.645712	0.645712	0	1	0	0	CorrectCommission	0.246802	0.494477	1	1
39.332191	0.792168	city	6	1	0.708149	0.708149	0	1	0	0	CorrectCommission	0.383945	0.470235	1	1
40.124405	0.792257	city	9	1	0.695248	0.695248	0	1	0	0	CorrectCommission	0.253621	0.449593	1	1
40.916660	0.792259	mountain	5	0	0.000000	0.701393	1	0	0	0	CorrectOmission	0.315694	0.434295	1	1
41.708923	0.792267	city	1	1	0.695303	0.695303	0	1	0	0	CorrectCommission	0.254176	0.425768	1	1
42.501190	0.792265	city	7	1	0.645700	0.645700	0	1	0	0	CorrectCommission	0.246920	0.425024	1	1
43.293510	0.792374	city	2	1	0.645779	0.645779	0	1	0	0	CorrectCommission	0.246130	0.432570	1	1
44.085773	0.792154	city	8	1	0.645629	0.645629	0	1	0	0	CorrectCommission	0.247645	0.448406	1	1
44.878040	0.792375	city	7	1	0.596352	0.596352	0	1	0	0	CorrectCommission	0.745453	0.472063	1	1
45.670319	0.792186	city	2	1	0.654825	0.654825	0	1	0	0	CorrectCommission	0.154747	0.502656	1	1
46.462528	0.792233	city	10	1	0.645794	0.645794	0	1	0	0	CorrectCommission	0.245972	0.538956	1	1
47.254887	0.792484	city	2	1	0.695286	0.695286	0	1	0	0	CorrectCommission	0.254003	0.579447	1	1
48.047184	0.792111	city	10	1	0.745744	0.745744	0	1	0	0	CorrectCommission	0.763737	0.622396	1	1
48.839340	0.792204	city	4	1	0.846358	0.846358	0	1	0	0	CorrectCommission	1.780161	0.665912	1	1
49.631573	0.792260	city	7	1	0.645732	0.645732	0	1	0	0	CorrectCommission	0.246603	0.708031	1	1
50.423946	0.792483	city	1	1	0.596842	0.596842	0	1	0	0	CorrectCommission	0.740503	0.746776	1	1
51.216320	0.792264	city	7	1	0.645546	0.645546	0	1	0	0	CorrectCommission	0.248480	0.780220	0	1
52.008530	0.792156	city	2	1	0.558591	0.558591	0	1	0	0	CorrectCommission	1.126918	0.806666	0	1
52.800739	0.792267	mountain	9	0	0.000000	0.579346	1	0	0	0	CorrectOmission	0.917246	0.824697	0	1
53.592953	0.792155	city	8	1	0.596117	0.596117	0	1	0	0	CorrectCommission	0.747823	0.833419	0	1
54.385162	0.792266	city	2	1	0.497209	0.497209	0	1	0	0	CorrectCommission	1.747010	0.832547	0	1
55.177425	0.792262	city	10	1	0.497121	0.497121	0	1	0	0	CorrectCommission	1.747901	0.822467	0	1
55.969746	0.792375	city	1	1	0.612305	0.612305	0	1	0	0	CorrectCommission	0.584287	0.804286	0	1
56.762009	0.792155	city	8	1	0.747274	0.747274	0	1	0	0	CorrectCommission	0.779193	0.779705	0	1
57.554329	0.792483	mountain	8	0	0.000000	0.760149	1	0	0	0	CorrectOmission	0.909260	0.750774	0	1
58.346600	0.792063	city	9	1	0.695333	0.695333	0	1	0	0	CorrectCommission	0.254482	0.719626	1	1
59.138866	0.792468	city	3	1	0.597231	0.597231	0	1	0	0	CorrectCommission	0.736574	0.688219	1	1
59.931175	0.792154	city	7	1	0.695156	0.695156	0	1	0	0	CorrectCommission	0.252686	0.658045	1	1
60.723335	0.792161	city	4	1	0.695206	0.695206	0	1	0	0	CorrectCommission	0.253200	0.630008	1	1
61.515553	0.792277	city	8	1	0.649570	0.649570	0	1	0	0	CorrectCommission	0.207826	0.604386	1	1
62.307816	0.792249	city	4	1	0.597144	0.597144	0	1	0	0	CorrectCommission	0.737453	0.580946	1	1
63.100182	0.792483	city	6	1	0.603534	0.603534	0	1	0	0	CorrectCommission	0.672896	0.559161	1	1
63.892448	0.792047	city	2	1	0.604595	0.604595	0	1	0	0	CorrectCommission	0.662176	0.538480	1	1
64.684601	0.792266	city	9	1	0.843847	0.843847	0	1	0	0	CorrectCommission	1.754800	0.518577	1	1
65.476974	0.792479	city	1	1	0.695422	0.695422	0	1	0	0	CorrectCommission	0.255374	0.499492	1	1
66.269295	0.792156	city	7	1	0.695216	0.695216	0	1	0	0	CorrectCommission	0.253292	0.481759	1	1
67.061562	0.792374	city	3	1	0.648337	0.648337	0	1	0	0	CorrectCommission	0.220281	0.466310	1	1
67.853821	0.792157	city	9	1	0.695079	0.695079	0	1	0	0	CorrectCommission	0.251912	0.454302	1	0
68.646034	0.792264	city	8	1	0.695164	0.695164	0	1	0	0	CorrectCommission	0.252766	0.446930	1	0
69.438301	0.792263	city	5	1	0.645709	0.645709	0	1	0	0	CorrectCommission	0.246837	0.445175	1	0
70.230507	0.792160	city	10	1	0.695299	0.695299	0	1	0	0	CorrectCommission	0.254131	0.449618	1	0
71.022774	0.792372	city	3	1	0.716790	0.716790	0	1	0	0	CorrectCommission	0.471237	0.460324	1	0
71.815041	0.792153	city	5	1	0.712102	0.712102	0	1	0	0	CorrectCommission	0.423887	0.476786	1	0
72.607254	0.792280	city	7	1	0.695284	0.695284	0	1	0	0	CorrectCommission	0.253985	0.498010	1	0
73.399521	0.792249	city	1	1	0.661566	0.661566	0	1	0	0	CorrectCommission	0.086643	0.522658	1	0
74.191833	0.792376	city	6	1	0.596685	0.596685	0	1	0	0	CorrectCommission	0.742088	0.549244	1	0
74.984116	0.792197	city	8	1	0.548966	0.548966	0	1	0	0	CorrectCommission	1.224153	0.576346	1	0
75.776436	0.792440	city	1	1	0.596218	0.596218	0	1	0	0	CorrectCommission	0.746808	0.602868	1	0
76.568733	0.792156	city	7	1	0.615711	0.615711	0	1	0	0	CorrectCommission	0.549884	0.628207	1	0
77.360947	0.792266	city	3	1	0.615518	0.615518	0	1	0	0	CorrectCommission	0.551827	0.652344	1	0
78.153267	0.792372	mountain	6	1	0.596234	0.596234	0	0	1	0	CommissionError	0.746638	0.675874	1	0
78.945473	0.792050	city	5	1	0.607458	0.607458	0	1	0	0	CorrectCommission	0.633250	0.699940	1	0
79.737686	0.792370	city	2	1	0.567102	0.567102	0	1	0	0	CorrectCommission	1.040937	0.726044	1	0
80.529945	0.792156	city	7	1	0.596247	0.596247	0	1	0	0	CorrectCommission	0.746514	0.755831	0	0
81.322159	0.792268	city	3	1	0.596890	0.596890	0	1	0	0	CorrectCommission	0.740015	0.790839	0	0
82.114532	0.792481	city	1	1	0.596245	0.596245	0	1	0	0	CorrectCommission	0.746535	0.832159	0	0
82.906906	0.792264	mountain	7	0	0.000000	0.662018	1	0	0	0	CorrectOmission	0.082074	0.880259	0	0
83.699081	0.792079	city	3	1	0.695054	0.695054	0	1	0	0	CorrectCommission	0.251662	0.934786	0	0
84.491287	0.792341	city	9	1	0.596196	0.596196	0	1	0	0	CorrectCommission	0.747031	0.994504	0	0
85.283539	0.792155	city	3	1	0.563120	0.563120	0	1	0	0	CorrectCommission	1.081164	1.057399	0	0
86.075806	0.792376	city	8	1	0.546751	0.546751	0	1	0	0	CorrectCommission	1.246529	1.120866	0	0
86.868126	0.792265	city	1	1	0.497209	0.497209	0	1	0	0	CorrectCommission	1.747015	1.181972	0	0
87.660439	0.792372	mountain	7	1	0.456914	0.456914	0	0	1	0	CommissionError	2.154082	1.237764	0	0
88.452652	0.792046	city	8	1	0.546507	0.546507	0	1	0	0	CorrectCommission	1.248996	1.285553	0	0
89.244812	0.792272	city	1	1	0.546907	0.546907	0	1	0	0	CorrectCommission	1.244958	1.323176	0	0
90.037079	0.792260	city	8	1	0.546751	0.546751	0	1	0	0	CorrectCommission	1.246528	1.349078	0	0
90.829361	0.792304	city	4	1	0.498642	0.498642	0	1	0	0	CorrectCommission	1.732535	1.362405	0	0
91.621620	0.792224	city	6	1	0.497574	0.497574	0	1	0	0	CorrectCommission	1.743331	1.362979	0	0
92.413918	0.792373	mountain	10	1	0.559458	0.559458	0	0	1	0	CommissionError	1.118158	1.351269	0	0
93.206184	0.792158	city	5	1	0.524106	0.524106	0	1	0	0	CorrectCommission	1.475297	1.328318	0	0
93.998421	0.792319	city	3	1	0.447669	0.447669	0	1	0	0	CorrectCommission	2.247479	1.295583	0	0
94.790741	0.792320	city	1	1	0.546681	0.546681	0	1	0	0	CorrectCommission	1.247241	1.254829	0	0
95.583038	0.792265	city	6	1	0.546617	0.546617	0	1	0	0	CorrectCommission	1.247887	1.207998	0	0
96.375244	0.792155	city	4	1	0.551603	0.551603	0	1	0	0	CorrectCommission	1.197515	1.156997	0	0
97.167480	0.792320	city	6	1	0.744806	0.744806	0	1	0	0	CorrectCommission	0.754268	1.103559	0	0
97.959747	0.792209	mountain	3	0	0.000000	0.754779	1	0	0	0	CorrectOmission	0.855016	1.049163	0	0
98.751984	0.792264	city	10	1	0.702536	0.702536	0	1	0	0	CorrectCommission	0.327241	0.994966	0	0
99.544266	0.792300	city	4	1	0.709090	0.709090	0	1	0	0	CorrectCommission	0.393453	0.941858	0	0
100.336533	0.792229	city	7	1	0.843862	0.843862	0	1	0	0	CorrectCommission	1.754954	0.890531	0	0
101.128883	0.792482	city	4	1	0.853202	0.853202	0	1	0	0	CorrectCommission	1.849307	0.841567	0	0
101.921204	0.792156	city	7	1	0.744538	0.744538	0	1	0	0	CorrectCommission	0.751563	0.795586	0	0
102.713364	0.792159	city	1	1	0.708805	0.708805	0	1	0	0	CorrectCommission	0.390580	0.753267	0	0
103.505684	0.792479	city	8	1	0.695362	0.695362	0	1	0	0	CorrectCommission	0.254769	0.715305	1	0
104.297974	0.792103	city	9	1	0.748246	0.748246	0	1	0	0	CorrectCommission	0.789012	0.682346	1	0
105.090141	0.792236	city	10	1	0.698702	0.698702	0	1	0	0	CorrectCommission	0.288513	0.654872	1	0
105.882492	0.792455	city	5	1	0.700650	0.700650	0	1	0	0	CorrectCommission	0.308189	0.633153	1	0
106.674850	0.792264	city	8	1	0.645586	0.645586	0	1	0	0	CorrectCommission	0.248082	0.617172	1	0
107.467010	0.792067	city	10	1	0.596950	0.596950	0	1	0	0	CorrectCommission	0.739405	0.606639	1	0
108.259171	0.792251	city	2	1	0.744734	0.744734	0	1	0	0	CorrectCommission	0.753538	0.601050	1	0
109.051460	0.792329	city	9	1	0.695248	0.695248	0	1	0	0	CorrectCommission	0.253615	0.599803	1	0
109.843727	0.792195	mountain	4	0	0.000000	0.579715	1	0	0	0	CorrectOmission	0.913516	0.602304	1	0
110.636009	0.792372	mountain	7	1	0.546713	0.546713	0	0	1	0	CommissionError	1.246913	0.607979	1	0
111.428276	0.792160	city	9	1	0.744816	0.744816	0	1	0	0	CorrectCommission	0.754363	0.616269	1	0
112.220528	0.792342	city	3	1	0.645786	0.645786	0	1	0	0	CorrectCommission	0.246057	0.626604	1	0
113.012787	0.792185	city	4	1	0.645675	0.645675	0	1	0	0	CorrectCommission	0.247178	0.638298	1	0
113.805016	0.792267	city	7	1	0.695554	0.695554	0	1	0	0	CorrectCommission	0.256709	0.650436	1	0
114.597282	0.792262	city	9	1	0.712338	0.712338	0	1	0	0	CorrectCommission	0.426264	0.661877	1	0
115.389542	0.792267	city	3	1	0.695353	0.695353	0	1	0	0	CorrectCommission	0.254682	0.671340	1	0
116.181808	0.792260	city	4	1	0.761419	0.761419	0	1	0	0	CorrectCommission	0.922089	0.677564	1	0
116.974129	0.792375	city	8	1	0.843857	0.843857	0	1	0	0	CorrectCommission	1.754896	0.679561	1	0
117.766388	0.792155	city	5	1	0.794359	0.794359	0	1	0	0	CorrectCommission	1.254857	0.676857	1	0
118.558708	0.792485	city	7	1	0.745247	0.745247	0	1	0	0	CorrectCommission	0.758719	0.669718	1	0
119.350975	0.792046	city	1	1	0.745867	0.745867	0	1	0	0	CorrectCommission	0.764986	0.659210	1	0
120.143188	0.792374	mountain	5	0	0.000000	0.735580	1	0	0	0	CorrectOmission	0.661063	0.647097	1	0
120.935448	0.792156	city	4	1	0.695133	0.695133	0	1	0	0	CorrectCommission	0.252457	0.635589	1	0
121.727661	0.792263	city	7	1	0.605273	0.605273	0	1	0	0	CorrectCommission	0.655329	0.626982	1	0
122.519928	0.792268	city	6	1	0.702231	0.702231	0	1	0	0	CorrectCommission	0.324161	0.623238	1	0
123.312195	0.792263	city	4	1	0.695304	0.695304	0	1	0	0	CorrectCommission	0.254182	0.625613	1	0
124.104454	0.792267	city	7	1	0.645965	0.645965	0	1	0	0	CorrectCommission	0.244248	0.634360	1	0
124.896736	0.792296	city	9	1	0.646774	0.646774	0	1	0	0	CorrectCommission	0.236073	0.648595	1	0
125.689018	0.792258	city	5	1	0.744936	0.744936	0	1	0	0	CorrectCommission	0.755577	0.666363	1	0
126.481262	0.792236	city	2	1	0.645708	0.645708	0	1	0	0	CorrectCommission	0.246844	0.684894	1	0
127.273514	0.792268	mountain	10	1	0.645733	0.645733	0	0	1	0	CommissionError	0.246596	0.701047	1	1
128.065781	0.792262	city	9	1	0.497214	0.497214	0	1	0	0	CorrectCommission	1.746968	0.711773	1	1
128.858093	0.792373	city	10	1	0.501637	0.501637	0	1	0	0	CorrectCommission	1.702282	0.714615	1	1
129.650360	0.792156	city	8	1	0.546589	0.546589	0	1	0	0	CorrectCommission	1.248163	0.708183	1	1
130.442566	0.792267	city	1	1	0.497231	0.497231	0	1	0	0	CorrectCommission	1.746789	0.692331	1	1
131.234894	0.792372	city	2	1	0.645798	0.645798	0	1	0	0	CorrectCommission	0.245931	0.668170	1	1
132.027161	0.792157	city	8	1	0.647520	0.647520	0	1	0	0	CorrectCommission	0.228538	0.637926	1	1
132.819427	0.792373	city	7	1	0.706890	0.706890	0	1	0	0	CorrectCommission	0.371232	0.604546	1	1
133.611679	0.792155	city	6	1	0.695269	0.695269	0	1	0	0	CorrectCommission	0.253830	0.571290	1	1
134.403900	0.792267	city	4	1	0.651200	0.651200	0	1	0	0	CorrectCommission	0.191364	0.541289	1	1
135.196182	0.792305	city	1	1	0.600918	0.600918	0	1	0	0	CorrectCommission	0.699321	0.517180	1	1
135.988449	0.792224	city	7	1	0.695394	0.695394	0	1	0	0	CorrectCommission	0.255092	0.500844	1	1
136.780685	0.792265	city	5	1	0.695239	0.695239	0	1	0	0	CorrectCommission	0.253527	0.493270	1	1
137.572983	0.792311	city	2	1	0.645693	0.645693	0	1	0	0	CorrectCommission	0.246999	0.494538	1	1
138.365356	0.792438	city	9	1	0.695839	0.695839	0	1	0	0	CorrectCommission	0.259587	0.503881	1	1
139.157593	0.792047	city	7	1	0.608437	0.608437	0	1	0	0	CorrectCommission	0.623367	0.519848	1	1
139.949753	0.792267	city	8	1	0.596252	0.596252	0	1	0	0	CorrectCommission	0.746465	0.540496	1	1
140.742050	0.792332	mountain	6	0	0.000000	0.627263	1	0	0	0	CorrectOmission	0.433177	0.563646	1	1
141.534317	0.792193	city	8	1	0.645846	0.645846	0	1	0	0	CorrectCommission	0.245454	0.587100	1	1
142.326538	0.792267	city	6	1	0.596372	0.596372	0	1	0	0	CorrectCommission	0.745247	0.608885	1	1
143.118835	0.792317	mountain	10	1	0.598873	0.598873	0	0	1	0	CommissionError	0.719978	0.627428	1	1
143.911102	0.792231	city	7	1	0.596163	0.596163	0	1	0	0	CorrectCommission	0.747361	0.641783	1	1
144.703461	0.792461	city	8	1	0.498532	0.498532	0	1	0	0	CorrectCommission	1.733649	0.651691	1	1
145.495712	0.792049	city	6	1	0.596159	0.596159	0	1	0	0	CorrectCommission	0.747400	0.657530	1	1
146.287872	0.792264	city	10	1	0.596295	0.596295	0	1	0	0	CorrectCommission	0.746030	0.660343	1	1
147.080139	0.792265	city	5	1	0.652778	0.652778	0	1	0	0	CorrectCommission	0.175426	0.661582	1	1
147.872391	0.792267	city	6	1	0.695481	0.695481	0	1	0	0	CorrectCommission	0.255978	0.662876	1	1
148.664658	0.792266	city	2	1	0.596740	0.596740	0	1	0	0	CorrectCommission	0.741529	0.665791	1	1
149.456924	0.792259	city	6	1	0.597386	0.597386	0	1	0	0	CorrectCommission	0.735002	0.671570	1	1
150.249191	0.792267	city	3	1	0.695401	0.695401	0	1	0	0	CorrectCommission	0.255161	0.680956	1	1
151.041458	0.792267	city	2	1	0.596243	0.596243	0	1	0	0	CorrectCommission	0.746556	0.694095	1	1
151.833725	0.792264	city	5	1	0.645968	0.645968	0	1	0	0	CorrectCommission	0.244217	0.710496	1	1
152.625992	0.792265	city	3	1	0.547436	0.547436	0	1	0	0	CorrectCommission	1.239614	0.729130	1	1
153.418259	0.792265	city	1	1	0.706585	0.706585	0	1	0	0	CorrectCommission	0.368149	0.748542	1	1
154.210510	0.792263	city	3	1	0.745176	0.745176	0	1	0	0	CorrectCommission	0.758001	0.767109	0	1
155.002777	0.792265	city	1	1	0.744832	0.744832	0	1	0	0	CorrectCommission	0.754531	0.783168	0	1
155.795044	0.792267	city	6	1	0.843920	0.843920	0	1	0	0	CorrectCommission	1.755541	0.795262	0	1
156.587311	0.792266	city	1	1	0.763789	0.763789	0	1	0	0	CorrectCommission	0.946036	0.802244	0	1
157.379578	0.792259	city	8	1	0.754356	0.754356	0	1	0	0	CorrectCommission	0.850743	0.803403	0	1
158.171860	0.792314	city	10	1	0.645732	0.645732	0	1	0	0	CorrectCommission	0.246605	0.798474	0	1
158.964188	0.792326	city	3	1	0.794301	0.794301	0	1	0	0	CorrectCommission	1.254274	0.787640	0	1
159.756531	0.792374	mountain	9	0	0.000000	0.770675	1	0	0	0	CorrectOmission	1.015602	0.771412	0	1
160.548798	0.792155	city	4	1	0.659811	0.659811	0	1	0	0	CorrectCommission	0.104370	0.750655	0	1
161.340942	0.792153	city	10	1	0.546666	0.546666	0	1	0	0	CorrectCommission	1.247390	0.726491	1	1
162.133179	0.792314	city	8	1	0.546714	0.546714	0	1	0	0	CorrectCommission	1.246909	0.700179	1	1
162.925446	0.792218	city	9	1	0.645670	0.645670	0	1	0	0	CorrectCommission	0.247231	0.673168	1	1
163.717712	0.792294	city	1	1	0.645784	0.645784	0	1	0	0	CorrectCommission	0.246078	0.647017	1	1
164.510010	0.792311	city	5	1	0.744764	0.744764	0	1	0	0	CorrectCommission	0.753840	0.623296	1	1
165.302261	0.792187	city	3	1	0.609739	0.609739	0	1	0	0	CorrectCommission	0.610209	0.603518	1	1
166.094543	0.792373	city	1	1	0.607872	0.607872	0	1	0	0	CorrectCommission	0.629076	0.589065	1	1
166.886810	0.792161	city	8	1	0.744690	0.744690	0	1	0	0	CorrectCommission	0.753092	0.581044	1	1
167.679016	0.792261	city	1	1	0.695286	0.695286	0	1	0	0	CorrectCommission	0.254007	0.580172	1	1
168.471283	0.792263	city	3	1	0.663158	0.663158	0	1	0	0	CorrectCommission	0.070558	0.586653	1	1
169.263565	0.792318	mountain	5	0	0.000000	0.640141	1	0	0	0	CorrectOmission	0.303080	0.600096	1	1
170.055832	0.792212	city	5	1	0.656737	0.656737	0	1	0	0	CorrectCommission	0.135427	0.619459	1	1
170.848068	0.792268	mountain	8	0	0.000000	0.743447	1	0	0	0	CorrectOmission	0.740536	0.643124	1	1
171.640335	0.792262	city	1	1	0.794446	0.794446	0	1	0	0	CorrectCommission	1.255743	0.668981	1	1
172.432709	0.792483	city	10	1	0.703910	0.703910	0	1	0	0	CorrectCommission	0.341129	0.694655	1	1
173.224976	0.792049	city	2	1	0.744909	0.744909	0	1	0	0	CorrectCommission	0.755308	0.717730	1	1
174.017136	0.792266	city	4	1	0.798532	0.798532	0	1	0	0	CorrectCommission	1.297021	0.735985	1	1
174.809509	0.792479	city	8	1	0.745467	0.745467	0	1	0	0	CorrectCommission	0.760939	0.747627	1	1
175.601807	0.792129	city	6	1	0.794117	0.794117	0	1	0	0	CorrectCommission	1.252416	0.751526	0	1
176.393967	0.792187	city	1	1	0.744725	0.744725	0	1	0	0	CorrectCommission	0.753443	0.747285	1	1
177.186249	0.792369	city	9	1	0.710517	0.710517	0	1	0	0	CorrectCommission	0.407869	0.735345	1	1
177.978516	0.792157	city	7	1	0.794166	0.794166	0	1	0	0	CorrectCommission	1.252906	0.716943	1	1
178.770828	0.792481	city	9	1	0.794263	0.794263	0	1	0	0	CorrectCommission	1.253895	0.693980	1	1
179.563141	0.792156	mountain	5	0	0.000000	0.727030	1	0	0	0	CorrectOmission	0.574687	0.668881	1	1
180.355301	0.792156	city	4	1	0.646062	0.646062	0	1	0	0	CorrectCommission	0.243264	0.644414	1	1
181.147537	0.792306	city	5	1	0.604959	0.604959	0	1	0	0	CorrectCommission	0.658503	0.623404	1	1
181.939804	0.792227	city	3	1	0.695307	0.695307	0	1	0	0	CorrectCommission	0.254215	0.608441	1	1
182.732056	0.792271	city	10	1	0.645750	0.645750	0	1	0	0	CorrectCommission	0.246420	0.601686	1	1
183.524307	0.792262	city	2	1	0.696059	0.696059	0	1	0	0	CorrectCommission	0.261810	0.604661	1	1
184.316574	0.792262	city	3	1	0.698076	0.698076	0	1	0	0	CorrectCommission	0.282191	0.618119	1	1
185.108841	0.792261	city	7	1	0.755680	0.755680	0	1	0	0	CorrectCommission	0.864115	0.641990	1	1
185.901215	0.792484	city	2	1	0.708966	0.708966	0	1	0	0	CorrectCommission	0.392203	0.675395	1	1
186.693481	0.792067	city	3	1	0.695390	0.695390	0	1	0	0	CorrectCommission	0.255050	0.716723	1	0
187.485703	0.792353	city	6	1	0.794319	0.794319	0	1	0	0	CorrectCommission	1.254461	0.763756	0	0
188.277969	0.792191	city	1	1	0.744835	0.744835	0	1	0	0	CorrectCommission	0.754556	0.813776	0	0
189.070236	0.792337	city	3	1	0.751640	0.751640	0	1	0	0	CorrectCommission	0.823304	0.863839	0	0
189.862518	0.792234	city	4	1	0.713895	0.713895	0	1	0	0	CorrectCommission	0.441992	0.910941	0	0
190.654724	0.792186	city	6	1	0.598744	0.598744	0	1	0	0	CorrectCommission	0.721284	0.952261	0	0
191.447006	0.792374	mountain	1	1	0.498135	0.498135	0	0	1	0	CommissionError	1.737661	0.985387	0	0
192.239273	0.792160	city	6	1	0.448108	0.448108	0	1	0	0	CorrectCommission	2.243043	1.008542	0	0
193.031494	0.792262	city	10	1	0.546693	0.546693	0	1	0	0	CorrectCommission	1.247117	1.020753	0	0
193.823807	0.792373	city	8	1	0.546754	0.546754	0	1	0	0	CorrectCommission	1.246503	1.021995	0	0
194.616074	0.792154	city	6	1	0.645969	0.645969	0	1	0	0	CorrectCommission	0.244210	1.013131	0	0
195.408295	0.792290	mountain	9	0	0.000000	0.581124	1	0	0	0	CorrectOmission	0.899284	0.995852	0	0
196.200607	0.792348	city	10	1	0.497121	0.497121	0	1	0	0	CorrectCommission	1.747906	0.972490	0	0
196.992859	0.792159	mountain	6	0	0.000000	0.538859	1	0	0	0	CorrectOmission	1.326253	0.945835	0	0
197.785080	0.792265	mountain	7	1	0.605264	0.605264	0	0	1	0	CommissionError	0.655418	0.918859	0	0
198.577332	0.792264	mountain	2	0	0.000000	0.595259	1	0	0	0	CorrectOmission	0.756492	0.894405	0	0
199.369598	0.792268	city	7	1	0.596282	0.596282	0	1	0	0	CorrectCommission	0.746161	0.874895	0	0
200.161972	0.792478	city	4	1	0.695769	0.695769	0	1	0	0	CorrectCommission	0.258886	0.862131	0	0
200.954239	0.792048	mountain	6	0	0.000000	0.728685	1	0	0	0	CorrectOmission	0.591406	0.857112	0	0
201.746414	0.792313	city	7	1	0.695384	0.695384	0	1	0	0	CorrectCommission	0.254989	0.859962	0	0
202.538696	0.792228	city	6	1	0.596221	0.596221	0	1	0	0	CorrectCommission	0.746776	0.870001	0	0
203.330933	0.792255	mountain	8	0	0.000000	0.710729	1	0	0	0	CorrectOmission	0.410009	0.885880	0	0
204.123306	0.792480	city	5	1	0.851156	0.851156	0	1	0	0	CorrectCommission	1.828638	0.905828	0	0
204.915588	0.792088	mountain	2	0	0.000000	0.829751	1	0	0	0	CorrectOmission	1.612403	0.927809	0	0
205.707855	0.792442	city	2	1	0.757294	0.757294	0	1	0	0	CorrectCommission	0.880426	0.949812	0	0
206.500107	0.792068	city	8	1	0.744565	0.744565	0	1	0	0	CorrectCommission	0.751827	0.969978	0	0
207.292267	0.792245	city	10	1	0.744908	0.744908	0	1	0	0	CorrectCommission	0.755291	0.986646	0	0
208.084564	0.792373	mountain	10	0	0.000000	0.582798	1	0	0	0	CorrectOmission	0.882371	0.998371	0	0
208.876892	0.792263	city	1	1	0.514016	0.514016	0	1	0	0	CorrectCommission	1.577228	1.003935	0	0
209.669159	0.792267	city	4	1	0.794338	0.794338	0	1	0	0	CorrectCommission	1.254653	1.002346	0	0
210.461380	0.792182	city	8	1	0.649867	0.649867	0	1	0	0	CorrectCommission	0.204831	0.992940	0	0
211.253647	0.792347	city	7	1	0.596255	0.596255	0	1	0	0	CorrectCommission	0.746425	0.975454	0	0
212.045898	0.792177	city	8	1	0.459095	0.459095	0	1	0	0	CorrectCommission	2.132045	0.950114	0	0
212.838104	0.792243	city	3	1	0.511474	0.511474	0	1	0	0	CorrectCommission	1.602904	0.917752	0	0
213.630371	0.792267	mountain	1	0	0.000000	0.562666	1	0	0	0	CorrectOmission	1.085755	0.879907	0	0
214.422638	0.792270	city	1	1	0.645874	0.645874	0	1	0	0	CorrectCommission	0.245167	0.838784	0	0
215.214905	0.792262	city	2	1	0.794302	0.794302	0	1	0	0	CorrectCommission	1.254289	0.797143	0	0
216.007156	0.792264	city	8	1	0.744825	0.744825	0	1	0	0	CorrectCommission	0.754453	0.757998	0	0
216.799423	0.792260	city	2	1	0.695273	0.695273	0	1	0	0	CorrectCommission	0.253869	0.724384	1	0
217.591690	0.792277	city	10	1	0.646125	0.646125	0	1	0	0	CorrectCommission	0.242633	0.698978	1	0
218.383987	0.792319	city	7	1	0.702583	0.702583	0	1	0	0	CorrectCommission	0.327722	0.683727	1	0
219.176254	0.792202	city	2	1	0.695334	0.695334	0	1	0	0	CorrectCommission	0.254487	0.679637	1	0
219.968491	0.792261	city	7	1	0.645906	0.645906	0	1	0	0	CorrectCommission	0.244845	0.686609	1	0
220.760773	0.792324	city	1	1	0.645818	0.645818	0	1	0	0	CorrectCommission	0.245734	0.703504	1	0
221.553101	0.792315	city	10	1	0.794238	0.794238	0	1	0	0	CorrectCommission	1.253639	0.728240	1	0
222.345337	0.792155	city	8	1	0.794174	0.794174	0	1	0	0	CorrectCommission	1.252996	0.758062	0	0
223.137543	0.792270	city	5	1	0.696358	0.696358	0	1	0	0	CorrectCommission	0.264835	0.789943	0	0
223.929810	0.792261	city	8	1	0.607302	0.607302	0	1	0	0	CorrectCommission	0.634826	0.820915	0	0
224.722183	0.792483	city	5	1	0.756661	0.756661	0	1	0	0	CorrectCommission	0.874026	0.848394	0	0
225.514450	0.792046	city	2	1	0.794605	0.794605	0	1	0	0	CorrectCommission	1.257344	0.870490	0	0
226.306610	0.792269	city	3	1	0.843918	0.843918	0	1	0	0	CorrectCommission	1.755514	0.886132	0	0
227.098862	0.792260	city	10	1	0.804754	0.804754	0	1	0	0	CorrectCommission	1.359872	0.895120	0	0
227.891129	0.792268	city	5	1	0.805259	0.805259	0	1	0	0	CorrectCommission	1.364973	0.898049	0	0
228.683395	0.792262	city	1	1	0.744923	0.744923	0	1	0	0	CorrectCommission	0.755444	0.896036	0	0
229.475662	0.792266	city	9	1	0.645742	0.645742	0	1	0	0	CorrectCommission	0.246498	0.890464	0	0
230.267975	0.792373	city	7	1	0.695432	0.695432	0	1	0	0	CorrectCommission	0.255474	0.882644	0	0
231.060349	0.792374	city	4	1	0.657937	0.657937	0	1	0	0	CorrectCommission	0.123301	0.873601	0	0
231.852570	0.792047	city	3	1	0.563831	0.563831	0	1	0	0	CorrectCommission	1.073982	0.863967	0	0
232.644775	0.792374	city	7	1	0.507886	0.507886	0	1	0	0	CorrectCommission	1.639149	0.853920	0	0
233.437042	0.792160	city	3	1	0.560190	0.560190	0	1	0	0	CorrectCommission	1.110763	0.843329	0	0
234.229309	0.792369	city	6	1	0.553318	0.553318	0	1	0	0	CorrectCommission	1.180184	0.831927	0	0
235.021561	0.792155	city	8	1	0.695207	0.695207	0	1	0	0	CorrectCommission	0.253202	0.819458	0	0
235.813828	0.792374	city	3	1	0.794441	0.794441	0	1	0	0	CorrectCommission	1.255691	0.805828	0	0
236.606094	0.792156	city	9	1	0.762416	0.762416	0	1	0	0	CorrectCommission	0.932166	0.791118	0	0
237.398315	0.792284	city	2	1	0.695298	0.695298	0	1	0	0	CorrectCommission	0.254124	0.775675	0	0
238.190598	0.792283	city	7	1	0.758264	0.758264	0	1	0	0	CorrectCommission	0.890216	0.760035	0	0
238.982849	0.792227	city	8	1	0.649633	0.649633	0	1	0	0	CorrectCommission	0.207191	0.744840	1	0
239.775101	0.792269	city	10	1	0.596269	0.596269	0	1	0	0	CorrectCommission	0.746288	0.730822	1	0
240.567368	0.792266	city	2	1	0.511699	0.511699	0	1	0	0	CorrectCommission	1.600631	0.718743	1	0
241.359634	0.792260	city	3	1	0.596685	0.596685	0	1	0	0	CorrectCommission	0.742082	0.709348	1	0
242.151947	0.792372	city	4	1	0.702624	0.702624	0	1	0	0	CorrectCommission	0.328131	0.703392	1	0
242.944275	0.792266	mountain	4	0	0.000000	0.658778	1	0	0	0	CorrectOmission	0.114809	0.701575	1	0
243.736588	0.792373	city	10	1	0.645620	0.645620	0	1	0	0	CorrectCommission	0.247732	0.704497	1	0
244.528809	0.792054	city	2	1	0.843623	0.843623	0	1	0	0	CorrectCommission	1.752534	0.712663	1	0
245.320953	0.792262	city	1	1	0.695221	0.695221	0	1	0	0	CorrectCommission	0.253351	0.726411	1	0
246.113220	0.792265	city	10	1	0.709953	0.709953	0	1	0	0	CorrectCommission	0.402176	0.745994	1	1
246.905502	0.792281	city	2	1	0.744934	0.744934	0	1	0	0	CorrectCommission	0.755556	0.771399	0	1
247.697800	0.792318	city	6	1	0.794358	0.794358	0	1	0	0	CorrectCommission	1.254854	0.802371	0	1
248.490082	0.792259	mountain	5	0	0.000000	0.741164	1	0	0	0	CorrectOmission	0.717473	0.838393	0	1
249.282425	0.792414	city	3	1	0.652823	0.652823	0	1	0	0	CorrectCommission	0.174971	0.878675	0	1
250.074707	0.792155	city	8	1	0.596806	0.596806	0	1	0	0	CorrectCommission	0.740862	0.922175	0	1
250.866867	0.792161	city	1	1	0.596128	0.596128	0	1	0	0	CorrectCommission	0.747708	0.967644	0	1
251.659073	0.792270	city	3	1	0.745018	0.745018	0	1	0	0	CorrectCommission	0.756411	1.013739	0	1
252.451385	0.792336	city	5	1	0.851035	0.851035	0	1	0	0	CorrectCommission	1.827414	1.059103	0	1
253.243668	0.792241	city	3	1	0.843735	0.843735	0	1	0	0	CorrectCommission	1.753664	1.102413	0	1
254.035904	0.792210	city	4	1	0.843757	0.843757	0	1	0	0	CorrectCommission	1.753889	1.142446	0	1
254.828247	0.792478	city	3	1	0.753910	0.753910	0	1	0	0	CorrectCommission	0.846231	1.178053	0	1
255.620499	0.792047	city	7	1	0.744792	0.744792	0	1	0	0	CorrectCommission	0.754123	1.208096	0	1
256.412781	0.792483	city	6	1	0.745269	0.745269	0	1	0	0	CorrectCommission	0.758947	1.231404	0	1
257.205139	0.792264	city	7	1	0.801088	0.801088	0	1	0	0	CorrectCommission	1.322839	1.246780	0	1
257.997314	0.792096	city	4	1	0.843608	0.843608	0	1	0	0	CorrectCommission	1.752381	1.253069	0	1
258.789490	0.792219	city	5	1	0.755525	0.755525	0	1	0	0	CorrectCommission	0.862556	1.249383	0	1
259.581726	0.792262	city	1	1	0.794355	0.794355	0	1	0	0	CorrectCommission	1.254815	1.235370	0	1
260.374023	0.792326	city	5	1	0.843898	0.843898	0	1	0	0	CorrectCommission	1.755316	1.211407	0	1
261.166290	0.792204	city	6	1	0.998707	0.998707	0	1	0	0	CorrectCommission	3.319231	1.178828	0	1
261.958527	0.792268	mountain	3	0	0.000000	0.796212	1	0	0	0	CorrectOmission	1.273576	1.139833	0	1
262.750793	0.792262	city	8	1	0.596155	0.596155	0	1	0	0	CorrectCommission	0.747439	1.097460	0	1
263.543030	0.792264	city	9	1	0.758281	0.758281	0	1	0	0	CorrectCommission	0.890396	1.055094	0	1
264.335297	0.792264	city	7	1	0.695413	0.695413	0	1	0	0	CorrectCommission	0.255289	1.015990	0	1
265.127563	0.792265	city	9	1	0.645784	0.645784	0	1	0	0	CorrectCommission	0.246082	0.982790	0	1
265.919830	0.792268	city	6	1	0.645725	0.645725	0	1	0	0	CorrectCommission	0.246669	0.957061	0	1
266.712219	0.792479	city	9	1	0.744989	0.744989	0	1	0	0	CorrectCommission	0.756112	0.939089	0	1
267.504517	0.792154	city	4	1	0.660307	0.660307	0	1	0	0	CorrectCommission	0.099359	0.927850	0	1
268.296783	0.792376	city	7	1	0.806381	0.806381	0	1	0	0	CorrectCommission	1.376311	0.921283	0	1
269.088989	0.792045	city	1	1	0.794078	0.794078	0	1	0	0	CorrectCommission	1.252023	0.916678	0	1
269.881165	0.792269	city	10	1	0.843827	0.843827	0	1	0	0	CorrectCommission	1.754600	0.911236	0	1
270.673523	0.792480	city	9	1	0.807067	0.807067	0	1	0	0	CorrectCommission	1.383238	0.902532	0	1
271.465790	0.792051	city	4	1	0.794241	0.794241	0	1	0	0	CorrectCommission	1.253666	0.888927	0	1
272.257965	0.792259	city	10	1	0.794275	0.794275	0	1	0	0	CorrectCommission	1.254013	0.869740	0	1
273.050232	0.792268	mountain	4	0	0.000000	0.731546	1	0	0	0	CorrectOmission	0.620309	0.845251	0	1
273.842499	0.792268	city	1	1	0.659730	0.659730	0	1	0	0	CorrectCommission	0.105192	0.816547	0	1
274.634796	0.792368	mountain	5	0	0.000000	0.632504	1	0	0	0	CorrectOmission	0.380236	0.785224	0	1
275.427124	0.792263	city	10	1	0.695216	0.695216	0	1	0	0	CorrectCommission	0.253296	0.753070	0	1
276.219452	0.792376	city	4	1	0.893215	0.893215	0	1	0	0	CorrectCommission	2.253522	0.721826	1	1
277.011658	0.792046	city	7	1	0.744589	0.744589	0	1	0	0	CorrectCommission	0.752075	0.692881	1	1
277.803925	0.792482	city	6	1	0.695287	0.695287	0	1	0	0	CorrectCommission	0.254018	0.667250	1	1
278.596283	0.792265	mountain	1	0	0.000000	0.672485	1	0	0	0	CorrectOmission	0.023660	0.645406	1	1
279.388458	0.792061	city	6	1	0.649193	0.649193	0	1	0	0	CorrectCommission	0.211637	0.627401	1	1
280.180664	0.792360	city	7	1	0.598424	0.598424	0	1	0	0	CorrectCommission	0.724514	0.612986	1	1
280.972931	0.792156	city	8	1	0.645676	0.645676	0	1	0	0	CorrectCommission	0.247166	0.601792	1	1
281.765137	0.792265	city	5	1	0.745236	0.745236	0	1	0	0	CorrectCommission	0.758611	0.593594	1	1
282.557465	0.792373	city	1	1	0.794278	0.794278	0	1	0	0	CorrectCommission	1.254043	0.588425	1	1
283.349701	0.792155	city	5	1	0.745240	0.745240	0	1	0	0	CorrectCommission	0.758650	0.586764	1	1
284.141937	0.792294	city	7	1	0.745841	0.745841	0	1	0	0	CorrectCommission	0.764725	0.589503	1	1
284.934326	0.792454	city	2	1	0.745298	0.745298	0	1	0	0	CorrectCommission	0.759231	0.597820	1	1
285.726593	0.792094	city	5	1	0.695889	0.695889	0	1	0	0	CorrectCommission	0.260095	0.612882	1	1
286.518860	0.792436	city	4	1	0.657244	0.657244	0	1	0	0	CorrectCommission	0.130302	0.635576	1	1
287.311096	0.792051	mountain	8	0	0.000000	0.664219	1	0	0	0	CorrectOmission	0.059837	0.666160	1	1
288.103241	0.792265	mountain	2	0	0.000000	0.690460	1	0	0	0	CorrectOmission	0.205246	0.704060	1	1
288.895508	0.792264	city	9	1	0.709610	0.709610	0	1	0	0	CorrectCommission	0.398708	0.747798	1	1
289.687897	0.792480	city	7	1	0.695316	0.695316	0	1	0	0	CorrectCommission	0.254308	0.795108	0	1
290.480255	0.792266	city	2	1	0.605271	0.605271	0	1	0	0	CorrectCommission	0.655349	0.843244	0	1
291.272461	0.792126	city	1	1	0.497168	0.497168	0	1	0	0	CorrectCommission	1.747428	0.889333	0	1
292.064606	0.792188	city	8	1	0.448061	0.448061	0	1	0	0	CorrectCommission	2.243520	0.930746	0	1
292.856903	0.792370	mountain	3	1	0.447663	0.447663	0	0	1	0	CommissionError	2.247536	0.965468	0	1
293.649170	0.792154	city	9	1	0.556059	0.556059	0	1	0	0	CorrectCommission	1.152495	0.992193	0	1
294.441467	0.792484	city	8	1	0.646098	0.646098	0	1	0	0	CorrectCommission	0.242901	1.010368	0	1
295.233734	0.792046	city	6	1	0.645537	0.645537	0	1	0	0	CorrectCommission	0.248569	1.020004	0	1
296.026001	0.792484	city	1	1	0.597066	0.597066	0	1	0	0	CorrectCommission	0.738240	1.021448	0	1
296.818268	0.792050	city	10	1	0.546529	0.546529	0	1	0	0	CorrectCommission	1.248771	1.015185	0	1
297.610535	0.792481	mountain	4	0	0.000000	0.691379	1	0	0	0	CorrectOmission	0.214532	1.001718	0	1
298.402863	0.792155	city	7	1	0.850728	0.850728	0	1	0	0	CorrectCommission	1.824315	0.981614	0	1
299.195007	0.792156	city	5	1	0.843691	0.843691	0	1	0	0	CorrectCommission	1.753222	0.955488	0	1
299.987213	0.792269	city	10	1	0.861286	0.861286	0	1	0	0	CorrectCommission	1.930975	0.924219	0	1
300.779541	0.792369	city	8	1	0.745561	0.745561	0	1	0	0	CorrectCommission	0.761893	0.888964	0	1
301.571808	0.792155	city	7	1	0.744723	0.744723	0	1	0	0	CorrectCommission	0.753425	0.851218	0	1
302.364014	0.792267	city	3	1	0.713367	0.713367	0	1	0	0	CorrectCommission	0.436660	0.812647	0	1
303.156342	0.792370	city	4	1	0.695524	0.695524	0	1	0	0	CorrectCommission	0.256408	0.774953	0	1
303.948608	0.792156	city	2	1	0.645554	0.645554	0	1	0	0	CorrectCommission	0.248403	0.739665	1	1
304.740875	0.792375	city	1	1	0.704492	0.704492	0	1	0	0	CorrectCommission	0.347003	0.707968	1	1
305.533234	0.792373	city	4	1	0.794284	0.794284	0	1	0	0	CorrectCommission	1.254103	0.680590	1	0
306.325439	0.792051	mountain	9	0	0.000000	0.751475	1	0	0	0	CorrectOmission	0.821636	0.657749	1	0
307.117615	0.792261	city	2	1	0.695241	0.695241	0	1	0	0	CorrectCommission	0.253544	0.639256	1	0
307.909973	0.792483	city	5	1	0.744757	0.744757	0	1	0	0	CorrectCommission	0.753770	0.624548	1	0
308.702240	0.792047	city	3	1	0.762192	0.762192	0	1	0	0	CorrectCommission	0.929901	0.612789	1	0
309.494446	0.792373	mountain	1	0	0.000000	0.696765	1	0	0	0	CorrectOmission	0.268949	0.603020	1	0
310.286713	0.792154	city	10	1	0.657032	0.657032	0	1	0	0	CorrectCommission	0.132442	0.594285	1	0
311.078918	0.792268	city	5	1	0.751548	0.751548	0	1	0	0	CorrectCommission	0.822370	0.585692	1	0
311.871185	0.792267	city	9	1	0.758577	0.758577	0	1	0	0	CorrectCommission	0.893381	0.576504	1	0
312.663452	0.792261	city	5	1	0.744974	0.744974	0	1	0	0	CorrectCommission	0.755961	0.566210	1	0
313.455719	0.792269	mountain	1	0	0.000000	0.707758	1	0	0	0	CorrectOmission	0.379997	0.554541	1	0
314.248016	0.792294	city	3	1	0.645829	0.645829	0	1	0	0	CorrectCommission	0.245623	0.541503	1	0
315.040283	0.792236	city	8	1	0.558087	0.558087	0	1	0	0	CorrectCommission	1.132012	0.527402	1	0
315.832520	0.792259	city	6	1	0.656405	0.656405	0	1	0	0	CorrectCommission	0.138781	0.512759	1	0
316.624847	0.792374	city	8	1	0.596351	0.596351	0	1	0	0	CorrectCommission	0.745461	0.498351	1	0
317.417084	0.792158	city	7	1	0.596913	0.596913	0	1	0	0	CorrectCommission	0.739781	0.485060	1	0
318.209412	0.792480	city	4	1	0.695422	0.695422	0	1	0	0	CorrectCommission	0.255376	0.473849	1	0
319.001678	0.792048	city	8	1	0.645548	0.645548	0	1	0	0	CorrectCommission	0.248457	0.465631	1	0
319.793854	0.792266	city	2	1	0.660623	0.660623	0	1	0	0	CorrectCommission	0.096174	0.461171	1	0
320.586090	0.792263	city	3	1	0.645755	0.645755	0	1	0	0	CorrectCommission	0.246370	0.461009	1	0
321.378357	0.792262	city	7	1	0.695426	0.695426	0	1	0	0	CorrectCommission	0.255421	0.465396	1	0
322.170624	0.792269	city	3	1	0.794309	0.794309	0	1	0	0	CorrectCommission	1.254355	0.474275	1	0
322.962891	0.792262	city	10	1	0.695374	0.695374	0	1	0	0	CorrectCommission	0.254889	0.487254	1	0
323.755280	0.792482	city	5	1	0.650745	0.650745	0	1	0	0	CorrectCommission	0.195957	0.503703	1	0
324.547546	0.792050	city	10	1	0.645976	0.645976	0	1	0	0	CorrectCommission	0.244141	0.522747	1	0
325.339691	0.792263	city	1	1	0.745111	0.745111	0	1	0	0	CorrectCommission	0.757345	0.543337	1	0
326.131958	0.792263	city	10	1	0.647125	0.647125	0	1	0	0	CorrectCommission	0.232526	0.564318	1	0
326.924225	0.792266	city	5	1	0.745209	0.745209	0	1	0	0	CorrectCommission	0.758341	0.584529	1	0
327.716492	0.792263	city	6	1	0.794433	0.794433	0	1	0	0	CorrectCommission	1.255607	0.602847	1	0
328.508789	0.792347	city	2	1	0.713643	0.713643	0	1	0	0	CorrectCommission	0.439447	0.618272	1	0
329.301086	0.792237	city	8	1	0.611476	0.611476	0	1	0	0	CorrectCommission	0.592664	0.630031	1	0
330.093292	0.792214	city	3	1	0.601375	0.601375	0	1	0	0	CorrectCommission	0.694704	0.637570	1	0
330.885559	0.792261	mountain	6	0	0.000000	0.598450	1	0	0	0	CorrectOmission	0.724255	0.640644	1	0
331.677856	0.792372	city	5	1	0.599743	0.599743	0	1	0	0	CorrectCommission	0.711188	0.639322	1	0
332.470123	0.792159	city	1	1	0.602299	0.602299	0	1	0	0	CorrectCommission	0.685373	0.633976	1	0
333.262329	0.792265	city	7	1	0.596266	0.596266	0	1	0	0	CorrectCommission	0.746314	0.625349	1	0
334.054626	0.792287	city	1	1	0.608004	0.608004	0	1	0	0	CorrectCommission	0.627739	0.614522	1	0
334.846893	0.792246	city	2	1	0.596188	0.596188	0	1	0	0	CorrectCommission	0.747111	0.602885	1	0
335.639160	0.792308	city	5	1	0.596246	0.596246	0	1	0	0	CorrectCommission	0.746519	0.592131	1	0
336.431427	0.792216	city	2	1	0.601946	0.601946	0	1	0	0	CorrectCommission	0.688939	0.584186	1	0
337.223663	0.792264	city	6	1	0.656735	0.656735	0	1	0	0	CorrectCommission	0.135449	0.581101	1	0
338.015930	0.792296	city	3	1	0.695406	0.695406	0	1	0	0	CorrectCommission	0.255220	0.584943	1	0
338.808228	0.792259	city	6	1	0.695290	0.695290	0	1	0	0	CorrectCommission	0.254044	0.597597	1	0
339.600494	0.792289	city	4	1	0.695349	0.695349	0	1	0	0	CorrectCommission	0.254635	0.620580	1	0
340.392761	0.792230	city	10	1	0.745209	0.745209	0	1	0	0	CorrectCommission	0.758334	0.654862	1	0
341.184998	0.792255	city	3	1	0.794327	0.794327	0	1	0	0	CorrectCommission	1.254539	0.700614	1	0
341.977356	0.792478	mountain	10	0	0.000000	0.726916	1	0	0	0	CorrectOmission	0.573541	0.757053	0	0
342.769623	0.792046	city	5	1	0.645669	0.645669	0	1	0	0	CorrectCommission	0.247235	0.822272	0	0
343.561890	0.792483	city	8	1	0.653279	0.653279	0	1	0	0	CorrectCommission	0.170365	0.893220	0	0
344.354156	0.792046	city	3	1	0.606582	0.606582	0	1	0	0	CorrectCommission	0.642107	0.965801	0	0
345.146301	0.792265	city	9	1	0.695398	0.695398	0	1	0	0	CorrectCommission	0.255138	1.035164	0	0
345.938568	0.792265	city	2	1	0.813958	0.813958	0	1	0	0	CorrectCommission	1.452853	1.096273	0	0
346.730865	0.792321	city	4	1	0.861672	0.861672	0	1	0	0	CorrectCommission	1.934869	1.144496	0	0
347.523163	0.792264	city	5	1	0.843776	0.843776	0	1	0	0	CorrectCommission	1.754086	1.176349	0	0
348.315491	0.792427	city	6	1	0.942739	0.942739	0	1	0	0	CorrectCommission	2.753829	1.190093	0	0
349.107788	0.792156	city	4	1	0.992126	0.992126	0	1	0	0	CorrectCommission	3.252747	1.186079	0	0
349.899963	0.792155	mountain	7	0	0.000000	0.780859	1	0	0	0	CorrectOmission	1.118482	1.166802	0	0
350.692261	0.792482	city	10	1	0.600984	0.600984	0	1	0	0	CorrectCommission	0.698657	1.136634	0	0
351.484558	0.792109	city	1	1	0.744546	0.744546	0	1	0	0	CorrectCommission	0.751640	1.101072	0	0
352.276733	0.792256	city	2	1	0.700673	0.700673	0	1	0	0	CorrectCommission	0.308428	1.065917	0	0
353.068970	0.792214	city	4	1	0.747906	0.747906	0	1	0	0	CorrectCommission	0.785582	1.036415	0	0
353.861237	0.792284	city	8	1	0.695270	0.695270	0	1	0	0	CorrectCommission	0.253846	1.016435	0	0
354.653595	0.792461	city	4	1	0.658460	0.658460	0	1	0	0	CorrectCommission	0.118020	1.007997	0	0
355.445923	0.792155	city	2	1	0.695154	0.695154	0	1	0	0	CorrectCommission	0.252674	1.011073	0	0
356.238068	0.792158	city	8	1	0.695896	0.695896	0	1	0	0	CorrectCommission	0.260162	1.023808	0	0
357.030334	0.792372	city	4	1	0.855798	0.855798	0	1	0	0	CorrectCommission	1.875530	1.043072	0	0
357.822662	0.792265	city	3	1	0.808402	0.808402	0	1	0	0	CorrectCommission	1.396726	1.065107	0	0
358.614960	0.792372	city	6	1	0.893273	0.893273	0	1	0	0	CorrectCommission	2.254110	1.086350	0	0
359.407166	0.792049	city	3	1	0.893103	0.893103	0	1	0	0	CorrectCommission	2.252390	1.104043	0	0
360.199432	0.792481	city	4	1	0.794542	0.794542	0	1	0	0	CorrectCommission	1.256710	1.116638	0	0
360.991730	0.792058	city	10	1	0.744655	0.744655	0	1	0	0	CorrectCommission	0.752743	1.123918	0	0
361.783936	0.792362	city	5	1	0.749445	0.749445	0	1	0	0	CorrectCommission	0.801133	1.126838	0	0
362.576294	0.792376	city	8	1	0.744679	0.744679	0	1	0	0	CorrectCommission	0.752984	1.127180	0	0
363.368500	0.792047	city	7	1	0.749432	0.749432	0	1	0	0	CorrectCommission	0.800996	1.127088	0	0
364.160675	0.792266	city	1	1	0.794526	0.794526	0	1	0	0	CorrectCommission	1.256552	1.128634	0	0
364.952942	0.792267	city	2	1	0.750108	0.750108	0	1	0	0	CorrectCommission	0.807825	1.133416	0	1
365.745178	0.792260	city	10	1	0.812562	0.812562	0	1	0	0	CorrectCommission	1.438748	1.142367	0	1
366.537445	0.792264	city	9	1	0.744932	0.744932	0	1	0	0	CorrectCommission	0.755538	1.155632	0	1
367.329712	0.792266	city	4	1	0.645894	0.645894	0	1	0	0	CorrectCommission	0.244966	1.172687	0	1
368.122009	0.792333	city	8	1	0.497238	0.497238	0	1	0	0	CorrectCommission	1.746718	1.192469	0	1
368.914276	0.792200	city	10	1	0.447668	0.447668	0	1	0	0	CorrectCommission	2.247486	1.213546	0	1
369.706512	0.792264	city	5	1	0.497170	0.497170	0	1	0	0	CorrectCommission	1.747412	1.234363	0	1
370.498840	0.792370	city	2	1	0.596701	0.596701	0	1	0	0	CorrectCommission	0.741928	1.253423	0	1
371.291107	0.792187	city	8	1	0.695149	0.695149	0	1	0	0	CorrectCommission	0.252617	1.269424	0	1
372.083313	0.792232	city	6	1	0.794253	0.794253	0	1	0	0	CorrectCommission	1.253785	1.281339	0	1
372.875580	0.792292	city	2	1	0.794280	0.794280	0	1	0	0	CorrectCommission	1.254059	1.288506	0	1
373.667969	0.792457	city	8	1	0.812154	0.812154	0	1	0	0	CorrectCommission	1.434625	1.290707	0	1
374.460205	0.792046	city	9	1	0.992177	0.992177	0	1	0	0	CorrectCommission	3.253258	1.288145	0	1
375.252472	0.792483	city	3	0	0.000000	0.878250	0	0	0	1	OmissionError	2.102342	1.281384	0	1
376.044861	0.792266	city	6	1	0.704289	0.704289	0	1	0	0	CorrectCommission	0.344951	1.271307	0	1
376.837006	0.792048	city	3	1	0.704210	0.704210	0	1	0	0	CorrectCommission	0.344158	1.258905	0	1
377.629181	0.792288	mountain	2	0	0.000000	0.710685	1	0	0	0	CorrectOmission	0.409565	1.245055	0	1
378.421448	0.792258	city	2	1	0.761219	0.761219	0	1	0	0	CorrectCommission	0.920077	1.230382	0	1
379.213745	0.792357	city	9	1	0.893321	0.893321	0	1	0	0	CorrectCommission	2.254598	1.215116	0	1
380.006073	0.792263	city	6	1	0.794240	0.794240	0	1	0	0	CorrectCommission	1.253658	1.199039	0	1
380.798370	0.792374	mountain	4	0	0.000000	0.827464	1	0	0	0	CorrectOmission	1.589296	1.181591	0	1
381.590607	0.792105	city	6	1	0.844209	0.844209	0	1	0	0	CorrectCommission	1.758455	1.161887	0	1
382.382874	0.792426	city	7	1	0.695689	0.695689	0	1	0	0	CorrectCommission	0.258079	1.138888	0	1
383.175232	0.792263	city	2	1	0.695077	0.695077	0	1	0	0	CorrectCommission	0.251890	1.111595	0	1
383.967438	0.792157	city	9	1	0.847178	0.847178	0	1	0	0	CorrectCommission	1.788453	1.079149	0	1
384.759583	0.792156	city	2	1	0.795382	0.795382	0	1	0	0	CorrectCommission	1.265191	1.041005	0	1
385.551819	0.792264	mountain	2	0	0.000000	0.823510	1	0	0	0	CorrectOmission	1.549350	0.997142	0	1
386.344086	0.792266	city	3	1	0.805800	0.805800	0	1	0	0	CorrectCommission	1.370439	0.948118	0	1
387.136322	0.792263	city	7	1	0.616487	0.616487	0	1	0	0	CorrectCommission	0.542038	0.895190	0	1
387.928589	0.792267	city	9	1	0.546702	0.546702	0	1	0	0	CorrectCommission	1.247020	0.840284	0	1
388.720917	0.792371	city	7	1	0.596467	0.596467	0	1	0	0	CorrectCommission	0.744285	0.785842	0	1
389.513214	0.792204	city	1	1	0.596468	0.596468	0	1	0	0	CorrectCommission	0.744276	0.734607	1	1
390.305420	0.792217	city	6	1	0.645866	0.645866	0	1	0	0	CorrectCommission	0.245253	0.689332	1	1
391.097656	0.792265	mountain	4	0	0.000000	0.650695	1	0	0	0	CorrectOmission	0.196461	0.652492	1	1
391.889923	0.792271	city	2	1	0.653250	0.653250	0	1	0	0	CorrectCommission	0.170658	0.625947	1	1
392.682190	0.792257	city	5	1	0.695820	0.695820	0	1	0	0	CorrectCommission	0.259401	0.610752	1	1
393.474457	0.792266	city	9	1	0.744841	0.744841	0	1	0	0	CorrectCommission	0.754614	0.607016	1	1
394.266815	0.792482	city	8	1	0.750645	0.750645	0	1	0	0	CorrectCommission	0.813254	0.613835	1	1
395.059143	0.792160	city	5	1	0.654276	0.654276	0	1	0	0	CorrectCommission	0.160293	0.629420	1	1
395.851318	0.792153	city	1	1	0.650441	0.650441	0	1	0	0	CorrectCommission	0.199028	0.651307	1	1
396.643616	0.792479	city	7	1	0.695245	0.695245	0	1	0	0	CorrectCommission	0.253592	0.676613	1	1
397.435883	0.792065	city	4	1	0.645541	0.645541	0	1	0	0	CorrectCommission	0.248536	0.702481	1	1
398.228058	0.792250	mountain	1	1	0.497174	0.497174	0	0	1	0	CommissionError	1.747368	0.726407	1	1
399.020325	0.792264	city	7	1	0.508844	0.508844	0	1	0	0	CorrectCommission	1.629478	0.746538	1	1
399.812683	0.792479	city	1	1	0.546798	0.546798	0	1	0	0	CorrectCommission	1.246054	0.761944	0	1
400.605011	0.792155	city	5	1	0.496953	0.496953	0	1	0	0	CorrectCommission	1.749604	0.772640	0	1
401.397278	0.792373	city	1	1	0.646079	0.646079	0	1	0	0	CorrectCommission	0.243092	0.779388	0	1
402.189484	0.792047	city	8	1	0.695394	0.695394	0	1	0	0	CorrectCommission	0.255099	0.783507	0	1
402.981659	0.792345	city	3	1	0.659258	0.659258	0	1	0	0	CorrectCommission	0.109958	0.786427	0	1
403.773926	0.792188	city	1	1	0.744679	0.744679	0	1	0	0	CorrectCommission	0.752986	0.789386	0	1
404.566284	0.792481	city	5	1	0.706548	0.706548	0	1	0	0	CorrectCommission	0.367774	0.793141	0	1
405.358551	0.792056	city	10	1	0.695769	0.695769	0	1	0	0	CorrectCommission	0.258887	0.797886	0	1
406.150696	0.792258	city	5	1	0.744803	0.744803	0	1	0	0	CorrectCommission	0.754239	0.803256	0	1
406.943024	0.792371	city	4	1	0.843790	0.843790	0	1	0	0	CorrectCommission	1.754227	0.808485	0	1
407.735291	0.792201	mountain	7	0	0.000000	0.860317	1	0	0	0	CorrectOmission	1.921179	0.812617	0	1
408.527618	0.792437	city	2	1	0.794273	0.794273	0	1	0	0	CorrectCommission	1.253993	0.814708	0	1
409.319855	0.792045	city	4	1	0.645551	0.645551	0	1	0	0	CorrectCommission	0.248430	0.813949	0	1
410.112122	0.792484	city	5	1	0.645776	0.645776	0	1	0	0	CorrectCommission	0.246162	0.809715	0	1
410.904449	0.792156	city	8	1	0.645509	0.645509	0	1	0	0	CorrectCommission	0.248853	0.801532	0	1
411.696655	0.792266	city	2	1	0.646167	0.646167	0	1	0	0	CorrectCommission	0.242210	0.789061	0	1
412.488861	0.792158	city	4	1	0.843707	0.843707	0	1	0	0	CorrectCommission	1.753383	0.772103	0	1
413.281067	0.792263	city	5	1	0.794787	0.794787	0	1	0	0	CorrectCommission	1.259186	0.750590	1	1
414.073395	0.792371	city	9	1	0.794358	0.794358	0	1	0	0	CorrectCommission	1.254848	0.724683	1	1
414.865662	0.792160	city	1	1	0.645675	0.645675	0	1	0	0	CorrectCommission	0.247180	0.694794	1	1
415.657867	0.792261	mountain	5	0	0.000000	0.579670	1	0	0	0	CorrectOmission	0.913974	0.661648	1	1
416.450134	0.792272	city	9	1	0.596304	0.596304	0	1	0	0	CorrectCommission	0.745933	0.626246	1	1
417.242401	0.792259	city	3	1	0.695538	0.695538	0	1	0	0	CorrectCommission	0.256544	0.589904	1	1
418.034729	0.792373	city	1	1	0.695297	0.695297	0	1	0	0	CorrectCommission	0.254117	0.554152	1	1
418.827087	0.792373	city	3	1	0.596314	0.596314	0	1	0	0	CorrectCommission	0.745830	0.520652	1	1
419.619354	0.792156	city	1	1	0.646553	0.646553	0	1	0	0	CorrectCommission	0.238313	0.491067	1	1
420.411499	0.792156	city	9	1	0.762146	0.762146	0	1	0	0	CorrectCommission	0.929436	0.467033	1	1
421.203705	0.792264	city	1	1	0.661024	0.661024	0	1	0	0	CorrectCommission	0.092115	0.449995	1	1
421.996094	0.792483	mountain	3	0	0.000000	0.673283	1	0	0	0	CorrectOmission	0.031725	0.441201	1	1
422.788422	0.792156	city	4	1	0.700846	0.700846	0	1	0	0	CorrectCommission	0.310176	0.441553	1	1
423.580566	0.792156	city	5	1	0.645639	0.645639	0	1	0	0	CorrectCommission	0.247544	0.451537	1	1
424.372772	0.792264	city	4	1	0.649200	0.649200	0	1	0	0	CorrectCommission	0.211572	0.471164	1	0
425.165039	0.792269	mountain	4	0	0.000000	0.705822	1	0	0	0	CorrectOmission	0.360436	0.499904	1	0
425.957306	0.792260	city	2	1	0.744770	0.744770	0	1	0	0	CorrectCommission	0.753899	0.536673	1	0
426.749573	0.792265	city	9	1	0.695309	0.695309	0	1	0	0	CorrectCommission	0.254235	0.579868	1	0
427.541931	0.792484	city	2	1	0.645832	0.645832	0	1	0	0	CorrectCommission	0.245596	0.627396	1	0
428.334229	0.792106	city	9	1	0.547680	0.547680	0	1	0	0	CorrectCommission	1.237142	0.676783	1	0
429.126404	0.792244	city	4	1	0.596296	0.596296	0	1	0	0	CorrectCommission	0.746019	0.725313	1	0
429.918762	0.792445	city	5	1	0.645934	0.645934	0	1	0	0	CorrectCommission	0.244564	0.770272	0	0
430.711121	0.792262	city	3	1	0.598444	0.598444	0	1	0	0	CorrectCommission	0.724314	0.809217	0	0
431.503387	0.792265	city	1	1	0.609123	0.609123	0	1	0	0	CorrectCommission	0.616437	0.840244	0	0
432.295532	0.792051	city	5	1	0.509665	0.509665	0	1	0	0	CorrectCommission	1.621185	0.862311	0	0
433.087738	0.792370	city	7	1	0.398106	0.398106	0	1	0	0	CorrectCommission	2.748179	0.875307	0	0
433.880005	0.792159	city	2	1	0.497831	0.497831	0	1	0	0	CorrectCommission	1.740727	0.880124	0	0
434.672211	0.792266	city	10	1	0.645848	0.645848	0	1	0	0	CorrectCommission	0.245434	0.878554	0	0
435.464478	0.792261	city	2	1	0.652731	0.652731	0	1	0	0	CorrectCommission	0.175894	0.872967	0	0
436.256744	0.792265	city	9	1	0.662349	0.662349	0	1	0	0	CorrectCommission	0.078736	0.865874	0	0
437.049133	0.792482	city	8	1	0.596566	0.596566	0	1	0	0	CorrectCommission	0.743284	0.859577	0	0
437.841492	0.792265	city	3	1	0.595992	0.595992	0	1	0	0	CorrectCommission	0.749085	0.855799	0	0
438.633698	0.792157	city	4	1	0.596200	0.596200	0	1	0	0	CorrectCommission	0.746988	0.855514	0	0
439.425873	0.792160	city	7	1	0.556966	0.556966	0	1	0	0	CorrectCommission	1.143332	0.858907	0	0
440.218201	0.792532	mountain	2	0	0.000000	0.617007	1	0	0	0	CorrectOmission	0.536793	0.865489	0	0
441.010468	0.791995	city	7	1	0.646484	0.646484	0	1	0	0	CorrectCommission	0.239005	0.874382	0	0
441.802612	0.792260	city	5	1	0.515563	0.515563	0	1	0	0	CorrectCommission	1.561603	0.884588	0	0
442.594910	0.792375	city	4	1	0.558362	0.558362	0	1	0	0	CorrectCommission	1.129234	0.895248	0	0
443.387177	0.792158	city	8	1	0.497194	0.497194	0	1	0	0	CorrectCommission	1.747170	0.905873	0	0
444.179382	0.792262	city	5	1	0.546737	0.546737	0	1	0	0	CorrectCommission	1.246673	0.916347	0	0
444.971649	0.792264	city	1	1	0.610126	0.610126	0	1	0	0	CorrectCommission	0.606306	0.926911	0	0
445.763947	0.792333	mountain	2	0	0.000000	0.663524	1	0	0	0	CorrectOmission	0.066863	0.937946	0	0
446.556335	0.792414	city	10	1	0.646294	0.646294	0	1	0	0	CorrectCommission	0.240924	0.949780	0	0
447.348663	0.792265	city	5	1	0.497798	0.497798	0	1	0	0	CorrectCommission	1.741068	0.962487	0	0
448.140839	0.792064	city	6	1	0.755719	0.755719	0	1	0	0	CorrectCommission	0.864509	0.975741	0	0
448.932983	0.792249	city	2	1	0.596357	0.596357	0	1	0	0	CorrectCommission	0.745396	0.988906	0	0
449.725250	0.792265	city	3	1	0.611458	0.611458	0	1	0	0	CorrectCommission	0.592848	1.001095	0	0
450.517517	0.792266	city	9	1	0.560672	0.560672	0	1	0	0	CorrectCommission	1.105894	1.011421	0	0
451.309784	0.792264	city	1	1	0.546694	0.546694	0	1	0	0	CorrectCommission	1.247108	1.019253	0	0
452.102051	0.792265	city	10	1	0.497262	0.497262	0	1	0	0	CorrectCommission	1.746477	1.024461	0	0
452.894318	0.792267	city	4	1	0.447852	0.447852	0	1	0	0	CorrectCommission	2.245633	1.027505	0	0
453.686584	0.792291	city	10	1	0.562029	0.562029	0	1	0	0	CorrectCommission	1.092184	1.029411	0	0
454.478912	0.792343	city	7	1	0.596180	0.596180	0	1	0	0	CorrectCommission	0.747191	1.031606	0	0
455.271149	0.792157	city	4	1	0.655296	0.655296	0	1	0	0	CorrectCommission	0.149989	1.035566	0	0
456.063354	0.792263	city	3	1	0.645911	0.645911	0	1	0	0	CorrectCommission	0.244797	1.042485	0	0
456.855621	0.792266	city	9	1	0.656293	0.656293	0	1	0	0	CorrectCommission	0.139910	1.052961	0	0
457.647888	0.792263	city	6	1	0.547295	0.547295	0	1	0	0	CorrectCommission	1.241034	1.066783	0	0
458.440216	0.792373	city	2	1	0.497642	0.497642	0	1	0	0	CorrectCommission	1.742638	1.082887	0	0
459.232483	0.792160	city	6	1	0.549232	0.549232	0	1	0	0	CorrectCommission	1.221468	1.099473	0	0
460.024719	0.792294	city	10	1	0.508718	0.508718	0	1	0	0	CorrectCommission	1.630747	1.114293	0	0
460.817017	0.792341	city	8	1	0.546594	0.546594	0	1	0	0	CorrectCommission	1.248117	1.124884	0	0
461.609314	0.792263	mountain	3	0	0.000000	0.563522	1	0	0	0	CorrectOmission	1.077109	1.128922	0	0
462.401550	0.792157	city	8	1	0.564867	0.564867	0	1	0	0	CorrectCommission	1.063515	1.124501	0	0
463.193817	0.792372	city	4	1	0.555996	0.555996	0	1	0	0	CorrectCommission	1.153131	1.110334	0	0
463.986115	0.792265	mountain	5	0	0.000000	0.564286	1	0	0	0	CorrectOmission	1.069386	1.085926	0	0
464.778320	0.792159	city	3	1	0.546655	0.546655	0	1	0	0	CorrectCommission	1.247499	1.051617	0	0
465.570557	0.792266	city	4	1	0.460022	0.460022	0	1	0	0	CorrectCommission	2.122684	1.008598	0	0
466.362823	0.792264	city	10	1	0.497181	0.497181	0	1	0	0	CorrectCommission	1.747294	0.958763	0	0
467.155060	0.792262	city	8	1	0.598004	0.598004	0	1	0	0	CorrectCommission	0.728756	0.904542	0	0
467.947327	0.792264	city	7	1	0.695353	0.695353	0	1	0	0	CorrectCommission	0.254683	0.848610	0	0
468.739655	0.792374	city	2	1	0.695343	0.695343	0	1	0	0	CorrectCommission	0.254580	0.793572	0	0
469.531921	0.792157	city	1	1	0.695186	0.695186	0	1	0	0	CorrectCommission	0.252991	0.741678	1	0
470.324127	0.792265	mountain	9	0	0.000000	0.695310	1	0	0	0	CorrectOmission	0.254243	0.694637	1	0
471.116394	0.792264	city	7	1	0.645909	0.645909	0	1	0	0	CorrectCommission	0.244810	0.653558	1	0
471.908661	0.792268	mountain	1	1	0.497180	0.497180	0	0	1	0	CommissionError	1.747310	0.618968	1	0
472.700989	0.792369	mountain	4	1	0.611587	0.611587	0	0	1	0	CommissionError	0.591538	0.590909	1	0
473.493256	0.792196	city	1	1	0.645782	0.645782	0	1	0	0	CorrectCommission	0.246094	0.569177	1	0
474.285583	0.792443	city	10	1	0.695316	0.695316	0	1	0	0	CorrectCommission	0.254304	0.553419	1	0
475.077820	0.792052	mountain	4	0	0.000000	0.739863	1	0	0	0	CorrectOmission	0.704332	0.543254	1	0
475.870026	0.792367	city	6	1	0.744771	0.744771	0	1	0	0	CorrectCommission	0.753915	0.538344	1	0
476.662323	0.792171	mountain	1	0	0.000000	0.675387	1	0	0	0	CorrectOmission	0.052975	0.538421	1	0
477.454620	0.792469	city	10	1	0.614739	0.614739	0	1	0	0	CorrectCommission	0.559703	0.543229	1	0
478.246918	0.792080	city	7	1	0.645857	0.645857	0	1	0	0	CorrectCommission	0.245336	0.552425	1	0
479.039062	0.792245	city	8	1	0.614289	0.614289	0	1	0	0	CorrectCommission	0.564244	0.565556	1	0
479.831329	0.792256	city	5	1	0.596275	0.596275	0	1	0	0	CorrectCommission	0.746226	0.581987	1	0
480.623688	0.792479	city	2	1	0.596596	0.596596	0	1	0	0	CorrectCommission	0.742985	0.600910	1	0
481.415985	0.792154	city	8	1	0.645536	0.645536	0	1	0	0	CorrectCommission	0.248583	0.621376	1	0
482.208160	0.792161	city	4	1	0.645851	0.645851	0	1	0	0	CorrectCommission	0.245398	0.642402	1	0
483.000397	0.792292	city	8	1	0.596497	0.596497	0	1	0	0	CorrectCommission	0.743981	0.663037	1	0
483.792694	0.792343	city	3	1	0.552704	0.552704	0	1	0	0	CorrectCommission	1.186391	0.682519	1	0
484.584961	0.792157	city	9	1	0.559603	0.559603	0	1	0	0	CorrectCommission	1.116694	0.700402	1	0
485.377167	0.792268	city	6	1	0.596219	0.596219	0	1	0	0	CorrectCommission	0.746793	0.716622	1	0
486.169434	0.792276	mountain	1	0	0.000000	0.603590	1	0	0	0	CorrectOmission	0.672327	0.731486	1	0
486.961792	0.792465	city	8	1	0.596339	0.596339	0	1	0	0	CorrectCommission	0.745577	0.745577	1	0
