onset	duration	trial_type	image_type	Press	ReactionTime	ReactionTime_Interpolated	CorrectOmission	CorrectCommission	CommissionError	OmissionError	response_type	nonsmoothVarianceTimeCourse	VarianceTimeCourse	In_the_Zone	Reward_trial
8.433919	0.792046	city	3	1	1.240064	1.240064	0	1	0	0	CorrectCommission	4.087259	4.087259	0	1
9.226085	0.792286	city	9	1	0.893322	0.893322	0	1	0	0	CorrectCommission	1.419094	3.533225	0	1
10.018352	0.792248	city	3	1	0.596305	0.596305	0	1	0	0	CorrectCommission	0.866442	2.996874	0	1
10.810613	0.792274	city	8	1	0.646296	0.646296	0	1	0	0	CorrectCommission	0.481764	2.494233	0	1
11.602882	0.792265	city	3	1	0.645793	0.645793	0	1	0	0	CorrectCommission	0.485638	2.038345	0	1
12.395166	0.792304	mountain	8	1	0.651511	0.651511	0	0	1	0	CommissionError	0.441634	1.638360	0	1
13.187428	0.792217	city	8	1	0.704646	0.704646	0	1	0	0	CorrectCommission	0.032768	1.299182	0	1
13.979774	0.792477	city	4	1	0.651169	0.651169	0	1	0	0	CorrectCommission	0.444265	1.021677	0	1
14.772038	0.792050	city	6	1	0.695584	0.695584	0	1	0	0	CorrectCommission	0.102499	0.803263	0	1
15.564216	0.792305	city	7	1	0.695749	0.695749	0	1	0	0	CorrectCommission	0.101227	0.638860	0	1
16.356482	0.792226	city	2	1	0.609709	0.609709	0	1	0	0	CorrectCommission	0.763298	0.521858	1	1
17.148743	0.792300	city	10	1	0.695414	0.695414	0	1	0	0	CorrectCommission	0.103803	0.445007	1	1
17.941008	0.792229	city	9	1	0.695282	0.695282	0	1	0	0	CorrectCommission	0.104822	0.401175	1	1
18.733253	0.792262	city	7	1	0.695283	0.695283	0	1	0	0	CorrectCommission	0.104809	0.383760	1	1
19.525627	0.792484	city	2	1	0.695277	0.695277	0	1	0	0	CorrectCommission	0.104855	0.386910	1	1
20.317892	0.792048	city	9	1	0.645593	0.645593	0	1	0	0	CorrectCommission	0.487176	0.405524	1	1
21.110052	0.792271	city	4	1	0.661841	0.661841	0	1	0	0	CorrectCommission	0.362149	0.435119	1	1
21.902315	0.792256	city	2	1	0.744741	0.744741	0	1	0	0	CorrectCommission	0.275767	0.471662	1	1
22.694630	0.792372	city	4	1	0.702659	0.702659	0	1	0	0	CorrectCommission	0.048057	0.511425	1	1
23.486897	0.792161	city	2	1	0.663155	0.663155	0	1	0	0	CorrectCommission	0.352037	0.550957	1	1
24.279108	0.792261	city	7	1	0.596359	0.596359	0	1	0	0	CorrectCommission	0.866031	0.587137	0	1
25.071371	0.792268	city	8	1	0.596250	0.596250	0	1	0	0	CorrectCommission	0.866870	0.617340	0	1
25.863638	0.792265	city	6	1	0.546794	0.546794	0	1	0	0	CorrectCommission	1.247430	0.639705	0	1
26.655924	0.792305	city	4	1	0.556016	0.556016	0	1	0	0	CorrectCommission	1.176463	0.653287	0	1
27.448212	0.792271	city	5	1	0.547121	0.547121	0	1	0	0	CorrectCommission	1.244916	0.658169	0	1
28.240454	0.792213	city	7	1	0.597407	0.597407	0	1	0	0	CorrectCommission	0.857966	0.655423	0	1
29.032692	0.792265	mountain	7	1	0.596239	0.596239	0	0	1	0	CommissionError	0.866952	0.646941	0	1
29.824995	0.792343	city	8	1	0.695522	0.695522	0	1	0	0	CorrectCommission	0.102972	0.635107	0	1
30.617260	0.792187	city	10	1	0.695218	0.695218	0	1	0	0	CorrectCommission	0.105315	0.622456	0	1
31.409487	0.792264	city	1	1	0.646586	0.646586	0	1	0	0	CorrectCommission	0.479533	0.611235	0	1
32.201752	0.792266	city	2	1	0.645761	0.645761	0	1	0	0	CorrectCommission	0.485880	0.603120	0	1
32.994019	0.792267	city	10	1	0.695342	0.695342	0	1	0	0	CorrectCommission	0.104360	0.598991	0	1
33.786339	0.792373	city	1	1	0.645985	0.645985	0	1	0	0	CorrectCommission	0.484160	0.598911	0	1
34.578606	0.792162	city	9	1	0.608385	0.608385	0	1	0	0	CorrectCommission	0.773487	0.602203	0	1
35.370815	0.792262	city	5	1	0.650553	0.650553	0	1	0	0	CorrectCommission	0.449009	0.607685	0	1
36.163132	0.792368	city	8	1	0.547131	0.547131	0	1	0	0	CorrectCommission	1.244838	0.613945	0	1
36.955395	0.792157	city	4	1	0.597069	0.597069	0	1	0	0	CorrectCommission	0.860564	0.619591	0	1
37.747662	0.792374	city	6	1	0.659011	0.659011	0	1	0	0	CorrectCommission	0.383923	0.623527	0	1
38.539925	0.792156	city	1	1	0.598705	0.598705	0	1	0	0	CorrectCommission	0.847976	0.625118	0	1
39.332134	0.792266	city	4	1	0.646131	0.646131	0	1	0	0	CorrectCommission	0.483037	0.624227	0	1
40.124401	0.792265	city	7	1	0.649774	0.649774	0	1	0	0	CorrectCommission	0.455004	0.621241	0	1
40.916668	0.792269	city	8	1	0.558269	0.558269	0	1	0	0	CorrectCommission	1.159130	0.616934	0	1
41.708954	0.792301	city	1	1	0.614669	0.614669	0	1	0	0	CorrectCommission	0.725131	0.612278	0	1
42.501213	0.792223	city	6	1	0.655620	0.655620	0	1	0	0	CorrectCommission	0.410016	0.608282	0	1
43.293568	0.792482	city	5	1	0.645790	0.645790	0	1	0	0	CorrectCommission	0.485656	0.605757	0	1
44.085835	0.792052	city	3	1	0.744712	0.744712	0	1	0	0	CorrectCommission	0.275543	0.605152	0	1
44.877991	0.792261	city	9	1	0.695268	0.695268	0	1	0	0	CorrectCommission	0.104929	0.606461	0	1
45.670265	0.792286	city	7	1	0.652328	0.652328	0	1	0	0	CorrectCommission	0.435352	0.609198	0	1
46.462528	0.792244	city	5	1	0.596240	0.596240	0	1	0	0	CorrectCommission	0.866944	0.612454	0	1
47.254784	0.792261	mountain	3	1	0.511535	0.511535	0	0	1	0	CommissionError	1.518742	0.615058	0	1
48.047153	0.792483	city	10	1	0.695436	0.695436	0	1	0	0	CorrectCommission	0.103638	0.615763	0	1
48.839420	0.792049	city	4	1	0.645766	0.645766	0	1	0	0	CorrectCommission	0.485844	0.613497	0	1
49.631630	0.792371	city	8	1	0.645924	0.645924	0	1	0	0	CorrectCommission	0.484626	0.607493	0	1
50.423923	0.792212	city	5	1	0.546924	0.546924	0	1	0	0	CorrectCommission	1.246428	0.597476	0	1
51.216187	0.792319	city	4	1	0.556192	0.556192	0	1	0	0	CorrectCommission	1.175109	0.583683	0	1
52.008427	0.792158	city	5	1	0.596599	0.596599	0	1	0	0	CorrectCommission	0.864184	0.566828	1	1
52.800640	0.792268	city	8	1	0.695279	0.695279	0	1	0	0	CorrectCommission	0.104846	0.548005	1	1
53.592918	0.792293	city	2	1	0.745152	0.745152	0	1	0	0	CorrectCommission	0.278926	0.528495	1	1
54.385181	0.792235	city	10	1	0.707812	0.707812	0	1	0	0	CorrectCommission	0.008399	0.509541	1	1
55.177486	0.792368	city	1	1	0.753862	0.753862	0	1	0	0	CorrectCommission	0.345951	0.492219	1	1
55.969769	0.792197	city	3	1	0.794265	0.794265	0	1	0	0	CorrectCommission	0.656849	0.477262	1	1
56.762089	0.792444	city	5	1	0.794365	0.794365	0	1	0	0	CorrectCommission	0.657622	0.465047	1	1
57.554337	0.792052	city	10	1	0.745295	0.745295	0	1	0	0	CorrectCommission	0.280029	0.455604	1	1
58.346600	0.792476	city	7	1	0.745110	0.745110	0	1	0	0	CorrectCommission	0.278602	0.448751	1	1
59.138969	0.792264	city	8	1	0.744897	0.744897	0	1	0	0	CorrectCommission	0.276967	0.444145	1	1
59.931126	0.792049	city	1	1	0.794108	0.794108	0	1	0	0	CorrectCommission	0.655646	0.441457	1	1
60.723282	0.792266	city	2	1	0.794458	0.794458	0	1	0	0	CorrectCommission	0.658334	0.440467	1	1
61.515583	0.792334	city	6	1	0.802941	0.802941	0	1	0	0	CorrectCommission	0.723615	0.441133	1	1
62.307846	0.792194	city	5	1	0.760086	0.760086	0	1	0	0	CorrectCommission	0.393842	0.443583	1	1
63.100075	0.792263	city	3	1	0.745602	0.745602	0	1	0	0	CorrectCommission	0.282393	0.448074	1	1
63.892357	0.792301	city	1	1	0.707010	0.707010	0	1	0	0	CorrectCommission	0.014575	0.454911	1	1
64.684624	0.792227	city	7	1	0.695273	0.695273	0	1	0	0	CorrectCommission	0.104888	0.464325	1	1
65.476868	0.792269	city	8	1	0.645738	0.645738	0	1	0	0	CorrectCommission	0.486063	0.476419	1	1
66.269188	0.792370	city	1	1	0.546948	0.546948	0	1	0	0	CorrectCommission	1.246243	0.491071	1	1
67.061562	0.792375	city	9	1	0.712578	0.712578	0	1	0	0	CorrectCommission	0.028271	0.507941	1	1
67.853882	0.792264	city	1	1	0.744566	0.744566	0	1	0	0	CorrectCommission	0.274420	0.526515	1	0
68.646034	0.792038	city	2	1	0.843630	0.843630	0	1	0	0	CorrectCommission	1.036710	0.546124	1	0
69.438187	0.792276	city	10	1	0.748341	0.748341	0	1	0	0	CorrectCommission	0.303464	0.566026	1	0
70.230492	0.792328	city	7	1	0.796681	0.796681	0	1	0	0	CorrectCommission	0.675438	0.585550	0	0
71.022758	0.792198	city	3	1	0.748166	0.748166	0	1	0	0	CorrectCommission	0.302121	0.604124	0	0
71.815041	0.792374	city	10	1	0.794310	0.794310	0	1	0	0	CorrectCommission	0.657198	0.621389	0	0
72.607307	0.792158	city	1	1	0.695170	0.695170	0	1	0	0	CorrectCommission	0.105683	0.637201	0	0
73.399521	0.792263	city	4	1	1.041916	1.041916	0	1	0	0	CorrectCommission	2.562517	0.651648	0	0
74.191780	0.792267	city	10	1	0.794333	0.794333	0	1	0	0	CorrectCommission	0.657375	0.664930	0	0
74.984154	0.792479	city	9	1	0.706508	0.706508	0	1	0	0	CorrectCommission	0.018435	0.677390	0	0
75.776474	0.792155	city	8	1	0.647532	0.647532	0	1	0	0	CorrectCommission	0.472254	0.689261	0	0
76.568626	0.792155	city	4	1	0.645693	0.645693	0	1	0	0	CorrectCommission	0.486401	0.700540	0	0
77.360863	0.792306	city	2	1	0.695293	0.695293	0	1	0	0	CorrectCommission	0.104733	0.710940	0	0
78.153183	0.792340	city	8	1	0.649669	0.649669	0	1	0	0	CorrectCommission	0.455808	0.719906	0	0
78.945427	0.792152	city	7	1	0.547794	0.547794	0	1	0	0	CorrectCommission	1.239733	0.726678	0	0
79.737747	0.792480	city	4	1	0.546760	0.546760	0	1	0	0	CorrectCommission	1.247689	0.730466	0	0
80.530006	0.792047	city	3	1	0.563872	0.563872	0	1	0	0	CorrectCommission	1.116015	0.730667	0	0
81.322189	0.792314	city	4	1	0.596220	0.596220	0	1	0	0	CorrectCommission	0.867099	0.727015	0	0
82.114456	0.792217	city	1	1	0.561326	0.561326	0	1	0	0	CorrectCommission	1.135607	0.719674	0	0
82.906799	0.792483	city	4	1	0.645962	0.645962	0	1	0	0	CorrectCommission	0.484333	0.709210	0	0
83.699074	0.792052	city	7	1	0.600838	0.600838	0	1	0	0	CorrectCommission	0.831565	0.696500	0	0
84.491264	0.792332	city	1	1	0.695333	0.695333	0	1	0	0	CorrectCommission	0.104431	0.682570	0	0
85.283524	0.792192	city	3	1	0.695223	0.695223	0	1	0	0	CorrectCommission	0.105274	0.668420	0	0
86.075790	0.792334	city	2	1	0.602238	0.602238	0	1	0	0	CorrectCommission	0.820792	0.654814	0	0
86.868050	0.792194	mountain	10	0	0.000000	0.568794	1	0	0	0	CorrectOmission	1.078143	0.642223	0	0
87.660286	0.792268	city	9	1	0.598620	0.598620	0	1	0	0	CorrectCommission	0.848632	0.630770	0	0
88.452553	0.792266	city	2	1	0.695445	0.695445	0	1	0	0	CorrectCommission	0.103562	0.620310	0	0
89.244812	0.792260	city	8	1	0.662196	0.662196	0	1	0	0	CorrectCommission	0.359412	0.610502	0	0
90.037186	0.792483	city	1	1	0.596359	0.596359	0	1	0	0	CorrectCommission	0.866025	0.600948	0	0
90.829453	0.792049	city	3	1	0.596039	0.596039	0	1	0	0	CorrectCommission	0.868490	0.591278	0	0
91.621605	0.792263	mountain	9	0	0.000000	0.626528	1	0	0	0	CorrectOmission	0.633881	0.581331	1	0
92.413925	0.792374	city	5	1	0.646156	0.646156	0	1	0	0	CorrectCommission	0.482846	0.571175	1	0
93.206192	0.792156	city	2	1	0.613252	0.613252	0	1	0	0	CorrectCommission	0.736034	0.561080	1	0
93.998505	0.792482	city	6	1	0.605602	0.605602	0	1	0	0	CorrectCommission	0.794903	0.551450	1	0
94.790771	0.792051	mountain	2	0	0.000000	0.679703	1	0	0	0	CorrectOmission	0.224703	0.542729	1	0
95.582939	0.792280	city	10	1	0.756399	0.756399	0	1	0	0	CorrectCommission	0.365474	0.535252	1	0
96.375198	0.792244	city	2	1	0.756538	0.756538	0	1	0	0	CorrectCommission	0.366539	0.529096	1	0
97.167458	0.792270	city	8	1	0.653218	0.653218	0	1	0	0	CorrectCommission	0.428503	0.524026	1	0
97.959778	0.792368	city	2	1	0.660259	0.660259	0	1	0	0	CorrectCommission	0.374324	0.519490	1	0
98.752075	0.792226	city	4	1	0.744652	0.744652	0	1	0	0	CorrectCommission	0.275079	0.514695	1	0
99.544342	0.792304	city	3	1	0.613611	0.613611	0	1	0	0	CorrectCommission	0.733279	0.508733	1	0
100.336571	0.792156	city	2	1	0.597047	0.597047	0	1	0	0	CorrectCommission	0.860733	0.500767	1	0
101.128784	0.792268	city	1	1	0.645906	0.645906	0	1	0	0	CorrectCommission	0.484767	0.490189	1	0
101.921158	0.792479	city	6	1	0.547008	0.547008	0	1	0	0	CorrectCommission	1.245779	0.476784	1	0
102.713455	0.792111	mountain	3	0	0.000000	0.670415	1	0	0	0	CorrectOmission	0.296170	0.460721	1	0
103.505608	0.792204	city	1	1	0.794571	0.794571	0	1	0	0	CorrectCommission	0.659204	0.442568	1	0
104.297951	0.792478	city	9	1	0.697921	0.697921	0	1	0	0	CorrectCommission	0.084516	0.423129	1	0
105.090218	0.792054	city	3	1	0.695163	0.695163	0	1	0	0	CorrectCommission	0.105738	0.403348	1	0
105.882370	0.792257	mountain	4	0	0.000000	0.669523	1	0	0	0	CorrectOmission	0.303037	0.384095	1	0
106.674690	0.792375	city	5	1	0.657393	0.657393	0	1	0	0	CorrectCommission	0.396377	0.366043	1	0
107.467010	0.792264	city	7	1	0.695165	0.695165	0	1	0	0	CorrectCommission	0.105723	0.349599	1	0
108.259224	0.792169	city	1	1	0.695632	0.695632	0	1	0	0	CorrectCommission	0.102129	0.334908	1	0
109.051437	0.792254	city	4	1	0.663969	0.663969	0	1	0	0	CorrectCommission	0.345772	0.321908	1	0
109.843712	0.792297	city	8	1	0.608416	0.608416	0	1	0	0	CorrectCommission	0.773251	0.310436	1	0
110.636002	0.792287	city	3	1	0.646408	0.646408	0	1	0	0	CorrectCommission	0.480904	0.300310	1	0
111.428246	0.792207	city	2	1	0.646152	0.646152	0	1	0	0	CorrectCommission	0.482871	0.291437	1	0
112.220512	0.792326	city	9	1	0.695268	0.695268	0	1	0	0	CorrectCommission	0.104927	0.283833	1	0
113.012787	0.792217	city	1	1	0.695249	0.695249	0	1	0	0	CorrectCommission	0.105072	0.277597	1	0
113.805023	0.792256	city	6	1	0.696613	0.696613	0	1	0	0	CorrectCommission	0.094576	0.272857	1	0
114.597282	0.792260	city	3	1	0.701793	0.701793	0	1	0	0	CorrectCommission	0.054721	0.269721	1	0
115.389549	0.792267	city	10	1	0.695592	0.695592	0	1	0	0	CorrectCommission	0.102438	0.268239	1	0
116.181870	0.792373	city	1	1	0.695249	0.695249	0	1	0	0	CorrectCommission	0.105077	0.268383	1	0
116.974174	0.792245	city	6	1	0.605320	0.605320	0	1	0	0	CorrectCommission	0.797076	0.270071	1	0
117.766388	0.792173	city	5	1	0.652928	0.652928	0	1	0	0	CorrectCommission	0.430734	0.273197	1	0
118.558601	0.792267	city	4	1	0.703461	0.703461	0	1	0	0	CorrectCommission	0.041880	0.277713	1	0
119.350975	0.792482	city	9	1	0.695283	0.695283	0	1	0	0	CorrectCommission	0.104816	0.283622	1	0
120.143356	0.792265	city	2	1	0.596022	0.596022	0	1	0	0	CorrectCommission	0.868619	0.290998	1	0
120.935616	0.792263	city	1	1	0.695112	0.695112	0	1	0	0	CorrectCommission	0.106124	0.299923	1	0
121.727776	0.792051	city	6	1	0.703541	0.703541	0	1	0	0	CorrectCommission	0.041266	0.310477	1	0
122.519981	0.792369	city	7	1	0.744783	0.744783	0	1	0	0	CorrectCommission	0.276089	0.322617	1	0
123.312248	0.792158	city	10	1	0.706754	0.706754	0	1	0	0	CorrectCommission	0.016543	0.336126	1	0
124.104462	0.792268	city	4	1	0.695647	0.695647	0	1	0	0	CorrectCommission	0.102010	0.350604	1	0
124.896729	0.792265	city	7	1	0.794512	0.794512	0	1	0	0	CorrectCommission	0.658753	0.365471	1	0
125.688988	0.792262	city	1	1	0.744785	0.744785	0	1	0	0	CorrectCommission	0.276107	0.380031	1	0
126.481285	0.792335	mountain	7	0	0.000000	0.799748	1	0	0	0	CorrectOmission	0.699042	0.393574	1	0
127.273582	0.792254	city	7	1	0.843829	0.843829	0	1	0	0	CorrectCommission	1.038247	0.405439	1	1
128.065811	0.792202	city	5	1	0.761459	0.761459	0	1	0	0	CorrectCommission	0.404411	0.415106	1	1
128.858047	0.792266	city	9	1	0.713501	0.713501	0	1	0	0	CorrectCommission	0.035375	0.422262	1	1
129.650314	0.792268	mountain	7	1	0.695384	0.695384	0	0	1	0	CommissionError	0.104033	0.426811	1	1
130.442596	0.792289	city	2	1	0.645761	0.645761	0	1	0	0	CorrectCommission	0.485881	0.428886	1	1
131.234863	0.792251	city	3	1	0.659361	0.659361	0	1	0	0	CorrectCommission	0.381234	0.428854	1	1
132.027161	0.792360	city	7	1	0.600968	0.600968	0	1	0	0	CorrectCommission	0.830561	0.427322	1	1
132.819427	0.792154	city	3	1	0.843743	0.843743	0	1	0	0	CorrectCommission	1.037581	0.425095	1	1
133.611633	0.792268	city	5	1	0.745108	0.745108	0	1	0	0	CorrectCommission	0.278589	0.423161	1	1
134.403961	0.792371	city	2	1	0.695298	0.695298	0	1	0	0	CorrectCommission	0.104695	0.422627	1	1
135.196213	0.792158	city	7	1	0.695469	0.695469	0	1	0	0	CorrectCommission	0.103380	0.424628	1	1
135.988434	0.792265	city	4	1	0.745103	0.745103	0	1	0	0	CorrectCommission	0.278552	0.430212	1	1
136.780807	0.792480	mountain	9	1	0.665462	0.665462	0	0	1	0	CommissionError	0.334282	0.440257	1	1
137.573059	0.792049	city	6	1	0.646084	0.646084	0	1	0	0	CorrectCommission	0.483395	0.455341	1	1
138.365219	0.792268	mountain	6	0	0.000000	0.634850	1	0	0	0	CorrectOmission	0.569839	0.475743	1	1
139.157486	0.792264	city	5	1	0.646376	0.646376	0	1	0	0	CorrectCommission	0.481146	0.501366	1	1
139.949860	0.792481	city	8	1	0.695278	0.695278	0	1	0	0	CorrectCommission	0.104850	0.531739	1	1
140.742126	0.792047	city	1	1	0.656208	0.656208	0	1	0	0	CorrectCommission	0.405494	0.566063	1	1
141.534393	0.792480	city	7	1	0.645733	0.645733	0	1	0	0	CorrectCommission	0.486099	0.603316	0	1
142.326660	0.792050	city	5	1	0.596831	0.596831	0	1	0	0	CorrectCommission	0.862399	0.642371	0	1
143.118866	0.792372	city	8	1	0.596472	0.596472	0	1	0	0	CorrectCommission	0.865162	0.682107	0	1
143.911133	0.792158	city	6	1	0.608316	0.608316	0	1	0	0	CorrectCommission	0.774017	0.721586	0	1
144.703339	0.792262	city	3	1	0.646239	0.646239	0	1	0	0	CorrectCommission	0.482207	0.760173	0	1
145.495605	0.792268	city	6	1	0.596368	0.596368	0	1	0	0	CorrectCommission	0.865956	0.797614	0	1
146.287979	0.792479	city	9	1	0.546701	0.546701	0	1	0	0	CorrectCommission	1.248145	0.834024	0	1
147.080246	0.792049	city	1	1	0.546954	0.546954	0	1	0	0	CorrectCommission	1.246195	0.869836	0	1
147.872452	0.792371	mountain	5	1	0.596378	0.596378	0	0	1	0	CommissionError	0.865884	0.905679	0	1
148.664719	0.792166	city	9	1	0.596628	0.596628	0	1	0	0	CorrectCommission	0.863957	0.942186	0	1
149.456940	0.792279	city	10	1	0.794912	0.794912	0	1	0	0	CorrectCommission	0.661827	0.979789	0	1
150.249313	0.792460	city	7	1	0.844890	0.844890	0	1	0	0	CorrectCommission	1.046404	1.018518	0	1
151.041565	0.792048	city	9	1	0.694992	0.694992	0	1	0	0	CorrectCommission	0.107051	1.057975	0	1
151.833771	0.792371	city	2	1	0.597576	0.597576	0	1	0	0	CorrectCommission	0.856667	1.097336	0	1
152.626038	0.792162	city	10	1	0.760901	0.760901	0	1	0	0	CorrectCommission	0.400115	1.135433	0	1
153.418365	0.792478	city	7	1	1.041887	1.041887	0	1	0	0	CorrectCommission	2.562291	1.171062	0	1
154.210632	0.792046	city	3	0	0.000000	1.061757	0	0	0	1	OmissionError	2.715193	1.203151	0	1
155.002777	0.792264	city	10	0	0.000000	0.919725	0	0	0	1	OmissionError	1.622262	1.231075	0	1
155.795105	0.792375	city	5	1	0.715005	0.715005	0	1	0	0	CorrectCommission	0.046944	1.254748	0	1
156.587479	0.792373	city	1	1	0.546809	0.546809	0	1	0	0	CorrectCommission	1.247318	1.274589	0	1
157.379684	0.792051	city	9	1	0.448023	0.448023	0	1	0	0	CorrectCommission	2.007468	1.291343	0	1
158.171844	0.792260	city	4	1	0.646084	0.646084	0	1	0	0	CorrectCommission	0.483397	1.305867	0	1
158.964142	0.792344	mountain	8	0	0.000000	0.819778	1	0	0	0	CorrectOmission	0.853175	1.318905	0	1
159.756409	0.792191	city	10	0	0.000000	0.935372	0	0	0	1	OmissionError	1.742663	1.330760	0	1
160.548645	0.792264	city	1	0	0.000000	0.959131	0	0	0	1	OmissionError	1.925485	1.341140	0	1
161.340912	0.792270	city	6	1	0.857320	0.857320	0	1	0	0	CorrectCommission	1.142057	1.349134	0	1
162.133270	0.792473	city	4	1	0.596206	0.596206	0	1	0	0	CorrectCommission	0.867204	1.353281	0	1
162.925537	0.792050	city	3	1	0.546997	0.546997	0	1	0	0	CorrectCommission	1.245868	1.351712	0	1
163.717697	0.792277	city	9	1	0.549133	0.549133	0	1	0	0	CorrectCommission	1.229430	1.342437	0	1
164.509964	0.792252	city	1	1	0.447690	0.447690	0	1	0	0	CorrectCommission	2.010032	1.323712	0	1
165.302338	0.792480	city	7	1	0.796687	0.796687	0	1	0	0	CorrectCommission	0.675485	1.294364	0	1
166.094589	0.792047	city	9	1	1.091167	1.091167	0	1	0	0	CorrectCommission	2.941498	1.254104	0	1
166.886749	0.792274	city	8	1	1.041929	1.041929	0	1	0	0	CorrectCommission	2.562618	1.203583	0	1
167.679047	0.792293	city	7	1	0.843864	0.843864	0	1	0	0	CorrectCommission	1.038515	1.144455	0	1
168.471298	0.792230	city	10	1	0.843798	0.843798	0	1	0	0	CorrectCommission	1.038007	1.079168	0	1
169.263550	0.792264	city	7	1	0.744998	0.744998	0	1	0	0	CorrectCommission	0.277742	1.010539	0	1
170.055832	0.792288	city	1	1	0.744780	0.744780	0	1	0	0	CorrectCommission	0.276068	0.941424	0	1
170.848190	0.792457	mountain	10	1	0.745239	0.745239	0	0	1	0	CommissionError	0.279596	0.874311	0	1
171.640564	0.792264	city	1	1	0.700951	0.700951	0	1	0	0	CorrectCommission	0.061198	0.811116	0	1
172.432709	0.792046	city	7	1	0.858098	0.858098	0	1	0	0	CorrectCommission	1.148040	0.753136	0	1
173.224930	0.792373	mountain	6	1	0.844930	0.844930	0	0	1	0	CommissionError	1.046717	0.701106	0	1
174.017197	0.792161	city	8	0	0.000000	0.863703	0	0	0	1	OmissionError	1.191171	0.655375	0	1
174.809402	0.792261	city	4	1	0.851344	0.851344	0	1	0	0	CorrectCommission	1.096070	0.616079	0	1
175.601685	0.792319	city	5	1	0.744782	0.744782	0	1	0	0	CorrectCommission	0.276083	0.583312	0	1
176.394012	0.792319	city	1	1	0.697703	0.697703	0	1	0	0	CorrectCommission	0.086187	0.557155	1	1
177.186249	0.792155	city	9	1	0.760502	0.760502	0	1	0	0	CorrectCommission	0.397049	0.537590	1	1
177.978561	0.792482	city	1	1	0.695592	0.695592	0	1	0	0	CorrectCommission	0.102437	0.524387	1	1
178.770889	0.792155	city	6	1	0.695060	0.695060	0	1	0	0	CorrectCommission	0.106525	0.517017	1	1
179.563065	0.792219	city	3	1	0.646074	0.646074	0	1	0	0	CorrectCommission	0.483473	0.514534	1	1
180.355286	0.792202	city	6	1	0.794203	0.794203	0	1	0	0	CorrectCommission	0.656370	0.515556	1	1
181.147537	0.792306	city	3	1	0.695716	0.695716	0	1	0	0	CorrectCommission	0.101476	0.518426	1	1
181.939835	0.792278	city	4	1	0.645724	0.645724	0	1	0	0	CorrectCommission	0.486165	0.521359	1	1
182.732086	0.792234	city	7	1	0.596341	0.596341	0	1	0	0	CorrectCommission	0.866170	0.522737	1	1
183.524429	0.792460	city	8	1	0.547871	0.547871	0	1	0	0	CorrectCommission	1.239143	0.521304	1	1
184.316788	0.792265	city	4	1	0.546509	0.546509	0	1	0	0	CorrectCommission	1.249624	0.516398	1	1
185.108994	0.792138	mountain	8	0	0.000000	0.661746	1	0	0	0	CorrectOmission	0.362875	0.508046	1	1
185.901154	0.792176	city	6	1	0.758508	0.758508	0	1	0	0	CorrectCommission	0.381705	0.496913	1	1
186.693375	0.792263	city	1	1	0.701720	0.701720	0	1	0	0	CorrectCommission	0.055283	0.484127	1	0
187.485626	0.792264	city	2	1	0.745333	0.745333	0	1	0	0	CorrectCommission	0.280321	0.471079	1	0
188.277908	0.792276	mountain	5	0	0.000000	0.753956	1	0	0	0	CorrectOmission	0.346678	0.459130	1	0
189.070221	0.792364	city	10	1	0.759701	0.759701	0	1	0	0	CorrectCommission	0.390883	0.449395	1	0
189.862488	0.792157	city	5	1	0.794678	0.794678	0	1	0	0	CorrectCommission	0.660032	0.442543	1	0
190.654694	0.792263	city	3	1	0.745110	0.745110	0	1	0	0	CorrectCommission	0.278604	0.438729	1	0
191.446976	0.792313	city	5	1	0.745092	0.745092	0	1	0	0	CorrectCommission	0.278466	0.437605	1	0
192.239304	0.792325	mountain	3	0	0.000000	0.735601	1	0	0	0	CorrectOmission	0.205430	0.438389	1	0
193.031586	0.792234	city	9	1	0.695334	0.695334	0	1	0	0	CorrectCommission	0.104416	0.440048	1	0
193.823792	0.792186	city	8	1	0.602993	0.602993	0	1	0	0	CorrectCommission	0.814982	0.441494	1	0
194.616013	0.792274	city	7	1	0.612829	0.612829	0	1	0	0	CorrectCommission	0.739290	0.441756	1	0
195.408340	0.792365	city	9	1	0.645864	0.645864	0	1	0	0	CorrectCommission	0.485088	0.440198	1	0
196.200607	0.792179	city	3	1	0.547397	0.547397	0	1	0	0	CorrectCommission	1.242786	0.436610	1	0
196.992935	0.792459	city	6	1	0.745140	0.745140	0	1	0	0	CorrectCommission	0.278836	0.431220	1	0
197.785294	0.792266	city	9	1	0.695058	0.695058	0	1	0	0	CorrectCommission	0.106542	0.424683	1	0
198.577560	0.792266	city	6	1	0.744562	0.744562	0	1	0	0	CorrectCommission	0.274389	0.417917	1	0
199.369766	0.792153	mountain	2	0	0.000000	0.753007	1	0	0	0	CorrectOmission	0.339370	0.411942	1	0
200.162033	0.792375	city	5	1	0.744991	0.744991	0	1	0	0	CorrectCommission	0.277685	0.407710	1	0
200.954239	0.792049	city	3	1	0.745112	0.745112	0	1	0	0	CorrectCommission	0.278620	0.405970	1	0
201.746399	0.792265	city	8	1	0.705132	0.705132	0	1	0	0	CorrectCommission	0.029021	0.407186	1	0
202.538666	0.792260	city	10	1	0.611498	0.611498	0	1	0	0	CorrectCommission	0.749535	0.411494	1	0
203.330933	0.792269	city	2	1	0.801080	0.801080	0	1	0	0	CorrectCommission	0.709291	0.418702	1	0
204.123306	0.792480	city	9	1	0.745722	0.745722	0	1	0	0	CorrectCommission	0.283316	0.428372	1	0
204.915573	0.792049	city	7	1	0.695092	0.695092	0	1	0	0	CorrectCommission	0.106282	0.439872	1	0
205.707733	0.792267	city	10	1	0.651094	0.651094	0	1	0	0	CorrectCommission	0.444847	0.452458	1	0
206.499985	0.792260	city	7	1	0.645758	0.645758	0	1	0	0	CorrectCommission	0.485903	0.465344	1	0
207.292252	0.792270	city	4	1	0.645734	0.645734	0	1	0	0	CorrectCommission	0.486089	0.477791	1	0
208.084518	0.792264	city	7	1	0.645837	0.645837	0	1	0	0	CorrectCommission	0.485300	0.489154	1	0
208.876801	0.792288	city	1	1	0.609314	0.609314	0	1	0	0	CorrectCommission	0.766337	0.498928	1	0
209.669052	0.792236	city	7	1	0.596361	0.596361	0	1	0	0	CorrectCommission	0.866010	0.506759	1	0
210.461365	0.792374	city	8	1	0.645881	0.645881	0	1	0	0	CorrectCommission	0.484962	0.512448	1	0
211.253632	0.792170	mountain	3	0	0.000000	0.732378	1	0	0	0	CorrectOmission	0.180631	0.515910	1	0
212.045853	0.792250	city	10	1	0.794303	0.794303	0	1	0	0	CorrectCommission	0.657142	0.517136	1	0
212.838104	0.792269	mountain	7	0	0.000000	0.770106	1	0	0	0	CorrectOmission	0.470944	0.516135	1	0
213.630371	0.792267	city	5	1	0.744917	0.744917	0	1	0	0	CorrectCommission	0.277122	0.512921	1	0
214.422668	0.792313	city	4	1	0.803870	0.803870	0	1	0	0	CorrectCommission	0.730758	0.507524	1	0
215.214951	0.792263	city	1	1	0.645705	0.645705	0	1	0	0	CorrectCommission	0.486312	0.500009	1	0
216.007217	0.792271	city	3	1	0.645843	0.645843	0	1	0	0	CorrectCommission	0.485251	0.490507	1	0
216.799484	0.792266	city	10	1	0.556051	0.556051	0	1	0	0	CorrectCommission	1.176195	0.479267	1	0
217.591843	0.792450	city	4	1	0.744729	0.744729	0	1	0	0	CorrectCommission	0.275675	0.466677	1	0
218.384079	0.792024	city	7	1	0.758317	0.758317	0	1	0	0	CorrectCommission	0.380230	0.453322	1	0
219.176346	0.792505	city	1	1	0.744898	0.744898	0	1	0	0	CorrectCommission	0.276973	0.439967	1	0
219.968658	0.792131	city	5	1	0.695089	0.695089	0	1	0	0	CorrectCommission	0.106304	0.427518	1	0
220.760803	0.792154	city	2	1	0.646142	0.646142	0	1	0	0	CorrectCommission	0.482952	0.417045	1	0
221.553009	0.792265	city	1	1	0.645908	0.645908	0	1	0	0	CorrectCommission	0.484748	0.409743	1	0
222.345306	0.792318	city	2	1	0.598640	0.598640	0	1	0	0	CorrectCommission	0.848473	0.406892	1	0
223.137604	0.792274	city	6	1	0.697551	0.697551	0	1	0	0	CorrectCommission	0.087363	0.409772	1	0
223.929840	0.792201	city	10	1	0.695208	0.695208	0	1	0	0	CorrectCommission	0.105388	0.419575	1	0
224.722076	0.792267	city	4	1	0.695247	0.695247	0	1	0	0	CorrectCommission	0.105087	0.437231	1	0
225.514343	0.792267	city	9	1	0.645691	0.645691	0	1	0	0	CorrectCommission	0.486421	0.463250	1	0
226.306641	0.792330	city	7	1	0.658328	0.658328	0	1	0	0	CorrectCommission	0.389176	0.497534	1	0
227.098953	0.792305	city	4	1	0.611207	0.611207	0	1	0	0	CorrectCommission	0.751773	0.539246	1	0
227.891190	0.792160	city	6	1	0.695173	0.695173	0	1	0	0	CorrectCommission	0.105661	0.586704	0	0
228.683395	0.792261	city	4	1	0.695276	0.695276	0	1	0	0	CorrectCommission	0.104870	0.637444	0	0
229.475677	0.792289	city	10	1	0.695282	0.695282	0	1	0	0	CorrectCommission	0.104817	0.688275	0	0
230.267944	0.792244	city	6	1	0.551702	0.551702	0	1	0	0	CorrectCommission	1.209663	0.735598	0	0
231.060211	0.792308	city	2	1	0.596220	0.596220	0	1	0	0	CorrectCommission	0.867099	0.775753	0	0
231.852493	0.792230	city	3	1	0.558634	0.558634	0	1	0	0	CorrectCommission	1.156321	0.805505	0	0
232.644730	0.792259	city	1	1	0.497215	0.497215	0	1	0	0	CorrectCommission	1.628937	0.822448	0	0
233.436996	0.792263	city	5	1	0.497198	0.497198	0	1	0	0	CorrectCommission	1.629068	0.825360	0	0
234.229248	0.792260	city	3	1	0.408811	0.408811	0	1	0	0	CorrectCommission	2.309200	0.814365	0	0
235.021515	0.792267	city	6	1	0.645819	0.645819	0	1	0	0	CorrectCommission	0.485437	0.790932	0	0
235.813843	0.792370	mountain	3	0	0.000000	0.678554	1	0	0	0	CorrectOmission	0.233541	0.757666	0	0
236.606201	0.792373	city	4	1	0.661708	0.661708	0	1	0	0	CorrectCommission	0.363168	0.717855	0	0
237.398422	0.792052	mountain	9	0	0.000000	0.749973	1	0	0	0	CorrectOmission	0.316026	0.675051	0	0
238.190582	0.792259	city	9	1	0.794364	0.794364	0	1	0	0	CorrectCommission	0.657615	0.632634	0	0
238.982834	0.792265	city	7	1	0.645898	0.645898	0	1	0	0	CorrectCommission	0.484826	0.593399	0	0
239.775208	0.792482	city	1	1	0.652908	0.652908	0	1	0	0	CorrectCommission	0.430884	0.559401	1	0
240.567474	0.792046	city	6	1	0.659151	0.659151	0	1	0	0	CorrectCommission	0.382843	0.531854	1	0
241.359741	0.792484	city	7	1	0.703189	0.703189	0	1	0	0	CorrectCommission	0.043977	0.511202	1	0
242.152008	0.792047	city	8	1	0.659356	0.659356	0	1	0	0	CorrectCommission	0.381272	0.497339	1	0
242.944168	0.792266	city	4	1	0.745004	0.745004	0	1	0	0	CorrectCommission	0.277790	0.489837	1	0
243.736435	0.792265	city	9	1	0.893469	0.893469	0	1	0	0	CorrectCommission	1.420224	0.488236	1	0
244.528702	0.792289	city	5	1	0.763219	0.763219	0	1	0	0	CorrectCommission	0.417952	0.492209	1	0
245.321030	0.792349	city	10	1	0.646143	0.646143	0	1	0	0	CorrectCommission	0.482945	0.501735	1	0
246.113327	0.792265	city	2	1	0.748782	0.748782	0	1	0	0	CorrectCommission	0.306859	0.517037	1	1
246.905548	0.792157	city	5	1	0.748533	0.748533	0	1	0	0	CorrectCommission	0.304948	0.538436	1	1
247.697769	0.792304	city	10	1	0.658690	0.658690	0	1	0	0	CorrectCommission	0.386390	0.566173	1	1
248.490143	0.792443	city	8	1	0.657065	0.657065	0	1	0	0	CorrectCommission	0.398899	0.600176	0	1
249.282394	0.792046	city	9	1	0.745148	0.745148	0	1	0	0	CorrectCommission	0.278900	0.639830	0	1
250.074585	0.792345	city	10	1	0.843853	0.843853	0	1	0	0	CorrectCommission	1.038426	0.683862	0	1
250.866898	0.792293	city	1	0	0.000000	0.775220	0	0	0	1	OmissionError	0.510301	0.730311	0	1
251.659241	0.792374	city	7	1	0.695593	0.695593	0	1	0	0	CorrectCommission	0.102423	0.776663	0	1
252.451462	0.792085	city	5	1	0.761315	0.761315	0	1	0	0	CorrectCommission	0.403303	0.820143	0	1
253.243652	0.792274	city	10	1	0.943376	0.943376	0	1	0	0	CorrectCommission	1.804253	0.858033	0	1
254.035889	0.792221	city	6	1	0.762197	0.762197	0	1	0	0	CorrectCommission	0.410088	0.888042	0	1
254.828140	0.792262	city	9	1	1.041917	1.041917	0	1	0	0	CorrectCommission	2.562525	0.908757	0	1
255.620407	0.792263	city	3	1	0.992858	0.992858	0	1	0	0	CorrectCommission	2.185016	0.919742	0	1
256.412659	0.792266	city	8	1	0.847542	0.847542	0	1	0	0	CorrectCommission	1.066812	0.921775	0	1
257.204987	0.792372	city	10	0	0.000000	0.779609	0	0	0	1	OmissionError	0.544074	0.916662	0	1
257.997253	0.792187	city	4	0	0.000000	0.745617	0	0	0	1	OmissionError	0.282505	0.906958	0	1
258.789459	0.792237	city	10	1	0.702121	0.702121	0	1	0	0	CorrectCommission	0.052192	0.895606	0	1
259.581787	0.792371	city	2	1	0.605679	0.605679	0	1	0	0	CorrectCommission	0.794314	0.885522	0	1
260.374054	0.792202	city	10	0	0.000000	0.801628	0	0	0	1	OmissionError	0.713510	0.879244	0	1
261.166321	0.792286	city	3	1	0.949532	0.949532	0	1	0	0	CorrectCommission	1.851620	0.878648	0	1
261.958588	0.792256	city	5	1	0.708950	0.708950	0	1	0	0	CorrectCommission	0.000356	0.884782	0	1
262.750916	0.792424	city	2	1	0.596261	0.596261	0	1	0	0	CorrectCommission	0.866784	0.897845	0	1
263.543213	0.792156	city	5	1	0.546577	0.546577	0	1	0	0	CorrectCommission	1.249101	0.917096	0	1
264.335480	0.792372	city	8	1	0.645704	0.645704	0	1	0	0	CorrectCommission	0.486320	0.940984	0	1
265.127716	0.792104	city	4	1	0.596120	0.596120	0	1	0	0	CorrectCommission	0.867871	0.967278	0	1
265.919861	0.792209	city	2	1	0.602946	0.602946	0	1	0	0	CorrectCommission	0.815343	0.993224	0	1
266.712128	0.792287	city	5	1	0.653229	0.653229	0	1	0	0	CorrectCommission	0.428413	1.015825	0	1
267.504395	0.792241	city	8	0	0.000000	0.544223	0	0	0	1	OmissionError	1.267214	1.032123	0	1
268.296753	0.792483	city	5	0	0.000000	0.439104	0	0	0	1	OmissionError	2.076101	1.039520	0	1
269.089050	0.792125	city	2	1	0.501050	0.501050	0	1	0	0	CorrectCommission	1.599430	1.036111	0	1
269.881195	0.792188	city	5	1	0.893238	0.893238	0	1	0	0	CorrectCommission	1.418447	1.020953	0	1
270.673492	0.792373	city	8	1	0.602842	0.602842	0	1	0	0	CorrectCommission	0.816140	0.994148	0	1
271.465851	0.792374	city	4	1	0.954927	0.954927	0	1	0	0	CorrectCommission	1.893141	0.956911	0	1
272.258087	0.792076	city	9	1	0.843945	0.843945	0	1	0	0	CorrectCommission	1.039137	0.911311	0	1
273.050232	0.792237	city	5	1	0.794423	0.794423	0	1	0	0	CorrectCommission	0.658070	0.860111	0	1
273.842529	0.792313	city	9	1	0.744822	0.744822	0	1	0	0	CorrectCommission	0.276392	0.806399	0	1
274.634766	0.792215	city	4	1	0.744746	0.744746	0	1	0	0	CorrectCommission	0.275805	0.753242	0	1
275.427124	0.792480	city	9	1	0.794356	0.794356	0	1	0	0	CorrectCommission	0.657551	0.703403	0	1
276.219513	0.792267	city	3	1	0.794108	0.794108	0	1	0	0	CorrectCommission	0.655645	0.659177	0	1
277.011658	0.792048	city	6	1	0.796016	0.796016	0	1	0	0	CorrectCommission	0.670321	0.622365	0	1
277.803833	0.792327	city	2	1	0.744833	0.744833	0	1	0	0	CorrectCommission	0.276477	0.594395	0	1
278.596100	0.792202	city	5	1	0.744740	0.744740	0	1	0	0	CorrectCommission	0.275758	0.576503	1	1
279.388336	0.792268	city	1	1	0.646079	0.646079	0	1	0	0	CorrectCommission	0.483437	0.570052	1	1
280.180603	0.792259	city	2	1	0.751749	0.751749	0	1	0	0	CorrectCommission	0.329690	0.576737	1	1
280.972992	0.792483	city	5	1	0.609151	0.609151	0	1	0	0	CorrectCommission	0.767595	0.598729	0	1
281.765259	0.792059	city	3	1	0.596054	0.596054	0	1	0	0	CorrectCommission	0.868373	0.638606	0	1
282.557404	0.792252	city	2	1	0.794290	0.794290	0	1	0	0	CorrectCommission	0.657045	0.699063	0	1
283.349731	0.792373	mountain	1	1	0.645952	0.645952	0	0	1	0	CommissionError	0.484414	0.782384	0	1
284.141998	0.792162	city	4	1	0.745295	0.745295	0	1	0	0	CorrectCommission	0.280028	0.889739	0	1
284.934235	0.792368	city	10	1	0.749630	0.749630	0	1	0	0	CorrectCommission	0.313387	1.020415	0	1
285.726501	0.792158	city	6	1	0.744743	0.744743	0	1	0	0	CorrectCommission	0.275783	1.171120	0	1
286.518829	0.792481	city	10	1	0.652142	0.652142	0	1	0	0	CorrectCommission	0.436778	1.335616	0	1
287.311096	0.792051	city	9	0	0.000000	0.680463	0	0	0	1	OmissionError	0.218854	1.504728	0	1
288.103241	0.792263	city	8	0	0.000000	0.793728	0	0	0	1	OmissionError	0.652718	1.666917	0	1
288.895508	0.792266	mountain	10	0	0.000000	0.955962	1	0	0	0	CorrectOmission	1.901102	1.809323	0	1
289.687775	0.792262	mountain	4	0	0.000000	1.131188	1	0	0	0	CorrectOmission	3.249464	1.919284	0	1
290.480042	0.792268	city	10	0	0.000000	1.283431	0	0	0	1	OmissionError	4.420966	1.986019	0	1
291.272339	0.792311	city	3	0	0.000000	1.376714	0	0	0	1	OmissionError	5.138773	2.002193	0	1
292.064636	0.792264	city	4	0	0.000000	1.375061	0	0	0	1	OmissionError	5.126050	1.965059	0	1
292.856964	0.792434	city	5	1	1.242495	1.242495	0	1	0	0	CorrectCommission	4.105961	1.876949	0	1
293.649200	0.792046	city	9	1	0.943040	0.943040	0	1	0	0	CorrectCommission	1.801669	1.745072	0	1
294.441376	0.792264	city	6	1	0.748759	0.748759	0	1	0	0	CorrectCommission	0.306681	1.580536	0	1
295.233643	0.792266	city	4	1	0.695254	0.695254	0	1	0	0	CorrectCommission	0.105036	1.396868	0	1
296.025940	0.792371	city	2	1	0.695405	0.695405	0	1	0	0	CorrectCommission	0.103873	1.208313	0	1
296.818329	0.792374	mountain	1	0	0.000000	0.700773	1	0	0	0	CorrectOmission	0.062568	1.028207	0	1
297.610535	0.792048	city	7	1	0.695527	0.695527	0	1	0	0	CorrectCommission	0.102935	0.867652	0	1
298.402679	0.792265	city	10	1	0.663837	0.663837	0	1	0	0	CorrectCommission	0.346786	0.734622	0	1
299.194946	0.792268	city	3	1	0.704508	0.704508	0	1	0	0	CorrectCommission	0.033826	0.633578	0	1
299.987335	0.792477	city	7	1	0.658932	0.658932	0	1	0	0	CorrectCommission	0.384531	0.565546	1	1
300.779602	0.792048	city	4	1	0.695038	0.695038	0	1	0	0	CorrectCommission	0.106695	0.528482	1	1
301.571747	0.792268	city	10	1	0.695247	0.695247	0	1	0	0	CorrectCommission	0.105091	0.517936	1	1
302.364044	0.792340	city	5	1	0.695330	0.695330	0	1	0	0	CorrectCommission	0.104450	0.527786	1	1
303.156311	0.792187	city	10	1	0.706014	0.706014	0	1	0	0	CorrectCommission	0.022235	0.551048	1	1
303.948578	0.792315	city	9	1	0.752399	0.752399	0	1	0	0	CorrectCommission	0.334693	0.580645	1	1
304.740845	0.792214	city	4	0	0.000000	0.838431	0	0	0	1	OmissionError	0.996707	0.610110	0	1
305.533081	0.792300	city	9	0	0.000000	0.920003	0	0	0	1	OmissionError	1.624400	0.634139	0	0
306.325409	0.792310	city	5	0	0.000000	0.953007	0	0	0	1	OmissionError	1.878368	0.648999	0	0
307.117645	0.792198	city	2	1	0.893337	0.893337	0	1	0	0	CorrectCommission	1.419202	0.652721	0	0
307.909882	0.792250	city	4	1	0.696883	0.696883	0	1	0	0	CorrectCommission	0.092503	0.645069	0	0
308.702148	0.792285	city	8	1	0.560217	0.560217	0	1	0	0	CorrectCommission	1.144138	0.627314	0	0
309.494415	0.792288	city	10	1	0.663643	0.663643	0	1	0	0	CorrectCommission	0.348283	0.601782	0	0
310.286682	0.792224	city	1	1	0.696564	0.696564	0	1	0	0	CorrectCommission	0.094951	0.571452	1	0
311.078949	0.792319	city	5	1	0.645785	0.645785	0	1	0	0	CorrectCommission	0.485698	0.539433	1	0
311.871277	0.792317	mountain	5	0	0.000000	0.662012	1	0	0	0	CorrectOmission	0.360833	0.508524	1	0
312.663635	0.792373	city	9	1	0.695144	0.695144	0	1	0	0	CorrectCommission	0.105885	0.480925	1	0
313.455933	0.792265	city	4	1	0.695079	0.695079	0	1	0	0	CorrectCommission	0.106380	0.458066	1	0
314.248138	0.792107	city	1	1	0.652291	0.652291	0	1	0	0	CorrectCommission	0.435634	0.440568	1	0
315.040283	0.792225	city	8	1	0.613741	0.613741	0	1	0	0	CorrectCommission	0.732271	0.428345	1	0
315.832581	0.792353	city	4	1	0.645894	0.645894	0	1	0	0	CorrectCommission	0.484857	0.420763	1	0
316.624847	0.792157	mountain	5	0	0.000000	0.660025	1	0	0	0	CorrectOmission	0.376122	0.416844	1	0
317.417114	0.792372	city	7	1	0.661207	0.661207	0	1	0	0	CorrectCommission	0.367024	0.415430	1	0
318.209412	0.792227	mountain	6	0	0.000000	0.654515	1	0	0	0	CorrectOmission	0.418523	0.415340	1	0
319.001678	0.792303	mountain	4	0	0.000000	0.650741	1	0	0	0	CorrectOmission	0.447560	0.415476	1	0
319.794006	0.792373	mountain	3	0	0.000000	0.660681	1	0	0	0	CorrectOmission	0.371077	0.414905	1	0
320.586334	0.792266	city	8	1	0.695127	0.695127	0	1	0	0	CorrectCommission	0.106013	0.412910	1	0
321.378510	0.792094	mountain	3	0	0.000000	0.764874	1	0	0	0	CorrectOmission	0.430690	0.409040	1	0
322.170654	0.792218	mountain	8	0	0.000000	0.815928	1	0	0	0	CorrectOmission	0.823544	0.403137	1	0
322.962891	0.792267	city	6	1	0.794292	0.794292	0	1	0	0	CorrectCommission	0.657058	0.395363	1	0
323.755157	0.792265	city	9	1	0.645972	0.645972	0	1	0	0	CorrectCommission	0.484256	0.386207	1	0
324.547546	0.792480	city	6	1	0.651478	0.651478	0	1	0	0	CorrectCommission	0.441889	0.376436	1	0
325.339905	0.792263	mountain	5	0	0.000000	0.674218	1	0	0	0	CorrectOmission	0.266905	0.367029	1	0
326.132080	0.792049	city	2	1	0.695301	0.695301	0	1	0	0	CorrectCommission	0.104674	0.359029	1	0
326.924286	0.792399	city	6	1	0.695835	0.695835	0	1	0	0	CorrectCommission	0.100563	0.353417	1	0
327.716553	0.792134	city	9	1	0.654916	0.654916	0	1	0	0	CorrectCommission	0.415431	0.350985	1	0
328.508789	0.792313	city	2	1	0.645870	0.645870	0	1	0	0	CorrectCommission	0.485041	0.352192	1	0
329.301056	0.792217	city	6	1	0.702034	0.702034	0	1	0	0	CorrectCommission	0.052864	0.357126	1	0
330.093323	0.792312	city	3	1	0.712963	0.712963	0	1	0	0	CorrectCommission	0.031238	0.365502	1	0
330.885559	0.792210	city	10	1	0.744769	0.744769	0	1	0	0	CorrectCommission	0.275979	0.376711	1	0
331.677795	0.792269	city	5	1	0.749803	0.749803	0	1	0	0	CorrectCommission	0.314714	0.389944	1	0
332.470123	0.792370	city	10	1	0.794378	0.794378	0	1	0	0	CorrectCommission	0.657718	0.404326	1	0
333.262390	0.792159	city	6	1	0.794235	0.794235	0	1	0	0	CorrectCommission	0.656617	0.419076	1	0
334.054596	0.792261	mountain	8	0	0.000000	0.810916	1	0	0	0	CorrectOmission	0.784981	0.433628	1	0
334.846863	0.792266	city	8	1	0.794554	0.794554	0	1	0	0	CorrectCommission	0.659074	0.447676	1	0
335.639191	0.792373	city	3	1	0.695279	0.695279	0	1	0	0	CorrectCommission	0.104841	0.461165	1	0
336.431519	0.792266	mountain	6	0	0.000000	0.724582	1	0	0	0	CorrectOmission	0.120639	0.474222	1	0
337.223755	0.792209	mountain	8	0	0.000000	0.788789	1	0	0	0	CorrectOmission	0.614713	0.487017	1	0
338.015961	0.792209	city	5	1	0.794230	0.794230	0	1	0	0	CorrectCommission	0.656580	0.499647	1	0
338.808197	0.792269	city	6	1	0.647232	0.647232	0	1	0	0	CorrectCommission	0.474563	0.512018	1	0
339.600555	0.792479	mountain	8	0	0.000000	0.657061	1	0	0	0	CorrectOmission	0.398927	0.523802	1	0
340.392822	0.792048	mountain	6	0	0.000000	0.735506	1	0	0	0	CorrectOmission	0.204703	0.534448	1	0
341.185028	0.792375	city	6	1	0.794355	0.794355	0	1	0	0	CorrectCommission	0.657546	0.543255	1	0
341.977356	0.792263	city	5	1	0.745398	0.745398	0	1	0	0	CorrectCommission	0.280818	0.549512	1	0
342.769623	0.792265	city	9	1	0.553668	0.553668	0	1	0	0	CorrectCommission	1.194531	0.552685	1	0
343.561829	0.792158	city	1	1	0.596114	0.596114	0	1	0	0	CorrectCommission	0.867910	0.552540	1	0
344.354034	0.792266	city	7	1	0.596248	0.596248	0	1	0	0	CorrectCommission	0.866885	0.549290	1	0
345.146301	0.792267	city	3	1	0.645886	0.645886	0	1	0	0	CorrectCommission	0.484922	0.543571	1	0
345.938629	0.792370	city	5	1	0.645997	0.645997	0	1	0	0	CorrectCommission	0.484063	0.536386	1	0
346.730896	0.792156	city	2	1	0.597408	0.597408	0	1	0	0	CorrectCommission	0.857954	0.528929	1	0
347.523163	0.792372	city	10	1	0.704742	0.704742	0	1	0	0	CorrectCommission	0.032028	0.522353	1	0
348.315521	0.792374	city	2	1	0.695160	0.695160	0	1	0	0	CorrectCommission	0.105756	0.517564	1	0
349.107758	0.792048	city	3	1	0.744704	0.744704	0	1	0	0	CorrectCommission	0.275482	0.514999	1	0
349.899902	0.792262	city	8	1	0.645755	0.645755	0	1	0	0	CorrectCommission	0.485930	0.514524	1	0
350.692261	0.792483	city	3	1	0.655739	0.655739	0	1	0	0	CorrectCommission	0.409101	0.515463	1	0
351.484528	0.792050	city	10	1	0.645576	0.645576	0	1	0	0	CorrectCommission	0.487309	0.516707	1	0
352.276703	0.792262	mountain	6	0	0.000000	0.777770	1	0	0	0	CorrectOmission	0.529919	0.516917	1	0
353.068970	0.792269	city	9	1	0.846536	0.846536	0	1	0	0	CorrectCommission	1.059073	0.514791	1	0
353.861237	0.792271	city	10	1	0.646089	0.646089	0	1	0	0	CorrectCommission	0.483355	0.509305	1	0
354.653503	0.792297	city	2	1	0.596301	0.596301	0	1	0	0	CorrectCommission	0.866473	0.499936	1	0
355.445801	0.792276	city	3	1	0.547240	0.547240	0	1	0	0	CorrectCommission	1.243998	0.486752	1	0
356.238098	0.792320	city	1	1	0.695375	0.695375	0	1	0	0	CorrectCommission	0.104108	0.470439	1	0
357.030334	0.792156	city	9	1	0.744691	0.744691	0	1	0	0	CorrectCommission	0.275383	0.452226	1	0
357.822571	0.792306	city	10	1	0.710286	0.710286	0	1	0	0	CorrectCommission	0.010636	0.433658	1	0
358.614838	0.792224	city	2	1	0.745246	0.745246	0	1	0	0	CorrectCommission	0.279649	0.416445	1	0
359.407135	0.792374	city	6	1	0.794657	0.794657	0	1	0	0	CorrectCommission	0.659866	0.402257	1	0
360.199493	0.792373	city	1	1	0.744612	0.744612	0	1	0	0	CorrectCommission	0.274774	0.392498	1	0
360.991821	0.792265	city	9	1	0.744797	0.744797	0	1	0	0	CorrectCommission	0.276196	0.388241	1	0
361.783997	0.792100	city	10	1	0.744585	0.744585	0	1	0	0	CorrectCommission	0.274562	0.390152	1	0
362.576202	0.792319	city	6	1	0.745153	0.745153	0	1	0	0	CorrectCommission	0.278933	0.398508	1	0
363.368500	0.792266	city	10	1	0.695867	0.695867	0	1	0	0	CorrectCommission	0.100321	0.413228	1	0
364.160706	0.792156	city	4	1	0.744801	0.744801	0	1	0	0	CorrectCommission	0.276227	0.433963	1	0
364.952972	0.792373	city	7	1	0.695573	0.695573	0	1	0	0	CorrectCommission	0.102579	0.460219	1	1
365.745300	0.792264	city	2	1	0.794179	0.794179	0	1	0	0	CorrectCommission	0.656191	0.491464	1	1
366.537506	0.792157	city	7	1	0.843780	0.843780	0	1	0	0	CorrectCommission	1.037864	0.527191	1	1
367.329712	0.792267	city	4	1	0.812440	0.812440	0	1	0	0	CorrectCommission	0.796707	0.566997	1	1
368.121979	0.792265	mountain	4	0	0.000000	0.783278	1	0	0	0	CorrectOmission	0.572303	0.610597	0	1
368.914246	0.792263	city	5	1	0.760835	0.760835	0	1	0	0	CorrectCommission	0.399607	0.657818	0	1
369.706512	0.792263	city	4	1	0.749654	0.749654	0	1	0	0	CorrectCommission	0.313574	0.708575	0	1
370.498901	0.792482	city	3	1	0.646417	0.646417	0	1	0	0	CorrectCommission	0.480836	0.762835	0	1
371.291260	0.792264	city	1	1	0.600887	0.600887	0	1	0	0	CorrectCommission	0.831184	0.820633	0	1
372.083466	0.792155	city	3	1	0.794094	0.794094	0	1	0	0	CorrectCommission	0.655533	0.882061	0	1
372.875641	0.792160	mountain	4	0	0.000000	0.710843	1	0	0	0	CorrectOmission	0.014919	0.947272	0	1
373.667938	0.792479	city	5	1	0.497198	0.497198	0	1	0	0	CorrectCommission	1.629068	1.016478	0	1
374.460205	0.792053	city	9	1	0.299224	0.299224	0	1	0	0	CorrectCommission	3.152469	1.089799	0	1
375.252472	0.792477	city	3	0	0.000000	0.503439	0	0	0	1	OmissionError	1.581041	1.167185	0	1
376.044739	0.792049	city	1	1	0.746547	0.746547	0	1	0	0	CorrectCommission	0.289661	1.248153	0	1
376.836945	0.792372	city	7	1	0.665250	0.665250	0	1	0	0	CorrectCommission	0.335917	1.331448	0	1
377.629211	0.792154	mountain	3	0	0.000000	0.623665	1	0	0	0	CorrectOmission	0.655912	1.414883	0	1
378.421539	0.792485	mountain	7	1	0.655415	0.655415	0	0	1	0	CommissionError	0.411594	1.495329	0	1
379.213806	0.792045	city	2	1	0.794124	0.794124	0	1	0	0	CorrectCommission	0.655765	1.568964	0	1
380.006073	0.792483	city	4	1	0.993344	0.993344	0	1	0	0	CorrectCommission	2.188759	1.631709	0	1
380.798370	0.792157	city	2	0	0.000000	1.162580	0	0	0	1	OmissionError	3.491017	1.679818	0	1
381.590546	0.792156	city	9	0	0.000000	1.247060	0	0	0	1	OmissionError	4.141093	1.710507	0	1
382.382874	0.792481	city	2	1	1.192017	1.192017	0	1	0	0	CorrectCommission	3.717538	1.722406	0	1
383.175110	0.792048	city	9	1	0.942681	0.942681	0	1	0	0	CorrectCommission	1.798905	1.715707	0	1
383.967285	0.792280	city	2	1	0.794322	0.794322	0	1	0	0	CorrectCommission	0.657289	1.692006	0	1
384.759674	0.792467	city	1	1	0.660278	0.660278	0	1	0	0	CorrectCommission	0.374172	1.653823	0	1
385.551910	0.792045	city	9	1	0.612379	0.612379	0	1	0	0	CorrectCommission	0.742755	1.604006	0	1
386.344086	0.792266	city	7	1	0.943405	0.943405	0	1	0	0	CorrectCommission	1.804478	1.545167	0	1
387.136383	0.792329	city	5	0	0.000000	1.002157	0	0	0	1	OmissionError	2.256573	1.479291	0	1
387.928650	0.792207	city	2	0	0.000000	0.899131	0	0	0	1	OmissionError	1.463787	1.407601	0	1
388.720886	0.792262	mountain	10	1	0.744820	0.744820	0	0	1	0	CommissionError	0.276376	1.330696	0	1
389.513153	0.792318	city	3	1	0.649722	0.649722	0	1	0	0	CorrectCommission	0.455402	1.248898	0	1
390.305542	0.792425	city	1	1	1.201859	1.201859	0	1	0	0	CorrectCommission	3.793274	1.162650	0	1
391.097870	0.792265	city	8	0	0.000000	1.073792	0	0	0	1	OmissionError	2.807797	1.072859	0	1
391.890076	0.792100	city	4	1	0.745065	0.745065	0	1	0	0	CorrectCommission	0.278255	0.981310	0	1
392.682281	0.792319	city	8	1	0.695224	0.695224	0	1	0	0	CorrectCommission	0.105264	0.890716	0	1
393.474548	0.792226	city	6	1	0.695225	0.695225	0	1	0	0	CorrectCommission	0.105258	0.804496	0	1
394.266876	0.792413	city	9	1	0.645690	0.645690	0	1	0	0	CorrectCommission	0.486431	0.726445	0	1
395.059082	0.792050	city	5	1	0.794139	0.794139	0	1	0	0	CorrectCommission	0.655881	0.660283	0	1
395.851349	0.792479	city	2	1	0.744829	0.744829	0	1	0	0	CorrectCommission	0.276441	0.609218	0	1
396.643616	0.792046	city	6	1	0.695641	0.695641	0	1	0	0	CorrectCommission	0.102061	0.575521	1	1
397.435822	0.792374	city	9	1	0.705802	0.705802	0	1	0	0	CorrectCommission	0.023872	0.560183	1	1
398.228088	0.792160	city	2	1	0.706388	0.706388	0	1	0	0	CorrectCommission	0.019362	0.562825	1	1
399.020416	0.792479	city	10	1	0.662474	0.662474	0	1	0	0	CorrectCommission	0.357274	0.581731	0	1
399.812714	0.792088	city	7	1	0.649487	0.649487	0	1	0	0	CorrectCommission	0.457210	0.614036	0	1
400.604858	0.792227	city	2	1	0.645740	0.645740	0	1	0	0	CorrectCommission	0.486042	0.656087	0	1
401.397217	0.792480	city	10	1	0.663010	0.663010	0	1	0	0	CorrectCommission	0.353148	0.703805	0	1
402.189484	0.792055	city	3	1	0.551204	0.551204	0	1	0	0	CorrectCommission	1.213496	0.753104	0	1
402.981628	0.792255	city	10	1	0.546646	0.546646	0	1	0	0	CorrectCommission	1.248564	0.800301	0	1
403.773895	0.792286	city	9	1	0.547539	0.547539	0	1	0	0	CorrectCommission	1.241700	0.842410	0	1
404.566223	0.792355	city	7	1	0.956565	0.956565	0	1	0	0	CorrectCommission	1.905744	0.877291	0	1
405.358490	0.792159	city	2	1	0.844177	0.844177	0	1	0	0	CorrectCommission	1.040924	0.903772	0	1
406.150726	0.792301	city	7	1	0.744790	0.744790	0	1	0	0	CorrectCommission	0.276139	0.921640	0	1
406.943024	0.792334	city	5	1	0.645714	0.645714	0	1	0	0	CorrectCommission	0.486244	0.931486	0	1
407.735291	0.792171	city	4	1	0.596311	0.596311	0	1	0	0	CorrectCommission	0.866397	0.934530	0	1
408.527496	0.792249	city	2	1	0.497177	0.497177	0	1	0	0	CorrectCommission	1.629232	0.932553	0	1
409.319763	0.792294	city	10	0	0.000000	0.586297	0	0	0	1	OmissionError	0.943458	0.927776	0	1
410.112030	0.792234	city	3	0	0.000000	0.759644	0	0	0	1	OmissionError	0.390444	0.922729	0	1
410.904266	0.792266	city	8	0	0.000000	0.913193	0	0	0	1	OmissionError	1.571994	0.920064	0	1
411.696533	0.792266	city	4	1	0.942916	0.942916	0	1	0	0	CorrectCommission	1.800712	0.922316	0	1
412.488800	0.792271	city	6	1	0.744787	0.744787	0	1	0	0	CorrectCommission	0.276117	0.931621	0	1
413.281067	0.792259	city	9	1	0.645749	0.645749	0	1	0	0	CorrectCommission	0.485977	0.949483	0	1
414.073334	0.792261	mountain	7	1	0.646170	0.646170	0	0	1	0	CommissionError	0.482733	0.976353	0	1
414.865601	0.792268	city	9	0	0.000000	0.728548	0	0	0	1	OmissionError	0.151158	1.011479	0	1
415.657867	0.792269	city	10	1	0.794315	0.794315	0	1	0	0	CorrectCommission	0.657236	1.052912	0	1
416.450195	0.792367	city	1	1	0.744906	0.744906	0	1	0	0	CorrectCommission	0.277037	1.097664	0	1
417.242493	0.792227	city	5	1	0.744691	0.744691	0	1	0	0	CorrectCommission	0.275383	1.142181	0	1
418.034698	0.792192	city	4	1	1.105296	1.105296	0	1	0	0	CorrectCommission	3.050226	1.182891	0	1
418.826996	0.792374	city	1	1	1.144660	1.144660	0	1	0	0	CorrectCommission	3.353126	1.216749	0	1
419.619232	0.792156	city	8	0	0.000000	0.805866	0	0	0	1	OmissionError	0.746120	1.241805	0	1
420.411560	0.792483	city	6	1	0.447825	0.447825	0	1	0	0	CorrectCommission	2.008991	1.257482	0	1
421.203827	0.792049	city	4	0	0.000000	0.429447	0	0	0	1	OmissionError	2.150407	1.264400	0	1
421.996033	0.792370	city	8	1	0.596368	0.596368	0	1	0	0	CorrectCommission	0.865961	1.264124	0	1
422.788300	0.792160	mountain	9	1	0.794221	0.794221	0	0	1	0	CommissionError	0.656514	1.258627	0	1
423.580627	0.792479	city	10	1	0.798920	0.798920	0	1	0	0	CorrectCommission	0.692670	1.249625	0	1
424.372986	0.792265	city	7	1	0.745061	0.745061	0	1	0	0	CorrectCommission	0.278228	1.238038	0	0
425.165161	0.792047	city	8	1	0.645552	0.645552	0	1	0	0	CorrectCommission	0.487490	1.223704	0	0
425.957306	0.792268	city	1	0	0.000000	0.831656	0	0	0	1	OmissionError	0.944576	1.205350	0	0
426.749573	0.792266	city	3	1	0.999195	0.999195	0	1	0	0	CorrectCommission	2.233777	1.180918	0	0
427.541901	0.792368	city	10	1	0.843988	0.843988	0	1	0	0	CorrectCommission	1.039464	1.148101	0	0
428.334167	0.792158	city	2	1	1.091315	1.091315	0	1	0	0	CorrectCommission	2.942635	1.105023	0	0
429.126465	0.792482	city	6	1	1.008077	1.008077	0	1	0	0	CorrectCommission	2.302126	1.050719	0	0
429.918762	0.792060	city	8	1	0.843587	0.843587	0	1	0	0	CorrectCommission	1.036382	0.985641	0	0
430.710907	0.792251	city	4	1	0.843792	0.843792	0	1	0	0	CorrectCommission	1.037961	0.911709	0	0
431.503204	0.792374	city	7	1	0.745252	0.745252	0	1	0	0	CorrectCommission	0.279698	0.832116	0	0
432.295471	0.792154	city	1	1	0.695196	0.695196	0	1	0	0	CorrectCommission	0.105478	0.750970	0	0
433.087738	0.792375	city	4	1	0.652608	0.652608	0	1	0	0	CorrectCommission	0.433193	0.672713	0	0
433.880035	0.792231	city	1	1	0.652860	0.652860	0	1	0	0	CorrectCommission	0.431253	0.601607	0	0
434.672272	0.792193	city	10	1	0.696346	0.696346	0	1	0	0	CorrectCommission	0.096634	0.541289	1	0
435.464539	0.792371	city	4	1	0.744827	0.744827	0	1	0	0	CorrectCommission	0.276424	0.494406	1	0
436.256805	0.792157	city	6	1	0.695069	0.695069	0	1	0	0	CorrectCommission	0.106461	0.462459	1	0
437.049042	0.792316	city	5	1	0.744779	0.744779	0	1	0	0	CorrectCommission	0.276055	0.445849	1	0
437.841431	0.792428	city	1	1	0.697633	0.697633	0	1	0	0	CorrectCommission	0.086730	0.443889	1	0
438.633667	0.792049	city	2	1	0.656888	0.656888	0	1	0	0	CorrectCommission	0.400262	0.455012	1	0
439.425812	0.792266	city	1	1	0.646229	0.646229	0	1	0	0	CorrectCommission	0.482281	0.476958	1	0
440.218079	0.792262	city	10	1	0.645767	0.645767	0	1	0	0	CorrectCommission	0.485836	0.506956	1	0
441.010345	0.792265	city	7	1	0.601075	0.601075	0	1	0	0	CorrectCommission	0.829736	0.541898	1	0
441.802612	0.792269	city	5	1	0.663954	0.663954	0	1	0	0	CorrectCommission	0.345888	0.578506	1	0
442.594879	0.792263	city	8	1	0.695368	0.695368	0	1	0	0	CorrectCommission	0.104160	0.613525	0	0
443.387177	0.792342	city	6	1	0.645761	0.645761	0	1	0	0	CorrectCommission	0.485882	0.643896	0	0
444.179443	0.792187	city	7	1	0.554870	0.554870	0	1	0	0	CorrectCommission	1.185287	0.666944	0	0
444.971680	0.792311	city	9	1	0.596391	0.596391	0	1	0	0	CorrectCommission	0.865781	0.680662	0	0
445.764069	0.792433	city	7	1	0.562289	0.562289	0	1	0	0	CorrectCommission	1.128199	0.683887	0	0
446.556305	0.792050	city	3	1	0.496989	0.496989	0	1	0	0	CorrectCommission	1.630675	0.676454	0	0
447.348450	0.792263	city	5	1	0.498337	0.498337	0	1	0	0	CorrectCommission	1.620303	0.659231	0	0
448.140717	0.792269	city	2	1	0.646797	0.646797	0	1	0	0	CorrectCommission	0.477913	0.634019	0	0
448.933014	0.792339	city	9	1	0.695379	0.695379	0	1	0	0	CorrectCommission	0.104075	0.603322	0	0
449.725342	0.792294	city	7	1	0.712847	0.712847	0	1	0	0	CorrectCommission	0.030339	0.569978	1	0
450.517639	0.792265	mountain	4	0	0.000000	0.742096	1	0	0	0	CorrectOmission	0.255409	0.536790	1	0
451.309875	0.792210	city	2	1	0.760319	0.760319	0	1	0	0	CorrectCommission	0.395640	0.506198	1	0
452.102081	0.792225	city	6	1	0.744712	0.744712	0	1	0	0	CorrectCommission	0.275539	0.480039	1	0
452.894318	0.792255	city	1	1	0.696170	0.696170	0	1	0	0	CorrectCommission	0.097990	0.459424	1	0
453.686584	0.792300	city	7	1	0.611967	0.611967	0	1	0	0	CorrectCommission	0.745929	0.444725	1	0
454.478973	0.792442	city	8	1	0.615497	0.615497	0	1	0	0	CorrectCommission	0.718764	0.435641	1	0
455.271332	0.792266	mountain	6	0	0.000000	0.656966	1	0	0	0	CorrectOmission	0.399659	0.431384	1	0
456.063477	0.792049	city	2	1	0.696910	0.696910	0	1	0	0	CorrectCommission	0.092294	0.430833	1	0
456.855682	0.792371	city	4	1	0.695863	0.695863	0	1	0	0	CorrectCommission	0.100348	0.432709	1	0
457.647949	0.792160	city	8	1	0.664379	0.664379	0	1	0	0	CorrectCommission	0.342620	0.435707	1	0
458.440155	0.792262	city	3	1	0.596257	0.596257	0	1	0	0	CorrectCommission	0.866811	0.438636	1	0
459.232422	0.792267	city	8	1	0.596842	0.596842	0	1	0	0	CorrectCommission	0.862308	0.440506	1	0
460.024689	0.792266	city	10	1	0.645755	0.645755	0	1	0	0	CorrectCommission	0.485925	0.440592	1	0
460.816956	0.792280	city	9	1	0.744894	0.744894	0	1	0	0	CorrectCommission	0.276945	0.438458	1	0
461.609222	0.792248	city	10	1	0.763659	0.763659	0	1	0	0	CorrectCommission	0.421336	0.433958	1	0
462.401611	0.792479	city	3	1	0.713341	0.713341	0	1	0	0	CorrectCommission	0.034142	0.427243	1	0
463.193878	0.792078	city	10	1	0.794255	0.794255	0	1	0	0	CorrectCommission	0.656776	0.418760	1	0
463.986053	0.792274	city	7	1	0.795346	0.795346	0	1	0	0	CorrectCommission	0.665165	0.409188	1	0
464.778290	0.792227	mountain	2	0	0.000000	0.786691	1	0	0	0	CorrectOmission	0.598565	0.399427	1	0
465.570557	0.792262	city	3	1	0.744774	0.744774	0	1	0	0	CorrectCommission	0.276023	0.390529	1	0
466.362823	0.792283	city	2	1	0.646082	0.646082	0	1	0	0	CorrectCommission	0.483415	0.383602	1	0
467.155121	0.792293	city	5	1	0.695244	0.695244	0	1	0	0	CorrectCommission	0.105112	0.379629	1	0
467.947357	0.792218	city	7	1	0.645721	0.645721	0	1	0	0	CorrectCommission	0.486187	0.379362	1	0
468.739655	0.792373	city	3	1	0.695405	0.695405	0	1	0	0	CorrectCommission	0.103873	0.383159	1	0
469.532043	0.792375	city	1	1	0.710991	0.710991	0	1	0	0	CorrectCommission	0.016058	0.390954	1	0
470.324249	0.792049	city	9	1	0.695288	0.695288	0	1	0	0	CorrectCommission	0.104772	0.402229	1	0
471.116516	0.792480	city	1	1	0.744819	0.744819	0	1	0	0	CorrectCommission	0.276368	0.416091	1	0
471.908783	0.792051	city	4	1	0.794233	0.794233	0	1	0	0	CorrectCommission	0.656606	0.431501	1	0
472.700989	0.792369	city	2	1	0.711439	0.711439	0	1	0	0	CorrectCommission	0.019505	0.447537	1	0
473.493256	0.792160	mountain	8	0	0.000000	0.838143	1	0	0	0	CorrectOmission	0.994493	0.463701	1	0
474.285461	0.792260	city	7	1	0.893401	0.893401	0	1	0	0	CorrectCommission	1.419701	0.480147	1	0
475.077728	0.792268	city	3	1	0.596267	0.596267	0	1	0	0	CorrectCommission	0.866738	0.497919	1	0
475.870026	0.792320	city	2	1	0.746579	0.746579	0	1	0	0	CorrectCommission	0.289911	0.519013	1	0
476.662292	0.792210	city	3	1	0.745057	0.745057	0	1	0	0	CorrectCommission	0.278198	0.546302	1	0
477.454529	0.792262	city	9	1	0.695256	0.695256	0	1	0	0	CorrectCommission	0.105021	0.583339	0	0
478.246826	0.792374	city	1	1	0.695297	0.695297	0	1	0	0	CorrectCommission	0.104702	0.634131	0	0
479.039215	0.792372	city	7	1	0.695226	0.695226	0	1	0	0	CorrectCommission	0.105248	0.702784	0	0
479.831421	0.792051	city	3	1	0.645578	0.645578	0	1	0	0	CorrectCommission	0.487290	0.793206	0	0
480.623596	0.792285	city	4	1	0.645756	0.645756	0	1	0	0	CorrectCommission	0.485923	0.908760	0	0
481.415863	0.792292	city	3	1	0.499922	0.499922	0	1	0	0	CorrectCommission	1.608105	1.051990	0	0
482.208130	0.792216	city	8	1	0.612573	0.612573	0	1	0	0	CorrectCommission	0.741266	1.224320	0	0
483.000427	0.792370	city	6	1	0.659150	0.659150	0	1	0	0	CorrectCommission	0.382851	1.425878	0	0
483.792755	0.792265	city	7	1	0.654275	0.654275	0	1	0	0	CorrectCommission	0.420366	1.655265	0	0
484.585052	0.792374	city	4	1	0.513763	0.513763	0	1	0	0	CorrectCommission	1.501598	1.909480	0	0
485.377258	0.792051	city	1	1	0.461884	0.461884	0	1	0	0	CorrectCommission	1.900806	2.183953	0	0
486.169464	0.792324	city	5	1	0.469111	0.469111	0	1	0	0	CorrectCommission	1.845197	2.472790	0	0
486.961823	0.792419	city	10	1	0.349047	0.349047	0	1	0	0	CorrectCommission	2.769084	2.769084	0	0
