onset	duration	trial_type	image_type	Press	ReactionTime	ReactionTime_Interpolated	CorrectOmission	CorrectCommission	CommissionError	OmissionError	response_type	nonsmoothVarianceTimeCourse	VarianceTimeCourse	In_the_Zone	Reward_trial
8.433875	0.792048	city	10	1	0.744647	0.744647	0	1	0	0	CorrectCommission	0.492148	0.492148	1	0
9.226032	0.792267	city	7	1	0.843816	0.843816	0	1	0	0	CorrectCommission	2.100538	0.518034	1	0
10.018406	0.792479	city	8	1	0.757802	0.757802	0	1	0	0	CorrectCommission	0.705507	0.543177	1	0
10.810669	0.792047	city	4	1	0.806967	0.806967	0	1	0	0	CorrectCommission	1.502891	0.567046	1	0
11.602824	0.792264	city	6	1	0.744814	0.744814	0	1	0	0	CorrectCommission	0.494849	0.589310	1	0
12.395104	0.792295	mountain	1	0	0.000000	0.705886	1	0	0	0	CorrectOmission	0.136495	0.609966	1	0
13.187368	0.792234	city	10	1	0.701974	0.701974	0	1	0	0	CorrectCommission	0.199943	0.629263	1	0
13.979620	0.792269	city	4	1	0.744866	0.744866	0	1	0	0	CorrectCommission	0.495706	0.647659	1	0
14.771887	0.792267	city	2	1	0.701771	0.701771	0	1	0	0	CorrectCommission	0.203236	0.665734	1	0
15.564152	0.792262	city	8	1	0.696325	0.696325	0	1	0	0	CorrectCommission	0.291577	0.684189	1	0
16.356415	0.792264	city	9	1	0.603461	0.603461	0	1	0	0	CorrectCommission	1.797703	0.703798	1	0
17.148680	0.792267	city	10	1	0.650546	0.650546	0	1	0	0	CorrectCommission	1.034039	0.725348	1	0
17.941053	0.792479	city	6	1	0.660313	0.660313	0	1	0	0	CorrectCommission	0.875632	0.749700	1	0
18.733326	0.792066	city	9	1	0.652837	0.652837	0	1	0	0	CorrectCommission	0.996893	0.777565	0	0
19.525482	0.792247	city	10	1	0.695385	0.695385	0	1	0	0	CorrectCommission	0.306816	0.809381	0	0
20.317753	0.792297	city	3	1	0.744954	0.744954	0	1	0	0	CorrectCommission	0.497121	0.845125	0	0
21.110044	0.792287	mountain	6	0	0.000000	0.739994	1	0	0	0	CorrectOmission	0.416679	0.884107	0	0
21.902294	0.792213	mountain	2	0	0.000000	0.725097	1	0	0	0	CorrectOmission	0.175070	0.924909	0	0
22.694588	0.792372	city	1	1	0.744854	0.744854	0	1	0	0	CorrectCommission	0.495511	0.965424	0	0
23.486959	0.792374	city	7	1	0.843858	0.843858	0	1	0	0	CorrectCommission	2.101217	1.003026	0	0
24.279278	0.792263	city	9	1	0.649815	0.649815	0	1	0	0	CorrectCommission	1.045897	1.034847	0	0
25.071449	0.792079	city	8	1	0.609435	0.609435	0	1	0	0	CorrectCommission	1.700810	1.058270	0	0
25.863714	0.792452	city	6	1	0.645753	0.645753	0	1	0	0	CorrectCommission	1.111781	1.071181	0	0
26.656073	0.792264	city	3	1	0.601449	0.601449	0	1	0	0	CorrectCommission	1.830336	1.072329	0	0
27.448338	0.792267	mountain	7	1	0.596072	0.596072	0	0	1	0	CommissionError	1.917538	1.061492	0	0
28.240547	0.792154	city	7	1	0.648897	0.648897	0	1	0	0	CorrectCommission	1.060780	1.039480	0	0
29.032757	0.792265	city	10	1	0.648654	0.648654	0	1	0	0	CorrectCommission	1.064731	1.008035	0	0
29.824995	0.792213	city	4	1	0.744807	0.744807	0	1	0	0	CorrectCommission	0.494750	0.969542	0	0
30.617260	0.792317	city	2	1	0.695432	0.695432	0	1	0	0	CorrectCommission	0.306059	0.926749	0	0
31.409508	0.792177	city	10	1	0.646401	0.646401	0	1	0	0	CorrectCommission	1.101273	0.882480	0	0
32.201717	0.792245	city	6	1	0.695507	0.695507	0	1	0	0	CorrectCommission	0.304832	0.839394	0	0
32.993977	0.792277	city	9	1	0.794387	0.794387	0	1	0	0	CorrectCommission	1.298856	0.799883	0	0
33.786350	0.792470	city	3	1	0.662739	0.662739	0	1	0	0	CorrectCommission	0.836293	0.765871	0	0
34.578609	0.792048	city	8	1	0.645544	0.645544	0	1	0	0	CorrectCommission	1.115169	0.738873	1	0
35.370766	0.792262	city	10	1	0.695300	0.695300	0	1	0	0	CorrectCommission	0.308195	0.719884	1	0
36.163052	0.792306	mountain	6	0	0.000000	0.727602	1	0	0	0	CorrectOmission	0.215699	0.709385	1	0
36.955425	0.792441	city	10	1	0.744891	0.744891	0	1	0	0	CorrectCommission	0.496098	0.707250	1	0
37.747669	0.792047	city	1	1	0.749607	0.749607	0	1	0	0	CorrectCommission	0.572589	0.712715	1	0
38.539845	0.792305	city	4	1	0.701688	0.701688	0	1	0	0	CorrectCommission	0.204594	0.724408	1	0
39.332111	0.792230	city	3	1	0.744878	0.744878	0	1	0	0	CorrectCommission	0.495887	0.740426	1	0
40.124359	0.792262	city	8	1	0.660411	0.660411	0	1	0	0	CorrectCommission	0.874042	0.758469	0	0
40.916622	0.792264	city	4	1	0.650747	0.650747	0	1	0	0	CorrectCommission	1.030786	0.776040	0	0
41.708912	0.792318	city	6	1	0.645820	0.645820	0	1	0	0	CorrectCommission	1.110692	0.790748	0	0
42.501179	0.792210	mountain	5	0	0.000000	0.644362	1	0	0	0	CorrectOmission	1.134345	0.800537	0	0
43.293415	0.792262	mountain	2	0	0.000000	0.644862	1	0	0	0	CorrectOmission	1.126223	0.803902	0	0
44.085732	0.792375	city	3	1	0.645813	0.645813	0	1	0	0	CorrectCommission	1.110801	0.799994	0	0
44.877998	0.792159	city	6	1	0.645705	0.645705	0	1	0	0	CorrectCommission	1.112557	0.788682	0	0
45.670212	0.792267	city	9	1	0.695277	0.695277	0	1	0	0	CorrectCommission	0.308572	0.770510	0	0
46.462475	0.792262	city	3	1	0.755010	0.755010	0	1	0	0	CorrectCommission	0.660214	0.746595	1	0
47.254848	0.792479	city	7	1	0.760517	0.760517	0	1	0	0	CorrectCommission	0.749532	0.718460	1	0
48.047112	0.792047	city	8	1	0.647993	0.647993	0	1	0	0	CorrectCommission	1.075451	0.687929	1	0
48.839268	0.792266	city	4	1	0.698426	0.698426	0	1	0	0	CorrectCommission	0.257500	0.656932	1	0
49.631641	0.792483	city	8	1	0.761696	0.761696	0	1	0	0	CorrectCommission	0.768661	0.627461	1	0
50.423904	0.792048	mountain	3	0	0.000000	0.699463	1	0	0	0	CorrectOmission	0.240668	0.601396	1	0
51.216061	0.792263	city	5	1	0.648505	0.648505	0	1	0	0	CorrectCommission	1.067147	0.580445	1	0
52.008324	0.792265	city	3	1	0.745598	0.745598	0	1	0	0	CorrectCommission	0.507567	0.565977	1	0
52.800598	0.792283	city	5	1	0.706413	0.706413	0	1	0	0	CorrectCommission	0.127955	0.558979	1	0
53.592918	0.792355	mountain	6	0	0.000000	0.694734	1	0	0	0	CorrectOmission	0.317375	0.559896	1	0
54.385189	0.792192	city	3	1	0.695904	0.695904	0	1	0	0	CorrectCommission	0.298402	0.568565	1	0
55.177433	0.792291	city	9	1	0.695266	0.695266	0	1	0	0	CorrectCommission	0.308749	0.584149	1	0
55.969681	0.792206	city	5	1	0.698181	0.698181	0	1	0	0	CorrectCommission	0.261462	0.605211	1	0
56.761925	0.792281	city	4	1	0.698670	0.698670	0	1	0	0	CorrectCommission	0.253543	0.629857	1	0
57.554188	0.792244	city	3	1	0.647370	0.647370	0	1	0	0	CorrectCommission	1.085559	0.655927	1	0
58.346443	0.792268	city	7	1	0.645742	0.645742	0	1	0	0	CorrectCommission	1.111954	0.681288	1	0
59.138710	0.792263	city	10	1	0.662839	0.662839	0	1	0	0	CorrectCommission	0.834672	0.704124	1	0
59.931084	0.792483	city	6	1	0.794470	0.794470	0	1	0	0	CorrectCommission	1.300212	0.723143	1	0
60.723347	0.792045	city	2	1	0.660123	0.660123	0	1	0	0	CorrectCommission	0.878721	0.737751	1	0
61.515503	0.792269	city	4	1	0.752138	0.752138	0	1	0	0	CorrectCommission	0.613646	0.748098	1	0
62.307770	0.792261	city	3	1	0.744905	0.744905	0	1	0	0	CorrectCommission	0.496327	0.755003	1	0
63.100140	0.792482	city	7	1	0.794351	0.794351	0	1	0	0	CorrectCommission	1.298283	0.759791	0	0
63.892406	0.792050	city	6	1	0.744561	0.744561	0	1	0	0	CorrectCommission	0.490745	0.764015	0	0
64.684669	0.792479	city	10	1	0.695300	0.695300	0	1	0	0	CorrectCommission	0.308189	0.769235	0	0
65.477043	0.792265	city	4	1	0.794063	0.794063	0	1	0	0	CorrectCommission	1.293610	0.776694	0	0
66.269310	0.792265	city	1	1	0.744590	0.744590	0	1	0	0	CorrectCommission	0.491219	0.787105	0	0
67.061470	0.792061	mountain	10	1	0.707290	0.707290	0	0	1	0	CommissionError	0.113729	0.800524	0	0
67.853638	0.792281	city	2	1	0.744781	0.744781	0	1	0	0	CorrectCommission	0.494327	0.816313	0	1
68.645905	0.792239	city	5	1	0.750815	0.750815	0	1	0	0	CorrectCommission	0.592191	0.833128	0	1
69.438148	0.792263	city	3	1	0.856781	0.856781	0	1	0	0	CorrectCommission	2.310809	0.849140	0	1
70.230522	0.792481	city	4	1	0.762222	0.762222	0	1	0	0	CorrectCommission	0.777197	0.862216	0	1
71.022789	0.792052	city	9	1	0.695086	0.695086	0	1	0	0	CorrectCommission	0.311669	0.870264	0	1
71.814949	0.792261	city	7	1	0.658033	0.658033	0	1	0	0	CorrectCommission	0.912615	0.871457	0	1
72.607231	0.792313	city	6	1	0.745590	0.745590	0	1	0	0	CorrectCommission	0.507447	0.864480	0	1
73.399605	0.792432	mountain	8	0	0.000000	0.833951	1	0	0	0	CorrectOmission	1.940542	0.848761	0	1
74.191956	0.792264	city	3	1	0.843604	0.843604	0	1	0	0	CorrectCommission	2.097098	0.824527	0	1
74.984108	0.792049	city	8	1	0.695037	0.695037	0	1	0	0	CorrectCommission	0.312457	0.792838	0	1
75.776268	0.792269	city	10	1	0.645802	0.645802	0	1	0	0	CorrectCommission	1.110979	0.755483	1	1
76.568535	0.792264	city	1	1	0.695343	0.695343	0	1	0	0	CorrectCommission	0.307498	0.714670	1	1
77.360855	0.792367	city	5	1	0.695296	0.695296	0	1	0	0	CorrectCommission	0.308265	0.672806	1	1
78.153114	0.792157	city	9	1	0.744605	0.744605	0	1	0	0	CorrectCommission	0.491475	0.632157	1	1
78.945435	0.792483	city	6	1	0.695673	0.695673	0	1	0	0	CorrectCommission	0.302138	0.594598	1	1
79.737701	0.792045	city	1	1	0.695658	0.695658	0	1	0	0	CorrectCommission	0.302391	0.561453	1	1
80.529854	0.792267	city	5	1	0.744951	0.744951	0	1	0	0	CorrectCommission	0.497086	0.533375	1	1
81.322121	0.792269	city	2	1	0.744836	0.744836	0	1	0	0	CorrectCommission	0.495213	0.510462	1	1
82.114471	0.792423	city	10	1	0.697863	0.697863	0	1	0	0	CorrectCommission	0.266632	0.492337	1	1
82.906731	0.792101	city	3	1	0.794126	0.794126	0	1	0	0	CorrectCommission	1.294637	0.478336	1	1
83.699020	0.792483	city	9	1	0.709710	0.709710	0	1	0	0	CorrectCommission	0.074481	0.467666	1	1
84.491287	0.792049	city	5	1	0.702609	0.702609	0	1	0	0	CorrectCommission	0.189650	0.459669	1	1
85.283440	0.792262	city	4	1	0.756628	0.756628	0	1	0	0	CorrectCommission	0.686461	0.453852	1	1
86.075760	0.792375	city	8	1	0.711173	0.711173	0	1	0	0	CorrectCommission	0.050749	0.450016	1	1
86.868027	0.792159	city	4	1	0.660243	0.660243	0	1	0	0	CorrectCommission	0.876774	0.448253	1	1
87.660240	0.792269	city	6	1	0.669086	0.669086	0	1	0	0	CorrectCommission	0.733343	0.448880	1	1
88.452538	0.792321	city	7	1	0.707313	0.707313	0	1	0	0	CorrectCommission	0.113359	0.452405	1	1
89.244904	0.792421	city	8	1	0.707084	0.707084	0	1	0	0	CorrectCommission	0.117070	0.459356	1	1
90.037140	0.792046	city	9	1	0.744550	0.744550	0	1	0	0	CorrectCommission	0.490567	0.470167	1	1
90.829300	0.792267	city	4	1	0.744838	0.744838	0	1	0	0	CorrectCommission	0.495249	0.485029	1	1
91.621567	0.792265	city	3	1	0.744762	0.744762	0	1	0	0	CorrectCommission	0.494014	0.503803	1	1
92.413826	0.792264	city	5	1	0.695306	0.695306	0	1	0	0	CorrectCommission	0.308091	0.525979	1	1
93.206093	0.792262	city	7	1	0.699441	0.699441	0	1	0	0	CorrectCommission	0.241028	0.550657	1	1
93.998352	0.792266	city	1	1	0.744790	0.744790	0	1	0	0	CorrectCommission	0.494468	0.576629	1	1
94.790619	0.792268	city	8	1	0.760443	0.760443	0	1	0	0	CorrectCommission	0.748335	0.602512	1	1
95.582878	0.792239	city	6	1	0.707900	0.707900	0	1	0	0	CorrectCommission	0.103834	0.626891	1	1
96.375191	0.792396	city	3	1	0.608012	0.608012	0	1	0	0	CorrectCommission	1.723892	0.648533	1	1
97.167488	0.792194	city	5	1	0.645660	0.645660	0	1	0	0	CorrectCommission	1.113287	0.666482	1	1
97.959740	0.792317	city	2	1	0.652306	0.652306	0	1	0	0	CorrectCommission	1.005493	0.680215	1	1
98.751991	0.792173	mountain	7	0	0.000000	0.708712	1	0	0	0	CorrectOmission	0.090666	0.689636	1	1
99.544205	0.792266	city	3	1	0.746012	0.746012	0	1	0	0	CorrectCommission	0.514279	0.695098	1	1
100.336479	0.792273	city	4	1	0.695338	0.695338	0	1	0	0	CorrectCommission	0.307574	0.697221	1	1
101.128746	0.792260	city	2	1	0.794311	0.794311	0	1	0	0	CorrectCommission	1.297630	0.696876	1	1
101.921005	0.792262	city	4	1	0.809956	0.809956	0	1	0	0	CorrectCommission	1.551378	0.694959	1	1
102.713264	0.792263	city	6	1	0.702418	0.702418	0	1	0	0	CorrectCommission	0.192755	0.692330	1	1
103.505638	0.792483	city	1	1	0.695290	0.695290	0	1	0	0	CorrectCommission	0.308353	0.689730	1	1
104.297905	0.792050	city	4	1	0.709390	0.709390	0	1	0	0	CorrectCommission	0.079681	0.687644	1	1
105.090065	0.792261	city	2	1	0.744810	0.744810	0	1	0	0	CorrectCommission	0.494791	0.686339	1	1
105.882378	0.792376	city	10	1	0.794295	0.794295	0	1	0	0	CorrectCommission	1.297376	0.685885	1	1
106.674644	0.792153	city	8	1	0.801651	0.801651	0	1	0	0	CorrectCommission	1.416676	0.686205	1	1
107.466858	0.792270	city	1	1	0.695282	0.695282	0	1	0	0	CorrectCommission	0.308478	0.687171	1	1
108.259125	0.792266	city	4	1	0.744938	0.744938	0	1	0	0	CorrectCommission	0.496875	0.688703	1	1
109.051384	0.792260	city	2	1	0.697369	0.697369	0	1	0	0	CorrectCommission	0.274630	0.690782	1	1
109.843758	0.792483	city	3	1	0.645768	0.645768	0	1	0	0	CorrectCommission	1.111533	0.693526	1	1
110.636024	0.792048	city	7	1	0.749470	0.749470	0	1	0	0	CorrectCommission	0.570375	0.697140	1	1
111.428177	0.792263	city	1	1	0.748862	0.748862	0	1	0	0	CorrectCommission	0.560508	0.701917	1	1
112.220551	0.792481	city	3	1	0.794273	0.794273	0	1	0	0	CorrectCommission	1.297012	0.708131	1	1
113.012817	0.792050	city	4	1	0.744581	0.744581	0	1	0	0	CorrectCommission	0.491075	0.715961	1	1
113.805000	0.792323	city	7	1	0.695283	0.695283	0	1	0	0	CorrectCommission	0.308470	0.725410	1	1
114.597321	0.792314	city	1	1	0.647202	0.647202	0	1	0	0	CorrectCommission	1.088285	0.736198	1	1
115.389610	0.792263	city	4	1	0.695190	0.695190	0	1	0	0	CorrectCommission	0.309980	0.747702	1	1
116.181824	0.792160	city	1	1	0.657523	0.657523	0	1	0	0	CorrectCommission	0.920889	0.759031	0	1
116.974052	0.792296	city	4	1	0.715364	0.715364	0	1	0	0	CorrectCommission	0.017224	0.769009	0	1
117.766342	0.792283	city	8	1	0.645710	0.645710	0	1	0	0	CorrectCommission	1.112473	0.776450	0	1
118.558586	0.792213	city	3	1	0.645679	0.645679	0	1	0	0	CorrectCommission	1.112979	0.780235	0	1
119.350883	0.792373	city	8	1	0.649531	0.649531	0	1	0	0	CorrectCommission	1.050497	0.779624	0	1
120.143250	0.792372	city	2	1	0.645652	0.645652	0	1	0	0	CorrectCommission	1.113414	0.774436	0	1
120.935570	0.792266	mountain	3	0	0.000000	0.633242	1	0	0	0	CorrectOmission	1.314691	0.765103	0	1
121.727730	0.792051	city	5	1	0.653007	0.653007	0	1	0	0	CorrectCommission	0.994134	0.752681	1	1
122.519997	0.792478	city	4	1	0.745652	0.745652	0	1	0	0	CorrectCommission	0.508450	0.738707	1	1
123.312256	0.792046	city	7	1	0.695027	0.695027	0	1	0	0	CorrectCommission	0.312620	0.724937	1	1
124.104416	0.792266	city	3	1	0.696958	0.696958	0	1	0	0	CorrectCommission	0.281305	0.713065	1	1
124.896790	0.792483	city	5	1	0.664284	0.664284	0	1	0	0	CorrectCommission	0.811229	0.704452	1	1
125.689049	0.792044	mountain	6	0	0.000000	0.678886	1	0	0	0	CorrectOmission	0.574399	0.699880	1	1
126.481239	0.792328	city	9	1	0.702089	0.702089	0	1	0	0	CorrectCommission	0.198088	0.699461	1	1
127.273506	0.792205	city	8	1	0.695215	0.695215	0	1	0	0	CorrectCommission	0.309573	0.702625	1	0
128.065735	0.792262	city	7	1	0.752283	0.752283	0	1	0	0	CorrectCommission	0.615985	0.708270	1	0
128.858047	0.792372	city	4	1	0.794333	0.794333	0	1	0	0	CorrectCommission	1.297986	0.714998	1	0
129.650360	0.792225	city	9	1	0.646464	0.646464	0	1	0	0	CorrectCommission	1.100248	0.721348	1	0
130.442566	0.792198	city	3	1	0.646270	0.646270	0	1	0	0	CorrectCommission	1.103396	0.726087	1	0
131.234802	0.792264	city	8	1	0.652589	0.652589	0	1	0	0	CorrectCommission	1.000914	0.728379	1	0
132.027115	0.792373	city	1	1	0.709893	0.709893	0	1	0	0	CorrectCommission	0.071522	0.727899	1	0
132.819489	0.792375	city	8	1	0.794230	0.794230	0	1	0	0	CorrectCommission	1.296321	0.724865	1	0
133.611755	0.792156	city	5	1	0.695103	0.695103	0	1	0	0	CorrectCommission	0.311385	0.719918	1	0
134.403961	0.792264	city	7	1	0.744683	0.744683	0	1	0	0	CorrectCommission	0.492739	0.714095	1	0
135.196167	0.792155	city	3	1	0.657328	0.657328	0	1	0	0	CorrectCommission	0.924045	0.708593	1	0
135.988388	0.792265	city	1	1	0.695273	0.695273	0	1	0	0	CorrectCommission	0.308625	0.704661	1	0
136.780655	0.792274	city	9	1	0.648009	0.648009	0	1	0	0	CorrectCommission	1.075192	0.703483	1	0
137.572922	0.792259	city	10	1	0.645665	0.645665	0	1	0	0	CorrectCommission	1.113205	0.706001	1	0
138.365189	0.792266	city	8	1	0.695785	0.695785	0	1	0	0	CorrectCommission	0.300329	0.712872	1	0
139.157440	0.792261	city	6	1	0.744839	0.744839	0	1	0	0	CorrectCommission	0.495267	0.724317	1	0
139.949707	0.792267	city	5	1	0.695343	0.695343	0	1	0	0	CorrectCommission	0.307497	0.740078	1	0
140.741974	0.792263	city	10	1	0.650975	0.650975	0	1	0	0	CorrectCommission	1.027079	0.759391	0	0
141.534271	0.792321	city	8	1	0.695475	0.695475	0	1	0	0	CorrectCommission	0.305360	0.781015	0	0
142.326538	0.792222	city	5	1	0.695257	0.695257	0	1	0	0	CorrectCommission	0.308885	0.803396	0	0
143.118774	0.792250	city	6	1	0.761020	0.761020	0	1	0	0	CorrectCommission	0.757691	0.824792	0	0
143.911026	0.792264	city	9	1	0.609037	0.609037	0	1	0	0	CorrectCommission	1.707270	0.843496	0	0
144.703323	0.792319	city	4	1	0.596241	0.596241	0	1	0	0	CorrectCommission	1.914790	0.858035	0	0
145.495590	0.792217	mountain	6	0	0.000000	0.651220	1	0	0	0	CorrectOmission	1.023110	0.867348	0	0
146.287827	0.792259	city	7	1	0.695269	0.695269	0	1	0	0	CorrectCommission	0.308695	0.870853	0	0
147.080200	0.792482	city	1	1	0.649685	0.649685	0	1	0	0	CorrectCommission	1.048011	0.868428	0	0
147.872467	0.792047	city	4	1	0.695202	0.695202	0	1	0	0	CorrectCommission	0.309788	0.860317	0	0
148.664734	0.792483	city	7	1	0.794287	0.794287	0	1	0	0	CorrectCommission	1.297241	0.847071	0	0
149.457001	0.792056	city	8	1	0.648437	0.648437	0	1	0	0	CorrectCommission	1.068244	0.829374	0	0
150.249268	0.792475	city	2	1	0.662862	0.662862	0	1	0	0	CorrectCommission	0.834300	0.807983	0	0
151.041519	0.792049	city	1	1	0.747954	0.747954	0	1	0	0	CorrectCommission	0.545776	0.783709	0	0
151.833679	0.792271	city	2	1	0.744680	0.744680	0	1	0	0	CorrectCommission	0.492679	0.757372	0	0
152.625946	0.792259	city	5	1	0.744804	0.744804	0	1	0	0	CorrectCommission	0.494702	0.729839	1	0
153.418320	0.792479	city	9	1	0.843970	0.843970	0	1	0	0	CorrectCommission	2.103024	0.702100	1	0
154.210587	0.792046	city	10	1	0.709817	0.709817	0	1	0	0	CorrectCommission	0.072745	0.675265	1	0
155.002731	0.792265	city	2	1	0.662864	0.662864	0	1	0	0	CorrectCommission	0.834264	0.650669	1	0
155.795059	0.792375	city	3	1	0.695256	0.695256	0	1	0	0	CorrectCommission	0.308910	0.629742	1	0
156.587326	0.792156	city	1	1	0.695179	0.695179	0	1	0	0	CorrectCommission	0.310160	0.613938	1	0
157.379532	0.792267	city	10	1	0.660433	0.660433	0	1	0	0	CorrectCommission	0.873683	0.604581	1	0
158.171906	0.792480	city	4	1	0.700210	0.700210	0	1	0	0	CorrectCommission	0.228563	0.602689	1	0
158.964172	0.792046	mountain	5	0	0.000000	0.717821	1	0	0	0	CorrectOmission	0.057067	0.608822	1	0
159.756439	0.792484	city	7	1	0.703054	0.703054	0	1	0	0	CorrectCommission	0.182427	0.622946	1	0
160.548813	0.792263	city	8	1	0.645697	0.645697	0	1	0	0	CorrectCommission	1.112680	0.644318	1	0
161.341019	0.792157	city	5	1	0.650306	0.650306	0	1	0	0	CorrectCommission	1.037936	0.671495	1	0
162.133194	0.792186	city	10	1	0.695313	0.695313	0	1	0	0	CorrectCommission	0.307975	0.702410	1	0
162.925400	0.792235	mountain	4	0	0.000000	0.735787	1	0	0	0	CorrectOmission	0.348452	0.734557	1	0
163.717651	0.792264	city	1	1	0.744773	0.744773	0	1	0	0	CorrectCommission	0.494192	0.765192	0	0
164.510025	0.792482	city	5	1	0.695317	0.695317	0	1	0	0	CorrectCommission	0.307910	0.791620	0	0
165.302399	0.792264	city	9	1	0.645549	0.645549	0	1	0	0	CorrectCommission	1.115093	0.811544	0	0
166.094574	0.792094	city	10	1	0.561281	0.561281	0	1	0	0	CorrectCommission	2.481808	0.823325	0	0
166.886734	0.792220	city	2	1	0.602821	0.602821	0	1	0	0	CorrectCommission	1.808077	0.826211	0	0
167.678986	0.792294	city	1	1	0.645768	0.645768	0	1	0	0	CorrectCommission	1.111543	0.820473	0	0
168.471298	0.792318	city	9	1	0.695278	0.695278	0	1	0	0	CorrectCommission	0.308554	0.807285	0	0
169.263580	0.792245	city	5	1	0.695201	0.695201	0	1	0	0	CorrectCommission	0.309799	0.788511	0	0
170.055801	0.792200	mountain	9	1	0.697919	0.697919	0	0	1	0	CommissionError	0.265724	0.766418	0	0
170.848083	0.792374	city	1	1	0.645932	0.645932	0	1	0	0	CorrectCommission	1.108871	0.743298	1	0
171.640350	0.792154	city	9	1	0.695336	0.695336	0	1	0	0	CorrectCommission	0.307604	0.721233	1	0
172.432663	0.792484	city	1	1	0.695325	0.695325	0	1	0	0	CorrectCommission	0.307784	0.701870	1	0
173.224945	0.792063	city	9	1	0.795963	0.795963	0	1	0	0	CorrectCommission	1.324429	0.686298	1	0
174.017105	0.792252	city	7	1	0.695244	0.695244	0	1	0	0	CorrectCommission	0.309107	0.675026	1	0
174.809418	0.792372	city	9	1	0.645891	0.645891	0	1	0	0	CorrectCommission	1.109538	0.668091	1	0
175.601669	0.792155	mountain	10	0	0.000000	0.708330	1	0	0	0	CorrectOmission	0.096870	0.665086	1	0
176.393890	0.792269	city	3	1	0.764235	0.764235	0	1	0	0	CorrectCommission	0.809831	0.665364	1	0
177.186264	0.792478	city	2	1	0.695281	0.695281	0	1	0	0	CorrectCommission	0.308500	0.668062	1	0
177.978546	0.792104	city	6	1	0.753811	0.753811	0	1	0	0	CorrectCommission	0.640779	0.672272	1	0
178.770813	0.792425	city	3	1	0.652930	0.652930	0	1	0	0	CorrectCommission	0.995382	0.677096	1	0
179.563049	0.792051	city	5	1	0.646441	0.646441	0	1	0	0	CorrectCommission	1.100616	0.681766	1	0
180.355209	0.792263	city	2	1	0.695438	0.695438	0	1	0	0	CorrectCommission	0.305951	0.685699	1	0
181.147507	0.792332	mountain	7	0	0.000000	0.749841	1	0	0	0	CorrectOmission	0.576385	0.688552	1	0
181.939774	0.792196	city	4	1	0.752403	0.752403	0	1	0	0	CorrectCommission	0.617934	0.690235	1	0
182.732010	0.792265	city	5	1	0.645878	0.645878	0	1	0	0	CorrectCommission	1.109759	0.690928	1	0
183.524261	0.792267	city	1	1	0.658737	0.658737	0	1	0	0	CorrectCommission	0.901192	0.691053	1	0
184.316574	0.792330	city	7	1	0.699120	0.699120	0	1	0	0	CorrectCommission	0.246245	0.691226	1	0
185.108826	0.792197	city	2	1	0.647862	0.647862	0	1	0	0	CorrectCommission	1.077579	0.692207	1	0
185.901108	0.792371	city	7	1	0.744845	0.744845	0	1	0	0	CorrectCommission	0.495366	0.694711	1	0
186.693375	0.792156	mountain	1	0	0.000000	0.761968	1	0	0	0	CorrectOmission	0.773065	0.699355	1	1
187.485596	0.792274	city	3	1	0.744824	0.744824	0	1	0	0	CorrectCommission	0.495013	0.706501	1	1
188.277878	0.792307	mountain	2	0	0.000000	0.739009	1	0	0	0	CorrectOmission	0.400703	0.716156	1	1
189.070145	0.792215	city	1	1	0.744741	0.744741	0	1	0	0	CorrectCommission	0.493673	0.727971	1	1
189.862381	0.792263	mountain	10	0	0.000000	0.762238	1	0	0	0	CorrectOmission	0.777456	0.741234	1	1
190.654709	0.792375	city	9	1	0.744783	0.744783	0	1	0	0	CorrectCommission	0.494346	0.754956	1	1
191.446976	0.792179	city	8	1	0.645655	0.645655	0	1	0	0	CorrectCommission	1.113367	0.768072	0	1
192.239243	0.792348	city	1	1	0.649827	0.649827	0	1	0	0	CorrectCommission	1.045703	0.779537	0	1
193.031601	0.792375	city	10	1	0.645667	0.645667	0	1	0	0	CorrectCommission	1.113179	0.788533	0	1
193.823822	0.792049	city	1	1	0.663079	0.663079	0	1	0	0	CorrectCommission	0.830779	0.794533	0	1
194.615967	0.792264	city	6	1	0.649599	0.649599	0	1	0	0	CorrectCommission	1.049402	0.797358	0	1
195.408234	0.792263	city	5	1	0.651962	0.651962	0	1	0	0	CorrectCommission	1.011077	0.797081	0	1
196.200516	0.792297	city	7	1	0.697019	0.697019	0	1	0	0	CorrectCommission	0.280310	0.793968	0	1
196.992844	0.792342	city	6	1	0.744805	0.744805	0	1	0	0	CorrectCommission	0.494716	0.788371	0	1
197.785141	0.792263	city	7	1	0.744687	0.744687	0	1	0	0	CorrectCommission	0.492796	0.780599	0	1
198.577362	0.792173	city	5	1	0.614325	0.614325	0	1	0	0	CorrectCommission	1.621505	0.770876	0	1
199.369675	0.792469	city	2	1	0.695686	0.695686	0	1	0	0	CorrectCommission	0.301930	0.759305	0	1
200.161942	0.792043	city	4	1	0.799543	0.799543	0	1	0	0	CorrectCommission	1.382490	0.745985	1	1
200.954086	0.792268	city	9	1	0.709480	0.709480	0	1	0	0	CorrectCommission	0.078207	0.731021	1	1
201.746353	0.792262	city	5	1	0.751188	0.751188	0	1	0	0	CorrectCommission	0.598238	0.714739	1	1
202.538620	0.792266	city	7	1	0.794375	0.794375	0	1	0	0	CorrectCommission	1.298667	0.697626	1	1
203.330887	0.792265	city	1	1	0.757220	0.757220	0	1	0	0	CorrectCommission	0.696066	0.680437	1	1
204.123154	0.792263	city	7	1	0.794296	0.794296	0	1	0	0	CorrectCommission	1.297385	0.664156	1	1
204.915405	0.792267	city	5	1	0.744818	0.744818	0	1	0	0	CorrectCommission	0.494917	0.649843	1	1
205.707687	0.792268	mountain	1	0	0.000000	0.711828	1	0	0	0	CorrectOmission	0.040137	0.638519	1	1
206.499939	0.792265	city	9	1	0.695343	0.695343	0	1	0	0	CorrectCommission	0.307495	0.630951	1	1
207.292206	0.792265	city	10	1	0.695381	0.695381	0	1	0	0	CorrectCommission	0.306878	0.627484	1	1
208.084473	0.792266	city	3	1	0.708679	0.708679	0	1	0	0	CorrectCommission	0.091197	0.627970	1	1
208.876740	0.792259	mountain	10	0	0.000000	0.769418	1	0	0	0	CorrectOmission	0.893896	0.631754	1	1
209.669113	0.792482	city	6	1	0.794312	0.794312	0	1	0	0	CorrectCommission	1.297646	0.637766	1	1
210.461380	0.792047	city	9	1	0.700078	0.700078	0	1	0	0	CorrectCommission	0.230705	0.644704	1	1
211.253586	0.792374	city	3	1	0.744917	0.744917	0	1	0	0	CorrectCommission	0.496522	0.651284	1	1
212.045853	0.792157	city	10	1	0.647029	0.647029	0	1	0	0	CorrectCommission	1.091092	0.656373	1	1
212.838165	0.792481	city	8	1	0.651399	0.651399	0	1	0	0	CorrectCommission	1.020202	0.659181	1	1
213.630539	0.792264	city	9	1	0.651011	0.651011	0	1	0	0	CorrectCommission	1.026505	0.659370	1	1
214.422760	0.792158	city	7	1	0.744583	0.744583	0	1	0	0	CorrectCommission	0.491108	0.657015	1	1
215.214920	0.792171	city	10	1	0.704775	0.704775	0	1	0	0	CorrectCommission	0.154526	0.652541	1	1
216.007126	0.792253	city	5	1	0.746555	0.746555	0	1	0	0	CorrectCommission	0.523090	0.646576	1	1
216.799438	0.792367	city	4	1	0.794438	0.794438	0	1	0	0	CorrectCommission	1.299690	0.639838	1	1
217.591812	0.792373	city	5	1	0.744714	0.744714	0	1	0	0	CorrectCommission	0.493228	0.632936	1	1
218.384033	0.792088	city	7	1	0.695047	0.695047	0	1	0	0	CorrectCommission	0.312302	0.626390	1	1
219.176300	0.792444	city	9	1	0.695266	0.695266	0	1	0	0	CorrectCommission	0.308738	0.620509	1	1
219.968582	0.792108	city	8	1	0.744548	0.744548	0	1	0	0	CorrectCommission	0.490549	0.615402	1	1
220.760849	0.792423	city	2	1	0.745011	0.745011	0	1	0	0	CorrectCommission	0.498052	0.611120	1	1
221.553085	0.792048	mountain	8	0	0.000000	0.777190	1	0	0	0	CorrectOmission	1.019953	0.607712	1	1
222.345352	0.792479	city	7	1	0.794330	0.794330	0	1	0	0	CorrectCommission	1.297943	0.605308	1	1
223.137726	0.792265	city	4	1	0.749676	0.749676	0	1	0	0	CorrectCommission	0.573714	0.604225	1	1
223.929977	0.792265	city	6	1	0.695386	0.695386	0	1	0	0	CorrectCommission	0.306805	0.604941	1	1
224.722153	0.792080	city	4	1	0.751444	0.751444	0	1	0	0	CorrectCommission	0.602381	0.608009	1	1
225.514343	0.792288	city	5	1	0.695259	0.695259	0	1	0	0	CorrectCommission	0.308859	0.613952	1	1
226.306595	0.792208	city	10	1	0.695301	0.695301	0	1	0	0	CorrectCommission	0.308170	0.623184	1	1
227.098831	0.792268	city	9	1	0.710746	0.710746	0	1	0	0	CorrectCommission	0.057682	0.635906	1	1
227.891098	0.792282	city	8	1	0.668108	0.668108	0	1	0	0	CorrectCommission	0.749210	0.652102	1	1
228.683426	0.792354	city	9	1	0.645867	0.645867	0	1	0	0	CorrectCommission	1.109938	0.671511	1	1
229.475784	0.792374	city	4	1	0.794201	0.794201	0	1	0	0	CorrectCommission	1.295843	0.693709	1	1
230.268005	0.792071	city	6	1	0.701463	0.701463	0	1	0	0	CorrectCommission	0.208246	0.718198	1	1
231.060165	0.792241	city	4	1	0.757331	0.757331	0	1	0	0	CorrectCommission	0.697871	0.744503	1	1
231.852417	0.792264	city	6	1	0.762689	0.762689	0	1	0	0	CorrectCommission	0.784762	0.772143	0	1
232.644684	0.792269	city	4	1	0.700840	0.700840	0	1	0	0	CorrectCommission	0.218344	0.800707	0	1
233.437057	0.792479	city	7	1	0.794504	0.794504	0	1	0	0	CorrectCommission	1.300763	0.829819	0	1
234.229324	0.792047	city	4	1	0.799256	0.799256	0	1	0	0	CorrectCommission	1.377824	0.859051	0	1
235.021469	0.792266	city	5	1	0.695278	0.695278	0	1	0	0	CorrectCommission	0.308554	0.887966	0	1
235.813797	0.792371	city	2	1	0.645817	0.645817	0	1	0	0	CorrectCommission	1.110745	0.916069	0	1
236.606049	0.792155	city	8	1	0.645546	0.645546	0	1	0	0	CorrectCommission	1.115134	0.942751	0	1
237.398270	0.792266	mountain	3	0	0.000000	0.714956	1	0	0	0	CorrectOmission	0.010596	0.967420	0	1
238.190536	0.792267	city	6	1	0.794377	0.794377	0	1	0	0	CorrectCommission	1.298707	0.989664	0	1
238.982803	0.792263	mountain	10	0	0.000000	0.824143	1	0	0	0	CorrectOmission	1.781459	1.009276	0	1
239.775162	0.792482	city	8	1	0.794341	0.794341	0	1	0	0	CorrectCommission	1.298118	1.026451	0	1
240.567535	0.792264	city	1	1	0.695062	0.695062	0	1	0	0	CorrectCommission	0.312051	1.041968	0	1
241.359802	0.792265	city	8	1	0.645516	0.645516	0	1	0	0	CorrectCommission	1.115631	1.057253	0	1
242.152023	0.792158	city	6	1	0.608407	0.608407	0	1	0	0	CorrectCommission	1.717481	1.074263	0	1
242.944290	0.792372	city	10	1	0.608386	0.608386	0	1	0	0	CorrectCommission	1.717815	1.095363	0	1
243.736603	0.792264	city	5	1	0.650227	0.650227	0	1	0	0	CorrectCommission	1.039215	1.122977	0	1
244.528870	0.792265	city	6	1	0.744576	0.744576	0	1	0	0	CorrectCommission	0.490993	1.159187	0	1
245.321075	0.792163	city	5	1	0.702258	0.702258	0	1	0	0	CorrectCommission	0.195342	1.205187	0	1
246.113297	0.792259	city	10	1	0.651402	0.651402	0	1	0	0	CorrectCommission	1.020155	1.260896	0	0
246.905548	0.792263	city	5	1	0.696090	0.696090	0	1	0	0	CorrectCommission	0.295378	1.324633	0	0
247.697769	0.792164	city	1	1	0.645741	0.645741	0	1	0	0	CorrectCommission	1.111967	1.393131	0	0
248.489990	0.792296	city	5	1	0.798232	0.798232	0	1	0	0	CorrectCommission	1.361230	1.461639	0	0
249.282257	0.792227	city	9	1	0.853461	0.853461	0	1	0	0	CorrectCommission	2.256956	1.524434	0	0
250.074509	0.792263	city	7	1	0.893618	0.893618	0	1	0	0	CorrectCommission	2.908257	1.575467	0	0
250.866821	0.792373	city	8	0	0.000000	0.845998	0	0	0	1	OmissionError	2.135920	1.609072	0	0
251.659088	0.792158	city	7	1	0.750348	0.750348	0	1	0	0	CorrectCommission	0.584610	1.620816	0	0
252.451294	0.792263	city	2	1	0.646417	0.646417	0	1	0	0	CorrectCommission	1.101002	1.608115	0	0
253.243561	0.792279	city	6	1	0.996246	0.996246	0	1	0	0	CorrectCommission	4.572740	1.570607	0	0
254.035843	0.792275	mountain	1	0	0.000000	0.970069	1	0	0	0	CorrectOmission	4.148180	1.510277	0	0
254.828094	0.792241	city	7	1	0.794283	0.794283	0	1	0	0	CorrectCommission	1.297178	1.431380	0	0
255.620361	0.792267	city	1	1	0.695287	0.695287	0	1	0	0	CorrectCommission	0.308404	1.339851	0	0
256.412628	0.792265	mountain	1	0	0.000000	0.670670	1	0	0	0	CorrectOmission	0.707656	1.242472	0	0
257.204895	0.792264	city	3	1	0.695486	0.695486	0	1	0	0	CorrectCommission	0.305179	1.146001	0	0
257.997162	0.792267	city	2	1	0.744787	0.744787	0	1	0	0	CorrectCommission	0.494425	1.056376	0	0
258.789459	0.792323	city	4	1	0.712806	0.712806	0	1	0	0	CorrectCommission	0.024270	0.977979	0	0
259.581757	0.792309	city	3	1	0.658820	0.658820	0	1	0	0	CorrectCommission	0.899853	0.913312	0	0
260.374115	0.792381	city	7	1	0.713397	0.713397	0	1	0	0	CorrectCommission	0.014685	0.862878	0	0
261.166443	0.792259	city	9	1	0.646741	0.646741	0	1	0	0	CorrectCommission	1.095758	0.825537	0	0
261.958588	0.792045	city	6	1	0.650844	0.650844	0	1	0	0	CorrectCommission	1.029202	0.798904	0	0
262.750732	0.792270	city	9	1	0.645950	0.645950	0	1	0	0	CorrectCommission	1.108591	0.779990	0	0
263.543030	0.792324	city	2	1	0.744841	0.744841	0	1	0	0	CorrectCommission	0.495300	0.765797	0	0
264.335297	0.792201	city	1	1	0.652733	0.652733	0	1	0	0	CorrectCommission	0.998578	0.753811	1	0
265.127594	0.792374	city	8	1	0.609600	0.609600	0	1	0	0	CorrectCommission	1.698124	0.742303	1	0
265.919861	0.792158	city	3	1	0.695196	0.695196	0	1	0	0	CorrectCommission	0.309888	0.730477	1	0
266.712067	0.792263	city	1	1	0.794264	0.794264	0	1	0	0	CorrectCommission	1.296870	0.718442	1	0
267.504425	0.792482	city	2	1	0.711679	0.711679	0	1	0	0	CorrectCommission	0.042554	0.706898	1	0
268.296814	0.792265	city	9	1	0.710354	0.710354	0	1	0	0	CorrectCommission	0.064039	0.696938	1	0
269.089081	0.792265	city	5	1	0.663701	0.663701	0	1	0	0	CorrectCommission	0.820692	0.689630	1	0
269.881226	0.792047	city	6	1	0.747663	0.747663	0	1	0	0	CorrectCommission	0.541071	0.685752	1	0
270.673370	0.792265	city	8	1	0.744859	0.744859	0	1	0	0	CorrectCommission	0.495593	0.685562	1	0
271.465668	0.792283	city	1	1	0.759820	0.759820	0	1	0	0	CorrectCommission	0.738237	0.688742	1	0
272.258026	0.792464	city	7	1	0.757913	0.757913	0	1	0	0	CorrectCommission	0.707300	0.694425	1	0
273.050323	0.792096	mountain	9	0	0.000000	0.767345	1	0	0	0	CorrectOmission	0.860272	0.701298	1	0
273.842590	0.792434	city	4	1	0.744651	0.744651	0	1	0	0	CorrectCommission	0.492213	0.707735	1	0
274.634827	0.792090	city	3	1	0.646367	0.646367	0	1	0	0	CorrectCommission	1.101817	0.712028	1	0
275.427094	0.792438	city	7	1	0.695210	0.695210	0	1	0	0	CorrectCommission	0.309647	0.712544	1	0
276.219360	0.792050	mountain	2	0	0.000000	0.761290	1	0	0	0	CorrectOmission	0.762074	0.707986	1	0
277.011597	0.792482	city	3	1	0.794459	0.794459	0	1	0	0	CorrectCommission	1.300030	0.697469	1	0
277.803864	0.792049	city	4	1	0.744570	0.744570	0	1	0	0	CorrectCommission	0.490903	0.680682	1	0
278.596100	0.792371	city	8	1	0.596217	0.596217	0	1	0	0	CorrectCommission	1.915186	0.657906	1	0
279.388367	0.792181	mountain	10	1	0.695195	0.695195	0	0	1	0	CommissionError	0.309900	0.629940	1	0
280.180573	0.792239	city	6	1	0.744799	0.744799	0	1	0	0	CorrectCommission	0.494614	0.598085	1	0
280.972839	0.792263	city	1	1	0.700788	0.700788	0	1	0	0	CorrectCommission	0.219192	0.563910	1	0
281.765198	0.792484	city	5	1	0.695247	0.695247	0	1	0	0	CorrectCommission	0.309061	0.529127	1	0
282.557465	0.792047	city	1	1	0.695105	0.695105	0	1	0	0	CorrectCommission	0.311351	0.495394	1	0
283.349609	0.792263	city	2	1	0.650076	0.650076	0	1	0	0	CorrectCommission	1.041672	0.464221	1	0
284.141876	0.792266	city	7	1	0.713751	0.713751	0	1	0	0	CorrectCommission	0.008936	0.436836	1	0
284.934174	0.792323	city	2	1	0.695293	0.695293	0	1	0	0	CorrectCommission	0.308307	0.414232	1	0
285.726440	0.792207	city	9	1	0.699316	0.699316	0	1	0	0	CorrectCommission	0.243065	0.397080	1	0
286.518799	0.792481	city	3	1	0.747071	0.747071	0	1	0	0	CorrectCommission	0.531462	0.385816	1	0
287.311157	0.792265	city	8	1	0.715797	0.715797	0	1	0	0	CorrectCommission	0.024244	0.380631	1	0
288.103333	0.792049	mountain	7	0	0.000000	0.730976	1	0	0	0	CorrectOmission	0.270416	0.381561	1	0
288.895477	0.792264	city	9	1	0.751957	0.751957	0	1	0	0	CorrectCommission	0.610709	0.388488	1	0
289.687744	0.792267	mountain	7	0	0.000000	0.738093	1	0	0	0	CorrectOmission	0.385855	0.401178	1	0
290.480011	0.792261	city	4	1	0.711764	0.711764	0	1	0	0	CorrectCommission	0.041176	0.419324	1	0
291.272278	0.792267	city	5	1	0.695348	0.695348	0	1	0	0	CorrectCommission	0.307410	0.442560	1	0
292.064636	0.792485	city	1	1	0.744938	0.744938	0	1	0	0	CorrectCommission	0.496874	0.470505	1	0
292.857025	0.792259	city	9	1	0.751864	0.751864	0	1	0	0	CorrectCommission	0.609204	0.502759	1	0
293.649292	0.792265	city	5	1	0.695060	0.695060	0	1	0	0	CorrectCommission	0.312080	0.538966	1	0
294.441437	0.792048	city	6	1	0.747372	0.747372	0	1	0	0	CorrectCommission	0.536344	0.578785	1	0
295.233643	0.792372	city	2	1	0.749981	0.749981	0	1	0	0	CorrectCommission	0.578656	0.621922	1	0
296.025940	0.792205	city	4	1	0.744669	0.744669	0	1	0	0	CorrectCommission	0.492509	0.668045	1	0
296.818146	0.792215	mountain	8	0	0.000000	0.785238	1	0	0	0	CorrectOmission	1.150473	0.716756	1	0
297.610382	0.792287	city	6	1	0.794557	0.794557	0	1	0	0	CorrectCommission	1.301619	0.767446	0	0
298.402649	0.792245	city	2	1	0.695498	0.695498	0	1	0	0	CorrectCommission	0.304980	0.819169	0	0
299.194977	0.792373	city	4	1	0.748526	0.748526	0	1	0	0	CorrectCommission	0.555062	0.870548	0	0
299.987244	0.792155	city	10	1	0.745353	0.745353	0	1	0	0	CorrectCommission	0.503606	0.919690	0	0
300.779480	0.792348	city	5	1	0.702334	0.702334	0	1	0	0	CorrectCommission	0.194105	0.964252	0	0
301.571747	0.792187	city	7	1	0.843743	0.843743	0	1	0	0	CorrectCommission	2.099351	1.001615	0	0
302.363983	0.792260	city	9	1	0.653280	0.653280	0	1	0	0	CorrectCommission	0.989701	1.029102	0	0
303.156250	0.792266	city	8	1	0.797727	0.797727	0	1	0	0	CorrectCommission	1.353039	1.044436	0	0
303.948517	0.792268	city	5	1	0.843837	0.843837	0	1	0	0	CorrectCommission	2.100868	1.046010	0	0
304.740784	0.792297	city	6	1	0.812803	0.812803	0	1	0	0	CorrectCommission	1.597541	1.033216	0	0
305.533051	0.792231	city	8	1	0.794512	0.794512	0	1	0	0	CorrectCommission	1.300891	1.006656	0	1
306.325409	0.792480	city	1	1	0.695267	0.695267	0	1	0	0	CorrectCommission	0.308726	0.968137	0	1
307.117706	0.792102	city	10	1	0.859298	0.859298	0	1	0	0	CorrectCommission	2.351630	0.920502	0	1
307.909851	0.792213	city	8	1	0.695221	0.695221	0	1	0	0	CorrectCommission	0.309474	0.867281	0	1
308.702118	0.792342	city	1	1	0.649385	0.649385	0	1	0	0	CorrectCommission	1.052871	0.812363	0	1
309.494446	0.792293	city	7	1	0.712762	0.712762	0	1	0	0	CorrectCommission	0.024991	0.759428	0	1
310.286682	0.792155	mountain	3	0	0.000000	0.719572	1	0	0	0	CorrectOmission	0.085472	0.711632	1	1
311.078888	0.792266	city	7	1	0.705746	0.705746	0	1	0	0	CorrectCommission	0.138776	0.671238	1	1
311.871185	0.792320	city	9	1	0.707210	0.707210	0	1	0	0	CorrectCommission	0.115029	0.639485	1	1
312.663483	0.792316	city	7	1	0.794390	0.794390	0	1	0	0	CorrectCommission	1.298907	0.616600	1	1
313.455719	0.792162	city	8	1	0.744717	0.744717	0	1	0	0	CorrectCommission	0.493277	0.601936	1	1
314.247955	0.792268	city	1	1	0.697805	0.697805	0	1	0	0	CorrectCommission	0.267569	0.594248	1	1
315.040253	0.792367	city	7	1	0.746282	0.746282	0	1	0	0	CorrectCommission	0.518669	0.591964	1	1
315.832550	0.792188	city	6	1	0.797335	0.797335	0	1	0	0	CorrectCommission	1.346682	0.593505	1	1
316.624756	0.792232	city	7	1	0.745012	0.745012	0	1	0	0	CorrectCommission	0.498071	0.597442	1	1
317.417023	0.792302	city	10	1	0.744794	0.744794	0	1	0	0	CorrectCommission	0.494535	0.602727	1	1
318.209290	0.792227	city	3	1	0.751919	0.751919	0	1	0	0	CorrectCommission	0.610082	0.608718	1	1
319.001556	0.792320	city	6	1	0.750297	0.750297	0	1	0	0	CorrectCommission	0.583787	0.615153	1	1
319.793823	0.792211	city	10	1	0.695320	0.695320	0	1	0	0	CorrectCommission	0.307868	0.622157	1	1
320.586090	0.792326	city	5	1	0.696486	0.696486	0	1	0	0	CorrectCommission	0.288961	0.630156	1	1
321.378479	0.792420	city	4	1	0.794280	0.794280	0	1	0	0	CorrectCommission	1.297123	0.639770	1	1
322.170715	0.792065	city	10	1	0.695068	0.695068	0	1	0	0	CorrectCommission	0.311964	0.651716	1	1
322.962921	0.792357	city	4	1	0.794323	0.794323	0	1	0	0	CorrectCommission	1.297826	0.666739	1	1
323.755280	0.792372	city	2	1	0.744787	0.744787	0	1	0	0	CorrectCommission	0.494413	0.685423	1	1
324.547485	0.792051	city	9	1	0.695209	0.695209	0	1	0	0	CorrectCommission	0.309666	0.708040	1	1
325.339661	0.792265	city	8	1	0.661339	0.661339	0	1	0	0	CorrectCommission	0.859000	0.734420	1	1
326.131927	0.792294	city	3	1	0.695232	0.695232	0	1	0	0	CorrectCommission	0.309302	0.763780	0	1
326.924194	0.792234	city	10	1	0.695333	0.695333	0	1	0	0	CorrectCommission	0.307658	0.794748	0	1
327.716431	0.792266	city	1	1	0.747354	0.747354	0	1	0	0	CorrectCommission	0.536055	0.825373	0	1
328.508698	0.792259	city	9	1	0.803819	0.803819	0	1	0	0	CorrectCommission	1.451835	0.853293	0	1
329.300964	0.792269	city	6	1	0.744799	0.744799	0	1	0	0	CorrectCommission	0.494606	0.876007	0	1
330.093353	0.792485	city	8	1	0.645730	0.645730	0	1	0	0	CorrectCommission	1.112155	0.891249	0	1
330.885620	0.792042	city	3	1	0.561891	0.561891	0	1	0	0	CorrectCommission	2.471901	0.897272	0	1
331.677765	0.792266	city	7	1	0.657592	0.657592	0	1	0	0	CorrectCommission	0.919765	0.893119	0	1
332.470032	0.792264	city	2	1	0.645897	0.645897	0	1	0	0	CorrectCommission	1.109443	0.878859	0	1
333.262299	0.792264	city	10	1	0.645729	0.645729	0	1	0	0	CorrectCommission	1.112173	0.855447	0	1
334.054565	0.792265	city	3	1	0.653880	0.653880	0	1	0	0	CorrectCommission	0.979970	0.824680	0	1
334.846893	0.792373	city	10	1	0.744849	0.744849	0	1	0	0	CorrectCommission	0.495431	0.788927	0	1
335.639252	0.792373	city	6	1	0.746679	0.746679	0	1	0	0	CorrectCommission	0.525101	0.750774	1	1
336.431580	0.792266	city	9	1	0.695096	0.695096	0	1	0	0	CorrectCommission	0.311505	0.712748	1	1
337.223846	0.792264	city	4	1	0.695256	0.695256	0	1	0	0	CorrectCommission	0.308908	0.677099	1	1
338.015991	0.792050	city	6	1	0.744567	0.744567	0	1	0	0	CorrectCommission	0.490843	0.645674	1	1
338.808136	0.792263	city	1	1	0.652398	0.652398	0	1	0	0	CorrectCommission	1.003999	0.619832	1	1
339.600403	0.792267	city	6	1	0.663057	0.663057	0	1	0	0	CorrectCommission	0.831139	0.600545	1	1
340.392731	0.792344	city	2	1	0.695260	0.695260	0	1	0	0	CorrectCommission	0.308849	0.588437	1	1
341.184998	0.792184	city	6	1	0.699409	0.699409	0	1	0	0	CorrectCommission	0.241546	0.583896	1	1
341.977203	0.792266	city	9	1	0.744973	0.744973	0	1	0	0	CorrectCommission	0.497438	0.587065	1	1
342.769531	0.792371	city	1	1	0.656007	0.656007	0	1	0	0	CorrectCommission	0.945467	0.597818	1	1
343.561890	0.792372	city	10	1	0.744848	0.744848	0	1	0	0	CorrectCommission	0.495402	0.615692	1	1
344.354095	0.792047	city	3	1	0.709392	0.709392	0	1	0	0	CorrectCommission	0.079634	0.639823	1	1
345.146271	0.792264	city	10	1	0.758372	0.758372	0	1	0	0	CorrectCommission	0.714747	0.668818	1	1
345.938629	0.792482	city	9	1	0.695688	0.695688	0	1	0	0	CorrectCommission	0.301903	0.700776	1	1
346.731018	0.792266	city	10	1	0.695046	0.695046	0	1	0	0	CorrectCommission	0.312308	0.733364	1	1
347.523224	0.792154	mountain	9	1	0.645736	0.645736	0	0	1	0	CommissionError	1.112061	0.764015	0	1
348.315491	0.792375	city	1	1	0.702749	0.702749	0	1	0	0	CorrectCommission	0.187387	0.790223	0	1
349.107697	0.792054	city	7	1	0.794337	0.794337	0	1	0	0	CorrectCommission	1.298056	0.809990	0	1
349.899872	0.792261	city	3	1	0.900647	0.900647	0	1	0	0	CorrectCommission	3.022248	0.822027	0	1
350.692108	0.792261	city	1	1	0.763256	0.763256	0	1	0	0	CorrectCommission	0.793953	0.826082	0	1
351.484406	0.792327	city	4	1	0.749018	0.749018	0	1	0	0	CorrectCommission	0.563032	0.823093	0	1
352.276794	0.792421	city	1	1	0.751773	0.751773	0	1	0	0	CorrectCommission	0.607729	0.815024	0	1
353.069031	0.792047	city	3	1	0.799644	0.799644	0	1	0	0	CorrectCommission	1.384125	0.804592	0	1
353.861176	0.792281	city	1	1	0.695305	0.695305	0	1	0	0	CorrectCommission	0.308116	0.794902	0	1
354.653442	0.792250	city	3	1	0.744766	0.744766	0	1	0	0	CorrectCommission	0.494083	0.789020	0	1
355.445709	0.792264	city	5	1	0.707804	0.707804	0	1	0	0	CorrectCommission	0.105402	0.789519	0	1
356.238068	0.792480	city	4	1	0.744971	0.744971	0	1	0	0	CorrectCommission	0.497400	0.798177	0	1
357.030334	0.792050	city	7	1	0.744598	0.744598	0	1	0	0	CorrectCommission	0.491354	0.815788	0	1
357.822601	0.792480	city	5	1	0.761499	0.761499	0	1	0	0	CorrectCommission	0.765471	0.842164	0	1
358.614899	0.792125	city	1	1	0.745357	0.745357	0	1	0	0	CorrectCommission	0.503659	0.876238	0	1
359.407074	0.792186	city	3	1	0.794388	0.794388	0	1	0	0	CorrectCommission	1.298875	0.916306	0	1
360.199280	0.792264	city	1	1	0.744871	0.744871	0	1	0	0	CorrectCommission	0.495785	0.960237	0	1
360.991577	0.792298	city	10	1	0.893345	0.893345	0	1	0	0	CorrectCommission	2.903834	1.005751	0	1
361.783936	0.792450	city	9	1	0.752091	0.752091	0	1	0	0	CorrectCommission	0.612885	1.050541	0	1
362.576202	0.792048	city	10	1	0.705391	0.705391	0	1	0	0	CorrectCommission	0.144526	1.092499	0	1
363.368378	0.792284	mountain	1	0	0.000000	0.791331	1	0	0	0	CorrectOmission	1.249301	1.129676	0	1
364.160645	0.792248	city	6	1	0.843803	0.843803	0	1	0	0	CorrectCommission	2.100320	1.160307	0	1
364.952881	0.792260	city	9	1	0.696698	0.696698	0	1	0	0	CorrectCommission	0.285519	1.182917	0	0
365.745148	0.792265	city	5	1	0.645809	0.645809	0	1	0	0	CorrectCommission	1.110872	1.196490	0	0
366.537415	0.792269	city	2	1	0.645949	0.645949	0	1	0	0	CorrectCommission	1.108605	1.200487	0	0
367.329681	0.792265	city	4	1	0.861598	0.861598	0	1	0	0	CorrectCommission	2.388939	1.195056	0	0
368.121948	0.792260	city	9	1	0.605884	0.605884	0	1	0	0	CorrectCommission	1.758402	1.181165	0	0
368.914246	0.792373	city	6	1	0.596225	0.596225	0	1	0	0	CorrectCommission	1.915062	1.160664	0	0
369.706512	0.792161	city	10	1	0.645654	0.645654	0	1	0	0	CorrectCommission	1.113391	1.136075	0	0
370.498749	0.792268	city	8	1	0.652422	0.652422	0	1	0	0	CorrectCommission	1.003609	1.110312	0	0
371.291016	0.792257	mountain	2	0	0.000000	0.667686	1	0	0	0	CorrectOmission	0.756062	1.086277	0	0
372.083252	0.792265	mountain	1	0	0.000000	0.686101	1	0	0	0	CorrectOmission	0.457397	1.066403	0	0
372.875549	0.792326	city	6	1	0.702325	0.702325	0	1	0	0	CorrectCommission	0.194260	1.052293	0	0
373.667877	0.792313	city	4	1	0.711016	0.711016	0	1	0	0	CorrectCommission	0.053301	1.044410	0	0
374.460144	0.792187	mountain	7	1	0.645999	0.645999	0	0	1	0	CommissionError	1.107785	1.042080	0	0
375.252380	0.792307	city	4	1	0.806674	0.806674	0	1	0	0	CorrectCommission	1.498134	1.043646	0	0
376.044617	0.792191	city	8	1	0.762778	0.762778	0	1	0	0	CorrectCommission	0.786205	1.046869	0	0
376.836853	0.792282	city	10	1	0.603691	0.603691	0	1	0	0	CorrectCommission	1.793972	1.049411	0	0
377.629181	0.792357	mountain	3	1	0.597489	0.597489	0	0	1	0	CommissionError	1.894554	1.049268	0	0
378.421448	0.792175	city	2	1	0.603494	0.603494	0	1	0	0	CorrectCommission	1.797157	1.045107	0	0
379.213715	0.792353	city	8	1	0.744778	0.744778	0	1	0	0	CorrectCommission	0.494271	1.036511	0	0
380.006073	0.792373	city	6	1	0.645629	0.645629	0	1	0	0	CorrectCommission	1.113789	1.023923	0	0
380.798401	0.792265	city	2	1	0.645578	0.645578	0	1	0	0	CorrectCommission	1.114625	1.008402	0	0
381.590546	0.792049	mountain	5	0	0.000000	0.676899	1	0	0	0	CorrectOmission	0.606635	0.991386	0	0
382.382721	0.792263	city	6	1	0.704993	0.704993	0	1	0	0	CorrectCommission	0.150984	0.974365	0	0
383.174957	0.792264	city	2	1	0.695260	0.695260	0	1	0	0	CorrectCommission	0.308836	0.958608	0	0
383.967255	0.792304	city	8	1	0.602662	0.602662	0	1	0	0	CorrectCommission	1.810659	0.944968	0	0
384.759521	0.792225	city	3	1	0.599889	0.599889	0	1	0	0	CorrectCommission	1.855636	0.933794	0	0
385.551819	0.792374	city	6	1	0.744977	0.744977	0	1	0	0	CorrectCommission	0.497496	0.925051	0	0
386.344086	0.792158	city	1	1	0.708561	0.708561	0	1	0	0	CorrectCommission	0.093125	0.918403	0	0
387.136322	0.792318	mountain	9	1	0.695255	0.695255	0	0	1	0	CommissionError	0.308924	0.913357	0	0
387.928650	0.792319	city	9	1	0.851279	0.851279	0	1	0	0	CorrectCommission	2.221578	0.909433	0	0
388.720886	0.792154	city	6	1	0.655634	0.655634	0	1	0	0	CorrectCommission	0.951525	0.906189	0	0
389.513123	0.792332	city	8	1	0.645774	0.645774	0	1	0	0	CorrectCommission	1.111441	0.903434	0	0
390.305420	0.792261	city	2	1	0.656075	0.656075	0	1	0	0	CorrectCommission	0.944365	0.901107	0	0
391.097656	0.792201	mountain	8	0	0.000000	0.721910	1	0	0	0	CorrectOmission	0.123379	0.899294	0	0
391.889984	0.792484	city	2	1	0.749757	0.749757	0	1	0	0	CorrectCommission	0.575033	0.898156	0	0
392.682251	0.792046	city	3	1	0.646099	0.646099	0	1	0	0	CorrectCommission	1.106161	0.897818	0	0
393.474518	0.792482	city	1	1	0.652899	0.652899	0	1	0	0	CorrectCommission	0.995881	0.898421	0	0
394.266785	0.792047	city	2	1	0.614580	0.614580	0	1	0	0	CorrectCommission	1.617369	0.900057	0	0
395.058929	0.792267	mountain	3	0	0.000000	0.698021	1	0	0	0	CorrectOmission	0.264069	0.902781	0	0
395.851196	0.792270	city	2	1	0.744811	0.744811	0	1	0	0	CorrectCommission	0.494808	0.906745	0	0
396.643524	0.792368	city	10	1	0.596540	0.596540	0	1	0	0	CorrectCommission	1.909947	0.912172	0	0
397.435791	0.792157	city	2	1	0.709056	0.709056	0	1	0	0	CorrectCommission	0.085084	0.919354	0	0
398.227997	0.792266	city	9	1	0.645761	0.645761	0	1	0	0	CorrectCommission	1.111655	0.928730	0	0
399.020325	0.792375	city	6	1	0.645912	0.645912	0	1	0	0	CorrectCommission	1.109194	0.940727	0	0
399.812592	0.792153	city	2	1	0.645702	0.645702	0	1	0	0	CorrectCommission	1.112610	0.955734	0	0
400.604797	0.792288	city	1	1	0.650636	0.650636	0	1	0	0	CorrectCommission	1.032586	0.973970	0	0
401.397095	0.792281	city	8	1	0.707286	0.707286	0	1	0	0	CorrectCommission	0.113800	0.995305	0	0
402.189362	0.792227	city	3	1	0.744759	0.744759	0	1	0	0	CorrectCommission	0.493963	1.019201	0	0
402.981659	0.792370	city	7	1	0.859168	0.859168	0	1	0	0	CorrectCommission	2.349517	1.044660	0	0
403.773895	0.792156	city	4	1	0.695268	0.695268	0	1	0	0	CorrectCommission	0.308712	1.070167	0	0
404.566162	0.792374	city	6	1	0.649815	0.649815	0	1	0	0	CorrectCommission	1.045895	1.093959	0	0
405.358490	0.792263	city	5	1	0.658573	0.658573	0	1	0	0	CorrectCommission	0.903861	1.114054	0	0
406.150696	0.792156	city	4	1	0.794502	0.794502	0	1	0	0	CorrectCommission	1.300728	1.128587	0	0
406.942902	0.792275	city	2	1	0.608638	0.608638	0	1	0	0	CorrectCommission	1.713728	1.136110	0	0
407.735168	0.792255	city	9	1	0.652761	0.652761	0	1	0	0	CorrectCommission	0.998113	1.135819	0	0
408.527435	0.792264	city	5	1	0.562099	0.562099	0	1	0	0	CorrectCommission	2.468531	1.127807	0	0
409.319702	0.792265	city	9	1	0.608060	0.608060	0	1	0	0	CorrectCommission	1.723112	1.113048	0	0
410.112000	0.792297	city	10	1	0.712299	0.712299	0	1	0	0	CorrectCommission	0.032497	1.093390	0	0
410.904266	0.792235	city	6	1	0.794275	0.794275	0	1	0	0	CorrectCommission	1.297048	1.071325	0	0
411.696564	0.792371	city	9	1	0.794487	0.794487	0	1	0	0	CorrectCommission	1.300488	1.049533	0	0
412.488831	0.792158	mountain	8	0	0.000000	0.761306	1	0	0	0	CorrectOmission	0.762336	1.030612	0	0
413.281036	0.792261	city	1	1	0.718057	0.718057	0	1	0	0	CorrectCommission	0.060889	1.016643	0	0
414.073303	0.792267	mountain	2	0	0.000000	0.688064	1	0	0	0	CorrectOmission	0.425557	1.008869	0	0
414.865570	0.792264	city	6	1	0.655919	0.655919	0	1	0	0	CorrectCommission	0.946894	1.007537	0	0
415.657837	0.792268	city	1	1	0.606216	0.606216	0	1	0	0	CorrectCommission	1.753015	1.011855	0	0
416.450104	0.792262	city	5	1	0.765238	0.765238	0	1	0	0	CorrectCommission	0.826113	1.020150	0	0
417.242401	0.792374	city	6	1	0.695451	0.695451	0	1	0	0	CorrectCommission	0.305746	1.030142	0	0
418.034668	0.792156	city	8	1	0.613851	0.613851	0	1	0	0	CorrectCommission	1.629191	1.039279	0	0
418.826874	0.792270	city	4	1	0.695301	0.695301	0	1	0	0	CorrectCommission	0.308177	1.045065	0	0
419.619263	0.792476	city	10	1	0.812067	0.812067	0	1	0	0	CorrectCommission	1.585610	1.045508	0	0
420.411530	0.792051	city	3	1	0.899746	0.899746	0	1	0	0	CorrectCommission	3.007651	1.039239	0	0
421.203674	0.792264	city	5	1	0.744818	0.744818	0	1	0	0	CorrectCommission	0.494922	1.025764	0	0
421.996063	0.792482	mountain	10	1	0.613551	0.613551	0	0	1	0	CommissionError	1.634045	1.005487	0	0
422.788361	0.792155	city	8	1	0.744565	0.744565	0	1	0	0	CorrectCommission	0.490810	0.979458	0	0
423.580536	0.792156	city	1	1	0.700490	0.700490	0	1	0	0	CorrectCommission	0.224012	0.949233	0	0
424.372742	0.792266	city	8	1	0.653287	0.653287	0	1	0	0	CorrectCommission	0.989595	0.916562	0	1
425.165009	0.792300	city	6	1	0.666373	0.666373	0	1	0	0	CorrectCommission	0.777343	0.883158	0	1
425.957306	0.792262	city	10	1	0.645773	0.645773	0	1	0	0	CorrectCommission	1.111454	0.850522	0	1
426.749573	0.792254	city	6	1	0.744776	0.744776	0	1	0	0	CorrectCommission	0.494240	0.819830	0	1
427.541809	0.792250	city	1	1	0.657759	0.657759	0	1	0	0	CorrectCommission	0.917060	0.791988	0	1
428.334106	0.792364	city	4	1	0.759416	0.759416	0	1	0	0	CorrectCommission	0.731687	0.767599	0	1
429.126434	0.792247	city	10	1	0.649353	0.649353	0	1	0	0	CorrectCommission	1.053392	0.747100	1	1
429.918701	0.792285	city	8	1	0.749964	0.749964	0	1	0	0	CorrectCommission	0.578378	0.730812	1	1
430.710968	0.792264	city	6	1	0.701915	0.701915	0	1	0	0	CorrectCommission	0.200907	0.719059	1	1
431.503296	0.792373	city	2	1	0.652775	0.652775	0	1	0	0	CorrectCommission	0.997899	0.712151	1	1
432.295502	0.792066	city	7	1	0.704931	0.704931	0	1	0	0	CorrectCommission	0.151988	0.710353	1	1
433.087646	0.792249	city	6	1	0.794319	0.794319	0	1	0	0	CorrectCommission	1.297759	0.713880	1	1
433.879913	0.792261	city	8	1	0.744926	0.744926	0	1	0	0	CorrectCommission	0.496668	0.722768	1	1
434.672180	0.792265	city	3	1	0.744859	0.744859	0	1	0	0	CorrectCommission	0.495590	0.736845	1	1
435.464478	0.792333	city	2	1	0.745471	0.745471	0	1	0	0	CorrectCommission	0.505510	0.755548	1	1
436.256836	0.792415	city	4	1	0.756963	0.756963	0	1	0	0	CorrectCommission	0.691893	0.777919	0	1
437.049194	0.792264	city	2	1	0.759165	0.759165	0	1	0	0	CorrectCommission	0.727606	0.802533	0	1
437.841339	0.792052	city	3	1	0.794187	0.794187	0	1	0	0	CorrectCommission	1.295625	0.827522	0	1
438.633545	0.792370	city	9	1	0.744794	0.744794	0	1	0	0	CorrectCommission	0.494528	0.850723	0	1
439.425873	0.792264	city	3	1	0.749385	0.749385	0	1	0	0	CorrectCommission	0.568997	0.869819	0	1
440.218079	0.792156	city	8	1	0.765009	0.765009	0	1	0	0	CorrectCommission	0.822391	0.882584	0	1
441.010284	0.792262	city	9	1	0.806277	0.806277	0	1	0	0	CorrectCommission	1.491706	0.887169	0	1
441.802551	0.792267	city	8	1	0.794346	0.794346	0	1	0	0	CorrectCommission	1.298203	0.882338	0	1
442.594879	0.792373	city	6	1	0.794311	0.794311	0	1	0	0	CorrectCommission	1.297626	0.867727	0	1
443.387146	0.792185	city	3	1	0.814720	0.814720	0	1	0	0	CorrectCommission	1.628640	0.843915	0	1
444.179382	0.792252	city	1	1	0.794320	0.794320	0	1	0	0	CorrectCommission	1.297773	0.812405	0	1
444.971619	0.792250	city	8	1	0.712794	0.712794	0	1	0	0	CorrectCommission	0.024472	0.775461	0	1
445.763885	0.792269	city	4	1	0.753075	0.753075	0	1	0	0	CorrectCommission	0.628840	0.735829	1	1
446.556183	0.792343	city	7	1	0.747383	0.747383	0	1	0	0	CorrectCommission	0.536527	0.696321	1	1
447.348572	0.792399	city	6	1	0.744719	0.744719	0	1	0	0	CorrectCommission	0.493316	0.659481	1	1
448.140778	0.792050	city	3	1	0.695124	0.695124	0	1	0	0	CorrectCommission	0.311055	0.627292	1	1
448.932953	0.792263	city	10	1	0.744839	0.744839	0	1	0	0	CorrectCommission	0.495261	0.600965	1	1
449.725220	0.792269	mountain	5	0	0.000000	0.722721	1	0	0	0	CorrectOmission	0.136530	0.580889	1	1
450.517487	0.792259	city	8	1	0.699221	0.699221	0	1	0	0	CorrectCommission	0.244606	0.566735	1	1
451.309784	0.792375	city	7	1	0.744792	0.744792	0	1	0	0	CorrectCommission	0.494497	0.557713	1	1
452.102051	0.792163	city	10	1	0.754922	0.754922	0	1	0	0	CorrectCommission	0.658799	0.552833	1	1
452.894287	0.792283	city	4	1	0.794308	0.794308	0	1	0	0	CorrectCommission	1.297576	0.551245	1	1
453.686584	0.792348	city	8	1	0.658388	0.658388	0	1	0	0	CorrectCommission	0.906849	0.552452	1	1
454.478882	0.792209	city	1	1	0.695142	0.695142	0	1	0	0	CorrectCommission	0.310752	0.556482	1	1
455.271118	0.792292	city	10	1	0.744758	0.744758	0	1	0	0	CorrectCommission	0.493945	0.563858	1	1
456.063416	0.792294	city	3	1	0.751958	0.751958	0	1	0	0	CorrectCommission	0.610729	0.575396	1	1
456.855713	0.792264	city	4	1	0.744741	0.744741	0	1	0	0	CorrectCommission	0.493666	0.592001	1	1
457.647919	0.792155	city	2	1	0.695287	0.695287	0	1	0	0	CorrectCommission	0.308410	0.614289	1	1
458.440125	0.792265	city	6	1	0.705415	0.705415	0	1	0	0	CorrectCommission	0.144141	0.642342	1	1
459.232391	0.792270	city	10	1	0.713247	0.713247	0	1	0	0	CorrectCommission	0.017123	0.675525	1	1
460.024658	0.792270	city	1	1	0.744814	0.744814	0	1	0	0	CorrectCommission	0.494860	0.712465	1	1
460.817017	0.792471	city	9	1	0.759073	0.759073	0	1	0	0	CorrectCommission	0.726119	0.751153	1	1
461.609314	0.792101	city	7	1	0.805834	0.805834	0	1	0	0	CorrectCommission	1.484512	0.789251	0	1
462.401459	0.792214	city	5	1	0.749617	0.749617	0	1	0	0	CorrectCommission	0.572757	0.824478	0	1
463.193726	0.792287	city	6	1	0.794367	0.794367	0	1	0	0	CorrectCommission	1.298544	0.854989	0	1
463.986053	0.792349	city	3	1	0.850939	0.850939	0	1	0	0	CorrectCommission	2.216065	0.879628	0	1
464.778351	0.792263	city	6	1	0.764870	0.764870	0	1	0	0	CorrectCommission	0.820135	0.898103	0	1
465.570679	0.792373	city	3	1	0.751341	0.751341	0	1	0	0	CorrectCommission	0.600712	0.911004	0	1
466.362915	0.792156	city	6	1	0.801674	0.801674	0	1	0	0	CorrectCommission	1.417049	0.919553	0	1
467.155121	0.792210	city	4	1	0.744656	0.744656	0	1	0	0	CorrectCommission	0.492297	0.925252	0	1
467.947388	0.792318	city	2	1	0.754844	0.754844	0	1	0	0	CorrectCommission	0.657533	0.929560	0	1
468.739624	0.792156	mountain	1	0	0.000000	0.741599	1	0	0	0	CorrectOmission	0.442717	0.933496	0	1
469.531830	0.792268	city	10	1	0.744852	0.744852	0	1	0	0	CorrectCommission	0.495479	0.937412	0	1
470.324097	0.792288	city	1	1	0.804535	0.804535	0	1	0	0	CorrectCommission	1.463453	0.940892	0	1
471.116486	0.792458	city	2	1	0.700443	0.700443	0	1	0	0	CorrectCommission	0.224786	0.942825	0	1
471.908783	0.792130	city	1	1	0.843686	0.843686	0	1	0	0	CorrectCommission	2.098426	0.941797	0	1
472.700928	0.792188	city	8	1	0.695228	0.695228	0	1	0	0	CorrectCommission	0.309360	0.936374	0	1
473.493164	0.792262	city	9	1	0.645727	0.645727	0	1	0	0	CorrectCommission	1.112203	0.925646	0	1
474.285522	0.792478	city	4	1	0.613634	0.613634	0	1	0	0	CorrectCommission	1.632712	0.909599	0	1
475.077789	0.792049	city	9	1	0.596367	0.596367	0	1	0	0	CorrectCommission	1.912757	0.889545	0	1
475.869965	0.792334	city	6	1	0.645827	0.645827	0	1	0	0	CorrectCommission	1.110571	0.868381	0	1
476.662231	0.792193	city	4	1	0.699646	0.699646	0	1	0	0	CorrectCommission	0.237701	0.850682	0	1
477.454468	0.792268	city	7	1	0.744769	0.744769	0	1	0	0	CorrectCommission	0.494130	0.842561	0	1
478.246735	0.792262	city	2	1	0.744781	0.744781	0	1	0	0	CorrectCommission	0.494320	0.851421	0	1
479.039001	0.792265	city	9	1	0.746963	0.746963	0	1	0	0	CorrectCommission	0.529708	0.885492	0	1
479.831268	0.792267	mountain	2	0	0.000000	0.740830	1	0	0	0	CorrectOmission	0.430249	0.953294	0	1
480.623535	0.792263	city	1	1	0.711924	0.711924	0	1	0	0	CorrectCommission	0.038579	1.062926	0	1
481.415833	0.792320	city	9	1	0.645783	0.645783	0	1	0	0	CorrectCommission	1.111298	1.221306	0	1
482.208099	0.792209	city	1	1	0.695259	0.695259	0	1	0	0	CorrectCommission	0.308861	1.433390	0	1
483.000336	0.792293	city	6	1	0.695250	0.695250	0	1	0	0	CorrectCommission	0.308999	1.701458	0	1
483.792603	0.792239	city	4	1	0.649400	0.649400	0	1	0	0	CorrectCommission	1.052637	2.024436	0	1
484.584961	0.792479	city	1	1	0.645732	0.645732	0	1	0	0	CorrectCommission	1.112122	2.397565	0	1
485.377228	0.792051	city	10	1	0.648696	0.648696	0	1	0	0	CorrectCommission	1.064052	2.812388	0	1
486.169373	0.792262	city	1	1	0.696466	0.696466	0	1	0	0	CorrectCommission	0.289285	3.257149	0	1
486.961639	0.792265	city	5	1	0.943519	0.943519	0	1	0	0	CorrectCommission	3.717583	3.717583	0	1
