onset	duration	trial_type	image_type	Press	ReactionTime	ReactionTime_Interpolated	CorrectOmission	CorrectCommission	CommissionError	OmissionError	response_type	nonsmoothVarianceTimeCourse	VarianceTimeCourse	In_the_Zone	Reward_trial
8.433964	0.792069	city	4	1	0.999123	0.999123	0	1	0	0	CorrectCommission	3.478287	3.478287	0	1
9.226173	0.792351	city	5	1	0.695535	0.695535	0	1	0	0	CorrectCommission	0.235114	3.092829	0	1
10.018427	0.792157	city	8	1	0.794213	0.794213	0	1	0	0	CorrectCommission	1.289276	2.717596	0	1
10.810694	0.792375	mountain	3	1	0.447999	0.447999	0	0	1	0	CommissionError	2.409251	2.361885	0	1
11.602965	0.792168	city	5	1	0.596297	0.596297	0	1	0	0	CorrectCommission	0.825021	2.033428	0	1
12.395177	0.792255	city	7	1	0.546778	0.546778	0	1	0	0	CorrectCommission	1.354023	1.737951	0	1
13.187489	0.792369	city	10	1	0.597669	0.597669	0	1	0	0	CorrectCommission	0.810361	1.478896	0	1
13.979763	0.792180	city	8	1	0.605188	0.605188	0	1	0	0	CorrectCommission	0.730038	1.257485	0	1
14.771974	0.792241	city	9	1	0.645801	0.645801	0	1	0	0	CorrectCommission	0.296181	1.073002	0	1
15.564228	0.792269	city	1	1	0.596335	0.596335	0	1	0	0	CorrectCommission	0.824610	0.923199	0	1
16.356493	0.792260	city	7	1	0.596321	0.596321	0	1	0	0	CorrectCommission	0.824768	0.804747	0	1
17.148758	0.792268	city	9	1	0.699108	0.699108	0	1	0	0	CorrectCommission	0.273286	0.713707	1	1
17.941021	0.792260	city	10	1	0.652917	0.652917	0	1	0	0	CorrectCommission	0.220162	0.645921	1	1
18.733286	0.792268	city	2	1	0.695301	0.695301	0	1	0	0	CorrectCommission	0.232622	0.597307	1	1
19.525660	0.792479	city	6	1	0.698166	0.698166	0	1	0	0	CorrectCommission	0.263221	0.564087	1	1
20.318005	0.792212	city	5	1	0.699681	0.699681	0	1	0	0	CorrectCommission	0.279414	0.542938	1	1
21.110161	0.792103	city	6	1	0.843652	0.843652	0	1	0	0	CorrectCommission	1.817420	0.531037	1	1
21.902348	0.792269	city	9	1	0.660818	0.660818	0	1	0	0	CorrectCommission	0.135757	0.526047	1	1
22.694643	0.792321	mountain	4	0	0.000000	0.639344	1	0	0	0	CorrectOmission	0.365159	0.526110	1	1
23.487013	0.792420	city	10	1	0.695238	0.695238	0	1	0	0	CorrectCommission	0.231950	0.529709	1	1
24.279245	0.792046	city	3	1	0.744510	0.744510	0	1	0	0	CorrectCommission	0.758307	0.535580	1	1
25.071404	0.792268	city	4	1	0.707485	0.707485	0	1	0	0	CorrectCommission	0.362776	0.542574	1	1
25.863722	0.792371	city	1	1	0.695288	0.695288	0	1	0	0	CorrectCommission	0.232483	0.549693	1	1
26.655989	0.792161	city	6	1	0.707088	0.707088	0	1	0	0	CorrectCommission	0.358541	0.556053	1	1
27.448200	0.792261	mountain	6	0	0.000000	0.751200	1	0	0	0	CorrectOmission	0.829775	0.560859	1	1
28.240461	0.792263	mountain	1	0	0.000000	0.779753	1	0	0	0	CorrectOmission	1.134801	0.563465	1	1
29.032726	0.792266	city	3	1	0.744878	0.744878	0	1	0	0	CorrectCommission	0.762234	0.563474	1	1
29.825026	0.792334	city	10	1	0.598704	0.598704	0	1	0	0	CorrectCommission	0.799309	0.560757	1	1
30.617344	0.792303	city	5	1	0.648130	0.648130	0	1	0	0	CorrectCommission	0.271299	0.555424	1	1
31.409628	0.792267	city	3	1	0.711823	0.711823	0	1	0	0	CorrectCommission	0.409116	0.547814	1	1
32.201843	0.792160	city	10	1	0.744866	0.744866	0	1	0	0	CorrectCommission	0.762110	0.538389	1	1
32.994053	0.792264	city	4	1	0.660342	0.660342	0	1	0	0	CorrectCommission	0.140838	0.527662	1	1
33.786316	0.792262	city	2	1	0.647017	0.647017	0	1	0	0	CorrectCommission	0.283192	0.516155	1	1
34.578579	0.792266	city	4	1	0.744912	0.744912	0	1	0	0	CorrectCommission	0.762601	0.504332	1	1
35.370846	0.792264	city	9	1	0.596377	0.596377	0	1	0	0	CorrectCommission	0.824160	0.492586	1	1
36.163162	0.792372	city	3	1	0.695656	0.695656	0	1	0	0	CorrectCommission	0.236406	0.481253	1	1
36.955482	0.792265	city	7	1	0.596125	0.596125	0	1	0	0	CorrectCommission	0.826852	0.470637	1	1
37.747692	0.792156	city	4	1	0.661494	0.661494	0	1	0	0	CorrectCommission	0.128537	0.461012	1	1
38.539959	0.792372	city	9	1	0.645770	0.645770	0	1	0	0	CorrectCommission	0.296506	0.452647	1	1
39.332241	0.792197	city	10	1	0.605408	0.605408	0	1	0	0	CorrectCommission	0.727689	0.445791	1	1
40.124451	0.792223	city	6	1	0.695278	0.695278	0	1	0	0	CorrectCommission	0.232371	0.440724	1	1
40.916695	0.792265	city	8	1	0.714815	0.714815	0	1	0	0	CorrectCommission	0.441087	0.437777	1	1
41.708973	0.792285	city	4	1	0.646302	0.646302	0	1	0	0	CorrectCommission	0.290824	0.437332	1	1
42.501240	0.792249	city	9	1	0.695767	0.695767	0	1	0	0	CorrectCommission	0.237598	0.439880	1	1
43.293495	0.792263	mountain	6	0	0.000000	0.727435	1	0	0	0	CorrectOmission	0.575897	0.446040	1	1
44.085754	0.792261	city	8	1	0.706062	0.706062	0	1	0	0	CorrectCommission	0.347579	0.456555	1	1
44.878017	0.792265	city	7	1	0.596407	0.596407	0	1	0	0	CorrectCommission	0.823848	0.472265	1	1
45.670284	0.792266	city	6	1	0.695341	0.695341	0	1	0	0	CorrectCommission	0.233041	0.493992	1	1
46.462551	0.792266	city	8	1	0.596394	0.596394	0	1	0	0	CorrectCommission	0.823984	0.522421	1	1
47.254871	0.792373	city	9	1	0.695303	0.695303	0	1	0	0	CorrectCommission	0.232636	0.557865	1	1
48.047245	0.792374	city	7	1	0.695147	0.695147	0	1	0	0	CorrectCommission	0.230976	0.600113	1	1
48.839561	0.792263	city	8	1	0.695219	0.695219	0	1	0	0	CorrectCommission	0.231740	0.648225	1	1
49.631718	0.792049	city	10	1	0.695094	0.695094	0	1	0	0	CorrectCommission	0.230403	0.700479	1	1
50.423874	0.792267	mountain	7	0	0.000000	0.718376	1	0	0	0	CorrectOmission	0.479123	0.754421	0	1
51.216141	0.792265	city	10	1	0.744942	0.744942	0	1	0	0	CorrectCommission	0.762919	0.807066	0	1
52.008430	0.792314	city	3	1	0.754667	0.754667	0	1	0	0	CorrectCommission	0.866813	0.855214	0	1
52.800804	0.792429	mountain	7	0	0.000000	0.863733	1	0	0	0	CorrectOmission	2.031941	0.895882	0	1
53.593040	0.792046	city	6	1	0.893110	0.893110	0	1	0	0	CorrectCommission	2.345769	0.926716	0	1
54.385197	0.792267	city	2	1	0.663768	0.663768	0	1	0	0	CorrectCommission	0.104237	0.946333	0	1
55.177570	0.792481	city	7	1	0.546792	0.546792	0	1	0	0	CorrectCommission	1.353866	0.954616	0	1
55.969891	0.792155	city	3	1	0.553587	0.553587	0	1	0	0	CorrectCommission	1.281281	0.952623	0	1
56.762154	0.792374	city	8	1	0.547152	0.547152	0	1	0	0	CorrectCommission	1.350025	0.942497	0	1
57.554363	0.792046	city	3	1	0.596024	0.596024	0	1	0	0	CorrectCommission	0.827936	0.927164	0	1
58.346573	0.792374	city	5	1	0.620175	0.620175	0	1	0	0	CorrectCommission	0.569931	0.909913	0	1
59.138947	0.792375	city	9	1	0.745052	0.745052	0	1	0	0	CorrectCommission	0.764095	0.893913	0	1
59.931190	0.792112	city	5	1	0.744576	0.744576	0	1	0	0	CorrectCommission	0.759009	0.881769	0	1
60.723351	0.792209	city	8	1	0.744703	0.744703	0	1	0	0	CorrectCommission	0.760374	0.875161	0	1
61.515598	0.792284	city	2	1	0.645783	0.645783	0	1	0	0	CorrectCommission	0.296368	0.874635	0	1
62.307858	0.792238	city	6	1	0.655243	0.655243	0	1	0	0	CorrectCommission	0.195308	0.879589	0	1
63.100109	0.792262	mountain	1	0	0.000000	0.643917	1	0	0	0	CorrectOmission	0.316303	0.888434	0	1
63.892483	0.792482	city	4	1	0.596366	0.596366	0	1	0	0	CorrectCommission	0.824280	0.898908	0	1
64.684799	0.792156	city	6	1	0.497152	0.497152	0	1	0	0	CorrectCommission	1.884166	0.908541	0	1
65.477066	0.792373	city	8	1	0.500066	0.500066	0	1	0	0	CorrectCommission	1.853038	0.915084	0	1
66.269279	0.792049	city	4	1	0.508897	0.508897	0	1	0	0	CorrectCommission	1.758689	0.916936	0	1
67.061432	0.792269	city	2	1	0.596268	0.596268	0	1	0	0	CorrectCommission	0.825325	0.913342	0	1
67.853699	0.792262	city	1	1	0.615116	0.615116	0	1	0	0	CorrectCommission	0.623976	0.904498	0	0
68.646019	0.792371	city	10	1	0.748506	0.748506	0	1	0	0	CorrectCommission	0.800993	0.891385	0	0
69.438339	0.792266	city	3	1	0.655625	0.655625	0	1	0	0	CorrectCommission	0.191231	0.875573	0	0
70.230545	0.792153	city	9	1	0.596099	0.596099	0	1	0	0	CorrectCommission	0.827137	0.858896	0	0
71.022781	0.792324	city	10	1	0.515527	0.515527	0	1	0	0	CorrectCommission	1.687865	0.843121	0	0
71.815079	0.792268	city	4	1	0.645683	0.645683	0	1	0	0	CorrectCommission	0.297445	0.829733	0	0
72.607323	0.792223	city	8	1	0.648188	0.648188	0	1	0	0	CorrectCommission	0.270682	0.819753	0	0
73.399559	0.792245	mountain	10	1	0.596270	0.596270	0	0	1	0	CommissionError	0.825313	0.813629	0	0
74.191811	0.792265	city	3	1	0.599986	0.599986	0	1	0	0	CorrectCommission	0.785613	0.811230	0	0
74.984077	0.792266	mountain	7	1	0.561564	0.561564	0	0	1	0	CommissionError	1.196062	0.811958	0	0
75.776398	0.792371	city	7	1	0.755172	0.755172	0	1	0	0	CorrectCommission	0.872202	0.814845	0	0
76.568680	0.792186	city	9	1	0.645691	0.645691	0	1	0	0	CorrectCommission	0.297353	0.818710	0	0
77.360931	0.792320	city	7	1	0.596234	0.596234	0	1	0	0	CorrectCommission	0.825692	0.822327	0	0
78.153290	0.792397	city	10	1	0.596186	0.596186	0	1	0	0	CorrectCommission	0.826205	0.824538	0	0
78.945518	0.792068	city	6	1	0.760634	0.760634	0	1	0	0	CorrectCommission	0.930555	0.824444	0	0
79.737694	0.792274	city	2	1	0.560455	0.560455	0	1	0	0	CorrectCommission	1.207913	0.821464	0	0
80.529945	0.792234	city	4	1	0.560568	0.560568	0	1	0	0	CorrectCommission	1.206708	0.815414	0	0
81.322197	0.792268	city	2	1	0.551807	0.551807	0	1	0	0	CorrectCommission	1.300301	0.806508	0	0
82.114464	0.792262	city	9	1	0.645764	0.645764	0	1	0	0	CorrectCommission	0.296571	0.795299	0	0
82.906776	0.792372	city	3	1	0.607788	0.607788	0	1	0	0	CorrectCommission	0.702267	0.782608	0	0
83.699059	0.792180	city	6	1	0.666865	0.666865	0	1	0	0	CorrectCommission	0.071157	0.769397	0	0
84.491379	0.792459	city	8	1	0.597916	0.597916	0	1	0	0	CorrectCommission	0.807720	0.756699	0	0
85.283630	0.792050	city	5	1	0.596049	0.596049	0	1	0	0	CorrectCommission	0.827666	0.745488	0	0
86.075836	0.792371	city	10	1	0.546803	0.546803	0	1	0	0	CorrectCommission	1.353757	0.736627	0	0
86.868111	0.792176	city	6	1	0.596262	0.596262	0	1	0	0	CorrectCommission	0.825398	0.730785	1	0
87.660355	0.792308	city	2	1	0.702752	0.702752	0	1	0	0	CorrectCommission	0.312220	0.728402	1	0
88.452606	0.792204	city	5	1	0.596184	0.596184	0	1	0	0	CorrectCommission	0.826226	0.729594	1	0
89.244843	0.792266	city	1	1	0.645744	0.645744	0	1	0	0	CorrectCommission	0.296788	0.734118	1	0
90.037163	0.792371	city	9	1	0.695258	0.695258	0	1	0	0	CorrectCommission	0.232159	0.741374	0	0
90.829430	0.792159	city	6	1	0.744671	0.744671	0	1	0	0	CorrectCommission	0.760032	0.750386	0	0
91.621635	0.792261	city	7	1	0.608937	0.608937	0	1	0	0	CorrectCommission	0.689992	0.759903	0	0
92.413933	0.792326	mountain	6	0	0.000000	0.546787	1	0	0	0	CorrectOmission	1.353925	0.768547	0	0
93.206200	0.792205	mountain	7	1	0.596191	0.596191	0	0	1	0	CommissionError	0.826156	0.774957	0	0
93.998436	0.792269	city	5	1	0.795116	0.795116	0	1	0	0	CorrectCommission	1.298922	0.778012	0	0
94.790695	0.792260	city	1	1	0.645892	0.645892	0	1	0	0	CorrectCommission	0.295204	0.776907	0	0
95.583015	0.792374	city	9	1	0.596644	0.596644	0	1	0	0	CorrectCommission	0.821314	0.771301	0	0
96.375389	0.792374	city	8	1	0.559874	0.559874	0	1	0	0	CorrectCommission	1.214117	0.761275	0	0
97.167603	0.792047	city	10	1	0.546733	0.546733	0	1	0	0	CorrectCommission	1.354504	0.747330	0	0
97.959808	0.792373	mountain	8	0	0.000000	0.660134	1	0	0	0	CorrectOmission	0.143061	0.730292	1	0
98.752182	0.792374	city	4	1	0.744824	0.744824	0	1	0	0	CorrectCommission	0.761664	0.711206	1	0
99.544449	0.792154	city	6	1	0.645548	0.645548	0	1	0	0	CorrectCommission	0.298878	0.691145	1	0
100.336601	0.792162	mountain	5	0	0.000000	0.599654	1	0	0	0	CorrectOmission	0.789163	0.671130	1	0
101.128815	0.792261	mountain	6	0	0.000000	0.601625	1	0	0	0	CorrectOmission	0.768104	0.652012	1	0
101.921082	0.792265	city	8	1	0.645947	0.645947	0	1	0	0	CorrectCommission	0.294618	0.634429	1	0
102.713348	0.792275	mountain	2	0	0.000000	0.727106	1	0	0	0	CorrectOmission	0.572380	0.618817	1	0
103.505615	0.792257	city	6	1	0.744925	0.744925	0	1	0	0	CorrectCommission	0.762742	0.605404	1	0
104.297981	0.792480	city	3	1	0.599231	0.599231	0	1	0	0	CorrectCommission	0.793680	0.594287	1	0
105.090248	0.792044	mountain	1	0	0.000000	0.598234	1	0	0	0	CorrectOmission	0.804327	0.585466	1	0
105.882507	0.792483	city	2	1	0.645745	0.645745	0	1	0	0	CorrectCommission	0.296774	0.578864	1	0
106.674881	0.792265	city	4	1	0.645575	0.645575	0	1	0	0	CorrectCommission	0.298596	0.574379	1	0
107.467041	0.792051	city	2	1	0.645927	0.645927	0	1	0	0	CorrectCommission	0.294837	0.571863	1	0
108.259201	0.792266	city	4	1	0.702085	0.702085	0	1	0	0	CorrectCommission	0.305094	0.571154	1	0
109.051468	0.792262	mountain	5	0	0.000000	0.750706	1	0	0	0	CorrectOmission	0.824498	0.572101	1	0
109.843742	0.792299	mountain	1	0	0.000000	0.776181	1	0	0	0	CorrectOmission	1.096645	0.574537	1	0
110.636009	0.792228	city	2	1	0.762904	0.762904	0	1	0	0	CorrectCommission	0.954805	0.578342	1	0
111.428368	0.792483	city	8	1	0.695266	0.695266	0	1	0	0	CorrectCommission	0.232247	0.583424	1	0
112.220627	0.792048	city	2	1	0.645786	0.645786	0	1	0	0	CorrectCommission	0.296336	0.589728	1	0
113.012840	0.792373	city	8	1	0.645777	0.645777	0	1	0	0	CorrectCommission	0.296436	0.597200	1	0
113.805161	0.792264	city	6	1	0.605572	0.605572	0	1	0	0	CorrectCommission	0.725937	0.605809	1	0
114.597366	0.792157	city	7	1	0.645653	0.645653	0	1	0	0	CorrectCommission	0.297758	0.615525	1	0
115.389580	0.792266	city	1	1	0.596235	0.596235	0	1	0	0	CorrectCommission	0.825683	0.626398	1	0
116.181953	0.792482	city	8	1	0.596394	0.596394	0	1	0	0	CorrectCommission	0.823982	0.638504	1	0
116.974220	0.792049	city	7	1	0.602903	0.602903	0	1	0	0	CorrectCommission	0.754453	0.651990	1	0
117.766479	0.792480	city	8	1	0.598387	0.598387	0	1	0	0	CorrectCommission	0.802693	0.667005	1	0
118.558746	0.792047	city	1	1	0.596715	0.596715	0	1	0	0	CorrectCommission	0.820552	0.683599	1	0
119.350960	0.792374	city	5	1	0.762802	0.762802	0	1	0	0	CorrectCommission	0.953721	0.701617	1	0
120.143227	0.792162	city	10	1	0.695227	0.695227	0	1	0	0	CorrectCommission	0.231828	0.720519	1	0
120.935547	0.792476	city	6	1	0.657034	0.657034	0	1	0	0	CorrectCommission	0.176181	0.739319	0	0
121.727806	0.792050	city	5	1	0.645550	0.645550	0	1	0	0	CorrectCommission	0.298866	0.756539	0	0
122.520020	0.792372	city	2	1	0.695252	0.695252	0	1	0	0	CorrectCommission	0.232091	0.770328	0	0
123.312279	0.792157	mountain	4	0	0.000000	0.790217	1	0	0	0	CorrectOmission	1.246588	0.778713	0	0
124.104492	0.792262	mountain	9	0	0.000000	0.851819	1	0	0	0	CorrectOmission	1.904669	0.779874	0	0
124.896759	0.792269	city	6	1	0.801431	0.801431	0	1	0	0	CorrectCommission	1.366378	0.772515	0	0
125.689133	0.792479	city	1	1	0.560424	0.560424	0	1	0	0	CorrectCommission	1.208241	0.756136	0	0
126.481445	0.792156	city	8	1	0.550485	0.550485	0	1	0	0	CorrectCommission	1.314418	0.731155	1	0
127.273605	0.792163	city	7	1	0.645744	0.645744	0	1	0	0	CorrectCommission	0.296784	0.698920	1	1
128.065826	0.792259	city	8	1	0.647437	0.647437	0	1	0	0	CorrectCommission	0.278707	0.661555	1	1
128.858093	0.792293	city	4	1	0.751689	0.751689	0	1	0	0	CorrectCommission	0.835001	0.621643	1	1
129.650360	0.792237	city	8	1	0.645742	0.645742	0	1	0	0	CorrectCommission	0.296809	0.581894	1	1
130.442612	0.792260	city	4	1	0.695278	0.695278	0	1	0	0	CorrectCommission	0.232369	0.544848	1	1
131.234985	0.792485	city	6	1	0.646616	0.646616	0	1	0	0	CorrectCommission	0.287472	0.512584	1	1
132.027252	0.792049	city	10	1	0.646367	0.646367	0	1	0	0	CorrectCommission	0.290136	0.486603	1	1
132.819397	0.792262	city	3	1	0.696276	0.696276	0	1	0	0	CorrectCommission	0.243029	0.467751	1	1
133.611664	0.792269	city	10	1	0.655440	0.655440	0	1	0	0	CorrectCommission	0.193213	0.456303	1	1
134.403931	0.792263	city	7	1	0.763452	0.763452	0	1	0	0	CorrectCommission	0.960660	0.452042	1	1
135.196198	0.792262	city	3	1	0.646052	0.646052	0	1	0	0	CorrectCommission	0.293502	0.454388	1	1
135.988464	0.792264	city	5	1	0.602771	0.602771	0	1	0	0	CorrectCommission	0.755859	0.462541	1	1
136.780731	0.792269	city	8	1	0.645771	0.645771	0	1	0	0	CorrectCommission	0.296496	0.475496	1	1
137.572998	0.792266	city	2	1	0.652802	0.652802	0	1	0	0	CorrectCommission	0.221391	0.492128	1	1
138.365265	0.792266	city	5	1	0.645802	0.645802	0	1	0	0	CorrectCommission	0.296167	0.511160	1	1
139.157639	0.792477	city	9	1	0.645770	0.645770	0	1	0	0	CorrectCommission	0.296512	0.531164	1	1
139.949890	0.792047	city	2	1	0.596229	0.596229	0	1	0	0	CorrectCommission	0.825750	0.550605	1	1
140.742050	0.792267	city	10	1	0.645765	0.645765	0	1	0	0	CorrectCommission	0.296561	0.567929	1	1
141.534348	0.792315	city	3	1	0.646089	0.646089	0	1	0	0	CorrectCommission	0.293104	0.581720	1	1
142.326599	0.792215	city	5	1	0.546666	0.546666	0	1	0	0	CorrectCommission	1.355212	0.590874	1	1
143.118896	0.792370	city	3	1	0.546837	0.546837	0	1	0	0	CorrectCommission	1.353390	0.594739	1	1
143.911270	0.792375	city	7	1	0.744775	0.744775	0	1	0	0	CorrectCommission	0.761135	0.593287	1	1
144.703476	0.792046	city	10	1	0.744476	0.744476	0	1	0	0	CorrectCommission	0.757944	0.587164	1	1
145.495636	0.792264	city	3	1	0.699311	0.699311	0	1	0	0	CorrectCommission	0.275452	0.577604	1	1
146.287903	0.792269	city	1	1	0.695490	0.695490	0	1	0	0	CorrectCommission	0.234639	0.566275	1	1
147.080276	0.792479	city	8	1	0.744776	0.744776	0	1	0	0	CorrectCommission	0.761148	0.555064	1	1
147.872589	0.792155	city	6	1	0.656811	0.656811	0	1	0	0	CorrectCommission	0.178565	0.545793	1	1
148.664780	0.792210	city	7	1	0.744721	0.744721	0	1	0	0	CorrectCommission	0.760562	0.539986	1	1
149.457092	0.792429	city	10	1	0.695328	0.695328	0	1	0	0	CorrectCommission	0.232911	0.538623	1	1
150.249329	0.792048	city	4	1	0.712195	0.712195	0	1	0	0	CorrectCommission	0.413096	0.542021	1	1
151.041489	0.792262	city	9	1	0.695391	0.695391	0	1	0	0	CorrectCommission	0.233575	0.549766	1	1
151.833755	0.792270	city	10	1	0.704757	0.704757	0	1	0	0	CorrectCommission	0.333637	0.560774	1	1
152.626022	0.792264	mountain	1	0	0.000000	0.725819	1	0	0	0	CorrectOmission	0.558631	0.573442	1	1
153.418320	0.792341	city	7	1	0.744774	0.744774	0	1	0	0	CorrectCommission	0.761129	0.585863	1	1
154.210693	0.792402	mountain	1	0	0.000000	0.747823	1	0	0	0	CorrectOmission	0.793703	0.596137	1	1
155.002930	0.792050	city	2	1	0.695170	0.695170	0	1	0	0	CorrectCommission	0.231218	0.602621	1	1
155.795074	0.792264	city	6	1	0.547017	0.547017	0	1	0	0	CorrectCommission	1.351463	0.604217	1	1
156.587341	0.792263	city	1	1	0.558171	0.558171	0	1	0	0	CorrectCommission	1.232308	0.600472	1	1
157.379608	0.792265	city	9	1	0.559776	0.559776	0	1	0	0	CorrectCommission	1.215162	0.591670	1	1
158.171890	0.792305	city	7	1	0.695430	0.695430	0	1	0	0	CorrectCommission	0.233993	0.578764	1	1
158.964157	0.792228	city	9	1	0.661688	0.661688	0	1	0	0	CorrectCommission	0.126463	0.563223	1	1
159.756454	0.792370	city	5	1	0.661853	0.661853	0	1	0	0	CorrectCommission	0.124695	0.546732	1	1
160.548828	0.792374	city	7	1	0.618411	0.618411	0	1	0	0	CorrectCommission	0.588783	0.530984	1	1
161.341034	0.792046	city	9	1	0.698494	0.698494	0	1	0	0	CorrectCommission	0.266732	0.517449	1	1
162.133194	0.792266	city	3	1	0.612222	0.612222	0	1	0	0	CorrectCommission	0.654896	0.507220	1	1
162.925568	0.792482	city	4	1	0.707014	0.707014	0	1	0	0	CorrectCommission	0.357742	0.500896	1	1
163.717834	0.792048	city	6	1	0.712146	0.712146	0	1	0	0	CorrectCommission	0.412571	0.498596	1	1
164.510025	0.792321	city	5	1	0.596626	0.596626	0	1	0	0	CorrectCommission	0.821506	0.499943	1	1
165.302292	0.792207	city	3	1	0.700136	0.700136	0	1	0	0	CorrectCommission	0.284266	0.504170	1	1
166.094528	0.792272	city	10	1	0.695296	0.695296	0	1	0	0	CorrectCommission	0.232569	0.510213	1	1
166.886795	0.792261	city	8	1	0.744762	0.744762	0	1	0	0	CorrectCommission	0.761003	0.516854	1	1
167.679153	0.792478	city	3	1	0.646083	0.646083	0	1	0	0	CorrectCommission	0.293163	0.522807	1	1
168.471420	0.792050	city	6	1	0.657888	0.657888	0	1	0	0	CorrectCommission	0.167051	0.526905	1	1
169.263580	0.792263	mountain	10	1	0.553617	0.553617	0	0	1	0	CommissionError	1.280957	0.528252	1	1
170.055954	0.792482	city	4	1	0.645784	0.645784	0	1	0	0	CorrectCommission	0.296365	0.526333	1	1
170.848267	0.792156	city	5	1	0.561108	0.561108	0	1	0	0	CorrectCommission	1.200933	0.521166	1	1
171.640442	0.792184	city	2	1	0.596118	0.596118	0	1	0	0	CorrectCommission	0.826931	0.513285	1	1
172.432648	0.792236	city	3	1	0.654579	0.654579	0	1	0	0	CorrectCommission	0.202409	0.503766	1	1
173.224899	0.792264	city	8	1	0.645771	0.645771	0	1	0	0	CorrectCommission	0.296499	0.494080	1	1
174.017166	0.792268	city	1	1	0.600317	0.600317	0	1	0	0	CorrectCommission	0.782072	0.485896	1	1
174.809433	0.792264	city	6	1	0.664054	0.664054	0	1	0	0	CorrectCommission	0.101191	0.480867	1	1
175.601807	0.792479	city	4	1	0.661726	0.661726	0	1	0	0	CorrectCommission	0.126055	0.480421	1	1
176.394073	0.792070	city	2	1	0.711245	0.711245	0	1	0	0	CorrectCommission	0.402943	0.485530	1	1
177.186295	0.792353	city	1	1	0.645758	0.645758	0	1	0	0	CorrectCommission	0.296641	0.496566	1	1
177.978546	0.792156	mountain	4	0	0.000000	0.701300	1	0	0	0	CorrectOmission	0.296709	0.513209	1	1
178.770767	0.792293	city	2	1	0.745480	0.745480	0	1	0	0	CorrectCommission	0.768671	0.534536	1	1
179.563034	0.792238	city	3	1	0.645904	0.645904	0	1	0	0	CorrectCommission	0.295078	0.559096	1	1
180.355286	0.792265	city	6	1	0.695250	0.695250	0	1	0	0	CorrectCommission	0.232069	0.585173	1	1
181.147552	0.792272	city	1	1	0.695310	0.695310	0	1	0	0	CorrectCommission	0.232720	0.610991	1	1
181.939926	0.792472	city	10	1	0.846540	0.846540	0	1	0	0	CorrectCommission	1.848277	0.634999	1	1
182.732300	0.792264	mountain	6	0	0.000000	0.787705	1	0	0	0	CorrectOmission	1.219745	0.656082	1	1
183.524567	0.792265	city	7	1	0.695073	0.695073	0	1	0	0	CorrectCommission	0.230178	0.673748	1	1
184.316818	0.792265	mountain	5	0	0.000000	0.744914	1	0	0	0	CorrectOmission	0.762628	0.688138	1	1
185.109009	0.792090	city	7	1	0.794172	0.794172	0	1	0	0	CorrectCommission	1.288834	0.699921	1	1
185.901154	0.792226	city	4	1	0.699787	0.699787	0	1	0	0	CorrectCommission	0.280537	0.710133	1	1
186.693451	0.792370	city	2	1	0.752759	0.752759	0	1	0	0	CorrectCommission	0.846433	0.719928	1	0
187.485748	0.792195	city	4	1	0.652165	0.652165	0	1	0	0	CorrectCommission	0.228189	0.730257	1	0
188.278000	0.792335	city	7	1	0.596241	0.596241	0	1	0	0	CorrectCommission	0.825614	0.741682	0	0
189.070267	0.792189	city	2	1	0.649542	0.649542	0	1	0	0	CorrectCommission	0.256213	0.754178	0	0
189.862473	0.792233	city	6	1	0.612629	0.612629	0	1	0	0	CorrectCommission	0.650544	0.767123	0	0
190.654785	0.792370	city	5	1	0.696798	0.696798	0	1	0	0	CorrectCommission	0.248614	0.779377	0	0
191.447067	0.792217	mountain	2	0	0.000000	0.814827	1	0	0	0	CorrectOmission	1.509488	0.789495	0	0
192.239288	0.792209	city	2	1	0.844243	0.844243	0	1	0	0	CorrectCommission	1.823738	0.795977	0	0
193.031631	0.792480	city	9	1	0.662576	0.662576	0	1	0	0	CorrectCommission	0.116975	0.797594	0	0
193.823944	0.792154	city	5	1	0.547100	0.547100	0	1	0	0	CorrectCommission	1.350584	0.793624	0	0
194.616104	0.792157	city	1	1	0.596286	0.596286	0	1	0	0	CorrectCommission	0.825141	0.783940	0	0
195.408310	0.792269	city	6	1	0.553971	0.553971	0	1	0	0	CorrectCommission	1.277178	0.769128	0	0
196.200577	0.792264	city	10	1	0.645834	0.645834	0	1	0	0	CorrectCommission	0.295831	0.750331	0	0
196.992859	0.792279	city	2	1	0.744798	0.744798	0	1	0	0	CorrectCommission	0.761383	0.729137	1	0
197.785126	0.792272	city	10	1	0.794497	0.794497	0	1	0	0	CorrectCommission	1.292304	0.707302	1	0
198.577393	0.792241	city	5	1	0.695299	0.695299	0	1	0	0	CorrectCommission	0.232602	0.686505	1	0
199.369751	0.792480	city	2	1	0.695271	0.695271	0	1	0	0	CorrectCommission	0.232300	0.668152	1	0
200.162064	0.792155	city	3	1	0.645531	0.645531	0	1	0	0	CorrectCommission	0.299069	0.653211	1	0
200.954239	0.792189	city	4	1	0.645639	0.645639	0	1	0	0	CorrectCommission	0.297905	0.642208	1	0
201.746445	0.792235	city	1	1	0.600050	0.600050	0	1	0	0	CorrectCommission	0.784924	0.635254	1	0
202.538696	0.792267	city	8	1	0.667514	0.667514	0	1	0	0	CorrectCommission	0.064228	0.632190	1	0
203.331070	0.792481	mountain	8	0	0.000000	0.799792	1	0	0	0	CorrectOmission	1.348870	0.632830	1	0
204.123337	0.792045	city	2	1	0.843631	0.843631	0	1	0	0	CorrectCommission	1.817191	0.637013	1	0
204.915543	0.792373	city	10	1	0.645776	0.645776	0	1	0	0	CorrectCommission	0.296442	0.644749	1	0
205.707809	0.792160	city	5	1	0.645713	0.645713	0	1	0	0	CorrectCommission	0.297117	0.656203	1	0
206.500015	0.792261	city	1	1	0.695280	0.695280	0	1	0	0	CorrectCommission	0.232393	0.671545	1	0
207.292282	0.792265	city	4	1	0.646175	0.646175	0	1	0	0	CorrectCommission	0.292179	0.690751	1	0
208.084656	0.792482	city	3	1	0.596683	0.596683	0	1	0	0	CorrectCommission	0.820901	0.713484	1	0
208.876923	0.792048	city	2	1	0.652387	0.652387	0	1	0	0	CorrectCommission	0.225817	0.738897	0	0
209.669189	0.792482	city	4	1	0.744974	0.744974	0	1	0	0	CorrectCommission	0.763265	0.765660	0	0
210.461456	0.792055	city	7	1	0.794138	0.794138	0	1	0	0	CorrectCommission	1.288471	0.792046	0	0
211.253616	0.792261	city	9	1	0.744824	0.744824	0	1	0	0	CorrectCommission	0.761663	0.816091	0	0
212.045914	0.792335	city	6	1	0.648610	0.648610	0	1	0	0	CorrectCommission	0.266176	0.835960	0	0
212.838226	0.792299	city	1	1	0.515201	0.515201	0	1	0	0	CorrectCommission	1.691355	0.850214	0	0
213.630463	0.792158	city	7	1	0.556070	0.556070	0	1	0	0	CorrectCommission	1.254757	0.858072	0	0
214.422668	0.792263	city	3	1	0.556407	0.556407	0	1	0	0	CorrectCommission	1.251150	0.859625	0	0
215.215042	0.792482	city	1	1	0.563311	0.563311	0	1	0	0	CorrectCommission	1.177397	0.855862	0	0
216.007309	0.792046	city	8	1	0.546633	0.546633	0	1	0	0	CorrectCommission	1.355570	0.848606	0	0
216.799454	0.792266	city	7	1	0.707028	0.707028	0	1	0	0	CorrectCommission	0.357899	0.840228	0	0
217.591721	0.792267	mountain	3	0	0.000000	0.680634	1	0	0	0	CorrectOmission	0.075935	0.833318	0	0
218.384003	0.792289	city	1	1	0.599656	0.599656	0	1	0	0	CorrectCommission	0.789131	0.830289	0	0
219.176300	0.792292	city	8	1	0.596302	0.596302	0	1	0	0	CorrectCommission	0.824970	0.832963	0	0
219.968552	0.792210	city	7	1	0.697896	0.697896	0	1	0	0	CorrectCommission	0.260337	0.842364	0	0
220.760895	0.792482	city	1	1	0.695461	0.695461	0	1	0	0	CorrectCommission	0.234331	0.858559	0	0
221.553207	0.792156	city	3	1	0.794533	0.794533	0	1	0	0	CorrectCommission	1.292697	0.880668	0	0
222.345398	0.792209	city	7	1	0.650101	0.650101	0	1	0	0	CorrectCommission	0.250246	0.907040	0	0
223.137604	0.792210	city	3	1	0.513527	0.513527	0	1	0	0	CorrectCommission	1.709232	0.935537	0	0
223.929840	0.792269	city	1	1	0.560577	0.560577	0	1	0	0	CorrectCommission	1.206612	0.963785	0	0
224.722214	0.792481	city	8	1	0.560591	0.560591	0	1	0	0	CorrectCommission	1.206455	0.989516	0	0
225.514481	0.792058	city	5	1	0.551624	0.551624	0	1	0	0	CorrectCommission	1.302248	1.010809	0	0
226.306702	0.792361	city	8	1	0.645884	0.645884	0	1	0	0	CorrectCommission	0.295291	1.026278	0	0
227.098953	0.792162	city	5	1	0.551588	0.551588	0	1	0	0	CorrectCommission	1.302641	1.035179	0	0
227.891281	0.792476	city	9	1	0.503368	0.503368	0	1	0	0	CorrectCommission	1.817757	1.037354	0	0
228.683578	0.792117	city	8	1	0.501850	0.501850	0	1	0	0	CorrectCommission	1.833981	1.033208	0	0
229.475723	0.792194	city	3	1	0.645749	0.645749	0	1	0	0	CorrectCommission	0.296739	1.023590	0	0
230.268066	0.792485	city	4	1	0.652816	0.652816	0	1	0	0	CorrectCommission	0.221240	1.009644	0	0
231.060394	0.792153	city	1	1	0.551317	0.551317	0	1	0	0	CorrectCommission	1.305532	0.992633	0	0
231.852539	0.792158	city	3	1	0.558561	0.558561	0	1	0	0	CorrectCommission	1.228144	0.973813	0	0
232.644760	0.792264	city	7	1	0.744852	0.744852	0	1	0	0	CorrectCommission	0.761960	0.954344	0	0
233.437042	0.792324	city	3	1	0.843921	0.843921	0	1	0	0	CorrectCommission	1.820293	0.935207	0	0
234.229370	0.792314	city	10	1	0.748078	0.748078	0	1	0	0	CorrectCommission	0.796428	0.917179	0	0
235.021713	0.792375	city	7	1	0.652236	0.652236	0	1	0	0	CorrectCommission	0.227431	0.900809	0	0
235.813919	0.792048	city	9	1	0.645908	0.645908	0	1	0	0	CorrectCommission	0.295033	0.886440	0	0
236.606094	0.792307	city	6	1	0.596228	0.596228	0	1	0	0	CorrectCommission	0.825760	0.874287	0	0
237.398468	0.792439	mountain	10	1	0.568819	0.568819	0	0	1	0	CommissionError	1.118565	0.864536	0	0
238.190720	0.792045	city	1	1	0.596034	0.596034	0	1	0	0	CorrectCommission	0.827827	0.857495	0	0
238.982925	0.792375	city	7	1	0.497150	0.497150	0	1	0	0	CorrectCommission	1.884189	0.853678	0	0
239.775192	0.792155	city	10	1	0.645687	0.645687	0	1	0	0	CorrectCommission	0.297394	0.853833	0	0
240.567459	0.792375	city	5	1	0.609810	0.609810	0	1	0	0	CorrectCommission	0.680658	0.858956	0	0
241.359726	0.792175	city	4	1	0.602975	0.602975	0	1	0	0	CorrectCommission	0.753678	0.870091	0	0
242.151962	0.792283	city	7	1	0.744796	0.744796	0	1	0	0	CorrectCommission	0.761368	0.888130	0	0
242.944275	0.792337	city	8	1	0.560674	0.560674	0	1	0	0	CorrectCommission	1.205577	0.913494	0	0
243.736572	0.792264	mountain	3	0	0.000000	0.605001	1	0	0	0	CorrectOmission	0.732034	0.945902	0	0
244.528778	0.792161	city	5	1	0.695085	0.695085	0	1	0	0	CorrectCommission	0.230307	0.984152	0	0
245.320999	0.792264	city	9	1	0.648229	0.648229	0	1	0	0	CorrectCommission	0.270243	1.026057	0	0
246.113251	0.792262	mountain	8	0	0.000000	0.751664	1	0	0	0	CorrectOmission	0.834728	1.068553	0	1
246.905579	0.792372	city	4	1	0.803343	0.803343	0	1	0	0	CorrectCommission	1.386804	1.108035	0	1
247.697845	0.792158	city	7	1	0.601220	0.601220	0	1	0	0	CorrectCommission	0.772429	1.140804	0	1
248.490051	0.792266	mountain	7	1	0.794480	0.794480	0	0	1	0	CommissionError	1.292122	1.163626	0	1
249.282425	0.792481	city	9	1	1.056179	1.056179	0	1	0	0	CorrectCommission	4.087799	1.174222	0	1
250.074692	0.792047	city	6	0	0.000000	0.845071	0	0	0	1	OmissionError	1.832579	1.171596	0	1
250.866837	0.792263	city	1	1	0.546751	0.546751	0	1	0	0	CorrectCommission	1.354313	1.156277	0	1
251.659103	0.792266	city	8	1	0.546812	0.546812	0	1	0	0	CorrectCommission	1.353654	1.130064	0	1
252.451370	0.792268	city	9	1	0.695431	0.695431	0	1	0	0	CorrectCommission	0.234004	1.095687	0	1
253.243637	0.792263	city	1	1	0.695347	0.695347	0	1	0	0	CorrectCommission	0.233108	1.056314	0	1
254.035904	0.792265	city	9	1	0.744940	0.744940	0	1	0	0	CorrectCommission	0.762903	1.014961	0	1
254.828171	0.792263	city	5	1	0.697267	0.697267	0	1	0	0	CorrectCommission	0.253621	0.974120	0	1
255.620544	0.792480	city	7	1	0.744819	0.744819	0	1	0	0	CorrectCommission	0.761607	0.935530	0	1
256.412811	0.792048	mountain	6	0	0.000000	0.827056	1	0	0	0	CorrectOmission	1.640128	0.900069	0	1
257.204987	0.792335	city	4	1	0.843894	0.843894	0	1	0	0	CorrectCommission	1.820007	0.867951	0	1
257.997253	0.792195	city	7	1	0.695249	0.695249	0	1	0	0	CorrectCommission	0.232066	0.838946	0	1
258.789520	0.792316	city	9	1	0.610698	0.610698	0	1	0	0	CorrectCommission	0.671176	0.812667	0	1
259.581787	0.792215	city	6	1	0.596369	0.596369	0	1	0	0	CorrectCommission	0.824247	0.788721	0	1
260.374115	0.792481	city	1	1	0.596263	0.596263	0	1	0	0	CorrectCommission	0.825386	0.766873	0	1
261.166443	0.792157	city	4	1	0.596100	0.596100	0	1	0	0	CorrectCommission	0.827128	0.747099	0	1
261.958618	0.792154	city	5	1	0.596336	0.596336	0	1	0	0	CorrectCommission	0.824608	0.729531	1	1
262.750854	0.792375	city	2	1	0.645938	0.645938	0	1	0	0	CorrectCommission	0.294717	0.714366	1	1
263.543121	0.792158	city	4	1	0.646123	0.646123	0	1	0	0	CorrectCommission	0.292736	0.701753	1	1
264.335449	0.792480	city	10	1	0.596285	0.596285	0	1	0	0	CorrectCommission	0.825147	0.691663	1	1
265.127716	0.792048	city	3	1	0.598993	0.598993	0	1	0	0	CorrectCommission	0.796216	0.683850	1	1
265.919861	0.792262	city	1	1	0.744811	0.744811	0	1	0	0	CorrectCommission	0.761525	0.677877	1	1
266.712128	0.792266	city	8	1	0.649275	0.649275	0	1	0	0	CorrectCommission	0.259070	0.673096	1	1
267.504425	0.792314	city	7	1	0.754697	0.754697	0	1	0	0	CorrectCommission	0.867131	0.668831	1	1
268.296753	0.792323	mountain	1	0	0.000000	0.766617	1	0	0	0	CorrectOmission	0.994477	0.664418	1	1
269.088989	0.792193	city	8	1	0.695149	0.695149	0	1	0	0	CorrectCommission	0.231000	0.659320	1	1
269.881226	0.792228	city	5	1	0.550405	0.550405	0	1	0	0	CorrectCommission	1.315269	0.653238	1	1
270.673462	0.792266	city	2	1	0.601377	0.601377	0	1	0	0	CorrectCommission	0.770754	0.646030	1	1
271.465729	0.792263	city	3	1	0.648126	0.648126	0	1	0	0	CorrectCommission	0.271343	0.637767	1	1
272.257996	0.792265	city	8	1	0.704487	0.704487	0	1	0	0	CorrectCommission	0.330751	0.628657	1	1
273.050262	0.792267	city	1	1	0.596364	0.596364	0	1	0	0	CorrectCommission	0.824299	0.618958	1	1
273.842529	0.792260	city	10	1	0.744764	0.744764	0	1	0	0	CorrectCommission	0.761024	0.608889	1	1
274.634827	0.792376	city	2	1	0.596314	0.596314	0	1	0	0	CorrectCommission	0.824841	0.598600	1	1
275.427155	0.792266	city	9	1	0.652081	0.652081	0	1	0	0	CorrectCommission	0.229096	0.588161	1	1
276.219360	0.792157	city	10	1	0.701799	0.701799	0	1	0	0	CorrectCommission	0.302040	0.577571	1	1
277.011597	0.792319	city	8	1	0.695316	0.695316	0	1	0	0	CorrectCommission	0.232779	0.566807	1	1
277.803894	0.792256	mountain	7	0	0.000000	0.751976	1	0	0	0	CorrectOmission	0.838067	0.555924	1	1
278.596130	0.792203	city	2	1	0.794344	0.794344	0	1	0	0	CorrectCommission	1.290672	0.545113	1	1
279.388367	0.792292	city	9	1	0.744983	0.744983	0	1	0	0	CorrectCommission	0.763363	0.534806	1	1
280.180756	0.792469	city	5	1	0.695290	0.695290	0	1	0	0	CorrectCommission	0.232496	0.525701	1	1
280.973053	0.792156	city	3	1	0.709138	0.709138	0	1	0	0	CorrectCommission	0.380431	0.518710	1	1
281.765320	0.792372	city	1	1	0.707717	0.707717	0	1	0	0	CorrectCommission	0.365253	0.514836	1	1
282.557556	0.792051	city	8	1	0.695090	0.695090	0	1	0	0	CorrectCommission	0.230363	0.515070	1	1
283.349762	0.792371	city	10	1	0.649026	0.649026	0	1	0	0	CorrectCommission	0.261723	0.520222	1	1
284.142029	0.792155	city	1	1	0.648657	0.648657	0	1	0	0	CorrectCommission	0.265669	0.530807	1	1
284.934265	0.792372	city	3	1	0.794216	0.794216	0	1	0	0	CorrectCommission	1.289304	0.546875	1	1
285.726593	0.792266	city	6	1	0.700609	0.700609	0	1	0	0	CorrectCommission	0.289325	0.567970	1	1
286.518799	0.792159	city	4	1	0.659942	0.659942	0	1	0	0	CorrectCommission	0.145110	0.593151	1	1
287.311035	0.792266	city	5	1	0.650308	0.650308	0	1	0	0	CorrectCommission	0.248036	0.620996	1	1
288.103271	0.792263	city	6	1	0.745159	0.745159	0	1	0	0	CorrectCommission	0.765245	0.649764	1	1
288.895538	0.792268	city	7	1	0.753416	0.753416	0	1	0	0	CorrectCommission	0.853445	0.677551	1	1
289.687836	0.792327	mountain	9	0	0.000000	0.746726	1	0	0	0	CorrectOmission	0.781978	0.702547	1	1
290.480103	0.792200	city	4	1	0.744722	0.744722	0	1	0	0	CorrectCommission	0.760575	0.723218	1	1
291.272369	0.792290	mountain	4	0	0.000000	0.767038	1	0	0	0	CorrectOmission	0.998967	0.738540	0	1
292.064636	0.792239	city	4	1	0.795870	0.795870	0	1	0	0	CorrectCommission	1.306975	0.748099	0	1
292.856873	0.792262	city	7	1	0.813416	0.813416	0	1	0	0	CorrectCommission	1.494420	0.752147	0	1
293.649200	0.792373	city	10	1	0.695283	0.695283	0	1	0	0	CorrectCommission	0.232429	0.751505	0	1
294.441467	0.792158	city	1	1	0.596162	0.596162	0	1	0	0	CorrectCommission	0.826463	0.747428	0	1
295.233673	0.792263	city	2	1	0.607715	0.607715	0	1	0	0	CorrectCommission	0.703043	0.741269	0	1
296.025940	0.792282	city	1	1	0.612432	0.612432	0	1	0	0	CorrectCommission	0.652651	0.734284	0	1
296.818207	0.792251	city	4	1	0.654906	0.654906	0	1	0	0	CorrectCommission	0.198914	0.727376	1	1
297.610565	0.792491	city	6	1	0.695311	0.695311	0	1	0	0	CorrectCommission	0.232723	0.720982	1	1
298.402893	0.792145	city	7	1	0.663494	0.663494	0	1	0	0	CorrectCommission	0.107170	0.715015	1	1
299.195038	0.792156	city	10	1	0.511513	0.511513	0	1	0	0	CorrectCommission	1.730750	0.708981	1	1
299.987366	0.792484	city	6	1	0.596273	0.596273	0	1	0	0	CorrectCommission	0.825276	0.702106	1	1
300.779633	0.792046	city	3	1	0.507562	0.507562	0	1	0	0	CorrectCommission	1.772953	0.693650	1	1
301.571808	0.792324	city	7	1	0.695306	0.695306	0	1	0	0	CorrectCommission	0.232675	0.683006	1	1
302.364075	0.792209	city	10	1	0.695237	0.695237	0	1	0	0	CorrectCommission	0.231938	0.669938	1	1
303.156342	0.792315	city	6	1	0.747551	0.747551	0	1	0	0	CorrectCommission	0.790794	0.654623	1	1
303.948608	0.792213	city	1	1	0.645641	0.645641	0	1	0	0	CorrectCommission	0.297885	0.637701	1	1
304.740906	0.792372	city	8	1	0.548754	0.548754	0	1	0	0	CorrectCommission	1.332913	0.620248	1	1
305.533173	0.792157	city	5	1	0.645666	0.645666	0	1	0	0	CorrectCommission	0.297622	0.603639	1	0
306.325470	0.792480	city	4	1	0.754006	0.754006	0	1	0	0	CorrectCommission	0.859750	0.589502	1	0
307.117859	0.792265	city	8	1	0.645536	0.645536	0	1	0	0	CorrectCommission	0.299008	0.579485	1	0
307.910004	0.792046	city	2	1	0.712342	0.712342	0	1	0	0	CorrectCommission	0.414660	0.575120	1	0
308.702179	0.792266	city	5	1	0.656331	0.656331	0	1	0	0	CorrectCommission	0.183687	0.577591	1	0
309.494446	0.792264	city	4	1	0.617191	0.617191	0	1	0	0	CorrectCommission	0.601815	0.587570	1	0
310.286713	0.792268	city	8	1	0.695488	0.695488	0	1	0	0	CorrectCommission	0.234620	0.605011	1	0
311.078949	0.792263	city	9	1	0.765156	0.765156	0	1	0	0	CorrectCommission	0.978867	0.629116	1	0
311.871216	0.792264	city	1	1	0.706973	0.706973	0	1	0	0	CorrectCommission	0.357305	0.658215	1	0
312.663544	0.792372	city	5	1	0.645810	0.645810	0	1	0	0	CorrectCommission	0.296088	0.689913	1	0
313.455811	0.792160	city	7	1	0.648352	0.648352	0	1	0	0	CorrectCommission	0.268931	0.721220	1	0
314.248138	0.792479	city	5	1	0.603077	0.603077	0	1	0	0	CorrectCommission	0.752589	0.748868	0	0
315.040405	0.792050	city	9	1	0.744603	0.744603	0	1	0	0	CorrectCommission	0.759298	0.769656	0	0
315.832550	0.792264	city	8	1	0.858653	0.858653	0	1	0	0	CorrectCommission	1.977674	0.780905	0	0
316.624817	0.792263	city	7	1	0.814578	0.814578	0	1	0	0	CorrectCommission	1.506828	0.780744	0	0
317.417175	0.792480	mountain	4	0	0.000000	0.802697	1	0	0	0	CorrectOmission	1.379908	0.768471	0	0
318.209442	0.792047	city	5	1	0.744759	0.744759	0	1	0	0	CorrectCommission	0.760965	0.744603	0	0
319.001709	0.792482	city	1	1	0.562510	0.562510	0	1	0	0	CorrectCommission	1.185955	0.710857	1	0
319.794098	0.792266	city	8	1	0.612994	0.612994	0	1	0	0	CorrectCommission	0.646651	0.669875	1	0
320.586243	0.792048	mountain	4	0	0.000000	0.670941	1	0	0	0	CorrectOmission	0.027618	0.624890	1	0
321.378510	0.792480	city	6	1	0.695442	0.695442	0	1	0	0	CorrectCommission	0.234129	0.579317	1	0
322.170776	0.792046	city	4	1	0.645590	0.645590	0	1	0	0	CorrectCommission	0.298429	0.536317	1	0
322.962952	0.792333	city	10	1	0.696035	0.696035	0	1	0	0	CorrectCommission	0.240460	0.498545	1	0
323.755219	0.792201	city	9	1	0.695301	0.695301	0	1	0	0	CorrectCommission	0.232621	0.467945	1	0
324.547516	0.792369	city	4	1	0.616706	0.616706	0	1	0	0	CorrectCommission	0.606994	0.445700	1	0
325.339844	0.792265	city	5	1	0.661673	0.661673	0	1	0	0	CorrectCommission	0.126619	0.432236	1	0
326.132080	0.792226	city	9	1	0.744687	0.744687	0	1	0	0	CorrectCommission	0.760194	0.427395	1	0
326.924286	0.792193	city	8	1	0.702764	0.702764	0	1	0	0	CorrectCommission	0.312347	0.430523	1	0
327.716522	0.792265	city	4	1	0.646749	0.646749	0	1	0	0	CorrectCommission	0.286054	0.440699	1	0
328.508789	0.792266	city	5	1	0.661444	0.661444	0	1	0	0	CorrectCommission	0.129065	0.456851	1	0
329.301056	0.792291	mountain	6	0	0.000000	0.669434	1	0	0	0	CorrectOmission	0.043714	0.477918	1	0
330.093323	0.792239	city	2	1	0.645765	0.645765	0	1	0	0	CorrectCommission	0.296565	0.502959	1	0
330.885590	0.792264	city	10	1	0.565485	0.565485	0	1	0	0	CorrectCommission	1.154182	0.531250	1	0
331.677948	0.792482	city	2	1	0.794365	0.794365	0	1	0	0	CorrectCommission	1.290894	0.562321	1	0
332.470215	0.792049	city	6	1	0.645686	0.645686	0	1	0	0	CorrectCommission	0.297403	0.596057	1	0
333.262482	0.792480	city	4	1	0.707691	0.707691	0	1	0	0	CorrectCommission	0.364974	0.632719	1	0
334.054749	0.792049	city	9	1	0.695086	0.695086	0	1	0	0	CorrectCommission	0.230326	0.672871	1	0
334.846924	0.792323	city	2	1	0.744786	0.744786	0	1	0	0	CorrectCommission	0.761257	0.717383	1	0
335.639191	0.792206	mountain	5	0	0.000000	0.771280	1	0	0	0	CorrectOmission	1.044281	0.767399	0	0
336.431488	0.792372	city	2	1	0.747359	0.747359	0	1	0	0	CorrectCommission	0.788740	0.824206	0	0
337.223755	0.792159	city	7	1	0.645816	0.645816	0	1	0	0	CorrectCommission	0.296024	0.889175	0	0
338.016022	0.792370	city	9	1	0.646263	0.646263	0	1	0	0	CorrectCommission	0.291245	0.963590	0	0
338.808319	0.792230	city	5	1	0.546861	0.546861	0	1	0	0	CorrectCommission	1.353131	1.048394	0	0
339.600555	0.792225	city	3	1	0.497167	0.497167	0	1	0	0	CorrectCommission	1.884003	1.143913	0	0
340.392883	0.792448	city	9	1	0.565618	0.565618	0	1	0	0	CorrectCommission	1.152756	1.249578	0	0
341.185120	0.792053	city	2	1	0.561250	0.561250	0	1	0	0	CorrectCommission	1.199419	1.363604	0	0
341.977325	0.792345	city	4	1	0.614092	0.614092	0	1	0	0	CorrectCommission	0.634922	1.482707	0	0
342.769623	0.792252	city	6	1	0.645709	0.645709	0	1	0	0	CorrectCommission	0.297167	1.602081	0	0
343.561859	0.792194	city	7	1	0.553600	0.553600	0	1	0	0	CorrectCommission	1.281141	1.715537	0	0
344.354187	0.792482	city	9	1	0.504155	0.504155	0	1	0	0	CorrectCommission	1.809347	1.815946	0	0
345.146576	0.792264	city	6	1	0.419715	0.419715	0	1	0	0	CorrectCommission	2.711409	1.896013	0	0
345.938721	0.792047	city	5	1	0.366406	0.366406	0	1	0	0	CorrectCommission	3.280896	1.949159	0	0
346.730865	0.792262	city	2	1	0.959160	0.959160	0	1	0	0	CorrectCommission	3.051368	1.970457	0	0
347.523132	0.792271	city	1	1	1.001507	1.001507	0	1	0	0	CorrectCommission	3.503752	1.957426	0	0
348.315399	0.792270	city	3	1	1.107551	1.107551	0	1	0	0	CorrectCommission	4.636592	1.910456	0	0
349.107666	0.792259	city	4	0	0.000000	0.884368	0	0	0	1	OmissionError	2.252375	1.832850	0	0
349.899933	0.792262	city	8	1	0.597864	0.597864	0	1	0	0	CorrectCommission	0.808280	1.730533	0	0
350.692261	0.792372	mountain	2	1	0.513946	0.513946	0	0	1	0	CommissionError	1.704756	1.611169	0	0
351.484528	0.792156	city	2	1	0.645668	0.645668	0	1	0	0	CorrectCommission	0.297596	1.483145	0	0
352.276764	0.792343	city	6	1	0.597009	0.597009	0	1	0	0	CorrectCommission	0.817417	1.354654	0	0
353.069061	0.792243	city	4	1	0.596251	0.596251	0	1	0	0	CorrectCommission	0.825509	1.232688	0	0
353.861389	0.792427	city	9	1	0.646729	0.646729	0	1	0	0	CorrectCommission	0.286270	1.122522	0	0
354.653748	0.792266	city	4	1	0.645577	0.645577	0	1	0	0	CorrectCommission	0.298574	1.027387	0	0
355.445892	0.792046	city	8	1	0.557975	0.557975	0	1	0	0	CorrectCommission	1.234409	0.948540	0	0
356.238068	0.792274	city	3	1	0.556333	0.556333	0	1	0	0	CorrectCommission	1.251948	0.885549	0	0
357.030426	0.792474	mountain	3	0	0.000000	0.586407	1	0	0	0	CorrectOmission	0.930669	0.836786	0	0
357.822723	0.792100	city	9	1	0.615559	0.615559	0	1	0	0	CorrectCommission	0.619243	0.799966	0	0
358.614990	0.792430	mountain	7	1	0.611151	0.611151	0	0	1	0	CommissionError	0.666341	0.772604	0	0
359.407227	0.792046	mountain	8	0	0.000000	0.673565	1	0	0	0	CorrectOmission	0.000423	0.752379	0	0
360.199493	0.792483	city	10	1	0.753345	0.753345	0	1	0	0	CorrectCommission	0.852694	0.737403	0	0
360.991760	0.792046	mountain	1	0	0.000000	0.801032	1	0	0	0	CorrectOmission	1.362119	0.726240	1	0
361.783997	0.792482	city	6	1	0.766472	0.766472	0	1	0	0	CorrectCommission	0.992927	0.717918	1	0
362.576263	0.792047	city	10	1	0.599514	0.599514	0	1	0	0	CorrectCommission	0.790654	0.711811	1	0
363.368500	0.792376	city	5	1	0.649672	0.649672	0	1	0	0	CorrectCommission	0.254827	0.707434	1	0
364.160767	0.792159	city	9	1	0.657568	0.657568	0	1	0	0	CorrectCommission	0.170471	0.704285	1	0
364.953003	0.792370	city	6	1	0.744807	0.744807	0	1	0	0	CorrectCommission	0.761478	0.701692	1	1
365.745270	0.792164	city	4	1	0.744691	0.744691	0	1	0	0	CorrectCommission	0.760243	0.698751	1	1
366.537506	0.792260	city	6	1	0.695259	0.695259	0	1	0	0	CorrectCommission	0.232165	0.694394	1	1
367.329773	0.792264	city	8	1	0.547023	0.547023	0	1	0	0	CorrectCommission	1.351404	0.687542	1	1
368.122070	0.792370	city	7	1	0.648434	0.648434	0	1	0	0	CorrectCommission	0.268049	0.677192	1	1
368.914368	0.792185	city	5	1	0.497175	0.497175	0	1	0	0	CorrectCommission	1.883922	0.662740	1	1
369.706665	0.792453	mountain	9	1	0.695535	0.695535	0	0	1	0	CommissionError	0.235116	0.644027	1	1
370.498932	0.792046	city	5	1	0.744595	0.744595	0	1	0	0	CorrectCommission	0.759216	0.621555	1	1
371.291199	0.792483	city	6	1	0.794424	0.794424	0	1	0	0	CorrectCommission	1.291530	0.596367	1	1
372.083466	0.792049	city	8	1	0.701887	0.701887	0	1	0	0	CorrectCommission	0.302971	0.569955	1	1
372.875732	0.792481	city	6	1	0.646466	0.646466	0	1	0	0	CorrectCommission	0.289075	0.544081	1	1
373.667969	0.792048	city	1	1	0.646388	0.646388	0	1	0	0	CorrectCommission	0.289908	0.520480	1	1
374.460144	0.792263	mountain	5	0	0.000000	0.680116	1	0	0	0	CorrectOmission	0.070401	0.500640	1	1
375.252502	0.792482	city	3	1	0.709168	0.709168	0	1	0	0	CorrectCommission	0.380755	0.485612	1	1
376.044830	0.792155	city	7	1	0.695062	0.695062	0	1	0	0	CorrectCommission	0.230062	0.475865	1	1
376.836975	0.792160	city	6	1	0.645849	0.645849	0	1	0	0	CorrectCommission	0.295662	0.471339	1	1
377.629211	0.792263	city	4	1	0.613425	0.613425	0	1	0	0	CorrectCommission	0.642042	0.471479	1	1
378.421448	0.792265	city	6	1	0.744826	0.744826	0	1	0	0	CorrectCommission	0.761686	0.475415	1	1
379.213837	0.792480	city	3	1	0.695310	0.695310	0	1	0	0	CorrectCommission	0.232714	0.482163	1	1
380.006195	0.792265	city	9	1	0.659230	0.659230	0	1	0	0	CorrectCommission	0.152717	0.490802	1	1
380.798370	0.792061	city	8	1	0.546539	0.546539	0	1	0	0	CorrectCommission	1.356576	0.500612	1	1
381.590515	0.792250	city	7	1	0.695323	0.695323	0	1	0	0	CorrectCommission	0.232848	0.511126	1	1
382.382782	0.792265	city	5	1	0.597275	0.597275	0	1	0	0	CorrectCommission	0.814568	0.522195	1	1
383.175049	0.792269	city	9	1	0.616307	0.616307	0	1	0	0	CorrectCommission	0.611256	0.533838	1	1
383.967438	0.792479	mountain	5	0	0.000000	0.673557	1	0	0	0	CorrectOmission	0.000329	0.546216	1	1
384.759796	0.792264	city	4	1	0.695258	0.695258	0	1	0	0	CorrectCommission	0.232156	0.559500	1	1
385.552002	0.792156	city	5	1	0.607643	0.607643	0	1	0	0	CorrectCommission	0.703809	0.573804	1	1
386.344177	0.792158	city	9	1	0.611133	0.611133	0	1	0	0	CorrectCommission	0.666524	0.589097	1	1
387.136475	0.792480	city	3	1	0.645896	0.645896	0	1	0	0	CorrectCommission	0.295164	0.605283	1	1
387.928802	0.792155	city	2	1	0.754271	0.754271	0	1	0	0	CorrectCommission	0.862584	0.622220	1	1
388.720947	0.792157	city	6	1	0.745356	0.745356	0	1	0	0	CorrectCommission	0.767342	0.639738	1	1
389.513153	0.792264	mountain	4	0	0.000000	0.769392	1	0	0	0	CorrectOmission	1.024120	0.657703	1	1
390.305481	0.792373	city	7	1	0.760729	0.760729	0	1	0	0	CorrectCommission	0.931567	0.676028	1	1
391.097778	0.792202	city	2	1	0.653712	0.653712	0	1	0	0	CorrectCommission	0.211668	0.694623	1	1
391.890045	0.792329	city	6	1	0.744876	0.744876	0	1	0	0	CorrectCommission	0.762214	0.713362	1	1
392.682281	0.792155	city	10	1	0.645636	0.645636	0	1	0	0	CorrectCommission	0.297945	0.731964	1	1
393.474609	0.792482	city	8	1	0.597400	0.597400	0	1	0	0	CorrectCommission	0.813237	0.749983	0	1
394.266876	0.792054	city	7	1	0.598736	0.598736	0	1	0	0	CorrectCommission	0.798960	0.766787	0	1
395.059021	0.792258	city	5	1	0.646871	0.646871	0	1	0	0	CorrectCommission	0.284747	0.781624	0	1
395.851288	0.792268	city	4	1	0.744992	0.744992	0	1	0	0	CorrectCommission	0.763457	0.793733	0	1
396.643555	0.792261	mountain	8	0	0.000000	0.824276	1	0	0	0	CorrectOmission	1.610435	0.802438	0	1
397.435883	0.792373	city	7	1	0.843955	0.843955	0	1	0	0	CorrectCommission	1.820661	0.807272	0	1
398.228180	0.792264	city	6	1	0.763260	0.763260	0	1	0	0	CorrectCommission	0.958606	0.808039	0	1
399.020416	0.792176	city	9	1	0.695551	0.695551	0	1	0	0	CorrectCommission	0.235294	0.804854	0	1
399.812683	0.792353	mountain	2	0	0.000000	0.724528	1	0	0	0	CorrectOmission	0.544839	0.798046	0	1
400.605072	0.792428	city	10	1	0.745177	0.745177	0	1	0	0	CorrectCommission	0.765431	0.788076	0	1
401.397278	0.791995	city	8	1	0.652488	0.652488	0	1	0	0	CorrectCommission	0.224743	0.775578	0	1
402.189392	0.792262	city	10	1	0.709657	0.709657	0	1	0	0	CorrectCommission	0.385983	0.761339	0	1
402.981659	0.792267	mountain	6	0	0.000000	0.811077	1	0	0	0	CorrectOmission	1.469429	0.746373	0	1
403.773956	0.792301	city	3	1	0.843925	0.843925	0	1	0	0	CorrectCommission	1.820340	0.731982	1	1
404.566254	0.792290	city	9	1	0.695380	0.695380	0	1	0	0	CorrectCommission	0.233460	0.719851	1	1
405.358612	0.792418	city	10	1	0.596443	0.596443	0	1	0	0	CorrectCommission	0.823456	0.712041	1	1
406.150848	0.792050	city	5	1	0.695215	0.695215	0	1	0	0	CorrectCommission	0.231695	0.710830	1	1
406.942993	0.792277	city	2	1	0.744885	0.744885	0	1	0	0	CorrectCommission	0.762318	0.718525	1	1
407.735260	0.792275	city	9	1	0.746520	0.746520	0	1	0	0	CorrectCommission	0.779779	0.737115	0	1
408.527527	0.792239	city	1	1	0.697772	0.697772	0	1	0	0	CorrectCommission	0.259020	0.767910	0	1
409.319794	0.792265	city	2	1	0.646310	0.646310	0	1	0	0	CorrectCommission	0.290740	0.811190	0	1
410.112061	0.792307	city	8	1	0.645751	0.645751	0	1	0	0	CorrectCommission	0.296718	0.865982	0	1
410.904327	0.792222	city	9	1	0.653951	0.653951	0	1	0	0	CorrectCommission	0.209115	0.929959	0	1
411.696625	0.792373	city	10	1	0.698374	0.698374	0	1	0	0	CorrectCommission	0.265450	0.999633	0	1
412.488953	0.792266	city	2	1	0.744723	0.744723	0	1	0	0	CorrectCommission	0.760582	1.070662	0	1
413.281158	0.792157	city	6	1	0.893228	0.893228	0	1	0	0	CorrectCommission	2.347027	1.138371	0	1
414.073364	0.792262	city	9	1	0.944257	0.944257	0	1	0	0	CorrectCommission	2.892156	1.198326	0	1
414.865662	0.792297	city	6	1	0.893818	0.893818	0	1	0	0	CorrectCommission	2.353335	1.246934	0	1
415.657959	0.792316	city	7	1	0.716467	0.716467	0	1	0	0	CorrectCommission	0.458734	1.281876	0	1
416.450195	0.792186	city	5	1	0.549649	0.549649	0	1	0	0	CorrectCommission	1.323353	1.302382	0	1
417.242432	0.792261	city	6	1	0.744801	0.744801	0	1	0	0	CorrectCommission	0.761414	1.309203	0	1
418.034698	0.792266	city	1	1	0.893366	0.893366	0	1	0	0	CorrectCommission	2.348502	1.304528	0	1
418.826965	0.792264	city	10	0	0.000000	0.885088	0	0	0	1	OmissionError	2.260071	1.291606	0	1
419.619232	0.792264	city	9	1	0.794340	0.794340	0	1	0	0	CorrectCommission	1.290631	1.274327	0	1
420.411499	0.792283	city	5	1	0.695495	0.695495	0	1	0	0	CorrectCommission	0.234692	1.256700	0	1
421.203827	0.792355	city	10	1	0.744987	0.744987	0	1	0	0	CorrectCommission	0.763405	1.242292	0	1
421.996063	0.792157	city	7	1	0.744734	0.744734	0	1	0	0	CorrectCommission	0.760700	1.233766	0	1
422.788330	0.792373	city	4	1	0.843859	0.843859	0	1	0	0	CorrectCommission	1.819635	1.232543	0	1
423.580597	0.792156	city	5	1	0.744740	0.744740	0	1	0	0	CorrectCommission	0.760762	1.238582	0	1
424.372803	0.792263	city	7	1	0.645905	0.645905	0	1	0	0	CorrectCommission	0.295065	1.250454	0	0
425.165070	0.792268	city	6	1	0.794314	0.794314	0	1	0	0	CorrectCommission	1.290352	1.265480	0	0
425.957336	0.792264	city	5	1	0.752902	0.752902	0	1	0	0	CorrectCommission	0.847959	1.280126	0	0
426.749664	0.792373	city	6	1	0.894338	0.894338	0	1	0	0	CorrectCommission	2.358890	1.290568	0	0
427.541931	0.792155	city	3	1	0.794188	0.794188	0	1	0	0	CorrectCommission	1.289002	1.293167	0	0
428.334259	0.792482	city	7	1	0.803555	0.803555	0	1	0	0	CorrectCommission	1.389074	1.285107	0	0
429.126617	0.792264	mountain	4	0	0.000000	0.899872	1	0	0	0	CorrectOmission	2.418005	1.264689	0	0
429.918823	0.792157	city	4	1	0.947344	0.947344	0	1	0	0	CorrectCommission	2.925134	1.231558	0	0
430.711090	0.792373	city	10	1	0.810176	0.810176	0	1	0	0	CorrectCommission	1.459799	1.186689	0	0
431.503296	0.792047	mountain	6	0	0.000000	0.697056	1	0	0	0	CorrectOmission	0.251370	1.132193	0	0
432.295471	0.792272	city	9	1	0.646073	0.646073	0	1	0	0	CorrectCommission	0.293275	1.070911	0	0
433.087769	0.792366	city	7	1	0.695312	0.695312	0	1	0	0	CorrectCommission	0.232741	1.005984	0	0
433.880066	0.792210	city	6	1	0.794507	0.794507	0	1	0	0	CorrectCommission	1.292409	0.940455	0	0
434.672333	0.792318	city	5	1	0.615109	0.615109	0	1	0	0	CorrectCommission	0.624052	0.877012	0	0
435.464569	0.792155	city	2	1	0.546768	0.546768	0	1	0	0	CorrectCommission	1.354130	0.817888	0	0
436.256775	0.792265	city	4	1	0.599064	0.599064	0	1	0	0	CorrectCommission	0.795458	0.764815	0	0
437.049072	0.792306	mountain	4	0	0.000000	0.701755	1	0	0	0	CorrectOmission	0.301566	0.719203	1	0
437.841339	0.792224	city	5	1	0.751720	0.751720	0	1	0	0	CorrectCommission	0.835326	0.682247	1	0
438.633606	0.792329	city	6	1	0.645837	0.645837	0	1	0	0	CorrectCommission	0.295794	0.654991	1	0
439.425934	0.792310	city	1	1	0.596216	0.596216	0	1	0	0	CorrectCommission	0.825883	0.638446	1	0
440.218170	0.792159	city	3	1	0.695443	0.695443	0	1	0	0	CorrectCommission	0.234134	0.633492	1	0
441.010468	0.792478	city	10	1	0.695533	0.695533	0	1	0	0	CorrectCommission	0.235092	0.640825	1	0
441.802765	0.792109	city	8	1	0.597168	0.597168	0	1	0	0	CorrectCommission	0.815717	0.660758	1	0
442.594971	0.792264	city	6	1	0.652532	0.652532	0	1	0	0	CorrectCommission	0.224269	0.693026	1	0
443.387207	0.792205	city	1	1	0.596240	0.596240	0	1	0	0	CorrectCommission	0.825629	0.736660	0	0
444.179474	0.792371	city	7	1	0.667911	0.667911	0	1	0	0	CorrectCommission	0.059983	0.789809	0	0
444.971771	0.792228	city	10	1	0.695748	0.695748	0	1	0	0	CorrectCommission	0.237392	0.849853	0	0
445.764008	0.792197	city	7	1	0.744768	0.744768	0	1	0	0	CorrectCommission	0.761064	0.913486	0	0
446.556213	0.792262	city	10	1	0.795629	0.795629	0	1	0	0	CorrectCommission	1.304401	0.976996	0	0
447.348480	0.792267	city	9	1	0.843818	0.843818	0	1	0	0	CorrectCommission	1.819194	1.036658	0	0
448.140869	0.792479	city	2	1	0.796680	0.796680	0	1	0	0	CorrectCommission	1.315628	1.089154	0	0
448.933228	0.792265	city	3	1	0.794114	0.794114	0	1	0	0	CorrectCommission	1.288212	1.131998	0	0
449.725433	0.792156	city	1	1	0.812213	0.812213	0	1	0	0	CorrectCommission	1.481561	1.163748	0	0
450.517609	0.792156	city	6	1	0.844336	0.844336	0	1	0	0	CorrectCommission	1.824724	1.184158	0	0
451.309814	0.792269	city	8	1	0.803605	0.803605	0	1	0	0	CorrectCommission	1.389611	1.194116	0	0
452.102081	0.792264	mountain	3	0	0.000000	0.825163	1	0	0	0	CorrectOmission	1.619909	1.195474	0	0
452.894348	0.792264	city	7	1	0.794324	0.794324	0	1	0	0	CorrectCommission	1.290455	1.190578	0	0
453.686707	0.792479	city	4	1	0.596401	0.596401	0	1	0	0	CorrectCommission	0.823912	1.181899	0	0
454.479034	0.792156	city	9	1	0.596083	0.596083	0	1	0	0	CorrectCommission	0.827303	1.171584	0	0
455.271240	0.792227	city	2	1	0.596636	0.596636	0	1	0	0	CorrectCommission	0.821402	1.161121	0	0
456.063446	0.792197	city	7	1	0.645718	0.645718	0	1	0	0	CorrectCommission	0.297066	1.151200	0	0
456.855682	0.792278	city	10	1	0.648280	0.648280	0	1	0	0	CorrectCommission	0.269700	1.141714	0	0
457.647949	0.792251	city	9	1	0.497334	0.497334	0	1	0	0	CorrectCommission	1.882222	1.132016	0	0
458.440247	0.792370	city	2	1	0.497357	0.497357	0	1	0	0	CorrectCommission	1.881971	1.121218	0	0
459.232635	0.792375	city	10	1	0.513704	0.513704	0	1	0	0	CorrectCommission	1.707338	1.108640	0	0
460.024872	0.792108	city	2	1	0.497210	0.497210	0	1	0	0	CorrectCommission	1.883542	1.094078	0	0
460.817017	0.792205	city	9	1	0.546788	0.546788	0	1	0	0	CorrectCommission	1.353915	1.077915	0	0
461.609253	0.792246	city	1	1	0.601197	0.601197	0	1	0	0	CorrectCommission	0.772677	1.061101	0	0
462.401642	0.792526	city	3	1	0.745368	0.745368	0	1	0	0	CorrectCommission	0.767470	1.044897	0	0
463.193939	0.792068	city	9	1	0.660257	0.660257	0	1	0	0	CorrectCommission	0.141750	1.030508	0	0
463.986176	0.792435	city	1	1	0.599907	0.599907	0	1	0	0	CorrectCommission	0.786452	1.018757	0	0
464.778412	0.792047	city	10	1	0.645601	0.645601	0	1	0	0	CorrectCommission	0.298313	1.009825	0	0
465.570587	0.792281	city	2	1	0.646632	0.646632	0	1	0	0	CorrectCommission	0.287302	1.003185	0	0
466.362885	0.792304	city	3	1	0.546794	0.546794	0	1	0	0	CorrectCommission	1.353853	0.997699	0	0
467.155151	0.792232	city	10	1	0.407912	0.407912	0	1	0	0	CorrectCommission	2.837497	0.991860	0	0
467.947388	0.792243	city	2	1	0.554833	0.554833	0	1	0	0	CorrectCommission	1.267975	0.984115	0	0
468.739655	0.792292	mountain	10	1	0.596230	0.596230	0	0	1	0	CommissionError	0.825733	0.973260	0	0
469.531921	0.792240	city	6	1	0.661965	0.661965	0	1	0	0	CorrectCommission	0.123501	0.958621	0	0
470.324219	0.792368	city	1	1	0.549384	0.549384	0	1	0	0	CorrectCommission	1.326185	0.940206	0	0
471.116486	0.792181	mountain	9	1	0.501192	0.501192	0	0	1	0	CommissionError	1.841002	0.918613	0	0
471.908722	0.792240	city	6	1	0.698355	0.698355	0	1	0	0	CorrectCommission	0.265240	0.895012	0	0
472.700958	0.792266	city	9	1	0.596340	0.596340	0	1	0	0	CorrectCommission	0.824564	0.870973	0	0
473.493286	0.792374	city	10	1	0.645976	0.645976	0	1	0	0	CorrectCommission	0.294312	0.848132	0	0
474.285583	0.792206	city	6	1	0.801996	0.801996	0	1	0	0	CorrectCommission	1.372418	0.828109	0	0
475.077820	0.792324	city	3	1	0.609607	0.609607	0	1	0	0	CorrectCommission	0.682827	0.812282	0	0
475.870087	0.792173	city	6	1	0.713297	0.713297	0	1	0	0	CorrectCommission	0.424867	0.801760	0	0
476.662292	0.792246	city	4	1	0.695435	0.695435	0	1	0	0	CorrectCommission	0.234048	0.797339	0	0
477.454559	0.792265	city	1	1	0.596271	0.596271	0	1	0	0	CorrectCommission	0.825300	0.799549	0	0
478.246918	0.792485	city	10	1	0.761019	0.761019	0	1	0	0	CorrectCommission	0.934665	0.808724	0	0
479.039185	0.792051	city	1	1	0.754057	0.754057	0	1	0	0	CorrectCommission	0.860294	0.825077	0	0
479.831360	0.792259	city	4	1	0.843833	0.843833	0	1	0	0	CorrectCommission	1.819353	0.848781	0	0
480.623596	0.792263	city	10	1	0.696079	0.696079	0	1	0	0	CorrectCommission	0.240930	0.879937	0	0
481.415863	0.792268	city	5	1	0.695295	0.695295	0	1	0	0	CorrectCommission	0.232551	0.918590	0	0
482.208130	0.792262	city	7	1	0.603461	0.603461	0	1	0	0	CorrectCommission	0.748491	0.964613	0	0
483.000397	0.792269	city	8	1	0.744873	0.744873	0	1	0	0	CorrectCommission	0.762185	1.017644	0	0
483.792786	0.792479	city	1	1	0.695337	0.695337	0	1	0	0	CorrectCommission	0.233000	1.077052	0	0
484.585083	0.792121	city	8	1	0.846868	0.846868	0	1	0	0	CorrectCommission	1.851780	1.141914	0	0
485.377289	0.792301	city	3	1	0.893273	0.893273	0	1	0	0	CorrectCommission	2.347508	1.211060	0	0
486.169617	0.792372	city	10	1	0.695288	0.695288	0	1	0	0	CorrectCommission	0.232484	1.283144	0	0
486.961884	0.792158	mountain	6	1	0.546520	0.546520	0	0	1	0	CommissionError	1.356775	1.356775	0	0
