onset	duration	trial_type	image_type	Press	ReactionTime	ReactionTime_Interpolated	CorrectOmission	CorrectCommission	CommissionError	OmissionError	response_type	nonsmoothVarianceTimeCourse	VarianceTimeCourse	In_the_Zone	Reward_trial
8.433774	0.792265	city	10	1	0.457813	0.457813	0	1	0	0	CorrectCommission	1.465756	1.465756	0	1
9.226093	0.792374	city	1	1	0.448178	0.448178	0	1	0	0	CorrectCommission	1.566097	1.298018	0	1
10.018413	0.792264	mountain	4	0	0.000000	0.528881	1	0	0	0	CorrectOmission	0.725595	1.136094	0	1
10.810623	0.792158	city	4	1	0.596277	0.596277	0	1	0	0	CorrectCommission	0.023695	0.985365	0	1
11.602833	0.792260	city	10	1	0.546717	0.546717	0	1	0	0	CorrectCommission	0.539842	0.850354	0	1
12.395205	0.792485	city	4	1	0.596326	0.596326	0	1	0	0	CorrectCommission	0.023180	0.734418	0	1
13.187471	0.792047	city	6	1	0.596117	0.596117	0	1	0	0	CorrectCommission	0.025356	0.639655	0	1
13.979641	0.792292	city	9	1	0.559272	0.559272	0	1	0	0	CorrectCommission	0.409093	0.566808	1	1
14.771959	0.792345	city	3	1	0.546684	0.546684	0	1	0	0	CorrectCommission	0.540193	0.515383	1	1
15.564221	0.792180	city	9	1	0.596114	0.596114	0	1	0	0	CorrectCommission	0.025392	0.483843	1	1
16.356485	0.792349	city	6	1	0.551069	0.551069	0	1	0	0	CorrectCommission	0.494520	0.469831	1	1
17.148769	0.792218	city	5	1	0.546770	0.546770	0	1	0	0	CorrectCommission	0.539290	0.470374	1	1
17.940979	0.792203	city	9	1	0.596330	0.596330	0	1	0	0	CorrectCommission	0.023137	0.482146	1	1
18.733213	0.792265	city	2	1	0.646127	0.646127	0	1	0	0	CorrectCommission	0.495479	0.501664	1	1
19.525587	0.792483	city	8	1	0.596538	0.596538	0	1	0	0	CorrectCommission	0.020968	0.525495	1	1
20.317852	0.792047	city	10	1	0.645656	0.645656	0	1	0	0	CorrectCommission	0.490580	0.550471	1	1
21.110010	0.792268	city	1	1	0.699927	0.699927	0	1	0	0	CorrectCommission	1.055792	0.573832	1	1
21.902277	0.792264	city	3	1	0.695280	0.695280	0	1	0	0	CorrectCommission	1.007391	0.593429	0	1
22.694649	0.792481	city	2	1	0.695263	0.695263	0	1	0	0	CorrectCommission	1.007216	0.607831	0	1
23.486912	0.792046	city	1	1	0.695183	0.695183	0	1	0	0	CorrectCommission	1.006387	0.616361	0	1
24.279121	0.792373	city	3	1	0.645708	0.645708	0	1	0	0	CorrectCommission	0.491116	0.619065	0	1
25.071402	0.792188	city	7	1	0.695142	0.695142	0	1	0	0	CorrectCommission	1.005962	0.616585	0	1
25.863613	0.792236	city	6	1	0.645893	0.645893	0	1	0	0	CorrectCommission	0.493049	0.609929	0	1
26.655972	0.792480	city	3	1	0.610063	0.610063	0	1	0	0	CorrectCommission	0.119889	0.600299	0	1
27.448345	0.792266	city	10	1	0.597157	0.597157	0	1	0	0	CorrectCommission	0.014530	0.588866	0	1
28.240499	0.792045	city	2	1	0.698028	0.698028	0	1	0	0	CorrectCommission	1.036018	0.576637	1	1
29.032736	0.792429	mountain	10	0	0.000000	0.640344	1	0	0	0	CorrectOmission	0.435252	0.564349	1	1
29.825056	0.792211	city	5	1	0.548432	0.548432	0	1	0	0	CorrectCommission	0.521979	0.552554	1	1
30.617348	0.792372	city	6	1	0.546623	0.546623	0	1	0	0	CorrectCommission	0.540825	0.541644	1	1
31.409586	0.792104	city	8	1	0.497024	0.497024	0	1	0	0	CorrectCommission	1.057383	0.531949	1	1
32.201851	0.792425	city	5	1	0.546668	0.546668	0	1	0	0	CorrectCommission	0.540354	0.523811	1	1
32.994198	0.792265	city	4	1	0.546714	0.546714	0	1	0	0	CorrectCommission	0.539879	0.517662	1	1
33.786407	0.792156	city	5	1	0.609408	0.609408	0	1	0	0	CorrectCommission	0.113059	0.513981	1	1
34.578564	0.792155	city	4	1	0.646062	0.646062	0	1	0	0	CorrectCommission	0.494800	0.513239	1	1
35.370827	0.792375	city	8	1	0.645784	0.645784	0	1	0	0	CorrectCommission	0.491907	0.515798	1	1
36.163120	0.792209	city	7	1	0.596160	0.596160	0	1	0	0	CorrectCommission	0.024906	0.521818	1	1
36.955383	0.792320	city	2	1	0.512991	0.512991	0	1	0	0	CorrectCommission	0.891087	0.531166	1	1
37.747623	0.792159	city	6	1	0.596418	0.596418	0	1	0	0	CorrectCommission	0.022225	0.543330	1	1
38.539944	0.792479	city	7	1	0.546867	0.546867	0	1	0	0	CorrectCommission	0.538279	0.557471	1	1
39.332207	0.792051	city	5	1	0.501986	0.501986	0	1	0	0	CorrectCommission	1.005704	0.572421	1	1
40.124474	0.792479	city	10	1	0.546776	0.546776	0	1	0	0	CorrectCommission	0.539226	0.586811	0	1
40.916737	0.792045	city	9	1	0.652400	0.652400	0	1	0	0	CorrectCommission	0.560811	0.599174	0	1
41.709000	0.792483	city	5	1	0.508600	0.508600	0	1	0	0	CorrectCommission	0.936822	0.608079	0	1
42.501320	0.792158	city	1	1	0.546660	0.546660	0	1	0	0	CorrectCommission	0.540433	0.612246	0	1
43.293530	0.792264	city	7	1	0.555739	0.555739	0	1	0	0	CorrectCommission	0.445886	0.610720	0	1
44.085739	0.792155	mountain	1	0	0.000000	0.536726	1	0	0	0	CorrectOmission	0.643895	0.602971	0	1
44.878059	0.792482	city	3	1	0.510270	0.510270	0	1	0	0	CorrectCommission	0.919430	0.588967	0	1
45.670326	0.792051	city	7	1	0.497017	0.497017	0	1	0	0	CorrectCommission	1.057456	0.569232	1	1
46.462482	0.792263	city	5	1	0.502556	0.502556	0	1	0	0	CorrectCommission	0.999764	0.544848	1	1
47.254745	0.792262	city	6	1	0.546727	0.546727	0	1	0	0	CorrectCommission	0.539736	0.517362	1	1
48.047119	0.792482	city	4	1	0.596259	0.596259	0	1	0	0	CorrectCommission	0.023884	0.488673	1	1
48.839493	0.792265	city	3	1	0.557233	0.557233	0	1	0	0	CorrectCommission	0.430324	0.460816	1	1
49.631672	0.792093	city	9	1	0.603496	0.603496	0	1	0	0	CorrectCommission	0.051487	0.435729	1	1
50.423935	0.792437	city	3	1	0.603002	0.603002	0	1	0	0	CorrectCommission	0.046349	0.415087	1	1
51.216179	0.792048	city	2	1	0.695068	0.695068	0	1	0	0	CorrectCommission	1.005189	0.400140	1	1
52.008350	0.792301	city	4	1	0.603373	0.603373	0	1	0	0	CorrectCommission	0.050207	0.391554	1	1
52.800724	0.792445	city	9	1	0.596223	0.596223	0	1	0	0	CorrectCommission	0.024250	0.389462	1	1
53.592968	0.792045	city	7	1	0.596035	0.596035	0	1	0	0	CorrectCommission	0.026210	0.393450	1	1
54.385128	0.792269	city	5	1	0.596315	0.596315	0	1	0	0	CorrectCommission	0.023300	0.402645	1	1
55.177406	0.792290	city	7	1	0.695852	0.695852	0	1	0	0	CorrectCommission	1.013351	0.415890	1	1
55.969780	0.792455	city	2	1	0.547847	0.547847	0	1	0	0	CorrectCommission	0.528077	0.431838	1	1
56.762028	0.792048	city	8	1	0.551217	0.551217	0	1	0	0	CorrectCommission	0.492974	0.449143	1	1
57.554188	0.792267	city	1	1	0.546731	0.546731	0	1	0	0	CorrectCommission	0.539703	0.466546	1	1
58.346451	0.792262	city	3	1	0.547919	0.547919	0	1	0	0	CorrectCommission	0.527330	0.482928	1	1
59.138824	0.792482	city	9	1	0.510903	0.510903	0	1	0	0	CorrectCommission	0.912838	0.497349	1	1
59.931099	0.792072	city	5	1	0.596282	0.596282	0	1	0	0	CorrectCommission	0.023641	0.509040	1	1
60.723263	0.792252	city	7	1	0.558490	0.558490	0	1	0	0	CorrectCommission	0.417234	0.517432	1	1
61.515518	0.792256	city	2	1	0.552728	0.552728	0	1	0	0	CorrectCommission	0.477240	0.522144	1	1
62.307777	0.792267	city	10	1	0.596316	0.596316	0	1	0	0	CorrectCommission	0.023290	0.523038	1	1
63.100044	0.792264	mountain	10	0	0.000000	0.710365	1	0	0	0	CorrectOmission	1.164498	0.520265	1	1
63.892307	0.792261	city	6	1	0.744976	0.744976	0	1	0	0	CorrectCommission	1.524966	0.514307	1	1
64.684570	0.792268	city	10	1	0.550251	0.550251	0	1	0	0	CorrectCommission	0.503043	0.506049	1	1
65.476860	0.792320	mountain	4	0	0.000000	0.607558	1	0	0	0	CorrectOmission	0.093792	0.496690	1	1
66.269234	0.792425	city	3	1	0.696371	0.696371	0	1	0	0	CorrectCommission	1.018754	0.487613	1	1
67.061577	0.792263	city	6	1	0.596163	0.596163	0	1	0	0	CorrectCommission	0.024879	0.480205	1	1
67.853737	0.792051	city	3	1	0.596078	0.596078	0	1	0	0	CorrectCommission	0.025759	0.475692	1	0
68.645897	0.792263	city	5	1	0.596391	0.596391	0	1	0	0	CorrectCommission	0.022504	0.474901	1	0
69.438156	0.792260	city	1	1	0.596222	0.596222	0	1	0	0	CorrectCommission	0.024263	0.478190	1	0
70.230476	0.792376	mountain	8	0	0.000000	0.652108	1	0	0	0	CorrectOmission	0.557772	0.485377	1	0
71.022743	0.792160	city	3	1	0.659886	0.659886	0	1	0	0	CorrectCommission	0.638779	0.495805	1	0
71.815063	0.792479	city	7	1	0.515394	0.515394	0	1	0	0	CorrectCommission	0.866061	0.508478	1	0
72.607407	0.792209	mountain	9	1	0.497001	0.497001	0	0	1	0	CommissionError	1.057617	0.522179	1	0
73.399597	0.792176	city	3	1	0.546572	0.546572	0	1	0	0	CorrectCommission	0.541355	0.535651	1	0
74.191887	0.792409	city	5	1	0.553574	0.553574	0	1	0	0	CorrectCommission	0.468425	0.547695	1	0
74.984123	0.792065	city	4	1	0.604046	0.604046	0	1	0	0	CorrectCommission	0.057216	0.557236	1	0
75.776283	0.792250	city	6	1	0.596253	0.596253	0	1	0	0	CorrectCommission	0.023939	0.563388	1	0
76.568596	0.792371	city	10	1	0.714292	0.714292	0	1	0	0	CorrectCommission	1.205400	0.565480	1	0
77.360855	0.792158	city	7	1	0.712307	0.712307	0	1	0	0	CorrectCommission	1.184729	0.563134	1	0
78.153069	0.792264	city	5	1	0.596278	0.596278	0	1	0	0	CorrectCommission	0.023681	0.556320	1	0
78.945389	0.792371	city	9	1	0.648392	0.648392	0	1	0	0	CorrectCommission	0.519069	0.545430	1	0
79.737762	0.792374	city	3	1	0.794278	0.794278	0	1	0	0	CorrectCommission	2.038431	0.531250	1	0
80.529968	0.792049	city	7	1	0.599846	0.599846	0	1	0	0	CorrectCommission	0.013480	0.514921	1	0
81.322235	0.792479	mountain	8	0	0.000000	0.601057	1	0	0	0	CorrectOmission	0.026093	0.497947	1	0
82.114525	0.792097	city	5	1	0.649372	0.649372	0	1	0	0	CorrectCommission	0.529279	0.481985	1	0
82.906677	0.792213	city	7	1	0.596252	0.596252	0	1	0	0	CorrectCommission	0.023953	0.468705	1	0
83.698975	0.792375	city	5	1	0.558126	0.558126	0	1	0	0	CorrectCommission	0.421019	0.459659	1	0
84.491241	0.792159	city	2	1	0.498258	0.498258	0	1	0	0	CorrectCommission	1.044531	0.456121	1	0
85.283562	0.792481	city	5	1	0.596276	0.596276	0	1	0	0	CorrectCommission	0.023704	0.458982	1	0
86.075821	0.792045	city	4	1	0.600928	0.600928	0	1	0	0	CorrectCommission	0.024745	0.468778	1	0
86.868088	0.792482	city	7	1	0.596583	0.596583	0	1	0	0	CorrectCommission	0.020509	0.485685	1	0
87.660461	0.792266	city	2	1	0.596045	0.596045	0	1	0	0	CorrectCommission	0.026104	0.509601	1	0
88.452629	0.792075	city	3	1	0.496920	0.496920	0	1	0	0	CorrectCommission	1.058468	0.540310	1	0
89.244789	0.792236	city	1	1	0.497255	0.497255	0	1	0	0	CorrectCommission	1.054972	0.577572	1	0
90.037041	0.792268	city	3	1	0.508803	0.508803	0	1	0	0	CorrectCommission	0.934703	0.621293	0	0
90.829308	0.792261	mountain	7	1	0.555870	0.555870	0	0	1	0	CommissionError	0.444519	0.671526	0	0
91.621620	0.792373	city	5	1	0.596227	0.596227	0	1	0	0	CorrectCommission	0.024214	0.728442	0	0
92.413887	0.792159	city	1	1	0.508940	0.508940	0	1	0	0	CorrectCommission	0.933277	0.792168	0	0
93.206100	0.792262	city	9	1	0.566104	0.566104	0	1	0	0	CorrectCommission	0.337931	0.862610	0	0
93.998413	0.792375	city	3	1	0.506947	0.506947	0	1	0	0	CorrectCommission	0.954037	0.939289	0	0
94.790680	0.792159	city	1	1	0.497212	0.497212	0	1	0	0	CorrectCommission	1.055428	1.021115	0	0
95.582893	0.792266	city	5	1	0.502040	0.502040	0	1	0	0	CorrectCommission	1.005141	1.106358	0	0
96.375160	0.792263	city	4	1	0.497334	0.497334	0	1	0	0	CorrectCommission	1.054151	1.192648	0	0
97.167419	0.792264	city	2	1	0.497636	0.497636	0	1	0	0	CorrectCommission	1.051010	1.277076	0	0
97.959740	0.792372	city	9	1	0.507083	0.507083	0	1	0	0	CorrectCommission	0.952617	1.356492	0	0
98.752007	0.792158	city	6	1	0.398258	0.398258	0	1	0	0	CorrectCommission	2.085995	1.427792	0	0
99.544212	0.792261	city	3	1	0.398176	0.398176	0	1	0	0	CorrectCommission	2.086849	1.488211	0	0
100.336586	0.792483	city	9	1	0.447695	0.447695	0	1	0	0	CorrectCommission	1.571130	1.535734	0	0
101.128960	0.792265	city	7	1	0.402069	0.402069	0	1	0	0	CorrectCommission	2.046306	1.569309	0	0
101.921150	0.792114	city	8	1	0.298958	0.298958	0	1	0	0	CorrectCommission	3.120183	1.588910	0	0
102.713318	0.792224	city	4	1	0.407796	0.407796	0	1	0	0	CorrectCommission	1.986666	1.595494	0	0
103.505661	0.792456	city	7	1	0.448118	0.448118	0	1	0	0	CorrectCommission	1.566727	1.590824	0	0
104.298019	0.792266	city	4	1	0.546866	0.546866	0	1	0	0	CorrectCommission	0.538292	1.577057	0	0
105.090233	0.792156	city	1	1	0.497036	0.497036	0	1	0	0	CorrectCommission	1.057255	1.556465	0	0
105.882385	0.792156	city	3	1	0.505618	0.505618	0	1	0	0	CorrectCommission	0.967873	1.531092	0	0
106.674706	0.792482	city	6	1	0.398187	0.398187	0	1	0	0	CorrectCommission	2.086740	1.502630	0	0
107.466995	0.792104	city	8	1	0.497038	0.497038	0	1	0	0	CorrectCommission	1.057232	1.472405	0	0
108.259155	0.792212	city	5	1	0.399003	0.399003	0	1	0	0	CorrectCommission	2.078246	1.441541	0	0
109.051392	0.792262	mountain	8	1	0.348691	0.348691	0	0	1	0	CommissionError	2.602220	1.411174	0	0
109.843658	0.792268	mountain	10	0	0.000000	0.447170	1	0	0	0	CorrectOmission	1.576600	1.382747	0	0
110.636032	0.792479	city	8	1	0.558490	0.558490	0	1	0	0	CorrectCommission	0.417228	1.358247	0	0
111.428406	0.792266	city	6	1	0.546707	0.546707	0	1	0	0	CorrectCommission	0.539947	1.340236	0	0
112.220558	0.792046	city	8	1	0.496896	0.496896	0	1	0	0	CorrectCommission	1.058712	1.331780	0	0
113.012772	0.792374	city	9	1	0.447690	0.447690	0	1	0	0	CorrectCommission	1.571177	1.336182	0	0
113.805092	0.792265	mountain	7	1	0.398054	0.398054	0	0	1	0	CommissionError	2.088125	1.356553	0	0
114.597298	0.792155	city	2	1	0.511301	0.511301	0	1	0	0	CorrectCommission	0.908694	1.395266	0	0
115.389511	0.792268	mountain	7	1	0.497413	0.497413	0	0	1	0	CommissionError	1.053331	1.453359	0	0
116.181770	0.792261	mountain	6	1	0.499581	0.499581	0	0	1	0	CommissionError	1.030748	1.529848	0	0
116.974091	0.792374	city	2	1	0.695282	0.695282	0	1	0	0	CorrectCommission	1.007414	1.621330	0	0
117.766357	0.792155	city	9	1	0.546970	0.546970	0	1	0	0	CorrectCommission	0.537208	1.721825	0	0
118.558578	0.792287	city	10	1	0.659714	0.659714	0	1	0	0	CorrectCommission	0.636981	1.823049	0	0
119.350861	0.792287	city	1	1	0.603091	0.603091	0	1	0	0	CorrectCommission	0.047272	1.915102	0	0
120.143120	0.792223	city	2	1	0.794261	0.794261	0	1	0	0	CorrectCommission	2.038253	1.987656	0	0
120.935364	0.792264	city	6	1	1.091457	1.091457	0	1	0	0	CorrectCommission	5.133456	2.031318	0	0
121.727638	0.792292	city	4	1	1.141836	1.141836	0	1	0	0	CorrectCommission	5.658142	2.039097	0	0
122.519920	0.792274	city	9	1	1.190424	1.190424	0	1	0	0	CorrectCommission	6.164168	2.007567	0	0
123.312279	0.792446	city	2	0	0.000000	0.817227	0	0	0	1	OmissionError	2.277439	1.937428	0	0
124.104553	0.792097	city	7	1	0.497036	0.497036	0	1	0	0	CorrectCommission	1.057256	1.833497	0	0
124.896713	0.792218	city	10	1	0.704640	0.704640	0	1	0	0	CorrectCommission	1.104873	1.703892	0	0
125.688972	0.792305	city	4	1	0.648297	0.648297	0	1	0	0	CorrectCommission	0.518085	1.558813	0	0
126.481293	0.792331	city	9	1	0.597302	0.597302	0	1	0	0	CorrectCommission	0.013021	1.409122	0	0
127.273537	0.792156	city	7	1	0.497489	0.497489	0	1	0	0	CorrectCommission	1.052543	1.264922	0	1
128.065750	0.792263	city	3	1	0.497228	0.497228	0	1	0	0	CorrectCommission	1.055257	1.134373	0	1
128.858017	0.792268	mountain	7	1	0.561233	0.561233	0	0	1	0	CommissionError	0.388666	1.022969	0	1
129.650299	0.792314	city	8	1	0.551677	0.551677	0	1	0	0	CorrectCommission	0.488185	0.933238	0	1
130.442566	0.792232	city	7	1	0.546707	0.546707	0	1	0	0	CorrectCommission	0.539951	0.864851	0	1
131.234863	0.792355	city	9	1	0.596370	0.596370	0	1	0	0	CorrectCommission	0.022723	0.815129	0	1
132.027130	0.792167	city	3	1	0.596389	0.596389	0	1	0	0	CorrectCommission	0.022523	0.779796	0	1
132.819443	0.792473	city	7	1	0.664933	0.664933	0	1	0	0	CorrectCommission	0.691337	0.753782	0	1
133.611816	0.792262	mountain	8	0	0.000000	0.798696	1	0	0	0	CorrectOmission	2.084445	0.732058	0	1
134.403976	0.792050	city	8	1	0.843649	0.843649	0	1	0	0	CorrectCommission	2.552617	0.710337	0	1
135.196121	0.792263	city	6	1	0.645761	0.645761	0	1	0	0	CorrectCommission	0.491668	0.685627	0	1
135.988388	0.792265	city	2	1	0.596274	0.596274	0	1	0	0	CorrectCommission	0.023728	0.656494	0	1
136.780685	0.792323	city	5	1	0.646213	0.646213	0	1	0	0	CorrectCommission	0.496377	0.623007	0	1
137.573059	0.792422	city	3	1	0.645855	0.645855	0	1	0	0	CorrectCommission	0.492653	0.586544	0	1
138.365295	0.792049	city	4	1	0.652511	0.652511	0	1	0	0	CorrectCommission	0.561966	0.549476	1	1
139.157562	0.792481	city	9	1	0.646316	0.646316	0	1	0	0	CorrectCommission	0.497450	0.514783	1	1
139.949829	0.792047	city	3	1	0.652872	0.652872	0	1	0	0	CorrectCommission	0.565733	0.485615	1	1
140.742035	0.792373	city	9	1	0.645765	0.645765	0	1	0	0	CorrectCommission	0.491708	0.464928	1	1
141.534302	0.792160	city	1	1	0.612029	0.612029	0	1	0	0	CorrectCommission	0.140358	0.455096	1	1
142.326508	0.792264	city	8	1	0.597272	0.597272	0	1	0	0	CorrectCommission	0.013328	0.457576	1	1
143.118774	0.792270	city	5	1	0.596249	0.596249	0	1	0	0	CorrectCommission	0.023981	0.472703	1	1
143.911148	0.792475	city	9	1	0.596640	0.596640	0	1	0	0	CorrectCommission	0.019913	0.499583	1	1
144.703415	0.792059	city	6	1	0.596010	0.596010	0	1	0	0	CorrectCommission	0.026470	0.536109	1	1
145.495605	0.792315	city	5	1	0.596248	0.596248	0	1	0	0	CorrectCommission	0.023996	0.579167	1	1
146.287918	0.792311	city	9	1	0.695298	0.695298	0	1	0	0	CorrectCommission	1.007578	0.625000	0	1
147.080154	0.792156	city	3	1	0.699543	0.699543	0	1	0	0	CorrectCommission	1.051793	0.669612	0	1
147.872421	0.792373	city	6	1	0.713523	0.713523	0	1	0	0	CorrectCommission	1.197390	0.709280	0	1
148.664734	0.792265	city	5	1	0.713800	0.713800	0	1	0	0	CorrectCommission	1.200280	0.741022	0	1
149.457001	0.792265	city	8	1	0.698192	0.698192	0	1	0	0	CorrectCommission	1.037727	0.762938	0	1
150.249207	0.792158	city	2	1	0.744801	0.744801	0	1	0	0	CorrectCommission	1.523141	0.774397	0	1
151.041428	0.792262	city	9	1	0.745298	0.745298	0	1	0	0	CorrectCommission	1.528317	0.775995	0	1
151.833710	0.792324	city	5	1	0.645800	0.645800	0	1	0	0	CorrectCommission	0.492072	0.769387	0	1
152.626038	0.792314	city	10	1	0.596690	0.596690	0	1	0	0	CorrectCommission	0.019389	0.757006	0	1
153.418381	0.792374	city	8	1	0.562130	0.562130	0	1	0	0	CorrectCommission	0.379327	0.741596	0	1
154.210648	0.792155	city	2	1	0.645563	0.645563	0	1	0	0	CorrectCommission	0.489611	0.725793	0	1
155.002823	0.792203	city	10	1	0.695172	0.695172	0	1	0	0	CorrectCommission	1.006267	0.711824	0	1
155.795029	0.792219	city	5	1	0.645746	0.645746	0	1	0	0	CorrectCommission	0.491516	0.701235	0	1
156.587280	0.792268	city	3	1	0.695412	0.695412	0	1	0	0	CorrectCommission	1.008768	0.694827	0	1
157.379593	0.792372	mountain	10	0	0.000000	0.628842	1	0	0	0	CorrectOmission	0.315458	0.692588	0	1
158.171860	0.792158	city	2	1	0.546628	0.546628	0	1	0	0	CorrectCommission	0.540766	0.693858	0	1
158.964127	0.792371	city	1	1	0.549365	0.549365	0	1	0	0	CorrectCommission	0.512261	0.697427	0	1
159.756393	0.792160	city	5	1	0.546624	0.546624	0	1	0	0	CorrectCommission	0.540808	0.701799	0	1
160.548599	0.792263	mountain	6	0	0.000000	0.644219	1	0	0	0	CorrectOmission	0.475615	0.705399	0	1
161.340973	0.792480	mountain	8	0	0.000000	0.743205	1	0	0	0	CorrectOmission	1.506521	0.706806	0	1
162.133270	0.792105	city	9	1	0.744636	0.744636	0	1	0	0	CorrectCommission	1.521422	0.704920	0	1
162.925522	0.792423	city	2	1	0.549566	0.549566	0	1	0	0	CorrectCommission	0.510168	0.699123	0	1
163.717758	0.792048	city	1	1	0.645579	0.645579	0	1	0	0	CorrectCommission	0.489771	0.689305	0	1
164.509918	0.792263	city	7	1	0.653357	0.653357	0	1	0	0	CorrectCommission	0.570784	0.675851	0	1
165.302185	0.792268	mountain	2	0	0.000000	0.668219	1	0	0	0	CorrectOmission	0.725566	0.659561	0	1
166.094482	0.792333	city	7	1	0.647043	0.647043	0	1	0	0	CorrectCommission	0.505017	0.641562	0	1
166.886856	0.792412	city	10	1	0.546705	0.546705	0	1	0	0	CorrectCommission	0.539964	0.623203	0	1
167.679138	0.792157	city	8	1	0.506787	0.506787	0	1	0	0	CorrectCommission	0.955703	0.605897	0	1
168.471298	0.792153	mountain	2	0	0.000000	0.532631	1	0	0	0	CorrectOmission	0.686542	0.590983	0	1
169.263519	0.792283	city	7	1	0.565622	0.565622	0	1	0	0	CorrectCommission	0.342954	0.579634	1	1
170.055893	0.792467	city	6	1	0.547143	0.547143	0	1	0	0	CorrectCommission	0.535410	0.572706	1	1
170.848206	0.792155	city	1	1	0.597470	0.597470	0	1	0	0	CorrectCommission	0.011266	0.570579	1	1
171.640366	0.792158	city	4	1	0.649246	0.649246	0	1	0	0	CorrectCommission	0.527960	0.573128	1	1
172.432678	0.792480	city	1	1	0.561150	0.561150	0	1	0	0	CorrectCommission	0.389526	0.579616	1	1
173.224945	0.792048	city	7	1	0.695169	0.695169	0	1	0	0	CorrectCommission	1.006242	0.588789	0	1
174.017105	0.792265	city	5	1	0.612140	0.612140	0	1	0	0	CorrectCommission	0.141513	0.598909	0	1
174.809357	0.792262	city	7	1	0.547177	0.547177	0	1	0	0	CorrectCommission	0.535055	0.608027	0	1
175.601624	0.792266	city	8	1	0.546750	0.546750	0	1	0	0	CorrectCommission	0.539497	0.614136	0	1
176.393890	0.792267	city	6	1	0.547616	0.547616	0	1	0	0	CorrectCommission	0.530485	0.615489	0	1
177.186157	0.792263	city	10	1	0.458095	0.458095	0	1	0	0	CorrectCommission	1.462810	0.610848	0	1
177.978531	0.792482	city	6	1	0.447712	0.447712	0	1	0	0	CorrectCommission	1.570953	0.599671	0	1
178.770798	0.792066	city	9	1	0.546510	0.546510	0	1	0	0	CorrectCommission	0.541996	0.582208	1	1
179.562958	0.792246	city	6	1	0.511817	0.511817	0	1	0	0	CorrectCommission	0.903317	0.559514	1	1
180.355209	0.792264	city	5	1	0.596225	0.596225	0	1	0	0	CorrectCommission	0.024237	0.533273	1	1
181.147583	0.792483	city	8	1	0.601428	0.601428	0	1	0	0	CorrectCommission	0.029956	0.505615	1	1
181.939850	0.792046	city	6	1	0.645542	0.645542	0	1	0	0	CorrectCommission	0.489390	0.478779	1	1
182.732010	0.792267	city	9	1	0.645763	0.645763	0	1	0	0	CorrectCommission	0.491695	0.454880	1	1
183.524277	0.792264	city	2	1	0.596427	0.596427	0	1	0	0	CorrectCommission	0.022126	0.435686	1	1
184.316589	0.792374	city	1	1	0.564434	0.564434	0	1	0	0	CorrectCommission	0.355326	0.422460	1	1
185.108856	0.792156	city	7	1	0.645648	0.645648	0	1	0	0	CorrectCommission	0.490492	0.415860	1	1
185.901062	0.792264	city	1	1	0.596361	0.596361	0	1	0	0	CorrectCommission	0.022817	0.415960	1	1
186.693390	0.792380	city	5	1	0.645726	0.645726	0	1	0	0	CorrectCommission	0.491309	0.422307	1	0
187.485657	0.792149	city	10	1	0.546621	0.546621	0	1	0	0	CorrectCommission	0.540845	0.433960	1	0
188.277893	0.792320	mountain	2	0	0.000000	0.546645	1	0	0	0	CorrectOmission	0.540598	0.449622	1	0
189.070160	0.792213	city	10	1	0.596215	0.596215	0	1	0	0	CorrectCommission	0.024335	0.467744	1	0
189.862396	0.792263	city	3	1	0.645750	0.645750	0	1	0	0	CorrectCommission	0.491558	0.486664	1	0
190.654770	0.792479	mountain	3	1	0.562701	0.562701	0	0	1	0	CommissionError	0.373377	0.504731	1	0
191.447067	0.792111	city	5	1	0.546539	0.546539	0	1	0	0	CorrectCommission	0.541693	0.520475	1	0
192.239273	0.792310	city	1	1	0.506559	0.506559	0	1	0	0	CorrectCommission	0.958078	0.532728	1	0
193.031509	0.792155	city	2	1	0.497682	0.497682	0	1	0	0	CorrectCommission	1.050527	0.540743	1	0
193.823715	0.792268	city	10	1	0.546966	0.546966	0	1	0	0	CorrectCommission	0.537255	0.544284	1	0
194.615982	0.792262	city	9	1	0.546778	0.546778	0	1	0	0	CorrectCommission	0.539210	0.543611	1	0
195.408249	0.792262	city	7	1	0.546687	0.546687	0	1	0	0	CorrectCommission	0.540152	0.539404	1	0
196.200623	0.792484	city	8	1	0.497345	0.497345	0	1	0	0	CorrectCommission	1.054043	0.532656	1	0
196.992889	0.792052	city	3	1	0.596571	0.596571	0	1	0	0	CorrectCommission	0.020630	0.524451	1	0
197.785156	0.792478	city	1	1	0.546718	0.546718	0	1	0	0	CorrectCommission	0.539836	0.515802	1	0
198.577408	0.792047	city	3	1	0.546514	0.546514	0	1	0	0	CorrectCommission	0.541954	0.507428	1	0
199.369675	0.792483	city	7	1	0.596270	0.596270	0	1	0	0	CorrectCommission	0.023760	0.499643	1	0
200.161957	0.792067	city	10	1	0.596167	0.596167	0	1	0	0	CorrectCommission	0.024837	0.492355	1	0
200.954239	0.792516	mountain	9	1	0.561198	0.561198	0	0	1	0	CommissionError	0.389026	0.485100	1	0
201.746552	0.792101	city	5	1	0.510628	0.510628	0	1	0	0	CorrectCommission	0.915705	0.477198	1	0
202.538681	0.792156	city	4	1	0.497416	0.497416	0	1	0	0	CorrectCommission	1.053300	0.467935	1	0
203.330887	0.792270	city	9	1	0.551709	0.551709	0	1	0	0	CorrectCommission	0.487858	0.456807	1	0
204.123154	0.792259	city	4	1	0.665271	0.665271	0	1	0	0	CorrectCommission	0.694864	0.443640	1	0
204.915421	0.792269	mountain	10	0	0.000000	0.583702	1	0	0	0	CorrectOmission	0.154653	0.428662	1	0
205.707794	0.792480	city	3	1	0.497220	0.497220	0	1	0	0	CorrectCommission	1.055338	0.412503	1	0
206.500061	0.792050	city	2	1	0.596044	0.596044	0	1	0	0	CorrectCommission	0.026118	0.396055	1	0
207.292221	0.792261	city	9	1	0.605334	0.605334	0	1	0	0	CorrectCommission	0.070635	0.380388	1	0
208.084488	0.792282	city	6	1	0.599824	0.599824	0	1	0	0	CorrectCommission	0.013254	0.366512	1	0
208.876755	0.792262	city	8	1	0.559783	0.559783	0	1	0	0	CorrectCommission	0.403768	0.355258	1	0
209.669067	0.792358	city	10	1	0.612186	0.612186	0	1	0	0	CorrectCommission	0.142000	0.347169	1	0
210.461334	0.792164	city	7	1	0.612166	0.612166	0	1	0	0	CorrectCommission	0.141783	0.342519	1	0
211.253601	0.792367	city	1	1	0.550824	0.550824	0	1	0	0	CorrectCommission	0.497073	0.341358	1	0
212.045853	0.792156	city	10	1	0.510451	0.510451	0	1	0	0	CorrectCommission	0.917540	0.343576	1	0
212.838074	0.792262	city	1	1	0.596567	0.596567	0	1	0	0	CorrectCommission	0.020667	0.349001	1	0
213.630341	0.792288	city	9	1	0.646276	0.646276	0	1	0	0	CorrectCommission	0.497037	0.357505	1	0
214.422714	0.792460	city	6	1	0.596364	0.596364	0	1	0	0	CorrectCommission	0.022783	0.369041	1	0
215.214966	0.792052	city	4	1	0.546787	0.546787	0	1	0	0	CorrectCommission	0.539119	0.383680	1	0
216.007233	0.792479	city	10	1	0.596332	0.596332	0	1	0	0	CorrectCommission	0.023117	0.401568	1	0
216.799515	0.792068	city	5	1	0.553395	0.553395	0	1	0	0	CorrectCommission	0.470296	0.422931	1	0
217.591690	0.792282	city	7	1	0.604610	0.604610	0	1	0	0	CorrectCommission	0.063094	0.447951	1	0
218.384048	0.792443	city	6	1	0.695262	0.695262	0	1	0	0	CorrectCommission	1.007208	0.476721	1	0
219.176346	0.792154	city	10	1	0.649513	0.649513	0	1	0	0	CorrectCommission	0.530748	0.509121	1	0
219.968506	0.792160	city	6	1	0.645698	0.645698	0	1	0	0	CorrectCommission	0.491017	0.544778	1	0
220.760727	0.792295	mountain	7	0	0.000000	0.634275	1	0	0	0	CorrectOmission	0.372050	0.582962	1	0
221.552994	0.792231	city	1	1	0.596198	0.596198	0	1	0	0	CorrectCommission	0.024510	0.622518	0	0
222.345245	0.792267	mountain	1	0	0.000000	0.512422	1	0	0	0	CorrectOmission	0.897016	0.661905	0	0
223.137512	0.792264	city	3	1	0.497624	0.497624	0	1	0	0	CorrectCommission	1.051129	0.699197	0	0
223.929794	0.792311	city	1	1	0.666484	0.666484	0	1	0	0	CorrectCommission	0.707492	0.732289	0	0
224.722168	0.792435	city	5	1	0.607825	0.607825	0	1	0	0	CorrectCommission	0.096582	0.759090	0	0
225.514526	0.792266	city	2	1	0.645557	0.645557	0	1	0	0	CorrectCommission	0.489548	0.777806	0	0
226.306732	0.792156	city	3	1	0.794096	0.794096	0	1	0	0	CorrectCommission	2.036536	0.787208	0	0
227.098923	0.792229	city	4	1	0.802165	0.802165	0	1	0	0	CorrectCommission	2.120575	0.786862	0	0
227.891129	0.792190	city	7	1	0.713241	0.713241	0	1	0	0	CorrectCommission	1.194455	0.777317	0	0
228.683365	0.792266	city	2	1	0.655295	0.655295	0	1	0	0	CorrectCommission	0.590963	0.760079	0	0
229.475632	0.792266	mountain	3	0	0.000000	0.583618	1	0	0	0	CorrectOmission	0.155528	0.737443	0	0
230.267899	0.792263	city	4	1	0.559954	0.559954	0	1	0	0	CorrectCommission	0.401986	0.712216	0	0
231.060211	0.792373	city	6	1	0.646044	0.646044	0	1	0	0	CorrectCommission	0.494620	0.687343	0	0
231.852524	0.792265	city	5	1	0.697150	0.697150	0	1	0	0	CorrectCommission	1.026876	0.665513	0	0
232.644852	0.792373	city	4	1	0.645786	0.645786	0	1	0	0	CorrectCommission	0.491934	0.648784	0	0
233.437057	0.792052	city	1	1	0.611880	0.611880	0	1	0	0	CorrectCommission	0.138811	0.638377	0	0
234.229233	0.792295	mountain	4	0	0.000000	0.573535	1	0	0	0	CorrectOmission	0.260544	0.634473	0	0
235.021500	0.792234	city	1	1	0.546696	0.546696	0	1	0	0	CorrectCommission	0.540062	0.636228	0	0
235.813797	0.792369	city	3	1	0.547310	0.547310	0	1	0	0	CorrectCommission	0.533671	0.641918	0	0
236.606064	0.792156	city	4	1	0.596242	0.596242	0	1	0	0	CorrectCommission	0.024059	0.649234	0	0
237.398331	0.792374	mountain	8	0	0.000000	0.677712	1	0	0	0	CorrectOmission	0.824429	0.655644	0	0
238.190643	0.792265	city	4	1	0.744678	0.744678	0	1	0	0	CorrectCommission	1.521863	0.658758	0	0
238.982864	0.792158	city	7	1	0.750099	0.750099	0	1	0	0	CorrectCommission	1.578314	0.656733	0	0
239.775070	0.792264	mountain	2	0	0.000000	0.668176	1	0	0	0	CorrectOmission	0.725117	0.648554	0	0
240.567337	0.792268	city	8	1	0.562638	0.562638	0	1	0	0	CorrectCommission	0.374035	0.634180	0	0
241.359650	0.792368	mountain	1	1	0.497210	0.497210	0	0	1	0	CommissionError	1.055447	0.614528	0	0
242.152023	0.792373	city	2	1	0.546678	0.546678	0	1	0	0	CorrectCommission	0.540250	0.591305	0	0
242.944275	0.792132	city	4	1	0.645469	0.645469	0	1	0	0	CorrectCommission	0.488633	0.566795	1	0
243.736465	0.792234	city	9	1	0.597157	0.597157	0	1	0	0	CorrectCommission	0.014528	0.543440	1	0
244.528687	0.792214	city	2	1	0.645719	0.645719	0	1	0	0	CorrectCommission	0.491234	0.523578	1	0
245.320923	0.792265	city	5	1	0.596241	0.596241	0	1	0	0	CorrectCommission	0.024062	0.509092	1	0
246.113190	0.792264	city	8	1	0.695705	0.695705	0	1	0	0	CorrectCommission	1.011816	0.501220	1	1
246.905502	0.792370	city	1	1	0.601211	0.601211	0	1	0	0	CorrectCommission	0.027698	0.500370	1	1
247.697800	0.792224	city	8	1	0.596496	0.596496	0	1	0	0	CorrectCommission	0.021407	0.506157	1	1
248.490128	0.792416	city	5	1	0.664179	0.664179	0	1	0	0	CorrectCommission	0.683490	0.517397	1	1
249.282455	0.792265	city	10	1	0.663747	0.663747	0	1	0	0	CorrectCommission	0.678990	0.532273	1	1
250.074615	0.792046	city	2	1	0.598456	0.598456	0	1	0	0	CorrectCommission	0.001003	0.548575	1	1
250.866776	0.792268	city	6	1	0.547098	0.547098	0	1	0	0	CorrectCommission	0.535881	0.563979	1	1
251.659042	0.792265	mountain	10	0	0.000000	0.514345	1	0	0	0	CorrectOmission	0.876993	0.576296	1	1
252.451355	0.792371	city	2	1	0.498309	0.498309	0	1	0	0	CorrectCommission	1.043995	0.583757	0	1
253.243683	0.792266	city	10	1	0.497105	0.497105	0	1	0	0	CorrectCommission	1.056540	0.585192	0	1
254.035889	0.792154	city	7	1	0.497676	0.497676	0	1	0	0	CorrectCommission	1.050593	0.580198	1	1
254.828110	0.792290	city	2	1	0.695341	0.695341	0	1	0	0	CorrectCommission	1.008032	0.569117	1	1
255.620377	0.792251	city	5	1	0.605599	0.605599	0	1	0	0	CorrectCommission	0.073397	0.552987	1	1
256.412750	0.792471	city	1	1	0.605896	0.605896	0	1	0	0	CorrectCommission	0.076490	0.533375	1	1
257.205048	0.792155	city	2	1	0.605612	0.605612	0	1	0	0	CorrectCommission	0.073526	0.512186	1	1
257.997223	0.792157	city	7	1	0.695662	0.695662	0	1	0	0	CorrectCommission	1.011376	0.491466	1	1
258.789520	0.792482	city	1	1	0.606874	0.606874	0	1	0	0	CorrectCommission	0.086674	0.473177	1	1
259.581787	0.792046	city	10	1	0.695702	0.695702	0	1	0	0	CorrectCommission	1.011789	0.459106	1	1
260.374054	0.792484	city	3	1	0.645796	0.645796	0	1	0	0	CorrectCommission	0.492035	0.450646	1	1
261.166443	0.792264	city	7	1	0.602934	0.602934	0	1	0	0	CorrectCommission	0.045637	0.448754	1	1
261.958588	0.792048	city	4	1	0.596029	0.596029	0	1	0	0	CorrectCommission	0.026270	0.453801	1	1
262.750763	0.792309	city	6	1	0.557526	0.557526	0	1	0	0	CorrectCommission	0.427268	0.465525	1	1
263.543091	0.792328	city	3	1	0.602790	0.602790	0	1	0	0	CorrectCommission	0.044135	0.482986	1	1
264.335358	0.792219	city	1	1	0.553543	0.553543	0	1	0	0	CorrectCommission	0.468753	0.504695	1	1
265.127563	0.792202	city	5	1	0.596186	0.596186	0	1	0	0	CorrectCommission	0.024638	0.528681	1	1
265.919800	0.792270	city	4	1	0.645822	0.645822	0	1	0	0	CorrectCommission	0.492307	0.552749	1	1
266.712128	0.792349	mountain	8	0	0.000000	0.738907	1	0	0	0	CorrectOmission	1.461760	0.574694	1	1
267.504486	0.792393	city	6	1	0.760591	0.760591	0	1	0	0	CorrectCommission	1.687588	0.592586	0	1
268.296692	0.792048	city	3	1	0.596023	0.596023	0	1	0	0	CorrectCommission	0.026342	0.604988	0	1
269.088867	0.792269	city	5	1	0.645795	0.645795	0	1	0	0	CorrectCommission	0.492023	0.611127	0	1
269.881226	0.792478	city	6	1	0.645794	0.645794	0	1	0	0	CorrectCommission	0.492013	0.610873	0	1
270.673492	0.792047	city	9	1	0.744949	0.744949	0	1	0	0	CorrectCommission	1.524686	0.604735	0	1
271.465759	0.792482	city	5	1	0.646058	0.646058	0	1	0	0	CorrectCommission	0.494759	0.593698	0	1
272.258087	0.792155	city	8	1	0.645735	0.645735	0	1	0	0	CorrectCommission	0.491399	0.579091	1	1
273.050232	0.792166	city	10	1	0.650710	0.650710	0	1	0	0	CorrectCommission	0.543207	0.562322	1	1
273.842560	0.792473	mountain	9	0	0.000000	0.630270	1	0	0	0	CorrectOmission	0.330340	0.544668	1	1
274.634888	0.792155	city	2	1	0.614233	0.614233	0	1	0	0	CorrectCommission	0.163314	0.527132	1	1
275.427032	0.792178	mountain	4	0	0.000000	0.632413	1	0	0	0	CorrectOmission	0.352650	0.510310	1	1
276.219360	0.792461	city	1	1	0.655731	0.655731	0	1	0	0	CorrectCommission	0.595499	0.494414	1	1
277.011658	0.792156	city	6	1	0.655108	0.655108	0	1	0	0	CorrectCommission	0.589012	0.479292	1	1
277.803833	0.792158	mountain	2	0	0.000000	0.642689	1	0	0	0	CorrectOmission	0.459676	0.464562	1	1
278.596039	0.792265	city	3	1	0.646672	0.646672	0	1	0	0	CorrectCommission	0.501156	0.449754	1	1
279.388397	0.792480	city	9	1	0.695254	0.695254	0	1	0	0	CorrectCommission	1.007121	0.434433	1	1
280.180786	0.792266	city	7	1	0.612390	0.612390	0	1	0	0	CorrectCommission	0.144126	0.418297	1	1
280.972931	0.792047	city	9	1	0.645535	0.645535	0	1	0	0	CorrectCommission	0.489313	0.401286	1	1
281.765137	0.792333	city	2	1	0.596401	0.596401	0	1	0	0	CorrectCommission	0.022403	0.383530	1	1
282.557404	0.792199	mountain	5	0	0.000000	0.629466	1	0	0	0	CorrectOmission	0.321967	0.365385	1	1
283.349731	0.792478	city	9	1	0.645803	0.645803	0	1	0	0	CorrectCommission	0.492102	0.347337	1	1
284.142029	0.792084	city	10	1	0.546480	0.546480	0	1	0	0	CorrectCommission	0.542315	0.329960	1	1
284.934296	0.792500	city	9	1	0.645702	0.645702	0	1	0	0	CorrectCommission	0.491057	0.313841	1	1
285.726562	0.791995	city	10	1	0.602871	0.602871	0	1	0	0	CorrectCommission	0.044982	0.299538	1	1
286.518677	0.792266	city	1	1	0.596219	0.596219	0	1	0	0	CorrectCommission	0.024292	0.287501	1	1
287.310944	0.792263	city	9	1	0.603447	0.603447	0	1	0	0	CorrectCommission	0.050982	0.278002	1	1
288.103210	0.792263	city	4	1	0.645830	0.645830	0	1	0	0	CorrectCommission	0.492392	0.271116	1	1
288.895477	0.792263	city	8	1	0.598178	0.598178	0	1	0	0	CorrectCommission	0.003892	0.266735	1	1
289.687744	0.792266	city	10	1	0.564545	0.564545	0	1	0	0	CorrectCommission	0.354167	0.264604	1	1
290.480103	0.792481	city	9	1	0.604311	0.604311	0	1	0	0	CorrectCommission	0.059977	0.264337	1	1
291.272369	0.792048	city	8	1	0.657282	0.657282	0	1	0	0	CorrectCommission	0.611660	0.265526	1	1
292.064606	0.792373	city	6	1	0.645769	0.645769	0	1	0	0	CorrectCommission	0.491754	0.267781	1	1
292.856903	0.792265	city	4	1	0.611424	0.611424	0	1	0	0	CorrectCommission	0.134059	0.270786	1	1
293.649231	0.792375	city	6	1	0.596631	0.596631	0	1	0	0	CorrectCommission	0.020009	0.274371	1	1
294.441437	0.792044	city	3	1	0.597065	0.597065	0	1	0	0	CorrectCommission	0.015484	0.278536	1	1
295.233582	0.792268	city	10	1	0.563182	0.563182	0	1	0	0	CorrectCommission	0.368364	0.283468	1	1
296.025848	0.792266	city	4	1	0.646243	0.646243	0	1	0	0	CorrectCommission	0.496694	0.289543	1	1
296.818176	0.792369	city	5	1	0.664210	0.664210	0	1	0	0	CorrectCommission	0.683809	0.297298	1	1
297.610443	0.792156	mountain	5	0	0.000000	0.633223	1	0	0	0	CorrectOmission	0.361085	0.307397	1	1
298.402649	0.792268	city	7	1	0.596278	0.596278	0	1	0	0	CorrectCommission	0.023678	0.320521	1	1
299.195038	0.792481	city	5	1	0.596374	0.596374	0	1	0	0	CorrectCommission	0.022681	0.337294	1	1
299.987396	0.792264	city	2	1	0.614567	0.614567	0	1	0	0	CorrectCommission	0.166798	0.358173	1	1
300.779663	0.792264	city	9	1	0.616341	0.616341	0	1	0	0	CorrectCommission	0.185273	0.383363	1	1
301.571869	0.792157	city	3	1	0.661364	0.661364	0	1	0	0	CorrectCommission	0.654166	0.412824	1	1
302.364044	0.792155	city	9	1	0.605218	0.605218	0	1	0	0	CorrectCommission	0.069421	0.446289	1	1
303.156250	0.792275	city	6	1	0.547026	0.547026	0	1	0	0	CorrectCommission	0.536626	0.483375	1	1
303.948517	0.792257	city	3	1	0.549284	0.549284	0	1	0	0	CorrectCommission	0.513111	0.523655	1	1
304.740784	0.792262	city	8	1	0.645776	0.645776	0	1	0	0	CorrectCommission	0.491827	0.566777	1	1
305.533051	0.792289	city	9	1	0.646232	0.646232	0	1	0	0	CorrectCommission	0.496579	0.612523	0	0
306.325348	0.792311	city	10	1	0.700083	0.700083	0	1	0	0	CorrectCommission	1.057418	0.660831	0	0
307.117615	0.792195	city	2	1	0.756061	0.756061	0	1	0	0	CorrectCommission	1.640406	0.711678	0	0
307.909821	0.792264	city	10	1	0.612477	0.612477	0	1	0	0	CorrectCommission	0.145025	0.764951	0	0
308.702118	0.792329	city	4	1	0.645759	0.645759	0	1	0	0	CorrectCommission	0.491649	0.820267	0	0
309.494385	0.792199	city	1	1	0.652850	0.652850	0	1	0	0	CorrectCommission	0.565497	0.876700	0	0
310.286743	0.792483	city	3	1	0.556700	0.556700	0	1	0	0	CorrectCommission	0.435872	0.932703	0	0
311.079041	0.792114	city	9	1	0.546643	0.546643	0	1	0	0	CorrectCommission	0.540612	0.986102	0	0
311.871216	0.792250	city	10	1	0.497161	0.497161	0	1	0	0	CorrectCommission	1.055955	1.034250	0	0
312.663452	0.792217	city	7	1	0.447865	0.447865	0	1	0	0	CorrectCommission	1.569362	1.074324	0	0
313.455811	0.792479	city	6	1	0.452144	0.452144	0	1	0	0	CorrectCommission	1.524790	1.103767	0	0
314.248169	0.792264	city	3	1	0.398001	0.398001	0	1	0	0	CorrectCommission	2.088671	1.120709	0	0
315.040314	0.792047	city	5	1	0.362927	0.362927	0	1	0	0	CorrectCommission	2.453965	1.124312	0	0
315.832489	0.792268	city	7	1	0.508023	0.508023	0	1	0	0	CorrectCommission	0.942829	1.114991	0	0
316.624756	0.792267	city	8	1	0.513140	0.513140	0	1	0	0	CorrectCommission	0.889534	1.094447	0	0
317.417023	0.792263	city	7	1	0.497185	0.497185	0	1	0	0	CorrectCommission	1.055705	1.065421	0	0
318.209290	0.792263	city	10	1	0.503834	0.503834	0	1	0	0	CorrectCommission	0.986454	1.031352	0	0
319.001556	0.792297	city	8	1	0.463743	0.463743	0	1	0	0	CorrectCommission	1.403988	0.995935	0	0
319.793884	0.792338	city	3	1	0.546674	0.546674	0	1	0	0	CorrectCommission	0.540290	0.962660	0	0
320.586182	0.792266	city	5	1	0.596412	0.596412	0	1	0	0	CorrectCommission	0.022281	0.934447	0	0
321.378387	0.792166	city	9	1	0.551452	0.551452	0	1	0	0	CorrectCommission	0.490528	0.913327	0	0
322.170624	0.792299	city	1	1	0.551652	0.551652	0	1	0	0	CorrectCommission	0.488449	0.900337	0	0
322.962952	0.792329	city	5	1	0.513082	0.513082	0	1	0	0	CorrectCommission	0.890141	0.895591	0	0
323.755249	0.792263	city	1	1	0.462879	0.462879	0	1	0	0	CorrectCommission	1.412992	0.898417	0	0
324.547455	0.792162	city	4	1	0.497470	0.497470	0	1	0	0	CorrectCommission	1.052735	0.907599	0	0
325.339661	0.792258	city	6	1	0.504364	0.504364	0	1	0	0	CorrectCommission	0.980939	0.921654	0	0
326.131927	0.792267	city	1	1	0.512466	0.512466	0	1	0	0	CorrectCommission	0.896558	0.938985	0	0
326.924194	0.792263	city	3	1	0.512276	0.512276	0	1	0	0	CorrectCommission	0.898538	0.957993	0	0
327.716492	0.792375	city	7	1	0.546795	0.546795	0	1	0	0	CorrectCommission	0.539029	0.977142	0	0
328.508881	0.792375	city	1	1	0.463804	0.463804	0	1	0	0	CorrectCommission	1.403362	0.994925	0	0
329.301208	0.792263	city	7	1	0.508789	0.508789	0	1	0	0	CorrectCommission	0.934854	1.009795	0	0
330.093353	0.792048	city	6	1	0.509997	0.509997	0	1	0	0	CorrectCommission	0.922267	1.020193	0	0
330.885620	0.792481	city	4	1	0.497305	0.497305	0	1	0	0	CorrectCommission	1.054453	1.024557	0	0
331.677887	0.792078	city	8	1	0.496989	0.496989	0	1	0	0	CorrectCommission	1.057743	1.021401	0	0
332.470154	0.792451	city	4	1	0.452764	0.452764	0	1	0	0	CorrectCommission	1.518333	1.009470	0	0
333.262451	0.792157	mountain	1	1	0.497003	0.497003	0	0	1	0	CommissionError	1.057595	0.987931	0	0
334.054626	0.792162	city	7	1	0.497149	0.497149	0	1	0	0	CorrectCommission	1.056084	0.956553	0	0
334.846832	0.792260	city	4	1	0.497789	0.497789	0	1	0	0	CorrectCommission	1.049414	0.915800	0	0
335.639099	0.792267	city	5	1	0.403167	0.403167	0	1	0	0	CorrectCommission	2.034876	0.866890	0	0
336.431458	0.792478	city	6	1	0.497364	0.497364	0	1	0	0	CorrectCommission	1.053841	0.811701	0	0
337.223724	0.792050	city	10	1	0.546521	0.546521	0	1	0	0	CorrectCommission	0.541886	0.752656	0	0
338.015900	0.792261	city	4	1	0.564468	0.564468	0	1	0	0	CorrectCommission	0.354972	0.692424	0	0
338.808167	0.792265	city	7	1	0.596278	0.596278	0	1	0	0	CorrectCommission	0.023680	0.633611	0	0
339.600433	0.792265	city	9	1	0.560965	0.560965	0	1	0	0	CorrectCommission	0.391456	0.578497	1	0
340.392700	0.792268	city	8	1	0.596218	0.596218	0	1	0	0	CorrectCommission	0.024311	0.528819	1	0
341.184967	0.792319	city	5	1	0.546811	0.546811	0	1	0	0	CorrectCommission	0.538862	0.485724	1	0
341.977356	0.792424	city	10	1	0.596208	0.596208	0	1	0	0	CorrectCommission	0.024410	0.449772	1	0
342.769592	0.792046	city	3	1	0.504116	0.504116	0	1	0	0	CorrectCommission	0.983518	0.421089	1	0
343.561737	0.792267	city	6	1	0.546742	0.546742	0	1	0	0	CorrectCommission	0.539584	0.399521	1	0
344.354065	0.792372	city	5	1	0.547578	0.547578	0	1	0	0	CorrectCommission	0.530880	0.384805	1	0
345.146332	0.792184	city	9	1	0.596266	0.596266	0	1	0	0	CorrectCommission	0.023802	0.376685	1	0
345.938568	0.792240	city	3	1	0.561918	0.561918	0	1	0	0	CorrectCommission	0.381526	0.374949	1	0
346.730804	0.792262	city	8	1	0.596659	0.596659	0	1	0	0	CorrectCommission	0.019708	0.379381	1	0
347.523163	0.792482	city	2	1	0.609307	0.609307	0	1	0	0	CorrectCommission	0.112017	0.389711	1	0
348.315430	0.792049	mountain	8	0	0.000000	0.563593	1	0	0	0	CorrectOmission	0.364087	0.405478	1	0
349.107605	0.792266	city	10	1	0.546718	0.546718	0	1	0	0	CorrectCommission	0.539831	0.425971	1	0
349.899872	0.792265	city	3	1	0.645886	0.645886	0	1	0	0	CorrectCommission	0.492970	0.450201	1	0
350.692230	0.792484	city	7	1	0.596442	0.596442	0	1	0	0	CorrectCommission	0.021968	0.476925	1	0
351.484497	0.792045	city	9	1	0.550998	0.550998	0	1	0	0	CorrectCommission	0.495258	0.504826	1	0
352.276672	0.792264	city	2	1	0.615904	0.615904	0	1	0	0	CorrectCommission	0.180714	0.532568	1	0
353.068939	0.792322	mountain	2	0	0.000000	0.688013	1	0	0	0	CorrectOmission	0.931710	0.559063	1	0
353.861328	0.792422	mountain	6	0	0.000000	0.727642	1	0	0	0	CorrectOmission	1.344441	0.583648	0	0
354.653564	0.792050	city	7	1	0.695109	0.695109	0	1	0	0	CorrectCommission	1.005618	0.606272	0	0
355.445709	0.792265	city	1	1	0.550730	0.550730	0	1	0	0	CorrectCommission	0.498047	0.627511	0	0
356.238098	0.792481	city	2	1	0.662637	0.662637	0	1	0	0	CorrectCommission	0.667433	0.648508	0	0
357.030365	0.792045	city	3	1	0.546491	0.546491	0	1	0	0	CorrectCommission	0.542201	0.670762	0	0
357.822540	0.792316	city	6	1	0.596244	0.596244	0	1	0	0	CorrectCommission	0.024035	0.695899	0	0
358.614807	0.792218	city	2	1	0.706895	0.706895	0	1	0	0	CorrectCommission	1.128361	0.725323	0	0
359.407135	0.792481	city	5	1	0.611258	0.611258	0	1	0	0	CorrectCommission	0.132331	0.759901	0	0
360.199402	0.792045	city	8	1	0.553727	0.553727	0	1	0	0	CorrectCommission	0.466837	0.799787	0	0
360.991577	0.792265	city	1	1	0.500903	0.500903	0	1	0	0	CorrectCommission	1.016985	0.844208	0	0
361.783844	0.792266	city	2	1	0.498261	0.498261	0	1	0	0	CorrectCommission	1.044498	0.891491	0	0
362.576202	0.792482	city	5	1	0.513220	0.513220	0	1	0	0	CorrectCommission	0.888703	0.939210	0	0
363.368500	0.792114	city	3	1	0.547077	0.547077	0	1	0	0	CorrectCommission	0.536091	0.984438	0	0
364.160645	0.792196	city	8	1	0.554491	0.554491	0	1	0	0	CorrectCommission	0.458884	1.024130	0	0
364.952911	0.792325	mountain	9	0	0.000000	0.449159	1	0	0	0	CorrectOmission	1.555882	1.055555	0	1
365.745178	0.792214	mountain	8	1	0.504111	0.504111	0	0	1	0	CommissionError	0.983571	1.076669	0	1
366.537415	0.792256	city	6	1	0.992376	0.992376	0	1	0	0	CorrectCommission	4.101561	1.086491	0	1
367.329681	0.792266	city	10	1	0.744796	0.744796	0	1	0	0	CorrectCommission	1.523086	1.085165	0	1
368.121948	0.792266	city	5	1	0.645793	0.645793	0	1	0	0	CorrectCommission	0.492006	1.074102	0	1
368.914215	0.792265	city	2	1	0.608392	0.608392	0	1	0	0	CorrectCommission	0.102484	1.055570	0	1
369.706604	0.792481	city	3	1	0.744796	0.744796	0	1	0	0	CorrectCommission	1.523087	1.032322	0	1
370.498901	0.792154	city	4	1	0.665393	0.665393	0	1	0	0	CorrectCommission	0.696129	1.007098	0	1
371.291077	0.792161	city	9	1	0.654857	0.654857	0	1	0	0	CorrectCommission	0.586403	0.982242	0	1
372.083344	0.792368	city	3	1	0.614515	0.614515	0	1	0	0	CorrectCommission	0.166257	0.959306	0	1
372.875580	0.792156	city	4	1	0.695159	0.695159	0	1	0	0	CorrectCommission	1.006138	0.938952	0	1
373.667816	0.792264	city	6	1	0.661707	0.661707	0	1	0	0	CorrectCommission	0.657743	0.920932	0	1
374.460083	0.792322	city	3	1	0.695286	0.695286	0	1	0	0	CorrectCommission	1.007461	0.904339	0	1
375.252411	0.792318	city	7	1	0.794283	0.794283	0	1	0	0	CorrectCommission	2.038485	0.887900	0	1
376.044647	0.792160	city	2	1	0.695154	0.695154	0	1	0	0	CorrectCommission	1.006086	0.870285	0	1
376.836853	0.792266	city	4	1	0.695256	0.695256	0	1	0	0	CorrectCommission	1.007144	0.850531	0	1
377.629120	0.792259	city	8	1	0.645744	0.645744	0	1	0	0	CorrectCommission	0.491493	0.828154	0	1
378.421387	0.792263	city	6	1	0.650283	0.650283	0	1	0	0	CorrectCommission	0.538763	0.803320	0	1
379.213776	0.792485	city	9	1	0.645925	0.645925	0	1	0	0	CorrectCommission	0.493373	0.776868	0	1
380.006042	0.792045	city	10	1	0.744726	0.744726	0	1	0	0	CorrectCommission	1.522355	0.750192	0	1
380.798187	0.792269	city	5	1	0.707830	0.707830	0	1	0	0	CorrectCommission	1.138095	0.725077	0	1
381.590454	0.792262	city	2	1	0.596575	0.596575	0	1	0	0	CorrectCommission	0.020583	0.703480	0	1
382.382721	0.792264	city	5	1	0.547166	0.547166	0	1	0	0	CorrectCommission	0.535163	0.687249	0	1
383.174988	0.792264	city	2	1	0.659529	0.659529	0	1	0	0	CorrectCommission	0.635061	0.677837	0	1
383.967255	0.792267	mountain	1	0	0.000000	0.654852	1	0	0	0	CorrectOmission	0.586346	0.676050	0	1
384.759521	0.792262	city	7	1	0.596246	0.596246	0	1	0	0	CorrectCommission	0.024013	0.681893	0	1
385.551788	0.792325	city	2	1	0.546825	0.546825	0	1	0	0	CorrectCommission	0.538722	0.694509	0	1
386.344055	0.792206	city	8	1	0.546718	0.546718	0	1	0	0	CorrectCommission	0.539834	0.712222	0	1
387.136322	0.792301	city	4	1	0.596241	0.596241	0	1	0	0	CorrectCommission	0.024067	0.732715	0	1
387.928589	0.792230	city	7	1	0.704679	0.704679	0	1	0	0	CorrectCommission	1.105284	0.753371	0	1
388.720947	0.792481	city	2	1	0.744898	0.744898	0	1	0	0	CorrectCommission	1.524154	0.771603	0	1
389.513214	0.792090	city	5	1	0.695799	0.695799	0	1	0	0	CorrectCommission	1.012802	0.785275	0	1
390.305481	0.792439	city	1	1	0.695308	0.695308	0	1	0	0	CorrectCommission	1.007687	0.792985	0	1
391.097748	0.792051	city	3	1	0.695036	0.695036	0	1	0	0	CorrectCommission	1.004854	0.794227	0	1
391.890015	0.792478	city	2	1	0.794320	0.794320	0	1	0	0	CorrectCommission	2.038862	0.789410	0	1
392.682312	0.792157	city	4	1	0.650811	0.650811	0	1	0	0	CorrectCommission	0.544264	0.779650	0	1
393.474487	0.792156	city	1	1	0.596336	0.596336	0	1	0	0	CorrectCommission	0.023080	0.766555	0	1
394.266724	0.792372	city	10	1	0.511166	0.511166	0	1	0	0	CorrectCommission	0.910094	0.751790	0	1
395.058990	0.792160	city	3	1	0.600523	0.600523	0	1	0	0	CorrectCommission	0.020529	0.736717	0	1
395.851227	0.792262	city	9	1	0.655388	0.655388	0	1	0	0	CorrectCommission	0.591935	0.722178	0	1
396.643494	0.792269	city	6	1	0.596245	0.596245	0	1	0	0	CorrectCommission	0.024023	0.708341	0	1
397.435760	0.792264	city	2	1	0.645799	0.645799	0	1	0	0	CorrectCommission	0.492061	0.694844	0	1
398.228119	0.792479	city	4	1	0.695390	0.695390	0	1	0	0	CorrectCommission	1.008544	0.680981	0	1
399.020447	0.792156	city	9	1	0.843599	0.843599	0	1	0	0	CorrectCommission	2.552090	0.666053	0	1
399.812592	0.792157	city	6	1	0.646892	0.646892	0	1	0	0	CorrectCommission	0.503444	0.649623	0	1
400.604828	0.792306	city	8	1	0.596470	0.596470	0	1	0	0	CorrectCommission	0.021686	0.631830	0	1
401.397095	0.792225	mountain	5	1	0.497206	0.497206	0	0	1	0	CommissionError	1.055482	0.613356	0	1
402.189331	0.792263	mountain	10	0	0.000000	0.536986	1	0	0	0	CorrectOmission	0.641188	0.595345	0	1
402.981598	0.792262	city	1	1	0.596377	0.596377	0	1	0	0	CorrectCommission	0.022654	0.579198	1	1
403.773865	0.792266	city	3	1	0.555946	0.555946	0	1	0	0	CorrectCommission	0.443731	0.566241	1	1
404.566132	0.792264	city	8	1	0.546919	0.546919	0	1	0	0	CorrectCommission	0.537741	0.557357	1	1
405.358398	0.792268	city	1	1	0.645827	0.645827	0	1	0	0	CorrectCommission	0.492352	0.552720	1	1
406.150726	0.792372	city	4	1	0.596271	0.596271	0	1	0	0	CorrectCommission	0.023751	0.551646	1	1
406.943024	0.792236	city	9	1	0.596605	0.596605	0	1	0	0	CorrectCommission	0.020281	0.552629	1	1
407.735229	0.792184	city	6	1	0.546624	0.546624	0	1	0	0	CorrectCommission	0.540807	0.553514	1	1
408.527557	0.792482	city	1	1	0.603870	0.603870	0	1	0	0	CorrectCommission	0.055388	0.551831	1	1
409.319824	0.792047	mountain	8	0	0.000000	0.725822	1	0	0	0	CorrectOmission	1.325483	0.545244	1	1
410.111969	0.792266	city	8	1	0.801598	0.801598	0	1	0	0	CorrectCommission	2.114662	0.531973	1	1
410.904297	0.792372	mountain	4	0	0.000000	0.720313	1	0	0	0	CorrectOmission	1.268111	0.511168	1	1
411.696625	0.792264	city	8	1	0.596976	0.596976	0	1	0	0	CorrectCommission	0.016410	0.483127	1	1
412.488831	0.792156	city	7	1	0.546592	0.546592	0	1	0	0	CorrectCommission	0.541141	0.449252	1	1
413.281158	0.792483	mountain	5	0	0.000000	0.570483	1	0	0	0	CorrectOmission	0.292332	0.411823	1	1
414.073425	0.792046	city	6	1	0.607437	0.607437	0	1	0	0	CorrectCommission	0.092533	0.373693	1	1
414.865570	0.792269	city	7	1	0.596244	0.596244	0	1	0	0	CorrectCommission	0.024034	0.337986	1	1
415.657837	0.792263	mountain	1	0	0.000000	0.598401	1	0	0	0	CorrectOmission	0.001567	0.307586	1	1
416.450104	0.792303	city	2	1	0.602319	0.602319	0	1	0	0	CorrectCommission	0.039234	0.284877	1	1
417.242401	0.792285	city	1	1	0.596407	0.596407	0	1	0	0	CorrectCommission	0.022334	0.271685	1	1
418.034698	0.792315	city	5	1	0.596193	0.596193	0	1	0	0	CorrectCommission	0.024566	0.269232	1	1
418.827057	0.792373	city	7	1	0.547143	0.547143	0	1	0	0	CorrectCommission	0.535403	0.278218	1	1
419.619324	0.792156	city	6	1	0.596177	0.596177	0	1	0	0	CorrectCommission	0.024734	0.299012	1	1
420.411469	0.792167	city	4	1	0.596168	0.596168	0	1	0	0	CorrectCommission	0.024831	0.331829	1	1
421.203705	0.792255	city	2	1	0.614660	0.614660	0	1	0	0	CorrectCommission	0.167767	0.376810	1	1
421.996002	0.792371	city	5	1	0.645805	0.645805	0	1	0	0	CorrectCommission	0.492131	0.434018	1	1
422.788330	0.792265	city	1	1	0.695527	0.695527	0	1	0	0	CorrectCommission	1.009967	0.503298	1	1
423.580536	0.792157	city	3	1	0.645637	0.645637	0	1	0	0	CorrectCommission	0.490382	0.584046	0	1
424.372742	0.792268	city	1	1	0.615767	0.615767	0	1	0	0	CorrectCommission	0.179294	0.674892	0	0
425.165131	0.792480	mountain	7	0	0.000000	0.576418	1	0	0	0	CorrectOmission	0.230512	0.773370	0	0
425.957489	0.792262	mountain	4	1	0.596416	0.596416	0	0	1	0	CommissionError	0.022240	0.875729	0	0
426.749634	0.792048	city	8	1	0.744587	0.744587	0	1	0	0	CorrectCommission	1.520907	0.976922	0	0
427.541809	0.792268	city	2	1	0.596271	0.596271	0	1	0	0	CorrectCommission	0.023752	1.070832	0	0
428.334076	0.792289	city	8	1	0.547178	0.547178	0	1	0	0	CorrectCommission	0.535038	1.150948	0	0
429.126404	0.792346	city	6	1	0.602846	0.602846	0	1	0	0	CorrectCommission	0.044721	1.211047	0	0
429.918640	0.792155	city	3	1	1.202709	1.202709	0	1	0	0	CorrectCommission	6.292110	1.246084	0	0
430.710846	0.792266	city	1	0	0.000000	0.958320	0	0	0	1	OmissionError	3.746881	1.252843	0	0
431.503174	0.792331	city	2	1	0.497396	0.497396	0	1	0	0	CorrectCommission	1.053509	1.230745	0	0
432.295471	0.792308	city	8	1	0.447649	0.447649	0	1	0	0	CorrectCommission	1.571603	1.181820	0	0
433.087708	0.792157	city	9	1	0.500738	0.500738	0	1	0	0	CorrectCommission	1.018701	1.110396	0	0
433.880035	0.792480	city	7	1	0.547226	0.547226	0	1	0	0	CorrectCommission	0.534548	1.022570	0	0
434.672302	0.792050	city	10	1	0.547279	0.547279	0	1	0	0	CorrectCommission	0.533991	0.925317	0	0
435.464447	0.792264	city	4	1	0.596227	0.596227	0	1	0	0	CorrectCommission	0.024207	0.825591	0	0
436.256836	0.792479	city	1	1	0.561000	0.561000	0	1	0	0	CorrectCommission	0.391089	0.729555	0	0
437.049072	0.792050	city	5	1	0.546518	0.546518	0	1	0	0	CorrectCommission	0.541920	0.641999	0	0
437.841248	0.792262	city	4	1	0.596277	0.596277	0	1	0	0	CorrectCommission	0.023692	0.566040	1	0
438.633514	0.792264	city	1	1	0.645773	0.645773	0	1	0	0	CorrectCommission	0.491792	0.503170	1	0
439.425781	0.792303	city	5	1	0.607634	0.607634	0	1	0	0	CorrectCommission	0.094586	0.453463	1	0
440.218079	0.792281	city	1	1	0.645753	0.645753	0	1	0	0	CorrectCommission	0.491585	0.415996	1	0
441.010345	0.792214	city	9	1	0.646395	0.646395	0	1	0	0	CorrectCommission	0.498274	0.389297	1	0
441.802612	0.792327	city	3	1	0.551660	0.551660	0	1	0	0	CorrectCommission	0.488368	0.371788	1	0
442.594849	0.792198	city	1	1	0.596193	0.596193	0	1	0	0	CorrectCommission	0.024570	0.362135	1	0
443.387207	0.792484	city	5	1	0.546748	0.546748	0	1	0	0	CorrectCommission	0.539518	0.359479	1	0
444.179474	0.792069	city	2	1	0.546672	0.546672	0	1	0	0	CorrectCommission	0.540315	0.363438	1	0
444.971741	0.792460	city	9	1	0.596340	0.596340	0	1	0	0	CorrectCommission	0.023035	0.374155	1	0
445.764008	0.792056	city	7	1	0.550714	0.550714	0	1	0	0	CorrectCommission	0.498220	0.392017	1	0
446.556152	0.792266	city	9	1	0.565101	0.565101	0	1	0	0	CorrectCommission	0.348376	0.417454	1	0
447.348419	0.792255	city	3	1	0.596782	0.596782	0	1	0	0	CorrectCommission	0.018428	0.450593	1	0
448.140686	0.792264	city	1	1	0.596328	0.596328	0	1	0	0	CorrectCommission	0.023161	0.491217	1	0
448.933044	0.792484	city	5	1	0.546738	0.546738	0	1	0	0	CorrectCommission	0.539622	0.538654	1	0
449.725372	0.792131	city	7	1	0.613115	0.613115	0	1	0	0	CorrectCommission	0.151668	0.591758	0	0
450.517517	0.792181	city	5	1	0.596214	0.596214	0	1	0	0	CorrectCommission	0.024353	0.649045	0	0
451.309845	0.792483	mountain	8	0	0.000000	0.717184	1	0	0	0	CorrectOmission	1.235524	0.708924	0	0
452.102112	0.792050	city	7	1	0.794283	0.794283	0	1	0	0	CorrectCommission	2.038479	0.769882	0	0
452.894287	0.792306	city	4	1	0.645764	0.645764	0	1	0	0	CorrectCommission	0.491698	0.830690	0	0
453.686676	0.792437	city	10	1	0.546719	0.546719	0	1	0	0	CorrectCommission	0.539824	0.890518	0	0
454.478973	0.792157	city	7	1	0.461503	0.461503	0	1	0	0	CorrectCommission	1.427323	0.948831	0	0
455.271118	0.792156	city	1	1	0.465874	0.465874	0	1	0	0	CorrectCommission	1.381801	1.005237	0	0
456.063324	0.792263	city	5	1	0.447620	0.447620	0	1	0	0	CorrectCommission	1.571905	1.059246	0	0
456.855591	0.792264	city	6	1	0.546856	0.546856	0	1	0	0	CorrectCommission	0.538398	1.109986	0	0
457.647858	0.792266	city	5	1	0.596259	0.596259	0	1	0	0	CorrectCommission	0.023874	1.156023	0	0
458.440125	0.792263	city	8	1	0.596246	0.596246	0	1	0	0	CorrectCommission	0.024009	1.195296	0	0
459.232513	0.792485	city	3	1	0.645892	0.645892	0	1	0	0	CorrectCommission	0.493031	1.225264	0	0
460.024750	0.792047	city	7	1	0.942683	0.942683	0	1	0	0	CorrectCommission	3.584021	1.243253	0	0
460.816956	0.792356	city	5	1	0.893489	0.893489	0	1	0	0	CorrectCommission	3.071687	1.246836	0	0
461.609253	0.792217	city	6	1	0.795788	0.795788	0	1	0	0	CorrectCommission	2.054157	1.234418	0	0
462.401459	0.792221	city	1	1	0.648389	0.648389	0	1	0	0	CorrectCommission	0.519042	1.205547	0	0
463.193726	0.792268	city	5	1	0.497198	0.497198	0	1	0	0	CorrectCommission	1.055574	1.161091	0	0
463.985992	0.792264	city	10	1	0.447833	0.447833	0	1	0	0	CorrectCommission	1.569687	1.103166	0	0
464.778259	0.792263	city	5	1	0.398196	0.398196	0	1	0	0	CorrectCommission	2.086643	1.034966	0	0
465.570557	0.792372	city	7	1	0.596218	0.596218	0	1	0	0	CorrectCommission	0.024303	0.960308	0	0
466.362946	0.792374	mountain	7	0	0.000000	0.570355	1	0	0	0	CorrectOmission	0.293659	0.883253	0	0
467.155151	0.792046	city	1	1	0.497161	0.497161	0	1	0	0	CorrectCommission	1.055955	0.807576	0	0
467.947296	0.792266	mountain	5	1	0.553190	0.553190	0	0	1	0	CommissionError	0.472431	0.736468	0	0
468.739563	0.792264	city	4	1	0.596238	0.596238	0	1	0	0	CorrectCommission	0.024101	0.672323	0	0
469.531952	0.792483	city	7	1	0.558759	0.558759	0	1	0	0	CorrectCommission	0.414434	0.616630	0	0
470.324249	0.792155	city	5	1	0.546441	0.546441	0	1	0	0	CorrectCommission	0.542717	0.570070	1	0
471.116425	0.792157	city	1	1	0.549040	0.549040	0	1	0	0	CorrectCommission	0.515652	0.532662	1	0
471.908722	0.792481	city	9	1	0.546751	0.546751	0	1	0	0	CorrectCommission	0.539490	0.503954	1	0
472.701050	0.792157	city	7	1	0.546589	0.546589	0	1	0	0	CorrectCommission	0.541181	0.483240	1	0
473.493225	0.792158	city	6	1	0.546769	0.546769	0	1	0	0	CorrectCommission	0.539305	0.469698	1	0
474.285431	0.792266	city	7	1	0.546706	0.546706	0	1	0	0	CorrectCommission	0.539959	0.462485	1	0
475.077698	0.792265	city	4	1	0.546832	0.546832	0	1	0	0	CorrectCommission	0.538642	0.460711	1	0
475.869965	0.792261	city	9	1	0.596235	0.596235	0	1	0	0	CorrectCommission	0.024130	0.463407	1	0
476.662201	0.792263	mountain	5	0	0.000000	0.604879	1	0	0	0	CorrectOmission	0.065894	0.469498	1	0
477.454468	0.792270	city	7	1	0.596852	0.596852	0	1	0	0	CorrectCommission	0.017698	0.477724	1	0
478.246796	0.792370	city	3	1	0.596244	0.596244	0	1	0	0	CorrectCommission	0.024032	0.486776	1	0
479.039185	0.792374	city	4	1	0.645783	0.645783	0	1	0	0	CorrectCommission	0.491897	0.495369	1	0
479.831390	0.792054	city	10	1	0.843750	0.843750	0	1	0	0	CorrectCommission	2.553665	0.502470	1	0
480.623535	0.792259	city	6	1	0.650607	0.650607	0	1	0	0	CorrectCommission	0.542139	0.507345	1	0
481.415802	0.792264	city	4	1	0.645761	0.645761	0	1	0	0	CorrectCommission	0.491672	0.509767	1	0
482.208069	0.792269	city	3	1	0.596336	0.596336	0	1	0	0	CorrectCommission	0.023078	0.509878	1	0
483.000427	0.792478	city	8	1	0.547115	0.547115	0	1	0	0	CorrectCommission	0.535702	0.508185	1	0
483.792725	0.792093	mountain	5	1	0.546965	0.546965	0	0	1	0	CommissionError	0.537265	0.505323	1	0
484.584991	0.792437	city	6	1	0.596331	0.596331	0	1	0	0	CorrectCommission	0.023132	0.501908	1	0
485.377350	0.792264	city	4	1	0.560305	0.560305	0	1	0	0	CorrectCommission	0.398326	0.498406	1	0
486.169525	0.792080	mountain	2	0	0.000000	0.549510	1	0	0	0	CorrectOmission	0.510755	0.495038	1	0
486.961670	0.792237	city	10	1	0.551330	0.551330	0	1	0	0	CorrectCommission	0.491802	0.491802	1	0
