onset	duration	trial_type	image_type	Press	ReactionTime	ReactionTime_Interpolated	CorrectOmission	CorrectCommission	CommissionError	OmissionError	response_type	nonsmoothVarianceTimeCourse	VarianceTimeCourse	In_the_Zone	Reward_trial
8.433810	0.792263	city	10	1	0.893350	0.893350	0	1	0	0	CorrectCommission	0.737738	0.737738	1	1
9.226075	0.792265	city	9	1	0.514136	0.514136	0	1	0	0	CorrectCommission	1.666725	0.875889	0	1
10.018343	0.792271	city	3	1	0.448150	0.448150	0	1	0	0	CorrectCommission	2.085117	1.008150	0	1
10.810660	0.792363	city	5	1	0.695276	0.695276	0	1	0	0	CorrectCommission	0.518180	1.129134	0	1
11.602938	0.792192	city	8	1	0.410230	0.410230	0	1	0	0	CorrectCommission	2.325554	1.234397	0	1
12.395152	0.792236	city	6	1	0.497379	0.497379	0	1	0	0	CorrectCommission	1.772970	1.320666	0	1
13.187399	0.792257	city	2	1	0.497174	0.497174	0	1	0	0	CorrectCommission	1.774275	1.386046	0	1
13.979660	0.792265	city	5	1	0.497217	0.497217	0	1	0	0	CorrectCommission	1.774001	1.429933	0	1
14.771959	0.792333	city	6	1	0.497201	0.497201	0	1	0	0	CorrectCommission	1.774099	1.452869	0	1
15.564225	0.792198	mountain	6	0	0.000000	0.493295	1	0	0	0	CorrectOmission	1.798871	1.456245	0	1
16.356457	0.792265	city	8	1	0.503751	0.503751	0	1	0	0	CorrectCommission	1.732571	1.441983	0	1
17.148720	0.792261	city	3	1	0.546825	0.546825	0	1	0	0	CorrectCommission	1.459454	1.412274	0	1
17.940985	0.792269	city	9	1	0.646163	0.646163	0	1	0	0	CorrectCommission	0.829587	1.369338	0	1
18.733244	0.792248	city	8	1	0.646010	0.646010	0	1	0	0	CorrectCommission	0.830555	1.315341	0	1
19.525507	0.792278	city	1	1	0.454180	0.454180	0	1	0	0	CorrectCommission	2.046881	1.252344	0	1
20.317781	0.792275	city	7	1	0.605108	0.605108	0	1	0	0	CorrectCommission	1.089902	1.182440	0	1
21.110077	0.792313	city	3	1	0.546705	0.546705	0	1	0	0	CorrectCommission	1.460211	1.107975	0	1
21.902336	0.792207	mountain	4	1	0.447654	0.447654	0	0	1	0	CommissionError	2.088264	1.031622	0	1
22.694586	0.792294	city	5	1	0.696641	0.696641	0	1	0	0	CorrectCommission	0.509526	0.956484	0	1
23.486906	0.792344	city	1	1	0.645818	0.645818	0	1	0	0	CorrectCommission	0.831771	0.886043	0	1
24.279160	0.792162	city	7	1	0.700147	0.700147	0	1	0	0	CorrectCommission	0.487296	0.823930	0	1
25.071371	0.792260	city	3	1	0.699969	0.699969	0	1	0	0	CorrectCommission	0.488425	0.773624	0	1
25.863741	0.792480	city	5	1	0.744808	0.744808	0	1	0	0	CorrectCommission	0.204111	0.737989	1	1
26.656006	0.792051	city	4	1	0.794225	0.794225	0	1	0	0	CorrectCommission	0.109223	0.718899	1	1
27.448271	0.792479	city	6	1	0.744748	0.744748	0	1	0	0	CorrectCommission	0.204497	0.716861	1	1
28.240643	0.792265	city	7	1	0.695469	0.695469	0	1	0	0	CorrectCommission	0.516958	0.730848	1	1
29.032799	0.792048	city	9	1	0.695006	0.695006	0	1	0	0	CorrectCommission	0.519889	0.758226	0	1
29.825064	0.792481	city	8	1	0.745244	0.745244	0	1	0	0	CorrectCommission	0.201347	0.794991	0	1
30.617437	0.792266	city	4	1	0.893102	0.893102	0	1	0	0	CorrectCommission	0.736165	0.836157	0	1
31.409609	0.792078	city	8	1	0.858216	0.858216	0	1	0	0	CorrectCommission	0.514968	0.876309	0	1
32.201874	0.792449	city	1	1	1.011989	1.011989	0	1	0	0	CorrectCommission	1.489986	0.910282	0	1
32.994175	0.792156	city	10	1	1.041979	1.041979	0	1	0	0	CorrectCommission	1.680142	0.933808	0	1
33.786331	0.792160	city	3	1	1.239886	1.239886	0	1	0	0	CorrectCommission	2.934997	0.944076	0	1
34.578575	0.792327	mountain	3	0	0.000000	0.951075	1	0	0	0	CorrectOmission	1.103752	0.940025	0	1
35.370842	0.792202	city	10	1	0.596256	0.596256	0	1	0	0	CorrectCommission	1.146032	0.922502	0	1
36.163101	0.792318	city	9	1	0.596135	0.596135	0	1	0	0	CorrectCommission	1.146797	0.893933	0	1
36.955387	0.792256	city	5	1	0.654971	0.654971	0	1	0	0	CorrectCommission	0.773736	0.857890	0	1
37.747623	0.792218	city	7	1	0.762011	0.762011	0	1	0	0	CorrectCommission	0.095034	0.818520	0	1
38.539974	0.792481	city	9	1	0.795262	0.795262	0	1	0	0	CorrectCommission	0.115795	0.779890	0	1
39.332348	0.792265	city	4	1	0.794068	0.794068	0	1	0	0	CorrectCommission	0.108224	0.745429	0	1
40.124504	0.792050	city	10	1	0.595996	0.595996	0	1	0	0	CorrectCommission	1.147676	0.717533	1	1
40.916664	0.792268	city	4	1	0.753110	0.753110	0	1	0	0	CorrectCommission	0.151477	0.697380	1	1
41.708927	0.792261	city	2	1	0.662699	0.662699	0	1	0	0	CorrectCommission	0.724741	0.684999	1	1
42.501190	0.792264	mountain	2	0	0.000000	0.673757	1	0	0	0	CorrectOmission	0.654621	0.679395	1	1
43.293484	0.792325	city	10	1	0.695981	0.695981	0	1	0	0	CorrectCommission	0.513711	0.678916	1	1
44.085804	0.792313	mountain	5	0	0.000000	0.639063	1	0	0	0	CorrectOmission	0.874605	0.681588	1	1
44.878040	0.792156	city	8	1	0.596118	0.596118	0	1	0	0	CorrectCommission	1.146905	0.685443	1	1
45.670265	0.792301	city	6	1	0.660259	0.660259	0	1	0	0	CorrectCommission	0.740211	0.688776	1	1
46.462532	0.792228	city	4	1	0.652831	0.652831	0	1	0	0	CorrectCommission	0.787310	0.690347	1	1
47.254776	0.792266	city	1	1	0.758018	0.758018	0	1	0	0	CorrectCommission	0.120355	0.689417	1	1
48.047043	0.792263	city	2	1	0.943918	0.943918	0	1	0	0	CorrectCommission	1.058371	0.685743	1	1
48.839310	0.792270	city	7	1	0.949813	0.949813	0	1	0	0	CorrectCommission	1.095753	0.679451	1	1
49.631683	0.792478	city	6	1	0.696039	0.696039	0	1	0	0	CorrectCommission	0.513339	0.670938	1	1
50.423946	0.792050	city	9	1	0.653082	0.653082	0	1	0	0	CorrectCommission	0.785718	0.660740	1	1
51.216156	0.792369	city	2	1	0.695357	0.695357	0	1	0	0	CorrectCommission	0.517662	0.649383	1	1
52.008419	0.792158	city	8	1	0.844377	0.844377	0	1	0	0	CorrectCommission	0.427220	0.637381	1	1
52.800652	0.792303	city	6	1	0.823042	0.823042	0	1	0	0	CorrectCommission	0.291942	0.625169	1	1
53.592915	0.792226	city	1	1	0.804506	0.804506	0	1	0	0	CorrectCommission	0.174411	0.613161	1	1
54.385216	0.792374	city	10	1	1.052507	1.052507	0	1	0	0	CorrectCommission	1.746898	0.601834	1	1
55.177483	0.792163	city	9	1	0.764155	0.764155	0	1	0	0	CorrectCommission	0.081443	0.591798	1	1
55.969696	0.792265	city	6	1	0.596242	0.596242	0	1	0	0	CorrectCommission	1.146119	0.583916	1	1
56.761959	0.792256	city	7	1	0.645873	0.645873	0	1	0	0	CorrectCommission	0.831427	0.579215	1	1
57.554218	0.792265	mountain	8	0	0.000000	0.760215	1	0	0	0	CorrectOmission	0.106424	0.578842	1	1
58.346485	0.792267	city	10	1	0.843796	0.843796	0	1	0	0	CorrectCommission	0.423534	0.583911	1	1
59.138752	0.792266	city	5	1	0.801144	0.801144	0	1	0	0	CorrectCommission	0.153093	0.595244	1	1
59.931126	0.792479	city	4	1	0.858699	0.858699	0	1	0	0	CorrectCommission	0.518028	0.613184	1	1
60.723389	0.792046	city	9	1	0.794064	0.794064	0	1	0	0	CorrectCommission	0.108198	0.637393	1	1
61.515541	0.792264	city	10	1	0.896328	0.896328	0	1	0	0	CorrectCommission	0.756617	0.666767	1	1
62.307808	0.792264	city	9	1	0.695719	0.695719	0	1	0	0	CorrectCommission	0.515370	0.699431	1	1
63.100182	0.792482	city	6	1	0.646447	0.646447	0	1	0	0	CorrectCommission	0.827785	0.732884	1	1
63.892498	0.792156	mountain	5	0	0.000000	0.636053	1	0	0	0	CorrectOmission	0.893688	0.764204	0	1
64.684761	0.792373	city	10	1	0.655337	0.655337	0	1	0	0	CorrectCommission	0.771419	0.790398	0	1
65.476974	0.792046	city	9	1	0.695097	0.695097	0	1	0	0	CorrectCommission	0.519315	0.808723	0	1
66.269188	0.792375	city	10	1	0.512724	0.512724	0	1	0	0	CorrectCommission	1.675676	0.817038	0	1
67.061485	0.792219	mountain	5	0	0.000000	0.475002	1	0	0	0	CorrectOmission	1.914855	0.814037	0	1
67.853691	0.792202	city	2	1	0.596880	0.596880	0	1	0	0	CorrectCommission	1.142075	0.799445	0	0
68.645943	0.792296	city	7	1	0.893303	0.893303	0	1	0	0	CorrectCommission	0.737437	0.774038	0	0
69.438210	0.792244	city	10	1	0.860470	0.860470	0	1	0	0	CorrectCommission	0.529260	0.739494	0	0
70.230568	0.792470	city	1	1	0.645864	0.645864	0	1	0	0	CorrectCommission	0.831486	0.698167	1	0
71.022827	0.792051	city	6	1	0.744906	0.744906	0	1	0	0	CorrectCommission	0.203492	0.652782	1	0
71.815094	0.792479	city	10	1	0.645960	0.645960	0	1	0	0	CorrectCommission	0.830872	0.606108	1	0
72.607468	0.792265	mountain	7	0	0.000000	0.678369	1	0	0	0	CorrectOmission	0.625378	0.560677	1	0
73.399620	0.792048	city	2	1	0.744766	0.744766	0	1	0	0	CorrectCommission	0.204381	0.518555	1	0
74.191780	0.792264	mountain	6	0	0.000000	0.747782	1	0	0	0	CorrectOmission	0.185254	0.481217	1	0
74.984047	0.792267	city	10	1	0.745078	0.745078	0	1	0	0	CorrectCommission	0.202399	0.449520	1	0
75.776413	0.792480	city	8	1	0.794313	0.794313	0	1	0	0	CorrectCommission	0.109783	0.423798	1	0
76.568703	0.792092	city	2	1	0.747115	0.747115	0	1	0	0	CorrectCommission	0.189485	0.403999	1	0
77.360863	0.792225	city	10	1	0.596208	0.596208	0	1	0	0	CorrectCommission	1.146333	0.389870	1	0
78.153214	0.792477	city	3	1	0.706547	0.706547	0	1	0	0	CorrectCommission	0.446712	0.381122	1	0
78.945473	0.792048	mountain	6	0	0.000000	0.758519	1	0	0	0	CorrectOmission	0.117176	0.377587	1	0
79.737633	0.792264	city	3	1	0.754109	0.754109	0	1	0	0	CorrectCommission	0.145142	0.379252	1	0
80.529892	0.792264	city	4	1	0.695300	0.695300	0	1	0	0	CorrectCommission	0.518029	0.386213	1	0
81.322266	0.792482	city	2	1	0.698087	0.698087	0	1	0	0	CorrectCommission	0.500357	0.398563	1	0
82.114586	0.792156	city	6	1	0.794063	0.794063	0	1	0	0	CorrectCommission	0.108197	0.416227	1	0
82.906746	0.792161	city	8	1	0.844148	0.844148	0	1	0	0	CorrectCommission	0.425763	0.438818	1	0
83.698952	0.792260	mountain	10	0	0.000000	0.804318	1	0	0	0	CorrectOmission	0.173218	0.465468	1	0
84.491272	0.792374	city	9	1	0.751134	0.751134	0	1	0	0	CorrectCommission	0.164001	0.494845	1	0
85.283562	0.792211	city	2	1	0.761156	0.761156	0	1	0	0	CorrectCommission	0.100456	0.525173	1	0
86.075775	0.792213	city	3	1	0.752027	0.752027	0	1	0	0	CorrectCommission	0.158341	0.554455	1	0
86.868126	0.792480	city	5	1	0.943181	0.943181	0	1	0	0	CorrectCommission	1.053699	0.580725	1	0
87.660385	0.792049	city	4	1	0.992454	0.992454	0	1	0	0	CorrectCommission	1.366118	0.602327	1	0
88.452576	0.792333	city	8	1	1.054784	1.054784	0	1	0	0	CorrectCommission	1.761332	0.618202	1	0
89.244843	0.792197	city	4	1	0.943083	0.943083	0	1	0	0	CorrectCommission	1.053080	0.628010	1	0
90.037071	0.792263	mountain	3	0	0.000000	0.758005	1	0	0	0	CorrectOmission	0.120436	0.632173	1	0
90.829338	0.792267	city	8	1	0.656248	0.656248	0	1	0	0	CorrectCommission	0.765644	0.631697	1	0
91.621605	0.792260	city	3	1	0.794510	0.794510	0	1	0	0	CorrectCommission	0.111028	0.627883	1	0
92.413864	0.792266	city	5	1	0.708732	0.708732	0	1	0	0	CorrectCommission	0.432862	0.622100	1	0
93.206131	0.792268	city	8	1	0.744841	0.744841	0	1	0	0	CorrectCommission	0.203908	0.615459	1	0
93.998398	0.792266	city	6	1	0.745221	0.745221	0	1	0	0	CorrectCommission	0.201496	0.608683	1	0
94.790665	0.792273	city	3	1	0.652556	0.652556	0	1	0	0	CorrectCommission	0.789048	0.602025	1	0
95.582939	0.792262	city	7	1	0.596243	0.596243	0	1	0	0	CorrectCommission	1.146110	0.595361	1	0
96.375252	0.792364	city	1	1	0.563211	0.563211	0	1	0	0	CorrectCommission	1.355553	0.588364	1	0
97.167511	0.792158	city	6	1	0.794322	0.794322	0	1	0	0	CorrectCommission	0.109834	0.580650	1	0
97.959724	0.792265	city	4	1	0.758176	0.758176	0	1	0	0	CorrectCommission	0.119355	0.571978	1	0
98.751984	0.792262	city	10	1	0.859833	0.859833	0	1	0	0	CorrectCommission	0.525217	0.562345	1	0
99.544250	0.792262	city	6	1	1.051403	1.051403	0	1	0	0	CorrectCommission	1.739897	0.552036	1	0
100.336540	0.792318	city	4	1	0.804291	0.804291	0	1	0	0	CorrectCommission	0.173049	0.541564	1	0
101.128860	0.792321	mountain	2	0	0.000000	0.741571	1	0	0	0	CorrectOmission	0.224640	0.531706	1	0
101.921097	0.792157	city	8	1	0.744726	0.744726	0	1	0	0	CorrectCommission	0.204632	0.523298	1	0
102.713310	0.792264	city	10	1	0.695243	0.695243	0	1	0	0	CorrectCommission	0.518386	0.517129	1	0
103.505623	0.792372	city	3	1	0.794280	0.794280	0	1	0	0	CorrectCommission	0.109570	0.513901	1	0
104.297997	0.792376	city	5	1	0.851864	0.851864	0	1	0	0	CorrectCommission	0.474688	0.514163	1	0
105.090317	0.792263	city	9	1	0.611486	0.611486	0	1	0	0	CorrectCommission	1.049460	0.518301	1	0
105.882477	0.792048	city	10	1	0.698090	0.698090	0	1	0	0	CorrectCommission	0.500334	0.526542	1	0
106.674652	0.792308	mountain	4	0	0.000000	0.822043	1	0	0	0	CorrectOmission	0.285607	0.538977	1	0
107.466919	0.792220	city	5	1	0.904688	0.904688	0	1	0	0	CorrectCommission	0.809629	0.555537	1	0
108.259216	0.792374	mountain	5	0	0.000000	0.867369	1	0	0	0	CorrectOmission	0.573001	0.575905	1	0
109.051498	0.792190	city	2	1	0.795549	0.795549	0	1	0	0	CorrectCommission	0.117619	0.599531	1	0
109.843704	0.792233	mountain	6	0	0.000000	0.774694	1	0	0	0	CorrectOmission	0.014620	0.625567	1	0
110.636009	0.792370	city	2	1	0.843793	0.843793	0	1	0	0	CorrectCommission	0.423514	0.652825	1	0
111.428383	0.792375	city	9	1	1.041839	1.041839	0	1	0	0	CorrectCommission	1.679252	0.679889	1	0
112.220627	0.792109	city	5	1	0.910327	0.910327	0	1	0	0	CorrectCommission	0.845386	0.705135	1	0
113.012802	0.792251	city	1	1	0.759051	0.759051	0	1	0	0	CorrectCommission	0.113804	0.727025	1	0
113.805061	0.792262	city	10	1	0.598894	0.598894	0	1	0	0	CorrectCommission	1.129303	0.744229	0	0
114.597412	0.792437	city	3	1	0.599271	0.599271	0	1	0	0	CorrectCommission	1.126910	0.755870	0	0
115.389656	0.792054	city	7	1	0.752641	0.752641	0	1	0	0	CorrectCommission	0.154447	0.761732	0	0
116.181862	0.792366	city	3	1	0.546728	0.546728	0	1	0	0	CorrectCommission	1.460065	0.762394	0	0
116.974182	0.792267	city	2	1	0.447977	0.447977	0	1	0	0	CorrectCommission	2.086211	0.759170	0	0
117.766396	0.792159	city	4	1	0.744742	0.744742	0	1	0	0	CorrectCommission	0.204535	0.754134	0	0
118.558601	0.792263	city	8	1	0.695267	0.695267	0	1	0	0	CorrectCommission	0.518234	0.749900	0	0
119.350868	0.792267	mountain	10	0	0.000000	0.807879	1	0	0	0	CorrectOmission	0.195798	0.749269	0	0
120.143242	0.792478	city	6	1	0.854488	0.854488	0	1	0	0	CorrectCommission	0.491328	0.754886	0	0
120.935616	0.792263	city	8	1	0.607004	0.607004	0	1	0	0	CorrectCommission	1.077880	0.768859	0	0
121.727768	0.792051	city	7	1	0.707343	0.707343	0	1	0	0	CorrectCommission	0.441665	0.792404	0	0
122.519928	0.792263	city	1	1	0.744888	0.744888	0	1	0	0	CorrectCommission	0.203604	0.825630	0	0
123.312195	0.792267	city	7	1	0.794314	0.794314	0	1	0	0	CorrectCommission	0.109788	0.867411	0	0
124.104492	0.792330	city	10	1	0.695864	0.695864	0	1	0	0	CorrectCommission	0.514450	0.915443	0	0
124.896866	0.792414	city	7	1	1.041833	1.041833	0	1	0	0	CorrectCommission	1.679216	0.966427	0	0
125.689201	0.792264	city	9	1	0.858482	0.858482	0	1	0	0	CorrectCommission	0.516650	1.016384	0	0
126.481361	0.792050	city	6	1	1.190938	1.190938	0	1	0	0	CorrectCommission	2.624638	1.061129	0	0
127.273567	0.792369	city	9	0	0.000000	0.884835	0	0	0	1	OmissionError	0.683750	1.096597	0	1
128.065826	0.792157	city	3	1	0.512532	0.512532	0	1	0	0	CorrectCommission	1.676890	1.119408	0	1
128.858047	0.792266	city	2	1	0.646388	0.646388	0	1	0	0	CorrectCommission	0.828160	1.127063	0	1
129.650421	0.792480	city	3	1	0.507962	0.507962	0	1	0	0	CorrectCommission	1.705867	1.118316	0	1
130.442703	0.792086	city	8	1	0.497839	0.497839	0	1	0	0	CorrectCommission	1.770056	1.093233	0	1
131.234863	0.792229	city	9	1	0.497290	0.497290	0	1	0	0	CorrectCommission	1.773540	1.053232	0	1
132.027100	0.792261	city	8	1	0.596351	0.596351	0	1	0	0	CorrectCommission	1.145430	1.000935	0	1
132.819366	0.792265	city	2	1	0.602210	0.602210	0	1	0	0	CorrectCommission	1.108276	0.939963	0	1
133.611633	0.792265	city	4	1	0.801496	0.801496	0	1	0	0	CorrectCommission	0.155326	0.874531	0	1
134.404007	0.792481	city	10	1	0.646289	0.646289	0	1	0	0	CorrectCommission	0.828785	0.809096	0	1
135.196381	0.792265	city	3	1	0.664233	0.664233	0	1	0	0	CorrectCommission	0.715011	0.747930	0	1
135.988586	0.792156	city	6	1	0.705820	0.705820	0	1	0	0	CorrectCommission	0.451326	0.694746	1	1
136.780792	0.792266	city	4	1	0.752913	0.752913	0	1	0	0	CorrectCommission	0.152726	0.652356	1	1
137.573013	0.792154	city	7	1	0.744724	0.744724	0	1	0	0	CorrectCommission	0.204649	0.622455	1	1
138.365219	0.792265	city	1	1	0.758666	0.758666	0	1	0	0	CorrectCommission	0.116245	0.605487	1	1
139.157486	0.792267	city	8	1	0.844282	0.844282	0	1	0	0	CorrectCommission	0.426616	0.600673	1	1
139.949768	0.792293	city	2	1	0.893334	0.893334	0	1	0	0	CorrectCommission	0.737640	0.606129	1	1
140.742065	0.792300	city	8	1	0.844655	0.844655	0	1	0	0	CorrectCommission	0.428978	0.619102	1	1
141.534317	0.792204	city	10	1	0.843781	0.843781	0	1	0	0	CorrectCommission	0.423440	0.636296	1	1
142.326538	0.792260	city	3	1	0.843830	0.843830	0	1	0	0	CorrectCommission	0.423751	0.654204	1	1
143.118805	0.792266	city	10	1	0.947648	0.947648	0	1	0	0	CorrectCommission	1.082020	0.669526	1	1
143.911179	0.792483	mountain	4	0	0.000000	1.003903	1	0	0	0	CorrectOmission	1.438712	0.679432	1	1
144.703445	0.792048	city	6	1	0.942960	0.942960	0	1	0	0	CorrectCommission	1.052300	0.681929	1	1
145.495651	0.792371	city	8	1	0.695187	0.695187	0	1	0	0	CorrectCommission	0.518744	0.675973	1	1
146.287918	0.792158	city	4	1	0.602727	0.602727	0	1	0	0	CorrectCommission	1.105002	0.661536	1	1
147.080139	0.792268	city	7	1	0.613536	0.613536	0	1	0	0	CorrectCommission	1.036463	0.639487	1	1
147.872391	0.792261	city	1	1	0.646314	0.646314	0	1	0	0	CorrectCommission	0.828628	0.611481	1	1
148.664673	0.792279	city	5	1	0.762834	0.762834	0	1	0	0	CorrectCommission	0.089818	0.579702	1	1
149.456940	0.792253	city	7	1	0.805402	0.805402	0	1	0	0	CorrectCommission	0.180091	0.546673	1	1
150.249191	0.792262	city	1	1	0.794827	0.794827	0	1	0	0	CorrectCommission	0.113036	0.514989	1	1
151.041565	0.792481	city	9	1	0.901612	0.901612	0	1	0	0	CorrectCommission	0.790124	0.487217	1	1
151.833832	0.792048	city	1	1	0.800858	0.800858	0	1	0	0	CorrectCommission	0.151277	0.465733	1	1
152.625977	0.792263	city	5	1	0.857509	0.857509	0	1	0	0	CorrectCommission	0.510483	0.452705	1	1
153.418259	0.792302	city	3	1	0.905409	0.905409	0	1	0	0	CorrectCommission	0.814200	0.450000	1	1
154.210556	0.792288	city	6	1	0.800967	0.800967	0	1	0	0	CorrectCommission	0.151973	0.459124	1	1
155.002808	0.792211	city	5	1	0.755256	0.755256	0	1	0	0	CorrectCommission	0.137865	0.481110	1	1
155.795044	0.792262	city	4	1	0.801156	0.801156	0	1	0	0	CorrectCommission	0.153169	0.516320	1	1
156.587418	0.792480	city	7	1	0.808756	0.808756	0	1	0	0	CorrectCommission	0.201358	0.564278	1	1
157.379730	0.792154	city	3	1	0.710556	0.710556	0	1	0	0	CorrectCommission	0.421291	0.623514	1	1
158.171997	0.792374	city	6	1	0.806635	0.806635	0	1	0	0	CorrectCommission	0.187909	0.691494	1	1
158.964203	0.792046	city	1	1	0.798842	0.798842	0	1	0	0	CorrectCommission	0.138498	0.764684	0	1
159.756363	0.792268	city	8	1	0.911665	0.911665	0	1	0	0	CorrectCommission	0.853868	0.838738	0	1
160.548691	0.792372	city	6	1	0.992499	0.992499	0	1	0	0	CorrectCommission	1.366404	0.908824	0	1
161.340958	0.792178	city	10	1	0.998936	0.998936	0	1	0	0	CorrectCommission	1.407224	0.970129	0	1
162.133179	0.792246	city	7	1	1.041873	1.041873	0	1	0	0	CorrectCommission	1.679469	1.018391	0	1
162.925430	0.792266	city	5	1	1.057260	1.057260	0	1	0	0	CorrectCommission	1.777035	1.050387	0	1
163.717773	0.792423	city	10	1	0.943366	0.943366	0	1	0	0	CorrectCommission	1.054869	1.064339	0	1
164.510086	0.792216	city	4	1	1.045777	1.045777	0	1	0	0	CorrectCommission	1.704226	1.060194	0	1
165.302277	0.792153	city	7	1	1.004111	1.004111	0	1	0	0	CorrectCommission	1.440036	1.039604	0	1
166.094543	0.792370	city	6	1	1.054363	1.054363	0	1	0	0	CorrectCommission	1.758662	1.005779	0	1
166.886826	0.792216	city	8	1	0.992633	0.992633	0	1	0	0	CorrectCommission	1.367256	0.963047	0	1
167.679092	0.792314	city	3	1	0.843778	0.843778	0	1	0	0	CorrectCommission	0.423421	0.916326	0	1
168.471329	0.792160	city	1	1	0.794195	0.794195	0	1	0	0	CorrectCommission	0.109032	0.870455	0	1
169.263550	0.792262	city	10	1	0.843965	0.843965	0	1	0	0	CorrectCommission	0.424604	0.829576	0	1
170.055801	0.792266	city	1	1	0.844732	0.844732	0	1	0	0	CorrectCommission	0.429465	0.796604	0	1
170.848068	0.792266	mountain	4	0	0.000000	0.805128	1	0	0	0	CorrectOmission	0.178354	0.772922	0	1
171.640396	0.792369	city	8	1	0.750376	0.750376	0	1	0	0	CorrectCommission	0.168812	0.758318	0	1
172.432678	0.792219	mountain	5	0	0.000000	0.705696	1	0	0	0	CorrectOmission	0.452112	0.751136	0	1
173.224899	0.792205	city	9	1	0.646324	0.646324	0	1	0	0	CorrectCommission	0.828567	0.748673	0	1
174.017181	0.792373	city	3	1	0.547496	0.547496	0	1	0	0	CorrectCommission	1.455198	0.747717	0	1
174.809555	0.792371	city	2	1	0.546731	0.546731	0	1	0	0	CorrectCommission	1.460051	0.745106	0	1
175.601776	0.792077	city	6	1	0.645501	0.645501	0	1	0	0	CorrectCommission	0.833783	0.738239	1	1
176.393936	0.792239	city	9	1	0.600764	0.600764	0	1	0	0	CorrectCommission	1.117443	0.725455	1	1
177.186188	0.792266	city	6	1	0.596393	0.596393	0	1	0	0	CorrectCommission	1.145163	0.706179	1	1
177.978516	0.792369	city	7	1	0.695266	0.695266	0	1	0	0	CorrectCommission	0.518245	0.680952	1	1
178.770798	0.792210	mountain	4	0	0.000000	0.810055	1	0	0	0	CorrectOmission	0.209596	0.651260	1	1
179.563004	0.792208	city	10	1	0.893364	0.893364	0	1	0	0	CorrectCommission	0.737825	0.619214	1	1
180.355255	0.792269	city	9	1	0.897792	0.897792	0	1	0	0	CorrectCommission	0.765906	0.587227	1	1
181.147568	0.792372	city	10	1	0.744759	0.744759	0	1	0	0	CorrectCommission	0.204425	0.557726	1	1
181.939835	0.792159	city	8	1	0.744705	0.744705	0	1	0	0	CorrectCommission	0.204765	0.532858	1	1
182.732040	0.792265	city	1	1	0.705616	0.705616	0	1	0	0	CorrectCommission	0.452617	0.514286	1	1
183.524307	0.792261	city	8	1	0.809397	0.809397	0	1	0	0	CorrectCommission	0.205423	0.503079	1	1
184.316574	0.792266	city	1	1	0.843859	0.843859	0	1	0	0	CorrectCommission	0.423931	0.499701	1	1
185.108841	0.792266	city	4	1	0.843856	0.843856	0	1	0	0	CorrectCommission	0.423915	0.504017	1	1
185.901123	0.792292	city	6	1	0.893358	0.893358	0	1	0	0	CorrectCommission	0.737789	0.515378	1	1
186.693390	0.792239	city	10	1	0.852988	0.852988	0	1	0	0	CorrectCommission	0.481818	0.532712	1	0
187.485626	0.792262	city	9	1	0.806118	0.806118	0	1	0	0	CorrectCommission	0.184631	0.554646	1	0
188.277893	0.792266	city	10	1	0.794515	0.794515	0	1	0	0	CorrectCommission	0.111062	0.579597	1	0
189.070160	0.792265	city	2	1	0.893386	0.893386	0	1	0	0	CorrectCommission	0.737967	0.605901	1	0
189.862534	0.792479	city	6	1	0.992387	0.992387	0	1	0	0	CorrectCommission	1.365696	0.631923	1	0
190.654846	0.792135	city	7	1	0.843725	0.843725	0	1	0	0	CorrectCommission	0.423082	0.656176	1	0
191.446991	0.792177	city	8	1	0.844167	0.844167	0	1	0	0	CorrectCommission	0.425883	0.677455	1	0
192.239273	0.792374	mountain	3	0	0.000000	0.674544	1	0	0	0	CorrectOmission	0.649634	0.694874	1	0
193.031540	0.792154	city	5	1	0.515298	0.515298	0	1	0	0	CorrectCommission	1.659355	0.707906	1	0
193.823853	0.792483	mountain	3	1	0.546871	0.546871	0	0	1	0	CommissionError	1.459164	0.716347	1	0
194.616119	0.792047	city	3	1	0.794067	0.794067	0	1	0	0	CorrectCommission	0.108217	0.720262	1	0
195.408295	0.792298	city	4	1	0.795063	0.795063	0	1	0	0	CorrectCommission	0.114532	0.719905	1	0
196.200562	0.792236	city	7	1	0.695302	0.695302	0	1	0	0	CorrectCommission	0.518012	0.715548	1	0
196.992813	0.792286	city	8	1	0.609959	0.609959	0	1	0	0	CorrectCommission	1.059144	0.707406	1	0
197.785095	0.792253	city	4	1	0.646453	0.646453	0	1	0	0	CorrectCommission	0.827750	0.695592	1	0
198.577454	0.792469	city	3	1	0.645727	0.645727	0	1	0	0	CorrectCommission	0.832353	0.680163	1	0
199.369705	0.792048	city	5	1	0.603247	0.603247	0	1	0	0	CorrectCommission	1.101701	0.661134	1	0
200.161865	0.792270	city	3	1	0.745543	0.745543	0	1	0	0	CorrectCommission	0.199451	0.638572	1	0
200.954132	0.792263	city	10	1	0.801150	0.801150	0	1	0	0	CorrectCommission	0.153131	0.612724	1	0
201.746445	0.792369	mountain	8	0	0.000000	0.957785	1	0	0	0	CorrectOmission	1.146300	0.584067	1	0
202.538712	0.792160	city	4	1	1.008104	1.008104	0	1	0	0	CorrectCommission	1.465352	0.553383	1	0
203.330933	0.792259	city	1	1	0.744760	0.744760	0	1	0	0	CorrectCommission	0.204418	0.521779	1	0
204.123184	0.792266	city	3	1	0.802366	0.802366	0	1	0	0	CorrectCommission	0.160838	0.490678	1	0
204.915451	0.792268	city	2	1	0.843824	0.843824	0	1	0	0	CorrectCommission	0.423714	0.461690	1	0
205.707748	0.792316	city	5	1	0.745253	0.745253	0	1	0	0	CorrectCommission	0.201293	0.436511	1	0
206.500122	0.792427	city	8	1	0.745248	0.745248	0	1	0	0	CorrectCommission	0.201323	0.416776	1	0
207.292358	0.792050	city	5	1	0.712105	0.712105	0	1	0	0	CorrectCommission	0.411474	0.403950	1	0
208.084518	0.792263	city	7	1	0.745276	0.745276	0	1	0	0	CorrectCommission	0.201145	0.399220	1	0
208.876801	0.792316	city	8	1	0.844146	0.844146	0	1	0	0	CorrectCommission	0.425753	0.403406	1	0
209.669067	0.792212	city	2	1	0.794242	0.794242	0	1	0	0	CorrectCommission	0.109329	0.416931	1	0
210.461304	0.792265	city	6	1	0.853167	0.853167	0	1	0	0	CorrectCommission	0.482951	0.439769	1	0
211.253677	0.792484	city	8	1	0.752842	0.752842	0	1	0	0	CorrectCommission	0.153172	0.471425	1	0
212.046051	0.792262	city	7	1	0.744537	0.744537	0	1	0	0	CorrectCommission	0.205833	0.511048	1	0
212.838211	0.792049	city	5	1	0.796521	0.796521	0	1	0	0	CorrectCommission	0.123781	0.557420	1	0
213.630371	0.792263	city	7	1	0.893359	0.893359	0	1	0	0	CorrectCommission	0.737796	0.609051	1	0
214.422745	0.792483	mountain	4	0	0.000000	0.943283	1	0	0	0	CorrectOmission	1.054348	0.664242	1	0
215.215012	0.792051	city	5	1	0.944029	0.944029	0	1	0	0	CorrectCommission	1.059075	0.721187	1	0
216.007156	0.792261	city	7	1	0.893331	0.893331	0	1	0	0	CorrectCommission	0.737617	0.778048	0	0
216.799484	0.792375	city	9	1	0.814292	0.814292	0	1	0	0	CorrectCommission	0.236461	0.832999	0	0
217.591797	0.792263	city	4	1	0.943366	0.943366	0	1	0	0	CorrectCommission	1.054873	0.884259	0	0
218.384003	0.792159	city	1	1	0.949915	0.949915	0	1	0	0	CorrectCommission	1.096395	0.930101	0	0
219.176270	0.792370	city	3	1	0.942958	0.942958	0	1	0	0	CorrectCommission	1.052282	0.968921	0	0
219.968597	0.792264	city	5	1	1.010202	1.010202	0	1	0	0	CorrectCommission	1.478653	0.999282	0	0
220.760818	0.792202	city	1	1	1.046269	1.046269	0	1	0	0	CorrectCommission	1.707344	1.020020	0	0
221.553040	0.792238	city	10	0	0.000000	0.827113	0	0	0	1	OmissionError	0.317751	1.030313	0	0
222.345398	0.792469	mountain	5	1	0.596221	0.596221	0	0	1	0	CommissionError	1.146250	1.029812	0	0
223.137665	0.792075	city	8	1	0.597084	0.597084	0	1	0	0	CorrectCommission	1.140779	1.018672	0	0
223.929947	0.792476	city	2	1	0.645640	0.645640	0	1	0	0	CorrectCommission	0.832904	0.997677	0	0
224.722305	0.792238	city	6	1	0.401991	0.401991	0	1	0	0	CorrectCommission	2.377793	0.968259	0	0
225.514496	0.792154	city	2	1	0.497411	0.497411	0	1	0	0	CorrectCommission	1.772773	0.932374	0	0
226.306793	0.792430	city	10	1	0.794228	0.794228	0	1	0	0	CorrectCommission	0.109238	0.892453	0	0
227.099030	0.792054	city	3	1	0.895361	0.895361	0	1	0	0	CorrectCommission	0.750491	0.851157	0	0
227.891174	0.792227	city	9	1	0.843802	0.843802	0	1	0	0	CorrectCommission	0.423575	0.811010	0	0
228.683441	0.792317	city	4	1	0.704236	0.704236	0	1	0	0	CorrectCommission	0.461366	0.774228	0	0
229.475754	0.792298	city	5	1	0.744839	0.744839	0	1	0	0	CorrectCommission	0.203915	0.742444	0	0
230.267990	0.792173	city	1	1	0.794190	0.794190	0	1	0	0	CorrectCommission	0.108999	0.716607	1	0
231.060303	0.792464	city	10	1	0.896000	0.896000	0	1	0	0	CorrectCommission	0.754544	0.696957	1	0
231.852676	0.792267	city	9	1	1.041738	1.041738	0	1	0	0	CorrectCommission	1.678614	0.683106	1	0
232.644943	0.792264	city	5	1	0.896866	0.896866	0	1	0	0	CorrectCommission	0.760032	0.674207	1	0
233.437088	0.792047	city	1	1	0.849238	0.849238	0	1	0	0	CorrectCommission	0.458042	0.669186	1	0
234.229309	0.792374	mountain	4	0	0.000000	0.812527	1	0	0	0	CorrectOmission	0.225271	0.666880	1	0
235.021576	0.792158	city	7	1	0.745115	0.745115	0	1	0	0	CorrectCommission	0.202168	0.666165	1	0
235.813782	0.792260	city	6	1	0.605383	0.605383	0	1	0	0	CorrectCommission	1.088161	0.666060	1	0
236.606155	0.792485	city	3	1	0.596382	0.596382	0	1	0	0	CorrectCommission	1.145227	0.665751	1	0
237.398422	0.792046	city	1	1	0.646480	0.646480	0	1	0	0	CorrectCommission	0.827577	0.664601	1	0
238.190567	0.792264	city	7	1	0.695295	0.695295	0	1	0	0	CorrectCommission	0.518056	0.662113	1	0
238.982941	0.792483	city	1	1	0.744772	0.744772	0	1	0	0	CorrectCommission	0.204339	0.657885	1	0
239.775314	0.792265	city	8	1	0.942618	0.942618	0	1	0	0	CorrectCommission	1.050129	0.651554	1	0
240.567535	0.792154	city	4	1	0.751617	0.751617	0	1	0	0	CorrectCommission	0.160939	0.642742	1	0
241.359741	0.792266	city	6	1	0.645612	0.645612	0	1	0	0	CorrectCommission	0.833081	0.631140	1	0
242.151962	0.792184	city	3	1	0.596130	0.596130	0	1	0	0	CorrectCommission	1.146829	0.616440	1	0
242.944214	0.792311	city	2	1	0.745354	0.745354	0	1	0	0	CorrectCommission	0.200655	0.598473	1	0
243.736465	0.792192	city	5	1	0.645788	0.645788	0	1	0	0	CorrectCommission	0.831966	0.577307	1	0
244.528687	0.792264	mountain	1	0	0.000000	0.662221	1	0	0	0	CorrectOmission	0.727768	0.553214	1	0
245.320969	0.792305	city	8	1	0.695315	0.695315	0	1	0	0	CorrectCommission	0.517933	0.526762	1	0
246.113266	0.792261	city	10	1	0.645729	0.645729	0	1	0	0	CorrectCommission	0.832336	0.498772	1	1
246.905518	0.792263	city	8	1	0.695637	0.695637	0	1	0	0	CorrectCommission	0.515890	0.470234	1	1
247.697769	0.792243	city	1	1	0.744887	0.744887	0	1	0	0	CorrectCommission	0.203614	0.442217	1	1
248.490051	0.792304	city	5	1	0.744769	0.744769	0	1	0	0	CorrectCommission	0.204364	0.415755	1	1
249.282318	0.792230	city	10	1	0.794402	0.794402	0	1	0	0	CorrectCommission	0.110347	0.391737	1	1
250.074539	0.792227	city	9	1	0.795196	0.795196	0	1	0	0	CorrectCommission	0.115378	0.370880	1	1
250.866791	0.792283	city	5	1	0.843881	0.843881	0	1	0	0	CorrectCommission	0.424070	0.353719	1	1
251.659073	0.792266	city	7	1	0.855609	0.855609	0	1	0	0	CorrectCommission	0.498438	0.340643	1	1
252.451447	0.792481	city	10	1	0.745665	0.745665	0	1	0	0	CorrectCommission	0.198682	0.331999	1	1
253.243713	0.792049	city	6	1	0.854787	0.854787	0	1	0	0	CorrectCommission	0.493221	0.328160	1	1
254.035919	0.792372	city	8	1	0.758526	0.758526	0	1	0	0	CorrectCommission	0.117134	0.329572	1	1
254.828293	0.792371	city	9	1	0.855888	0.855888	0	1	0	0	CorrectCommission	0.500204	0.336847	1	1
255.620560	0.792158	city	1	1	0.843604	0.843604	0	1	0	0	CorrectCommission	0.422318	0.350601	1	1
256.412750	0.792209	city	5	1	0.805986	0.805986	0	1	0	0	CorrectCommission	0.183794	0.371436	1	1
257.204956	0.792210	city	9	1	0.795463	0.795463	0	1	0	0	CorrectCommission	0.117069	0.399738	1	1
257.997192	0.792264	city	6	1	0.758628	0.758628	0	1	0	0	CorrectCommission	0.116486	0.435571	1	1
258.789551	0.792484	city	7	1	0.794885	0.794885	0	1	0	0	CorrectCommission	0.113409	0.478549	1	1
259.581940	0.792266	city	8	1	0.758532	0.758532	0	1	0	0	CorrectCommission	0.117097	0.527800	1	1
260.374207	0.792262	city	9	1	0.843639	0.843639	0	1	0	0	CorrectCommission	0.422537	0.582033	1	1
261.166412	0.792158	mountain	6	0	0.000000	0.948905	1	0	0	0	CorrectOmission	1.089989	0.639628	1	1
261.958557	0.792155	city	9	1	0.943182	0.943182	0	1	0	0	CorrectCommission	1.053703	0.698826	1	1
262.750763	0.792263	city	3	1	0.695323	0.695323	0	1	0	0	CorrectCommission	0.517878	0.757921	0	1
263.543030	0.792267	city	9	1	0.652317	0.652317	0	1	0	0	CorrectCommission	0.790569	0.815400	0	1
264.335419	0.792483	city	6	1	0.546831	0.546831	0	1	0	0	CorrectCommission	1.459415	0.870002	0	1
265.127777	0.792262	city	7	1	0.596158	0.596158	0	1	0	0	CorrectCommission	1.146651	0.920712	0	1
265.919952	0.792071	city	1	1	0.596171	0.596171	0	1	0	0	CorrectCommission	1.146565	0.966686	0	1
266.712128	0.792244	city	2	1	0.659482	0.659482	0	1	0	0	CorrectCommission	0.745133	1.007117	0	1
267.504486	0.792480	city	3	1	0.610135	0.610135	0	1	0	0	CorrectCommission	1.058030	1.041084	0	1
268.296753	0.792046	city	9	1	0.695013	0.695013	0	1	0	0	CorrectCommission	0.519843	1.067464	0	1
269.088959	0.792374	city	3	1	0.744830	0.744830	0	1	0	0	CorrectCommission	0.203972	1.084979	0	1
269.881226	0.792157	city	5	1	1.202564	1.202564	0	1	0	0	CorrectCommission	2.698353	1.092329	0	1
270.673462	0.792341	city	4	0	0.000000	0.917961	0	0	0	1	OmissionError	0.893790	1.088348	0	1
271.465729	0.792187	city	2	1	0.497278	0.497278	0	1	0	0	CorrectCommission	1.773615	1.072433	0	1
272.257965	0.792264	city	8	1	0.546768	0.546768	0	1	0	0	CorrectCommission	1.459814	1.044665	0	1
273.050232	0.792299	mountain	1	0	0.000000	0.547800	1	0	0	0	CorrectOmission	1.453269	1.006047	0	1
273.842499	0.792232	city	4	1	0.549537	0.549537	0	1	0	0	CorrectCommission	1.442256	0.958511	0	1
274.634735	0.792245	city	2	1	0.601142	0.601142	0	1	0	0	CorrectCommission	1.115049	0.904771	0	1
275.427032	0.792328	city	3	1	0.695293	0.695293	0	1	0	0	CorrectCommission	0.518069	0.848056	0	1
276.219299	0.792248	city	7	1	0.794300	0.794300	0	1	0	0	CorrectCommission	0.109699	0.791737	0	1
277.011658	0.792456	city	4	1	0.695262	0.695262	0	1	0	0	CorrectCommission	0.518267	0.738928	0	1
277.803925	0.792052	city	10	1	0.744557	0.744557	0	1	0	0	CorrectCommission	0.205703	0.692128	1	1
278.596069	0.792262	city	3	1	0.711251	0.711251	0	1	0	0	CorrectCommission	0.416885	0.653051	1	1
279.388336	0.792268	city	1	1	0.843976	0.843976	0	1	0	0	CorrectCommission	0.424672	0.622557	1	1
280.180603	0.792263	mountain	2	0	0.000000	0.849805	1	0	0	0	CorrectOmission	0.461634	0.600743	1	1
280.972900	0.792306	city	6	1	0.745299	0.745299	0	1	0	0	CorrectCommission	0.200998	0.587127	1	1
281.765167	0.792220	city	8	1	0.547020	0.547020	0	1	0	0	CorrectCommission	1.458219	0.580887	1	1
282.557404	0.792265	city	7	1	0.902403	0.902403	0	1	0	0	CorrectCommission	0.795137	0.581062	1	1
283.349701	0.792373	mountain	6	0	0.000000	0.863444	1	0	0	0	CorrectOmission	0.548112	0.586801	1	1
284.142090	0.792373	city	10	1	0.745026	0.745026	0	1	0	0	CorrectCommission	0.202733	0.597344	1	1
284.934326	0.792104	city	2	1	0.862032	0.862032	0	1	0	0	CorrectCommission	0.539164	0.612012	1	1
285.726471	0.792212	city	1	1	0.697649	0.697649	0	1	0	0	CorrectCommission	0.503131	0.630124	1	1
286.518829	0.792479	city	6	1	0.748410	0.748410	0	1	0	0	CorrectCommission	0.181276	0.650930	1	1
287.311157	0.792155	city	10	1	0.645508	0.645508	0	1	0	0	CorrectCommission	0.833738	0.673495	1	1
288.103302	0.792162	city	4	1	0.695167	0.695167	0	1	0	0	CorrectCommission	0.518873	0.696734	1	1
288.895538	0.792296	city	6	1	0.893344	0.893344	0	1	0	0	CorrectCommission	0.737699	0.719471	1	1
289.687897	0.792447	city	3	1	0.695281	0.695281	0	1	0	0	CorrectCommission	0.518150	0.740551	0	1
290.480194	0.792155	city	8	1	0.596024	0.596024	0	1	0	0	CorrectCommission	1.147497	0.759005	0	1
291.272369	0.792174	mountain	9	0	0.000000	0.530524	1	0	0	0	CorrectOmission	1.562809	0.774162	0	1
292.064697	0.792464	city	1	1	0.547341	0.547341	0	1	0	0	CorrectCommission	1.456179	0.785730	0	1
292.856934	0.792051	city	7	1	0.695036	0.695036	0	1	0	0	CorrectCommission	0.519698	0.793796	0	1
293.649109	0.792260	city	4	1	0.810184	0.810184	0	1	0	0	CorrectCommission	0.210412	0.798723	0	1
294.441406	0.792324	city	6	1	0.609878	0.609878	0	1	0	0	CorrectCommission	1.059658	0.800984	0	1
295.233673	0.792207	city	3	1	0.695422	0.695422	0	1	0	0	CorrectCommission	0.517253	0.801006	0	1
296.025909	0.792274	city	6	1	0.844308	0.844308	0	1	0	0	CorrectCommission	0.426781	0.799121	0	1
296.818268	0.792474	mountain	7	0	0.000000	0.811353	1	0	0	0	CorrectOmission	0.217826	0.795523	0	1
297.610535	0.792045	city	10	1	0.844254	0.844254	0	1	0	0	CorrectCommission	0.426438	0.790408	0	1
298.402679	0.792267	city	7	1	1.190707	1.190707	0	1	0	0	CorrectCommission	2.623175	0.784082	0	1
299.194977	0.792299	city	5	1	1.003658	1.003658	0	1	0	0	CorrectCommission	1.437162	0.777123	0	1
299.987244	0.792272	city	3	1	0.893515	0.893515	0	1	0	0	CorrectCommission	0.738782	0.770595	0	1
300.779572	0.792330	city	6	1	0.794258	0.794258	0	1	0	0	CorrectCommission	0.109429	0.766004	0	1
301.571899	0.792373	city	2	1	0.794183	0.794183	0	1	0	0	CorrectCommission	0.108954	0.765187	0	1
302.364166	0.792156	city	4	1	0.906431	0.906431	0	1	0	0	CorrectCommission	0.820680	0.770083	0	1
303.156433	0.792373	city	7	1	0.893540	0.893540	0	1	0	0	CorrectCommission	0.738940	0.782434	0	1
303.948639	0.792046	city	5	1	0.942739	0.942739	0	1	0	0	CorrectCommission	1.050898	0.803480	0	1
304.740814	0.792267	mountain	10	0	0.000000	0.830413	1	0	0	0	CorrectOmission	0.338674	0.833613	0	1
305.533081	0.792265	city	3	1	0.749605	0.749605	0	1	0	0	CorrectCommission	0.173696	0.872215	0	0
306.325348	0.792265	city	4	1	0.893363	0.893363	0	1	0	0	CorrectCommission	0.737822	0.917527	0	0
307.117615	0.792277	city	8	1	0.852773	0.852773	0	1	0	0	CorrectCommission	0.480455	0.966726	0	0
307.909882	0.792291	city	6	1	0.957847	0.957847	0	1	0	0	CorrectCommission	1.146689	1.016163	0	0
308.702148	0.792228	city	5	1	0.943145	0.943145	0	1	0	0	CorrectCommission	1.053470	1.061698	0	0
309.494385	0.792266	city	4	1	1.041991	1.041991	0	1	0	0	CorrectCommission	1.680219	1.099210	0	0
310.286774	0.792480	city	6	1	1.091446	1.091446	0	1	0	0	CorrectCommission	1.993791	1.125059	0	0
311.079071	0.792102	city	8	1	1.041901	1.041901	0	1	0	0	CorrectCommission	1.679649	1.136530	0	0
311.871216	0.792210	city	3	1	0.959059	0.959059	0	1	0	0	CorrectCommission	1.154376	1.132160	0	0
312.663452	0.792274	city	8	1	1.147552	1.147552	0	1	0	0	CorrectCommission	2.349542	1.111892	0	0
313.455750	0.792283	city	9	0	0.000000	0.861254	0	0	0	1	OmissionError	0.534226	1.077045	0	0
314.247986	0.792237	city	7	1	0.547264	0.547264	0	1	0	0	CorrectCommission	1.456668	1.030180	0	0
315.040253	0.792267	city	4	1	0.652684	0.652684	0	1	0	0	CorrectCommission	0.788238	0.974709	0	0
315.832520	0.792269	city	6	1	0.942843	0.942843	0	1	0	0	CorrectCommission	1.051556	0.914567	0	0
316.624847	0.792367	city	5	1	0.850356	0.850356	0	1	0	0	CorrectCommission	0.465128	0.853795	0	0
317.417084	0.792160	mountain	6	0	0.000000	0.863326	1	0	0	0	CorrectOmission	0.547369	0.796190	0	0
318.209320	0.792262	city	7	1	0.893357	0.893357	0	1	0	0	CorrectCommission	0.737780	0.744972	0	0
319.001617	0.792372	mountain	1	0	0.000000	0.852049	1	0	0	0	CorrectOmission	0.475862	0.702564	1	0
319.793884	0.792159	city	4	1	0.800729	0.800729	0	1	0	0	CorrectCommission	0.150464	0.670469	1	0
320.586090	0.792265	city	10	1	0.800725	0.800725	0	1	0	0	CorrectCommission	0.150436	0.649257	1	0
321.378357	0.792265	city	6	1	0.900367	0.900367	0	1	0	0	CorrectCommission	0.782228	0.638636	1	0
322.170654	0.792290	mountain	2	0	0.000000	0.904613	1	0	0	0	CorrectOmission	0.809151	0.637558	1	0
322.962921	0.792248	city	7	1	0.857600	0.857600	0	1	0	0	CorrectCommission	0.511061	0.644439	1	0
323.755280	0.792469	city	1	1	0.803466	0.803466	0	1	0	0	CorrectCommission	0.167816	0.657320	1	0
324.547546	0.792056	city	5	1	0.893100	0.893100	0	1	0	0	CorrectCommission	0.736155	0.674100	1	0
325.339691	0.792258	city	9	1	0.913850	0.913850	0	1	0	0	CorrectCommission	0.867722	0.692698	1	0
326.132050	0.792482	city	2	1	0.893364	0.893364	0	1	0	0	CorrectCommission	0.737826	0.711252	1	0
326.924316	0.792046	city	7	1	0.943129	0.943129	0	1	0	0	CorrectCommission	1.053369	0.728253	1	0
327.716522	0.792331	city	9	0	0.000000	0.695390	0	0	0	1	OmissionError	0.517454	0.742622	0	0
328.508881	0.792417	city	10	1	0.497137	0.497137	0	1	0	0	CorrectCommission	1.774506	0.753782	0	0
329.301117	0.792045	city	8	1	0.695359	0.695359	0	1	0	0	CorrectCommission	0.517652	0.761619	0	0
330.093262	0.792266	city	5	1	0.746910	0.746910	0	1	0	0	CorrectCommission	0.190784	0.766512	0	0
330.885651	0.792482	city	6	1	0.893295	0.893295	0	1	0	0	CorrectCommission	0.737389	0.769201	0	0
331.677979	0.792155	city	7	1	0.910045	0.910045	0	1	0	0	CorrectCommission	0.843592	0.770733	0	0
332.470123	0.792160	city	10	1	0.893204	0.893204	0	1	0	0	CorrectCommission	0.736814	0.772377	0	0
333.262390	0.792369	city	3	1	0.992525	0.992525	0	1	0	0	CorrectCommission	1.366574	0.775525	0	0
334.054657	0.792160	mountain	5	0	0.000000	0.930684	1	0	0	0	CorrectOmission	0.974457	0.781572	0	0
334.846985	0.792478	mountain	10	0	0.000000	0.825356	1	0	0	0	CorrectOmission	0.306609	0.791804	0	0
335.639343	0.792267	city	5	1	0.794218	0.794218	0	1	0	0	CorrectCommission	0.109176	0.807247	0	0
336.431549	0.792154	city	2	1	0.954947	0.954947	0	1	0	0	CorrectCommission	1.128303	0.828522	0	0
337.223755	0.792267	city	10	1	0.843959	0.843959	0	1	0	0	CorrectCommission	0.424568	0.855702	0	0
338.015991	0.792154	city	7	1	0.942756	0.942756	0	1	0	0	CorrectCommission	1.051005	0.888267	0	0
338.808228	0.792374	city	2	1	0.850291	0.850291	0	1	0	0	CorrectCommission	0.464714	0.925029	0	0
339.600555	0.792264	city	5	1	0.894669	0.894669	0	1	0	0	CorrectCommission	0.746099	0.964215	0	0
340.392792	0.792213	city	3	1	0.992328	0.992328	0	1	0	0	CorrectCommission	1.365320	1.003568	0	0
341.185028	0.792236	city	1	1	0.942804	0.942804	0	1	0	0	CorrectCommission	1.051310	1.040533	0	0
341.977264	0.792264	city	7	1	0.992666	0.992666	0	1	0	0	CorrectCommission	1.367463	1.072500	0	0
342.769531	0.792236	city	6	1	0.992524	0.992524	0	1	0	0	CorrectCommission	1.366565	1.097023	0	0
343.561829	0.792374	city	3	1	0.943059	0.943059	0	1	0	0	CorrectCommission	1.052928	1.112097	0	0
344.354126	0.792212	city	9	1	0.956839	0.956839	0	1	0	0	CorrectCommission	1.140302	1.116348	0	0
345.146332	0.792209	city	6	1	1.152085	1.152085	0	1	0	0	CorrectCommission	2.378283	1.109180	0	0
345.938568	0.792265	city	8	0	0.000000	0.807558	0	0	0	1	OmissionError	0.193764	1.090821	0	0
346.730957	0.792482	city	6	1	0.447707	0.447707	0	1	0	0	CorrectCommission	2.087927	1.062461	0	0
347.523224	0.792075	city	4	1	0.596976	0.596976	0	1	0	0	CorrectCommission	1.141462	1.025970	0	0
348.315430	0.792344	city	5	1	0.596352	0.596352	0	1	0	0	CorrectCommission	1.145420	0.983849	0	0
349.107697	0.792161	city	3	1	0.596526	0.596526	0	1	0	0	CorrectCommission	1.144320	0.938894	0	0
349.899994	0.792479	city	5	1	0.751011	0.751011	0	1	0	0	CorrectCommission	0.164781	0.893938	0	0
350.692322	0.792155	city	3	1	0.744738	0.744738	0	1	0	0	CorrectCommission	0.204559	0.851553	0	0
351.484467	0.792156	mountain	8	0	0.000000	0.867070	1	0	0	0	CorrectOmission	0.571108	0.813775	0	0
352.276703	0.792265	city	8	1	0.959036	0.959036	0	1	0	0	CorrectCommission	1.154229	0.781952	0	0
353.069061	0.792482	city	2	1	0.861662	0.861662	0	1	0	0	CorrectCommission	0.536814	0.756644	0	0
353.861389	0.792155	city	8	1	0.942752	0.942752	0	1	0	0	CorrectCommission	1.050981	0.737633	1	0
354.653534	0.792161	mountain	1	0	0.000000	0.829783	1	0	0	0	CorrectOmission	0.334683	0.724002	1	0
355.445740	0.792264	city	6	1	0.695264	0.695264	0	1	0	0	CorrectCommission	0.518257	0.714296	1	0
356.238007	0.792265	city	10	1	0.711704	0.711704	0	1	0	0	CorrectCommission	0.414014	0.706739	1	0
357.030396	0.792478	city	3	1	0.843797	0.843797	0	1	0	0	CorrectCommission	0.423543	0.699483	1	0
357.822662	0.792051	city	10	1	0.894081	0.894081	0	1	0	0	CorrectCommission	0.742373	0.690858	1	0
358.614807	0.792261	mountain	7	0	0.000000	1.032681	1	0	0	0	CorrectOmission	1.621185	0.679615	1	0
359.407074	0.792268	city	6	1	1.041963	1.041963	0	1	0	0	CorrectCommission	1.680037	0.665055	1	0
360.199371	0.792322	city	7	1	0.704292	0.704292	0	1	0	0	CorrectCommission	0.461012	0.647153	1	0
360.991638	0.792209	mountain	3	0	0.000000	0.775350	1	0	0	0	CorrectOmission	0.010461	0.626515	1	0
361.783875	0.792293	city	6	1	0.895855	0.895855	0	1	0	0	CorrectCommission	0.753623	0.604218	1	0
362.576202	0.792341	city	10	1	0.706528	0.706528	0	1	0	0	CorrectCommission	0.446832	0.581571	1	0
363.368500	0.792264	city	4	1	0.695154	0.695154	0	1	0	0	CorrectCommission	0.518955	0.559998	1	0
364.160828	0.792374	city	10	1	0.745639	0.745639	0	1	0	0	CorrectCommission	0.198843	0.540750	1	0
364.953064	0.792121	city	8	1	0.706243	0.706243	0	1	0	0	CorrectCommission	0.448640	0.524840	1	1
365.745270	0.792301	city	3	1	0.713639	0.713639	0	1	0	0	CorrectCommission	0.401748	0.512943	1	1
366.537506	0.792154	city	8	1	0.794468	0.794468	0	1	0	0	CorrectCommission	0.110763	0.505425	1	1
367.329712	0.792265	city	2	1	0.893491	0.893491	0	1	0	0	CorrectCommission	0.738635	0.502431	1	1
368.122101	0.792483	city	10	1	0.893335	0.893335	0	1	0	0	CorrectCommission	0.737646	0.503932	1	1
368.914368	0.792050	city	1	1	0.893132	0.893132	0	1	0	0	CorrectCommission	0.736355	0.509861	1	1
369.706573	0.792371	city	9	1	0.899793	0.899793	0	1	0	0	CorrectCommission	0.778588	0.520098	1	1
370.498840	0.792157	city	8	1	0.800748	0.800748	0	1	0	0	CorrectCommission	0.150580	0.534561	1	1
371.291046	0.792273	city	4	1	0.796643	0.796643	0	1	0	0	CorrectCommission	0.124553	0.553136	1	1
372.083313	0.792273	city	9	1	0.760834	0.760834	0	1	0	0	CorrectCommission	0.102502	0.575668	1	1
372.875580	0.792251	city	1	1	0.695283	0.695283	0	1	0	0	CorrectCommission	0.518132	0.601927	1	1
373.667877	0.792343	city	2	1	0.664643	0.664643	0	1	0	0	CorrectCommission	0.712411	0.631592	1	1
374.460205	0.792291	city	4	1	0.844421	0.844421	0	1	0	0	CorrectCommission	0.427494	0.664277	1	1
375.252441	0.792219	city	7	1	0.992427	0.992427	0	1	0	0	CorrectCommission	1.365948	0.699543	1	1
376.044708	0.792311	city	5	1	0.942841	0.942841	0	1	0	0	CorrectCommission	1.051545	0.736838	1	1
376.837006	0.792264	city	7	1	0.942741	0.942741	0	1	0	0	CorrectCommission	1.050907	0.775494	0	1
377.629333	0.792373	city	2	1	0.893586	0.893586	0	1	0	0	CorrectCommission	0.739233	0.814613	0	1
378.421539	0.792050	city	10	1	0.746698	0.746698	0	1	0	0	CorrectCommission	0.192129	0.852966	0	1
379.213684	0.792262	city	6	1	0.794411	0.794411	0	1	0	0	CorrectCommission	0.110400	0.888902	0	1
380.006073	0.792484	city	1	1	0.645769	0.645769	0	1	0	0	CorrectCommission	0.832083	0.920387	0	1
380.798340	0.792048	city	2	1	0.596255	0.596255	0	1	0	0	CorrectCommission	1.146036	0.945137	0	1
381.590485	0.792265	city	9	1	0.564344	0.564344	0	1	0	0	CorrectCommission	1.348373	0.960892	0	1
382.382843	0.792480	city	4	1	0.549764	0.549764	0	1	0	0	CorrectCommission	1.440819	0.965766	0	1
383.175110	0.792046	city	1	1	0.546632	0.546632	0	1	0	0	CorrectCommission	1.460678	0.958594	0	1
383.967316	0.792321	city	7	1	0.398641	0.398641	0	1	0	0	CorrectCommission	2.399033	0.939251	0	1
384.759674	0.792426	city	8	1	0.695228	0.695228	0	1	0	0	CorrectCommission	0.518480	0.908737	0	1
385.552032	0.792266	city	10	1	0.546491	0.546491	0	1	0	0	CorrectCommission	1.461569	0.869243	0	1
386.344177	0.792049	city	7	1	0.695037	0.695037	0	1	0	0	CorrectCommission	0.519696	0.823782	0	1
387.136322	0.792262	city	3	1	0.695272	0.695272	0	1	0	0	CorrectCommission	0.518203	0.775932	0	1
387.928650	0.792374	city	10	1	0.695849	0.695849	0	1	0	0	CorrectCommission	0.514549	0.729321	1	1
388.720917	0.792155	city	5	1	0.746810	0.746810	0	1	0	0	CorrectCommission	0.191421	0.687202	1	1
389.513123	0.792267	mountain	5	0	0.000000	0.759288	1	0	0	0	CorrectOmission	0.112300	0.652112	1	1
390.305389	0.792261	mountain	3	0	0.000000	0.743225	1	0	0	0	CorrectOmission	0.214153	0.625664	1	1
391.097656	0.792276	city	9	1	0.708560	0.708560	0	1	0	0	CorrectCommission	0.433948	0.608562	1	1
391.889923	0.792268	mountain	2	0	0.000000	0.665236	1	0	0	0	CorrectOmission	0.708653	0.600761	1	1
392.682251	0.792361	mountain	5	0	0.000000	0.639398	1	0	0	0	CorrectOmission	0.872484	0.601708	1	1
393.474518	0.792171	city	2	1	0.657192	0.657192	0	1	0	0	CorrectCommission	0.759658	0.610667	1	1
394.266724	0.792250	city	7	1	0.744764	0.744764	0	1	0	0	CorrectCommission	0.204392	0.627003	1	1
395.059021	0.792317	city	8	1	0.657480	0.657480	0	1	0	0	CorrectCommission	0.757831	0.650354	1	1
395.851379	0.792428	city	5	1	0.599611	0.599611	0	1	0	0	CorrectCommission	1.124759	0.680648	1	1
396.643677	0.792156	city	4	1	0.695199	0.695199	0	1	0	0	CorrectCommission	0.518664	0.718004	1	1
397.435822	0.792157	city	6	1	0.893289	0.893289	0	1	0	0	CorrectCommission	0.737352	0.762467	0	1
398.228027	0.792264	city	5	1	0.745603	0.745603	0	1	0	0	CorrectCommission	0.199074	0.813750	0	1
399.020294	0.792265	city	9	1	0.894022	0.894022	0	1	0	0	CorrectCommission	0.742001	0.870939	0	1
399.812561	0.792264	city	5	1	0.843796	0.843796	0	1	0	0	CorrectCommission	0.423531	0.932284	0	1
400.604828	0.792270	city	10	1	0.893341	0.893341	0	1	0	0	CorrectCommission	0.737680	0.995220	0	1
401.397156	0.792370	city	6	0	0.000000	0.744962	0	0	0	1	OmissionError	0.203136	1.056497	0	1
402.189423	0.792158	city	1	1	0.547058	0.547058	0	1	0	0	CorrectCommission	1.457973	1.112568	0	1
402.981628	0.792259	city	9	1	0.448029	0.448029	0	1	0	0	CorrectCommission	2.085885	1.159965	0	1
403.773956	0.792376	city	8	1	0.399080	0.399080	0	1	0	0	CorrectCommission	2.396252	1.195861	0	1
404.566223	0.792155	city	4	1	0.450175	0.450175	0	1	0	0	CorrectCommission	2.072277	1.218446	0	1
405.358429	0.792269	city	7	1	0.596289	0.596289	0	1	0	0	CorrectCommission	1.145820	1.227190	0	1
406.150696	0.792264	city	3	1	0.508393	0.508393	0	1	0	0	CorrectCommission	1.703139	1.222833	0	1
406.942963	0.792263	mountain	6	0	0.000000	0.517186	1	0	0	0	CorrectOmission	1.647381	1.207166	0	1
407.735229	0.792299	city	9	1	0.615038	0.615038	0	1	0	0	CorrectCommission	1.026937	1.182702	0	1
408.527557	0.792340	city	10	1	0.794317	0.794317	0	1	0	0	CorrectCommission	0.109807	1.152229	0	1
409.319855	0.792265	city	6	1	0.843866	0.843866	0	1	0	0	CorrectCommission	0.423975	1.118421	0	1
410.112061	0.792164	city	2	1	0.862671	0.862671	0	1	0	0	CorrectCommission	0.543212	1.083516	0	1
410.904266	0.792255	city	7	1	1.059039	1.059039	0	1	0	0	CorrectCommission	1.788311	1.049237	0	1
411.696533	0.792267	city	4	1	1.092037	1.092037	0	1	0	0	CorrectCommission	1.997539	1.016805	0	1
412.488800	0.792266	city	1	0	0.000000	0.783480	0	0	0	1	OmissionError	0.041094	0.987115	0	1
413.281097	0.792316	city	3	1	0.497674	0.497674	0	1	0	0	CorrectCommission	1.771104	0.960954	0	1
414.073364	0.792213	city	5	1	0.598921	0.598921	0	1	0	0	CorrectCommission	1.129133	0.939040	0	1
414.865723	0.792479	city	7	1	0.713177	0.713177	0	1	0	0	CorrectCommission	0.404672	0.922274	0	1
415.658081	0.792265	city	4	1	0.843640	0.843640	0	1	0	0	CorrectCommission	0.422543	0.911643	0	1
416.450226	0.792049	city	8	1	0.992166	0.992166	0	1	0	0	CorrectCommission	1.364296	0.908109	0	1
417.242432	0.792345	city	7	1	0.843924	0.843924	0	1	0	0	CorrectCommission	0.424343	0.912461	0	1
418.034760	0.792291	city	1	1	0.843713	0.843713	0	1	0	0	CorrectCommission	0.423005	0.925154	0	1
418.826996	0.792195	city	3	1	0.859844	0.859844	0	1	0	0	CorrectCommission	0.525289	0.946112	0	1
419.619232	0.792251	city	10	1	0.893285	0.893285	0	1	0	0	CorrectCommission	0.737326	0.974619	0	1
420.411469	0.792238	city	6	1	1.041862	1.041862	0	1	0	0	CorrectCommission	1.679400	1.009297	0	1
421.203705	0.792268	city	8	1	0.906589	0.906589	0	1	0	0	CorrectCommission	0.821683	1.048151	0	1
421.996002	0.792305	city	4	1	0.943733	0.943733	0	1	0	0	CorrectCommission	1.057198	1.088757	0	1
422.788269	0.792222	city	6	1	0.992686	0.992686	0	1	0	0	CorrectCommission	1.367592	1.128433	0	1
423.580505	0.792263	city	1	1	0.943318	0.943318	0	1	0	0	CorrectCommission	1.054569	1.164485	0	1
424.372894	0.792484	city	6	1	0.943287	0.943287	0	1	0	0	CorrectCommission	1.054373	1.194550	0	0
425.165161	0.792085	city	5	1	0.949368	0.949368	0	1	0	0	CorrectCommission	1.092929	1.216855	0	0
425.957336	0.792226	city	1	1	0.992771	0.992771	0	1	0	0	CorrectCommission	1.368128	1.230578	0	0
426.749573	0.792265	city	5	1	1.091370	1.091370	0	1	0	0	CorrectCommission	1.993312	1.236017	0	0
427.541840	0.792270	city	1	1	1.141246	1.141246	0	1	0	0	CorrectCommission	2.309560	1.234681	0	0
428.334106	0.792262	city	2	1	1.141701	1.141701	0	1	0	0	CorrectCommission	2.312443	1.229210	0	0
429.126373	0.792263	city	8	0	0.000000	0.769941	0	0	0	1	OmissionError	0.044753	1.223092	0	0
429.918732	0.792490	city	3	1	0.497141	0.497141	0	1	0	0	CorrectCommission	1.774479	1.220282	0	0
430.711029	0.792076	city	8	1	0.794476	0.794476	0	1	0	0	CorrectCommission	0.110815	1.224448	0	0
431.503174	0.792227	city	10	1	0.794238	0.794238	0	1	0	0	CorrectCommission	0.109305	1.238588	0	0
432.295532	0.792483	city	2	1	0.893791	0.893791	0	1	0	0	CorrectCommission	0.740535	1.264453	0	0
433.087830	0.792101	city	5	1	0.943240	0.943240	0	1	0	0	CorrectCommission	1.054072	1.302308	0	0
433.879974	0.792212	city	9	1	0.951440	0.951440	0	1	0	0	CorrectCommission	1.106063	1.350898	0	0
434.672211	0.792266	city	8	1	0.992393	0.992393	0	1	0	0	CorrectCommission	1.365737	1.407723	0	0
435.464539	0.792372	city	3	1	1.006573	1.006573	0	1	0	0	CorrectCommission	1.455645	1.469425	0	0
436.256805	0.792159	city	5	1	1.041798	1.041798	0	1	0	0	CorrectCommission	1.678992	1.532372	0	0
437.049072	0.792368	city	7	1	1.092331	1.092331	0	1	0	0	CorrectCommission	1.999406	1.593180	0	0
437.841431	0.792381	city	3	1	1.190541	1.190541	0	1	0	0	CorrectCommission	2.622119	1.649114	0	0
438.633667	0.792046	city	6	1	1.145320	1.145320	0	1	0	0	CorrectCommission	2.335388	1.698346	0	0
439.425812	0.792290	city	2	1	1.190388	1.190388	0	1	0	0	CorrectCommission	2.621152	1.739950	0	0
440.218079	0.792235	city	10	0	0.000000	0.851301	0	0	0	1	OmissionError	0.471123	1.773642	0	0
441.010345	0.792284	city	9	1	0.497216	0.497216	0	1	0	0	CorrectCommission	1.774008	1.799490	0	0
441.802612	0.792281	city	10	1	0.497289	0.497289	0	1	0	0	CorrectCommission	1.773544	1.817387	0	0
442.594879	0.792232	city	7	1	0.596252	0.596252	0	1	0	0	CorrectCommission	1.146057	1.826835	0	0
443.387146	0.792267	city	1	1	0.515036	0.515036	0	1	0	0	CorrectCommission	1.661015	1.826786	0	0
444.179413	0.792263	city	8	1	0.460045	0.460045	0	1	0	0	CorrectCommission	2.009697	1.815673	0	0
444.971649	0.792264	city	7	1	0.398221	0.398221	0	1	0	0	CorrectCommission	2.401699	1.791728	0	0
445.763916	0.792266	city	1	1	0.418802	0.418802	0	1	0	0	CorrectCommission	2.271201	1.753404	0	0
446.556183	0.792262	city	2	1	0.398628	0.398628	0	1	0	0	CorrectCommission	2.399115	1.699894	0	0
447.348480	0.792295	city	9	1	0.447667	0.447667	0	1	0	0	CorrectCommission	2.088179	1.631443	0	0
448.140747	0.792234	city	1	1	0.398795	0.398795	0	1	0	0	CorrectCommission	2.398058	1.549653	0	0
448.932983	0.792298	city	6	1	0.454341	0.454341	0	1	0	0	CorrectCommission	2.045864	1.457429	0	0
449.725250	0.792234	mountain	1	1	0.506486	0.506486	0	0	1	0	CommissionError	1.715230	1.358753	0	0
450.517578	0.792370	city	2	1	0.800886	0.800886	0	1	0	0	CorrectCommission	0.151458	1.258242	0	0
451.309875	0.792219	city	3	1	0.695627	0.695627	0	1	0	0	CorrectCommission	0.515953	1.160647	0	0
452.102081	0.792206	mountain	4	0	0.000000	0.712443	1	0	0	0	CorrectOmission	0.409327	1.070268	0	0
452.894318	0.792267	city	1	1	0.745930	0.745930	0	1	0	0	CorrectCommission	0.196999	0.990581	0	0
453.686584	0.792261	mountain	10	0	0.000000	0.690683	1	0	0	0	CorrectOmission	0.547304	0.923978	0	0
454.478851	0.792286	city	2	1	0.611751	0.611751	0	1	0	0	CorrectCommission	1.047782	0.871696	0	0
455.271210	0.792459	mountain	9	0	0.000000	0.574184	1	0	0	0	CorrectOmission	1.285977	0.833868	0	0
456.063538	0.792157	city	1	1	0.596069	0.596069	0	1	0	0	CorrectCommission	1.147212	0.809712	0	0
456.855682	0.792158	city	8	1	0.695492	0.695492	0	1	0	0	CorrectCommission	0.516811	0.797742	0	0
457.647888	0.792265	city	3	1	0.843811	0.843811	0	1	0	0	CorrectCommission	0.423630	0.795978	0	0
458.440216	0.792372	city	1	1	0.844193	0.844193	0	1	0	0	CorrectCommission	0.426052	0.802042	0	0
459.232483	0.792155	city	2	1	0.843843	0.843843	0	1	0	0	CorrectCommission	0.423833	0.813310	0	0
460.024689	0.792265	city	1	1	0.843861	0.843861	0	1	0	0	CorrectCommission	0.423944	0.827070	0	0
460.816986	0.792321	city	3	1	0.942755	0.942755	0	1	0	0	CorrectCommission	1.051000	0.840665	0	0
461.609314	0.792316	city	1	1	0.942912	0.942912	0	1	0	0	CorrectCommission	1.051991	0.851688	0	0
462.401550	0.792159	city	8	1	0.954244	0.954244	0	1	0	0	CorrectCommission	1.123844	0.858216	0	0
463.193756	0.792261	city	4	1	1.012093	1.012093	0	1	0	0	CorrectCommission	1.490646	0.858994	0	0
463.986115	0.792482	city	1	1	1.041880	1.041880	0	1	0	0	CorrectCommission	1.679513	0.853505	0	0
464.778503	0.792266	city	5	1	0.992170	0.992170	0	1	0	0	CorrectCommission	1.364321	0.841992	0	0
465.570709	0.792157	city	10	1	0.893179	0.893179	0	1	0	0	CorrectCommission	0.736651	0.825315	0	0
466.362976	0.792372	city	1	1	0.760363	0.760363	0	1	0	0	CorrectCommission	0.105484	0.804739	0	0
467.155243	0.792156	city	4	1	0.763555	0.763555	0	1	0	0	CorrectCommission	0.085243	0.781636	0	0
467.947449	0.792265	city	2	1	0.794215	0.794215	0	1	0	0	CorrectCommission	0.109156	0.757289	0	0
468.739716	0.792264	city	5	1	0.855668	0.855668	0	1	0	0	CorrectCommission	0.498812	0.732684	1	0
469.531921	0.792160	city	6	1	1.091309	1.091309	0	1	0	0	CorrectCommission	1.992926	0.708482	1	0
470.324127	0.792262	city	9	0	0.000000	0.965513	0	0	0	1	OmissionError	1.195299	0.685035	1	0
471.116394	0.792281	city	6	1	0.794426	0.794426	0	1	0	0	CorrectCommission	0.110499	0.662555	1	0
471.908661	0.792251	city	4	1	0.894194	0.894194	0	1	0	0	CorrectCommission	0.743090	0.641176	1	0
472.700928	0.792266	city	10	1	0.844061	0.844061	0	1	0	0	CorrectCommission	0.425212	0.621006	1	0
473.493195	0.792263	city	1	1	0.893337	0.893337	0	1	0	0	CorrectCommission	0.737658	0.602221	1	0
474.285461	0.792265	city	4	1	0.854822	0.854822	0	1	0	0	CorrectCommission	0.493446	0.585002	1	0
475.077820	0.792479	mountain	7	0	0.000000	0.842763	1	0	0	0	CorrectOmission	0.416986	0.569487	1	0
475.870087	0.792051	city	8	1	0.843608	0.843608	0	1	0	0	CorrectCommission	0.422343	0.555656	1	0
476.662292	0.792329	city	4	1	0.843804	0.843804	0	1	0	0	CorrectCommission	0.423582	0.543280	1	0
477.454559	0.792198	city	7	1	0.844318	0.844318	0	1	0	0	CorrectCommission	0.426846	0.531846	1	0
478.246887	0.792484	city	5	1	0.950093	0.950093	0	1	0	0	CorrectCommission	1.097527	0.520559	1	0
479.039185	0.792108	city	10	1	0.745072	0.745072	0	1	0	0	CorrectCommission	0.202439	0.508361	1	0
479.831329	0.792202	city	6	1	0.794246	0.794246	0	1	0	0	CorrectCommission	0.109356	0.494067	1	0
480.623566	0.792283	city	2	1	0.847273	0.847273	0	1	0	0	CorrectCommission	0.445582	0.476418	1	0
481.415833	0.792250	city	6	1	0.942920	0.942920	0	1	0	0	CorrectCommission	1.052046	0.454272	1	0
482.208099	0.792284	city	5	1	0.859972	0.859972	0	1	0	0	CorrectCommission	0.526102	0.426742	1	0
483.000427	0.792351	city	9	1	0.954246	0.954246	0	1	0	0	CorrectCommission	1.123855	0.393348	1	0
483.792694	0.792170	city	6	1	0.810032	0.810032	0	1	0	0	CorrectCommission	0.209448	0.354054	1	0
484.584930	0.792290	city	2	1	0.750898	0.750898	0	1	0	0	CorrectCommission	0.165500	0.309337	1	0
485.377167	0.792224	city	7	1	0.801149	0.801149	0	1	0	0	CorrectCommission	0.153124	0.260105	1	0
486.169434	0.792265	city	1	1	0.846233	0.846233	0	1	0	0	CorrectCommission	0.438988	0.207651	1	0
486.961700	0.792265	city	3	1	0.801208	0.801208	0	1	0	0	CorrectCommission	0.153500	0.153500	1	0
