onset	duration	trial_type	image_type	Press	ReactionTime	ReactionTime_Interpolated	CorrectOmission	CorrectCommission	CommissionError	OmissionError	response_type	nonsmoothVarianceTimeCourse	VarianceTimeCourse	In_the_Zone	Reward_trial
8.433836	0.792230	city	7	1	0.695744	0.695744	0	1	0	0	CorrectCommission	0.443619	0.443619	1	0
9.226138	0.792374	city	6	1	0.596241	0.596241	0	1	0	0	CorrectCommission	1.180907	0.455958	1	0
10.018404	0.792159	city	5	1	0.654290	0.654290	0	1	0	0	CorrectCommission	0.750781	0.468640	1	0
10.810724	0.792480	city	9	1	0.653136	0.653136	0	1	0	0	CorrectCommission	0.759334	0.482035	1	0
11.603096	0.792264	city	5	1	0.695113	0.695113	0	1	0	0	CorrectCommission	0.448294	0.496499	1	0
12.395253	0.792051	city	9	1	0.695352	0.695352	0	1	0	0	CorrectCommission	0.446526	0.512310	1	0
13.187411	0.792264	city	10	1	0.695193	0.695193	0	1	0	0	CorrectCommission	0.447700	0.529551	1	0
13.979675	0.792265	city	8	1	0.754571	0.754571	0	1	0	0	CorrectCommission	0.007729	0.547957	1	0
14.771940	0.792265	city	10	1	0.708935	0.708935	0	1	0	0	CorrectCommission	0.345877	0.566835	1	0
15.564258	0.792370	city	3	1	0.695258	0.695258	0	1	0	0	CorrectCommission	0.447225	0.584999	1	0
16.356628	0.792372	city	4	1	0.701203	0.701203	0	1	0	0	CorrectCommission	0.403171	0.600895	1	0
17.148842	0.792053	city	3	1	0.695057	0.695057	0	1	0	0	CorrectCommission	0.448708	0.612769	0	0
17.941002	0.792269	city	4	1	0.596714	0.596714	0	1	0	0	CorrectCommission	1.177407	0.618983	0	0
18.733318	0.792364	city	5	1	0.561169	0.561169	0	1	0	0	CorrectCommission	1.440785	0.618301	0	0
19.525608	0.792214	city	3	1	0.596138	0.596138	0	1	0	0	CorrectCommission	1.181671	0.610164	0	0
20.317873	0.792317	mountain	7	0	0.000000	0.619508	1	0	0	0	CorrectOmission	1.008506	0.594868	1	0
21.110109	0.792156	city	10	1	0.658803	0.658803	0	1	0	0	CorrectCommission	0.717340	0.573541	1	0
21.902319	0.792263	mountain	3	0	0.000000	0.741548	1	0	0	0	CorrectOmission	0.104223	0.548011	1	0
22.694693	0.792484	city	4	1	0.794623	0.794623	0	1	0	0	CorrectCommission	0.289045	0.520546	1	0
23.487066	0.792264	city	1	1	0.744907	0.744907	0	1	0	0	CorrectCommission	0.079338	0.493501	1	0
24.279331	0.792266	city	4	1	0.695437	0.695437	0	1	0	0	CorrectCommission	0.445893	0.468991	1	0
25.071543	0.792156	city	10	1	0.794132	0.794132	0	1	0	0	CorrectCommission	0.285407	0.448646	1	0
25.863699	0.792156	city	4	1	0.794200	0.794200	0	1	0	0	CorrectCommission	0.285912	0.433433	1	0
26.655910	0.792267	city	3	1	0.744771	0.744771	0	1	0	0	CorrectCommission	0.080344	0.423617	1	0
27.448174	0.792260	city	9	1	0.794325	0.794325	0	1	0	0	CorrectCommission	0.286835	0.418857	1	0
28.240437	0.792266	city	3	1	0.646036	0.646036	0	1	0	0	CorrectCommission	0.811945	0.418338	1	0
29.032701	0.792267	city	2	1	0.695302	0.695302	0	1	0	0	CorrectCommission	0.446899	0.420961	1	0
29.824968	0.792266	city	10	1	0.844143	0.844143	0	1	0	0	CorrectCommission	0.655974	0.425553	1	0
30.617342	0.792479	city	7	1	0.744852	0.744852	0	1	0	0	CorrectCommission	0.079742	0.430977	1	0
31.409605	0.792050	city	2	1	0.646039	0.646039	0	1	0	0	CorrectCommission	0.811920	0.436295	1	0
32.201775	0.792285	city	8	1	0.745214	0.745214	0	1	0	0	CorrectCommission	0.077060	0.440746	1	0
32.994144	0.792459	city	1	1	0.666851	0.666851	0	1	0	0	CorrectCommission	0.657708	0.443806	1	0
33.786453	0.792157	city	3	1	0.843741	0.843741	0	1	0	0	CorrectCommission	0.652990	0.445115	1	0
34.578629	0.792194	city	8	1	0.745123	0.745123	0	1	0	0	CorrectCommission	0.077740	0.444487	1	0
35.370842	0.792226	city	9	1	0.645891	0.645891	0	1	0	0	CorrectCommission	0.813019	0.441865	1	0
36.163086	0.792264	city	7	1	0.744958	0.744958	0	1	0	0	CorrectCommission	0.078960	0.437278	1	0
36.955364	0.792292	city	9	1	0.707592	0.707592	0	1	0	0	CorrectCommission	0.355832	0.430939	1	0
37.747681	0.792344	city	1	1	0.645726	0.645726	0	1	0	0	CorrectCommission	0.814236	0.423172	1	0
38.539932	0.792157	city	8	1	0.646063	0.646063	0	1	0	0	CorrectCommission	0.811743	0.414459	1	0
39.332146	0.792267	city	3	1	0.744903	0.744903	0	1	0	0	CorrectCommission	0.079366	0.405452	1	0
40.124462	0.792369	city	10	1	0.649641	0.649641	0	1	0	0	CorrectCommission	0.785233	0.396925	1	0
40.916782	0.792266	city	3	1	0.745241	0.745241	0	1	0	0	CorrectCommission	0.076861	0.389668	1	0
41.709000	0.792171	city	9	1	0.744815	0.744815	0	1	0	0	CorrectCommission	0.080021	0.384447	1	0
42.501209	0.792249	city	3	1	0.744840	0.744840	0	1	0	0	CorrectCommission	0.079831	0.381866	1	0
43.293522	0.792374	city	4	1	0.695339	0.695339	0	1	0	0	CorrectCommission	0.446624	0.382294	1	0
44.085789	0.792160	city	9	1	0.695159	0.695159	0	1	0	0	CorrectCommission	0.447956	0.385807	1	0
44.878109	0.792484	city	1	1	0.695602	0.695602	0	1	0	0	CorrectCommission	0.444673	0.392189	1	0
45.670372	0.792042	city	6	1	0.745147	0.745147	0	1	0	0	CorrectCommission	0.077562	0.400929	1	0
46.462532	0.792279	city	9	1	0.850427	0.850427	0	1	0	0	CorrectCommission	0.702537	0.411297	1	0
47.254852	0.792358	city	3	1	0.843825	0.843825	0	1	0	0	CorrectCommission	0.653613	0.422407	1	0
48.047161	0.792264	city	10	1	0.744705	0.744705	0	1	0	0	CorrectCommission	0.080836	0.433356	1	0
48.839428	0.792266	mountain	3	0	0.000000	0.774513	1	0	0	0	CorrectOmission	0.140035	0.443301	1	0
49.631691	0.792264	mountain	7	0	0.000000	0.839003	1	0	0	0	CorrectOmission	0.617884	0.451582	1	0
50.424011	0.792373	city	10	1	0.843927	0.843927	0	1	0	0	CorrectCommission	0.654369	0.457797	1	0
51.216221	0.792046	city	1	1	0.695038	0.695038	0	1	0	0	CorrectCommission	0.448852	0.461873	1	0
52.008488	0.792484	city	9	1	0.560540	0.560540	0	1	0	0	CorrectCommission	1.445442	0.464097	1	0
52.800751	0.792047	city	7	1	0.695107	0.695107	0	1	0	0	CorrectCommission	0.448343	0.465006	1	0
53.592960	0.792371	city	5	1	0.756843	0.756843	0	1	0	0	CorrectCommission	0.009105	0.465362	1	0
54.385242	0.792189	mountain	7	0	0.000000	0.728139	1	0	0	0	CorrectOmission	0.203580	0.465954	1	0
55.177486	0.792299	city	10	1	0.695338	0.695338	0	1	0	0	CorrectCommission	0.446627	0.467455	1	0
55.969788	0.792306	city	6	1	0.744782	0.744782	0	1	0	0	CorrectCommission	0.080267	0.470303	1	0
56.762032	0.792178	city	10	1	0.695149	0.695149	0	1	0	0	CorrectCommission	0.448032	0.474672	1	0
57.554295	0.792353	mountain	8	0	0.000000	0.698114	1	0	0	0	CorrectOmission	0.426062	0.480419	1	0
58.346661	0.792374	city	1	1	0.703727	0.703727	0	1	0	0	CorrectCommission	0.384467	0.487214	1	0
59.138870	0.792047	city	9	1	0.662040	0.662040	0	1	0	0	CorrectCommission	0.693361	0.494632	1	0
59.931026	0.792263	city	5	1	0.596957	0.596957	0	1	0	0	CorrectCommission	1.175607	0.502274	1	0
60.723289	0.792268	city	7	1	0.654260	0.654260	0	1	0	0	CorrectCommission	0.751008	0.509826	1	0
61.515556	0.792263	city	8	1	0.744760	0.744760	0	1	0	0	CorrectCommission	0.080427	0.517129	1	0
62.307850	0.792325	city	1	1	0.695172	0.695172	0	1	0	0	CorrectCommission	0.447857	0.524124	1	0
63.100170	0.792314	city	9	1	0.699899	0.699899	0	1	0	0	CorrectCommission	0.412834	0.530777	1	0
63.892513	0.792371	mountain	5	0	0.000000	0.710669	1	0	0	0	CorrectOmission	0.333033	0.536999	1	0
64.684723	0.792050	city	6	1	0.701493	0.701493	0	1	0	0	CorrectCommission	0.401024	0.542612	1	0
65.476875	0.792261	city	7	1	0.646383	0.646383	0	1	0	0	CorrectCommission	0.809374	0.547302	1	0
66.269157	0.792301	city	6	1	0.700703	0.700703	0	1	0	0	CorrectCommission	0.406873	0.550684	1	0
67.061424	0.792230	city	2	1	0.645697	0.645697	0	1	0	0	CorrectCommission	0.814455	0.552402	1	0
67.853729	0.792373	city	3	1	0.645813	0.645813	0	1	0	0	CorrectCommission	0.813595	0.552237	1	1
68.646027	0.792219	city	5	1	0.795429	0.795429	0	1	0	0	CorrectCommission	0.295014	0.550243	1	1
69.438286	0.792310	city	9	1	0.695186	0.695186	0	1	0	0	CorrectCommission	0.447754	0.546832	1	1
70.230629	0.792374	city	8	1	0.607994	0.607994	0	1	0	0	CorrectCommission	1.093824	0.542815	1	1
71.022873	0.792116	city	2	1	0.655392	0.655392	0	1	0	0	CorrectCommission	0.742620	0.539354	1	1
71.815033	0.792196	city	9	1	0.856037	0.856037	0	1	0	0	CorrectCommission	0.744107	0.537838	1	1
72.607315	0.792374	city	10	1	0.751930	0.751930	0	1	0	0	CorrectCommission	0.027295	0.539662	1	1
73.399635	0.792265	city	2	1	0.744685	0.744685	0	1	0	0	CorrectCommission	0.080982	0.546032	1	1
74.191849	0.792160	city	8	1	0.745169	0.745169	0	1	0	0	CorrectCommission	0.077396	0.557696	1	1
74.984108	0.792370	city	5	1	0.663184	0.663184	0	1	0	0	CorrectCommission	0.684883	0.574793	1	1
75.776482	0.792373	city	2	1	0.695133	0.695133	0	1	0	0	CorrectCommission	0.448149	0.596758	1	1
76.568726	0.792110	city	3	1	0.695079	0.695079	0	1	0	0	CorrectCommission	0.448551	0.622371	0	1
77.360931	0.792310	mountain	5	0	0.000000	0.675212	1	0	0	0	CorrectOmission	0.595756	0.649845	0	1
78.153221	0.792264	city	1	1	0.652955	0.652955	0	1	0	0	CorrectCommission	0.760674	0.677045	0	1
78.945488	0.792267	city	4	1	0.645729	0.645729	0	1	0	0	CorrectCommission	0.814219	0.701756	0	1
79.737701	0.792155	city	8	1	0.546899	0.546899	0	1	0	0	CorrectCommission	1.546516	0.721932	0	1
80.529907	0.792266	city	4	1	0.695252	0.695252	0	1	0	0	CorrectCommission	0.447263	0.735903	0	1
81.322174	0.792265	city	3	1	0.646094	0.646094	0	1	0	0	CorrectCommission	0.811511	0.742601	0	1
82.114441	0.792263	city	8	1	0.596322	0.596322	0	1	0	0	CorrectCommission	1.180306	0.741555	0	1
82.906700	0.792269	city	6	1	0.563610	0.563610	0	1	0	0	CorrectCommission	1.422694	0.732924	0	1
83.699074	0.792480	city	4	1	0.705105	0.705105	0	1	0	0	CorrectCommission	0.374255	0.717410	0	1
84.491341	0.792049	city	9	1	0.794252	0.794252	0	1	0	0	CorrectCommission	0.286292	0.696135	0	1
85.283493	0.792260	city	3	1	0.695224	0.695224	0	1	0	0	CorrectCommission	0.447472	0.670449	0	1
86.075760	0.792266	city	10	1	0.596666	0.596666	0	1	0	0	CorrectCommission	1.177758	0.641778	0	1
86.868027	0.792266	city	1	1	0.646159	0.646159	0	1	0	0	CorrectCommission	0.811034	0.611484	0	1
87.660294	0.792267	city	9	1	0.695704	0.695704	0	1	0	0	CorrectCommission	0.443917	0.580776	1	1
88.452560	0.792263	city	2	1	0.697774	0.697774	0	1	0	0	CorrectCommission	0.428577	0.550648	1	1
89.244835	0.792297	city	8	1	0.704877	0.704877	0	1	0	0	CorrectCommission	0.375946	0.521822	1	1
90.037102	0.792230	city	7	1	0.744870	0.744870	0	1	0	0	CorrectCommission	0.079610	0.494796	1	1
90.829460	0.792482	mountain	1	0	0.000000	0.702183	1	0	0	0	CorrectOmission	0.395908	0.469872	1	1
91.621834	0.792264	city	5	1	0.646021	0.646021	0	1	0	0	CorrectCommission	0.812057	0.447199	1	1
92.414040	0.792156	city	10	1	0.645587	0.645587	0	1	0	0	CorrectCommission	0.815270	0.426853	1	1
93.206200	0.792160	city	6	1	0.744674	0.744674	0	1	0	0	CorrectCommission	0.081062	0.408906	1	1
93.998413	0.792263	city	8	1	0.711892	0.711892	0	1	0	0	CorrectCommission	0.323971	0.393479	1	1
94.790787	0.792481	city	5	1	0.695296	0.695296	0	1	0	0	CorrectCommission	0.446943	0.380698	1	1
95.583099	0.792154	city	7	1	0.745074	0.745074	0	1	0	0	CorrectCommission	0.078097	0.370712	1	1
96.375259	0.792158	city	9	1	0.706747	0.706747	0	1	0	0	CorrectCommission	0.362092	0.363646	1	1
97.167519	0.792371	city	5	1	0.745672	0.745672	0	1	0	0	CorrectCommission	0.073665	0.359526	1	1
97.959892	0.792376	city	4	1	0.844131	0.844131	0	1	0	0	CorrectCommission	0.655880	0.358278	1	1
98.752106	0.792046	city	8	1	0.794866	0.794866	0	1	0	0	CorrectCommission	0.290847	0.359643	1	1
99.544373	0.792483	city	1	1	0.695317	0.695317	0	1	0	0	CorrectCommission	0.446784	0.363207	1	1
100.336632	0.792045	city	10	1	0.702350	0.702350	0	1	0	0	CorrectCommission	0.394673	0.368344	1	1
101.128899	0.792483	city	8	1	0.744803	0.744803	0	1	0	0	CorrectCommission	0.080106	0.374314	1	1
101.921165	0.792049	mountain	10	0	0.000000	0.744170	1	0	0	0	CorrectOmission	0.084798	0.380308	1	1
102.713326	0.792266	city	9	1	0.710338	0.710338	0	1	0	0	CorrectCommission	0.335480	0.385532	1	1
103.505623	0.792338	city	2	1	0.653197	0.653197	0	1	0	0	CorrectCommission	0.758882	0.389316	1	1
104.297890	0.792187	city	1	1	0.695353	0.695353	0	1	0	0	CorrectCommission	0.446520	0.391245	1	1
105.090164	0.792376	city	10	1	0.648061	0.648061	0	1	0	0	CorrectCommission	0.796941	0.391259	1	1
105.882431	0.792154	city	2	1	0.645702	0.645702	0	1	0	0	CorrectCommission	0.814420	0.389672	1	1
106.674644	0.792268	mountain	1	0	0.000000	0.732853	1	0	0	0	CorrectOmission	0.168656	0.387128	1	1
107.467018	0.792480	city	1	1	0.804832	0.804832	0	1	0	0	CorrectCommission	0.364690	0.384547	1	1
108.259285	0.792051	mountain	10	0	0.000000	0.756958	1	0	0	0	CorrectOmission	0.009958	0.382935	1	1
109.051445	0.792278	city	1	1	0.701490	0.701490	0	1	0	0	CorrectCommission	0.401047	0.383262	1	1
109.843819	0.792465	city	3	1	0.750686	0.750686	0	1	0	0	CorrectCommission	0.036518	0.386307	1	1
110.636185	0.792265	city	4	1	0.707547	0.707547	0	1	0	0	CorrectCommission	0.356162	0.392587	1	1
111.428352	0.792076	city	1	1	0.744707	0.744707	0	1	0	0	CorrectCommission	0.080820	0.402297	1	1
112.220512	0.792235	city	9	1	0.795047	0.795047	0	1	0	0	CorrectCommission	0.292185	0.415356	1	1
113.012764	0.792265	city	7	1	0.844365	0.844365	0	1	0	0	CorrectCommission	0.657616	0.431488	1	1
113.805023	0.792265	city	2	1	0.646501	0.646501	0	1	0	0	CorrectCommission	0.808494	0.450241	1	1
114.597305	0.792299	city	1	1	0.601323	0.601323	0	1	0	0	CorrectCommission	1.143252	0.471072	1	1
115.389572	0.792230	city	5	1	0.745099	0.745099	0	1	0	0	CorrectCommission	0.077914	0.493342	1	1
116.181824	0.792269	city	1	1	0.763208	0.763208	0	1	0	0	CorrectCommission	0.056271	0.516348	1	1
116.974083	0.792261	city	5	1	0.695775	0.695775	0	1	0	0	CorrectCommission	0.443394	0.539233	1	1
117.766350	0.792266	city	10	1	0.799380	0.799380	0	1	0	0	CorrectCommission	0.324293	0.560988	1	1
118.558617	0.792262	city	1	1	0.794327	0.794327	0	1	0	0	CorrectCommission	0.286849	0.580505	1	1
119.350876	0.792266	mountain	8	0	0.000000	0.661863	1	0	0	0	CorrectOmission	0.694666	0.596654	1	1
120.143158	0.792291	mountain	7	1	0.646394	0.646394	0	0	1	0	CommissionError	0.809293	0.608404	0	1
120.935425	0.792239	city	8	1	0.992321	0.992321	0	1	0	0	CorrectCommission	1.753930	0.614998	0	1
121.727684	0.792286	city	1	1	0.645730	0.645730	0	1	0	0	CorrectCommission	0.814206	0.616065	0	1
122.520004	0.792350	city	8	1	0.645768	0.645768	0	1	0	0	CorrectCommission	0.813930	0.611721	0	1
123.312363	0.792375	city	1	1	0.710062	0.710062	0	1	0	0	CorrectCommission	0.337529	0.602513	0	1
124.104683	0.792264	city	4	1	0.703095	0.703095	0	1	0	0	CorrectCommission	0.389155	0.589366	1	1
124.896866	0.792102	city	10	1	0.645531	0.645531	0	1	0	0	CorrectCommission	0.815683	0.573417	1	1
125.689133	0.792427	city	4	1	0.744954	0.744954	0	1	0	0	CorrectCommission	0.078987	0.555887	1	1
126.481476	0.792266	city	7	1	0.749897	0.749897	0	1	0	0	CorrectCommission	0.042366	0.537971	1	1
127.273743	0.792264	city	4	1	0.745144	0.745144	0	1	0	0	CorrectCommission	0.077579	0.520739	1	0
128.065903	0.792045	city	10	1	0.501026	0.501026	0	1	0	0	CorrectCommission	1.886427	0.505106	1	0
128.858047	0.792267	mountain	8	1	0.645891	0.645891	0	0	1	0	CommissionError	0.813020	0.491799	1	0
129.650421	0.792483	city	1	1	0.744851	0.744851	0	1	0	0	CorrectCommission	0.079749	0.481443	1	0
130.442688	0.792045	mountain	2	0	0.000000	0.743769	1	0	0	0	CorrectOmission	0.087772	0.474488	1	0
131.234848	0.792264	city	9	1	0.707156	0.707156	0	1	0	0	CorrectCommission	0.359062	0.471203	1	0
132.027115	0.792266	city	8	1	0.699527	0.699527	0	1	0	0	CorrectCommission	0.415591	0.471675	1	0
132.819489	0.792483	city	2	1	0.707235	0.707235	0	1	0	0	CorrectCommission	0.358478	0.475839	1	0
133.611755	0.792051	city	5	1	0.744551	0.744551	0	1	0	0	CorrectCommission	0.081972	0.483497	1	0
134.403915	0.792259	city	6	1	0.794284	0.794284	0	1	0	0	CorrectCommission	0.286532	0.494421	1	0
135.196182	0.792276	city	8	1	0.697806	0.697806	0	1	0	0	CorrectCommission	0.428344	0.508491	1	0
135.988495	0.792363	mountain	4	0	0.000000	0.624792	1	0	0	0	CorrectOmission	0.969355	0.525819	1	0
136.780762	0.792159	city	10	1	0.596147	0.596147	0	1	0	0	CorrectCommission	1.181603	0.546814	1	0
137.573074	0.792480	mountain	10	0	0.000000	0.632776	1	0	0	0	CorrectOmission	0.910193	0.572192	1	0
138.365448	0.792266	city	2	1	0.695062	0.695062	0	1	0	0	CorrectCommission	0.448676	0.602829	0	0
139.157608	0.792050	city	8	0	0.000000	0.743387	0	0	0	1	OmissionError	0.090603	0.639539	0	0
139.949768	0.792263	city	10	1	0.752040	0.752040	0	1	0	0	CorrectCommission	0.026484	0.682772	0	0
140.742035	0.792269	city	5	1	0.695311	0.695311	0	1	0	0	CorrectCommission	0.446828	0.732350	0	0
141.534302	0.792265	city	6	1	0.809369	0.809369	0	1	0	0	CorrectCommission	0.398309	0.787205	0	0
142.326569	0.792287	city	5	1	0.843940	0.843940	0	1	0	0	CorrectCommission	0.654468	0.845333	0	0
143.118835	0.792241	city	1	1	0.893401	0.893401	0	1	0	0	CorrectCommission	1.020956	0.903903	0	0
143.911087	0.792260	city	2	1	0.893351	0.893351	0	1	0	0	CorrectCommission	1.020586	0.959512	0	0
144.703369	0.792290	city	3	1	0.943643	0.943643	0	1	0	0	CorrectCommission	1.393240	1.008615	0	0
145.495651	0.792287	city	2	1	0.893687	0.893687	0	1	0	0	CorrectCommission	1.023078	1.047946	0	0
146.288010	0.792433	city	6	1	0.942815	0.942815	0	1	0	0	CorrectCommission	1.387104	1.075046	0	0
147.080246	0.792047	mountain	6	1	0.447611	0.447611	0	0	1	0	CommissionError	2.282215	1.088604	0	0
147.872421	0.792300	mountain	9	0	0.000000	0.413153	1	0	0	0	CorrectOmission	2.537535	1.088610	0	0
148.664749	0.792338	city	10	1	0.606410	0.606410	0	1	0	0	CorrectCommission	1.105557	1.076362	0	0
149.456985	0.792159	city	2	1	0.794350	0.794350	0	1	0	0	CorrectCommission	0.287019	1.054254	0	0
150.249222	0.792291	city	5	1	0.847713	0.847713	0	1	0	0	CorrectCommission	0.682427	1.025354	0	0
151.041489	0.792240	city	8	1	0.843826	0.843826	0	1	0	0	CorrectCommission	0.653627	0.992922	0	0
151.833740	0.792260	city	10	1	0.860427	0.860427	0	1	0	0	CorrectCommission	0.776634	0.959986	0	0
152.625992	0.792265	mountain	5	0	0.000000	0.896168	1	0	0	0	CorrectOmission	1.041463	0.928965	0	0
153.418259	0.792272	city	10	1	0.893392	0.893392	0	1	0	0	CorrectCommission	1.020896	0.901418	0	0
154.210602	0.792392	city	9	1	0.794444	0.794444	0	1	0	0	CorrectCommission	0.287716	0.878045	0	0
155.002869	0.792145	city	10	1	0.794190	0.794190	0	1	0	0	CorrectCommission	0.285833	0.858753	0	0
155.795059	0.792251	city	4	1	0.992500	0.992500	0	1	0	0	CorrectCommission	1.755257	0.842884	0	0
156.587433	0.792481	city	3	1	0.843835	0.843835	0	1	0	0	CorrectCommission	0.653692	0.829500	0	0
157.379745	0.792156	city	1	1	0.694984	0.694984	0	1	0	0	CorrectCommission	0.449256	0.817775	0	0
158.171936	0.792221	city	4	1	0.596146	0.596146	0	1	0	0	CorrectCommission	1.181612	0.807212	0	0
158.964142	0.792203	city	9	1	0.942731	0.942731	0	1	0	0	CorrectCommission	1.386481	0.797849	0	0
159.756439	0.792370	city	2	1	0.908266	0.908266	0	1	0	0	CorrectCommission	1.131105	0.790408	0	0
160.548813	0.792374	city	8	1	0.695154	0.695154	0	1	0	0	CorrectCommission	0.447989	0.786235	0	0
161.341064	0.792155	city	1	1	0.745331	0.745331	0	1	0	0	CorrectCommission	0.076197	0.787167	0	0
162.133286	0.792266	city	4	1	0.859711	0.859711	0	1	0	0	CorrectCommission	0.771330	0.795222	0	0
162.925491	0.792158	city	2	1	0.844321	0.844321	0	1	0	0	CorrectCommission	0.657294	0.812282	0	0
163.717697	0.792261	city	3	0	0.000000	0.845484	0	0	0	1	OmissionError	0.665912	0.839749	0	0
164.509964	0.792275	mountain	4	0	0.000000	0.852774	1	0	0	0	CorrectOmission	0.719929	0.878215	0	0
165.302231	0.792256	city	2	1	0.855765	0.855765	0	1	0	0	CorrectCommission	0.742091	0.927172	0	0
166.094604	0.792481	mountain	7	0	0.000000	0.844031	1	0	0	0	CorrectOmission	0.655146	0.984916	0	0
166.886902	0.792121	city	3	1	0.847447	0.847447	0	1	0	0	CorrectCommission	0.680455	1.048507	0	0
167.679169	0.792409	city	5	1	0.895887	0.895887	0	1	0	0	CorrectCommission	1.039381	1.113918	0	0
168.471405	0.792048	city	10	1	0.745437	0.745437	0	1	0	0	CorrectCommission	0.075408	1.176434	0	0
169.263550	0.792262	city	5	1	1.042352	1.042352	0	1	0	0	CorrectCommission	2.124646	1.231149	0	0
170.055817	0.792270	city	10	1	0.949595	0.949595	0	1	0	0	CorrectCommission	1.437339	1.273482	0	0
170.848083	0.792259	city	6	0	0.000000	1.036408	0	0	0	1	OmissionError	2.080599	1.299945	0	0
171.640366	0.792311	city	7	1	1.140906	1.140906	0	1	0	0	CorrectCommission	2.854896	1.308621	0	0
172.432739	0.792437	city	8	1	1.101202	1.101202	0	1	0	0	CorrectCommission	2.560703	1.299514	0	0
173.225098	0.792265	city	7	1	1.041824	1.041824	0	1	0	0	CorrectCommission	2.120729	1.274588	0	0
174.017258	0.792066	city	8	1	0.794346	0.794346	0	1	0	0	CorrectCommission	0.286991	1.237568	0	0
174.809464	0.792353	city	3	1	0.646355	0.646355	0	1	0	0	CorrectCommission	0.809582	1.193425	0	0
175.601730	0.792158	city	8	1	0.794473	0.794473	0	1	0	0	CorrectCommission	0.287930	1.147612	0	0
176.393936	0.792262	mountain	1	1	0.596345	0.596345	0	0	1	0	CommissionError	1.180138	1.105368	0	0
177.186203	0.792263	city	4	1	0.660738	0.660738	0	1	0	0	CorrectCommission	0.703008	1.070967	0	0
177.978470	0.792266	city	9	1	0.647704	0.647704	0	1	0	0	CorrectCommission	0.799580	1.047233	0	0
178.770737	0.792268	city	7	1	0.695376	0.695376	0	1	0	0	CorrectCommission	0.446345	1.035169	0	0
179.563049	0.792370	city	10	1	0.596480	0.596480	0	1	0	0	CorrectCommission	1.179140	1.033902	0	0
180.355423	0.792374	mountain	6	1	0.794259	0.794259	0	0	1	0	CommissionError	0.286347	1.040836	0	0
181.147629	0.792048	mountain	7	0	0.000000	0.881840	1	0	0	0	CorrectOmission	0.935293	1.052154	0	0
181.939850	0.792372	city	5	1	0.851423	0.851423	0	1	0	0	CorrectCommission	0.709912	1.063338	0	0
182.732101	0.792156	city	7	1	0.695209	0.695209	0	1	0	0	CorrectCommission	0.447582	1.069922	0	0
183.524368	0.792375	city	3	1	1.190397	1.190397	0	1	0	0	CorrectCommission	3.221610	1.068135	0	0
184.316696	0.792264	mountain	6	0	0.000000	1.158578	1	0	0	0	CorrectOmission	2.985841	1.055406	0	0
185.108932	0.792204	city	4	1	0.897081	0.897081	0	1	0	0	CorrectCommission	1.048225	1.030782	0	0
185.901138	0.792217	city	9	0	0.000000	0.703233	0	0	0	1	OmissionError	0.388130	0.994999	0	0
186.693375	0.792265	city	7	1	0.596587	0.596587	0	1	0	0	CorrectCommission	1.178345	0.950160	0	1
187.485641	0.792267	city	8	1	0.596696	0.596696	0	1	0	0	CorrectCommission	1.177541	0.899338	0	1
188.277908	0.792260	city	9	1	0.712130	0.712130	0	1	0	0	CorrectCommission	0.322206	0.846018	0	1
189.070175	0.792268	city	7	1	0.795984	0.795984	0	1	0	0	CorrectCommission	0.299127	0.793503	0	1
189.862549	0.792480	city	9	1	0.745239	0.745239	0	1	0	0	CorrectCommission	0.076874	0.744406	0	1
190.654922	0.792264	city	2	1	0.695031	0.695031	0	1	0	0	CorrectCommission	0.448902	0.700340	0	1
191.447067	0.792047	city	6	1	0.695081	0.695081	0	1	0	0	CorrectCommission	0.448536	0.661833	0	1
192.239288	0.792374	city	5	1	0.695402	0.695402	0	1	0	0	CorrectCommission	0.446155	0.628411	0	1
193.031570	0.792186	mountain	5	0	0.000000	0.635195	1	0	0	0	CorrectOmission	0.892270	0.598885	1	1
193.823807	0.792291	mountain	9	0	0.000000	0.580287	1	0	0	0	CorrectOmission	1.299124	0.571686	1	1
194.616058	0.792209	city	10	1	0.596505	0.596505	0	1	0	0	CorrectCommission	1.178955	0.545236	1	1
195.408295	0.792266	city	6	1	0.749675	0.749675	0	1	0	0	CorrectCommission	0.044006	0.518259	1	1
196.200668	0.792482	city	7	1	0.794412	0.794412	0	1	0	0	CorrectCommission	0.287480	0.489998	1	1
196.992935	0.792070	city	6	1	0.745108	0.745108	0	1	0	0	CorrectCommission	0.077847	0.460232	1	1
197.785156	0.792351	city	2	1	0.646403	0.646403	0	1	0	0	CorrectCommission	0.809222	0.429333	1	1
198.577408	0.792158	city	6	1	0.695336	0.695336	0	1	0	0	CorrectCommission	0.446646	0.398081	1	1
199.369614	0.792263	city	10	1	0.646331	0.646331	0	1	0	0	CorrectCommission	0.809760	0.367564	1	1
200.161880	0.792264	city	3	1	0.744766	0.744766	0	1	0	0	CorrectCommission	0.080381	0.338996	1	1
200.954147	0.792267	city	5	1	0.745470	0.745470	0	1	0	0	CorrectCommission	0.075163	0.313516	1	1
201.746414	0.792276	city	1	1	0.745255	0.745255	0	1	0	0	CorrectCommission	0.076760	0.292056	1	1
202.538681	0.792253	city	8	1	0.744847	0.744847	0	1	0	0	CorrectCommission	0.079786	0.275273	1	1
203.330963	0.792321	mountain	4	0	0.000000	0.751111	1	0	0	0	CorrectOmission	0.033366	0.263484	1	1
204.123230	0.792206	city	5	1	0.744933	0.744933	0	1	0	0	CorrectCommission	0.079146	0.256661	1	1
204.915466	0.792263	city	7	1	0.707195	0.707195	0	1	0	0	CorrectCommission	0.358775	0.254483	1	1
205.707779	0.792375	city	3	1	0.707799	0.707799	0	1	0	0	CorrectCommission	0.354298	0.256446	1	1
206.500046	0.792158	city	2	1	0.805099	0.805099	0	1	0	0	CorrectCommission	0.366665	0.261939	1	1
207.292282	0.792312	city	7	1	0.801222	0.801222	0	1	0	0	CorrectCommission	0.337943	0.270317	1	1
208.084549	0.792217	city	8	1	0.748511	0.748511	0	1	0	0	CorrectCommission	0.052636	0.280930	1	1
208.876816	0.792328	city	10	1	0.843799	0.843799	0	1	0	0	CorrectCommission	0.653425	0.293161	1	1
209.669083	0.792203	city	2	1	0.744817	0.744817	0	1	0	0	CorrectCommission	0.080002	0.306397	1	1
210.461334	0.792291	city	9	1	0.744792	0.744792	0	1	0	0	CorrectCommission	0.080190	0.320056	1	1
211.253708	0.792453	city	5	1	0.756646	0.756646	0	1	0	0	CorrectCommission	0.007646	0.333557	1	1
212.045959	0.792052	city	8	1	0.745087	0.745087	0	1	0	0	CorrectCommission	0.078006	0.346348	1	1
212.838120	0.792281	city	2	1	0.609193	0.609193	0	1	0	0	CorrectCommission	1.084938	0.357971	1	1
213.630386	0.792247	city	3	1	0.648864	0.648864	0	1	0	0	CorrectCommission	0.790991	0.368070	1	1
214.422760	0.792481	city	7	1	0.744826	0.744826	0	1	0	0	CorrectCommission	0.079937	0.376483	1	1
215.215012	0.792050	city	3	1	0.645862	0.645862	0	1	0	0	CorrectCommission	0.813232	0.383202	1	1
216.007172	0.792264	mountain	8	0	0.000000	0.706657	1	0	0	0	CorrectOmission	0.362758	0.388375	1	1
216.799484	0.792369	city	7	1	0.794583	0.794583	0	1	0	0	CorrectCommission	0.288744	0.392212	1	1
217.591751	0.792157	mountain	10	0	0.000000	0.777009	1	0	0	0	CorrectOmission	0.158532	0.394976	1	1
218.383972	0.792266	city	7	1	0.746166	0.746166	0	1	0	0	CorrectCommission	0.070009	0.396905	1	1
219.176285	0.792372	city	4	1	0.794281	0.794281	0	1	0	0	CorrectCommission	0.286507	0.398202	1	1
219.968658	0.792375	mountain	6	0	0.000000	0.739397	1	0	0	0	CorrectOmission	0.120166	0.399097	1	1
220.760864	0.792048	mountain	2	0	0.000000	0.650456	1	0	0	0	CorrectOmission	0.779193	0.399918	1	1
221.553055	0.792317	city	8	1	0.596399	0.596399	0	1	0	0	CorrectCommission	1.179738	0.401146	1	1
222.345322	0.792234	city	10	1	0.646168	0.646168	0	1	0	0	CorrectCommission	0.810963	0.403461	1	1
223.137573	0.792246	city	5	1	0.744776	0.744776	0	1	0	0	CorrectCommission	0.080305	0.407739	1	1
223.929825	0.792260	city	2	1	0.748973	0.748973	0	1	0	0	CorrectCommission	0.049208	0.414895	1	1
224.722198	0.792483	city	1	1	0.744837	0.744837	0	1	0	0	CorrectCommission	0.079853	0.425722	1	1
225.514450	0.792047	city	4	1	0.794069	0.794069	0	1	0	0	CorrectCommission	0.284936	0.440718	1	1
226.306610	0.792267	city	10	1	0.696600	0.696600	0	1	0	0	CorrectCommission	0.437279	0.459897	1	1
227.098877	0.792262	city	1	1	0.744788	0.744788	0	1	0	0	CorrectCommission	0.080221	0.482711	1	1
227.891144	0.792263	city	3	1	0.794481	0.794481	0	1	0	0	CorrectCommission	0.287990	0.508048	1	1
228.683411	0.792268	city	10	1	0.695831	0.695831	0	1	0	0	CorrectCommission	0.442978	0.534352	1	1
229.475677	0.792263	mountain	3	1	0.646494	0.646494	0	0	1	0	CommissionError	0.808552	0.559818	1	1
230.268051	0.792483	city	10	1	0.695271	0.695271	0	1	0	0	CorrectCommission	0.447129	0.582655	1	1
231.060333	0.792081	city	2	1	1.042007	1.042007	0	1	0	0	CorrectCommission	2.122083	0.601368	0	1
231.852493	0.792236	city	7	1	0.761436	0.761436	0	1	0	0	CorrectCommission	0.043141	0.614925	0	1
232.644730	0.792264	city	3	1	0.596253	0.596253	0	1	0	0	CorrectCommission	1.180820	0.622967	0	1
233.437103	0.792478	mountain	6	0	0.000000	0.632079	1	0	0	0	CorrectOmission	0.915356	0.625697	0	1
234.229370	0.792048	city	1	1	0.744963	0.744963	0	1	0	0	CorrectCommission	0.078923	0.623882	0	1
235.021637	0.792482	city	4	1	0.810950	0.810950	0	1	0	0	CorrectCommission	0.410021	0.618696	0	1
235.813904	0.792046	city	10	1	0.699102	0.699102	0	1	0	0	CorrectCommission	0.418736	0.611506	0	1
236.606049	0.792265	city	2	1	0.695305	0.695305	0	1	0	0	CorrectCommission	0.446876	0.603722	0	1
237.398422	0.792483	mountain	6	0	0.000000	0.862464	1	0	0	0	CorrectOmission	0.791729	0.596663	1	1
238.190689	0.792031	city	9	1	0.959374	0.959374	0	1	0	0	CorrectCommission	1.509801	0.591416	1	1
238.982956	0.792499	city	8	1	0.744826	0.744826	0	1	0	0	CorrectCommission	0.079937	0.588759	1	1
239.775269	0.792156	city	3	1	0.753192	0.753192	0	1	0	0	CorrectCommission	0.017947	0.589140	1	1
240.567535	0.792374	city	9	1	0.696056	0.696056	0	1	0	0	CorrectCommission	0.441309	0.592598	1	1
241.359756	0.792048	city	5	1	0.646284	0.646284	0	1	0	0	CorrectCommission	0.810107	0.598741	1	1
242.151901	0.792263	city	10	1	0.645774	0.645774	0	1	0	0	CorrectCommission	0.813884	0.606759	0	1
242.944168	0.792269	city	3	1	0.744836	0.744836	0	1	0	0	CorrectCommission	0.079863	0.615493	0	1
243.736542	0.792478	city	7	1	0.893597	0.893597	0	1	0	0	CorrectCommission	1.022410	0.623553	0	1
244.528809	0.792049	city	2	1	0.746145	0.746145	0	1	0	0	CorrectCommission	0.070162	0.629450	0	1
245.321075	0.792481	city	4	1	0.663931	0.663931	0	1	0	0	CorrectCommission	0.679347	0.631852	0	1
246.113449	0.792264	city	5	1	0.645524	0.645524	0	1	0	0	CorrectCommission	0.815740	0.629773	0	0
246.905624	0.792097	mountain	4	0	0.000000	0.594669	1	0	0	0	CorrectOmission	1.192557	0.622778	0	0
247.697784	0.792214	mountain	9	0	0.000000	0.566069	1	0	0	0	CorrectOmission	1.404473	0.611113	0	0
248.490021	0.792265	city	2	1	0.614426	0.614426	0	1	0	0	CorrectCommission	1.046161	0.595713	1	0
249.282288	0.792267	city	6	1	0.794442	0.794442	0	1	0	0	CorrectCommission	0.287705	0.578161	1	0
250.074615	0.792371	city	2	1	0.794294	0.794294	0	1	0	0	CorrectCommission	0.286605	0.560428	1	0
250.866989	0.792374	city	7	1	0.746247	0.746247	0	1	0	0	CorrectCommission	0.069406	0.544591	1	0
251.659195	0.792051	city	6	1	0.747268	0.747268	0	1	0	0	CorrectCommission	0.061843	0.532595	1	0
252.451355	0.792264	city	8	1	0.794520	0.794520	0	1	0	0	CorrectCommission	0.288279	0.525903	1	0
253.243729	0.792480	city	5	1	0.813350	0.813350	0	1	0	0	CorrectCommission	0.427805	0.525361	1	0
254.035995	0.792048	mountain	7	1	0.844067	0.844067	0	0	1	0	CommissionError	0.655409	0.531156	1	0
254.828140	0.792266	city	6	1	0.744791	0.744791	0	1	0	0	CorrectCommission	0.080194	0.542871	1	0
255.620407	0.792266	city	8	1	0.645772	0.645772	0	1	0	0	CorrectCommission	0.813901	0.559622	1	0
256.412689	0.792260	city	4	1	0.596247	0.596247	0	1	0	0	CorrectCommission	1.180865	0.580225	1	0
257.204926	0.792268	city	1	1	0.695314	0.695314	0	1	0	0	CorrectCommission	0.446810	0.603375	0	0
257.997253	0.792369	city	5	1	0.808711	0.808711	0	1	0	0	CorrectCommission	0.393434	0.627793	0	0
258.789581	0.792265	city	8	1	0.794363	0.794363	0	1	0	0	CorrectCommission	0.287116	0.652291	0	0
259.581879	0.792373	city	9	1	0.645825	0.645825	0	1	0	0	CorrectCommission	0.813503	0.675823	0	0
260.374115	0.792050	city	8	0	0.000000	0.802008	0	0	0	1	OmissionError	0.343761	0.697483	0	0
261.166321	0.792372	city	4	1	0.992420	0.992420	0	1	0	0	CorrectCommission	1.754661	0.716516	0	0
261.958588	0.792154	city	10	1	0.946573	0.946573	0	1	0	0	CorrectCommission	1.414949	0.732227	0	0
262.750793	0.792288	city	4	1	0.744976	0.744976	0	1	0	0	CorrectCommission	0.078829	0.744025	0	0
263.543060	0.792246	city	1	1	0.844260	0.844260	0	1	0	0	CorrectCommission	0.656840	0.751405	0	0
264.335327	0.792267	city	6	1	0.744791	0.744791	0	1	0	0	CorrectCommission	0.080196	0.753957	0	0
265.127686	0.792476	city	9	0	0.000000	0.727983	0	0	0	1	OmissionError	0.204737	0.751524	0	0
265.919952	0.792046	city	5	1	0.645550	0.645550	0	1	0	0	CorrectCommission	0.815544	0.744297	0	0
266.712128	0.792296	mountain	8	1	0.349204	0.349204	0	0	1	0	CommissionError	3.011380	0.732968	0	0
267.504517	0.792457	city	2	1	0.949609	0.949609	0	1	0	0	CorrectCommission	1.437441	0.718758	0	0
268.296875	0.792260	city	7	1	0.744559	0.744559	0	1	0	0	CorrectCommission	0.081913	0.703456	0	0
269.089020	0.792049	mountain	8	0	0.000000	0.733010	1	0	0	0	CorrectOmission	0.167488	0.689196	0	0
269.881195	0.792315	city	8	1	0.794403	0.794403	0	1	0	0	CorrectCommission	0.287413	0.678191	0	0
270.673584	0.792430	city	7	1	0.808179	0.808179	0	1	0	0	CorrectCommission	0.389489	0.672377	0	0
271.465820	0.792049	city	1	1	0.794110	0.794110	0	1	0	0	CorrectCommission	0.285241	0.673149	0	0
272.258087	0.792480	city	10	1	0.794303	0.794303	0	1	0	0	CorrectCommission	0.286674	0.681172	0	0
273.050385	0.792155	city	5	1	0.695099	0.695099	0	1	0	0	CorrectCommission	0.448399	0.696193	0	0
273.842560	0.792156	city	6	1	0.645630	0.645630	0	1	0	0	CorrectCommission	0.814954	0.717199	0	0
274.634766	0.792269	city	8	1	0.646106	0.646106	0	1	0	0	CorrectCommission	0.811421	0.742618	0	0
275.427032	0.792265	city	5	1	0.794481	0.794481	0	1	0	0	CorrectCommission	0.287992	0.770620	0	0
276.219360	0.792369	city	10	1	0.547256	0.547256	0	1	0	0	CorrectCommission	1.543874	0.799508	0	0
277.011597	0.792160	city	4	1	0.596225	0.596225	0	1	0	0	CorrectCommission	1.181027	0.827891	0	0
277.803833	0.792313	city	10	1	0.547491	0.547491	0	1	0	0	CorrectCommission	1.542130	0.854978	0	0
278.596222	0.792431	city	5	1	0.649561	0.649561	0	1	0	0	CorrectCommission	0.785821	0.880545	0	0
279.388489	0.792088	city	4	1	0.645707	0.645707	0	1	0	0	CorrectCommission	0.814383	0.904892	0	0
280.180634	0.792228	city	8	1	0.695276	0.695276	0	1	0	0	CorrectCommission	0.447086	0.928618	0	0
280.972992	0.792478	city	5	1	0.745036	0.745036	0	1	0	0	CorrectCommission	0.078380	0.952331	0	0
281.765320	0.792156	city	2	1	0.598089	0.598089	0	1	0	0	CorrectCommission	1.167213	0.976387	0	0
282.557465	0.792161	city	3	1	0.515454	0.515454	0	1	0	0	CorrectCommission	1.779513	1.000629	0	0
283.349792	0.792476	city	8	1	0.645951	0.645951	0	1	0	0	CorrectCommission	0.812569	1.024307	0	0
284.142151	0.792266	city	3	1	0.695560	0.695560	0	1	0	0	CorrectCommission	0.444981	1.046036	0	0
284.934418	0.792264	city	6	1	0.999485	0.999485	0	1	0	0	CorrectCommission	1.807010	1.063945	0	0
285.726685	0.792265	city	4	1	0.759123	0.759123	0	1	0	0	CorrectCommission	0.026002	1.075850	0	0
286.518829	0.792049	city	9	1	0.596439	0.596439	0	1	0	0	CorrectCommission	1.179442	1.079609	0	0
287.311005	0.792277	city	1	1	0.299166	0.299166	0	1	0	0	CorrectCommission	3.382147	1.073330	0	0
288.103271	0.792249	city	3	1	0.801319	0.801319	0	1	0	0	CorrectCommission	0.338656	1.055761	0	0
288.895538	0.792271	mountain	8	1	0.596619	0.596619	0	0	1	0	CommissionError	1.178107	1.026639	0	0
289.687805	0.792261	city	8	1	0.596330	0.596330	0	1	0	0	CorrectCommission	1.180252	0.986709	0	0
290.480042	0.792263	city	2	1	0.695260	0.695260	0	1	0	0	CorrectCommission	0.447210	0.937896	0	0
291.272369	0.792348	city	6	1	0.416060	0.416060	0	1	0	0	CorrectCommission	2.515994	0.883184	0	0
292.064667	0.792290	city	7	1	0.893691	0.893691	0	1	0	0	CorrectCommission	1.023111	0.826314	0	0
292.856903	0.792158	city	9	1	0.794345	0.794345	0	1	0	0	CorrectCommission	0.286983	0.771550	0	0
293.649109	0.792262	city	4	1	0.749999	0.749999	0	1	0	0	CorrectCommission	0.041607	0.723096	0	0
294.441376	0.792268	city	7	1	0.744790	0.744790	0	1	0	0	CorrectCommission	0.080204	0.684654	0	0
295.233673	0.792331	city	8	1	0.704893	0.704893	0	1	0	0	CorrectCommission	0.375833	0.658928	0	0
296.025940	0.792196	city	2	1	0.797039	0.797039	0	1	0	0	CorrectCommission	0.306948	0.647291	0	0
296.818176	0.792265	mountain	1	0	0.000000	0.792905	1	0	0	0	CorrectOmission	0.276311	0.649601	0	0
297.610443	0.792264	city	1	1	0.745313	0.745313	0	1	0	0	CorrectCommission	0.076327	0.664246	0	0
298.402710	0.792269	city	8	1	0.707090	0.707090	0	1	0	0	CorrectCommission	0.359553	0.688396	0	0
299.194977	0.792260	city	5	1	0.794282	0.794282	0	1	0	0	CorrectCommission	0.286516	0.718411	0	0
299.987274	0.792374	city	10	0	0.000000	0.915838	0	0	0	1	OmissionError	1.187210	0.750399	0	0
300.779541	0.792156	city	1	1	0.992872	0.992872	0	1	0	0	CorrectCommission	1.758011	0.780812	0	0
301.571777	0.792268	city	7	1	0.946499	0.946499	0	1	0	0	CorrectCommission	1.414397	0.806972	0	0
302.364075	0.792368	city	5	1	0.843849	0.843849	0	1	0	0	CorrectCommission	0.653792	0.827386	0	0
303.156403	0.792265	city	1	1	1.042090	1.042090	0	1	0	0	CorrectCommission	2.122704	0.841880	0	0
303.948608	0.792157	city	6	1	0.893361	0.893361	0	1	0	0	CorrectCommission	1.020667	0.851383	0	0
304.740814	0.792265	city	3	1	0.745450	0.745450	0	1	0	0	CorrectCommission	0.075311	0.857639	0	0
305.533142	0.792372	mountain	4	1	0.646003	0.646003	0	0	1	0	CommissionError	0.812190	0.862708	0	1
306.325409	0.792162	city	5	1	0.701145	0.701145	0	1	0	0	CorrectCommission	0.403599	0.868383	0	1
307.117645	0.792315	city	2	1	0.744815	0.744815	0	1	0	0	CorrectCommission	0.080021	0.875804	0	1
307.910004	0.792427	mountain	8	0	0.000000	0.773684	1	0	0	0	CorrectOmission	0.133891	0.885223	0	1
308.702240	0.792049	city	3	1	0.843633	0.843633	0	1	0	0	CorrectCommission	0.652192	0.895913	0	1
309.494446	0.792318	city	1	1	1.010541	1.010541	0	1	0	0	CorrectCommission	1.888936	0.906433	0	1
310.286713	0.792211	city	4	1	0.992399	0.992399	0	1	0	0	CorrectCommission	1.754508	0.914952	0	1
311.078979	0.792371	city	8	1	0.903670	0.903670	0	1	0	0	CorrectCommission	1.097048	0.919701	0	1
311.871307	0.792266	city	10	1	0.843712	0.843712	0	1	0	0	CorrectCommission	0.652782	0.919333	0	1
312.663513	0.792158	city	6	1	0.942893	0.942893	0	1	0	0	CorrectCommission	1.387679	0.913165	0	1
313.455719	0.792263	city	10	1	0.942875	0.942875	0	1	0	0	CorrectCommission	1.387546	0.901271	0	1
314.247986	0.792264	city	8	1	0.942992	0.942992	0	1	0	0	CorrectCommission	1.388413	0.884451	0	1
315.040253	0.792278	city	9	1	0.760861	0.760861	0	1	0	0	CorrectCommission	0.038879	0.864041	0	1
315.832520	0.792251	city	1	1	0.746629	0.746629	0	1	0	0	CorrectCommission	0.066579	0.841676	0	1
316.624786	0.792268	mountain	7	0	0.000000	0.867543	1	0	0	0	CorrectOmission	0.829360	0.818999	0	1
317.417053	0.792265	city	8	1	0.943352	0.943352	0	1	0	0	CorrectCommission	1.391079	0.797526	0	1
318.209320	0.792260	mountain	3	0	0.000000	0.793802	1	0	0	0	CorrectOmission	0.282962	0.778592	0	1
319.001587	0.792266	city	8	1	0.700094	0.700094	0	1	0	0	CorrectCommission	0.411391	0.763423	0	1
319.793945	0.792482	city	4	1	0.943425	0.943425	0	1	0	0	CorrectCommission	1.391624	0.753207	0	1
320.586212	0.792050	mountain	5	0	0.000000	0.806910	1	0	0	0	CorrectOmission	0.380083	0.749157	0	1
321.378387	0.792296	city	9	1	0.603409	0.603409	0	1	0	0	CorrectCommission	1.127793	0.752635	0	1
322.170654	0.792236	city	2	1	0.645787	0.645787	0	1	0	0	CorrectCommission	0.813786	0.765019	0	1
322.962921	0.792262	city	4	1	0.647495	0.647495	0	1	0	0	CorrectCommission	0.801134	0.787528	0	1
323.755157	0.792261	city	7	1	0.794436	0.794436	0	1	0	0	CorrectCommission	0.287661	0.820941	0	1
324.547424	0.792271	city	1	1	0.794472	0.794472	0	1	0	0	CorrectCommission	0.287924	0.865238	0	1
325.339691	0.792260	city	10	1	0.843896	0.843896	0	1	0	0	CorrectCommission	0.654142	0.919272	0	1
326.132019	0.792373	city	1	1	0.844396	0.844396	0	1	0	0	CorrectCommission	0.657845	0.980578	0	1
326.924286	0.792155	city	8	1	0.845868	0.845868	0	1	0	0	CorrectCommission	0.668757	1.045383	0	1
327.716492	0.792265	city	10	1	0.794336	0.794336	0	1	0	0	CorrectCommission	0.286914	1.108862	0	1
328.508820	0.792374	city	2	1	0.843929	0.843929	0	1	0	0	CorrectCommission	0.654386	1.165637	0	1
329.301147	0.792264	city	3	1	0.992232	0.992232	0	1	0	0	CorrectCommission	1.753266	1.210449	0	1
330.093445	0.792374	city	9	0	0.000000	1.180105	0	0	0	1	OmissionError	3.145349	1.238861	0	1
330.885651	0.792049	city	3	1	1.239733	1.239733	0	1	0	0	CorrectCommission	3.587179	1.247922	0	1
331.677856	0.792321	city	2	1	1.003303	1.003303	0	1	0	0	CorrectCommission	1.835299	1.236581	0	1
332.470123	0.792207	city	7	1	0.992733	0.992733	0	1	0	0	CorrectCommission	1.756981	1.205835	0	1
333.262360	0.792277	city	9	1	0.856089	0.856089	0	1	0	0	CorrectCommission	0.744491	1.158406	0	1
334.054718	0.792470	city	4	1	0.751665	0.751665	0	1	0	0	CorrectCommission	0.029260	1.098293	0	1
334.846985	0.792046	city	1	1	0.695118	0.695118	0	1	0	0	CorrectCommission	0.448262	1.030100	0	1
335.639191	0.792340	city	8	1	0.658949	0.658949	0	1	0	0	CorrectCommission	0.716258	0.958420	0	1
336.431458	0.792189	city	6	1	0.645698	0.645698	0	1	0	0	CorrectCommission	0.814449	0.887326	0	1
337.223663	0.792266	city	7	1	0.645782	0.645782	0	1	0	0	CorrectCommission	0.813821	0.820067	0	1
338.015930	0.792265	city	10	0	0.000000	0.835590	0	0	0	1	OmissionError	0.592599	0.759040	0	1
338.808197	0.792264	city	7	1	0.942855	0.942855	0	1	0	0	CorrectCommission	1.387403	0.705828	0	1
339.600586	0.792480	city	4	1	0.695312	0.695312	0	1	0	0	CorrectCommission	0.446820	0.661401	0	1
340.392853	0.792051	city	7	1	0.712382	0.712382	0	1	0	0	CorrectCommission	0.320340	0.626352	0	1
341.184998	0.792267	city	4	1	0.794646	0.794646	0	1	0	0	CorrectCommission	0.289214	0.601010	1	1
341.977264	0.792260	city	9	1	0.847911	0.847911	0	1	0	0	CorrectCommission	0.683892	0.585516	1	1
342.769562	0.792326	city	4	1	0.844314	0.844314	0	1	0	0	CorrectCommission	0.657241	0.579806	1	1
343.561890	0.792312	city	8	1	0.745321	0.745321	0	1	0	0	CorrectCommission	0.076267	0.583561	1	1
344.354095	0.792158	city	2	1	0.794242	0.794242	0	1	0	0	CorrectCommission	0.286223	0.596097	1	1
345.146423	0.792479	city	10	1	0.695291	0.695291	0	1	0	0	CorrectCommission	0.446977	0.616270	0	1
345.938690	0.792066	city	2	0	0.000000	0.681791	0	0	0	1	OmissionError	0.547005	0.642465	0	1
346.730865	0.792245	mountain	9	0	0.000000	0.727803	1	0	0	0	CorrectOmission	0.206072	0.672671	0	1
347.523102	0.792266	city	7	0	0.000000	0.807385	0	0	0	1	OmissionError	0.383610	0.704636	0	1
348.315369	0.792264	city	9	0	0.000000	0.894598	0	0	0	1	OmissionError	1.029832	0.736084	0	1
349.107697	0.792374	city	10	0	0.000000	0.963501	0	0	0	1	OmissionError	1.540381	0.764966	0	1
349.900085	0.792374	city	8	0	0.000000	0.988153	0	0	0	1	OmissionError	1.723047	0.789650	0	1
350.692322	0.792155	city	7	1	0.942615	0.942615	0	1	0	0	CorrectCommission	1.385620	0.809032	0	1
351.484589	0.792374	city	8	1	0.800945	0.800945	0	1	0	0	CorrectCommission	0.335887	0.822548	0	1
352.276917	0.792265	city	1	1	0.744586	0.744586	0	1	0	0	CorrectCommission	0.081719	0.830070	0	1
353.069061	0.792046	city	2	1	0.646029	0.646029	0	1	0	0	CorrectCommission	0.811997	0.831745	0	1
353.861267	0.792355	city	4	1	0.695342	0.695342	0	1	0	0	CorrectCommission	0.446600	0.827851	0	1
354.653564	0.792242	city	8	1	0.596582	0.596582	0	1	0	0	CorrectCommission	1.178384	0.818730	0	1
355.445801	0.792199	city	10	1	0.596156	0.596156	0	1	0	0	CorrectCommission	1.181540	0.804712	0	1
356.238129	0.792481	city	4	1	0.599992	0.599992	0	1	0	0	CorrectCommission	1.153112	0.786163	0	1
357.030518	0.792264	city	9	1	0.663174	0.663174	0	1	0	0	CorrectCommission	0.684955	0.763579	0	1
357.822662	0.792048	city	6	1	0.645543	0.645543	0	1	0	0	CorrectCommission	0.815595	0.737629	0	1
358.614807	0.792263	city	8	1	0.608907	0.608907	0	1	0	0	CorrectCommission	1.087056	0.709189	0	1
359.407135	0.792374	city	5	1	0.646076	0.646076	0	1	0	0	CorrectCommission	0.811647	0.679299	0	1
360.199463	0.792264	city	8	1	0.695155	0.695155	0	1	0	0	CorrectCommission	0.447983	0.649099	0	1
360.991669	0.792177	city	1	1	0.745965	0.745965	0	1	0	0	CorrectCommission	0.071494	0.619727	0	1
361.783875	0.792245	city	6	1	0.801085	0.801085	0	1	0	0	CorrectCommission	0.336926	0.592177	1	1
362.576172	0.792318	city	5	1	0.695321	0.695321	0	1	0	0	CorrectCommission	0.446755	0.567204	1	1
363.368439	0.792214	city	7	1	0.646155	0.646155	0	1	0	0	CorrectCommission	0.811057	0.545287	1	1
364.160675	0.792272	city	6	1	0.695647	0.695647	0	1	0	0	CorrectCommission	0.444341	0.526632	1	1
364.953064	0.792472	city	2	1	0.653058	0.653058	0	1	0	0	CorrectCommission	0.759909	0.511245	1	0
365.745422	0.792265	city	1	1	0.697005	0.697005	0	1	0	0	CorrectCommission	0.434279	0.498958	1	0
366.537567	0.792051	city	8	1	0.708556	0.708556	0	1	0	0	CorrectCommission	0.348689	0.489592	1	0
367.329742	0.792292	city	9	1	0.744721	0.744721	0	1	0	0	CorrectCommission	0.080715	0.482998	1	0
368.122009	0.792238	city	4	1	0.695264	0.695264	0	1	0	0	CorrectCommission	0.447175	0.479189	1	0
368.914276	0.792260	mountain	7	0	0.000000	0.636852	1	0	0	0	CorrectOmission	0.879990	0.478339	1	0
369.706543	0.792309	mountain	10	1	0.645780	0.645780	0	0	1	0	CommissionError	0.813842	0.480824	1	0
370.498810	0.792222	city	4	1	0.798340	0.798340	0	1	0	0	CorrectCommission	0.316585	0.487251	1	0
371.291168	0.792482	mountain	2	0	0.000000	0.764839	1	0	0	0	CorrectOmission	0.068352	0.498387	1	0
372.083527	0.792265	city	8	1	0.696566	0.696566	0	1	0	0	CorrectCommission	0.437532	0.515071	1	0
372.875702	0.792048	city	10	1	0.744809	0.744809	0	1	0	0	CorrectCommission	0.080061	0.538114	1	0
373.667847	0.792267	city	4	1	0.851152	0.851152	0	1	0	0	CorrectCommission	0.707905	0.568181	1	0
374.460114	0.792261	city	8	1	0.844435	0.844435	0	1	0	0	CorrectCommission	0.658138	0.605627	0	0
375.252472	0.792483	city	3	1	0.705203	0.705203	0	1	0	0	CorrectCommission	0.373534	0.650357	0	0
376.044769	0.792099	city	10	1	0.645530	0.645530	0	1	0	0	CorrectCommission	0.815691	0.701678	0	0
376.837036	0.792430	city	1	1	0.658929	0.658929	0	1	0	0	CorrectCommission	0.716412	0.758145	0	0
377.629272	0.792050	city	2	1	0.648038	0.648038	0	1	0	0	CorrectCommission	0.797110	0.817532	0	0
378.421448	0.792263	city	1	1	0.699132	0.699132	0	1	0	0	CorrectCommission	0.418515	0.876813	0	0
379.213745	0.792329	mountain	6	1	0.695273	0.695273	0	0	1	0	CommissionError	0.447114	0.932314	0	0
380.006012	0.792199	city	1	1	0.893330	0.893330	0	1	0	0	CorrectCommission	1.020435	0.979975	0	0
380.798248	0.792318	mountain	7	0	0.000000	0.695242	1	0	0	0	CorrectOmission	0.447338	1.015749	0	0
381.590515	0.792213	city	5	0	0.000000	0.447655	0	0	0	1	OmissionError	2.281885	1.036140	0	0
382.382751	0.792263	city	6	1	0.497215	0.497215	0	1	0	0	CorrectCommission	1.914661	1.038606	0	0
383.175049	0.792331	city	5	1	1.190568	1.190568	0	1	0	0	CorrectCommission	3.222883	1.022059	0	0
383.967316	0.792200	city	9	1	0.942788	0.942788	0	1	0	0	CorrectCommission	1.386905	0.987006	0	0
384.759552	0.792265	city	3	1	0.744837	0.744837	0	1	0	0	CorrectCommission	0.079860	0.935593	0	0
385.551819	0.792266	city	7	1	0.554401	0.554401	0	1	0	0	CorrectCommission	1.490928	0.871302	0	0
386.344116	0.792294	city	3	1	0.695690	0.695690	0	1	0	0	CorrectCommission	0.444017	0.798476	0	0
387.136353	0.792235	city	7	1	0.745111	0.745111	0	1	0	0	CorrectCommission	0.077828	0.721893	0	0
387.928619	0.792259	city	1	1	0.794285	0.794285	0	1	0	0	CorrectCommission	0.286538	0.646179	0	0
388.720886	0.792277	city	5	1	0.745377	0.745377	0	1	0	0	CorrectCommission	0.075855	0.575479	1	0
389.513214	0.792364	mountain	2	0	0.000000	0.696182	1	0	0	0	CorrectOmission	0.440377	0.513093	1	0
390.305450	0.792162	city	9	1	0.708422	0.708422	0	1	0	0	CorrectCommission	0.349682	0.461526	1	0
391.097778	0.792475	city	5	1	0.843820	0.843820	0	1	0	0	CorrectCommission	0.653576	0.422456	1	0
391.890106	0.792156	city	6	0	0.000000	0.783859	0	0	0	1	OmissionError	0.209284	0.396924	1	0
392.682251	0.792156	city	5	1	0.695292	0.695292	0	1	0	0	CorrectCommission	0.446967	0.385540	1	0
393.474579	0.792483	city	9	1	0.744873	0.744873	0	1	0	0	CorrectCommission	0.079590	0.388589	1	0
394.266846	0.792049	city	3	1	0.745512	0.745512	0	1	0	0	CorrectCommission	0.074854	0.406165	1	0
395.059113	0.792480	city	6	1	0.749111	0.749111	0	1	0	0	CorrectCommission	0.048186	0.438167	1	0
395.851379	0.792086	mountain	1	0	0.000000	0.772327	1	0	0	0	CorrectOmission	0.123840	0.484291	1	0
396.643646	0.792443	city	7	1	0.794297	0.794297	0	1	0	0	CorrectCommission	0.286629	0.543924	1	0
397.435913	0.792093	city	4	1	0.794156	0.794156	0	1	0	0	CorrectCommission	0.285584	0.616032	0	0
398.228088	0.792242	city	10	1	0.843811	0.843811	0	1	0	0	CorrectCommission	0.653514	0.699088	0	0
399.020386	0.792352	city	9	1	0.992679	0.992679	0	1	0	0	CorrectCommission	1.756584	0.790949	0	0
399.812683	0.792221	city	6	1	0.795366	0.795366	0	1	0	0	CorrectCommission	0.294547	0.888850	0	0
400.604889	0.792209	city	7	1	0.808548	0.808548	0	1	0	0	CorrectCommission	0.392223	0.989461	0	0
401.397186	0.792363	city	9	1	0.893963	0.893963	0	1	0	0	CorrectCommission	1.025123	1.088962	0	0
402.189453	0.792176	city	10	1	0.893802	0.893802	0	1	0	0	CorrectCommission	1.023930	1.183274	0	0
402.981720	0.792354	city	6	1	0.803409	0.803409	0	1	0	0	CorrectCommission	0.354143	1.268319	0	0
403.773956	0.792164	city	1	1	1.290216	1.290216	0	1	0	0	CorrectCommission	3.961243	1.340424	0	0
404.566193	0.792277	city	2	1	0.794340	0.794340	0	1	0	0	CorrectCommission	0.286945	1.396557	0	0
405.358459	0.792261	city	8	1	1.240390	1.240390	0	1	0	0	CorrectCommission	3.592044	1.434834	0	0
406.150696	0.792253	city	7	1	0.992516	0.992516	0	1	0	0	CorrectCommission	1.755376	1.454435	0	0
406.942963	0.792265	mountain	8	0	0.000000	0.963581	1	0	0	0	CorrectOmission	1.540971	1.455836	0	0
407.735229	0.792263	city	9	1	0.999438	0.999438	0	1	0	0	CorrectCommission	1.806663	1.440532	0	0
408.527618	0.792480	mountain	3	0	0.000000	0.945943	1	0	0	0	CorrectOmission	1.410284	1.410773	0	0
409.319885	0.792110	mountain	8	0	0.000000	0.872428	1	0	0	0	CorrectOmission	0.865557	1.369227	0	0
410.112152	0.792418	city	10	1	0.848223	0.848223	0	1	0	0	CorrectCommission	0.686204	1.318626	0	0
410.904388	0.792049	city	8	1	0.942659	0.942659	0	1	0	0	CorrectCommission	1.385948	1.261499	0	0
411.696594	0.792372	mountain	3	0	0.000000	0.962659	1	0	0	0	CorrectOmission	1.534142	1.199982	0	0
412.488892	0.792218	city	10	1	0.943753	0.943753	0	1	0	0	CorrectCommission	1.394053	1.135817	0	0
413.281219	0.792421	city	4	0	0.000000	0.921471	0	0	0	1	OmissionError	1.228948	1.070394	0	0
414.073456	0.792046	city	8	0	0.000000	0.898080	0	0	0	1	OmissionError	1.055626	1.004854	0	0
414.865723	0.792484	city	1	0	0.000000	0.875847	0	0	0	1	OmissionError	0.890892	0.940193	0	0
415.657990	0.792069	city	8	0	0.000000	0.857042	0	0	0	1	OmissionError	0.751547	0.877367	0	0
416.450195	0.792351	city	2	0	0.000000	0.843930	0	0	0	1	OmissionError	0.654392	0.817290	0	0
417.242462	0.792155	city	5	0	0.000000	0.838779	0	0	0	1	OmissionError	0.616230	0.760879	0	0
418.034790	0.792484	city	3	1	0.843858	0.843858	0	1	0	0	CorrectCommission	0.653862	0.708969	0	0
418.827057	0.792049	mountain	4	0	0.000000	0.861434	1	0	0	0	CorrectOmission	0.784091	0.662249	0	0
419.619324	0.792480	city	5	1	0.844183	0.844183	0	1	0	0	CorrectCommission	0.656265	0.621172	0	0
420.411682	0.792264	city	10	1	0.744782	0.744782	0	1	0	0	CorrectCommission	0.080265	0.585946	1	0
421.203888	0.792157	city	7	1	0.794098	0.794098	0	1	0	0	CorrectCommission	0.285150	0.556430	1	0
421.996155	0.792374	city	9	1	0.697717	0.697717	0	1	0	0	CorrectCommission	0.429005	0.532278	1	0
422.788361	0.792048	city	5	1	0.695051	0.695051	0	1	0	0	CorrectCommission	0.448756	0.512889	1	0
423.580536	0.792265	city	1	1	0.652575	0.652575	0	1	0	0	CorrectCommission	0.763491	0.497610	1	0
424.372833	0.792322	city	4	1	0.695270	0.695270	0	1	0	0	CorrectCommission	0.447136	0.485805	1	1
425.165100	0.792210	city	1	1	0.695193	0.695193	0	1	0	0	CorrectCommission	0.447705	0.476958	1	1
425.957367	0.792368	city	10	1	0.648421	0.648421	0	1	0	0	CorrectCommission	0.794271	0.470728	1	1
426.749634	0.792156	city	1	1	0.794193	0.794193	0	1	0	0	CorrectCommission	0.285859	0.466933	1	1
427.541840	0.792267	city	4	1	0.699262	0.699262	0	1	0	0	CorrectCommission	0.417556	0.465532	1	1
428.334106	0.792266	city	1	1	0.695307	0.695307	0	1	0	0	CorrectCommission	0.446858	0.466500	1	1
429.126373	0.792260	city	6	1	0.695699	0.695699	0	1	0	0	CorrectCommission	0.443953	0.469715	1	1
429.918640	0.792271	mountain	4	1	0.758977	0.758977	0	0	1	0	CommissionError	0.024918	0.474889	1	1
430.710968	0.792368	city	6	1	0.844461	0.844461	0	1	0	0	CorrectCommission	0.658332	0.481526	1	1
431.503326	0.792373	city	3	1	0.745049	0.745049	0	1	0	0	CorrectCommission	0.078283	0.488909	1	1
432.295563	0.792070	city	7	1	0.695209	0.695209	0	1	0	0	CorrectCommission	0.447589	0.496224	1	1
433.087769	0.792351	city	4	1	0.710269	0.710269	0	1	0	0	CorrectCommission	0.335995	0.502645	1	1
433.880005	0.792156	city	7	1	0.546646	0.546646	0	1	0	0	CorrectCommission	1.548396	0.507506	1	1
434.672241	0.792267	city	6	1	0.662548	0.662548	0	1	0	0	CorrectCommission	0.689594	0.510380	1	1
435.464508	0.792300	city	2	1	0.662718	0.662718	0	1	0	0	CorrectCommission	0.688334	0.511200	1	1
436.256775	0.792230	city	5	1	0.695749	0.695749	0	1	0	0	CorrectCommission	0.443586	0.510174	1	1
437.049042	0.792266	city	4	1	0.704183	0.704183	0	1	0	0	CorrectCommission	0.381089	0.507715	1	1
437.841309	0.792295	city	8	1	0.757568	0.757568	0	1	0	0	CorrectCommission	0.014475	0.504290	1	1
438.633667	0.792449	city	9	1	0.695559	0.695559	0	1	0	0	CorrectCommission	0.444991	0.500281	1	1
439.425934	0.792048	city	10	1	0.695196	0.695196	0	1	0	0	CorrectCommission	0.447680	0.495840	1	1
440.218140	0.792374	city	3	1	0.695390	0.695390	0	1	0	0	CorrectCommission	0.446244	0.490859	1	1
441.010406	0.792163	city	5	1	0.660323	0.660323	0	1	0	0	CorrectCommission	0.706078	0.484998	1	1
441.802612	0.792256	city	7	1	0.794544	0.794544	0	1	0	0	CorrectCommission	0.288456	0.477798	1	1
442.594879	0.792265	city	3	1	0.695245	0.695245	0	1	0	0	CorrectCommission	0.447317	0.468842	1	1
443.387146	0.792272	city	1	1	0.597174	0.597174	0	1	0	0	CorrectCommission	1.173996	0.457902	1	1
444.179504	0.792476	city	7	1	0.695931	0.695931	0	1	0	0	CorrectCommission	0.442238	0.445079	1	1
444.971893	0.792265	city	3	1	0.695056	0.695056	0	1	0	0	CorrectCommission	0.448720	0.430911	1	1
445.764099	0.792155	city	1	1	0.695019	0.695019	0	1	0	0	CorrectCommission	0.448990	0.416334	1	1
446.556244	0.792158	city	4	1	0.695152	0.695152	0	1	0	0	CorrectCommission	0.448004	0.402603	1	1
447.348480	0.792264	city	2	1	0.794290	0.794290	0	1	0	0	CorrectCommission	0.286577	0.391130	1	1
448.140747	0.792268	city	3	1	0.744787	0.744787	0	1	0	0	CorrectCommission	0.080225	0.383267	1	1
448.933014	0.792266	city	6	1	0.744926	0.744926	0	1	0	0	CorrectCommission	0.079199	0.380140	1	1
449.725250	0.792260	city	1	1	0.795161	0.795161	0	1	0	0	CorrectCommission	0.293027	0.382455	1	1
450.517517	0.792263	city	2	1	0.794383	0.794383	0	1	0	0	CorrectCommission	0.287264	0.390401	1	1
451.309814	0.792334	city	1	1	0.794388	0.794388	0	1	0	0	CorrectCommission	0.287300	0.403612	1	1
452.102203	0.792414	city	6	1	0.794236	0.794236	0	1	0	0	CorrectCommission	0.286178	0.421232	1	1
452.894440	0.792057	city	10	1	0.762595	0.762595	0	1	0	0	CorrectCommission	0.051729	0.442024	1	1
453.686584	0.792257	city	3	1	0.844113	0.844113	0	1	0	0	CorrectCommission	0.655752	0.464543	1	1
454.478851	0.792281	city	2	1	0.896104	0.896104	0	1	0	0	CorrectCommission	1.040988	0.487277	1	1
455.271240	0.792465	city	6	1	0.695794	0.695794	0	1	0	0	CorrectCommission	0.443251	0.508842	1	1
456.063477	0.792050	city	2	1	0.645890	0.645890	0	1	0	0	CorrectCommission	0.813027	0.528122	1	1
456.855652	0.792262	city	6	1	0.646439	0.646439	0	1	0	0	CorrectCommission	0.808960	0.544296	1	1
457.647919	0.792270	city	3	1	0.695253	0.695253	0	1	0	0	CorrectCommission	0.447261	0.556902	1	1
458.440186	0.792264	city	2	1	0.695268	0.695268	0	1	0	0	CorrectCommission	0.447150	0.565805	1	1
459.232544	0.792478	city	6	1	0.745804	0.745804	0	1	0	0	CorrectCommission	0.072693	0.571165	1	1
460.024933	0.792264	city	10	1	0.796834	0.796834	0	1	0	0	CorrectCommission	0.305427	0.573404	1	1
460.817108	0.792120	city	1	0	0.000000	0.622743	0	0	0	1	OmissionError	0.984533	0.573125	1	1
461.609283	0.792198	city	7	1	0.547070	0.547070	0	1	0	0	CorrectCommission	1.545248	0.571120	1	1
462.401611	0.792478	city	4	1	0.893354	0.893354	0	1	0	0	CorrectCommission	1.020608	0.568259	1	1
463.193878	0.792046	city	2	1	0.744685	0.744685	0	1	0	0	CorrectCommission	0.080982	0.565434	1	1
463.986145	0.792484	city	4	1	0.749125	0.749125	0	1	0	0	CorrectCommission	0.048081	0.563441	1	1
464.778412	0.792046	city	1	1	0.696859	0.696859	0	1	0	0	CorrectCommission	0.435359	0.562836	1	1
465.570557	0.792263	city	9	1	0.757165	0.757165	0	1	0	0	CorrectCommission	0.011491	0.563872	1	1
466.362823	0.792286	city	2	1	0.843835	0.843835	0	1	0	0	CorrectCommission	0.653687	0.566513	1	1
467.155090	0.792244	city	4	1	0.794283	0.794283	0	1	0	0	CorrectCommission	0.286528	0.570463	1	1
467.947357	0.792267	city	9	1	0.650578	0.650578	0	1	0	0	CorrectCommission	0.778287	0.575369	1	1
468.739655	0.792335	mountain	2	0	0.000000	0.591721	1	0	0	0	CorrectOmission	1.214397	0.581000	1	1
469.531921	0.792196	city	1	1	0.646530	0.646530	0	1	0	0	CorrectCommission	0.808282	0.587501	1	1
470.324158	0.792263	city	3	1	0.843820	0.843820	0	1	0	0	CorrectCommission	0.653581	0.595627	1	1
471.116425	0.792277	mountain	8	0	0.000000	0.868502	1	0	0	0	CorrectOmission	0.836464	0.606858	0	1
471.908691	0.792253	city	6	1	0.794439	0.794439	0	1	0	0	CorrectCommission	0.287678	0.623438	0	1
472.700989	0.792370	city	2	1	0.695495	0.695495	0	1	0	0	CorrectCommission	0.445467	0.648351	0	1
473.493317	0.792266	city	8	1	0.744671	0.744671	0	1	0	0	CorrectCommission	0.081084	0.685098	0	1
474.285522	0.792159	city	6	1	0.695286	0.695286	0	1	0	0	CorrectCommission	0.447012	0.737414	0	1
475.077759	0.792323	city	3	1	0.695372	0.695372	0	1	0	0	CorrectCommission	0.446378	0.808812	0	1
475.870148	0.792421	city	9	1	0.696311	0.696311	0	1	0	0	CorrectCommission	0.439420	0.902032	0	1
476.662384	0.792052	city	1	1	0.496985	0.496985	0	1	0	0	CorrectCommission	1.916363	1.018406	0	1
477.454529	0.792261	city	4	1	0.855671	0.855671	0	1	0	0	CorrectCommission	0.741389	1.157146	0	1
478.246796	0.792262	city	2	1	0.706510	0.706510	0	1	0	0	CorrectCommission	0.363848	1.314847	0	1
479.039062	0.792285	city	4	0	0.000000	0.671861	0	0	0	1	OmissionError	0.620588	1.485066	0	1
479.831329	0.792248	city	10	0	0.000000	0.726126	0	0	0	1	OmissionError	0.218499	1.658373	0	1
480.623596	0.792281	city	4	0	0.000000	0.843709	0	0	0	1	OmissionError	0.652753	1.822957	0	1
481.415863	0.792267	city	6	0	0.000000	0.999011	0	0	0	1	OmissionError	1.803502	1.965698	0	1
482.208221	0.792461	city	4	0	0.000000	1.166438	0	0	0	1	OmissionError	3.044082	2.073775	0	1
483.000519	0.792110	city	10	0	0.000000	1.320390	0	0	0	1	OmissionError	4.184826	2.136647	0	1
483.792664	0.792207	city	2	0	0.000000	1.435272	0	0	0	1	OmissionError	5.036069	2.147887	0	1
484.585022	0.792478	city	8	0	0.000000	1.485487	0	0	0	1	OmissionError	5.408143	2.106690	0	1
485.377350	0.792156	mountain	4	0	0.000000	1.445437	1	0	0	0	CorrectOmission	5.111382	2.018578	0	1
486.169586	0.792374	mountain	10	1	1.289525	1.289525	0	0	1	0	CommissionError	3.956121	1.895127	0	1
486.961823	0.792078	city	2	1	0.992154	0.992154	0	1	0	0	CorrectCommission	1.752692	1.752692	0	1
