onset	duration	trial_type	image_type	Press	ReactionTime	ReactionTime_Interpolated	CorrectOmission	CorrectCommission	CommissionError	OmissionError	response_type	nonsmoothVarianceTimeCourse	VarianceTimeCourse	In_the_Zone	Reward_trial
8.433909	0.792485	city	10	1	0.603053	0.603053	0	1	0	0	CorrectCommission	0.308014	0.308014	1	1
9.226182	0.792061	city	7	1	0.662039	0.662039	0	1	0	0	CorrectCommission	0.129997	0.326692	1	1
10.018392	0.792358	city	6	1	0.807993	0.807993	0	1	0	0	CorrectCommission	1.213805	0.343113	1	1
10.810649	0.792158	mountain	1	0	0.000000	0.809146	1	0	0	0	CorrectOmission	1.222369	0.355400	1	1
11.602859	0.792262	city	4	1	0.745200	0.745200	0	1	0	0	CorrectCommission	0.747527	0.362433	1	1
12.395143	0.792304	city	1	1	0.695857	0.695857	0	1	0	0	CorrectCommission	0.381119	0.364020	1	1
13.187421	0.792251	city	8	1	0.695243	0.695243	0	1	0	0	CorrectCommission	0.376561	0.360884	1	1
13.979774	0.792456	city	1	1	0.646908	0.646908	0	1	0	0	CorrectCommission	0.017644	0.354492	1	1
14.772080	0.792156	city	7	1	0.645628	0.645628	0	1	0	0	CorrectCommission	0.008134	0.346830	1	1
15.564346	0.792375	city	4	1	0.695125	0.695125	0	1	0	0	CorrectCommission	0.375686	0.340079	1	1
16.356558	0.792051	city	6	1	0.695241	0.695241	0	1	0	0	CorrectCommission	0.376550	0.336378	1	1
17.148823	0.792478	city	2	1	0.655356	0.655356	0	1	0	0	CorrectCommission	0.080376	0.337599	1	1
17.941093	0.792062	city	5	1	0.645592	0.645592	0	1	0	0	CorrectCommission	0.007869	0.345313	1	1
18.733282	0.792316	city	1	1	0.645857	0.645857	0	1	0	0	CorrectCommission	0.009837	0.360759	1	1
19.525593	0.792307	city	10	1	0.596260	0.596260	0	1	0	0	CorrectCommission	0.358455	0.384917	1	1
20.317827	0.792160	city	3	1	0.709816	0.709816	0	1	0	0	CorrectCommission	0.484774	0.418585	1	1
21.110146	0.792479	city	4	1	0.744817	0.744817	0	1	0	0	CorrectCommission	0.744680	0.462424	1	1
21.902517	0.792264	city	6	1	0.758998	0.758998	0	1	0	0	CorrectCommission	0.849984	0.516881	1	1
22.694729	0.792156	mountain	8	0	0.000000	0.667658	1	0	0	0	CorrectOmission	0.171728	0.582047	1	1
23.486883	0.792156	city	2	1	0.602533	0.602533	0	1	0	0	CorrectCommission	0.311875	0.657408	1	1
24.279097	0.792268	city	6	1	0.695354	0.695354	0	1	0	0	CorrectCommission	0.377386	0.741538	0	1
25.071369	0.792281	city	9	1	0.695329	0.695329	0	1	0	0	CorrectCommission	0.377203	0.831874	0	1
25.863632	0.792244	city	7	1	0.662273	0.662273	0	1	0	0	CorrectCommission	0.131741	0.924640	0	1
26.655888	0.792267	city	9	1	0.744848	0.744848	0	1	0	0	CorrectCommission	0.744910	1.014987	0	1
27.448154	0.792263	city	10	1	0.794321	0.794321	0	1	0	0	CorrectCommission	1.112282	1.097333	0	1
28.240526	0.792484	city	4	1	0.893898	0.893898	0	1	0	0	CorrectCommission	1.851707	1.166002	0	1
29.032793	0.792050	city	6	1	0.900241	0.900241	0	1	0	0	CorrectCommission	1.898810	1.215930	0	1
29.824951	0.792264	city	3	1	0.946064	0.946064	0	1	0	0	CorrectCommission	2.239073	1.243450	0	1
30.617214	0.792264	city	8	1	0.954765	0.954765	0	1	0	0	CorrectCommission	2.303683	1.246873	0	1
31.409481	0.792269	city	6	1	1.091604	1.091604	0	1	0	0	CorrectCommission	3.319810	1.226864	0	1
32.201744	0.792258	mountain	7	0	0.000000	0.775751	1	0	0	0	CorrectOmission	0.974390	1.186395	0	1
32.994007	0.792264	city	3	1	0.451602	0.451602	0	1	0	0	CorrectCommission	1.432636	1.130474	0	1
33.786301	0.792326	city	5	1	0.563553	0.563553	0	1	0	0	CorrectCommission	0.601325	1.065320	0	1
34.578568	0.792207	city	1	1	0.596388	0.596388	0	1	0	0	CorrectCommission	0.357502	0.997617	0	1
35.370911	0.792478	city	10	1	0.651078	0.651078	0	1	0	0	CorrectCommission	0.048604	0.933583	0	1
36.163177	0.792051	city	9	1	0.649654	0.649654	0	1	0	0	CorrectCommission	0.038036	0.878231	0	1
36.955338	0.792272	city	10	1	0.645771	0.645771	0	1	0	0	CorrectCommission	0.009202	0.834836	0	1
37.747631	0.792316	city	3	1	0.758308	0.758308	0	1	0	0	CorrectCommission	0.844861	0.804751	0	1
38.539890	0.792202	city	8	1	0.744777	0.744777	0	1	0	0	CorrectCommission	0.744383	0.787479	0	1
39.332127	0.792267	city	3	1	0.759605	0.759605	0	1	0	0	CorrectCommission	0.854490	0.781052	0	1
40.124500	0.792480	city	4	1	0.794444	0.794444	0	1	0	0	CorrectCommission	1.113198	0.782506	0	1
40.916817	0.792156	city	5	1	0.764517	0.764517	0	1	0	0	CorrectCommission	0.890967	0.788416	0	1
41.708973	0.792161	city	7	1	0.760994	0.760994	0	1	0	0	CorrectCommission	0.864809	0.795400	0	1
42.501213	0.792319	city	2	1	0.794406	0.794406	0	1	0	0	CorrectCommission	1.112912	0.800502	0	1
43.293476	0.792207	city	6	1	0.843881	0.843881	0	1	0	0	CorrectCommission	1.480298	0.801454	0	1
44.085712	0.792264	city	10	1	0.695319	0.695319	0	1	0	0	CorrectCommission	0.377124	0.796827	0	1
44.877979	0.792267	city	5	1	0.611636	0.611636	0	1	0	0	CorrectCommission	0.244276	0.786098	0	1
45.670250	0.792278	city	10	1	0.695354	0.695354	0	1	0	0	CorrectCommission	0.377388	0.769646	0	1
46.462513	0.792248	city	3	1	0.794481	0.794481	0	1	0	0	CorrectCommission	1.113472	0.748711	0	1
47.254776	0.792271	city	8	1	0.843868	0.843868	0	1	0	0	CorrectCommission	1.480202	0.725296	0	1
48.047039	0.792260	city	2	1	0.906437	0.906437	0	1	0	0	CorrectCommission	1.944817	0.702050	0	1
48.839336	0.792331	city	10	1	0.706060	0.706060	0	1	0	0	CorrectCommission	0.456885	0.681977	1	1
49.631710	0.792414	city	5	1	0.664704	0.664704	0	1	0	0	CorrectCommission	0.149790	0.668214	1	1
50.423939	0.792047	city	1	1	0.646203	0.646203	0	1	0	0	CorrectCommission	0.012404	0.663525	1	1
51.216095	0.792269	city	4	1	0.646729	0.646729	0	1	0	0	CorrectCommission	0.016315	0.669907	1	1
52.008362	0.792263	city	3	1	0.645930	0.645930	0	1	0	0	CorrectCommission	0.010377	0.688240	0	1
52.800644	0.792300	city	4	1	0.656821	0.656821	0	1	0	0	CorrectCommission	0.091254	0.718072	0	1
53.592907	0.792226	city	1	1	0.695264	0.695264	0	1	0	0	CorrectCommission	0.376717	0.757625	0	1
54.385155	0.792267	city	10	1	0.760858	0.760858	0	1	0	0	CorrectCommission	0.863795	0.803936	0	1
55.177422	0.792264	city	5	1	0.795424	0.795424	0	1	0	0	CorrectCommission	1.120472	0.853287	0	1
55.969685	0.792262	city	7	1	0.843867	0.843867	0	1	0	0	CorrectCommission	1.480195	0.901721	0	1
56.761948	0.792265	city	8	1	0.843843	0.843843	0	1	0	0	CorrectCommission	1.480019	0.945562	0	1
57.554214	0.792275	city	9	1	0.851286	0.851286	0	1	0	0	CorrectCommission	1.535286	0.981902	0	1
58.346485	0.792260	city	4	1	0.801389	0.801389	0	1	0	0	CorrectCommission	1.164767	1.008931	0	1
59.138744	0.792263	city	7	1	0.843970	0.843970	0	1	0	0	CorrectCommission	1.480958	1.026095	0	1
59.931038	0.792319	mountain	5	0	0.000000	0.664411	1	0	0	0	CorrectOmission	0.147615	1.034030	0	1
60.723408	0.792425	city	3	1	0.456687	0.456687	0	1	0	0	CorrectCommission	1.394873	1.034395	0	1
61.515648	0.792051	city	6	1	0.414773	0.414773	0	1	0	0	CorrectCommission	1.706116	1.029470	0	1
62.307804	0.792263	city	4	1	0.497676	0.497676	0	1	0	0	CorrectCommission	1.090507	1.021787	0	1
63.100098	0.792326	city	10	1	0.513814	0.513814	0	1	0	0	CorrectCommission	0.970673	1.013686	0	1
63.892365	0.792204	city	6	1	0.600630	0.600630	0	1	0	0	CorrectCommission	0.326005	1.006903	0	1
64.684601	0.792265	city	10	1	0.598304	0.598304	0	1	0	0	CorrectCommission	0.343274	1.002334	0	1
65.476860	0.792266	city	6	1	0.794407	0.794407	0	1	0	0	CorrectCommission	1.112923	0.999880	0	1
66.269135	0.792279	city	2	1	0.695252	0.695252	0	1	0	0	CorrectCommission	0.376626	0.998548	0	1
67.061401	0.792245	city	5	1	0.745157	0.745157	0	1	0	0	CorrectCommission	0.747209	0.996700	0	1
67.853706	0.792374	city	3	1	0.798991	0.798991	0	1	0	0	CorrectCommission	1.146962	0.992383	0	0
68.645981	0.792179	city	1	1	1.041997	1.041997	0	1	0	0	CorrectCommission	2.951442	0.983770	0	0
69.438217	0.792293	city	5	1	0.744857	0.744857	0	1	0	0	CorrectCommission	0.744982	0.969522	0	0
70.230476	0.792217	city	1	1	0.802974	0.802974	0	1	0	0	CorrectCommission	1.176538	0.949172	0	0
71.022713	0.792261	city	2	1	0.802879	0.802879	0	1	0	0	CorrectCommission	1.175830	0.923118	0	0
71.814980	0.792267	city	1	1	0.762660	0.762660	0	1	0	0	CorrectCommission	0.877175	0.892618	0	0
72.607246	0.792262	city	7	1	0.744839	0.744839	0	1	0	0	CorrectCommission	0.744846	0.859541	0	0
73.399559	0.792373	city	1	1	0.745064	0.745064	0	1	0	0	CorrectCommission	0.746512	0.826100	0	0
74.191933	0.792372	city	3	1	0.702395	0.702395	0	1	0	0	CorrectCommission	0.429671	0.794481	0	0
74.984146	0.792049	city	9	1	0.665335	0.665335	0	1	0	0	CorrectCommission	0.154477	0.766590	0	0
75.776321	0.792310	city	6	1	0.695381	0.695381	0	1	0	0	CorrectCommission	0.377583	0.743862	0	0
76.568642	0.792327	city	1	1	0.748159	0.748159	0	1	0	0	CorrectCommission	0.769498	0.727209	0	0
77.360886	0.792156	city	6	1	0.795885	0.795885	0	1	0	0	CorrectCommission	1.123895	0.717108	0	0
78.153206	0.792482	city	2	1	0.745398	0.745398	0	1	0	0	CorrectCommission	0.748995	0.713731	0	0
78.945526	0.792158	city	5	1	0.707050	0.707050	0	1	0	0	CorrectCommission	0.464235	0.717171	0	0
79.737694	0.792177	city	1	1	0.753129	0.753129	0	1	0	0	CorrectCommission	0.806402	0.727599	0	0
80.529907	0.792252	city	4	1	0.754020	0.754020	0	1	0	0	CorrectCommission	0.813019	0.745322	0	0
81.322159	0.792259	city	2	1	0.763335	0.763335	0	1	0	0	CorrectCommission	0.882188	0.770795	0	0
82.114456	0.792337	city	8	1	0.707554	0.707554	0	1	0	0	CorrectCommission	0.467978	0.804518	0	0
82.906723	0.792190	city	4	1	0.713490	0.713490	0	1	0	0	CorrectCommission	0.512056	0.846827	0	0
83.699059	0.792481	city	8	1	0.716604	0.716604	0	1	0	0	CorrectCommission	0.535181	0.897686	0	0
84.491318	0.792049	city	7	1	0.745492	0.745492	0	1	0	0	CorrectCommission	0.749697	0.956502	0	0
85.283478	0.792265	city	2	1	0.744997	0.744997	0	1	0	0	CorrectCommission	0.746017	1.021939	0	0
86.075745	0.792262	city	7	1	0.794325	0.794325	0	1	0	0	CorrectCommission	1.112313	1.091930	0	0
86.868011	0.792272	city	9	1	0.855936	0.855936	0	1	0	0	CorrectCommission	1.569814	1.163810	0	0
87.660271	0.792261	mountain	7	0	0.000000	0.637618	1	0	0	0	CorrectOmission	0.051343	1.234520	0	0
88.452538	0.792265	city	8	1	0.398636	0.398636	0	1	0	0	CorrectCommission	1.825941	1.301024	0	0
89.244804	0.792263	city	10	1	0.398256	0.398256	0	1	0	0	CorrectCommission	1.828763	1.360676	0	0
90.037117	0.792373	city	8	1	0.350853	0.350853	0	1	0	0	CorrectCommission	2.180764	1.411690	0	0
90.829384	0.792155	city	2	1	0.398153	0.398153	0	1	0	0	CorrectCommission	1.829533	1.453424	0	0
91.621620	0.792320	mountain	2	1	0.349533	0.349533	0	0	1	0	CommissionError	2.190569	1.486559	0	0
92.413940	0.792320	city	1	1	0.447711	0.447711	0	1	0	0	CorrectCommission	1.461526	1.512962	0	0
93.206284	0.792373	city	7	1	0.497249	0.497249	0	1	0	0	CorrectCommission	1.093674	1.535425	0	0
93.998497	0.792049	mountain	6	0	0.000000	0.414055	1	0	0	0	CorrectOmission	1.711448	1.557120	0	0
94.790710	0.792373	city	9	1	0.350355	0.350355	0	1	0	0	CorrectCommission	2.184464	1.580925	0	0
95.583084	0.792372	mountain	3	1	0.458375	0.458375	0	0	1	0	CommissionError	1.382338	1.608786	0	0
96.375290	0.792046	city	9	1	0.596025	0.596025	0	1	0	0	CorrectCommission	0.360196	1.641146	0	0
97.167465	0.792305	city	8	1	0.546803	0.546803	0	1	0	0	CorrectCommission	0.725703	1.676585	0	0
97.959732	0.792225	city	9	1	0.555162	0.555162	0	1	0	0	CorrectCommission	0.663637	1.711751	0	0
98.752014	0.792334	city	8	1	0.505493	0.505493	0	1	0	0	CorrectCommission	1.032456	1.741749	0	0
99.544296	0.792239	city	5	1	1.060185	1.060185	0	1	0	0	CorrectCommission	3.086500	1.760810	0	0
100.336555	0.792282	city	7	1	0.942873	0.942873	0	1	0	0	CorrectCommission	2.215376	1.763166	0	0
101.128853	0.792312	mountain	7	1	1.195055	1.195055	0	0	1	0	CommissionError	4.088000	1.744084	0	0
101.921097	0.792164	mountain	8	0	0.000000	1.179012	1	0	0	0	CorrectOmission	3.968872	1.700569	0	0
102.713356	0.792367	city	2	1	0.945856	0.945856	0	1	0	0	CorrectCommission	2.237527	1.631988	0	0
103.505676	0.792263	mountain	8	1	0.546696	0.546696	0	0	1	0	CommissionError	0.726500	1.540187	0	0
104.297997	0.792374	city	4	1	0.843911	0.843911	0	1	0	0	CorrectCommission	1.480521	1.429177	0	0
105.090202	0.792051	city	1	1	0.744665	0.744665	0	1	0	0	CorrectCommission	0.743554	1.304566	0	0
105.882370	0.792284	city	3	1	0.744824	0.744824	0	1	0	0	CorrectCommission	0.744734	1.172846	0	0
106.674637	0.792244	city	7	1	0.843987	0.843987	0	1	0	0	CorrectCommission	1.481087	1.040571	0	0
107.466896	0.792271	city	3	1	0.696201	0.696201	0	1	0	0	CorrectCommission	0.383675	0.913675	0	0
108.259270	0.792474	city	8	1	0.596262	0.596262	0	1	0	0	CorrectCommission	0.358437	0.797033	0	0
109.051636	0.792264	city	10	1	0.596109	0.596109	0	1	0	0	CorrectCommission	0.359573	0.694076	0	0
109.843796	0.792052	mountain	2	0	0.000000	0.652527	1	0	0	0	CorrectOmission	0.059368	0.606760	1	0
110.635956	0.792268	city	1	1	0.695377	0.695377	0	1	0	0	CorrectCommission	0.377557	0.535672	1	0
111.428215	0.792257	city	6	1	0.654520	0.654520	0	1	0	0	CorrectCommission	0.074164	0.480211	1	0
112.220482	0.792268	city	10	1	0.546807	0.546807	0	1	0	0	CorrectCommission	0.725672	0.438914	1	0
113.012749	0.792265	city	5	1	0.596642	0.596642	0	1	0	0	CorrectCommission	0.355616	0.409749	1	0
113.805008	0.792262	city	4	1	0.645825	0.645825	0	1	0	0	CorrectCommission	0.009599	0.390462	1	0
114.597328	0.792371	city	6	1	0.599968	0.599968	0	1	0	0	CorrectCommission	0.330917	0.378762	1	0
115.389587	0.792156	city	4	1	0.549190	0.549190	0	1	0	0	CorrectCommission	0.707980	0.372502	1	0
116.181854	0.792375	city	8	1	0.597207	0.597207	0	1	0	0	CorrectCommission	0.351418	0.369816	1	0
116.974121	0.792159	city	2	1	0.645963	0.645963	0	1	0	0	CorrectCommission	0.010628	0.369119	1	0
117.766388	0.792368	city	3	1	0.695363	0.695363	0	1	0	0	CorrectCommission	0.377453	0.369204	1	0
118.558662	0.792193	city	6	1	0.745187	0.745187	0	1	0	0	CorrectCommission	0.747429	0.369180	1	0
119.350883	0.792246	city	4	1	0.695572	0.695572	0	1	0	0	CorrectCommission	0.379007	0.368493	1	0
120.143166	0.792317	city	3	1	0.660663	0.660663	0	1	0	0	CorrectCommission	0.119781	0.366939	1	0
120.935425	0.792197	city	4	1	0.748497	0.748497	0	1	0	0	CorrectCommission	0.772008	0.364620	1	0
121.727760	0.792480	mountain	8	0	0.000000	0.674533	1	0	0	0	CorrectOmission	0.222775	0.361848	1	0
122.520065	0.792123	city	5	1	0.617689	0.617689	0	1	0	0	CorrectCommission	0.199332	0.359151	1	0
123.312332	0.792408	city	7	1	0.756882	0.756882	0	1	0	0	CorrectCommission	0.834274	0.357159	1	0
124.104607	0.792154	city	4	1	0.645564	0.645564	0	1	0	0	CorrectCommission	0.007659	0.356477	1	0
124.896767	0.792155	city	2	1	0.645711	0.645711	0	1	0	0	CorrectCommission	0.008755	0.357662	1	0
125.689087	0.792483	city	1	1	0.713153	0.713153	0	1	0	0	CorrectCommission	0.509557	0.361062	1	0
126.481461	0.792265	city	4	1	0.706580	0.706580	0	1	0	0	CorrectCommission	0.460745	0.366765	1	0
127.273666	0.792157	city	3	1	0.611264	0.611264	0	1	0	0	CorrectCommission	0.247041	0.374583	1	1
128.065887	0.792265	mountain	7	0	0.000000	0.638382	1	0	0	0	CorrectOmission	0.045673	0.384025	1	1
128.858139	0.792264	city	9	1	0.696758	0.696758	0	1	0	0	CorrectCommission	0.387808	0.394373	1	1
129.650360	0.792171	city	5	1	0.695216	0.695216	0	1	0	0	CorrectCommission	0.376360	0.404784	1	1
130.442581	0.792253	city	2	1	0.596589	0.596589	0	1	0	0	CorrectCommission	0.356013	0.414446	1	1
131.234833	0.792262	city	4	1	0.843861	0.843861	0	1	0	0	CorrectCommission	1.480147	0.422722	1	1
132.027100	0.792272	city	9	1	0.645819	0.645819	0	1	0	0	CorrectCommission	0.009555	0.429255	1	1
132.819366	0.792257	city	6	1	0.649613	0.649613	0	1	0	0	CorrectCommission	0.037731	0.434136	1	1
133.611618	0.792265	city	5	1	0.546773	0.546773	0	1	0	0	CorrectCommission	0.725925	0.437859	1	1
134.403900	0.792285	city	7	1	0.551376	0.551376	0	1	0	0	CorrectCommission	0.691750	0.441298	1	1
135.196198	0.792306	city	4	1	0.546752	0.546752	0	1	0	0	CorrectCommission	0.726086	0.445607	1	1
135.988449	0.792202	city	9	1	0.596215	0.596215	0	1	0	0	CorrectCommission	0.358791	0.452020	1	1
136.780670	0.792253	city	4	1	0.608338	0.608338	0	1	0	0	CorrectCommission	0.268767	0.461658	1	1
137.572937	0.792277	city	6	1	0.645784	0.645784	0	1	0	0	CorrectCommission	0.009295	0.475288	1	1
138.365219	0.792269	city	8	1	0.695406	0.695406	0	1	0	0	CorrectCommission	0.377775	0.493135	1	1
139.157593	0.792478	city	7	1	0.646582	0.646582	0	1	0	0	CorrectCommission	0.015224	0.514796	1	1
139.949844	0.792047	city	4	1	0.655050	0.655050	0	1	0	0	CorrectCommission	0.078102	0.539239	1	1
140.742004	0.792264	city	9	1	0.597169	0.597169	0	1	0	0	CorrectCommission	0.351700	0.564893	1	1
141.534271	0.792268	mountain	9	0	0.000000	0.463861	1	0	0	0	CorrectOmission	1.341604	0.589855	1	1
142.326599	0.792372	city	6	1	0.399051	0.399051	0	1	0	0	CorrectCommission	1.822863	0.612108	1	1
143.118881	0.792207	city	10	1	0.546665	0.546665	0	1	0	0	CorrectCommission	0.726730	0.629771	1	1
143.911194	0.792431	city	5	1	0.652614	0.652614	0	1	0	0	CorrectCommission	0.060014	0.641316	1	1
144.703445	0.792048	city	1	1	0.562118	0.562118	0	1	0	0	CorrectCommission	0.611978	0.645675	1	1
145.495590	0.792265	city	2	1	0.547366	0.547366	0	1	0	0	CorrectCommission	0.721526	0.642300	1	1
146.287857	0.792264	mountain	1	1	0.546779	0.546779	0	0	1	0	CommissionError	0.725879	0.631211	1	1
147.080124	0.792264	city	10	1	0.548747	0.548747	0	1	0	0	CorrectCommission	0.711272	0.612992	1	1
147.872498	0.792482	city	1	1	0.499769	0.499769	0	1	0	0	CorrectCommission	1.074965	0.588759	1	1
148.664764	0.792051	city	7	1	0.546921	0.546921	0	1	0	0	CorrectCommission	0.724827	0.560040	1	1
149.457031	0.792479	city	3	1	0.546824	0.546824	0	1	0	0	CorrectCommission	0.725551	0.528752	1	1
150.249298	0.792047	city	2	1	0.603281	0.603281	0	1	0	0	CorrectCommission	0.306321	0.497002	1	1
151.041458	0.792287	city	8	1	0.596266	0.596266	0	1	0	0	CorrectCommission	0.358405	0.466917	1	1
151.833725	0.792249	city	9	1	0.697181	0.697181	0	1	0	0	CorrectCommission	0.390953	0.440438	1	1
152.626083	0.792476	city	5	1	0.645799	0.645799	0	1	0	0	CorrectCommission	0.009404	0.419135	1	1
153.418365	0.792082	city	9	1	0.645623	0.645623	0	1	0	0	CorrectCommission	0.008102	0.404053	1	1
154.210571	0.792340	city	8	1	0.601143	0.601143	0	1	0	0	CorrectCommission	0.322195	0.395596	1	1
155.002869	0.792227	city	3	1	0.649298	0.649298	0	1	0	0	CorrectCommission	0.035388	0.393516	1	1
155.795074	0.792199	city	8	1	0.596502	0.596502	0	1	0	0	CorrectCommission	0.356656	0.396967	1	1
156.587357	0.792366	city	4	1	0.596274	0.596274	0	1	0	0	CorrectCommission	0.358346	0.404643	1	1
157.379623	0.792157	city	5	1	0.547405	0.547405	0	1	0	0	CorrectCommission	0.721234	0.414955	1	1
158.171890	0.792374	city	3	1	0.550191	0.550191	0	1	0	0	CorrectCommission	0.700549	0.426210	1	1
158.964203	0.792264	city	10	1	0.551356	0.551356	0	1	0	0	CorrectCommission	0.691897	0.436793	1	1
159.756470	0.792264	city	3	1	0.596162	0.596162	0	1	0	0	CorrectCommission	0.359178	0.445311	1	1
160.548676	0.792161	city	1	1	0.604916	0.604916	0	1	0	0	CorrectCommission	0.294179	0.450720	1	1
161.340897	0.792280	city	7	1	0.645887	0.645887	0	1	0	0	CorrectCommission	0.010063	0.452378	1	1
162.133270	0.792465	mountain	10	0	0.000000	0.569716	1	0	0	0	CorrectOmission	0.555561	0.450079	1	1
162.925583	0.792155	city	10	1	0.497220	0.497220	0	1	0	0	CorrectCommission	1.093894	0.444056	1	1
163.717758	0.792193	city	5	1	0.549217	0.549217	0	1	0	0	CorrectCommission	0.707776	0.434974	1	1
164.510071	0.792444	city	2	1	0.546708	0.546708	0	1	0	0	CorrectCommission	0.726409	0.423923	1	1
165.302429	0.792265	city	5	1	0.596109	0.596109	0	1	0	0	CorrectCommission	0.359572	0.412260	1	1
166.094635	0.792156	city	7	1	0.646183	0.646183	0	1	0	0	CorrectCommission	0.012261	0.401521	1	1
166.886795	0.792156	city	5	1	0.645688	0.645688	0	1	0	0	CorrectCommission	0.008581	0.393244	1	1
167.679062	0.792373	city	9	1	0.661560	0.661560	0	1	0	0	CorrectCommission	0.126441	0.388780	1	1
168.471329	0.792156	city	7	1	0.695210	0.695210	0	1	0	0	CorrectCommission	0.376319	0.389134	1	1
169.263535	0.792267	city	5	1	0.695472	0.695472	0	1	0	0	CorrectCommission	0.378262	0.394824	1	1
170.055801	0.792263	city	7	1	0.747217	0.747217	0	1	0	0	CorrectCommission	0.762501	0.405796	1	1
170.848099	0.792341	city	2	1	0.645811	0.645811	0	1	0	0	CorrectCommission	0.009494	0.421369	1	1
171.640366	0.792193	city	10	1	0.596467	0.596467	0	1	0	0	CorrectCommission	0.356916	0.440289	1	1
172.432648	0.792367	city	5	1	0.695294	0.695294	0	1	0	0	CorrectCommission	0.376938	0.460751	1	1
173.224960	0.792265	city	8	1	0.660947	0.660947	0	1	0	0	CorrectCommission	0.121888	0.480594	1	1
174.017181	0.792158	city	2	1	0.603293	0.603293	0	1	0	0	CorrectCommission	0.306232	0.497509	1	1
174.809387	0.792264	mountain	7	0	0.000000	0.540726	1	0	0	0	CorrectOmission	0.770831	0.509337	1	1
175.601761	0.792483	city	9	1	0.497330	0.497330	0	1	0	0	CorrectCommission	1.093078	0.514339	1	1
176.394028	0.792048	city	3	1	0.497187	0.497187	0	1	0	0	CorrectCommission	1.094139	0.511512	1	1
177.186295	0.792481	city	5	1	0.497346	0.497346	0	1	0	0	CorrectCommission	1.092954	0.500786	1	1
177.978561	0.792051	city	3	1	0.547031	0.547031	0	1	0	0	CorrectCommission	0.724009	0.483120	1	1
178.770706	0.792261	city	5	1	0.646339	0.646339	0	1	0	0	CorrectCommission	0.013417	0.460478	1	1
179.562973	0.792265	city	3	1	0.754363	0.754363	0	1	0	0	CorrectCommission	0.815567	0.435600	1	1
180.355240	0.792264	city	2	1	0.647824	0.647824	0	1	0	0	CorrectCommission	0.024445	0.411702	1	1
181.147522	0.792303	city	10	1	0.645800	0.645800	0	1	0	0	CorrectCommission	0.009417	0.392160	1	1
181.939789	0.792223	city	5	1	0.695307	0.695307	0	1	0	0	CorrectCommission	0.377035	0.380053	1	1
182.732147	0.792486	city	9	1	0.648754	0.648754	0	1	0	0	CorrectCommission	0.031349	0.377841	1	1
183.524414	0.792048	city	3	1	0.645619	0.645619	0	1	0	0	CorrectCommission	0.008068	0.387092	1	1
184.316559	0.792265	city	2	1	0.654185	0.654185	0	1	0	0	CorrectCommission	0.071675	0.408283	1	1
185.108932	0.792482	city	3	1	0.648097	0.648097	0	1	0	0	CorrectCommission	0.026474	0.440764	1	1
185.901230	0.792086	city	9	1	0.645594	0.645594	0	1	0	0	CorrectCommission	0.007884	0.482837	1	1
186.693481	0.792443	city	2	1	0.794330	0.794330	0	1	0	0	CorrectCommission	1.112351	0.531946	1	0
187.485733	0.792046	city	3	1	0.598982	0.598982	0	1	0	0	CorrectCommission	0.338242	0.584923	1	0
188.277893	0.792268	city	4	1	0.546785	0.546785	0	1	0	0	CorrectCommission	0.725838	0.638402	1	0
189.070206	0.792373	city	7	1	0.596356	0.596356	0	1	0	0	CorrectCommission	0.357739	0.689082	0	0
189.862473	0.792158	city	6	1	0.398245	0.398245	0	1	0	0	CorrectCommission	1.828850	0.734094	0	0
190.654800	0.792478	city	9	1	0.500493	0.500493	0	1	0	0	CorrectCommission	1.069590	0.771206	0	0
191.447083	0.792104	city	5	1	0.497042	0.497042	0	1	0	0	CorrectCommission	1.095214	0.799048	0	0
192.239243	0.792217	city	7	1	0.547250	0.547250	0	1	0	0	CorrectCommission	0.722386	0.817119	0	0
193.031479	0.792256	city	2	1	0.546766	0.546766	0	1	0	0	CorrectCommission	0.725980	0.825789	0	0
193.823746	0.792263	city	7	1	0.447993	0.447993	0	1	0	0	CorrectCommission	1.459434	0.826182	0	0
194.616013	0.792265	city	6	1	0.596325	0.596325	0	1	0	0	CorrectCommission	0.357971	0.820010	0	0
195.408279	0.792268	city	4	1	0.497354	0.497354	0	1	0	0	CorrectCommission	1.092900	0.809403	0	0
196.200546	0.792265	city	2	1	0.497378	0.497378	0	1	0	0	CorrectCommission	1.092719	0.796659	0	0
196.992828	0.792315	city	5	1	0.596292	0.596292	0	1	0	0	CorrectCommission	0.358219	0.784049	0	0
197.785141	0.792318	city	9	1	0.547778	0.547778	0	1	0	0	CorrectCommission	0.718464	0.773642	0	0
198.577377	0.792160	city	6	1	0.546695	0.546695	0	1	0	0	CorrectCommission	0.726510	0.767093	0	0
199.369598	0.792264	city	5	1	0.596341	0.596341	0	1	0	0	CorrectCommission	0.357855	0.765536	0	0
200.161865	0.792284	city	2	1	0.559970	0.559970	0	1	0	0	CorrectCommission	0.627933	0.769514	0	0
200.954193	0.792351	city	6	1	0.547004	0.547004	0	1	0	0	CorrectCommission	0.724214	0.778959	0	0
201.746445	0.792156	city	3	1	0.547222	0.547222	0	1	0	0	CorrectCommission	0.722594	0.793264	0	0
202.538712	0.792374	city	5	1	0.546812	0.546812	0	1	0	0	CorrectCommission	0.725638	0.811374	0	0
203.330978	0.792156	city	10	1	0.547446	0.547446	0	1	0	0	CorrectCommission	0.720928	0.832002	0	0
204.123184	0.792266	city	9	1	0.546941	0.546941	0	1	0	0	CorrectCommission	0.724678	0.853803	0	0
204.915451	0.792264	city	8	1	0.498010	0.498010	0	1	0	0	CorrectCommission	1.088027	0.875699	0	0
205.707825	0.792481	city	6	1	0.453972	0.453972	0	1	0	0	CorrectCommission	1.415039	0.897067	0	0
206.500198	0.792265	city	4	1	0.497424	0.497424	0	1	0	0	CorrectCommission	1.092375	0.917943	0	0
207.292480	0.792320	city	5	1	0.546508	0.546508	0	1	0	0	CorrectCommission	0.727896	0.939068	0	0
208.084641	0.792001	city	9	1	0.516784	0.516784	0	1	0	0	CorrectCommission	0.948616	0.961859	0	0
208.876770	0.792255	city	8	1	0.512037	0.512037	0	1	0	0	CorrectCommission	0.983864	0.988172	0	0
209.669037	0.792270	city	2	1	0.465740	0.465740	0	1	0	0	CorrectCommission	1.327651	1.019981	0	0
210.461304	0.792261	city	6	1	0.547293	0.547293	0	1	0	0	CorrectCommission	0.722069	1.058927	0	0
211.253586	0.792300	city	1	1	0.549688	0.549688	0	1	0	0	CorrectCommission	0.704280	1.105858	0	0
212.045853	0.792244	mountain	3	1	0.467765	0.467765	0	0	1	0	CommissionError	1.312613	1.160410	0	0
212.838104	0.792252	city	10	1	0.546777	0.546777	0	1	0	0	CorrectCommission	0.725898	1.220687	0	0
213.630356	0.792263	city	5	1	0.596724	0.596724	0	1	0	0	CorrectCommission	0.355006	1.283271	0	0
214.422623	0.792266	city	6	1	0.695323	0.695323	0	1	0	0	CorrectCommission	0.377155	1.343437	0	0
215.214905	0.792282	mountain	10	1	0.698601	0.698601	0	0	1	0	CommissionError	0.401493	1.395731	0	0
216.007156	0.792245	city	4	1	0.942854	0.942854	0	1	0	0	CorrectCommission	2.215241	1.434742	0	0
216.799423	0.792268	city	2	1	1.190505	1.190505	0	1	0	0	CorrectCommission	4.054214	1.455984	0	0
217.591736	0.792370	city	7	1	1.100882	1.100882	0	1	0	0	CorrectCommission	3.388699	1.456745	0	0
218.384003	0.792156	city	1	1	1.091261	1.091261	0	1	0	0	CorrectCommission	3.317263	1.436669	0	0
219.176270	0.792373	city	7	0	0.000000	0.785207	0	0	0	1	OmissionError	1.044607	1.397873	0	0
219.968552	0.792201	city	10	1	0.498460	0.498460	0	1	0	0	CorrectCommission	1.084682	1.344712	0	0
220.760773	0.792242	city	5	1	0.546760	0.546760	0	1	0	0	CorrectCommission	0.726023	1.283012	0	0
221.553024	0.792247	city	9	1	0.596282	0.596282	0	1	0	0	CorrectCommission	0.358286	1.219207	0	0
222.345276	0.792261	city	5	1	0.596512	0.596512	0	1	0	0	CorrectCommission	0.356583	1.159365	0	0
223.137543	0.792286	city	8	1	0.596843	0.596843	0	1	0	0	CorrectCommission	0.354124	1.108321	0	0
223.929840	0.792289	city	2	1	0.547401	0.547401	0	1	0	0	CorrectCommission	0.721265	1.069180	0	0
224.722198	0.792435	city	9	1	0.546705	0.546705	0	1	0	0	CorrectCommission	0.726431	1.043060	0	0
225.514435	0.792049	city	2	1	0.518935	0.518935	0	1	0	0	CorrectCommission	0.932643	1.029248	0	0
226.306595	0.792267	city	5	1	0.497439	0.497439	0	1	0	0	CorrectCommission	1.092267	1.025580	0	0
227.098969	0.792480	city	10	1	0.447721	0.447721	0	1	0	0	CorrectCommission	1.461453	1.028987	0	0
227.891281	0.792155	city	5	1	0.457052	0.457052	0	1	0	0	CorrectCommission	1.392164	1.036071	0	0
228.683441	0.792158	mountain	1	1	0.464257	0.464257	0	0	1	0	CommissionError	1.338664	1.043608	0	0
229.475662	0.792272	city	8	1	0.560469	0.560469	0	1	0	0	CorrectCommission	0.624222	1.048882	0	0
230.267929	0.792284	mountain	3	1	0.413598	0.413598	0	0	1	0	CommissionError	1.714838	1.049881	0	0
231.060211	0.792274	city	3	1	0.497423	0.497423	0	1	0	0	CorrectCommission	1.092386	1.045255	0	0
231.852585	0.792452	city	2	1	0.546767	0.546767	0	1	0	0	CorrectCommission	0.725971	1.034269	0	0
232.644882	0.792148	city	8	1	0.498249	0.498249	0	1	0	0	CorrectCommission	1.086253	1.016613	0	0
233.437027	0.792159	city	2	1	0.546708	0.546708	0	1	0	0	CorrectCommission	0.726407	0.992207	0	0
234.229294	0.792370	mountain	1	0	0.000000	0.496469	1	0	0	0	CorrectOmission	1.099469	0.961121	0	0
235.021667	0.792373	city	5	1	0.447980	0.447980	0	1	0	0	CorrectCommission	1.459530	0.923552	0	0
235.813980	0.792266	city	9	1	0.501693	0.501693	0	1	0	0	CorrectCommission	1.060679	0.879839	0	0
236.606155	0.792063	city	5	1	0.558570	0.558570	0	1	0	0	CorrectCommission	0.638330	0.830612	0	0
237.398315	0.792250	city	10	1	0.508438	0.508438	0	1	0	0	CorrectCommission	1.010587	0.776832	0	0
238.190598	0.792334	city	3	1	0.695338	0.695338	0	1	0	0	CorrectCommission	0.377264	0.719830	0	0
238.982864	0.792194	city	8	1	0.852931	0.852931	0	1	0	0	CorrectCommission	1.547499	0.661365	1	0
239.775085	0.792264	city	1	1	0.744952	0.744952	0	1	0	0	CorrectCommission	0.745683	0.603498	1	0
240.567352	0.792265	city	6	1	0.695336	0.695336	0	1	0	0	CorrectCommission	0.377250	0.548497	1	0
241.359619	0.792266	city	7	1	0.646759	0.646759	0	1	0	0	CorrectCommission	0.016533	0.498590	1	0
242.151993	0.792483	city	1	1	0.646482	0.646482	0	1	0	0	CorrectCommission	0.014480	0.455753	1	0
242.944260	0.792052	city	2	1	0.645654	0.645654	0	1	0	0	CorrectCommission	0.008331	0.421488	1	0
243.736420	0.792258	city	6	1	0.646301	0.646301	0	1	0	0	CorrectCommission	0.013137	0.396695	1	0
244.528687	0.792268	city	5	1	0.596382	0.596382	0	1	0	0	CorrectCommission	0.357545	0.381606	1	0
245.320953	0.792263	city	2	1	0.603559	0.603559	0	1	0	0	CorrectCommission	0.304252	0.375827	1	0
246.113220	0.792266	city	5	1	0.695425	0.695425	0	1	0	0	CorrectCommission	0.377913	0.378480	1	1
246.905472	0.792264	city	3	1	0.695289	0.695289	0	1	0	0	CorrectCommission	0.376907	0.388351	1	1
247.697769	0.792331	city	7	1	0.747244	0.747244	0	1	0	0	CorrectCommission	0.762707	0.404046	1	1
248.490036	0.792200	city	4	1	0.695225	0.695225	0	1	0	0	CorrectCommission	0.376425	0.424149	1	1
249.282272	0.792264	city	7	1	0.658293	0.658293	0	1	0	0	CorrectCommission	0.102185	0.447329	1	1
250.074539	0.792262	city	4	1	0.695479	0.695479	0	1	0	0	CorrectCommission	0.378317	0.472368	1	1
250.866806	0.792270	city	10	1	0.650228	0.650228	0	1	0	0	CorrectCommission	0.042297	0.498177	1	1
251.659073	0.792261	mountain	8	0	0.000000	0.764461	1	0	0	0	CorrectOmission	0.890553	0.523774	1	1
252.451355	0.792330	city	7	1	0.844144	0.844144	0	1	0	0	CorrectCommission	1.482253	0.548213	1	1
253.243622	0.792199	city	1	1	0.695243	0.695243	0	1	0	0	CorrectCommission	0.376563	0.570585	1	1
254.035889	0.792332	city	4	1	0.649763	0.649763	0	1	0	0	CorrectCommission	0.038843	0.590020	1	1
254.828217	0.792307	city	2	1	0.554104	0.554104	0	1	0	0	CorrectCommission	0.671486	0.605635	1	1
255.620438	0.792157	city	6	1	0.596165	0.596165	0	1	0	0	CorrectCommission	0.359159	0.616593	1	1
256.412659	0.792293	city	1	1	0.551038	0.551038	0	1	0	0	CorrectCommission	0.694253	0.622187	1	1
257.205048	0.792452	city	3	1	0.497242	0.497242	0	1	0	0	CorrectCommission	1.093728	0.621949	1	1
257.997406	0.792266	city	2	1	0.505864	0.505864	0	1	0	0	CorrectCommission	1.029703	0.615746	1	1
258.789551	0.792047	city	9	1	0.500492	0.500492	0	1	0	0	CorrectCommission	1.069594	0.603866	1	1
259.581726	0.792268	city	8	1	0.559169	0.559169	0	1	0	0	CorrectCommission	0.633877	0.587032	1	1
260.374084	0.792480	city	3	1	0.605684	0.605684	0	1	0	0	CorrectCommission	0.288473	0.566368	1	1
261.166351	0.792048	city	8	1	0.547137	0.547137	0	1	0	0	CorrectCommission	0.723228	0.543268	1	1
261.958618	0.792481	mountain	2	0	0.000000	0.611375	1	0	0	0	CorrectOmission	0.246216	0.519225	1	1
262.750977	0.792265	city	6	1	0.695128	0.695128	0	1	0	0	CorrectCommission	0.375706	0.495674	1	1
263.543152	0.792063	city	4	1	0.695124	0.695124	0	1	0	0	CorrectCommission	0.375680	0.473812	1	1
264.335297	0.792248	mountain	1	0	0.000000	0.654703	1	0	0	0	CorrectOmission	0.075525	0.454493	1	1
265.127686	0.792482	city	7	1	0.597364	0.597364	0	1	0	0	CorrectCommission	0.350254	0.438160	1	1
265.919952	0.792079	city	10	1	0.546608	0.546608	0	1	0	0	CorrectCommission	0.727155	0.424862	1	1
266.712128	0.792242	mountain	7	0	0.000000	0.571618	1	0	0	0	CorrectOmission	0.541440	0.414312	1	1
267.504364	0.792287	city	4	1	0.609204	0.609204	0	1	0	0	CorrectCommission	0.262334	0.405987	1	1
268.296783	0.792506	city	1	1	0.596178	0.596178	0	1	0	0	CorrectCommission	0.359060	0.399224	1	1
269.089081	0.792101	city	7	1	0.596030	0.596030	0	1	0	0	CorrectCommission	0.360161	0.393346	1	1
269.881226	0.792168	city	10	1	0.596318	0.596318	0	1	0	0	CorrectCommission	0.358020	0.387754	1	1
270.673431	0.792255	mountain	3	0	0.000000	0.603582	1	0	0	0	CorrectOmission	0.304086	0.382059	1	1
271.465698	0.792263	city	8	1	0.596510	0.596510	0	1	0	0	CorrectCommission	0.356599	0.376126	1	1
272.257935	0.792263	city	9	1	0.553793	0.553793	0	1	0	0	CorrectCommission	0.673799	0.370108	1	1
273.050232	0.792316	city	3	1	0.744835	0.744835	0	1	0	0	CorrectCommission	0.744814	0.364456	1	1
273.842499	0.792218	city	9	1	0.645713	0.645713	0	1	0	0	CorrectCommission	0.008765	0.359880	1	1
274.634857	0.792480	mountain	9	0	0.000000	0.594665	1	0	0	0	CorrectOmission	0.370297	0.357239	1	1
275.427124	0.792049	city	3	1	0.596043	0.596043	0	1	0	0	CorrectCommission	0.360064	0.357385	1	1
276.219269	0.792263	mountain	2	0	0.000000	0.654198	1	0	0	0	CorrectOmission	0.071774	0.361018	1	1
277.011597	0.792374	city	2	1	0.695343	0.695343	0	1	0	0	CorrectCommission	0.377305	0.368547	1	1
277.803864	0.792158	city	10	1	0.645693	0.645693	0	1	0	0	CorrectCommission	0.008619	0.379937	1	1
278.596069	0.792262	city	9	1	0.695316	0.695316	0	1	0	0	CorrectCommission	0.377105	0.394653	1	1
279.388336	0.792263	city	8	1	0.695243	0.695243	0	1	0	0	CorrectCommission	0.376563	0.411670	1	1
280.180695	0.792483	city	3	1	0.648367	0.648367	0	1	0	0	CorrectCommission	0.028477	0.429579	1	1
280.972961	0.792050	city	1	1	0.710856	0.710856	0	1	0	0	CorrectCommission	0.492497	0.446753	1	1
281.765228	0.792480	city	2	1	0.751893	0.751893	0	1	0	0	CorrectCommission	0.797227	0.461549	1	1
282.557617	0.792265	city	4	1	0.794139	0.794139	0	1	0	0	CorrectCommission	1.110933	0.472544	1	1
283.349823	0.792155	city	8	1	0.654858	0.654858	0	1	0	0	CorrectCommission	0.076673	0.478730	1	1
284.141968	0.792159	city	4	1	0.794271	0.794271	0	1	0	0	CorrectCommission	1.111909	0.479697	1	1
284.934296	0.792480	city	8	1	0.749493	0.749493	0	1	0	0	CorrectCommission	0.779405	0.475626	1	1
285.726562	0.792054	city	4	1	0.744623	0.744623	0	1	0	0	CorrectCommission	0.743244	0.467284	1	1
286.518738	0.792300	city	6	1	0.662039	0.662039	0	1	0	0	CorrectCommission	0.129999	0.455917	1	1
287.311005	0.792224	city	5	1	0.645759	0.645759	0	1	0	0	CorrectCommission	0.009110	0.443061	1	1
288.103241	0.792263	city	3	1	0.645937	0.645937	0	1	0	0	CorrectCommission	0.010432	0.430360	1	1
288.895508	0.792266	city	6	1	0.744813	0.744813	0	1	0	0	CorrectCommission	0.744652	0.419423	1	1
289.687836	0.792371	city	3	1	0.695753	0.695753	0	1	0	0	CorrectCommission	0.380352	0.411672	1	1
290.480103	0.792200	city	6	1	0.699554	0.699554	0	1	0	0	CorrectCommission	0.408572	0.408315	1	1
291.272339	0.792249	city	2	1	0.645795	0.645795	0	1	0	0	CorrectCommission	0.009380	0.410270	1	1
292.064575	0.792236	city	7	1	0.756527	0.756527	0	1	0	0	CorrectCommission	0.831636	0.418123	1	1
292.856964	0.792566	mountain	8	0	0.000000	0.718759	1	0	0	0	CorrectOmission	0.551180	0.432068	1	1
293.649353	0.792182	city	10	1	0.645521	0.645521	0	1	0	0	CorrectCommission	0.007344	0.451913	1	1
294.441467	0.792045	city	5	1	0.649846	0.649846	0	1	0	0	CorrectCommission	0.039457	0.477004	1	1
295.233673	0.792376	city	4	1	0.706800	0.706800	0	1	0	0	CorrectCommission	0.462380	0.506221	1	1
296.025970	0.792209	city	8	1	0.697267	0.697267	0	1	0	0	CorrectCommission	0.391595	0.537993	1	1
296.818176	0.792213	city	10	1	0.744872	0.744872	0	1	0	0	CorrectCommission	0.745087	0.570452	1	1
297.610413	0.792263	city	9	1	0.706936	0.706936	0	1	0	0	CorrectCommission	0.463388	0.601603	1	1
298.402740	0.792373	city	1	1	0.695332	0.695332	0	1	0	0	CorrectCommission	0.377224	0.629568	1	1
299.195068	0.792266	city	5	1	0.767655	0.767655	0	1	0	0	CorrectCommission	0.914266	0.652924	1	1
299.987274	0.792159	city	1	1	0.843816	0.843816	0	1	0	0	CorrectCommission	1.479817	0.671012	1	1
300.779572	0.792478	city	3	1	0.745135	0.745135	0	1	0	0	CorrectCommission	0.747041	0.684110	0	1
301.571838	0.792049	city	2	1	0.893151	0.893151	0	1	0	0	CorrectCommission	1.846162	0.693541	0	1
302.364014	0.792279	city	10	1	0.745270	0.745270	0	1	0	0	CorrectCommission	0.748048	0.701551	0	1
303.156403	0.792467	city	2	1	0.645776	0.645776	0	1	0	0	CorrectCommission	0.009237	0.711073	0	1
303.948761	0.792265	city	6	1	0.695075	0.695075	0	1	0	0	CorrectCommission	0.375313	0.725266	0	1
304.740906	0.792045	mountain	1	0	0.000000	0.632326	1	0	0	0	CorrectOmission	0.090638	0.746993	0	1
305.533112	0.792373	city	2	1	0.551590	0.551590	0	1	0	0	CorrectCommission	0.690156	0.778332	0	0
306.325409	0.792211	city	3	1	0.546928	0.546928	0	1	0	0	CorrectCommission	0.724780	0.820086	0	0
307.117615	0.792209	city	10	1	0.608238	0.608238	0	1	0	0	CorrectCommission	0.269507	0.871564	0	0
307.909973	0.792484	city	6	1	0.709228	0.709228	0	1	0	0	CorrectCommission	0.480411	0.930529	0	0
308.702332	0.792265	city	4	1	0.558256	0.558256	0	1	0	0	CorrectCommission	0.640659	0.993366	0	0
309.494598	0.792265	city	10	1	0.546923	0.546923	0	1	0	0	CorrectCommission	0.724811	1.055495	0	0
310.286774	0.792046	city	3	1	0.447535	0.447535	0	1	0	0	CorrectCommission	1.462837	1.111947	0	0
311.078979	0.792374	city	4	1	0.398425	0.398425	0	1	0	0	CorrectCommission	1.827512	1.157999	0	0
311.871277	0.792264	city	1	1	1.004553	1.004553	0	1	0	0	CorrectCommission	2.673397	1.189805	0	0
312.663513	0.792205	city	6	1	1.010167	1.010167	0	1	0	0	CorrectCommission	2.715086	1.204843	0	0
313.455780	0.792324	city	4	0	0.000000	0.688515	0	0	0	1	OmissionError	0.326602	1.202221	0	0
314.248077	0.792231	city	2	1	0.546632	0.546632	0	1	0	0	CorrectCommission	0.726974	1.182741	0	0
315.040283	0.792226	city	9	1	1.091555	1.091555	0	1	0	0	CorrectCommission	3.319441	1.148603	0	0
315.832520	0.792217	mountain	1	1	0.744862	0.744862	0	0	1	0	CommissionError	0.745013	1.103065	0	0
316.624878	0.792494	city	6	1	0.645823	0.645823	0	1	0	0	CorrectCommission	0.009586	1.050110	0	0
317.417175	0.792109	city	10	1	0.547489	0.547489	0	1	0	0	CorrectCommission	0.720610	0.993860	0	0
318.209320	0.792202	city	6	1	0.596766	0.596766	0	1	0	0	CorrectCommission	0.354695	0.938251	0	0
319.001556	0.792268	city	9	1	0.596322	0.596322	0	1	0	0	CorrectCommission	0.357994	0.886827	0	0
319.793884	0.792371	mountain	1	0	0.000000	0.488129	1	0	0	0	CorrectOmission	1.161401	0.842631	0	0
320.586151	0.792159	city	2	1	0.409506	0.409506	0	1	0	0	CorrectCommission	1.745223	0.808171	0	0
321.378357	0.792264	city	5	1	0.497775	0.497775	0	1	0	0	CorrectCommission	1.089769	0.785423	0	0
322.170685	0.792372	city	6	1	0.608099	0.608099	0	1	0	0	CorrectCommission	0.270544	0.775834	0	0
322.962982	0.792230	city	4	1	0.600955	0.600955	0	1	0	0	CorrectCommission	0.323586	0.780184	0	0
323.755310	0.792406	city	7	1	0.645761	0.645761	0	1	0	0	CorrectCommission	0.009123	0.798433	0	0
324.547577	0.792156	city	2	1	0.607259	0.607259	0	1	0	0	CorrectCommission	0.276775	0.829563	0	0
325.339752	0.792162	city	9	0	0.000000	0.685428	0	0	0	1	OmissionError	0.303679	0.871443	0	0
326.131958	0.792260	city	7	1	0.695343	0.695343	0	1	0	0	CorrectCommission	0.377301	0.920832	0	0
326.924316	0.792482	city	5	1	0.452079	0.452079	0	1	0	0	CorrectCommission	1.429092	0.973540	0	0
327.716614	0.792084	city	9	1	0.447613	0.447613	0	1	0	0	CorrectCommission	1.462257	1.024704	0	0
328.508881	0.792445	city	8	1	0.448675	0.448675	0	1	0	0	CorrectCommission	1.454370	1.069277	0	0
329.301208	0.792265	city	7	1	0.464062	0.464062	0	1	0	0	CorrectCommission	1.340112	1.102512	0	0
330.093475	0.792264	city	8	1	0.497011	0.497011	0	1	0	0	CorrectCommission	1.095446	1.120462	0	0
330.885651	0.792081	city	1	1	0.397969	0.397969	0	1	0	0	CorrectCommission	1.830896	1.120466	0	0
331.677856	0.792340	city	4	1	0.351354	0.351354	0	1	0	0	CorrectCommission	2.177045	1.101377	0	0
332.470123	0.792156	city	2	1	0.398104	0.398104	0	1	0	0	CorrectCommission	1.829892	1.063660	0	0
333.262329	0.792278	city	9	1	0.497558	0.497558	0	1	0	0	CorrectCommission	1.091382	1.009394	0	0
334.054596	0.792255	city	1	1	0.497283	0.497283	0	1	0	0	CorrectCommission	1.093426	0.941964	0	0
334.846985	0.792477	city	5	1	0.546791	0.546791	0	1	0	0	CorrectCommission	0.725795	0.865616	0	0
335.639221	0.792046	city	2	1	0.596036	0.596036	0	1	0	0	CorrectCommission	0.360118	0.785025	0	0
336.431396	0.792311	city	7	1	0.605733	0.605733	0	1	0	0	CorrectCommission	0.288113	0.704782	0	0
337.223724	0.792326	city	10	1	0.695420	0.695420	0	1	0	0	CorrectCommission	0.377874	0.628978	1	0
338.015961	0.792162	city	1	1	0.659772	0.659772	0	1	0	0	CorrectCommission	0.113163	0.560885	1	0
338.808289	0.792478	city	8	1	0.756411	0.756411	0	1	0	0	CorrectCommission	0.830778	0.502801	1	0
339.600677	0.792264	city	4	1	0.656898	0.656898	0	1	0	0	CorrectCommission	0.091821	0.455977	1	0
340.392822	0.792051	city	5	1	0.596034	0.596034	0	1	0	0	CorrectCommission	0.360130	0.420683	1	0
341.184967	0.792262	city	4	1	0.645817	0.645817	0	1	0	0	CorrectCommission	0.009541	0.396305	1	0
341.977295	0.792373	city	3	1	0.615151	0.615151	0	1	0	0	CorrectCommission	0.218173	0.381527	1	0
342.769562	0.792157	city	8	1	0.611212	0.611212	0	1	0	0	CorrectCommission	0.247428	0.374505	1	0
343.561829	0.792372	city	7	1	0.598936	0.598936	0	1	0	0	CorrectCommission	0.338582	0.373101	1	0
344.354095	0.792156	city	10	1	0.596187	0.596187	0	1	0	0	CorrectCommission	0.358997	0.375082	1	0
345.146362	0.792376	city	6	1	0.596467	0.596467	0	1	0	0	CorrectCommission	0.356918	0.378321	1	0
345.938629	0.792155	city	8	1	0.553634	0.553634	0	1	0	0	CorrectCommission	0.674983	0.381028	1	0
346.730835	0.792263	city	10	1	0.553840	0.553840	0	1	0	0	CorrectCommission	0.673449	0.381896	1	0
347.523193	0.792482	city	5	1	0.698250	0.698250	0	1	0	0	CorrectCommission	0.398893	0.380246	1	0
348.315460	0.792050	city	1	1	0.704491	0.704491	0	1	0	0	CorrectCommission	0.445233	0.376098	1	0
349.107727	0.792481	city	10	1	0.697314	0.697314	0	1	0	0	CorrectCommission	0.391939	0.370178	1	0
349.899994	0.792053	city	7	1	0.695240	0.695240	0	1	0	0	CorrectCommission	0.376539	0.363867	1	0
350.692169	0.792303	city	3	1	0.744945	0.744945	0	1	0	0	CorrectCommission	0.745632	0.359066	1	0
351.484497	0.792329	city	5	1	0.645746	0.645746	0	1	0	0	CorrectCommission	0.009012	0.357983	1	0
352.276764	0.792188	city	1	1	0.596184	0.596184	0	1	0	0	CorrectCommission	0.359016	0.362939	1	0
353.069031	0.792341	city	4	1	0.645768	0.645768	0	1	0	0	CorrectCommission	0.009174	0.376054	1	0
353.861267	0.792159	city	9	1	0.646525	0.646525	0	1	0	0	CorrectCommission	0.014796	0.399003	1	0
354.653473	0.792266	city	1	1	0.612239	0.612239	0	1	0	0	CorrectCommission	0.239795	0.432740	1	0
355.445770	0.792310	city	3	1	0.645756	0.645756	0	1	0	0	CorrectCommission	0.009085	0.477367	1	0
356.238129	0.792432	city	5	1	0.695396	0.695396	0	1	0	0	CorrectCommission	0.377701	0.532046	1	0
357.030365	0.792048	city	2	1	0.695119	0.695119	0	1	0	0	CorrectCommission	0.375638	0.595015	1	0
357.822632	0.792482	city	3	1	0.695461	0.695461	0	1	0	0	CorrectCommission	0.378182	0.663733	1	0
358.614899	0.792047	city	2	1	0.756892	0.756892	0	1	0	0	CorrectCommission	0.834347	0.735055	0	0
359.407074	0.792290	city	9	1	0.862929	0.862929	0	1	0	0	CorrectCommission	1.621745	0.805524	0	0
360.199402	0.792349	city	2	1	0.606133	0.606133	0	1	0	0	CorrectCommission	0.285141	0.871645	0	0
360.991669	0.792167	city	5	1	0.461497	0.461497	0	1	0	0	CorrectCommission	1.359158	0.930234	0	0
361.783966	0.792470	city	1	1	0.451576	0.451576	0	1	0	0	CorrectCommission	1.432831	0.978594	0	0
362.576355	0.792266	city	9	1	0.497425	0.497425	0	1	0	0	CorrectCommission	1.092368	1.014781	0	0
363.368500	0.792057	city	5	1	0.459389	0.459389	0	1	0	0	CorrectCommission	1.374810	1.037719	0	0
364.160706	0.792363	city	9	1	0.398377	0.398377	0	1	0	0	CorrectCommission	1.827870	1.047208	0	0
364.952972	0.792158	city	7	1	0.450215	0.450215	0	1	0	0	CorrectCommission	1.442935	1.043895	0	1
365.745209	0.792309	mountain	10	1	0.745258	0.745258	0	0	1	0	CommissionError	0.747956	1.029183	0	1
366.537476	0.792228	city	7	1	0.603487	0.603487	0	1	0	0	CorrectCommission	0.304788	1.005054	0	1
367.329773	0.792363	city	8	1	0.497243	0.497243	0	1	0	0	CorrectCommission	1.093723	0.973874	0	1
368.122070	0.792264	city	4	1	0.398186	0.398186	0	1	0	0	CorrectCommission	1.829283	0.938171	0	1
368.914337	0.792267	city	6	1	0.447626	0.447626	0	1	0	0	CorrectCommission	1.462157	0.900495	0	1
369.706573	0.792158	city	7	1	0.648567	0.648567	0	1	0	0	CorrectCommission	0.029964	0.863230	0	1
370.498779	0.792261	mountain	4	0	0.000000	0.613997	1	0	0	0	CorrectOmission	0.226743	0.828447	0	1
371.291138	0.792482	city	10	1	0.566804	0.566804	0	1	0	0	CorrectCommission	0.577185	0.797727	0	1
372.083405	0.792053	mountain	8	0	0.000000	0.729876	1	0	0	0	CorrectOmission	0.633731	0.772112	0	1
372.875610	0.792370	city	3	1	0.843868	0.843868	0	1	0	0	CorrectCommission	1.480200	0.752073	0	1
373.667877	0.792167	city	5	1	0.649436	0.649436	0	1	0	0	CorrectCommission	0.036413	0.737467	0	1
374.460114	0.792277	city	6	1	0.798386	0.798386	0	1	0	0	CorrectCommission	1.142465	0.727654	0	1
375.252380	0.792241	city	2	1	0.696991	0.696991	0	1	0	0	CorrectCommission	0.389544	0.721477	0	1
376.044647	0.792337	city	7	1	0.705582	0.705582	0	1	0	0	CorrectCommission	0.453337	0.717479	0	1
376.836914	0.792192	city	6	1	0.696362	0.696362	0	1	0	0	CorrectCommission	0.384873	0.713975	0	1
377.629211	0.792401	city	7	1	0.744980	0.744980	0	1	0	0	CorrectCommission	0.745895	0.709316	0	1
378.421600	0.792346	city	3	1	0.798997	0.798997	0	1	0	0	CorrectCommission	1.147002	0.702031	0	1
379.213806	0.792057	city	5	1	0.805064	0.805064	0	1	0	0	CorrectCommission	1.192053	0.691021	0	1
380.005951	0.792260	city	3	1	0.755943	0.755943	0	1	0	0	CorrectCommission	0.827298	0.675741	1	1
380.798279	0.792368	city	6	1	0.799370	0.799370	0	1	0	0	CorrectCommission	1.149774	0.656257	1	1
381.590546	0.792160	city	8	1	0.749573	0.749573	0	1	0	0	CorrectCommission	0.779997	0.633205	1	1
382.382721	0.792244	city	9	1	0.659588	0.659588	0	1	0	0	CorrectCommission	0.111797	0.607761	1	1
383.175018	0.792338	city	2	1	0.645868	0.645868	0	1	0	0	CorrectCommission	0.009919	0.581472	1	1
383.967285	0.792211	mountain	3	0	0.000000	0.560353	1	0	0	0	CorrectOmission	0.625087	0.556059	1	1
384.759644	0.792478	city	7	1	0.508621	0.508621	0	1	0	0	CorrectCommission	1.009229	0.533216	1	1
385.551910	0.792057	city	5	1	0.596252	0.596252	0	1	0	0	CorrectCommission	0.358512	0.514440	1	1
386.344055	0.792257	mountain	5	0	0.000000	0.629687	1	0	0	0	CorrectOmission	0.110237	0.500915	1	1
387.136322	0.792267	city	5	1	0.614400	0.614400	0	1	0	0	CorrectCommission	0.223754	0.493402	1	1
387.928589	0.792261	city	4	1	0.555865	0.555865	0	1	0	0	CorrectCommission	0.658414	0.492134	1	1
388.720886	0.792313	city	3	1	0.596288	0.596288	0	1	0	0	CorrectCommission	0.358245	0.496805	1	1
389.513184	0.792275	city	4	1	0.707380	0.707380	0	1	0	0	CorrectCommission	0.466686	0.506597	1	1
390.305511	0.792422	city	3	1	0.614866	0.614866	0	1	0	0	CorrectCommission	0.220292	0.520195	1	1
391.097748	0.792051	city	10	1	0.562270	0.562270	0	1	0	0	CorrectCommission	0.610854	0.535951	1	1
391.889923	0.792267	city	5	1	0.645942	0.645942	0	1	0	0	CorrectCommission	0.010466	0.551954	1	1
392.682281	0.792478	mountain	8	0	0.000000	0.742009	1	0	0	0	CorrectOmission	0.723833	0.566278	1	1
393.474548	0.792045	city	4	1	0.794297	0.794297	0	1	0	0	CorrectCommission	1.112102	0.577126	1	1
394.266724	0.792271	city	10	1	0.746627	0.746627	0	1	0	0	CorrectCommission	0.758125	0.583048	1	1
395.058990	0.792263	city	8	1	0.794971	0.794971	0	1	0	0	CorrectCommission	1.117112	0.583079	1	1
395.851288	0.792371	city	3	1	0.794343	0.794343	0	1	0	0	CorrectCommission	1.112446	0.576799	1	1
396.643585	0.792196	mountain	3	0	0.000000	0.678299	1	0	0	0	CorrectOmission	0.250739	0.564359	1	1
397.435791	0.792224	mountain	4	1	0.596220	0.596220	0	0	1	0	CommissionError	0.358752	0.546424	1	1
398.228027	0.792267	city	5	1	0.697488	0.697488	0	1	0	0	CorrectCommission	0.393233	0.524019	1	1
399.020355	0.792371	city	2	1	0.604205	0.604205	0	1	0	0	CorrectCommission	0.299453	0.498408	1	1
399.812683	0.792265	city	10	1	0.550754	0.550754	0	1	0	0	CorrectCommission	0.696368	0.470968	1	1
400.604889	0.792156	city	2	1	0.561074	0.561074	0	1	0	0	CorrectCommission	0.619735	0.443047	1	1
401.397125	0.792308	city	1	1	0.596255	0.596255	0	1	0	0	CorrectCommission	0.358491	0.415879	1	1
402.189392	0.792225	city	5	1	0.559163	0.559163	0	1	0	0	CorrectCommission	0.633922	0.390504	1	1
402.981720	0.792480	city	4	1	0.645802	0.645802	0	1	0	0	CorrectCommission	0.009432	0.367725	1	1
403.774048	0.792156	city	6	1	0.600236	0.600236	0	1	0	0	CorrectCommission	0.328931	0.348086	1	1
404.566223	0.792158	city	3	1	0.645684	0.645684	0	1	0	0	CorrectCommission	0.008553	0.331836	1	1
405.358459	0.792327	city	5	1	0.659602	0.659602	0	1	0	0	CorrectCommission	0.111905	0.318965	1	1
406.150726	0.792199	city	6	1	0.695259	0.695259	0	1	0	0	CorrectCommission	0.376679	0.309259	1	1
406.942993	0.792339	city	7	1	0.695528	0.695528	0	1	0	0	CorrectCommission	0.378678	0.302381	1	1
407.735260	0.792191	city	1	1	0.658167	0.658167	0	1	0	0	CorrectCommission	0.101249	0.297986	1	1
408.527466	0.792265	city	4	1	0.695351	0.695351	0	1	0	0	CorrectCommission	0.377363	0.295826	1	1
409.319733	0.792266	city	9	1	0.744901	0.744901	0	1	0	0	CorrectCommission	0.745306	0.295821	1	1
410.112122	0.792483	mountain	2	0	0.000000	0.661636	1	0	0	0	CorrectOmission	0.127007	0.298081	1	1
410.904388	0.792047	city	5	1	0.596031	0.596031	0	1	0	0	CorrectCommission	0.360152	0.302906	1	1
411.696594	0.792370	city	1	1	0.698562	0.698562	0	1	0	0	CorrectCommission	0.401209	0.310656	1	1
412.488861	0.792156	city	7	1	0.645708	0.645708	0	1	0	0	CorrectCommission	0.008730	0.321646	1	1
413.281067	0.792267	city	6	1	0.660888	0.660888	0	1	0	0	CorrectCommission	0.121455	0.335963	1	1
414.073425	0.792480	city	7	1	0.645798	0.645798	0	1	0	0	CorrectCommission	0.009398	0.353382	1	1
414.865723	0.792073	city	5	1	0.596323	0.596323	0	1	0	0	CorrectCommission	0.357986	0.373254	1	1
415.657867	0.792243	mountain	7	0	0.000000	0.588283	1	0	0	0	CorrectOmission	0.417690	0.394513	1	1
416.450134	0.792279	city	1	1	0.596624	0.596624	0	1	0	0	CorrectCommission	0.355752	0.415794	1	1
417.242401	0.792246	city	3	1	0.596293	0.596293	0	1	0	0	CorrectCommission	0.358208	0.435577	1	1
418.034698	0.792374	city	1	1	0.547221	0.547221	0	1	0	0	CorrectCommission	0.722600	0.452413	1	1
418.826965	0.792158	city	4	1	0.566758	0.566758	0	1	0	0	CorrectCommission	0.577522	0.465137	1	1
419.619202	0.792284	city	7	1	0.513229	0.513229	0	1	0	0	CorrectCommission	0.975012	0.473084	1	1
420.411499	0.792319	city	1	1	0.547000	0.547000	0	1	0	0	CorrectCommission	0.724241	0.476218	1	1
421.203735	0.792190	city	6	1	0.546730	0.546730	0	1	0	0	CorrectCommission	0.726250	0.475113	1	1
421.996033	0.792372	city	2	1	0.547041	0.547041	0	1	0	0	CorrectCommission	0.723935	0.470923	1	1
422.788300	0.792186	city	5	1	0.645711	0.645711	0	1	0	0	CorrectCommission	0.008750	0.465229	1	1
423.580627	0.792454	city	6	1	0.695314	0.695314	0	1	0	0	CorrectCommission	0.377087	0.459853	1	1
424.372925	0.792155	city	10	1	0.645597	0.645597	0	1	0	0	CorrectCommission	0.007906	0.456640	1	0
425.165100	0.792191	city	9	1	0.646165	0.646165	0	1	0	0	CorrectCommission	0.012126	0.457319	1	0
425.957336	0.792288	city	7	1	0.709177	0.709177	0	1	0	0	CorrectCommission	0.480029	0.463336	1	0
426.749603	0.792209	mountain	5	0	0.000000	0.589291	1	0	0	0	CorrectOmission	0.410201	0.475772	1	0
427.541870	0.792369	city	4	1	0.497847	0.497847	0	1	0	0	CorrectCommission	1.089238	0.495308	1	0
428.334167	0.792183	city	7	1	0.646181	0.646181	0	1	0	0	CorrectCommission	0.012243	0.522144	1	0
429.126465	0.792456	city	3	1	0.797111	0.797111	0	1	0	0	CorrectCommission	1.132998	0.555973	1	0
429.918732	0.792050	city	5	1	0.695141	0.695141	0	1	0	0	CorrectCommission	0.375803	0.595843	1	0
430.710999	0.792479	city	8	1	0.659703	0.659703	0	1	0	0	CorrectCommission	0.112656	0.640168	1	0
431.503265	0.792050	city	3	1	0.695276	0.695276	0	1	0	0	CorrectCommission	0.376805	0.686739	0	0
432.295410	0.792267	city	4	1	0.662481	0.662481	0	1	0	0	CorrectCommission	0.133282	0.732804	0	0
433.087677	0.792262	city	3	1	0.695306	0.695306	0	1	0	0	CorrectCommission	0.377028	0.775379	0	0
433.879944	0.792265	city	10	1	0.695337	0.695337	0	1	0	0	CorrectCommission	0.377260	0.811634	0	0
434.672272	0.792372	city	1	1	0.893359	0.893359	0	1	0	0	CorrectCommission	1.847704	0.839357	0	0
435.464539	0.792155	city	8	1	1.100667	1.100667	0	1	0	0	CorrectCommission	3.387104	0.857361	0	0
436.256744	0.792267	mountain	3	0	0.000000	0.823939	1	0	0	0	CorrectOmission	1.332214	0.865804	0	0
437.049011	0.792265	city	10	1	0.497247	0.497247	0	1	0	0	CorrectCommission	1.093688	0.866297	0	0
437.841278	0.792278	city	4	1	0.554665	0.554665	0	1	0	0	CorrectCommission	0.667324	0.861591	0	0
438.633545	0.792252	city	3	1	0.610108	0.610108	0	1	0	0	CorrectCommission	0.255622	0.855138	0	0
439.425842	0.792326	mountain	6	0	0.000000	0.613374	1	0	0	0	CorrectOmission	0.231368	0.850494	0	0
440.218109	0.792204	city	6	1	0.610084	0.610084	0	1	0	0	CorrectCommission	0.255799	0.850687	0	0
441.010315	0.792262	city	2	1	0.645858	0.645858	0	1	0	0	CorrectCommission	0.009847	0.857726	0	0
441.802582	0.792267	city	7	1	0.713519	0.713519	0	1	0	0	CorrectCommission	0.512273	0.872387	0	0
442.594849	0.792265	city	5	1	0.711142	0.711142	0	1	0	0	CorrectCommission	0.494622	0.894243	0	0
443.387177	0.792372	city	9	1	0.843855	0.843855	0	1	0	0	CorrectCommission	1.480104	0.922018	0	0
444.179443	0.792158	city	7	1	0.858068	0.858068	0	1	0	0	CorrectCommission	1.585645	0.954125	0	0
444.971649	0.792265	city	8	1	0.794386	0.794386	0	1	0	0	CorrectCommission	1.112764	0.989220	0	0
445.763916	0.792262	mountain	2	0	0.000000	0.542838	1	0	0	0	CorrectOmission	0.755151	1.026710	0	0
446.556244	0.792373	city	9	1	0.348721	0.348721	0	1	0	0	CorrectCommission	2.196597	1.066948	0	0
447.348602	0.792374	city	7	1	0.457334	0.457334	0	1	0	0	CorrectCommission	1.390071	1.111152	0	0
448.140869	0.792155	city	3	1	0.503673	0.503673	0	1	0	0	CorrectCommission	1.045971	1.161116	0	0
448.933044	0.792193	city	5	1	0.497522	0.497522	0	1	0	0	CorrectCommission	1.091649	1.218512	0	0
449.725250	0.792229	city	9	1	0.600157	0.600157	0	1	0	0	CorrectCommission	0.329512	1.284129	0	0
450.517548	0.792372	city	5	1	0.596460	0.596460	0	1	0	0	CorrectCommission	0.356971	1.357221	0	0
451.309875	0.792267	city	2	1	0.546675	0.546675	0	1	0	0	CorrectCommission	0.726657	1.435014	0	0
452.102203	0.792372	mountain	4	1	0.551432	0.551432	0	0	1	0	CommissionError	0.691331	1.512615	0	0
452.894409	0.792058	city	6	1	0.497400	0.497400	0	1	0	0	CorrectCommission	1.092551	1.583402	0	0
453.686584	0.792286	city	1	1	0.447755	0.447755	0	1	0	0	CorrectCommission	1.461205	1.639880	0	0
454.478851	0.792267	city	6	1	1.047056	1.047056	0	1	0	0	CorrectCommission	2.989007	1.674791	0	0
455.271179	0.792338	city	4	1	1.190468	1.190468	0	1	0	0	CorrectCommission	4.053939	1.682305	0	0
456.063507	0.792375	city	2	1	1.190374	1.190374	0	1	0	0	CorrectCommission	4.053237	1.659149	0	0
456.855743	0.792047	city	3	1	1.141402	1.141402	0	1	0	0	CorrectCommission	3.689594	1.605287	0	0
457.647888	0.792295	city	7	0	0.000000	0.918074	0	0	0	1	OmissionError	2.031229	1.524082	0	0
458.440277	0.792452	city	10	0	0.000000	0.670058	0	0	0	1	OmissionError	0.189549	1.421928	0	0
459.232635	0.792266	city	2	1	0.547027	0.547027	0	1	0	0	CorrectCommission	0.724042	1.307336	0	0
460.024780	0.792045	city	1	1	0.698650	0.698650	0	1	0	0	CorrectCommission	0.401859	1.189749	0	0
460.816956	0.792265	city	4	1	0.645806	0.645806	0	1	0	0	CorrectCommission	0.009460	1.078356	0	0
461.609222	0.792265	city	5	1	0.695379	0.695379	0	1	0	0	CorrectCommission	0.377571	0.980993	0	0
462.401489	0.792322	city	6	1	0.646083	0.646083	0	1	0	0	CorrectCommission	0.011519	0.903380	0	0
463.193756	0.792210	city	2	0	0.000000	0.751053	0	0	0	1	OmissionError	0.790987	0.848735	0	0
463.986115	0.792482	city	8	1	0.815766	0.815766	0	1	0	0	CorrectCommission	1.271525	0.817669	0	0
464.778473	0.792264	city	6	1	0.645702	0.645702	0	1	0	0	CorrectCommission	0.008687	0.808511	0	0
465.570648	0.792047	city	2	1	0.596119	0.596119	0	1	0	0	CorrectCommission	0.359501	0.817788	0	0
466.362823	0.792319	city	6	1	0.547130	0.547130	0	1	0	0	CorrectCommission	0.723277	0.840747	0	0
467.155090	0.792230	city	4	1	0.566766	0.566766	0	1	0	0	CorrectCommission	0.577464	0.872042	0	0
467.947357	0.792276	city	10	1	0.497237	0.497237	0	1	0	0	CorrectCommission	1.093763	0.906317	0	0
468.739594	0.792233	city	9	1	0.448319	0.448319	0	1	0	0	CorrectCommission	1.457011	0.938687	0	0
469.531860	0.792270	city	5	1	0.398255	0.398255	0	1	0	0	CorrectCommission	1.828771	0.965161	0	0
470.324158	0.792315	mountain	10	1	0.503545	0.503545	0	0	1	0	CommissionError	1.046927	0.982868	0	0
471.116425	0.792211	mountain	4	1	0.449178	0.449178	0	0	1	0	CommissionError	1.450634	0.990184	0	0
471.908722	0.792372	city	5	1	0.556607	0.556607	0	1	0	0	CorrectCommission	0.652905	0.986630	0	0
472.700958	0.792156	city	7	1	0.501292	0.501292	0	1	0	0	CorrectCommission	1.063654	0.972777	0	0
473.493195	0.792269	city	2	1	0.448460	0.448460	0	1	0	0	CorrectCommission	1.455969	0.949966	0	0
474.285461	0.792281	city	7	1	0.501137	0.501137	0	1	0	0	CorrectCommission	1.064804	0.920058	0	0
475.077850	0.792489	city	4	1	0.497268	0.497268	0	1	0	0	CorrectCommission	1.093535	0.885187	0	0
475.870117	0.792068	mountain	10	1	0.546540	0.546540	0	0	1	0	CommissionError	0.727660	0.847497	0	0
476.662262	0.792217	city	6	1	0.646483	0.646483	0	1	0	0	CorrectCommission	0.014489	0.808947	0	0
477.454498	0.792268	city	8	1	0.596404	0.596404	0	1	0	0	CorrectCommission	0.357382	0.771250	0	0
478.246765	0.792265	city	9	1	0.550616	0.550616	0	1	0	0	CorrectCommission	0.697392	0.735821	0	0
479.039032	0.792261	city	1	1	0.497395	0.497395	0	1	0	0	CorrectCommission	1.092592	0.703841	0	0
479.831299	0.792265	city	10	1	0.497282	0.497282	0	1	0	0	CorrectCommission	1.093434	0.676352	1	0
480.623566	0.792264	city	2	1	0.547313	0.547313	0	1	0	0	CorrectCommission	0.721915	0.654324	1	0
481.415833	0.792266	city	1	1	0.596257	0.596257	0	1	0	0	CorrectCommission	0.358474	0.638666	1	0
482.208099	0.792269	city	6	1	0.744983	0.744983	0	1	0	0	CorrectCommission	0.745913	0.630204	1	0
483.000397	0.792325	city	9	1	0.707584	0.707584	0	1	0	0	CorrectCommission	0.468202	0.629490	1	0
483.792664	0.792199	city	5	1	0.645747	0.645747	0	1	0	0	CorrectCommission	0.009022	0.636683	1	0
484.584930	0.792373	city	1	1	0.596332	0.596332	0	1	0	0	CorrectCommission	0.357919	0.651386	1	0
485.377197	0.792154	city	9	1	0.610663	0.610663	0	1	0	0	CorrectCommission	0.251501	0.672527	1	0
486.169525	0.792485	city	4	1	0.596321	0.596321	0	1	0	0	CorrectCommission	0.357998	0.698401	0	0
486.961823	0.792084	city	3	1	0.546657	0.546657	0	1	0	0	CorrectCommission	0.726786	0.726786	0	0
