onset	duration	trial_type	image_type	Press	ReactionTime	ReactionTime_Interpolated	CorrectOmission	CorrectCommission	CommissionError	OmissionError	response_type	nonsmoothVarianceTimeCourse	VarianceTimeCourse	In_the_Zone	Reward_trial
8.433925	0.792484	city	8	1	0.956818	0.956818	0	1	0	0	CorrectCommission	1.844653	1.844653	0	1
9.226218	0.792105	mountain	1	0	0.000000	0.828770	1	0	0	0	CorrectOmission	0.859117	1.655638	0	1
10.018377	0.792213	city	9	1	0.756223	0.756223	0	1	0	0	CorrectCommission	0.300746	1.471527	0	1
10.810614	0.792258	city	8	1	0.794676	0.794676	0	1	0	0	CorrectCommission	0.596704	1.296837	0	1
11.602875	0.792264	city	7	1	0.652941	0.652941	0	1	0	0	CorrectCommission	0.494177	1.135375	0	1
12.395140	0.792267	city	8	1	0.596462	0.596462	0	1	0	0	CorrectCommission	0.928872	0.990053	0	1
13.187405	0.792263	city	2	1	0.546704	0.546704	0	1	0	0	CorrectCommission	1.311846	0.862848	0	1
13.979669	0.792264	city	7	1	0.603352	0.603352	0	1	0	0	CorrectCommission	0.875842	0.754899	0	1
14.771933	0.792265	city	8	1	0.744801	0.744801	0	1	0	0	CorrectCommission	0.212834	0.666654	1	1
15.564199	0.792268	city	4	1	0.744825	0.744825	0	1	0	0	CorrectCommission	0.213020	0.598017	1	1
16.356464	0.792264	mountain	1	0	0.000000	0.739933	1	0	0	0	CorrectOmission	0.175367	0.548426	1	1
17.148729	0.792267	mountain	4	0	0.000000	0.725100	1	0	0	0	CorrectOmission	0.061206	0.516927	1	1
17.941103	0.792479	city	5	1	0.695303	0.695303	0	1	0	0	CorrectCommission	0.168133	0.502191	1	1
18.733475	0.792264	city	2	1	0.645517	0.645517	0	1	0	0	CorrectCommission	0.551317	0.502493	1	1
19.525684	0.792156	city	3	1	0.656909	0.656909	0	1	0	0	CorrectCommission	0.463637	0.515683	1	1
20.317841	0.792156	city	6	1	0.695378	0.695378	0	1	0	0	CorrectCommission	0.167553	0.539229	1	1
21.110092	0.792346	city	3	1	0.744810	0.744810	0	1	0	0	CorrectCommission	0.212908	0.570267	1	1
21.902357	0.792185	mountain	1	0	0.000000	0.694105	1	0	0	0	CorrectOmission	0.177353	0.605703	1	1
22.694635	0.792372	city	3	1	0.596244	0.596244	0	1	0	0	CorrectCommission	0.930548	0.642382	1	1
23.486956	0.792267	city	8	1	0.504212	0.504212	0	1	0	0	CorrectCommission	1.638892	0.677288	1	1
24.279167	0.792157	city	4	1	0.601334	0.601334	0	1	0	0	CorrectCommission	0.891377	0.707751	1	1
25.071377	0.792263	city	8	1	0.645763	0.645763	0	1	0	0	CorrectCommission	0.549420	0.731666	0	1
25.863749	0.792482	city	4	1	0.796845	0.796845	0	1	0	0	CorrectCommission	0.613399	0.747587	0	1
26.656013	0.792047	city	9	1	0.942693	0.942693	0	1	0	0	CorrectCommission	1.735939	0.754780	0	1
27.448172	0.792268	city	4	1	0.843969	0.843969	0	1	0	0	CorrectCommission	0.976093	0.753193	0	1
28.240438	0.792265	city	2	1	0.744774	0.744774	0	1	0	0	CorrectCommission	0.212629	0.743430	0	1
29.032808	0.792478	city	9	1	0.799449	0.799449	0	1	0	0	CorrectCommission	0.633443	0.726628	0	1
29.825073	0.792049	city	1	1	0.796651	0.796651	0	1	0	0	CorrectCommission	0.611910	0.704298	1	1
30.617229	0.792264	city	6	1	0.893516	0.893516	0	1	0	0	CorrectCommission	1.357438	0.678210	1	1
31.409494	0.792264	city	9	1	0.843898	0.843898	0	1	0	0	CorrectCommission	0.975549	0.650249	1	1
32.201866	0.792482	city	4	1	0.760979	0.760979	0	1	0	0	CorrectCommission	0.337351	0.622296	1	1
32.994186	0.792156	city	2	1	0.744675	0.744675	0	1	0	0	CorrectCommission	0.211865	0.596091	1	1
33.786396	0.792265	city	6	1	0.660481	0.660481	0	1	0	0	CorrectCommission	0.436143	0.573062	1	1
34.578644	0.792232	city	4	1	0.757264	0.757264	0	1	0	0	CorrectCommission	0.308759	0.554248	1	1
35.370853	0.792190	city	7	1	0.797013	0.797013	0	1	0	0	CorrectCommission	0.614696	0.540236	1	1
36.163082	0.792263	city	4	1	0.659687	0.659687	0	1	0	0	CorrectCommission	0.442254	0.531121	1	1
36.955345	0.792266	city	6	1	0.645917	0.645917	0	1	0	0	CorrectCommission	0.548234	0.526557	1	1
37.747719	0.792480	city	9	1	0.695269	0.695269	0	1	0	0	CorrectCommission	0.168392	0.525835	1	1
38.540001	0.792082	city	4	1	0.695028	0.695028	0	1	0	0	CorrectCommission	0.170246	0.527997	1	1
39.332157	0.792235	city	9	1	0.645732	0.645732	0	1	0	0	CorrectCommission	0.549658	0.532004	1	1
40.124516	0.792478	city	6	1	0.610150	0.610150	0	1	0	0	CorrectCommission	0.823526	0.536857	1	1
40.916779	0.792047	city	8	1	0.546849	0.546849	0	1	0	0	CorrectCommission	1.310724	0.541736	1	1
41.708935	0.792266	city	1	1	0.603526	0.603526	0	1	0	0	CorrectCommission	0.874504	0.546083	1	1
42.501255	0.792373	mountain	3	0	0.000000	0.668072	1	0	0	0	CorrectOmission	0.377716	0.549626	1	1
43.293518	0.792156	city	2	1	0.709123	0.709123	0	1	0	0	CorrectCommission	0.061761	0.552315	1	1
44.085732	0.792268	city	7	1	0.695314	0.695314	0	1	0	0	CorrectCommission	0.168044	0.554208	1	1
44.878014	0.792297	city	1	1	0.646174	0.646174	0	1	0	0	CorrectCommission	0.546257	0.555399	1	1
45.670330	0.792336	city	2	1	0.756432	0.756432	0	1	0	0	CorrectCommission	0.302354	0.555957	1	1
46.462578	0.792157	city	8	1	0.843688	0.843688	0	1	0	0	CorrectCommission	0.973936	0.555888	1	1
47.254894	0.792482	city	7	1	0.794276	0.794276	0	1	0	0	CorrectCommission	0.593624	0.555133	1	1
48.047161	0.792048	city	5	1	0.893182	0.893182	0	1	0	0	CorrectCommission	1.354868	0.553622	1	1
48.839428	0.792483	city	10	1	0.794324	0.794324	0	1	0	0	CorrectCommission	0.593994	0.551275	1	1
49.631691	0.792046	city	2	1	0.706883	0.706883	0	1	0	0	CorrectCommission	0.079003	0.548073	1	1
50.423847	0.792268	city	7	1	0.695277	0.695277	0	1	0	0	CorrectCommission	0.168330	0.544055	1	1
51.216114	0.792266	city	1	1	0.695321	0.695321	0	1	0	0	CorrectCommission	0.167995	0.539313	1	1
52.008377	0.792263	city	8	1	0.645779	0.645779	0	1	0	0	CorrectCommission	0.549298	0.534040	1	1
52.800697	0.792372	city	1	1	0.558431	0.558431	0	1	0	0	CorrectCommission	1.221584	0.528535	1	1
53.592972	0.792181	city	8	1	0.645672	0.645672	0	1	0	0	CorrectCommission	0.550123	0.523229	1	1
54.385197	0.792270	city	5	1	0.596214	0.596214	0	1	0	0	CorrectCommission	0.930786	0.518704	1	1
55.177452	0.792237	city	8	1	0.661957	0.661957	0	1	0	0	CorrectCommission	0.424786	0.515630	1	1
55.969700	0.792259	mountain	4	0	0.000000	0.729450	1	0	0	0	CorrectOmission	0.094687	0.514722	1	1
56.762016	0.792376	city	7	1	0.746377	0.746377	0	1	0	0	CorrectCommission	0.224965	0.516629	1	1
57.554283	0.792158	city	8	1	0.660419	0.660419	0	1	0	0	CorrectCommission	0.436621	0.521815	1	1
58.346603	0.792480	mountain	7	1	0.646193	0.646193	0	0	1	0	CommissionError	0.546116	0.530466	1	1
59.138866	0.792047	city	6	1	0.794109	0.794109	0	1	0	0	CorrectCommission	0.592342	0.542438	1	1
59.931023	0.792268	city	8	1	0.695331	0.695331	0	1	0	0	CorrectCommission	0.167913	0.557286	1	1
60.723343	0.792369	mountain	4	0	0.000000	0.662229	1	0	0	0	CorrectOmission	0.422690	0.574284	1	1
61.515606	0.792159	city	2	1	0.645633	0.645633	0	1	0	0	CorrectCommission	0.550426	0.592513	1	1
62.307842	0.792310	city	1	1	0.596374	0.596374	0	1	0	0	CorrectCommission	0.929554	0.610996	1	1
63.100117	0.792244	city	5	1	0.546770	0.546770	0	1	0	0	CorrectCommission	1.311333	0.628826	1	1
63.892361	0.792239	city	6	1	0.596223	0.596223	0	1	0	0	CorrectCommission	0.930713	0.645264	1	1
64.684608	0.792261	city	4	1	0.695307	0.695307	0	1	0	0	CorrectCommission	0.168101	0.659813	1	1
65.476875	0.792274	city	7	1	0.695295	0.695295	0	1	0	0	CorrectCommission	0.168195	0.672253	1	1
66.269196	0.792368	mountain	10	0	0.000000	0.657120	1	0	0	0	CorrectOmission	0.462012	0.682651	1	1
67.061516	0.792263	city	8	1	0.600863	0.600863	0	1	0	0	CorrectCommission	0.894998	0.691351	1	1
67.853722	0.792156	city	4	1	0.546606	0.546606	0	1	0	0	CorrectCommission	1.312596	0.698919	1	0
68.646042	0.792484	mountain	2	0	0.000000	0.563757	1	0	0	0	CorrectOmission	1.180591	0.706083	1	0
69.438309	0.792051	city	8	1	0.647920	0.647920	0	1	0	0	CorrectCommission	0.532820	0.713621	1	0
70.230507	0.792338	city	7	1	0.794699	0.794699	0	1	0	0	CorrectCommission	0.596881	0.722212	0	0
71.022873	0.792404	city	1	1	0.744980	0.744980	0	1	0	0	CorrectCommission	0.214212	0.732282	0	0
71.815102	0.792051	city	7	1	0.803652	0.803652	0	1	0	0	CorrectCommission	0.665793	0.743840	0	0
72.607262	0.792265	city	8	1	0.794339	0.794339	0	1	0	0	CorrectCommission	0.594114	0.756383	0	0
73.399536	0.792288	city	6	1	0.802872	0.802872	0	1	0	0	CorrectCommission	0.659789	0.768919	0	0
74.191803	0.792236	city	10	1	0.695305	0.695305	0	1	0	0	CorrectCommission	0.168117	0.780032	0	0
74.984055	0.792269	city	5	1	0.942881	0.942881	0	1	0	0	CorrectCommission	1.737383	0.788096	0	0
75.776321	0.792262	city	6	1	0.855523	0.855523	0	1	0	0	CorrectCommission	1.065022	0.791500	0	0
76.568581	0.792262	city	9	1	0.795772	0.795772	0	1	0	0	CorrectCommission	0.605139	0.789041	0	0
77.360954	0.792483	city	6	1	0.614741	0.614741	0	1	0	0	CorrectCommission	0.788187	0.780152	0	0
78.153221	0.792047	city	8	1	0.547149	0.547149	0	1	0	0	CorrectCommission	1.308419	0.765074	0	0
78.945374	0.792265	city	5	1	0.461668	0.461668	0	1	0	0	CorrectCommission	1.966331	0.744920	0	0
79.737640	0.792268	city	6	1	0.645768	0.645768	0	1	0	0	CorrectCommission	0.549381	0.721545	0	0
80.529961	0.792372	city	2	1	0.746431	0.746431	0	1	0	0	CorrectCommission	0.225382	0.697340	1	0
81.322266	0.792241	city	6	1	0.756236	0.756236	0	1	0	0	CorrectCommission	0.300850	0.674817	1	0
82.114479	0.792181	city	5	1	0.756481	0.756481	0	1	0	0	CorrectCommission	0.302734	0.656224	1	0
82.906723	0.792314	city	1	1	0.757032	0.757032	0	1	0	0	CorrectCommission	0.306972	0.643187	1	0
83.698990	0.792222	city	3	1	0.659435	0.659435	0	1	0	0	CorrectCommission	0.444193	0.636426	1	0
84.491257	0.792310	city	2	1	0.744802	0.744802	0	1	0	0	CorrectCommission	0.212844	0.635652	1	0
85.283577	0.792320	city	4	1	0.655240	0.655240	0	1	0	0	CorrectCommission	0.476481	0.639664	1	0
86.075851	0.792230	city	9	1	0.596637	0.596637	0	1	0	0	CorrectCommission	0.927530	0.646558	1	0
86.868057	0.792194	city	7	1	0.662936	0.662936	0	1	0	0	CorrectCommission	0.417248	0.654119	1	0
87.660294	0.792266	city	9	1	0.645742	0.645742	0	1	0	0	CorrectCommission	0.549587	0.660249	1	0
88.452553	0.792262	city	1	1	0.502247	0.502247	0	1	0	0	CorrectCommission	1.654010	0.663366	1	0
89.244820	0.792270	city	3	1	0.497206	0.497206	0	1	0	0	CorrectCommission	1.692808	0.662690	1	0
90.037086	0.792259	mountain	5	0	0.000000	0.595465	1	0	0	0	CorrectOmission	0.936551	0.658406	1	0
90.829346	0.792265	city	9	1	0.697716	0.697716	0	1	0	0	CorrectCommission	0.149562	0.651670	1	0
91.621613	0.792266	city	2	1	0.704654	0.704654	0	1	0	0	CorrectCommission	0.096162	0.644417	1	0
92.413879	0.792266	city	4	1	0.744870	0.744870	0	1	0	0	CorrectCommission	0.213369	0.639007	1	0
93.206169	0.792312	city	8	1	0.660778	0.660778	0	1	0	0	CorrectCommission	0.433859	0.637938	1	0
93.998428	0.792214	city	3	1	0.560564	0.560564	0	1	0	0	CorrectCommission	1.205171	0.643489	1	0
94.790680	0.792291	city	4	1	0.645811	0.645811	0	1	0	0	CorrectCommission	0.549055	0.657405	1	0
95.583000	0.792347	city	5	1	0.695321	0.695321	0	1	0	0	CorrectCommission	0.167992	0.680715	1	0
96.375389	0.792428	city	9	1	0.744726	0.744726	0	1	0	0	CorrectCommission	0.212259	0.713621	1	0
97.167603	0.791992	city	5	1	0.695657	0.695657	0	1	0	0	CorrectCommission	0.165410	0.755495	0	0
97.959785	0.792374	city	9	1	0.600236	0.600236	0	1	0	0	CorrectCommission	0.899824	0.804977	0	0
98.752098	0.792264	city	6	1	0.598694	0.598694	0	1	0	0	CorrectCommission	0.911692	0.860096	0	0
99.544312	0.792164	city	1	1	0.596943	0.596943	0	1	0	0	CorrectCommission	0.925169	0.918489	0	0
100.336578	0.792365	city	4	1	0.497198	0.497198	0	1	0	0	CorrectCommission	1.692875	0.977584	0	0
101.128838	0.792158	city	10	1	0.547499	0.547499	0	1	0	0	CorrectCommission	1.305724	1.034771	0	0
101.921051	0.792266	city	8	1	0.602767	0.602767	0	1	0	0	CorrectCommission	0.880343	1.087575	0	0
102.713425	0.792480	city	3	1	0.645787	0.645787	0	1	0	0	CorrectCommission	0.549239	1.133757	0	0
103.505722	0.792107	mountain	8	0	0.000000	0.889416	1	0	0	0	CorrectOmission	1.325884	1.171370	0	0
104.297874	0.792203	city	3	1	0.992390	0.992390	0	1	0	0	CorrectCommission	2.118436	1.198869	0	0
105.090111	0.792269	city	8	1	0.613444	0.613444	0	1	0	0	CorrectCommission	0.798172	1.215195	0	0
105.882484	0.792480	city	3	1	0.498087	0.498087	0	1	0	0	CorrectCommission	1.686032	1.219910	0	0
106.674751	0.792049	city	9	1	0.497307	0.497307	0	1	0	0	CorrectCommission	1.692032	1.213201	0	0
107.466904	0.792266	city	4	1	0.569598	0.569598	0	1	0	0	CorrectCommission	1.135634	1.195983	0	0
108.259171	0.792262	city	8	1	0.507013	0.507013	0	1	0	0	CorrectCommission	1.617328	1.169877	0	0
109.051437	0.792273	city	4	1	0.497435	0.497435	0	1	0	0	CorrectCommission	1.691045	1.137023	0	0
109.843811	0.792474	city	2	1	0.546822	0.546822	0	1	0	0	CorrectCommission	1.310933	1.099947	0	0
110.636078	0.792063	city	4	1	0.695082	0.695082	0	1	0	0	CorrectCommission	0.169832	1.061307	0	0
111.428238	0.792248	city	6	1	0.596219	0.596219	0	1	0	0	CorrectCommission	0.930745	1.023620	0	0
112.220505	0.792291	city	9	1	0.645760	0.645760	0	1	0	0	CorrectCommission	0.549449	0.988999	0	0
113.012772	0.792237	city	10	1	0.598489	0.598489	0	1	0	0	CorrectCommission	0.913276	0.959044	0	0
113.805077	0.792374	city	7	1	0.610282	0.610282	0	1	0	0	CorrectCommission	0.822505	0.934750	0	0
114.597351	0.792181	city	4	1	0.645652	0.645652	0	1	0	0	CorrectCommission	0.550279	0.916591	0	0
115.389565	0.792243	city	7	1	0.649817	0.649817	0	1	0	0	CorrectCommission	0.518220	0.904667	0	0
116.181870	0.792371	city	8	1	0.546777	0.546777	0	1	0	0	CorrectCommission	1.311279	0.898902	0	0
116.974167	0.792216	city	4	1	0.554247	0.554247	0	1	0	0	CorrectCommission	1.253786	0.899182	0	0
117.766487	0.792422	city	6	1	0.497170	0.497170	0	1	0	0	CorrectCommission	1.693087	0.905519	0	0
118.558731	0.792065	city	4	1	0.645542	0.645542	0	1	0	0	CorrectCommission	0.551127	0.918022	0	0
119.350914	0.792299	city	10	1	0.796472	0.796472	0	1	0	0	CorrectCommission	0.610531	0.936849	0	0
120.143166	0.792210	city	3	1	0.745196	0.745196	0	1	0	0	CorrectCommission	0.215874	0.961952	0	0
120.935402	0.792266	city	2	1	0.794326	0.794326	0	1	0	0	CorrectCommission	0.594012	0.992892	0	0
121.727669	0.792269	city	8	1	0.598621	0.598621	0	1	0	0	CorrectCommission	0.912259	1.028615	0	0
122.519989	0.792368	city	3	1	0.596276	0.596276	0	1	0	0	CorrectCommission	0.930304	1.067399	0	0
123.312256	0.792156	city	6	1	0.506446	0.506446	0	1	0	0	CorrectCommission	1.621693	1.106852	0	0
124.104477	0.792291	city	9	1	0.794988	0.794988	0	1	0	0	CorrectCommission	0.599106	1.144075	0	0
124.896767	0.792294	city	3	1	0.546728	0.546728	0	1	0	0	CorrectCommission	1.311662	1.175972	0	0
125.689026	0.792213	city	4	1	0.505812	0.505812	0	1	0	0	CorrectCommission	1.626571	1.199531	0	0
126.481369	0.792479	city	9	1	0.447966	0.447966	0	1	0	0	CorrectCommission	2.071790	1.212218	0	0
127.273628	0.792046	city	4	1	0.501736	0.501736	0	1	0	0	CorrectCommission	1.657944	1.212289	0	1
128.065781	0.792264	city	10	1	0.546723	0.546723	0	1	0	0	CorrectCommission	1.311696	1.199033	0	1
128.858154	0.792484	city	3	1	0.546722	0.546722	0	1	0	0	CorrectCommission	1.311701	1.172850	0	1
129.650528	0.792266	city	7	1	0.596040	0.596040	0	1	0	0	CorrectCommission	0.932119	1.135285	0	1
130.442795	0.792263	city	4	1	0.509214	0.509214	0	1	0	0	CorrectCommission	1.600391	1.088903	0	1
131.234985	0.792108	city	9	1	0.449410	0.449410	0	1	0	0	CorrectCommission	2.060678	1.037038	0	1
132.027145	0.792204	city	7	1	0.695379	0.695379	0	1	0	0	CorrectCommission	0.167547	0.983516	0	1
132.819489	0.792482	city	6	1	0.645909	0.645909	0	1	0	0	CorrectCommission	0.548302	0.932367	0	1
133.611755	0.792046	city	9	1	0.744587	0.744587	0	1	0	0	CorrectCommission	0.211191	0.887356	0	1
134.403915	0.792298	city	1	1	0.610279	0.610279	0	1	0	0	CorrectCommission	0.822532	0.851719	0	1
135.196182	0.792234	city	4	1	0.646065	0.646065	0	1	0	0	CorrectCommission	0.547098	0.827819	0	1
135.988541	0.792481	city	1	1	0.596239	0.596239	0	1	0	0	CorrectCommission	0.930590	0.816982	0	1
136.780807	0.792044	city	10	1	0.596006	0.596006	0	1	0	0	CorrectCommission	0.932385	0.819279	0	1
137.573013	0.792375	city	5	1	0.754193	0.754193	0	1	0	0	CorrectCommission	0.285122	0.833513	0	1
138.365280	0.792156	city	8	1	0.695164	0.695164	0	1	0	0	CorrectCommission	0.169204	0.857269	0	1
139.157547	0.792371	city	1	1	0.794310	0.794310	0	1	0	0	CorrectCommission	0.593891	0.887070	0	1
139.949814	0.792157	city	8	1	0.744725	0.744725	0	1	0	0	CorrectCommission	0.212250	0.918752	0	1
140.742126	0.792482	city	9	1	0.596240	0.596240	0	1	0	0	CorrectCommission	0.930586	0.947893	0	1
141.534500	0.792264	city	4	1	0.496987	0.496987	0	1	0	0	CorrectCommission	1.694496	0.970350	0	1
142.326660	0.792050	mountain	3	1	0.361278	0.361278	0	0	1	0	CommissionError	2.739001	0.982760	0	1
143.118820	0.792263	city	1	1	0.497234	0.497234	0	1	0	0	CorrectCommission	1.692597	0.983003	0	1
143.911133	0.792374	city	4	1	0.596302	0.596302	0	1	0	0	CorrectCommission	0.930104	0.970457	0	1
144.703430	0.792225	city	10	1	0.546635	0.546635	0	1	0	0	CorrectCommission	1.312376	0.946030	0	1
145.495651	0.792194	city	2	1	0.563223	0.563223	0	1	0	0	CorrectCommission	1.184701	0.911941	0	1
146.287872	0.792264	city	3	1	0.654909	0.654909	0	1	0	0	CorrectCommission	0.479026	0.871329	0	1
147.080200	0.792375	city	9	1	0.695405	0.695405	0	1	0	0	CorrectCommission	0.167343	0.827815	0	1
147.872467	0.792180	mountain	10	0	0.000000	0.653821	1	0	0	0	CorrectOmission	0.487406	0.784966	0	1
148.664688	0.792243	city	5	1	0.614423	0.614423	0	1	0	0	CorrectCommission	0.790633	0.745860	0	1
149.457047	0.792480	city	4	1	0.661482	0.661482	0	1	0	0	CorrectCommission	0.428443	0.712856	1	1
150.249313	0.792047	mountain	6	0	0.000000	0.762081	1	0	0	0	CorrectOmission	0.345835	0.687411	1	1
151.041519	0.792375	city	9	1	0.798445	0.798445	0	1	0	0	CorrectCommission	0.625715	0.670122	1	1
151.833786	0.792157	city	3	1	0.652797	0.652797	0	1	0	0	CorrectCommission	0.495287	0.660799	1	1
152.625992	0.792266	mountain	1	0	0.000000	0.589694	1	0	0	0	CorrectOmission	0.980967	0.658711	1	1
153.418259	0.792260	city	10	1	0.605544	0.605544	0	1	0	0	CorrectCommission	0.858975	0.662753	1	1
154.210541	0.792315	city	6	1	0.696755	0.696755	0	1	0	0	CorrectCommission	0.156960	0.671642	1	1
155.002914	0.792433	city	2	1	0.843793	0.843793	0	1	0	0	CorrectCommission	0.974743	0.684060	1	1
155.795166	0.792051	city	9	1	0.800586	0.800586	0	1	0	0	CorrectCommission	0.642190	0.698679	1	1
156.587326	0.792267	city	5	1	0.794299	0.794299	0	1	0	0	CorrectCommission	0.593803	0.714232	1	1
157.379593	0.792263	city	6	1	0.698987	0.698987	0	1	0	0	CorrectCommission	0.139775	0.729525	0	1
158.171844	0.792262	city	5	1	0.546704	0.546704	0	1	0	0	CorrectCommission	1.311844	0.743451	0	1
158.964111	0.792264	mountain	10	1	0.662833	0.662833	0	0	1	0	CommissionError	0.418043	0.754967	0	1
159.756378	0.792268	mountain	7	0	0.000000	0.869586	1	0	0	0	CorrectOmission	1.173264	0.763205	0	1
160.548645	0.792261	city	5	1	0.955113	0.955113	0	1	0	0	CorrectCommission	1.831532	0.767487	0	1
161.340912	0.792265	city	8	1	0.707561	0.707561	0	1	0	0	CorrectCommission	0.073784	0.767391	0	1
162.133209	0.792335	city	6	1	0.647274	0.647274	0	1	0	0	CorrectCommission	0.537793	0.762826	0	1
162.925461	0.792193	city	7	1	0.613609	0.613609	0	1	0	0	CorrectCommission	0.796902	0.753973	0	1
163.717697	0.792267	city	8	1	0.598929	0.598929	0	1	0	0	CorrectCommission	0.909884	0.741319	0	1
164.509964	0.792268	city	6	1	0.560617	0.560617	0	1	0	0	CorrectCommission	1.204757	0.725636	0	1
165.302261	0.792317	city	8	1	0.645888	0.645888	0	1	0	0	CorrectCommission	0.548460	0.707900	1	1
166.094528	0.792210	city	4	1	0.850807	0.850807	0	1	0	0	CorrectCommission	1.028727	0.689237	1	1
166.886765	0.792264	city	5	1	0.695808	0.695808	0	1	0	0	CorrectCommission	0.164241	0.670810	1	1
167.679138	0.792482	mountain	5	0	0.000000	0.751846	1	0	0	0	CorrectOmission	0.267058	0.653758	1	1
168.471405	0.792067	city	6	1	0.843591	0.843591	0	1	0	0	CorrectCommission	0.973185	0.639066	1	1
169.263672	0.792462	city	5	1	0.795715	0.795715	0	1	0	0	CorrectCommission	0.604705	0.627490	1	1
170.055923	0.792048	city	1	1	0.806811	0.806811	0	1	0	0	CorrectCommission	0.690105	0.619539	1	1
170.848083	0.792265	city	9	1	0.752311	0.752311	0	1	0	0	CorrectCommission	0.270638	0.615420	1	1
171.640350	0.792263	city	1	1	0.695262	0.695262	0	1	0	0	CorrectCommission	0.168443	0.615071	1	1
172.432617	0.792265	mountain	5	0	0.000000	0.802488	1	0	0	0	CorrectOmission	0.656831	0.618162	1	1
173.224884	0.792269	city	1	1	0.858038	0.858038	0	1	0	0	CorrectCommission	1.084383	0.624203	1	1
174.017258	0.792479	city	4	1	0.645966	0.645966	0	1	0	0	CorrectCommission	0.547863	0.632643	1	1
174.809616	0.792263	city	1	1	0.661493	0.661493	0	1	0	0	CorrectCommission	0.428357	0.642935	1	1
175.601791	0.792063	city	5	1	0.600891	0.600891	0	1	0	0	CorrectCommission	0.894789	0.654613	1	1
176.393936	0.792248	city	1	1	0.653022	0.653022	0	1	0	0	CorrectCommission	0.493556	0.667380	1	1
177.186203	0.792265	mountain	7	0	0.000000	0.790252	1	0	0	0	CorrectOmission	0.562659	0.681120	1	1
177.978470	0.792269	city	9	1	0.844058	0.844058	0	1	0	0	CorrectCommission	0.976779	0.695909	1	1
178.770782	0.792370	city	5	1	0.645913	0.645913	0	1	0	0	CorrectCommission	0.548271	0.711968	1	1
179.563049	0.792156	city	1	1	0.607736	0.607736	0	1	0	0	CorrectCommission	0.842104	0.729614	0	1
180.355255	0.792266	city	10	1	0.596650	0.596650	0	1	0	0	CorrectCommission	0.927427	0.749124	0	1
181.147583	0.792374	city	3	1	0.794825	0.794825	0	1	0	0	CorrectCommission	0.597854	0.770638	0	1
181.939850	0.792179	city	6	1	0.803810	0.803810	0	1	0	0	CorrectCommission	0.667009	0.794051	0	1
182.732071	0.792240	city	1	1	0.660053	0.660053	0	1	0	0	CorrectCommission	0.439439	0.818954	0	1
183.524429	0.792482	city	7	1	0.794319	0.794319	0	1	0	0	CorrectCommission	0.593956	0.844560	0	1
184.316803	0.792264	city	3	1	0.794091	0.794091	0	1	0	0	CorrectCommission	0.592206	0.869786	0	1
185.108963	0.792068	city	7	1	0.897226	0.897226	0	1	0	0	CorrectCommission	1.385995	0.893328	0	1
185.901138	0.792271	city	8	1	0.943265	0.943265	0	1	0	0	CorrectCommission	1.740343	0.913790	0	1
186.693436	0.792347	mountain	10	0	0.000000	0.832903	1	0	0	0	CorrectOmission	0.890929	0.929882	0	0
187.485748	0.792266	city	6	1	0.744819	0.744819	0	1	0	0	CorrectCommission	0.212972	0.940580	0	0
188.277954	0.792156	city	1	1	0.857689	0.857689	0	1	0	0	CorrectCommission	1.081691	0.945236	0	0
189.070175	0.792267	city	7	1	1.041874	1.041874	0	1	0	0	CorrectCommission	2.499295	0.943616	0	0
189.862442	0.792262	city	10	1	0.744822	0.744822	0	1	0	0	CorrectCommission	0.212998	0.935937	0	0
190.654694	0.792264	city	9	1	0.607720	0.607720	0	1	0	0	CorrectCommission	0.842228	0.922884	0	0
191.447006	0.792354	city	5	1	0.552467	0.552467	0	1	0	0	CorrectCommission	1.267489	0.905402	0	0
192.239273	0.792184	city	8	1	0.744720	0.744720	0	1	0	0	CorrectCommission	0.212216	0.884635	0	0
193.031601	0.792474	city	10	1	0.952489	0.952489	0	1	0	0	CorrectCommission	1.811332	0.861816	0	0
193.823868	0.792051	city	8	1	0.696123	0.696123	0	1	0	0	CorrectCommission	0.161819	0.838083	0	0
194.616028	0.792274	city	7	1	0.614681	0.614681	0	1	0	0	CorrectCommission	0.788647	0.814447	0	0
195.408295	0.792251	city	2	1	0.596225	0.596225	0	1	0	0	CorrectCommission	0.930702	0.791660	0	0
196.200546	0.792265	city	10	1	0.645924	0.645924	0	1	0	0	CorrectCommission	0.548183	0.770240	0	0
196.992828	0.792279	city	1	1	0.794473	0.794473	0	1	0	0	CorrectCommission	0.595146	0.750474	0	0
197.785095	0.792257	city	4	1	0.893472	0.893472	0	1	0	0	CorrectCommission	1.357106	0.732445	0	0
198.577347	0.792258	city	6	1	0.744757	0.744757	0	1	0	0	CorrectCommission	0.212496	0.716087	1	0
199.369644	0.792319	city	3	1	0.646014	0.646014	0	1	0	0	CorrectCommission	0.547488	0.701291	1	0
200.162018	0.792427	city	6	1	0.645896	0.645896	0	1	0	0	CorrectCommission	0.548400	0.687895	1	0
200.954254	0.792050	city	1	1	0.595962	0.595962	0	1	0	0	CorrectCommission	0.932726	0.675752	1	0
201.746399	0.792261	city	10	1	0.844010	0.844010	0	1	0	0	CorrectCommission	0.976414	0.664750	1	0
202.538696	0.792320	city	8	1	0.615917	0.615917	0	1	0	0	CorrectCommission	0.779135	0.654811	1	0
203.331009	0.792317	city	5	1	0.645791	0.645791	0	1	0	0	CorrectCommission	0.549206	0.645870	1	0
204.123260	0.792162	city	1	1	0.697218	0.697218	0	1	0	0	CorrectCommission	0.153391	0.637853	1	0
204.915573	0.792478	city	10	1	0.813027	0.813027	0	1	0	0	CorrectCommission	0.737945	0.630665	1	0
205.707947	0.792264	city	6	1	0.794058	0.794058	0	1	0	0	CorrectCommission	0.591950	0.624137	1	0
206.500214	0.792266	city	5	1	0.744719	0.744719	0	1	0	0	CorrectCommission	0.212203	0.618074	1	0
207.292374	0.792054	city	3	1	0.754184	0.754184	0	1	0	0	CorrectCommission	0.285052	0.612379	1	0
208.084518	0.792257	city	5	1	0.851029	0.851029	0	1	0	0	CorrectCommission	1.030432	0.607035	1	0
208.876846	0.792374	city	6	1	0.992358	0.992358	0	1	0	0	CorrectCommission	2.118195	0.602167	1	0
209.669113	0.792158	city	1	1	0.707236	0.707236	0	1	0	0	CorrectCommission	0.076290	0.598105	1	0
210.461365	0.792344	mountain	7	0	0.000000	0.651418	1	0	0	0	CorrectOmission	0.505900	0.595345	1	0
211.253723	0.792400	city	2	1	0.695225	0.695225	0	1	0	0	CorrectCommission	0.168733	0.594408	1	0
212.046005	0.792156	city	9	1	0.708977	0.708977	0	1	0	0	CorrectCommission	0.062889	0.595774	1	0
212.838211	0.792264	city	8	1	0.695169	0.695169	0	1	0	0	CorrectCommission	0.169166	0.599739	1	0
213.630478	0.792266	city	1	1	0.808317	0.808317	0	1	0	0	CorrectCommission	0.701697	0.606372	1	0
214.422699	0.792156	city	10	1	0.843931	0.843931	0	1	0	0	CorrectCommission	0.975807	0.615493	1	0
215.214905	0.792265	mountain	4	0	0.000000	0.851044	1	0	0	0	CorrectOmission	1.030553	0.626676	1	0
216.007172	0.792263	city	10	1	0.796130	0.796130	0	1	0	0	CorrectCommission	0.607896	0.639340	1	0
216.799438	0.792265	city	5	1	0.645662	0.645662	0	1	0	0	CorrectCommission	0.550200	0.652800	1	0
217.591690	0.792264	city	6	1	0.794321	0.794321	0	1	0	0	CorrectCommission	0.593976	0.666278	1	0
218.383957	0.792271	city	9	1	0.645700	0.645700	0	1	0	0	CorrectCommission	0.549907	0.678947	1	0
219.176346	0.792484	city	8	1	0.645768	0.645768	0	1	0	0	CorrectCommission	0.549382	0.689970	1	0
219.968597	0.792040	city	7	1	0.596024	0.596024	0	1	0	0	CorrectCommission	0.932242	0.698538	1	0
220.760818	0.792376	city	3	1	0.646004	0.646004	0	1	0	0	CorrectCommission	0.547570	0.703920	1	0
221.553070	0.792156	city	4	1	0.798042	0.798042	0	1	0	0	CorrectCommission	0.622614	0.705598	1	0
222.345291	0.792267	city	5	1	0.909342	0.909342	0	1	0	0	CorrectCommission	1.479250	0.703333	1	0
223.137558	0.792260	mountain	5	0	0.000000	0.814068	1	0	0	0	CorrectOmission	0.745956	0.697288	1	0
223.929810	0.792269	city	3	1	0.662684	0.662684	0	1	0	0	CorrectCommission	0.419191	0.688153	1	0
224.722183	0.792478	city	2	1	0.605656	0.605656	0	1	0	0	CorrectCommission	0.858114	0.677177	1	0
225.514465	0.792061	city	8	1	0.595984	0.595984	0	1	0	0	CorrectCommission	0.932550	0.666114	1	0
226.306641	0.792303	city	9	1	0.645737	0.645737	0	1	0	0	CorrectCommission	0.549623	0.657163	1	0
227.098907	0.792215	city	1	1	0.596333	0.596333	0	1	0	0	CorrectCommission	0.929865	0.652816	1	0
227.891144	0.792265	city	7	1	0.695663	0.695663	0	1	0	0	CorrectCommission	0.165361	0.655510	1	0
228.683411	0.792267	city	4	1	0.696929	0.696929	0	1	0	0	CorrectCommission	0.155615	0.667387	1	0
229.475677	0.792277	city	8	1	0.799206	0.799206	0	1	0	0	CorrectCommission	0.631574	0.689957	1	0
230.267944	0.792247	city	1	1	0.752150	0.752150	0	1	0	0	CorrectCommission	0.269395	0.723828	0	0
231.060196	0.792268	city	6	1	0.699346	0.699346	0	1	0	0	CorrectCommission	0.137013	0.768534	0	0
231.852478	0.792281	city	7	1	0.558470	0.558470	0	1	0	0	CorrectCommission	1.221286	0.822444	0	0
232.644791	0.792355	city	6	1	0.657888	0.657888	0	1	0	0	CorrectCommission	0.456103	0.882804	0	0
233.437149	0.792373	city	4	1	0.645658	0.645658	0	1	0	0	CorrectCommission	0.550230	0.945985	0	0
234.229370	0.792052	city	6	1	0.605437	0.605437	0	1	0	0	CorrectCommission	0.859800	1.007750	0	0
235.021576	0.792371	city	9	1	0.546709	0.546709	0	1	0	0	CorrectCommission	1.311802	1.063674	0	0
235.813843	0.792154	city	1	1	0.497102	0.497102	0	1	0	0	CorrectCommission	1.693615	1.109589	0	0
236.606049	0.792269	city	6	1	0.452846	0.452846	0	1	0	0	CorrectCommission	2.034231	1.141993	0	0
237.398315	0.792265	mountain	3	0	0.000000	0.421109	1	0	0	0	CorrectOmission	2.278499	1.158352	0	0
238.190643	0.792368	city	2	1	0.464501	0.464501	0	1	0	0	CorrectCommission	1.944526	1.157323	0	0
238.982895	0.792156	city	4	1	0.645633	0.645633	0	1	0	0	CorrectCommission	0.550421	1.138835	0	0
239.775146	0.792353	city	6	1	0.796378	0.796378	0	1	0	0	CorrectCommission	0.609808	1.104034	0	0
240.567429	0.792212	city	5	1	0.751699	0.751699	0	1	0	0	CorrectCommission	0.265926	1.055133	0	0
241.359711	0.792344	city	6	1	0.942954	0.942954	0	1	0	0	CorrectCommission	1.737948	0.995261	0	0
242.151962	0.792149	city	2	1	1.056376	1.056376	0	1	0	0	CorrectCommission	2.610917	0.928215	0	0
242.944168	0.792265	city	7	1	0.856382	0.856382	0	1	0	0	CorrectCommission	1.071636	0.858306	0	0
243.736435	0.792266	city	1	1	0.702190	0.702190	0	1	0	0	CorrectCommission	0.115121	0.790128	0	0
244.528748	0.792374	city	3	1	0.695413	0.695413	0	1	0	0	CorrectCommission	0.167285	0.728222	0	0
245.321075	0.792264	city	6	1	0.744700	0.744700	0	1	0	0	CorrectCommission	0.212057	0.676743	1	0
246.113281	0.792158	city	8	1	0.695457	0.695457	0	1	0	0	CorrectCommission	0.166946	0.639189	1	1
246.905502	0.792264	city	7	1	0.695585	0.695585	0	1	0	0	CorrectCommission	0.165960	0.618096	1	1
247.697815	0.792371	city	4	1	0.812489	0.812489	0	1	0	0	CorrectCommission	0.733810	0.614850	1	1
248.490097	0.792211	city	6	1	0.708857	0.708857	0	1	0	0	CorrectCommission	0.063809	0.629593	1	1
249.282364	0.792319	city	2	1	0.695235	0.695235	0	1	0	0	CorrectCommission	0.168655	0.661289	1	1
250.074631	0.792219	city	10	1	0.695215	0.695215	0	1	0	0	CorrectCommission	0.168805	0.707923	1	1
250.866852	0.792203	city	8	1	0.596311	0.596311	0	1	0	0	CorrectCommission	0.930040	0.766820	0	1
251.659195	0.792481	city	2	1	0.596556	0.596556	0	1	0	0	CorrectCommission	0.928153	0.835029	0	1
252.451462	0.792052	city	6	1	0.655266	0.655266	0	1	0	0	CorrectCommission	0.476284	0.909754	0	1
253.243729	0.792478	city	5	1	0.807221	0.807221	0	1	0	0	CorrectCommission	0.693263	0.988711	0	1
254.035995	0.792080	city	1	1	0.947658	0.947658	0	1	0	0	CorrectCommission	1.774151	1.070301	0	1
254.828156	0.792234	city	3	1	1.041838	1.041838	0	1	0	0	CorrectCommission	2.499019	1.153611	0	1
255.620407	0.792261	city	8	1	0.992377	0.992377	0	1	0	0	CorrectCommission	2.118341	1.238222	0	1
256.412720	0.792376	city	6	1	0.844471	0.844471	0	1	0	0	CorrectCommission	0.979962	1.323852	0	1
257.205109	0.792371	city	2	1	0.697581	0.697581	0	1	0	0	CorrectCommission	0.150600	1.409741	0	1
257.997406	0.792266	city	8	1	0.609691	0.609691	0	1	0	0	CorrectCommission	0.827057	1.494211	0	1
258.789581	0.792084	city	2	1	0.800630	0.800630	0	1	0	0	CorrectCommission	0.642532	1.574237	0	1
259.581757	0.792232	city	9	1	0.896431	0.896431	0	1	0	0	CorrectCommission	1.379878	1.645519	0	1
260.374115	0.792484	city	5	1	0.794313	0.794313	0	1	0	0	CorrectCommission	0.593915	1.702828	0	1
261.166473	0.792259	city	2	1	1.041675	1.041675	0	1	0	0	CorrectCommission	2.497767	1.740765	0	1
261.958740	0.792264	city	7	1	1.191367	1.191367	0	1	0	0	CorrectCommission	3.649888	1.754589	0	1
262.750946	0.792157	city	5	1	1.289275	1.289275	0	1	0	0	CorrectCommission	4.403450	1.741198	0	1
263.543152	0.792263	mountain	10	0	0.000000	1.220512	1	0	0	0	CorrectOmission	3.874206	1.699844	0	1
264.335419	0.792265	mountain	1	0	0.000000	1.053187	1	0	0	0	CorrectOmission	2.586367	1.632435	0	1
265.127686	0.792265	city	3	1	0.855409	0.855409	0	1	0	0	CorrectCommission	1.064149	1.543377	0	1
265.919922	0.792178	city	8	1	0.695289	0.695289	0	1	0	0	CorrectCommission	0.168237	1.438982	0	1
266.712128	0.792246	city	7	1	0.695263	0.695263	0	1	0	0	CorrectCommission	0.168441	1.326556	0	1
267.504486	0.792479	city	8	1	0.695260	0.695260	0	1	0	0	CorrectCommission	0.168464	1.213431	0	1
268.296753	0.792072	city	5	1	0.893178	0.893178	0	1	0	0	CorrectCommission	1.354842	1.106090	0	1
269.088928	0.792285	city	6	1	0.858058	0.858058	0	1	0	0	CorrectCommission	1.084536	1.009535	0	1
269.881287	0.792438	city	7	1	0.744884	0.744884	0	1	0	0	CorrectCommission	0.213473	0.927008	0	1
270.673553	0.792082	city	1	1	0.695525	0.695525	0	1	0	0	CorrectCommission	0.166424	0.859983	0	1
271.465820	0.792447	city	5	1	0.942840	0.942840	0	1	0	0	CorrectCommission	1.737070	0.808394	0	1
272.258118	0.792121	city	10	1	0.745029	0.745029	0	1	0	0	CorrectCommission	0.214593	0.770996	0	1
273.050262	0.792198	city	6	1	0.942804	0.942804	0	1	0	0	CorrectCommission	1.736796	0.745840	0	1
273.842499	0.792262	city	9	1	0.712519	0.712519	0	1	0	0	CorrectCommission	0.035627	0.730612	0	1
274.634827	0.792371	city	8	1	0.697834	0.697834	0	1	0	0	CorrectCommission	0.148654	0.723052	0	1
275.427063	0.792155	city	2	1	0.744785	0.744785	0	1	0	0	CorrectCommission	0.212716	0.721080	0	1
276.219391	0.792482	city	1	1	0.794365	0.794365	0	1	0	0	CorrectCommission	0.594309	0.723045	0	1
277.011719	0.792156	city	5	1	0.893243	0.893243	0	1	0	0	CorrectCommission	1.355337	0.727792	0	1
277.803864	0.792158	city	10	1	0.844638	0.844638	0	1	0	0	CorrectCommission	0.981245	0.734718	0	1
278.596069	0.792263	city	1	1	0.902842	0.902842	0	1	0	0	CorrectCommission	1.429219	0.743727	0	1
279.388336	0.792264	city	3	0	0.000000	0.754021	0	0	0	1	OmissionError	0.283796	0.755065	0	1
280.180664	0.792374	city	8	1	0.596234	0.596234	0	1	0	0	CorrectCommission	0.930630	0.769164	0	1
280.972931	0.792137	mountain	1	0	0.000000	0.627541	1	0	0	0	CorrectOmission	0.689668	0.786333	0	1
281.765228	0.792499	city	1	1	0.695321	0.695321	0	1	0	0	CorrectCommission	0.167991	0.806531	0	1
282.557617	0.792264	city	7	1	0.646951	0.646951	0	1	0	0	CorrectCommission	0.540278	0.829112	0	1
283.349762	0.792046	mountain	7	0	0.000000	0.790326	1	0	0	0	CorrectOmission	0.563226	0.852665	0	1
284.142029	0.792483	city	6	1	0.898514	0.898514	0	1	0	0	CorrectCommission	1.395913	0.875051	0	1
284.934296	0.792052	city	4	1	0.744585	0.744585	0	1	0	0	CorrectCommission	0.211176	0.893581	0	1
285.726471	0.792264	city	10	1	0.695200	0.695200	0	1	0	0	CorrectCommission	0.168926	0.905395	0	1
286.518799	0.792369	city	8	1	0.942862	0.942862	0	1	0	0	CorrectCommission	1.737242	0.907864	0	1
287.311157	0.792373	city	10	1	1.105264	1.105264	0	1	0	0	CorrectCommission	2.987184	0.899058	0	1
288.103363	0.792051	city	6	0	0.000000	0.820790	0	0	0	1	OmissionError	0.797693	0.878141	0	1
288.895538	0.792296	city	9	1	0.497196	0.497196	0	1	0	0	CorrectCommission	1.692885	0.845598	0	1
289.687805	0.792228	mountain	2	0	0.000000	0.542239	1	0	0	0	CorrectOmission	1.346206	0.803164	0	1
290.480042	0.792266	city	7	1	0.695276	0.695276	0	1	0	0	CorrectCommission	0.168341	0.753613	0	1
291.272369	0.792373	city	1	1	0.695662	0.695662	0	1	0	0	CorrectCommission	0.165364	0.700402	1	1
292.064636	0.792166	city	5	1	0.695221	0.695221	0	1	0	0	CorrectCommission	0.168765	0.647110	1	1
292.856903	0.792364	city	3	1	0.702327	0.702327	0	1	0	0	CorrectCommission	0.114073	0.596998	1	1
293.649261	0.792373	city	4	1	0.645635	0.645635	0	1	0	0	CorrectCommission	0.550407	0.552638	1	1
294.441498	0.792047	city	6	1	0.695103	0.695103	0	1	0	0	CorrectCommission	0.169671	0.515672	1	1
295.233734	0.792482	city	2	1	0.695257	0.695257	0	1	0	0	CorrectCommission	0.168488	0.486837	1	1
296.026062	0.792158	city	4	1	0.796524	0.796524	0	1	0	0	CorrectCommission	0.610927	0.466050	1	1
296.818237	0.792196	city	7	1	0.843693	0.843693	0	1	0	0	CorrectCommission	0.973969	0.452643	1	1
297.610443	0.792227	city	10	1	0.794251	0.794251	0	1	0	0	CorrectCommission	0.593439	0.445594	1	1
298.402710	0.792264	city	6	1	0.745806	0.745806	0	1	0	0	CorrectCommission	0.220572	0.443784	1	1
299.194977	0.792263	city	3	1	0.695419	0.695419	0	1	0	0	CorrectCommission	0.167237	0.446145	1	1
299.987244	0.792263	city	2	1	0.695341	0.695341	0	1	0	0	CorrectCommission	0.167842	0.451725	1	1
300.779480	0.792263	city	6	1	0.763037	0.763037	0	1	0	0	CorrectCommission	0.353194	0.459748	1	1
301.571747	0.792269	city	4	1	0.660684	0.660684	0	1	0	0	CorrectCommission	0.434582	0.469556	1	1
302.364014	0.792260	city	9	1	0.603314	0.603314	0	1	0	0	CorrectCommission	0.876136	0.480607	1	1
303.156281	0.792267	city	3	1	0.596292	0.596292	0	1	0	0	CorrectCommission	0.930183	0.492377	1	1
303.948578	0.792319	city	8	1	0.660007	0.660007	0	1	0	0	CorrectCommission	0.439791	0.504314	1	1
304.740906	0.792319	city	10	1	0.695220	0.695220	0	1	0	0	CorrectCommission	0.168767	0.515778	1	1
305.533142	0.792159	city	2	1	0.713433	0.713433	0	1	0	0	CorrectCommission	0.028588	0.526080	1	0
306.325348	0.792268	mountain	4	0	0.000000	0.747806	1	0	0	0	CorrectOmission	0.235965	0.534467	1	0
307.117615	0.792258	city	1	1	0.801485	0.801485	0	1	0	0	CorrectCommission	0.649115	0.540189	1	0
307.909973	0.792482	mountain	5	0	0.000000	0.877618	1	0	0	0	CorrectOmission	1.235079	0.542628	1	0
308.702271	0.792118	city	7	1	0.900529	0.900529	0	1	0	0	CorrectCommission	1.411420	0.541352	1	0
309.494537	0.792412	city	6	1	0.794545	0.794545	0	1	0	0	CorrectCommission	0.595695	0.536195	1	0
310.286804	0.792074	mountain	5	0	0.000000	0.753997	1	0	0	0	CorrectOmission	0.283618	0.527292	1	0
311.079010	0.792347	city	5	1	0.745259	0.745259	0	1	0	0	CorrectCommission	0.216361	0.515003	1	0
311.871246	0.792157	mountain	8	0	0.000000	0.734700	1	0	0	0	CorrectOmission	0.135096	0.499867	1	0
312.663452	0.792263	city	10	1	0.752083	0.752083	0	1	0	0	CorrectCommission	0.268881	0.482532	1	0
313.455719	0.792268	mountain	8	0	0.000000	0.827166	1	0	0	0	CorrectOmission	0.846771	0.463674	1	0
314.248047	0.792369	city	4	1	0.846208	0.846208	0	1	0	0	CorrectCommission	0.993332	0.443943	1	0
315.040314	0.792159	city	10	1	0.695467	0.695467	0	1	0	0	CorrectCommission	0.166872	0.423972	1	0
315.832581	0.792372	city	8	1	0.645766	0.645766	0	1	0	0	CorrectCommission	0.549401	0.404384	1	0
316.624939	0.792373	city	4	1	0.744844	0.744844	0	1	0	0	CorrectCommission	0.213164	0.385745	1	0
317.417145	0.792046	city	6	1	0.749261	0.749261	0	1	0	0	CorrectCommission	0.247167	0.368597	1	0
318.209381	0.792375	city	2	1	0.708893	0.708893	0	1	0	0	CorrectCommission	0.063533	0.353406	1	0
319.001740	0.792372	city	4	1	0.794172	0.794172	0	1	0	0	CorrectCommission	0.592829	0.340570	1	0
319.793945	0.792048	city	6	1	0.745044	0.745044	0	1	0	0	CorrectCommission	0.214711	0.330357	1	0
320.586151	0.792375	city	1	1	0.697333	0.697333	0	1	0	0	CorrectCommission	0.152510	0.322934	1	0
321.378479	0.792263	city	4	1	0.654956	0.654956	0	1	0	0	CorrectCommission	0.478671	0.318335	1	0
322.170807	0.792374	mountain	6	0	0.000000	0.725987	1	0	0	0	CorrectOmission	0.068034	0.316454	1	0
322.963013	0.792050	city	9	1	0.794550	0.794550	0	1	0	0	CorrectCommission	0.595733	0.317052	1	0
323.755188	0.792299	city	10	1	0.744764	0.744764	0	1	0	0	CorrectCommission	0.212554	0.319741	1	0
324.547516	0.792337	city	7	1	0.744764	0.744764	0	1	0	0	CorrectCommission	0.212548	0.324017	1	0
325.339783	0.792219	city	9	1	0.744680	0.744680	0	1	0	0	CorrectCommission	0.211904	0.329265	1	0
326.132019	0.792225	city	4	1	0.744877	0.744877	0	1	0	0	CorrectCommission	0.213422	0.334826	1	0
326.924286	0.792350	city	2	1	0.699237	0.699237	0	1	0	0	CorrectCommission	0.137855	0.340073	1	0
327.716553	0.792162	city	4	1	0.794590	0.794590	0	1	0	0	CorrectCommission	0.596042	0.344501	1	0
328.508759	0.792259	mountain	9	0	0.000000	0.826846	1	0	0	0	CorrectOmission	0.844306	0.347782	1	0
329.301025	0.792265	city	4	1	0.794340	0.794340	0	1	0	0	CorrectCommission	0.594116	0.349845	1	0
330.093384	0.792481	city	6	1	0.695405	0.695405	0	1	0	0	CorrectCommission	0.167349	0.350892	1	0
330.885712	0.792154	city	9	1	0.695602	0.695602	0	1	0	0	CorrectCommission	0.165828	0.351384	1	0
331.677887	0.792219	city	3	1	0.744655	0.744655	0	1	0	0	CorrectCommission	0.211713	0.351968	1	0
332.470123	0.792203	city	8	1	0.645712	0.645712	0	1	0	0	CorrectCommission	0.549815	0.353438	1	0
333.262451	0.792482	city	2	1	0.695348	0.695348	0	1	0	0	CorrectCommission	0.167781	0.356629	1	0
334.054718	0.792048	city	8	1	0.645674	0.645674	0	1	0	0	CorrectCommission	0.550105	0.362384	1	0
334.846863	0.792265	city	7	1	0.705995	0.705995	0	1	0	0	CorrectCommission	0.085836	0.371422	1	0
335.639191	0.792371	city	2	1	0.695289	0.695289	0	1	0	0	CorrectCommission	0.168236	0.384406	1	0
336.431519	0.792267	city	6	1	0.744700	0.744700	0	1	0	0	CorrectCommission	0.212059	0.401869	1	0
337.223846	0.792372	city	1	1	0.645789	0.645789	0	1	0	0	CorrectCommission	0.549221	0.424249	1	0
338.016052	0.792053	city	6	1	0.744554	0.744554	0	1	0	0	CorrectCommission	0.210933	0.451862	1	0
338.808319	0.792478	city	10	1	0.598739	0.598739	0	1	0	0	CorrectCommission	0.911351	0.484891	1	0
339.600677	0.792262	mountain	4	0	0.000000	0.612810	1	0	0	0	CorrectOmission	0.803047	0.523280	1	0
340.392822	0.792051	city	1	1	0.695337	0.695337	0	1	0	0	CorrectCommission	0.167869	0.566657	1	0
341.185059	0.792372	city	10	1	0.754887	0.754887	0	1	0	0	CorrectCommission	0.290466	0.614246	1	0
341.977417	0.792373	city	7	1	0.708823	0.708823	0	1	0	0	CorrectCommission	0.064072	0.664728	1	0
342.769745	0.792265	city	6	1	0.645751	0.645751	0	1	0	0	CorrectCommission	0.549513	0.716221	0	0
343.561951	0.792155	city	1	1	0.596159	0.596159	0	1	0	0	CorrectCommission	0.931205	0.766340	0	0
344.354095	0.792157	city	8	1	0.565328	0.565328	0	1	0	0	CorrectCommission	1.168501	0.812390	0	0
345.146332	0.792266	city	4	1	0.596207	0.596207	0	1	0	0	CorrectCommission	0.930837	0.851612	0	0
345.938690	0.792480	city	6	1	0.565806	0.565806	0	1	0	0	CorrectCommission	1.164819	0.881536	0	0
346.730957	0.792047	city	1	1	0.598497	0.598497	0	1	0	0	CorrectCommission	0.913211	0.900295	0	0
347.523224	0.792482	city	8	1	0.551785	0.551785	0	1	0	0	CorrectCommission	1.272739	0.906928	0	0
348.315491	0.792046	city	9	1	0.497047	0.497047	0	1	0	0	CorrectCommission	1.694032	0.901510	0	0
349.107758	0.792483	mountain	8	1	0.412229	0.412229	0	0	1	0	CommissionError	2.346845	0.885188	0	0
349.900055	0.792158	city	9	1	0.700288	0.700288	0	1	0	0	CorrectCommission	0.129765	0.860019	0	0
350.700470	0.808660	city	7	1	0.811334	0.811334	0	1	0	0	CorrectCommission	0.724918	0.828725	0	0
351.500946	0.792303	city	2	1	0.794393	0.794393	0	1	0	0	CorrectCommission	0.594525	0.794191	0	0
352.293213	0.792226	city	1	1	0.657092	0.657092	0	1	0	0	CorrectCommission	0.462226	0.759134	0	0
353.085510	0.792372	city	10	1	0.695349	0.695349	0	1	0	0	CorrectCommission	0.167774	0.725746	0	0
353.877808	0.792191	city	4	1	0.744735	0.744735	0	1	0	0	CorrectCommission	0.212327	0.695500	1	0
354.670013	0.792233	city	3	1	0.704637	0.704637	0	1	0	0	CorrectCommission	0.096293	0.669118	1	0
355.462311	0.792334	city	2	1	0.794381	0.794381	0	1	0	0	CorrectCommission	0.594433	0.646714	1	0
356.254578	0.792193	city	5	1	0.942825	0.942825	0	1	0	0	CorrectCommission	1.736953	0.628063	1	0
357.046783	0.792269	city	6	1	0.952030	0.952030	0	1	0	0	CorrectCommission	1.807802	0.612907	1	0
357.839050	0.792261	city	4	1	0.745119	0.745119	0	1	0	0	CorrectCommission	0.215281	0.601262	1	0
358.631378	0.792373	city	8	1	0.711405	0.711405	0	1	0	0	CorrectCommission	0.044197	0.593574	1	0
359.423645	0.792156	city	9	1	0.751925	0.751925	0	1	0	0	CorrectCommission	0.267666	0.590654	1	0
360.215912	0.792373	city	8	1	0.695258	0.695258	0	1	0	0	CorrectCommission	0.168475	0.593575	1	0
361.008179	0.792192	city	5	1	0.650721	0.650721	0	1	0	0	CorrectCommission	0.511263	0.603454	1	0
361.800385	0.792229	city	6	1	0.843776	0.843776	0	1	0	0	CorrectCommission	0.974610	0.621140	1	0
362.592651	0.792265	city	5	1	0.799783	0.799783	0	1	0	0	CorrectCommission	0.636014	0.646964	1	0
363.384918	0.792268	mountain	10	1	0.696030	0.696030	0	0	1	0	CommissionError	0.162535	0.680494	1	0
364.177185	0.792264	city	7	1	0.744958	0.744958	0	1	0	0	CorrectCommission	0.214043	0.720420	0	0
364.969452	0.792264	city	8	1	0.843892	0.843892	0	1	0	0	CorrectCommission	0.975501	0.764545	0	1
365.761688	0.792247	city	7	1	0.697690	0.697690	0	1	0	0	CorrectCommission	0.149756	0.809945	0	1
366.553955	0.792283	city	6	1	0.645773	0.645773	0	1	0	0	CorrectCommission	0.549349	0.853302	0	1
367.346344	0.792481	city	4	1	0.596293	0.596293	0	1	0	0	CorrectCommission	0.930172	0.891341	0	1
368.138611	0.792050	city	3	1	0.497870	0.497870	0	1	0	0	CorrectCommission	1.687700	0.921295	0	1
368.930786	0.792318	mountain	5	1	0.411811	0.411811	0	0	1	0	CommissionError	2.350063	0.941392	0	1
369.723083	0.792263	city	5	1	1.041804	1.041804	0	1	0	0	CorrectCommission	2.498756	0.951206	0	1
370.515320	0.792213	city	10	1	0.794168	0.794168	0	1	0	0	CorrectCommission	0.592794	0.951836	0	1
371.307556	0.792265	city	1	1	0.744775	0.744775	0	1	0	0	CorrectCommission	0.212639	0.945875	0	1
372.099884	0.792371	city	4	1	0.744724	0.744724	0	1	0	0	CorrectCommission	0.212246	0.937099	0	1
372.892242	0.792373	mountain	2	0	0.000000	0.841947	1	0	0	0	CorrectOmission	0.960533	0.930051	0	1
373.684448	0.792050	city	1	1	0.907018	0.907018	0	1	0	0	CorrectCommission	1.461361	0.929456	0	1
374.476654	0.792317	city	10	1	0.810512	0.810512	0	1	0	0	CorrectCommission	0.718594	0.939641	0	1
375.268921	0.792213	city	1	1	0.761363	0.761363	0	1	0	0	CorrectCommission	0.340306	0.963995	0	1
376.061249	0.792478	city	2	1	0.794286	0.794286	0	1	0	0	CorrectCommission	0.593706	1.004392	0	1
376.853516	0.792051	city	9	1	0.744553	0.744553	0	1	0	0	CorrectCommission	0.210928	1.060882	0	1
377.645691	0.792276	city	5	1	0.847016	0.847016	0	1	0	0	CorrectCommission	0.999550	1.131496	0	1
378.437958	0.792251	city	10	1	0.794801	0.794801	0	1	0	0	CorrectCommission	0.597668	1.212280	0	1
379.230316	0.792481	city	4	1	0.645734	0.645734	0	1	0	0	CorrectCommission	0.549645	1.297693	0	1
380.022583	0.792050	city	3	1	0.546653	0.546653	0	1	0	0	CorrectCommission	1.312237	1.381147	0	1
380.814728	0.792264	city	8	1	0.447735	0.447735	0	1	0	0	CorrectCommission	2.073570	1.455781	0	1
381.606995	0.792265	city	10	1	0.416738	0.416738	0	1	0	0	CorrectCommission	2.312146	1.515329	0	1
382.399384	0.792480	city	7	1	0.351024	0.351024	0	1	0	0	CorrectCommission	2.817916	1.554929	0	1
383.191650	0.792048	city	5	1	1.041808	1.041808	0	1	0	0	CorrectCommission	2.498793	1.571736	0	1
383.983795	0.792267	city	2	1	1.091387	1.091387	0	1	0	0	CorrectCommission	2.880380	1.565267	0	1
384.776123	0.792370	city	8	1	1.042240	1.042240	0	1	0	0	CorrectCommission	2.502112	1.537314	0	1
385.568359	0.792155	city	6	1	0.912142	0.912142	0	1	0	0	CorrectCommission	1.500799	1.491618	0	1
386.360596	0.792270	city	3	1	0.794338	0.794338	0	1	0	0	CorrectCommission	0.594103	1.433172	0	1
387.152893	0.792370	city	10	1	0.655218	0.655218	0	1	0	0	CorrectCommission	0.476648	1.367479	0	1
387.945221	0.792264	city	1	1	0.596106	0.596106	0	1	0	0	CorrectCommission	0.931615	1.299733	0	1
388.737427	0.792155	city	5	1	0.596823	0.596823	0	1	0	0	CorrectCommission	0.926094	1.234241	0	1
389.529633	0.792266	city	8	1	0.645812	0.645812	0	1	0	0	CorrectCommission	0.549043	1.174060	0	1
390.321899	0.792264	city	10	1	0.596877	0.596877	0	1	0	0	CorrectCommission	0.925681	1.120940	0	1
391.114288	0.792482	city	1	1	0.704689	0.704689	0	1	0	0	CorrectCommission	0.095887	1.075481	0	1
391.906555	0.792050	city	10	1	1.091664	1.091664	0	1	0	0	CorrectCommission	2.882516	1.037527	0	1
392.698700	0.792267	mountain	8	0	0.000000	1.008173	1	0	0	0	CorrectOmission	2.239916	1.006427	0	1
393.490967	0.792260	city	2	1	0.795326	0.795326	0	1	0	0	CorrectCommission	0.601709	0.981452	0	1
394.283234	0.792267	city	7	1	0.794232	0.794232	0	1	0	0	CorrectCommission	0.593290	0.961919	0	1
395.075623	0.792479	city	2	1	0.707087	0.707087	0	1	0	0	CorrectCommission	0.077436	0.947130	0	1
395.867920	0.792156	city	9	1	0.695097	0.695097	0	1	0	0	CorrectCommission	0.169720	0.936330	0	1
396.660095	0.792158	mountain	6	0	0.000000	0.800474	1	0	0	0	CorrectOmission	0.641332	0.928557	0	1
397.452301	0.792262	city	9	1	0.893349	0.893349	0	1	0	0	CorrectCommission	1.356158	0.922558	0	1
398.244568	0.792268	city	3	1	0.843852	0.843852	0	1	0	0	CorrectCommission	0.975196	0.916812	0	1
399.036926	0.792480	city	2	1	0.910332	0.910332	0	1	0	0	CorrectCommission	1.486871	0.909676	0	1
399.829254	0.792155	city	10	1	0.794346	0.794346	0	1	0	0	CorrectCommission	0.594168	0.899542	0	1
400.621460	0.792266	city	9	1	0.909560	0.909560	0	1	0	0	CorrectCommission	1.480925	0.885144	0	1
401.413666	0.792158	city	8	1	0.744679	0.744679	0	1	0	0	CorrectCommission	0.211895	0.865727	0	1
402.205872	0.792271	city	1	1	0.992387	0.992387	0	1	0	0	CorrectCommission	2.118416	0.841298	0	1
402.998138	0.792257	city	8	1	0.657686	0.657686	0	1	0	0	CorrectCommission	0.457657	0.812552	0	1
403.790527	0.792483	city	9	1	0.893450	0.893450	0	1	0	0	CorrectCommission	1.356937	0.780966	0	1
404.582794	0.792047	city	3	1	0.794106	0.794106	0	1	0	0	CorrectCommission	0.592319	0.748464	0	1
405.374939	0.792264	city	6	1	0.794442	0.794442	0	1	0	0	CorrectCommission	0.594908	0.717241	0	1
406.167267	0.792374	city	3	1	0.695267	0.695267	0	1	0	0	CorrectCommission	0.168407	0.689380	1	1
406.959534	0.792159	city	9	1	0.695141	0.695141	0	1	0	0	CorrectCommission	0.169381	0.666605	1	1
407.751740	0.792262	city	7	1	0.695307	0.695307	0	1	0	0	CorrectCommission	0.168098	0.650005	1	1
408.544006	0.792287	city	1	1	0.664462	0.664462	0	1	0	0	CorrectCommission	0.405506	0.639951	1	1
409.336395	0.792460	city	9	1	0.596294	0.596294	0	1	0	0	CorrectCommission	0.930167	0.636023	1	1
410.128632	0.792051	city	5	1	0.546508	0.546508	0	1	0	0	CorrectCommission	1.313351	0.637138	1	1
410.920807	0.792258	mountain	5	1	0.794308	0.794308	0	0	1	0	CommissionError	0.593877	0.641748	1	1
411.713074	0.792303	city	6	1	0.702623	0.702623	0	1	0	0	CorrectCommission	0.111793	0.648027	1	1
412.505371	0.792261	city	3	1	0.695176	0.695176	0	1	0	0	CorrectCommission	0.169109	0.654072	1	1
413.297699	0.792449	city	1	1	0.596223	0.596223	0	1	0	0	CorrectCommission	0.930711	0.658103	1	1
414.089966	0.792072	city	2	1	0.546491	0.546491	0	1	0	0	CorrectCommission	1.313480	0.658653	1	1
414.882141	0.792241	city	10	1	0.596529	0.596529	0	1	0	0	CorrectCommission	0.928361	0.654719	1	1
415.674377	0.792270	city	1	1	0.654899	0.654899	0	1	0	0	CorrectCommission	0.479109	0.645875	1	1
416.466644	0.792260	city	10	1	0.808310	0.808310	0	1	0	0	CorrectCommission	0.701639	0.632272	1	1
417.258911	0.792265	city	2	1	0.893326	0.893326	0	1	0	0	CorrectCommission	1.355977	0.614608	1	1
418.051239	0.792371	city	7	1	0.699168	0.699168	0	1	0	0	CorrectCommission	0.138383	0.593977	1	1
418.843506	0.792194	city	6	1	0.649037	0.649037	0	1	0	0	CorrectCommission	0.524225	0.571791	1	1
419.635742	0.792285	city	5	1	0.695259	0.695259	0	1	0	0	CorrectCommission	0.168471	0.549451	1	1
420.428009	0.792209	city	4	1	0.844124	0.844124	0	1	0	0	CorrectCommission	0.977293	0.528262	1	1
421.220276	0.792371	city	7	1	0.744705	0.744705	0	1	0	0	CorrectCommission	0.212097	0.509162	1	1
422.012543	0.792161	city	2	1	0.645820	0.645820	0	1	0	0	CorrectCommission	0.548987	0.492688	1	1
422.804779	0.792259	city	3	1	0.745484	0.745484	0	1	0	0	CorrectCommission	0.218091	0.478853	1	1
423.597076	0.792375	mountain	1	0	0.000000	0.728986	1	0	0	0	CorrectOmission	0.091118	0.467217	1	1
424.389404	0.792265	city	3	1	0.695646	0.695646	0	1	0	0	CorrectCommission	0.165492	0.456979	1	0
425.181610	0.792162	city	8	1	0.744780	0.744780	0	1	0	0	CorrectCommission	0.212676	0.447172	1	0
425.973816	0.792261	mountain	4	0	0.000000	0.850366	1	0	0	0	CorrectOmission	1.025329	0.436883	1	0
426.766083	0.792265	city	4	1	0.904914	0.904914	0	1	0	0	CorrectCommission	1.445166	0.425435	1	0
427.558472	0.792480	city	2	1	0.800936	0.800936	0	1	0	0	CorrectCommission	0.644886	0.412582	1	0
428.350830	0.792263	city	4	1	0.699044	0.699044	0	1	0	0	CorrectCommission	0.139341	0.398597	1	0
429.143036	0.792161	city	1	1	0.695061	0.695061	0	1	0	0	CorrectCommission	0.169992	0.384232	1	0
429.935242	0.792260	city	7	1	0.704413	0.704413	0	1	0	0	CorrectCommission	0.098017	0.370566	1	0
430.727478	0.792156	mountain	7	0	0.000000	0.712793	1	0	0	0	CorrectOmission	0.033520	0.358844	1	0
431.519714	0.792374	city	10	1	0.700072	0.700072	0	1	0	0	CorrectCommission	0.131429	0.350294	1	0
432.312012	0.792221	city	4	1	0.646121	0.646121	0	1	0	0	CorrectCommission	0.546668	0.345951	1	0
433.104248	0.792238	city	1	1	0.645674	0.645674	0	1	0	0	CorrectCommission	0.550104	0.346491	1	0
433.896484	0.792226	city	5	1	0.744787	0.744787	0	1	0	0	CorrectCommission	0.212730	0.352199	1	0
434.688751	0.792325	city	4	1	0.744788	0.744788	0	1	0	0	CorrectCommission	0.212739	0.362883	1	0
435.481140	0.792428	city	6	1	0.695745	0.695745	0	1	0	0	CorrectCommission	0.164727	0.377961	1	0
436.273376	0.792040	mountain	1	0	0.000000	0.710256	1	0	0	0	CorrectOmission	0.053045	0.396491	1	0
437.065521	0.792267	mountain	10	0	0.000000	0.754492	1	0	0	0	CorrectOmission	0.287421	0.417300	1	0
437.857788	0.792262	city	7	1	0.794625	0.794625	0	1	0	0	CorrectCommission	0.596310	0.439135	1	0
438.650055	0.792271	city	5	1	0.796827	0.796827	0	1	0	0	CorrectCommission	0.613260	0.460856	1	0
439.442444	0.792479	city	7	1	0.794748	0.794748	0	1	0	0	CorrectCommission	0.597260	0.481577	1	0
440.234802	0.792262	mountain	7	0	0.000000	0.843993	1	0	0	0	CorrectOmission	0.976283	0.500778	1	0
441.027069	0.792265	city	4	1	0.844219	0.844219	0	1	0	0	CorrectCommission	0.978023	0.518385	1	0
441.819214	0.792050	city	5	1	0.695083	0.695083	0	1	0	0	CorrectCommission	0.169827	0.534753	1	0
442.611389	0.792260	city	6	1	0.762824	0.762824	0	1	0	0	CorrectCommission	0.351553	0.550632	1	0
443.403748	0.792484	city	2	1	0.744826	0.744826	0	1	0	0	CorrectCommission	0.213031	0.566998	1	0
444.196045	0.792111	city	7	1	0.843611	0.843611	0	1	0	0	CorrectCommission	0.973344	0.584936	1	0
444.988220	0.792204	city	6	1	0.758991	0.758991	0	1	0	0	CorrectCommission	0.322052	0.605479	1	0
445.780457	0.792265	city	2	1	0.710897	0.710897	0	1	0	0	CorrectCommission	0.048111	0.629523	1	0
446.572723	0.792299	mountain	8	0	0.000000	0.818865	1	0	0	0	CorrectOmission	0.782883	0.657704	1	0
447.365051	0.792336	city	1	1	0.893314	0.893314	0	1	0	0	CorrectCommission	1.355890	0.690285	1	0
448.157288	0.792160	city	8	1	0.744662	0.744662	0	1	0	0	CorrectCommission	0.211769	0.727104	0	0
448.949615	0.792478	city	1	1	0.893498	0.893498	0	1	0	0	CorrectCommission	1.357305	0.767570	0	0
449.741882	0.792050	city	7	1	0.713582	0.713582	0	1	0	0	CorrectCommission	0.027443	0.810538	0	0
450.534149	0.792480	city	8	1	0.603185	0.603185	0	1	0	0	CorrectCommission	0.877126	0.854406	0	0
451.326447	0.792154	mountain	6	0	0.000000	0.617176	1	0	0	0	CorrectOmission	0.769447	0.897100	0	0
452.118622	0.792192	mountain	8	0	0.000000	0.714944	1	0	0	0	CorrectOmission	0.016960	0.936297	0	0
452.910858	0.792244	city	5	1	0.855881	0.855881	0	1	0	0	CorrectCommission	1.067780	0.969639	0	0
453.703094	0.792280	city	3	1	0.999377	0.999377	0	1	0	0	CorrectCommission	2.172217	0.994989	0	0
454.495483	0.792453	city	2	1	1.009073	1.009073	0	1	0	0	CorrectCommission	2.246842	1.010754	0	0
455.287842	0.792265	city	10	1	0.846038	0.846038	0	1	0	0	CorrectCommission	0.992019	1.016229	0	0
456.080048	0.792156	city	8	1	0.893117	0.893117	0	1	0	0	CorrectCommission	1.354371	1.011725	0	0
456.872253	0.792263	city	6	1	0.650791	0.650791	0	1	0	0	CorrectCommission	0.510721	0.998600	0	0
457.664459	0.792160	city	10	1	0.596268	0.596268	0	1	0	0	CorrectCommission	0.930370	0.979228	0	0
458.456726	0.792345	city	2	1	0.546848	0.546848	0	1	0	0	CorrectCommission	1.310732	0.956736	0	0
459.249023	0.792288	city	8	1	0.559047	0.559047	0	1	0	0	CorrectCommission	1.216840	0.934748	0	0
460.041260	0.792161	city	7	1	0.658232	0.658232	0	1	0	0	CorrectCommission	0.453451	0.917005	0	0
460.833588	0.792479	city	5	1	0.698010	0.698010	0	1	0	0	CorrectCommission	0.147297	0.906972	0	0
461.625854	0.792052	city	1	1	0.559787	0.559787	0	1	0	0	CorrectCommission	1.211152	0.907432	0	0
462.417999	0.792259	city	7	1	0.612330	0.612330	0	1	0	0	CorrectCommission	0.806740	0.920120	0	0
463.210266	0.792269	city	10	1	0.712762	0.712762	0	1	0	0	CorrectCommission	0.033756	0.945503	0	0
464.002625	0.792480	city	4	1	0.652079	0.652079	0	1	0	0	CorrectCommission	0.500811	0.982612	0	0
464.794952	0.792155	city	5	1	0.596056	0.596056	0	1	0	0	CorrectCommission	0.931996	1.028991	0	0
465.587128	0.792184	city	1	1	0.596477	0.596477	0	1	0	0	CorrectCommission	0.928756	1.080918	0	0
466.379395	0.792346	city	8	1	0.612479	0.612479	0	1	0	0	CorrectCommission	0.805600	1.133682	0	0
467.171661	0.792167	city	6	1	0.496988	0.496988	0	1	0	0	CorrectCommission	1.694487	1.182100	0	0
467.963959	0.792472	city	8	1	0.497320	0.497320	0	1	0	0	CorrectCommission	1.691937	1.221033	0	0
468.756348	0.792264	mountain	7	1	0.514102	0.514102	0	0	1	0	CommissionError	1.562769	1.246033	0	0
469.548492	0.792045	city	6	1	0.810254	0.810254	0	1	0	0	CorrectCommission	0.716601	1.253889	0	0
470.340759	0.792483	city	1	1	1.142836	1.142836	0	1	0	0	CorrectCommission	3.276365	1.243066	0	0
471.133118	0.792266	city	2	1	0.992945	0.992945	0	1	0	0	CorrectCommission	2.122706	1.213827	0	0
471.925323	0.792156	city	7	1	0.942695	0.942695	0	1	0	0	CorrectCommission	1.735955	1.168355	0	0
472.717499	0.792155	city	2	1	0.893367	0.893367	0	1	0	0	CorrectCommission	1.356292	1.110396	0	0
473.509705	0.792265	city	10	1	0.794429	0.794429	0	1	0	0	CorrectCommission	0.594808	1.044719	0	0
474.301971	0.792265	city	1	1	0.760842	0.760842	0	1	0	0	CorrectCommission	0.336297	0.976517	0	0
475.094299	0.792373	city	8	1	0.657960	0.657960	0	1	0	0	CorrectCommission	0.455545	0.910659	0	0
475.886658	0.792375	mountain	8	0	0.000000	0.719794	1	0	0	0	CorrectOmission	0.020368	0.851113	0	0
476.678894	0.792103	city	5	1	0.801817	0.801817	0	1	0	0	CorrectCommission	0.651669	0.800538	0	0
477.471069	0.792236	city	2	1	0.759503	0.759503	0	1	0	0	CorrectCommission	0.325989	0.760087	0	0
478.263306	0.792240	city	5	1	0.704878	0.704878	0	1	0	0	CorrectCommission	0.094433	0.729508	0	0
479.055603	0.792332	city	7	1	0.843967	0.843967	0	1	0	0	CorrectCommission	0.976082	0.707386	1	0
479.847870	0.792194	mountain	5	0	0.000000	0.897403	1	0	0	0	CorrectOmission	1.387356	0.691554	1	0
480.640076	0.792266	mountain	10	0	0.000000	0.876970	1	0	0	0	CorrectOmission	1.230093	0.679586	1	0
481.432465	0.792482	city	3	1	0.794455	0.794455	0	1	0	0	CorrectCommission	0.595002	0.669155	1	0
482.224731	0.792047	city	9	1	0.661642	0.661642	0	1	0	0	CorrectCommission	0.427211	0.658337	1	0
483.016907	0.792293	city	3	1	0.646502	0.646502	0	1	0	0	CorrectCommission	0.543734	0.645775	1	0
483.809174	0.792238	mountain	4	1	0.596258	0.596258	0	0	1	0	CommissionError	0.930441	0.630725	1	0
484.601440	0.792317	city	3	1	0.747475	0.747475	0	1	0	0	CorrectCommission	0.233421	0.612994	1	0
485.393768	0.792321	city	8	1	0.843793	0.843793	0	1	0	0	CorrectCommission	0.974741	0.592881	1	0
486.186005	0.792153	city	6	1	0.645814	0.645814	0	1	0	0	CorrectCommission	0.549034	0.570986	1	0
486.978210	0.792267	city	4	1	0.645926	0.645926	0	1	0	0	CorrectCommission	0.548171	0.548171	1	0
