onset	duration	trial_type	image_type	Press	ReactionTime	ReactionTime_Interpolated	CorrectOmission	CorrectCommission	CommissionError	OmissionError	response_type	nonsmoothVarianceTimeCourse	VarianceTimeCourse	In_the_Zone	Reward_trial
8.433754	0.792264	city	7	1	1.107788	1.107788	0	1	0	0	CorrectCommission	5.801381	5.801381	0	1
9.226049	0.792327	city	3	1	0.805524	0.805524	0	1	0	0	CorrectCommission	2.442708	5.088709	0	1
10.018326	0.792227	city	1	1	0.596699	0.596699	0	1	0	0	CorrectCommission	0.122314	4.402169	0	1
10.810559	0.792241	city	4	1	0.497474	0.497474	0	1	0	0	CorrectCommission	0.980244	3.765174	0	1
11.602810	0.792260	city	10	1	0.497193	0.497193	0	1	0	0	CorrectCommission	0.983363	3.196083	0	1
12.395073	0.792266	city	7	1	0.497331	0.497331	0	1	0	0	CorrectCommission	0.981834	2.706754	0	1
13.187448	0.792482	city	4	1	0.547046	0.547046	0	1	0	0	CorrectCommission	0.429416	2.301899	0	1
13.979712	0.792049	city	10	1	0.546669	0.546669	0	1	0	0	CorrectCommission	0.433600	1.979431	0	1
14.771924	0.792374	city	8	1	0.447825	0.447825	0	1	0	0	CorrectCommission	1.531929	1.731524	0	1
15.564243	0.792265	city	9	1	0.447583	0.447583	0	1	0	0	CorrectCommission	1.534621	1.546249	0	1
16.356483	0.792216	city	4	1	0.456580	0.456580	0	1	0	0	CorrectCommission	1.434648	1.409476	0	1
17.148695	0.792206	mountain	1	1	0.497141	0.497141	0	0	1	0	CommissionError	0.983941	1.306661	0	1
17.940929	0.792265	mountain	10	1	0.414758	0.414758	0	0	1	0	CommissionError	1.899364	1.224449	0	1
18.733194	0.792267	city	9	1	0.447808	0.447808	0	1	0	0	CorrectCommission	1.532121	1.151785	0	1
19.525459	0.792260	city	10	1	0.462355	0.462355	0	1	0	0	CorrectCommission	1.370478	1.080677	0	1
20.317776	0.792373	city	3	1	0.415706	0.415706	0	1	0	0	CorrectCommission	1.888825	1.006374	0	1
21.110149	0.792375	city	7	1	0.461169	0.461169	0	1	0	0	CorrectCommission	1.383651	0.927211	0	1
21.902384	0.792095	city	2	1	0.497071	0.497071	0	1	0	0	CorrectCommission	0.984719	0.844155	0	1
22.694542	0.792223	city	7	1	0.596363	0.596363	0	1	0	0	CorrectCommission	0.118581	0.760103	0	1
23.486891	0.792477	mountain	10	0	0.000000	0.580121	1	0	0	0	CorrectOmission	0.061895	0.679140	1	1
24.279161	0.792062	city	1	1	0.547145	0.547145	0	1	0	0	CorrectCommission	0.428317	0.605720	1	1
25.071325	0.792269	city	4	1	0.596234	0.596234	0	1	0	0	CorrectCommission	0.117143	0.544090	1	1
25.863585	0.792247	city	1	1	0.555551	0.555551	0	1	0	0	CorrectCommission	0.334909	0.497844	1	1
26.655840	0.792263	city	2	1	0.597146	0.597146	0	1	0	0	CorrectCommission	0.127278	0.469493	1	1
27.448103	0.792265	city	1	1	0.565280	0.565280	0	1	0	0	CorrectCommission	0.226808	0.460347	1	1
28.240368	0.792265	city	4	1	0.596273	0.596273	0	1	0	0	CorrectCommission	0.117580	0.470363	1	1
29.032635	0.792266	city	1	1	0.596392	0.596392	0	1	0	0	CorrectCommission	0.118903	0.498208	1	1
29.824953	0.792372	city	5	1	0.596891	0.596891	0	1	0	0	CorrectCommission	0.124441	0.541446	1	1
30.617218	0.792156	city	7	1	0.602929	0.602929	0	1	0	0	CorrectCommission	0.191540	0.596670	1	1
31.409454	0.792318	city	3	1	0.596236	0.596236	0	1	0	0	CorrectCommission	0.117168	0.659859	1	1
32.201729	0.792233	city	10	1	0.647007	0.647007	0	1	0	0	CorrectCommission	0.681317	0.726684	1	1
32.993965	0.792241	city	6	1	0.748556	0.748556	0	1	0	0	CorrectCommission	1.809703	0.792925	0	1
33.786331	0.792485	city	8	1	0.745594	0.745594	0	1	0	0	CorrectCommission	1.776785	0.854749	0	1
34.578705	0.792264	city	5	1	0.707668	0.707668	0	1	0	0	CorrectCommission	1.355366	0.909071	0	1
35.370861	0.792048	city	1	1	0.646180	0.646180	0	1	0	0	CorrectCommission	0.672129	0.953671	0	1
36.163017	0.792266	city	3	1	0.645745	0.645745	0	1	0	0	CorrectCommission	0.667295	0.987283	0	1
36.955280	0.792263	city	5	1	0.645847	0.645847	0	1	0	0	CorrectCommission	0.668427	1.009528	0	1
37.747547	0.792267	mountain	8	0	0.000000	0.744944	1	0	0	0	CorrectOmission	1.769561	1.020790	0	1
38.539867	0.792375	city	7	1	0.794409	0.794409	0	1	0	0	CorrectCommission	2.319210	1.022030	0	1
39.332146	0.792177	city	5	1	0.645618	0.645618	0	1	0	0	CorrectCommission	0.665887	1.014573	0	1
40.124352	0.792238	city	1	1	0.600119	0.600119	0	1	0	0	CorrectCommission	0.160310	0.999975	0	1
40.916607	0.792269	city	2	1	0.751978	0.751978	0	1	0	0	CorrectCommission	1.847723	0.979750	0	1
41.708923	0.792369	city	5	1	0.596620	0.596620	0	1	0	0	CorrectCommission	0.121436	0.955250	0	1
42.501297	0.792376	city	2	1	0.497057	0.497057	0	1	0	0	CorrectCommission	0.984873	0.927692	0	1
43.293560	0.792154	city	9	1	0.504912	0.504912	0	1	0	0	CorrectCommission	0.897597	0.898095	0	1
44.085770	0.792265	city	4	1	0.596158	0.596158	0	1	0	0	CorrectCommission	0.116303	0.867427	0	1
44.877983	0.792157	city	5	1	0.843698	0.843698	0	1	0	0	CorrectCommission	2.866887	0.836721	0	1
45.670246	0.792374	city	1	1	0.619830	0.619830	0	1	0	0	CorrectCommission	0.379339	0.807120	0	1
46.462620	0.792372	city	4	1	0.546858	0.546858	0	1	0	0	CorrectCommission	0.431501	0.780121	0	1
47.254887	0.792157	city	10	1	0.596025	0.596025	0	1	0	0	CorrectCommission	0.114819	0.757424	0	1
48.047150	0.792373	city	8	1	0.744818	0.744818	0	1	0	0	CorrectCommission	1.768163	0.740944	1	1
48.839359	0.792046	city	10	1	0.596142	0.596142	0	1	0	0	CorrectCommission	0.116124	0.732593	1	1
49.631569	0.792372	city	6	1	0.565113	0.565113	0	1	0	0	CorrectCommission	0.228665	0.734168	1	1
50.423836	0.792158	city	9	1	0.551425	0.551425	0	1	0	0	CorrectCommission	0.380761	0.747000	1	1
51.216049	0.792269	city	2	1	0.547417	0.547417	0	1	0	0	CorrectCommission	0.425295	0.771769	0	1
52.008312	0.792263	city	9	1	0.646144	0.646144	0	1	0	0	CorrectCommission	0.671734	0.808296	0	1
52.800575	0.792261	city	1	1	0.653937	0.653937	0	1	0	0	CorrectCommission	0.758329	0.855412	0	1
53.592949	0.792483	city	9	1	0.695665	0.695665	0	1	0	0	CorrectCommission	1.221990	0.910861	0	1
54.385212	0.792045	city	5	1	0.603256	0.603256	0	1	0	0	CorrectCommission	0.195177	0.971396	0	1
55.177368	0.792270	city	7	1	0.695288	0.695288	0	1	0	0	CorrectCommission	1.217801	1.032930	0	1
55.969688	0.792370	city	10	1	0.645842	0.645842	0	1	0	0	CorrectCommission	0.668373	1.090768	0	1
56.761955	0.792160	city	7	1	0.744727	0.744727	0	1	0	0	CorrectCommission	1.767155	1.140137	0	1
57.554165	0.792263	city	5	1	0.645678	0.645678	0	1	0	0	CorrectCommission	0.666558	1.176586	0	1
58.346455	0.792316	city	6	1	0.744799	0.744799	0	1	0	0	CorrectCommission	1.767952	1.196552	0	1
59.138718	0.792211	city	5	1	0.794279	0.794279	0	1	0	0	CorrectCommission	2.317759	1.197830	0	1
59.930958	0.792264	city	3	1	0.794440	0.794440	0	1	0	0	CorrectCommission	2.319551	1.179908	0	1
60.723225	0.792269	mountain	3	0	0.000000	0.793599	1	0	0	0	CorrectOmission	2.310205	1.144104	0	1
61.515598	0.792481	city	5	1	0.744784	0.744784	0	1	0	0	CorrectCommission	1.767786	1.093436	0	1
62.307877	0.792078	city	10	1	0.601023	0.601023	0	1	0	0	CorrectCommission	0.170357	1.032172	0	1
63.100140	0.792449	city	9	1	0.645752	0.645752	0	1	0	0	CorrectCommission	0.667380	0.965326	0	1
63.892498	0.792265	city	6	1	0.607941	0.607941	0	1	0	0	CorrectCommission	0.247235	0.897860	0	1
64.684654	0.792050	city	7	1	0.604145	0.604145	0	1	0	0	CorrectCommission	0.205052	0.834113	0	1
65.476814	0.792269	city	5	1	0.596365	0.596365	0	1	0	0	CorrectCommission	0.118605	0.777209	0	1
66.269188	0.792475	city	7	1	0.546664	0.546664	0	1	0	0	CorrectCommission	0.433661	0.728859	1	1
67.061501	0.792156	mountain	7	0	0.000000	0.629251	1	0	0	0	CorrectOmission	0.484020	0.689286	1	1
67.853661	0.792159	city	1	1	0.695446	0.695446	0	1	0	0	CorrectCommission	1.219557	0.657471	1	0
68.645874	0.792263	city	7	1	0.596568	0.596568	0	1	0	0	CorrectCommission	0.120860	0.631528	1	0
69.438141	0.792272	city	9	1	0.461272	0.461272	0	1	0	0	CorrectCommission	1.382515	0.609215	1	0
70.230400	0.792257	city	5	1	0.502134	0.502134	0	1	0	0	CorrectCommission	0.928459	0.588312	1	0
71.022774	0.792482	city	9	1	0.547075	0.547075	0	1	0	0	CorrectCommission	0.429091	0.567071	1	0
71.815033	0.792047	city	3	1	0.508350	0.508350	0	1	0	0	CorrectCommission	0.859398	0.544455	1	0
72.607193	0.792266	city	6	1	0.556421	0.556421	0	1	0	0	CorrectCommission	0.325239	0.520191	1	0
73.399567	0.792480	city	7	1	0.596238	0.596238	0	1	0	0	CorrectCommission	0.117191	0.494818	1	0
74.191833	0.792047	mountain	1	0	0.000000	0.644164	1	0	0	0	CorrectOmission	0.649732	0.469504	1	0
74.984093	0.792483	city	6	1	0.645742	0.645742	0	1	0	0	CorrectCommission	0.667267	0.445886	1	0
75.776360	0.792046	city	9	1	0.546514	0.546514	0	1	0	0	CorrectCommission	0.435324	0.425826	1	0
76.568626	0.792483	city	3	1	0.596433	0.596433	0	1	0	0	CorrectCommission	0.119354	0.411188	1	0
77.360886	0.792049	city	6	1	0.610423	0.610423	0	1	0	0	CorrectCommission	0.274812	0.403592	1	0
78.153152	0.792482	city	10	1	0.596337	0.596337	0	1	0	0	CorrectCommission	0.118291	0.404213	1	0
78.945442	0.792086	city	9	1	0.596067	0.596067	0	1	0	0	CorrectCommission	0.115296	0.413623	1	0
79.737610	0.792261	city	2	1	0.547858	0.547858	0	1	0	0	CorrectCommission	0.420394	0.431683	1	0
80.529854	0.792229	city	5	1	0.596220	0.596220	0	1	0	0	CorrectCommission	0.116986	0.457478	1	0
81.322105	0.792268	mountain	2	0	0.000000	0.617981	1	0	0	0	CorrectOmission	0.358790	0.489406	1	0
82.114395	0.792307	city	3	1	0.604386	0.604386	0	1	0	0	CorrectCommission	0.207728	0.525293	1	0
82.906708	0.792327	city	9	1	0.546679	0.546679	0	1	0	0	CorrectCommission	0.433489	0.562629	1	0
83.698952	0.792158	city	4	1	0.497291	0.497291	0	1	0	0	CorrectCommission	0.982278	0.598863	1	0
84.491165	0.792267	city	5	1	0.497187	0.497187	0	1	0	0	CorrectCommission	0.983437	0.631675	1	0
85.283432	0.792260	city	6	1	0.504101	0.504101	0	1	0	0	CorrectCommission	0.906604	0.659291	1	0
86.075798	0.792484	city	1	1	0.497695	0.497695	0	1	0	0	CorrectCommission	0.977793	0.680696	1	0
86.868065	0.792047	city	8	1	0.497086	0.497086	0	1	0	0	CorrectCommission	0.984561	0.695713	1	0
87.660278	0.792373	city	4	1	0.497262	0.497262	0	1	0	0	CorrectCommission	0.982605	0.704989	1	0
88.452599	0.792265	city	9	1	0.513905	0.513905	0	1	0	0	CorrectCommission	0.797669	0.709845	1	0
89.244804	0.792154	city	6	1	0.511772	0.511772	0	1	0	0	CorrectCommission	0.821367	0.711988	1	0
90.037018	0.792267	city	8	1	0.547061	0.547061	0	1	0	0	CorrectCommission	0.429251	0.713202	1	0
90.829338	0.792371	city	10	1	0.596229	0.596229	0	1	0	0	CorrectCommission	0.117089	0.715041	1	0
91.621704	0.792373	city	8	1	0.546552	0.546552	0	1	0	0	CorrectCommission	0.434902	0.718594	1	0
92.413918	0.792052	city	1	1	0.596036	0.596036	0	1	0	0	CorrectCommission	0.114951	0.724341	1	0
93.206093	0.792296	city	8	1	0.509596	0.509596	0	1	0	0	CorrectCommission	0.845551	0.732178	1	0
93.998360	0.792229	city	5	1	0.456182	0.456182	0	1	0	0	CorrectCommission	1.439067	0.741498	1	0
94.790604	0.792269	city	1	1	0.500919	0.500919	0	1	0	0	CorrectCommission	0.941962	0.751467	0	0
95.582870	0.792260	mountain	10	0	0.000000	0.512399	1	0	0	0	CorrectOmission	0.814401	0.761305	0	0
96.375244	0.792484	city	10	1	0.509036	0.509036	0	1	0	0	CorrectCommission	0.851773	0.770466	0	0
97.167618	0.792264	city	4	1	0.509243	0.509243	0	1	0	0	CorrectCommission	0.849467	0.778820	0	0
97.959770	0.792048	city	6	1	0.551470	0.551470	0	1	0	0	CorrectCommission	0.380256	0.786724	0	0
98.751930	0.792266	city	9	1	0.454456	0.454456	0	1	0	0	CorrectCommission	1.458251	0.794991	0	0
99.544220	0.792311	city	4	1	0.547156	0.547156	0	1	0	0	CorrectCommission	0.428196	0.804703	0	0
100.336510	0.792269	city	5	1	0.515822	0.515822	0	1	0	0	CorrectCommission	0.776367	0.817058	0	0
101.128769	0.792256	mountain	10	1	0.546822	0.546822	0	0	1	0	CommissionError	0.431903	0.833057	0	0
101.921013	0.792227	mountain	6	1	0.497164	0.497164	0	0	1	0	CommissionError	0.983688	0.853293	0	0
102.713280	0.792305	city	2	1	0.500303	0.500303	0	1	0	0	CorrectCommission	0.948815	0.877683	0	0
103.505646	0.792436	city	7	1	0.497186	0.497186	0	1	0	0	CorrectCommission	0.983446	0.905368	0	0
104.297943	0.792157	city	1	1	0.546551	0.546551	0	1	0	0	CorrectCommission	0.434921	0.934660	0	0
105.090103	0.792167	city	5	1	0.596449	0.596449	0	1	0	0	CorrectCommission	0.119538	0.963163	0	0
105.882324	0.792266	city	6	1	0.596276	0.596276	0	1	0	0	CorrectCommission	0.117612	0.988017	0	0
106.674583	0.792251	city	10	1	0.754242	0.754242	0	1	0	0	CorrectCommission	1.872887	1.006246	0	0
107.466835	0.792264	mountain	4	0	0.000000	0.833434	1	0	0	0	CorrectOmission	2.752838	1.015142	0	0
108.259102	0.792268	city	4	1	0.794345	0.794345	0	1	0	0	CorrectCommission	2.318494	1.012701	0	0
109.051384	0.792284	city	10	1	0.597470	0.597470	0	1	0	0	CorrectCommission	0.130880	0.997906	0	0
109.843697	0.792352	mountain	7	0	0.000000	0.663841	1	0	0	0	CorrectOmission	0.868369	0.970893	0	0
110.636009	0.792263	city	2	1	0.760657	0.760657	0	1	0	0	CorrectCommission	1.944167	0.932802	0	0
111.428215	0.792157	city	4	1	0.655121	0.655121	0	1	0	0	CorrectCommission	0.771479	0.885645	0	0
112.220444	0.792301	city	1	1	0.646116	0.646116	0	1	0	0	CorrectCommission	0.671418	0.832032	0	0
113.012711	0.792231	city	9	1	0.596501	0.596501	0	1	0	0	CorrectCommission	0.120118	0.774760	0	0
113.804970	0.792288	city	3	1	0.645806	0.645806	0	1	0	0	CorrectCommission	0.667980	0.716521	1	0
114.597343	0.792457	city	8	1	0.646131	0.646131	0	1	0	0	CorrectCommission	0.671587	0.659632	1	0
115.389648	0.792155	city	5	1	0.614043	0.614043	0	1	0	0	CorrectCommission	0.315039	0.605932	1	0
116.181862	0.792265	city	1	1	0.645717	0.645717	0	1	0	0	CorrectCommission	0.666982	0.556710	1	0
116.974091	0.792189	city	4	1	0.656345	0.656345	0	1	0	0	CorrectCommission	0.785077	0.512782	1	0
117.766350	0.792341	city	9	1	0.596237	0.596237	0	1	0	0	CorrectCommission	0.117181	0.474599	1	0
118.558601	0.792155	city	5	1	0.546921	0.546921	0	1	0	0	CorrectCommission	0.430799	0.442385	1	0
119.350830	0.792301	city	1	1	0.549273	0.549273	0	1	0	0	CorrectCommission	0.404670	0.416226	1	0
120.143097	0.792234	city	8	1	0.596935	0.596935	0	1	0	0	CorrectCommission	0.124939	0.396201	1	0
120.935356	0.792288	city	2	1	0.546924	0.546924	0	1	0	0	CorrectCommission	0.430770	0.382425	1	0
121.727646	0.792290	city	5	1	0.547389	0.547389	0	1	0	0	CorrectCommission	0.425603	0.375043	1	0
122.519951	0.792320	city	6	1	0.565037	0.565037	0	1	0	0	CorrectCommission	0.229503	0.374194	1	0
123.312241	0.792263	city	7	1	0.596125	0.596125	0	1	0	0	CorrectCommission	0.115930	0.379969	1	0
124.104462	0.792170	city	9	1	0.597262	0.597262	0	1	0	0	CorrectCommission	0.128566	0.392287	1	0
124.896667	0.792254	city	5	1	0.546682	0.546682	0	1	0	0	CorrectCommission	0.433462	0.410834	1	0
125.688934	0.792272	city	1	1	0.597180	0.597180	0	1	0	0	CorrectCommission	0.127660	0.434994	1	0
126.481194	0.792254	city	3	1	0.695392	0.695392	0	1	0	0	CorrectCommission	1.218956	0.463854	1	0
127.273514	0.792374	city	1	1	0.596236	0.596236	0	1	0	0	CorrectCommission	0.117168	0.496108	1	1
128.065781	0.792159	city	2	1	0.596151	0.596151	0	1	0	0	CorrectCommission	0.116226	0.530155	1	1
128.857986	0.792261	city	3	1	0.602890	0.602890	0	1	0	0	CorrectCommission	0.191109	0.564167	1	1
129.650360	0.792482	city	2	1	0.513439	0.513439	0	1	0	0	CorrectCommission	0.802849	0.596233	1	1
130.442627	0.792055	city	5	1	0.497295	0.497295	0	1	0	0	CorrectCommission	0.982234	0.624580	1	1
131.234787	0.792261	city	8	1	0.646107	0.646107	0	1	0	0	CorrectCommission	0.671315	0.647826	1	1
132.027054	0.792263	city	10	1	0.497649	0.497649	0	1	0	0	CorrectCommission	0.978304	0.665208	1	1
132.819305	0.792245	city	2	1	0.447792	0.447792	0	1	0	0	CorrectCommission	1.532293	0.676778	1	1
133.611618	0.792390	city	7	1	0.514512	0.514512	0	1	0	0	CorrectCommission	0.790928	0.683476	1	1
134.403946	0.792266	city	5	1	0.547708	0.547708	0	1	0	0	CorrectCommission	0.422054	0.687136	1	1
135.196167	0.792165	city	4	1	0.547036	0.547036	0	1	0	0	CorrectCommission	0.429527	0.690298	1	1
135.988434	0.792364	mountain	8	1	0.497683	0.497683	0	0	1	0	CommissionError	0.977924	0.695899	1	1
136.780685	0.792158	mountain	3	0	0.000000	0.517264	1	0	0	0	CorrectOmission	0.760342	0.706882	1	1
137.572891	0.792260	city	7	1	0.551634	0.551634	0	1	0	0	CorrectCommission	0.378436	0.725809	1	1
138.365158	0.792265	city	4	1	0.546646	0.546646	0	1	0	0	CorrectCommission	0.433857	0.754427	0	1
139.157532	0.792483	city	6	1	0.596561	0.596561	0	1	0	0	CorrectCommission	0.120782	0.793329	0	1
139.949905	0.792265	city	9	1	0.596017	0.596017	0	1	0	0	CorrectCommission	0.114732	0.841787	0	1
140.742065	0.792049	city	2	1	0.596576	0.596576	0	1	0	0	CorrectCommission	0.120946	0.897723	0	1
141.534225	0.792262	city	9	1	0.498336	0.498336	0	1	0	0	CorrectCommission	0.970666	0.957897	0	1
142.326492	0.792266	city	2	1	0.447758	0.447758	0	1	0	0	CorrectCommission	1.532671	1.018219	0	1
143.118759	0.792267	city	3	1	0.412468	0.412468	0	1	0	0	CorrectCommission	1.924800	1.074241	0	1
143.911011	0.792264	mountain	3	1	0.412505	0.412505	0	0	1	0	CommissionError	1.924397	1.121580	0	1
144.703369	0.792426	city	7	1	0.447697	0.447697	0	1	0	0	CorrectCommission	1.533357	1.156408	0	1
145.495682	0.792211	city	6	1	0.497016	0.497016	0	1	0	0	CorrectCommission	0.985338	1.175778	0	1
146.287888	0.792217	city	2	1	0.448790	0.448790	0	1	0	0	CorrectCommission	1.521202	1.177833	0	1
147.080109	0.792203	city	7	1	0.499681	0.499681	0	1	0	0	CorrectCommission	0.955716	1.161898	0	1
147.872345	0.792264	city	5	1	0.447979	0.447979	0	1	0	0	CorrectCommission	1.530223	1.128527	0	1
148.664658	0.792374	city	10	1	0.447675	0.447675	0	1	0	0	CorrectCommission	1.533591	1.079387	0	1
149.456924	0.792161	city	9	1	0.451344	0.451344	0	1	0	0	CorrectCommission	1.492829	1.017143	0	1
150.249191	0.792368	city	10	1	0.448397	0.448397	0	1	0	0	CorrectCommission	1.525574	0.945233	0	1
151.041458	0.792155	city	5	1	0.497084	0.497084	0	1	0	0	CorrectCommission	0.984574	0.867605	0	1
151.833664	0.792271	city	3	1	0.548554	0.548554	0	1	0	0	CorrectCommission	0.412657	0.788391	0	1
152.625931	0.792263	city	4	1	0.597154	0.597154	0	1	0	0	CorrectCommission	0.127373	0.711561	1	1
153.418198	0.792264	city	8	1	0.546689	0.546689	0	1	0	0	CorrectCommission	0.433381	0.640542	1	1
154.210464	0.792264	mountain	4	0	0.000000	0.562371	1	0	0	0	CorrectOmission	0.259126	0.577963	1	1
155.002716	0.792265	city	10	1	0.596367	0.596367	0	1	0	0	CorrectCommission	0.118627	0.525464	1	1
155.794998	0.792301	city	2	1	0.600843	0.600843	0	1	0	0	CorrectCommission	0.168365	0.483628	1	1
156.587326	0.792335	city	7	1	0.596181	0.596181	0	1	0	0	CorrectCommission	0.116555	0.452070	1	1
157.379593	0.792208	city	5	1	0.610966	0.610966	0	1	0	0	CorrectCommission	0.280844	0.429613	1	1
158.171799	0.792215	city	3	1	0.658603	0.658603	0	1	0	0	CorrectCommission	0.810166	0.414594	1	1
158.964050	0.792263	mountain	1	0	0.000000	0.616774	1	0	0	0	CorrectOmission	0.345385	0.405176	1	1
159.756317	0.792292	city	9	1	0.547080	0.547080	0	1	0	0	CorrectCommission	0.429039	0.399670	1	1
160.548584	0.792239	city	1	1	0.511117	0.511117	0	1	0	0	CorrectCommission	0.828649	0.396771	1	1
161.340836	0.792264	city	5	1	0.551677	0.551677	0	1	0	0	CorrectCommission	0.377957	0.395727	1	1
162.133102	0.792274	city	1	1	0.546777	0.546777	0	1	0	0	CorrectCommission	0.432406	0.396410	1	1
162.925430	0.792363	city	5	1	0.547329	0.547329	0	1	0	0	CorrectCommission	0.426268	0.399239	1	1
163.717789	0.792375	city	7	1	0.598672	0.598672	0	1	0	0	CorrectCommission	0.144231	0.405039	1	1
164.510025	0.792097	city	9	1	0.596160	0.596160	0	1	0	0	CorrectCommission	0.116323	0.414837	1	1
165.302246	0.792322	city	4	1	0.546886	0.546886	0	1	0	0	CorrectCommission	0.431199	0.429615	1	1
166.094482	0.792157	city	5	1	0.559712	0.559712	0	1	0	0	CorrectCommission	0.288673	0.450112	1	1
166.886688	0.792265	city	10	1	0.596714	0.596714	0	1	0	0	CorrectCommission	0.122477	0.476661	1	1
167.678970	0.792296	city	2	1	0.646839	0.646839	0	1	0	0	CorrectCommission	0.679449	0.509050	1	1
168.471237	0.792236	city	9	1	0.567143	0.567143	0	1	0	0	CorrectCommission	0.206110	0.546486	1	1
169.263535	0.792369	city	3	1	0.497336	0.497336	0	1	0	0	CorrectCommission	0.981783	0.587645	1	1
170.055908	0.792376	city	8	1	0.546566	0.546566	0	1	0	0	CorrectCommission	0.434745	0.630728	1	1
170.848129	0.792048	city	9	1	0.555514	0.555514	0	1	0	0	CorrectCommission	0.335322	0.673650	1	1
171.640289	0.792266	city	4	1	0.501691	0.501691	0	1	0	0	CorrectCommission	0.933381	0.714227	1	1
172.432556	0.792268	city	8	1	0.603211	0.603211	0	1	0	0	CorrectCommission	0.194675	0.750427	1	1
173.224808	0.792262	city	2	1	0.497334	0.497334	0	1	0	0	CorrectCommission	0.981798	0.780633	0	1
174.017075	0.792262	city	6	1	0.402984	0.402984	0	1	0	0	CorrectCommission	2.030188	0.803780	0	1
174.809448	0.792480	city	3	1	0.448041	0.448041	0	1	0	0	CorrectCommission	1.529528	0.819503	0	1
175.601715	0.792055	city	7	1	0.496996	0.496996	0	1	0	0	CorrectCommission	0.985555	0.828156	0	1
176.393875	0.792264	city	3	1	0.516948	0.516948	0	1	0	0	CorrectCommission	0.763852	0.830679	0	1
177.186157	0.792302	city	8	1	0.546728	0.546728	0	1	0	0	CorrectCommission	0.432949	0.828390	0	1
177.978424	0.792221	city	6	1	0.547074	0.547074	0	1	0	0	CorrectCommission	0.429110	0.822689	0	1
178.770721	0.792373	city	10	1	0.500378	0.500378	0	1	0	0	CorrectCommission	0.947972	0.814790	0	1
179.562973	0.792155	city	4	1	0.547400	0.547400	0	1	0	0	CorrectCommission	0.425481	0.805537	0	1
180.355194	0.792270	city	1	1	0.601321	0.601321	0	1	0	0	CorrectCommission	0.173673	0.795359	0	1
181.147568	0.792478	city	8	1	0.497242	0.497242	0	1	0	0	CorrectCommission	0.982822	0.784308	0	1
181.939941	0.792265	city	10	1	0.448099	0.448099	0	1	0	0	CorrectCommission	1.528884	0.772199	0	1
182.732101	0.792047	city	6	1	0.497010	0.497010	0	1	0	0	CorrectCommission	0.985404	0.758836	0	1
183.524307	0.792373	city	10	1	0.497634	0.497634	0	1	0	0	CorrectCommission	0.978462	0.744202	1	1
184.316574	0.792164	city	5	1	0.504429	0.504429	0	1	0	0	CorrectCommission	0.902961	0.728562	1	1
185.108887	0.792476	city	2	1	0.505363	0.505363	0	1	0	0	CorrectCommission	0.892579	0.712448	1	1
185.901215	0.792154	city	9	1	0.596037	0.596037	0	1	0	0	CorrectCommission	0.114956	0.696591	1	1
186.693466	0.792375	city	4	1	0.596166	0.596166	0	1	0	0	CorrectCommission	0.116396	0.681741	1	0
187.485687	0.792047	city	2	1	0.498680	0.498680	0	1	0	0	CorrectCommission	0.966849	0.668482	1	0
188.277893	0.792373	city	8	1	0.498792	0.498792	0	1	0	0	CorrectCommission	0.965598	0.657036	1	0
189.070267	0.792374	mountain	1	1	0.547071	0.547071	0	0	1	0	CommissionError	0.429133	0.647186	1	0
189.862503	0.792096	city	5	1	0.595997	0.595997	0	1	0	0	CorrectCommission	0.114513	0.638313	1	0
190.654663	0.792219	mountain	6	0	0.000000	0.578055	1	0	0	0	CorrectOmission	0.084853	0.629490	1	0
191.447006	0.792478	city	5	1	0.597054	0.597054	0	1	0	0	CorrectCommission	0.126261	0.619690	1	0
192.239288	0.792088	city	3	1	0.756803	0.756803	0	1	0	0	CorrectCommission	1.901344	0.608066	1	0
193.031479	0.792295	city	2	1	0.757133	0.757133	0	1	0	0	CorrectCommission	1.905001	0.594144	1	0
193.823730	0.792195	mountain	6	0	0.000000	0.643788	1	0	0	0	CorrectOmission	0.645551	0.578018	1	0
194.615982	0.792318	city	8	1	0.546873	0.546873	0	1	0	0	CorrectCommission	0.431339	0.560362	1	0
195.408356	0.792430	city	2	1	0.596491	0.596491	0	1	0	0	CorrectCommission	0.120003	0.542244	1	0
196.200592	0.792046	city	6	1	0.596193	0.596193	0	1	0	0	CorrectCommission	0.116691	0.524924	1	0
196.992767	0.792311	city	8	1	0.596345	0.596345	0	1	0	0	CorrectCommission	0.118385	0.509602	1	0
197.785034	0.792222	city	1	1	0.556055	0.556055	0	1	0	0	CorrectCommission	0.329315	0.497184	1	0
198.577301	0.792291	city	8	1	0.596385	0.596385	0	1	0	0	CorrectCommission	0.118826	0.488104	1	0
199.369675	0.792451	city	2	1	0.515924	0.515924	0	1	0	0	CorrectCommission	0.775230	0.482351	1	0
200.161911	0.792049	city	9	1	0.546847	0.546847	0	1	0	0	CorrectCommission	0.431628	0.479567	1	0
200.954132	0.792372	city	6	1	0.546749	0.546749	0	1	0	0	CorrectCommission	0.432719	0.479280	1	0
201.746399	0.792156	city	5	1	0.546607	0.546607	0	1	0	0	CorrectCommission	0.434292	0.481096	1	0
202.538605	0.792265	city	9	1	0.695964	0.695964	0	1	0	0	CorrectCommission	1.225319	0.484862	1	0
203.330872	0.792265	city	6	1	0.497647	0.497647	0	1	0	0	CorrectCommission	0.978319	0.490747	1	0
204.123184	0.792373	city	5	1	0.554289	0.554289	0	1	0	0	CorrectCommission	0.348933	0.499222	1	0
204.915451	0.792155	city	7	1	0.596254	0.596254	0	1	0	0	CorrectCommission	0.117374	0.510867	1	0
205.707718	0.792373	city	4	1	0.596591	0.596591	0	1	0	0	CorrectCommission	0.121115	0.526160	1	0
206.499985	0.792161	city	1	1	0.596298	0.596298	0	1	0	0	CorrectCommission	0.117854	0.545233	1	0
207.292236	0.792338	city	9	1	0.596205	0.596205	0	1	0	0	CorrectCommission	0.116822	0.567663	1	0
208.084488	0.792188	city	2	1	0.547008	0.547008	0	1	0	0	CorrectCommission	0.429837	0.592460	1	0
208.876831	0.792482	mountain	3	0	0.000000	0.632220	1	0	0	0	CorrectOmission	0.517015	0.618112	1	0
209.669205	0.792265	city	2	1	0.711754	0.711754	0	1	0	0	CorrectCommission	1.400774	0.642810	1	0
210.461395	0.792114	city	3	1	0.645523	0.645523	0	1	0	0	CorrectCommission	0.664835	0.664755	1	0
211.253601	0.792308	city	2	1	0.645791	0.645791	0	1	0	0	CorrectCommission	0.667807	0.682559	1	0
212.045853	0.792189	mountain	3	0	0.000000	0.720334	1	0	0	0	CorrectOmission	1.496111	0.695458	1	0
212.838058	0.792231	city	2	1	0.745183	0.745183	0	1	0	0	CorrectCommission	1.772222	0.703474	1	0
213.630417	0.792481	city	6	1	0.596366	0.596366	0	1	0	0	CorrectCommission	0.118615	0.707473	1	0
214.422684	0.792051	city	1	1	0.564832	0.564832	0	1	0	0	CorrectCommission	0.231781	0.709044	1	0
215.214844	0.792261	city	6	1	0.599865	0.599865	0	1	0	0	CorrectCommission	0.157487	0.710184	1	0
216.007111	0.792288	city	5	1	0.662987	0.662987	0	1	0	0	CorrectCommission	0.858882	0.713019	1	0
216.799377	0.792243	city	4	1	0.695257	0.695257	0	1	0	0	CorrectCommission	1.217461	0.719448	1	0
217.591629	0.792262	city	10	1	0.645895	0.645895	0	1	0	0	CorrectCommission	0.668962	0.730813	1	0
218.383896	0.792266	city	9	1	0.596245	0.596245	0	1	0	0	CorrectCommission	0.117264	0.747703	1	0
219.176224	0.792373	city	5	1	0.565321	0.565321	0	1	0	0	CorrectCommission	0.226347	0.769812	0	0
219.968491	0.792179	city	1	1	0.596129	0.596129	0	1	0	0	CorrectCommission	0.115980	0.795912	0	0
220.760757	0.792350	mountain	4	0	0.000000	0.700492	1	0	0	0	CorrectOmission	1.275627	0.824057	0	0
221.553024	0.792172	city	7	1	0.745027	0.745027	0	1	0	0	CorrectCommission	1.770485	0.851795	0	0
222.345291	0.792359	city	3	1	0.596351	0.596351	0	1	0	0	CorrectCommission	0.118444	0.876539	0	0
223.137543	0.792166	city	8	1	0.447562	0.447562	0	1	0	0	CorrectCommission	1.534855	0.895941	0	0
223.929810	0.792363	mountain	9	1	0.497188	0.497188	0	0	1	0	CommissionError	0.983425	0.908166	0	0
224.722076	0.792157	city	6	1	0.695169	0.695169	0	1	0	0	CorrectCommission	1.216485	0.912263	0	0
225.514282	0.792263	city	5	1	0.695267	0.695267	0	1	0	0	CorrectCommission	1.217570	0.908253	0	0
226.306549	0.792268	city	4	1	0.713467	0.713467	0	1	0	0	CorrectCommission	1.419808	0.897163	0	0
227.098831	0.792299	city	6	1	0.695257	0.695257	0	1	0	0	CorrectCommission	1.217460	0.880852	0	0
227.891098	0.792232	city	10	1	0.645759	0.645759	0	1	0	0	CorrectCommission	0.667452	0.861755	0	0
228.683456	0.792476	city	7	1	0.663855	0.663855	0	1	0	0	CorrectCommission	0.868535	0.842487	0	0
229.475708	0.792048	city	3	1	0.595934	0.595934	0	1	0	0	CorrectCommission	0.113815	0.825417	0	0
230.267899	0.792319	city	4	1	0.600081	0.600081	0	1	0	0	CorrectCommission	0.159892	0.812350	0	0
231.060165	0.792238	city	5	1	0.596164	0.596164	0	1	0	0	CorrectCommission	0.116367	0.804269	0	0
231.852432	0.792278	city	6	1	0.744817	0.744817	0	1	0	0	CorrectCommission	1.768155	0.801246	0	0
232.644714	0.792288	city	4	1	0.546888	0.546888	0	1	0	0	CorrectCommission	0.431168	0.802477	0	0
233.436981	0.792256	city	5	1	0.645704	0.645704	0	1	0	0	CorrectCommission	0.666841	0.806615	0	0
234.229218	0.792210	city	7	1	0.649450	0.649450	0	1	0	0	CorrectCommission	0.708470	0.812004	0	0
235.021515	0.792373	city	5	0	0.000000	0.555663	0	0	0	1	OmissionError	0.333668	0.817108	0	0
235.813828	0.792266	city	6	1	0.447599	0.447599	0	1	0	0	CorrectCommission	1.534436	0.820834	0	0
236.606033	0.792155	city	5	1	0.408518	0.408518	0	1	0	0	CorrectCommission	1.968699	0.822679	0	0
237.398300	0.792373	city	2	1	0.414374	0.414374	0	1	0	0	CorrectCommission	1.903627	0.822823	0	0
238.190567	0.792160	city	3	1	0.600174	0.600174	0	1	0	0	CorrectCommission	0.160928	0.821963	0	0
238.982895	0.792477	city	8	1	0.596400	0.596400	0	1	0	0	CorrectCommission	0.118995	0.821051	0	0
239.775208	0.792156	city	1	1	0.559594	0.559594	0	1	0	0	CorrectCommission	0.289984	0.820893	0	0
240.567368	0.792159	city	8	1	0.596188	0.596188	0	1	0	0	CorrectCommission	0.116636	0.821817	0	0
241.359573	0.792262	city	10	1	0.547058	0.547058	0	1	0	0	CorrectCommission	0.429282	0.823474	0	0
242.151840	0.792270	city	8	1	0.499559	0.499559	0	1	0	0	CorrectCommission	0.957071	0.824784	0	0
242.944153	0.792368	city	10	1	0.453164	0.453164	0	1	0	0	CorrectCommission	1.472599	0.824081	0	0
243.736420	0.792160	city	1	1	0.501364	0.501364	0	1	0	0	CorrectCommission	0.937024	0.819432	0	0
244.528687	0.792370	city	9	1	0.497513	0.497513	0	1	0	0	CorrectCommission	0.979808	0.809043	0	0
245.320953	0.792159	city	8	1	0.447830	0.447830	0	1	0	0	CorrectCommission	1.531873	0.791612	0	0
246.113159	0.792266	city	10	1	0.497269	0.497269	0	1	0	0	CorrectCommission	0.982518	0.766595	0	1
246.905487	0.792370	city	8	1	0.459236	0.459236	0	1	0	0	CorrectCommission	1.405133	0.734375	1	1
247.697769	0.792216	city	7	1	0.546621	0.546621	0	1	0	0	CorrectCommission	0.434140	0.696159	1	1
248.489990	0.792208	city	4	1	0.646145	0.646145	0	1	0	0	CorrectCommission	0.671740	0.653819	1	1
249.282333	0.792480	city	3	1	0.596853	0.596853	0	1	0	0	CorrectCommission	0.124021	0.609515	1	1
250.074707	0.792264	city	7	1	0.553523	0.553523	0	1	0	0	CorrectCommission	0.357440	0.565471	1	1
250.866867	0.792052	city	8	1	0.546838	0.546838	0	1	0	0	CorrectCommission	0.431730	0.523628	1	1
251.659073	0.792370	city	3	1	0.596231	0.596231	0	1	0	0	CorrectCommission	0.117113	0.485445	1	1
252.451340	0.792160	city	9	1	0.596240	0.596240	0	1	0	0	CorrectCommission	0.117213	0.451900	1	1
253.243546	0.792262	city	1	1	0.546879	0.546879	0	1	0	0	CorrectCommission	0.431267	0.423539	1	1
254.035828	0.792306	city	5	1	0.497190	0.497190	0	1	0	0	CorrectCommission	0.983405	0.400652	1	1
254.828094	0.792223	city	3	1	0.596199	0.596199	0	1	0	0	CorrectCommission	0.116753	0.383463	1	1
255.620346	0.792267	city	9	1	0.645886	0.645886	0	1	0	0	CorrectCommission	0.668862	0.372390	1	1
256.412659	0.792370	city	4	1	0.558832	0.558832	0	1	0	0	CorrectCommission	0.298449	0.368050	1	1
257.204926	0.792157	city	7	1	0.550233	0.550233	0	1	0	0	CorrectCommission	0.394000	0.371270	1	1
257.997192	0.792373	city	4	1	0.596238	0.596238	0	1	0	0	CorrectCommission	0.117194	0.382934	1	1
258.789551	0.792374	city	3	1	0.596342	0.596342	0	1	0	0	CorrectCommission	0.118345	0.403783	1	1
259.581787	0.792049	mountain	2	0	0.000000	0.596378	1	0	0	0	CorrectOmission	0.118744	0.434119	1	1
260.373932	0.792263	city	10	1	0.596377	0.596377	0	1	0	0	CorrectCommission	0.118738	0.473598	1	1
261.166290	0.792482	city	2	1	0.596372	0.596372	0	1	0	0	CorrectCommission	0.118676	0.521049	1	1
261.958618	0.792157	city	4	1	0.547167	0.547167	0	1	0	0	CorrectCommission	0.428067	0.574483	1	1
262.750793	0.792160	city	7	1	0.645774	0.645774	0	1	0	0	CorrectCommission	0.667623	0.631203	1	1
263.542999	0.792285	city	9	1	0.564769	0.564769	0	1	0	0	CorrectCommission	0.232482	0.688094	1	1
264.335266	0.792239	city	7	1	0.609748	0.609748	0	1	0	0	CorrectCommission	0.267309	0.742003	1	1
265.127502	0.792270	mountain	7	0	0.000000	0.767720	1	0	0	0	CorrectOmission	2.022640	0.790163	0	1
265.919769	0.792265	city	6	1	0.844802	0.844802	0	1	0	0	CorrectCommission	2.879152	0.830519	0	1
266.712158	0.792478	city	7	1	0.647111	0.647111	0	1	0	0	CorrectCommission	0.682481	0.862042	0	1
267.504425	0.792047	city	2	1	0.546645	0.546645	0	1	0	0	CorrectCommission	0.433872	0.884836	0	1
268.296692	0.792481	city	1	1	0.499765	0.499765	0	1	0	0	CorrectCommission	0.954787	0.899946	0	1
269.088959	0.792051	city	8	1	0.497004	0.497004	0	1	0	0	CorrectCommission	0.985466	0.909151	0	1
269.881104	0.792261	city	2	1	0.596237	0.596237	0	1	0	0	CorrectCommission	0.117177	0.914626	0	1
270.673431	0.792374	city	4	1	0.514035	0.514035	0	1	0	0	CorrectCommission	0.796219	0.918576	0	1
271.465698	0.792159	city	1	1	0.447742	0.447742	0	1	0	0	CorrectCommission	1.532852	0.922834	0	1
272.257904	0.792266	city	10	1	0.497862	0.497862	0	1	0	0	CorrectCommission	0.975928	0.928662	0	1
273.050171	0.792264	city	9	1	0.547428	0.547428	0	1	0	0	CorrectCommission	0.425176	0.936595	0	1
273.842529	0.792479	city	1	1	0.497260	0.497260	0	1	0	0	CorrectCommission	0.982619	0.946392	0	1
274.634857	0.792156	city	5	1	0.546840	0.546840	0	1	0	0	CorrectCommission	0.431707	0.957055	0	1
275.427124	0.792373	city	10	1	0.447918	0.447918	0	1	0	0	CorrectCommission	1.530893	0.967040	0	1
276.219360	0.792108	mountain	10	1	0.560002	0.560002	0	0	1	0	CommissionError	0.285452	0.974435	0	1
277.011536	0.792215	city	10	1	0.497330	0.497330	0	1	0	0	CorrectCommission	0.981848	0.977282	0	1
277.803772	0.792283	city	3	1	0.398668	0.398668	0	1	0	0	CorrectCommission	2.078145	0.973829	0	1
278.596039	0.792282	city	5	1	0.447661	0.447661	0	1	0	0	CorrectCommission	1.533749	0.962761	0	1
279.388306	0.792219	city	7	1	0.497657	0.497657	0	1	0	0	CorrectCommission	0.978207	0.943501	0	1
280.180542	0.792265	city	8	1	0.498276	0.498276	0	1	0	0	CorrectCommission	0.971335	0.916240	0	1
280.972809	0.792275	mountain	10	1	0.512108	0.512108	0	0	1	0	CommissionError	0.817640	0.882015	0	1
281.765106	0.792319	city	7	1	0.497200	0.497200	0	1	0	0	CorrectCommission	0.983292	0.842680	0	1
282.557465	0.792418	city	4	1	0.646057	0.646057	0	1	0	0	CorrectCommission	0.670761	0.800736	0	1
283.349701	0.792050	city	9	1	0.546550	0.546550	0	1	0	0	CorrectCommission	0.434926	0.759194	0	1
284.141968	0.792480	city	5	1	0.502245	0.502245	0	1	0	0	CorrectCommission	0.927229	0.721407	1	1
284.934235	0.792045	mountain	2	1	0.504960	0.504960	0	0	1	0	CommissionError	0.897059	0.690816	1	1
285.726410	0.792266	city	5	1	0.646720	0.646720	0	1	0	0	CorrectCommission	0.678134	0.670635	1	1
286.518768	0.792483	city	10	1	0.599981	0.599981	0	1	0	0	CorrectCommission	0.158785	0.663584	1	1
287.311157	0.792264	city	3	1	0.596005	0.596005	0	1	0	0	CorrectCommission	0.114604	0.671588	1	1
288.103424	0.792264	city	9	1	0.605385	0.605385	0	1	0	0	CorrectCommission	0.218828	0.695463	1	1
288.895569	0.792061	city	10	1	0.546473	0.546473	0	1	0	0	CorrectCommission	0.435784	0.734738	1	1
289.687836	0.792467	city	9	1	0.596444	0.596444	0	1	0	0	CorrectCommission	0.119483	0.787605	0	1
290.480194	0.792267	city	2	1	0.596179	0.596179	0	1	0	0	CorrectCommission	0.116539	0.851015	0	1
291.272369	0.792047	city	1	1	0.695198	0.695198	0	1	0	0	CorrectCommission	1.216806	0.920935	0	1
292.064545	0.792333	city	2	1	0.646186	0.646186	0	1	0	0	CorrectCommission	0.672200	0.992713	0	1
292.856934	0.792413	city	7	1	0.794283	0.794283	0	1	0	0	CorrectCommission	2.317810	1.061602	0	1
293.649139	0.792046	city	3	1	0.500124	0.500124	0	1	0	0	CorrectCommission	0.950797	1.123252	0	1
294.441315	0.792267	city	1	1	0.362139	0.362139	0	1	0	0	CorrectCommission	2.484045	1.174213	0	1
295.233643	0.792372	city	5	1	0.497241	0.497241	0	1	0	0	CorrectCommission	0.982838	1.212077	0	1
296.025940	0.792265	city	8	1	0.447728	0.447728	0	1	0	0	CorrectCommission	1.533008	1.235806	0	1
296.818146	0.792159	mountain	2	1	0.361570	0.361570	0	0	1	0	CommissionError	2.490363	1.245578	0	1
297.610382	0.792263	city	10	1	0.466018	0.466018	0	1	0	0	CorrectCommission	1.329776	1.242631	0	1
298.402618	0.792264	city	1	1	0.562221	0.562221	0	1	0	0	CorrectCommission	0.260793	1.229036	0	1
299.194916	0.792271	city	2	1	0.604347	0.604347	0	1	0	0	CorrectCommission	0.207296	1.207315	0	1
299.987213	0.792369	city	6	1	0.398337	0.398337	0	1	0	0	CorrectCommission	2.081823	1.180149	0	1
300.779602	0.792371	city	3	1	0.497069	0.497069	0	1	0	0	CorrectCommission	0.984744	1.150145	0	1
301.571808	0.792051	mountain	9	1	0.447456	0.447456	0	0	1	0	CommissionError	1.536032	1.119719	0	1
302.364014	0.792372	city	4	1	0.463420	0.463420	0	1	0	0	CorrectCommission	1.358644	1.090938	0	1
303.156281	0.792155	mountain	6	1	0.498088	0.498088	0	0	1	0	CommissionError	0.973423	1.065461	0	1
303.948608	0.792481	city	1	1	0.512002	0.512002	0	1	0	0	CorrectCommission	0.818818	1.044477	0	1
304.740875	0.792056	city	5	1	0.498229	0.498229	0	1	0	0	CorrectCommission	0.971856	1.028636	0	1
305.533020	0.792255	city	4	1	0.596761	0.596761	0	1	0	0	CorrectCommission	0.123005	1.018023	0	0
306.325287	0.792265	city	9	1	0.711535	0.711535	0	1	0	0	CorrectCommission	1.398334	1.012182	0	0
307.117584	0.792373	city	3	1	0.605795	0.605795	0	1	0	0	CorrectCommission	0.223381	1.010135	0	0
307.909851	0.792163	city	9	1	0.596141	0.596141	0	1	0	0	CorrectCommission	0.116118	1.010640	0	0
308.702118	0.792345	mountain	4	0	0.000000	0.750193	1	0	0	0	CorrectOmission	1.827895	1.012324	0	0
309.494476	0.792395	city	4	1	0.843714	0.843714	0	1	0	0	CorrectCommission	2.867073	1.013936	0	0
310.286713	0.792055	city	10	1	0.652469	0.652469	0	1	0	0	CorrectCommission	0.742012	1.014560	0	0
311.078857	0.792256	city	1	1	0.646402	0.646402	0	1	0	0	CorrectCommission	0.674600	1.013848	0	0
311.871155	0.792300	city	5	1	0.508419	0.508419	0	1	0	0	CorrectCommission	0.858623	1.011894	0	0
312.663422	0.792234	city	2	1	0.497277	0.497277	0	1	0	0	CorrectCommission	0.982428	1.009245	0	0
313.455780	0.792480	city	10	1	0.448061	0.448061	0	1	0	0	CorrectCommission	1.529307	1.006714	0	0
314.248047	0.792050	city	4	1	0.546574	0.546574	0	1	0	0	CorrectCommission	0.434664	1.005190	0	0
315.040253	0.792370	city	1	1	0.596543	0.596543	0	1	0	0	CorrectCommission	0.120579	1.005515	0	0
315.832520	0.792169	city	9	1	0.699937	0.699937	0	1	0	0	CorrectCommission	1.269458	1.008292	0	0
316.624786	0.792361	city	2	1	0.647274	0.647274	0	1	0	0	CorrectCommission	0.684283	1.013796	0	0
317.417053	0.792156	city	6	1	0.757584	0.757584	0	1	0	0	CorrectCommission	1.910022	1.021984	0	0
318.209290	0.792331	city	3	1	0.695250	0.695250	0	1	0	0	CorrectCommission	1.217377	1.032465	0	0
319.001617	0.792308	city	8	1	0.653815	0.653815	0	1	0	0	CorrectCommission	0.756963	1.044577	0	0
319.793884	0.792264	city	3	1	0.645651	0.645651	0	1	0	0	CorrectCommission	0.666253	1.057383	0	0
320.586090	0.792155	city	4	1	0.698892	0.698892	0	1	0	0	CorrectCommission	1.257849	1.069699	0	0
321.378357	0.792373	city	6	1	0.713344	0.713344	0	1	0	0	CorrectCommission	1.418435	1.080117	0	0
322.170624	0.792158	city	10	1	0.645679	0.645679	0	1	0	0	CorrectCommission	0.666566	1.087074	0	0
322.962891	0.792372	city	8	1	0.645970	0.645970	0	1	0	0	CorrectCommission	0.669800	1.089000	0	0
323.755157	0.792159	city	3	1	0.695170	0.695170	0	1	0	0	CorrectCommission	1.216493	1.084412	0	0
324.547394	0.792317	city	8	1	0.695376	0.695376	0	1	0	0	CorrectCommission	1.218787	1.072161	0	0
325.339661	0.792208	city	9	1	0.744750	0.744750	0	1	0	0	CorrectCommission	1.767406	1.051668	0	0
326.131897	0.792269	city	3	1	0.744789	0.744789	0	1	0	0	CorrectCommission	1.767842	1.023040	0	0
326.924225	0.792371	city	4	1	0.745260	0.745260	0	1	0	0	CorrectCommission	1.773077	0.987161	0	0
327.716583	0.792372	mountain	1	0	0.000000	0.678876	1	0	0	0	CorrectOmission	1.035437	0.945658	0	0
328.508789	0.792052	city	10	1	0.596018	0.596018	0	1	0	0	CorrectCommission	0.114745	0.900769	0	0
329.300964	0.792262	city	8	1	0.547068	0.547068	0	1	0	0	CorrectCommission	0.429173	0.855042	0	0
330.093262	0.792372	city	6	1	0.510829	0.510829	0	1	0	0	CorrectCommission	0.831849	0.811028	0	0
330.885651	0.792375	city	7	1	0.614144	0.614144	0	1	0	0	CorrectCommission	0.316158	0.771043	0	0
331.677979	0.792265	city	6	1	0.560504	0.560504	0	1	0	0	CorrectCommission	0.279873	0.736976	1	0
332.470123	0.792068	city	5	1	0.695079	0.695079	0	1	0	0	CorrectCommission	1.215482	0.710164	1	0
333.262390	0.792461	city	7	1	0.546909	0.546909	0	1	0	0	CorrectCommission	0.430934	0.691335	1	0
334.054749	0.792265	city	3	1	0.550279	0.550279	0	1	0	0	CorrectCommission	0.393488	0.680724	1	0
334.846924	0.792046	mountain	9	1	0.645644	0.645644	0	0	1	0	CommissionError	0.666174	0.678095	1	0
335.639069	0.792268	city	1	1	0.497115	0.497115	0	1	0	0	CorrectCommission	0.984237	0.682852	1	0
336.431458	0.792479	city	8	1	0.497183	0.497183	0	1	0	0	CorrectCommission	0.983476	0.694086	1	0
337.223724	0.792055	city	5	1	0.546540	0.546540	0	1	0	0	CorrectCommission	0.435039	0.710597	1	0
338.015869	0.792257	city	1	1	0.563371	0.563371	0	1	0	0	CorrectCommission	0.248023	0.730912	1	0
338.808197	0.792372	city	7	1	0.599390	0.599390	0	1	0	0	CorrectCommission	0.152215	0.753282	0	0
339.600464	0.792157	city	1	1	0.596164	0.596164	0	1	0	0	CorrectCommission	0.116371	0.775799	0	0
340.392700	0.792333	city	9	1	0.695277	0.695277	0	1	0	0	CorrectCommission	1.217680	0.796502	0	0
341.184967	0.792189	mountain	4	0	0.000000	0.761644	1	0	0	0	CorrectOmission	1.955128	0.813526	0	0
341.977203	0.792276	city	4	1	0.745300	0.745300	0	1	0	0	CorrectCommission	1.773518	0.825393	0	0
342.769562	0.792478	city	6	1	0.596280	0.596280	0	1	0	0	CorrectCommission	0.117654	0.831139	0	0
343.561951	0.792265	city	5	1	0.459371	0.459371	0	1	0	0	CorrectCommission	1.403635	0.830512	0	0
344.354095	0.792049	city	9	1	0.650404	0.650404	0	1	0	0	CorrectCommission	0.719067	0.823910	0	0
345.146240	0.792267	city	1	1	0.596271	0.596271	0	1	0	0	CorrectCommission	0.117560	0.812455	0	0
345.938507	0.792262	city	2	1	0.695715	0.695715	0	1	0	0	CorrectCommission	1.222545	0.797833	0	0
346.730835	0.792373	city	1	1	0.645778	0.645778	0	1	0	0	CorrectCommission	0.667659	0.782038	0	0
347.523102	0.792156	city	6	1	0.695489	0.695489	0	1	0	0	CorrectCommission	1.220040	0.767225	0	0
348.315430	0.792483	city	4	1	0.695285	0.695285	0	1	0	0	CorrectCommission	1.217768	0.755393	0	0
349.107697	0.792046	city	7	1	0.596024	0.596024	0	1	0	0	CorrectCommission	0.114814	0.748171	1	0
349.899933	0.792482	city	1	1	0.596795	0.596795	0	1	0	0	CorrectCommission	0.123383	0.746597	1	0
350.692200	0.792051	city	9	1	0.546565	0.546565	0	1	0	0	CorrectCommission	0.434757	0.750941	0	0
351.484436	0.792369	city	4	1	0.547262	0.547262	0	1	0	0	CorrectCommission	0.427015	0.760665	0	0
352.276703	0.792161	mountain	10	1	0.547058	0.547058	0	0	1	0	CommissionError	0.429288	0.774499	0	0
353.069000	0.792480	city	1	1	0.497217	0.497217	0	1	0	0	CorrectCommission	0.983097	0.790608	0	0
353.861267	0.792060	city	4	1	0.511014	0.511014	0	1	0	0	CorrectCommission	0.829794	0.806858	0	0
354.653473	0.792312	city	10	1	0.447672	0.447672	0	1	0	0	CorrectCommission	1.533628	0.821141	0	0
355.445770	0.792310	city	5	1	0.461768	0.461768	0	1	0	0	CorrectCommission	1.377002	0.831622	0	0
356.238007	0.792159	mountain	10	1	0.546845	0.546845	0	0	1	0	CommissionError	0.431652	0.836955	0	0
357.030212	0.792264	city	3	1	0.398625	0.398625	0	1	0	0	CorrectCommission	2.078630	0.836382	0	0
357.822510	0.792342	city	9	1	0.546758	0.546758	0	1	0	0	CorrectCommission	0.432611	0.829638	0	0
358.614777	0.792185	city	3	1	0.546709	0.546709	0	1	0	0	CorrectCommission	0.433162	0.816954	0	0
359.407013	0.792264	city	7	1	0.558639	0.558639	0	1	0	0	CorrectCommission	0.300599	0.798831	0	0
360.199402	0.792484	city	9	1	0.646316	0.646316	0	1	0	0	CorrectCommission	0.673644	0.775973	0	0
360.991669	0.792048	city	5	1	0.695509	0.695509	0	1	0	0	CorrectCommission	1.220255	0.749131	1	0
361.783813	0.792266	city	10	1	0.645845	0.645845	0	1	0	0	CorrectCommission	0.668409	0.719113	1	0
362.576080	0.792266	city	3	1	0.696588	0.696588	0	1	0	0	CorrectCommission	1.232247	0.686827	1	0
363.368347	0.792280	city	5	1	0.646274	0.646274	0	1	0	0	CorrectCommission	0.673178	0.653230	1	0
364.160736	0.792464	city	9	1	0.645713	0.645713	0	1	0	0	CorrectCommission	0.666946	0.619448	1	0
364.952972	0.792047	city	7	1	0.652609	0.652609	0	1	0	0	CorrectCommission	0.743573	0.586676	1	1
365.745178	0.792374	mountain	4	0	0.000000	0.618499	1	0	0	0	CorrectOmission	0.364552	0.556132	1	1
366.537445	0.792159	mountain	6	0	0.000000	0.576029	1	0	0	0	CorrectOmission	0.107371	0.528970	1	1
367.329712	0.792371	city	8	1	0.557843	0.557843	0	1	0	0	CorrectCommission	0.309444	0.506132	1	1
368.121979	0.792159	city	1	1	0.596588	0.596588	0	1	0	0	CorrectCommission	0.121080	0.488221	1	1
368.914246	0.792370	city	10	1	0.547214	0.547214	0	1	0	0	CorrectCommission	0.427547	0.475449	1	1
369.706573	0.792264	city	1	1	0.548051	0.548051	0	1	0	0	CorrectCommission	0.418243	0.467637	1	1
370.498779	0.792154	city	6	1	0.512843	0.512843	0	1	0	0	CorrectCommission	0.809471	0.464239	1	1
371.290985	0.792268	city	7	1	0.547300	0.547300	0	1	0	0	CorrectCommission	0.426590	0.464445	1	1
372.083252	0.792264	city	4	1	0.553334	0.553334	0	1	0	0	CorrectCommission	0.359544	0.467335	1	1
372.875580	0.792372	city	9	1	0.547309	0.547309	0	1	0	0	CorrectCommission	0.426494	0.471980	1	1
373.667847	0.792155	city	6	1	0.554910	0.554910	0	1	0	0	CorrectCommission	0.342034	0.477619	1	1
374.460144	0.792484	city	5	1	0.547266	0.547266	0	1	0	0	CorrectCommission	0.426975	0.483721	1	1
375.252441	0.792109	city	3	1	0.645996	0.645996	0	1	0	0	CorrectCommission	0.670085	0.490096	1	1
376.044617	0.792204	city	5	1	0.645669	0.645669	0	1	0	0	CorrectCommission	0.666452	0.496889	1	1
376.836853	0.792279	city	2	1	0.650666	0.650666	0	1	0	0	CorrectCommission	0.721980	0.504537	1	1
377.629120	0.792285	city	4	1	0.645831	0.645831	0	1	0	0	CorrectCommission	0.668247	0.513637	1	1
378.421387	0.792230	city	8	1	0.596234	0.596234	0	1	0	0	CorrectCommission	0.117143	0.524791	1	1
379.213623	0.792267	city	6	1	0.645834	0.645834	0	1	0	0	CorrectCommission	0.668290	0.538435	1	1
380.005890	0.792262	city	4	1	0.614628	0.614628	0	1	0	0	CorrectCommission	0.321532	0.554610	1	1
380.798157	0.792269	city	5	1	0.596294	0.596294	0	1	0	0	CorrectCommission	0.117808	0.572891	1	1
381.590454	0.792292	city	7	1	0.596695	0.596695	0	1	0	0	CorrectCommission	0.122271	0.592334	1	1
382.382812	0.792452	city	2	1	0.661852	0.661852	0	1	0	0	CorrectCommission	0.846279	0.611551	1	1
383.175110	0.792155	city	6	1	0.645892	0.645892	0	1	0	0	CorrectCommission	0.668929	0.628918	1	1
383.967377	0.792373	city	7	1	0.611932	0.611932	0	1	0	0	CorrectCommission	0.291575	0.642882	1	1
384.759583	0.792049	city	4	1	0.748169	0.748169	0	1	0	0	CorrectCommission	1.805401	0.652210	1	1
385.551819	0.792374	city	9	1	0.695342	0.695342	0	1	0	0	CorrectCommission	1.218408	0.656269	1	1
386.344055	0.792154	city	10	1	0.646269	0.646269	0	1	0	0	CorrectCommission	0.673125	0.655247	1	1
387.136292	0.792264	city	2	1	0.702120	0.702120	0	1	0	0	CorrectCommission	1.293720	0.650131	1	1
387.928558	0.792266	city	7	1	0.614096	0.614096	0	1	0	0	CorrectCommission	0.315627	0.642570	1	1
388.720795	0.792265	city	10	1	0.596242	0.596242	0	1	0	0	CorrectCommission	0.117231	0.634690	1	1
389.513123	0.792341	city	9	1	0.613552	0.613552	0	1	0	0	CorrectCommission	0.309580	0.628737	1	1
390.305420	0.792260	city	1	1	0.596272	0.596272	0	1	0	0	CorrectCommission	0.117564	0.626757	1	1
391.097626	0.792195	city	3	1	0.645680	0.645680	0	1	0	0	CorrectCommission	0.666576	0.630322	1	1
391.889984	0.792480	city	1	1	0.657926	0.657926	0	1	0	0	CorrectCommission	0.802650	0.640339	1	1
392.682251	0.792050	city	3	1	0.611987	0.611987	0	1	0	0	CorrectCommission	0.292192	0.656983	1	1
393.474396	0.792265	city	9	1	0.646643	0.646643	0	1	0	0	CorrectCommission	0.677279	0.679733	1	1
394.266663	0.792263	city	2	1	0.645897	0.645897	0	1	0	0	CorrectCommission	0.668991	0.707437	1	1
395.058929	0.792263	city	7	1	0.657131	0.657131	0	1	0	0	CorrectCommission	0.793818	0.738505	1	1
395.851288	0.792483	city	1	1	0.646253	0.646253	0	1	0	0	CorrectCommission	0.672943	0.771083	0	1
396.643555	0.792045	city	10	1	0.645579	0.645579	0	1	0	0	CorrectCommission	0.665450	0.803240	0	1
397.435730	0.792267	city	4	1	0.646428	0.646428	0	1	0	0	CorrectCommission	0.674886	0.833136	0	1
398.228119	0.792536	mountain	10	0	0.000000	0.720403	1	0	0	0	CorrectOmission	1.496879	0.859154	0	1
399.020386	0.791994	city	6	1	0.744631	0.744631	0	1	0	0	CorrectCommission	1.766086	0.879980	0	1
399.812531	0.792262	city	3	1	0.596236	0.596236	0	1	0	0	CorrectCommission	0.117164	0.894644	0	1
400.604797	0.792274	city	4	1	0.505452	0.505452	0	1	0	0	CorrectCommission	0.891599	0.902576	0	1
401.397156	0.792474	city	2	1	0.447728	0.447728	0	1	0	0	CorrectCommission	1.533004	0.903488	0	1
402.189453	0.792123	city	3	1	0.513372	0.513372	0	1	0	0	CorrectCommission	0.803595	0.897364	0	1
402.981628	0.792193	city	9	1	0.511317	0.511317	0	1	0	0	CorrectCommission	0.826420	0.884457	0	1
403.773895	0.792369	city	5	1	0.646201	0.646201	0	1	0	0	CorrectCommission	0.672364	0.865253	0	1
404.566223	0.792265	city	3	1	0.497137	0.497137	0	1	0	0	CorrectCommission	0.983990	0.840474	0	1
405.358429	0.792162	city	4	1	0.447615	0.447615	0	1	0	0	CorrectCommission	1.534261	0.811074	0	1
406.150696	0.792369	city	1	1	0.549121	0.549121	0	1	0	0	CorrectCommission	0.406359	0.778283	0	1
406.942963	0.792158	city	10	1	0.508484	0.508484	0	1	0	0	CorrectCommission	0.857904	0.743648	1	1
407.735229	0.792370	city	2	1	0.508620	0.508620	0	1	0	0	CorrectCommission	0.856394	0.708935	1	1
408.527466	0.792155	city	4	1	0.659652	0.659652	0	1	0	0	CorrectCommission	0.821830	0.676068	1	1
409.319733	0.792335	city	10	1	0.546772	0.546772	0	1	0	0	CorrectCommission	0.432459	0.647014	1	1
410.112000	0.792197	city	7	1	0.550648	0.550648	0	1	0	0	CorrectCommission	0.389390	0.623612	1	1
410.904266	0.792373	city	9	1	0.596268	0.596268	0	1	0	0	CorrectCommission	0.117521	0.607381	1	1
411.696533	0.792156	city	2	1	0.546638	0.546638	0	1	0	0	CorrectCommission	0.433945	0.599351	1	1
412.488770	0.792322	city	5	1	0.546872	0.546872	0	1	0	0	CorrectCommission	0.431352	0.599921	1	1
413.281036	0.792206	city	8	1	0.546831	0.546831	0	1	0	0	CorrectCommission	0.431801	0.608776	1	1
414.073303	0.792304	city	9	1	0.645740	0.645740	0	1	0	0	CorrectCommission	0.667246	0.624888	1	1
414.865570	0.792227	city	10	1	0.546691	0.546691	0	1	0	0	CorrectCommission	0.433360	0.646560	1	1
415.657928	0.792481	city	9	1	0.646337	0.646337	0	1	0	0	CorrectCommission	0.673876	0.671574	1	1
416.450195	0.792052	city	3	1	0.546854	0.546854	0	1	0	0	CorrectCommission	0.431550	0.697370	1	1
417.242340	0.792261	city	4	1	0.497362	0.497362	0	1	0	0	CorrectCommission	0.981494	0.721339	1	1
418.034607	0.792264	city	3	1	0.546773	0.546773	0	1	0	0	CorrectCommission	0.432448	0.741035	1	1
418.826874	0.792269	mountain	3	1	0.465036	0.465036	0	0	1	0	CommissionError	1.340691	0.754462	0	1
419.619232	0.792477	city	6	1	0.398204	0.398204	0	1	0	0	CorrectCommission	2.083301	0.760269	0	1
420.411530	0.792094	city	1	1	0.553479	0.553479	0	1	0	0	CorrectCommission	0.357939	0.757906	0	1
421.203705	0.792259	city	3	1	0.554955	0.554955	0	1	0	0	CorrectCommission	0.341539	0.747735	1	1
421.995941	0.792222	city	9	1	0.695359	0.695359	0	1	0	0	CorrectCommission	1.218590	0.730928	1	1
422.788177	0.792265	city	4	1	0.695728	0.695728	0	1	0	0	CorrectCommission	1.222698	0.709317	1	1
423.580566	0.792484	city	1	1	0.610649	0.610649	0	1	0	0	CorrectCommission	0.277322	0.685247	1	1
424.372864	0.792088	city	3	1	0.645522	0.645522	0	1	0	0	CorrectCommission	0.664821	0.661304	1	0
425.165070	0.792334	city	5	1	0.561615	0.561615	0	1	0	0	CorrectCommission	0.267526	0.639991	1	0
425.957306	0.792155	mountain	5	0	0.000000	0.550573	1	0	0	0	CorrectOmission	0.390221	0.623489	1	0
426.749573	0.792372	city	8	1	0.552014	0.552014	0	1	0	0	CorrectCommission	0.374209	0.613426	1	0
427.541840	0.792156	city	5	1	0.505556	0.505556	0	1	0	0	CorrectCommission	0.890435	0.610715	1	0
428.334045	0.792283	city	8	1	0.599365	0.599365	0	1	0	0	CorrectCommission	0.151942	0.615430	1	0
429.126312	0.792244	city	1	1	0.646363	0.646363	0	1	0	0	CorrectCommission	0.674169	0.626838	1	0
429.918579	0.792286	city	5	1	0.596229	0.596229	0	1	0	0	CorrectCommission	0.117095	0.643442	1	0
430.710876	0.792286	city	10	1	0.546687	0.546687	0	1	0	0	CorrectCommission	0.433404	0.663195	1	0
431.503113	0.792226	city	9	1	0.646349	0.646349	0	1	0	0	CorrectCommission	0.674013	0.683691	1	0
432.295380	0.792267	city	7	1	0.662120	0.662120	0	1	0	0	CorrectCommission	0.849257	0.702489	1	0
433.087646	0.792265	city	6	1	0.695264	0.695264	0	1	0	0	CorrectCommission	1.217539	0.717377	1	0
433.879944	0.792369	mountain	9	0	0.000000	0.709227	1	0	0	0	CorrectOmission	1.372689	0.726624	1	0
434.672211	0.792155	city	2	1	0.695539	0.695539	0	1	0	0	CorrectCommission	1.220596	0.729148	1	0
435.464539	0.792482	city	5	1	0.645732	0.645732	0	1	0	0	CorrectCommission	0.667148	0.724615	1	0
436.256805	0.792055	city	3	1	0.565986	0.565986	0	1	0	0	CorrectCommission	0.218960	0.713391	1	0
437.048950	0.792257	city	9	1	0.695251	0.695251	0	1	0	0	CorrectCommission	1.217397	0.696395	1	0
437.841278	0.792375	city	6	1	0.645798	0.645798	0	1	0	0	CorrectCommission	0.667882	0.674966	1	0
438.633606	0.792263	city	3	1	0.596383	0.596383	0	1	0	0	CorrectCommission	0.118803	0.650720	1	0
439.425842	0.792205	city	4	1	0.645673	0.645673	0	1	0	0	CorrectCommission	0.666498	0.625344	1	0
440.218079	0.792324	city	3	1	0.657544	0.657544	0	1	0	0	CorrectCommission	0.798400	0.600485	1	0
441.010376	0.792267	city	8	1	0.596271	0.596271	0	1	0	0	CorrectCommission	0.117561	0.577769	1	0
441.802704	0.792374	mountain	1	0	0.000000	0.649706	1	0	0	0	CorrectOmission	0.711310	0.558747	1	0
442.594910	0.792049	city	6	1	0.695615	0.695615	0	1	0	0	CorrectCommission	1.221441	0.544863	1	0
443.387115	0.792325	city	4	1	0.611767	0.611767	0	1	0	0	CorrectCommission	0.289747	0.537441	1	0
444.179382	0.792210	city	1	1	0.596261	0.596261	0	1	0	0	CorrectCommission	0.117441	0.537671	1	0
444.971710	0.792473	city	8	1	0.596748	0.596748	0	1	0	0	CorrectCommission	0.122853	0.546424	1	0
445.764008	0.792100	city	7	1	0.546484	0.546484	0	1	0	0	CorrectCommission	0.435661	0.564169	1	0
446.556183	0.792258	city	1	1	0.599267	0.599267	0	1	0	0	CorrectCommission	0.150852	0.590844	1	0
447.348572	0.792492	mountain	2	0	0.000000	0.652945	1	0	0	0	CorrectOmission	0.747298	0.625810	1	0
448.140808	0.791994	city	9	1	0.654687	0.654687	0	1	0	0	CorrectCommission	0.766660	0.667753	1	0
448.932922	0.792263	city	5	1	0.551666	0.551666	0	1	0	0	CorrectCommission	0.378082	0.714814	1	0
449.725220	0.792294	city	10	1	0.547039	0.547039	0	1	0	0	CorrectCommission	0.429497	0.764785	0	0
450.517456	0.792233	city	3	1	0.655524	0.655524	0	1	0	0	CorrectCommission	0.775963	0.815333	0	0
451.309723	0.792265	city	2	1	0.695263	0.695263	0	1	0	0	CorrectCommission	1.217522	0.864272	0	0
452.102020	0.792347	city	1	1	0.646388	0.646388	0	1	0	0	CorrectCommission	0.674447	0.909920	0	0
452.894287	0.792184	city	5	1	0.696323	0.696323	0	1	0	0	CorrectCommission	1.229307	0.951350	0	0
453.686615	0.792484	city	6	1	0.794448	0.794448	0	1	0	0	CorrectCommission	2.319638	0.988482	0	0
454.478882	0.792050	mountain	8	0	0.000000	0.728583	1	0	0	0	CorrectOmission	1.587771	1.022015	0	0
455.271057	0.792262	city	5	1	0.646327	0.646327	0	1	0	0	CorrectCommission	0.673759	1.053276	0	0
456.063416	0.792481	city	4	1	0.695275	0.695275	0	1	0	0	CorrectCommission	1.217656	1.083821	0	0
456.855682	0.792049	city	9	1	0.646087	0.646087	0	1	0	0	CorrectCommission	0.671093	1.114906	0	0
457.647949	0.792482	city	3	1	0.596400	0.596400	0	1	0	0	CorrectCommission	0.118988	1.147088	0	0
458.440247	0.792127	city	7	1	0.596932	0.596932	0	1	0	0	CorrectCommission	0.124902	1.179923	0	0
459.232422	0.792238	city	1	1	0.695243	0.695243	0	1	0	0	CorrectCommission	1.217303	1.211854	0	0
460.024658	0.792216	city	7	1	0.698967	0.698967	0	1	0	0	CorrectCommission	1.258679	1.240331	0	0
460.816925	0.792333	city	3	1	0.695292	0.695292	0	1	0	0	CorrectCommission	1.217849	1.262289	0	0
461.609192	0.792193	mountain	2	0	0.000000	0.826117	1	0	0	0	CorrectOmission	2.671535	1.274648	0	0
462.401550	0.792480	city	8	1	0.893343	0.893343	0	1	0	0	CorrectCommission	3.418533	1.274829	0	0
463.193787	0.792048	city	4	1	0.698873	0.698873	0	1	0	0	CorrectCommission	1.257642	1.261257	0	0
463.986053	0.792481	city	6	1	0.562280	0.562280	0	1	0	0	CorrectCommission	0.260144	1.233681	0	0
464.778320	0.792052	city	8	1	0.447476	0.447476	0	1	0	0	CorrectCommission	1.535801	1.193165	0	0
465.570526	0.792315	city	5	1	0.398155	0.398155	0	1	0	0	CorrectCommission	2.083846	1.141902	0	0
466.362793	0.792213	city	8	1	0.563848	0.563848	0	1	0	0	CorrectCommission	0.242721	1.082965	0	0
467.155060	0.792372	city	1	1	0.508222	0.508222	0	1	0	0	CorrectCommission	0.860811	1.019940	0	0
467.947327	0.792156	city	4	1	0.497522	0.497522	0	1	0	0	CorrectCommission	0.979708	0.956441	0	0
468.739594	0.792374	city	9	1	0.497509	0.497509	0	1	0	0	CorrectCommission	0.979854	0.895858	0	0
469.531860	0.792153	city	8	1	0.560495	0.560495	0	1	0	0	CorrectCommission	0.279973	0.841094	0	0
470.324066	0.792265	city	9	1	0.560672	0.560672	0	1	0	0	CorrectCommission	0.278002	0.794414	0	0
471.116333	0.792267	city	8	1	0.695294	0.695294	0	1	0	0	CorrectCommission	1.217867	0.757363	0	0
471.908630	0.792327	mountain	5	0	0.000000	0.667594	1	0	0	0	CorrectOmission	0.910072	0.730786	1	0
472.700897	0.792202	city	10	1	0.596271	0.596271	0	1	0	0	CorrectCommission	0.117560	0.714926	1	0
473.493134	0.792287	city	2	1	0.600026	0.600026	0	1	0	0	CorrectCommission	0.159279	0.709427	1	0
474.285400	0.792248	city	3	1	0.695366	0.695366	0	1	0	0	CorrectCommission	1.218669	0.713373	1	0
475.077667	0.792261	city	4	1	0.596881	0.596881	0	1	0	0	CorrectCommission	0.124330	0.725327	1	0
475.869995	0.792370	city	8	1	0.546641	0.546641	0	1	0	0	CorrectCommission	0.433921	0.743432	1	0
476.662262	0.792164	city	7	1	0.497327	0.497327	0	1	0	0	CorrectCommission	0.981878	0.765340	0	0
477.454468	0.792258	city	2	1	0.508981	0.508981	0	1	0	0	CorrectCommission	0.852384	0.788292	0	0
478.246826	0.792483	city	6	1	0.502696	0.502696	0	1	0	0	CorrectCommission	0.922223	0.809231	0	0
479.039093	0.792049	city	4	1	0.546520	0.546520	0	1	0	0	CorrectCommission	0.435263	0.824881	0	0
479.831299	0.792371	city	3	1	0.447689	0.447689	0	1	0	0	CorrectCommission	1.533439	0.831947	0	0
480.623566	0.792156	city	9	1	0.452434	0.452434	0	1	0	0	CorrectCommission	1.480710	0.827277	0	0
481.415771	0.792268	city	8	1	0.497244	0.497244	0	1	0	0	CorrectCommission	0.982796	0.808153	0	0
482.208099	0.792369	mountain	2	0	0.000000	0.563061	1	0	0	0	CorrectOmission	0.251463	0.772495	0	0
483.000458	0.792374	city	4	1	0.563391	0.563391	0	1	0	0	CorrectCommission	0.247798	0.719134	1	0
483.792694	0.792052	city	1	1	0.411740	0.411740	0	1	0	0	CorrectCommission	1.932889	0.648065	1	0
484.584839	0.792261	city	3	1	0.413454	0.413454	0	1	0	0	CorrectCommission	1.913853	0.560519	1	0
485.377106	0.792282	city	9	1	0.497242	0.497242	0	1	0	0	CorrectCommission	0.982819	0.459111	1	0
486.169495	0.792464	city	6	1	0.547127	0.547127	0	1	0	0	CorrectCommission	0.428511	0.347682	1	0
486.961761	0.792074	city	7	1	0.564903	0.564903	0	1	0	0	CorrectCommission	0.230992	0.230992	1	0
