onset	duration	trial_type	image_type	Press	ReactionTime	ReactionTime_Interpolated	CorrectOmission	CorrectCommission	CommissionError	OmissionError	response_type	nonsmoothVarianceTimeCourse	VarianceTimeCourse	In_the_Zone	Reward_trial
8.433921	0.792156	city	9	1	0.992325	0.992325	0	1	0	0	CorrectCommission	1.483861	1.483861	0	1
9.226130	0.792263	city	6	1	0.646455	0.646455	0	1	0	0	CorrectCommission	0.944280	1.475356	0	1
10.018342	0.792160	city	5	1	0.497114	0.497114	0	1	0	0	CorrectCommission	1.992709	1.465928	0	1
10.810557	0.792271	city	10	1	0.405668	0.405668	0	1	0	0	CorrectCommission	2.634696	1.454991	0	1
11.602930	0.792473	city	4	1	0.398392	0.398392	0	1	0	0	CorrectCommission	2.685772	1.442611	0	1
12.395200	0.792068	city	9	1	1.041962	1.041962	0	1	0	0	CorrectCommission	1.832330	1.429545	0	1
13.187410	0.792352	city	2	1	0.894493	0.894493	0	1	0	0	CorrectCommission	0.797044	1.417045	0	1
13.979774	0.792374	mountain	7	0	0.000000	0.841886	1	0	0	0	CorrectOmission	0.427720	1.406539	0	1
14.771984	0.792047	mountain	6	1	0.844422	0.844422	0	0	1	0	CommissionError	0.445528	1.399114	0	1
15.564142	0.792268	city	7	1	0.862386	0.862386	0	1	0	0	CorrectCommission	0.571637	1.395169	0	1
16.356422	0.792292	city	2	1	0.647464	0.647464	0	1	0	0	CorrectCommission	0.937195	1.394178	0	1
17.148739	0.792341	city	6	1	0.547126	0.547126	0	1	0	0	CorrectCommission	1.641609	1.394691	0	1
17.941097	0.792375	city	9	1	0.507344	0.507344	0	1	0	0	CorrectCommission	1.920887	1.394565	0	1
18.733307	0.792047	city	5	1	0.453962	0.453962	0	1	0	0	CorrectCommission	2.295649	1.391359	0	1
19.525518	0.792374	city	10	1	0.497268	0.497268	0	1	0	0	CorrectCommission	1.991628	1.382762	0	1
20.317837	0.792263	mountain	4	1	0.398120	0.398120	0	0	1	0	CommissionError	2.687680	1.366984	0	1
21.110048	0.792158	city	8	1	0.745085	0.745085	0	1	0	0	CorrectCommission	0.251855	1.342958	0	1
21.902258	0.792263	city	4	1	0.648337	0.648337	0	1	0	0	CorrectCommission	0.931067	1.310504	0	1
22.694523	0.792269	city	2	1	0.596286	0.596286	0	1	0	0	CorrectCommission	1.296486	1.270140	0	1
23.486843	0.792369	city	8	1	0.596349	0.596349	0	1	0	0	CorrectCommission	1.296044	1.222960	0	1
24.279215	0.792375	city	5	1	0.551635	0.551635	0	1	0	0	CorrectCommission	1.609952	1.170409	0	1
25.071438	0.792073	city	2	1	0.596069	0.596069	0	1	0	0	CorrectCommission	1.298006	1.114056	0	1
25.863594	0.792240	city	5	1	0.695263	0.695263	0	1	0	0	CorrectCommission	0.601625	1.055447	0	1
26.655859	0.792290	city	7	1	0.645935	0.645935	0	1	0	0	CorrectCommission	0.947930	0.995994	0	1
27.448126	0.792242	city	4	1	0.646328	0.646328	0	1	0	0	CorrectCommission	0.945168	0.936897	0	1
28.240486	0.792479	city	8	1	0.645814	0.645814	0	1	0	0	CorrectCommission	0.948778	0.879153	0	1
29.032803	0.792155	city	6	1	0.645565	0.645565	0	1	0	0	CorrectCommission	0.950524	0.823594	0	1
29.825012	0.792265	city	9	1	0.696330	0.696330	0	1	0	0	CorrectCommission	0.594138	0.770932	0	1
30.617277	0.792263	city	10	1	0.657830	0.657830	0	1	0	0	CorrectCommission	0.864421	0.721804	0	1
31.409515	0.792215	mountain	2	0	0.000000	0.694840	1	0	0	0	CorrectOmission	0.604599	0.676777	1	1
32.201729	0.792211	city	10	1	0.744834	0.744834	0	1	0	0	CorrectCommission	0.253622	0.636378	1	1
32.993965	0.792263	city	8	1	0.745287	0.745287	0	1	0	0	CorrectCommission	0.250443	0.601086	1	1
33.786228	0.792262	city	5	1	0.700432	0.700432	0	1	0	0	CorrectCommission	0.565341	0.571324	1	1
34.578602	0.792483	city	1	1	0.695344	0.695344	0	1	0	0	CorrectCommission	0.601063	0.547447	1	1
35.370895	0.792106	city	8	1	0.654159	0.654159	0	1	0	0	CorrectCommission	0.890192	0.529752	1	1
36.163059	0.792223	mountain	5	0	0.000000	0.702086	1	0	0	0	CorrectOmission	0.553728	0.518441	1	1
36.955296	0.792250	city	7	1	0.759150	0.759150	0	1	0	0	CorrectCommission	0.153114	0.513615	1	1
37.747662	0.792480	city	1	1	0.745380	0.745380	0	1	0	0	CorrectCommission	0.249791	0.515182	1	1
38.540035	0.792265	mountain	4	0	0.000000	0.757994	1	0	0	0	CorrectOmission	0.161231	0.522852	1	1
39.332245	0.792155	city	5	1	0.745100	0.745100	0	1	0	0	CorrectCommission	0.251750	0.536043	1	1
40.124454	0.792264	city	2	1	0.654804	0.654804	0	1	0	0	CorrectCommission	0.885663	0.553863	1	1
40.916718	0.792265	city	7	1	0.695712	0.695712	0	1	0	0	CorrectCommission	0.598477	0.575105	1	1
41.708958	0.792216	city	8	1	0.745508	0.745508	0	1	0	0	CorrectCommission	0.248891	0.598306	1	1
42.501171	0.792208	city	7	1	0.943020	0.943020	0	1	0	0	CorrectCommission	1.137719	0.621804	1	1
43.293465	0.792377	city	1	1	0.695393	0.695393	0	1	0	0	CorrectCommission	0.600714	0.643797	1	1
44.085728	0.792150	city	2	1	0.695183	0.695183	0	1	0	0	CorrectCommission	0.602192	0.662513	1	1
44.877937	0.792268	city	1	1	0.695457	0.695457	0	1	0	0	CorrectCommission	0.600265	0.676308	1	1
45.670200	0.792261	city	2	1	0.695348	0.695348	0	1	0	0	CorrectCommission	0.601031	0.683835	1	1
46.462490	0.792321	city	5	1	0.646467	0.646467	0	1	0	0	CorrectCommission	0.944193	0.684184	1	1
47.254795	0.792285	city	7	1	0.601995	0.601995	0	1	0	0	CorrectCommission	1.256401	0.677027	1	1
48.047031	0.792187	city	9	1	0.648517	0.648517	0	1	0	0	CorrectCommission	0.929801	0.662694	1	1
48.839367	0.792483	city	6	1	0.648510	0.648510	0	1	0	0	CorrectCommission	0.929851	0.642200	1	1
49.631634	0.792050	city	10	1	0.695245	0.695245	0	1	0	0	CorrectCommission	0.601752	0.617148	1	1
50.423843	0.792370	city	3	1	0.695693	0.695693	0	1	0	0	CorrectCommission	0.598611	0.589574	1	1
51.216213	0.792374	city	6	1	0.695216	0.695216	0	1	0	0	CorrectCommission	0.601961	0.561680	1	1
52.008430	0.792055	city	1	1	0.745681	0.745681	0	1	0	0	CorrectCommission	0.247675	0.535552	1	1
52.800583	0.792257	city	8	1	0.745151	0.745151	0	1	0	0	CorrectCommission	0.251398	0.512877	1	1
53.592846	0.792265	city	9	1	0.754412	0.754412	0	1	0	0	CorrectCommission	0.186379	0.494727	1	1
54.385109	0.792264	city	7	1	0.794339	0.794339	0	1	0	0	CorrectCommission	0.093924	0.481454	1	1
55.177418	0.792351	city	3	1	0.761127	0.761127	0	1	0	0	CorrectCommission	0.139238	0.472675	1	1
55.969738	0.792288	mountain	9	1	0.744791	0.744791	0	0	1	0	CommissionError	0.253921	0.467415	1	1
56.761959	0.792154	city	3	1	0.661105	0.661105	0	1	0	0	CorrectCommission	0.841433	0.464363	1	1
57.554222	0.792374	city	8	1	0.626907	0.626907	0	1	0	0	CorrectCommission	1.081516	0.462139	1	1
58.346508	0.792200	city	1	1	0.702970	0.702970	0	1	0	0	CorrectCommission	0.547524	0.459619	1	1
59.138721	0.792220	city	4	1	0.695344	0.695344	0	1	0	0	CorrectCommission	0.601062	0.456167	1	1
59.930962	0.792266	city	2	1	0.695856	0.695856	0	1	0	0	CorrectCommission	0.597463	0.451719	1	1
60.723232	0.792268	city	7	1	0.695368	0.695368	0	1	0	0	CorrectCommission	0.600889	0.446844	1	1
61.515549	0.792368	city	6	1	0.794486	0.794486	0	1	0	0	CorrectCommission	0.094953	0.442600	1	1
62.307812	0.792158	city	3	1	0.747598	0.747598	0	1	0	0	CorrectCommission	0.234216	0.440370	1	1
63.100033	0.792287	city	1	1	0.843882	0.843882	0	1	0	0	CorrectCommission	0.441732	0.441590	1	1
63.892406	0.792460	city	5	1	0.794494	0.794494	0	1	0	0	CorrectCommission	0.095010	0.447514	1	1
64.684715	0.792156	mountain	3	0	0.000000	0.802645	1	0	0	0	CorrectOmission	0.152238	0.459006	1	1
65.476868	0.792156	city	1	1	0.843822	0.843822	0	1	0	0	CorrectCommission	0.441311	0.476360	1	1
66.269188	0.792482	city	4	1	0.893508	0.893508	0	1	0	0	CorrectCommission	0.790126	0.499214	1	1
67.061455	0.792049	mountain	1	0	0.000000	0.843974	1	0	0	0	CorrectOmission	0.442382	0.526532	1	1
67.853722	0.792479	city	9	1	0.794333	0.794333	0	1	0	0	CorrectCommission	0.093881	0.556662	1	0
68.645996	0.792073	city	1	1	0.843695	0.843695	0	1	0	0	CorrectCommission	0.440423	0.587439	1	0
69.438171	0.792275	city	6	1	0.943179	0.943179	0	1	0	0	CorrectCommission	1.138836	0.616362	1	0
70.230438	0.792262	city	8	1	0.700125	0.700125	0	1	0	0	CorrectCommission	0.567494	0.640821	1	0
71.022682	0.792231	city	6	1	0.744777	0.744777	0	1	0	0	CorrectCommission	0.254024	0.658397	1	0
71.814934	0.792270	city	9	1	0.645858	0.645858	0	1	0	0	CorrectCommission	0.948470	0.667111	1	0
72.607254	0.792370	city	3	1	0.596351	0.596351	0	1	0	0	CorrectCommission	1.296030	0.665653	1	0
73.399529	0.792175	city	5	1	0.551906	0.551906	0	1	0	0	CorrectCommission	1.608049	0.653591	1	0
74.191734	0.792246	city	6	1	0.645810	0.645810	0	1	0	0	CorrectCommission	0.948803	0.631424	1	0
74.983994	0.792264	city	4	1	0.695321	0.695321	0	1	0	0	CorrectCommission	0.601221	0.600565	1	0
75.776260	0.792277	city	8	1	0.664790	0.664790	0	1	0	0	CorrectCommission	0.815558	0.563131	1	0
76.568527	0.792255	city	9	1	0.762118	0.762118	0	1	0	0	CorrectCommission	0.132277	0.521666	1	0
77.360786	0.792265	city	8	1	0.794362	0.794362	0	1	0	0	CorrectCommission	0.094083	0.478837	1	0
78.153053	0.792263	city	5	1	0.794384	0.794384	0	1	0	0	CorrectCommission	0.094238	0.437107	1	0
78.945320	0.792267	city	10	1	0.744831	0.744831	0	1	0	0	CorrectCommission	0.253639	0.398505	1	0
79.737595	0.792294	city	9	1	0.746272	0.746272	0	1	0	0	CorrectCommission	0.243528	0.364471	1	0
80.529869	0.792244	city	10	1	0.794428	0.794428	0	1	0	0	CorrectCommission	0.094546	0.335841	1	0
81.322151	0.792324	city	2	1	0.844769	0.844769	0	1	0	0	CorrectCommission	0.447958	0.312927	1	0
82.114464	0.792303	city	8	1	0.844251	0.844251	0	1	0	0	CorrectCommission	0.444325	0.295628	1	0
82.906807	0.792374	city	6	1	0.843789	0.843789	0	1	0	0	CorrectCommission	0.441082	0.283618	1	0
83.699013	0.792047	city	10	1	0.751364	0.751364	0	1	0	0	CorrectCommission	0.207776	0.276487	1	0
84.491280	0.792482	city	6	1	0.794372	0.794372	0	1	0	0	CorrectCommission	0.094156	0.273838	1	0
85.283600	0.792156	city	9	1	0.756540	0.756540	0	1	0	0	CorrectCommission	0.171438	0.275376	1	0
86.075768	0.792180	city	3	1	0.757078	0.757078	0	1	0	0	CorrectCommission	0.167664	0.280919	1	0
86.868019	0.792322	city	6	1	0.750519	0.750519	0	1	0	0	CorrectCommission	0.213708	0.290390	1	0
87.660294	0.792230	city	10	1	0.754315	0.754315	0	1	0	0	CorrectCommission	0.187063	0.303823	1	0
88.452515	0.792221	city	7	1	0.814264	0.814264	0	1	0	0	CorrectCommission	0.233805	0.321348	1	0
89.244843	0.792424	city	2	1	0.794523	0.794523	0	1	0	0	CorrectCommission	0.095215	0.343161	1	0
90.037209	0.792320	city	7	1	0.894686	0.894686	0	1	0	0	CorrectCommission	0.798395	0.369500	1	0
90.829422	0.792101	city	3	1	0.843807	0.843807	0	1	0	0	CorrectCommission	0.441207	0.400604	1	0
91.621582	0.792214	city	2	1	0.852998	0.852998	0	1	0	0	CorrectCommission	0.505734	0.436689	1	0
92.413818	0.792264	city	3	1	0.795445	0.795445	0	1	0	0	CorrectCommission	0.101684	0.477820	1	0
93.206192	0.792480	city	6	1	0.844477	0.844477	0	1	0	0	CorrectCommission	0.445909	0.523794	1	0
93.998459	0.792059	city	4	1	0.843691	0.843691	0	1	0	0	CorrectCommission	0.440395	0.574037	1	0
94.790672	0.792360	city	7	1	0.809090	0.809090	0	1	0	0	CorrectCommission	0.197483	0.627523	1	0
95.582932	0.792159	city	8	1	0.843748	0.843748	0	1	0	0	CorrectCommission	0.440792	0.682763	1	0
96.375145	0.792265	city	3	1	0.893421	0.893421	0	1	0	0	CorrectCommission	0.789518	0.737846	0	0
97.167511	0.792480	city	6	1	0.893342	0.893342	0	1	0	0	CorrectCommission	0.788960	0.790577	0	0
97.959785	0.792063	city	4	1	0.962605	0.962605	0	1	0	0	CorrectCommission	1.275214	0.838698	0	0
98.751945	0.792252	city	1	1	1.041898	1.041898	0	1	0	0	CorrectCommission	1.831880	0.880118	0	0
99.544197	0.792262	mountain	4	0	0.000000	0.873837	1	0	0	0	CorrectOmission	0.652032	0.913084	0	0
100.336571	0.792483	city	8	1	0.662952	0.662952	0	1	0	0	CorrectCommission	0.828460	0.936472	0	0
101.128853	0.792071	city	4	1	0.613772	0.613772	0	1	0	0	CorrectCommission	1.173729	0.949818	0	0
101.921059	0.792349	city	9	1	0.605999	0.605999	0	1	0	0	CorrectCommission	1.228296	0.953418	0	0
102.713341	0.792217	city	1	1	0.599837	0.599837	0	1	0	0	CorrectCommission	1.271554	0.948294	0	0
103.505554	0.792206	city	7	1	0.596201	0.596201	0	1	0	0	CorrectCommission	1.297081	0.936123	0	0
104.297897	0.792479	city	5	1	0.596561	0.596561	0	1	0	0	CorrectCommission	1.294551	0.919049	0	0
105.090271	0.792265	mountain	4	0	0.000000	0.753291	1	0	0	0	CorrectOmission	0.194250	0.899499	0	0
105.882530	0.792266	city	6	1	0.844056	0.844056	0	1	0	0	CorrectCommission	0.442953	0.879946	0	0
106.674797	0.792265	city	2	1	0.646522	0.646522	0	1	0	0	CorrectCommission	0.943808	0.862685	0	0
107.467064	0.792264	city	5	1	0.652734	0.652734	0	1	0	0	CorrectCommission	0.900195	0.849616	0	0
108.259216	0.792047	city	3	1	0.695145	0.695145	0	1	0	0	CorrectCommission	0.602459	0.842119	0	0
109.051483	0.792482	city	4	1	0.645821	0.645821	0	1	0	0	CorrectCommission	0.948727	0.840969	0	0
109.843803	0.792154	city	5	1	0.695476	0.695476	0	1	0	0	CorrectCommission	0.600132	0.846336	0	0
110.636063	0.792374	city	8	1	0.655174	0.655174	0	1	0	0	CorrectCommission	0.883065	0.857846	0	0
111.428329	0.792156	city	10	1	0.709934	0.709934	0	1	0	0	CorrectCommission	0.498631	0.874700	0	0
112.220490	0.792156	city	7	1	0.811353	0.811353	0	1	0	0	CorrectCommission	0.213367	0.895829	0	0
113.012703	0.792268	city	2	1	0.844438	0.844438	0	1	0	0	CorrectCommission	0.445638	0.920105	0	0
113.804970	0.792265	city	1	1	1.141419	1.141419	0	1	0	0	CorrectCommission	2.530557	0.946510	0	0
114.597336	0.792480	city	4	0	0.000000	0.864422	0	0	0	1	OmissionError	0.585932	0.974226	0	0
115.389603	0.792044	city	9	1	0.515434	0.515434	0	1	0	0	CorrectCommission	1.864096	1.002807	0	0
116.181808	0.792376	city	7	1	0.596442	0.596442	0	1	0	0	CorrectCommission	1.295387	1.032003	0	0
116.974091	0.792183	city	8	1	0.646103	0.646103	0	1	0	0	CorrectCommission	0.946746	1.061735	0	0
117.766411	0.792454	city	3	1	0.794296	0.794296	0	1	0	0	CorrectCommission	0.093622	1.091849	0	0
118.558662	0.792048	city	5	1	0.893169	0.893169	0	1	0	0	CorrectCommission	0.787748	1.121949	0	0
119.350815	0.792271	city	1	1	0.843900	0.843900	0	1	0	0	CorrectCommission	0.441860	1.151214	0	0
120.143112	0.792318	city	7	1	0.943096	0.943096	0	1	0	0	CorrectCommission	1.138255	1.178480	0	0
120.935371	0.792207	city	8	1	0.893384	0.893384	0	1	0	0	CorrectCommission	0.789253	1.202311	0	0
121.727608	0.792265	city	7	1	1.190635	1.190635	0	1	0	0	CorrectCommission	2.876068	1.221238	0	0
122.519981	0.792482	city	3	0	0.000000	1.186971	0	0	0	1	OmissionError	2.850345	1.233948	0	0
123.312363	0.792271	city	9	1	0.999958	0.999958	0	1	0	0	CorrectCommission	1.537448	1.239511	0	0
124.104515	0.792045	city	5	1	0.747165	0.747165	0	1	0	0	CorrectCommission	0.237258	1.237454	0	0
124.896667	0.792261	city	2	1	0.656731	0.656731	0	1	0	0	CorrectCommission	0.872136	1.227714	0	0
125.689041	0.792482	mountain	10	1	0.695784	0.695784	0	0	1	0	CommissionError	0.597969	1.210504	0	0
126.481308	0.792049	city	4	1	1.041724	1.041724	0	1	0	0	CorrectCommission	1.830658	1.186243	0	0
127.273575	0.792481	city	9	1	0.846963	0.846963	0	1	0	0	CorrectCommission	0.463365	1.155421	0	1
128.065887	0.792156	city	1	1	0.992226	0.992226	0	1	0	0	CorrectCommission	1.483167	1.118641	0	1
128.858047	0.792155	city	3	1	1.140888	1.140888	0	1	0	0	CorrectCommission	2.526827	1.076552	0	1
129.650253	0.792264	mountain	9	0	0.000000	0.976209	1	0	0	0	CorrectOmission	1.370720	1.029932	0	1
130.442581	0.792374	city	4	1	0.745284	0.745284	0	1	0	0	CorrectCommission	0.250461	0.979777	0	1
131.234848	0.792157	city	5	1	0.695207	0.695207	0	1	0	0	CorrectCommission	0.602024	0.927223	0	1
132.027054	0.792267	city	8	1	0.695324	0.695324	0	1	0	0	CorrectCommission	0.601202	0.873555	0	1
132.819305	0.792254	city	5	1	0.646121	0.646121	0	1	0	0	CorrectCommission	0.946623	0.820097	0	1
133.611572	0.792280	city	8	1	0.547141	0.547141	0	1	0	0	CorrectCommission	1.641497	0.768137	0	1
134.403900	0.792366	city	10	1	0.750670	0.750670	0	1	0	0	CorrectCommission	0.212648	0.718775	0	1
135.196213	0.792267	city	4	1	0.843741	0.843741	0	1	0	0	CorrectCommission	0.440741	0.672901	1	1
135.988434	0.792157	city	8	1	0.843767	0.843767	0	1	0	0	CorrectCommission	0.440929	0.631012	1	1
136.780701	0.792370	city	9	1	0.811120	0.811120	0	1	0	0	CorrectCommission	0.211730	0.593257	1	1
137.572952	0.792157	city	4	1	0.843915	0.843915	0	1	0	0	CorrectCommission	0.441965	0.559451	1	1
138.365204	0.792345	city	7	1	0.754659	0.754659	0	1	0	0	CorrectCommission	0.184642	0.529169	1	1
139.157486	0.792217	city	4	1	0.645751	0.645751	0	1	0	0	CorrectCommission	0.949221	0.501870	1	1
139.949829	0.792449	city	6	1	0.893384	0.893384	0	1	0	0	CorrectCommission	0.789256	0.477029	1	1
140.742188	0.792265	city	3	1	0.893583	0.893583	0	1	0	0	CorrectCommission	0.790656	0.454305	1	1
141.534378	0.792119	city	7	1	0.845645	0.845645	0	1	0	0	CorrectCommission	0.454109	0.433582	1	1
142.326645	0.792411	city	1	1	0.794351	0.794351	0	1	0	0	CorrectCommission	0.094006	0.414944	1	1
143.118896	0.792103	city	5	1	0.745478	0.745478	0	1	0	0	CorrectCommission	0.249099	0.398604	1	1
143.911163	0.792425	city	3	1	0.744943	0.744943	0	1	0	0	CorrectCommission	0.252855	0.384745	1	1
144.703400	0.792054	city	6	1	0.752230	0.752230	0	1	0	0	CorrectCommission	0.201699	0.373469	1	1
145.495575	0.792284	city	3	1	0.745304	0.745304	0	1	0	0	CorrectCommission	0.250324	0.364647	1	1
146.287842	0.792252	mountain	3	0	0.000000	0.801960	1	0	0	0	CorrectOmission	0.147424	0.357911	1	1
147.080139	0.792358	city	10	1	0.844250	0.844250	0	1	0	0	CorrectCommission	0.444315	0.352713	1	1
147.872513	0.792375	city	3	1	0.794224	0.794224	0	1	0	0	CorrectCommission	0.093116	0.348432	1	1
148.664719	0.792047	city	5	1	0.942714	0.942714	0	1	0	0	CorrectCommission	1.135569	0.344517	1	1
149.456879	0.792265	city	9	1	0.744861	0.744861	0	1	0	0	CorrectCommission	0.253432	0.340620	1	1
150.249146	0.792264	city	2	1	0.710029	0.710029	0	1	0	0	CorrectCommission	0.497963	0.336752	1	1
151.041412	0.792268	city	5	1	0.794345	0.794345	0	1	0	0	CorrectCommission	0.093963	0.333287	1	1
151.833725	0.792372	city	9	1	0.844085	0.844085	0	1	0	0	CorrectCommission	0.443156	0.331013	1	1
152.626007	0.792178	city	5	1	0.844383	0.844383	0	1	0	0	CorrectCommission	0.445253	0.330968	1	1
153.418213	0.792244	city	10	1	0.794469	0.794469	0	1	0	0	CorrectCommission	0.094836	0.334342	1	1
154.210571	0.792478	city	9	1	0.746604	0.746604	0	1	0	0	CorrectCommission	0.241193	0.342233	1	1
155.002838	0.792049	city	8	1	0.800414	0.800414	0	1	0	0	CorrectCommission	0.136570	0.355455	1	1
155.794998	0.792266	mountain	9	0	0.000000	0.788378	1	0	0	0	CorrectOmission	0.052077	0.374378	1	1
156.587265	0.792267	city	7	1	0.745648	0.745648	0	1	0	0	CorrectCommission	0.247903	0.398776	1	1
157.379578	0.792369	city	5	1	0.707375	0.707375	0	1	0	0	CorrectCommission	0.516596	0.427825	1	1
158.171844	0.792154	city	4	1	0.744690	0.744690	0	1	0	0	CorrectCommission	0.254628	0.460128	1	1
158.964050	0.792273	city	5	1	0.758611	0.758611	0	1	0	0	CorrectCommission	0.156898	0.493871	1	1
159.756348	0.792315	city	4	1	0.894826	0.894826	0	1	0	0	CorrectCommission	0.799377	0.527017	1	1
160.548615	0.792208	city	5	1	0.859139	0.859139	0	1	0	0	CorrectCommission	0.548846	0.557527	1	1
161.340851	0.792264	city	6	1	0.943069	0.943069	0	1	0	0	CorrectCommission	1.138065	0.583641	1	1
162.133102	0.792264	city	2	1	0.905602	0.905602	0	1	0	0	CorrectCommission	0.875029	0.604055	1	1
162.925430	0.792376	city	8	1	0.893531	0.893531	0	1	0	0	CorrectCommission	0.790289	0.618088	1	1
163.717697	0.792158	city	2	1	0.898509	0.898509	0	1	0	0	CorrectCommission	0.825236	0.625694	1	1
164.509933	0.792315	city	6	1	0.943064	0.943064	0	1	0	0	CorrectCommission	1.138029	0.627400	1	1
165.302200	0.792210	city	10	1	0.744779	0.744779	0	1	0	0	CorrectCommission	0.254008	0.624179	1	1
166.094452	0.792291	city	9	1	0.744853	0.744853	0	1	0	0	CorrectCommission	0.253487	0.617265	1	1
166.886719	0.792243	city	6	1	0.857205	0.857205	0	1	0	0	CorrectCommission	0.535268	0.607959	1	1
167.678970	0.792261	city	1	1	0.796242	0.796242	0	1	0	0	CorrectCommission	0.107283	0.597431	1	1
168.471283	0.792374	city	6	1	1.011181	1.011181	0	1	0	0	CorrectCommission	1.616233	0.586647	1	1
169.263550	0.792158	city	1	1	0.752544	0.752544	0	1	0	0	CorrectCommission	0.199491	0.576238	1	1
170.055756	0.792266	city	9	1	0.850774	0.850774	0	1	0	0	CorrectCommission	0.490117	0.566600	1	1
170.848083	0.792376	city	1	1	0.848160	0.848160	0	1	0	0	CorrectCommission	0.471767	0.557848	1	1
171.640350	0.792148	city	4	1	0.794222	0.794222	0	1	0	0	CorrectCommission	0.093104	0.549957	1	1
172.432556	0.792265	city	10	1	0.645810	0.645810	0	1	0	0	CorrectCommission	0.948803	0.542848	1	1
173.224869	0.792376	city	4	1	0.646053	0.646053	0	1	0	0	CorrectCommission	0.947098	0.536471	1	1
174.017136	0.792156	city	5	1	0.709571	0.709571	0	1	0	0	CorrectCommission	0.501178	0.530910	1	1
174.809372	0.792326	city	1	1	0.702313	0.702313	0	1	0	0	CorrectCommission	0.552131	0.526438	1	1
175.601639	0.792202	mountain	5	0	0.000000	0.763697	1	0	0	0	CorrectOmission	0.121195	0.523523	1	1
176.393906	0.792313	city	9	1	0.794458	0.794458	0	1	0	0	CorrectCommission	0.094759	0.522820	1	1
177.186157	0.792218	city	5	1	0.695333	0.695333	0	1	0	0	CorrectCommission	0.601140	0.525113	1	1
177.978409	0.792264	city	1	1	0.647114	0.647114	0	1	0	0	CorrectCommission	0.939651	0.531253	1	1
178.770676	0.792262	city	7	1	0.646099	0.646099	0	1	0	0	CorrectCommission	0.946777	0.542035	1	1
179.562943	0.792283	mountain	1	0	0.000000	0.719545	1	0	0	0	CorrectOmission	0.431159	0.558118	1	1
180.355209	0.792248	city	3	1	0.794437	0.794437	0	1	0	0	CorrectCommission	0.094610	0.579906	1	1
181.147461	0.792267	city	5	1	0.797759	0.797759	0	1	0	0	CorrectCommission	0.117936	0.607434	1	1
181.939728	0.792264	city	1	1	0.843843	0.843843	0	1	0	0	CorrectCommission	0.441460	0.640345	1	1
182.731995	0.792267	city	8	1	0.758477	0.758477	0	1	0	0	CorrectCommission	0.157839	0.677915	1	1
183.524261	0.792261	city	1	1	0.695371	0.695371	0	1	0	0	CorrectCommission	0.600870	0.719194	0	1
184.316528	0.792266	city	8	1	0.597119	0.597119	0	1	0	0	CorrectCommission	1.290633	0.763119	0	1
185.108826	0.792325	city	3	1	0.597779	0.597779	0	1	0	0	CorrectCommission	1.286000	0.808702	0	1
185.901138	0.792312	city	1	1	0.645771	0.645771	0	1	0	0	CorrectCommission	0.949080	0.855150	0	1
186.693375	0.792156	city	6	1	0.605036	0.605036	0	1	0	0	CorrectCommission	1.235053	0.901931	0	0
187.485580	0.792272	city	3	1	0.645877	0.645877	0	1	0	0	CorrectCommission	0.948334	0.948684	0	0
188.277908	0.792368	city	8	1	0.649788	0.649788	0	1	0	0	CorrectCommission	0.920877	0.995080	0	0
189.070160	0.792156	city	4	1	0.695240	0.695240	0	1	0	0	CorrectCommission	0.601789	1.040605	0	0
189.862381	0.792263	city	10	1	0.660281	0.660281	0	1	0	0	CorrectCommission	0.847217	1.084347	0	0
190.654648	0.792268	city	8	1	0.646377	0.646377	0	1	0	0	CorrectCommission	0.944823	1.124858	0	0
191.446915	0.792265	city	9	1	0.695324	0.695324	0	1	0	0	CorrectCommission	0.601200	1.160171	0	0
192.239166	0.792263	city	2	1	0.610908	0.610908	0	1	0	0	CorrectCommission	1.193831	1.187958	0	0
193.031433	0.792261	city	10	1	0.497279	0.497279	0	1	0	0	CorrectCommission	1.991547	1.205796	0	0
193.823715	0.792309	city	1	1	0.546798	0.546798	0	1	0	0	CorrectCommission	1.643912	1.211554	0	0
194.616043	0.792330	city	9	1	0.466650	0.466650	0	1	0	0	CorrectCommission	2.206580	1.203790	0	0
195.408279	0.792156	mountain	10	1	0.454681	0.454681	0	0	1	0	CommissionError	2.290601	1.182005	0	0
196.200500	0.792280	city	8	1	0.646483	0.646483	0	1	0	0	CorrectCommission	0.944081	1.146833	0	0
196.992874	0.792468	mountain	10	1	0.601235	0.601235	0	0	1	0	CommissionError	1.261742	1.100050	0	0
197.785126	0.792050	city	2	1	0.794318	0.794318	0	1	0	0	CorrectCommission	0.093775	1.044340	0	0
198.577286	0.792264	city	1	1	0.645953	0.645953	0	1	0	0	CorrectCommission	0.947806	0.983048	0	0
199.369568	0.792301	city	5	1	0.596301	0.596301	0	1	0	0	CorrectCommission	1.296379	0.919745	0	0
200.161835	0.792225	city	3	1	0.645916	0.645916	0	1	0	0	CorrectCommission	0.948059	0.857890	0	0
200.954132	0.792374	city	5	1	0.645774	0.645774	0	1	0	0	CorrectCommission	0.949060	0.800484	0	0
201.746414	0.792187	city	4	1	0.750382	0.750382	0	1	0	0	CorrectCommission	0.214668	0.749763	0	0
202.538681	0.792341	city	7	1	0.751905	0.751905	0	1	0	0	CorrectCommission	0.203983	0.707050	0	0
203.330978	0.792265	city	2	1	0.757168	0.757168	0	1	0	0	CorrectCommission	0.167035	0.672672	1	0
204.123199	0.792159	city	1	1	0.844068	0.844068	0	1	0	0	CorrectCommission	0.443038	0.646021	1	0
204.915451	0.792345	city	8	1	0.700447	0.700447	0	1	0	0	CorrectCommission	0.565234	0.625735	1	0
205.707718	0.792185	mountain	9	0	0.000000	0.682333	1	0	0	0	CorrectOmission	0.692400	0.609980	1	0
206.499954	0.792313	city	4	1	0.695509	0.695509	0	1	0	0	CorrectCommission	0.599902	0.596788	1	0
207.292221	0.792215	city	5	1	0.645756	0.645756	0	1	0	0	CorrectCommission	0.949182	0.584388	1	0
208.084488	0.792323	city	9	1	0.662190	0.662190	0	1	0	0	CorrectCommission	0.833815	0.571485	1	0
208.876816	0.792313	city	7	1	0.645937	0.645937	0	1	0	0	CorrectCommission	0.947913	0.557457	1	0
209.669159	0.792374	city	10	1	0.655222	0.655222	0	1	0	0	CorrectCommission	0.882729	0.542393	1	0
210.461365	0.792052	city	5	1	0.744632	0.744632	0	1	0	0	CorrectCommission	0.255036	0.526969	1	0
211.253601	0.792422	city	10	1	0.744845	0.744845	0	1	0	0	CorrectCommission	0.253542	0.512305	1	0
212.045898	0.792167	mountain	5	0	0.000000	0.805951	1	0	0	0	CorrectOmission	0.175443	0.499658	1	0
212.838089	0.792204	city	6	1	0.848821	0.848821	0	1	0	0	CorrectCommission	0.476408	0.490167	1	0
213.630325	0.792266	city	10	1	0.794328	0.794328	0	1	0	0	CorrectCommission	0.093843	0.484628	1	0
214.422684	0.792478	city	9	1	0.705239	0.705239	0	1	0	0	CorrectCommission	0.531591	0.483351	1	0
215.215012	0.792155	city	3	1	0.744666	0.744666	0	1	0	0	CorrectCommission	0.254799	0.486106	1	0
216.007172	0.792159	city	10	1	0.744880	0.744880	0	1	0	0	CorrectCommission	0.253301	0.492205	1	0
216.799484	0.792485	city	8	1	0.859439	0.859439	0	1	0	0	CorrectCommission	0.550948	0.500654	1	0
217.591751	0.792042	city	1	1	0.893187	0.893187	0	1	0	0	CorrectCommission	0.787874	0.510368	1	0
218.383911	0.792269	city	9	1	0.893434	0.893434	0	1	0	0	CorrectCommission	0.789610	0.520406	1	0
219.176178	0.792265	city	10	1	0.645793	0.645793	0	1	0	0	CorrectCommission	0.948928	0.530184	1	0
219.968430	0.792263	city	5	1	0.695886	0.695886	0	1	0	0	CorrectCommission	0.597256	0.539585	1	0
220.760696	0.792264	mountain	5	0	0.000000	0.729089	1	0	0	0	CorrectOmission	0.364155	0.549041	1	0
221.552963	0.792264	city	6	1	0.745407	0.745407	0	1	0	0	CorrectCommission	0.249599	0.559519	1	0
222.345230	0.792266	city	2	1	0.744842	0.744842	0	1	0	0	CorrectCommission	0.253562	0.572426	1	0
223.137512	0.792286	city	1	1	0.844411	0.844411	0	1	0	0	CorrectCommission	0.445450	0.589442	1	0
223.929871	0.792459	city	3	1	0.893350	0.893350	0	1	0	0	CorrectCommission	0.789017	0.612329	1	0
224.722137	0.792048	city	8	1	0.992179	0.992179	0	1	0	0	CorrectCommission	1.482832	0.642655	1	0
225.514282	0.792264	city	2	1	0.794323	0.794323	0	1	0	0	CorrectCommission	0.093810	0.681519	1	0
226.306580	0.792318	city	9	1	0.745430	0.745430	0	1	0	0	CorrectCommission	0.249438	0.729302	0	0
227.098953	0.792430	city	6	1	0.843835	0.843835	0	1	0	0	CorrectCommission	0.441407	0.785380	0	0
227.891190	0.792046	mountain	8	0	0.000000	0.852644	1	0	0	0	CorrectOmission	0.503247	0.848027	0	0
228.683365	0.792319	city	2	1	0.844823	0.844823	0	1	0	0	CorrectCommission	0.448340	0.914443	0	0
229.475632	0.792210	city	4	1	0.893339	0.893339	0	1	0	0	CorrectCommission	0.788940	0.980960	0	0
230.267929	0.792374	city	7	1	0.893573	0.893573	0	1	0	0	CorrectCommission	0.790586	1.043425	0	0
231.060226	0.792227	city	8	1	0.946649	0.946649	0	1	0	0	CorrectCommission	1.163198	1.097811	0	0
231.852493	0.792302	city	10	1	1.059103	1.059103	0	1	0	0	CorrectCommission	1.952664	1.140791	0	0
232.644775	0.792266	city	4	1	1.098964	1.098964	0	1	0	0	CorrectCommission	2.232503	1.170297	0	0
233.436996	0.792159	city	7	1	1.140866	1.140866	0	1	0	0	CorrectCommission	2.526674	1.185913	0	0
234.229202	0.792265	city	9	1	1.157292	1.157292	0	1	0	0	CorrectCommission	2.641991	1.188917	0	0
235.021469	0.792259	city	8	0	0.000000	0.978687	0	0	0	1	OmissionError	1.388118	1.182027	0	0
235.813721	0.792267	city	4	1	0.794540	0.794540	0	1	0	0	CorrectCommission	0.095336	1.168868	0	0
236.605988	0.792263	city	5	1	0.794339	0.794339	0	1	0	0	CorrectCommission	0.093925	1.153218	0	0
237.398315	0.792374	city	7	1	0.745339	0.745339	0	1	0	0	CorrectCommission	0.250074	1.138257	0	0
238.190689	0.792372	city	8	1	0.794923	0.794923	0	1	0	0	CorrectCommission	0.098022	1.126001	0	0
238.982895	0.792049	city	5	1	0.893173	0.893173	0	1	0	0	CorrectCommission	0.787777	1.117012	0	0
239.775101	0.792372	city	7	1	0.992856	0.992856	0	1	0	0	CorrectCommission	1.487587	1.110407	0	0
240.567368	0.792155	city	2	1	1.042282	1.042282	0	1	0	0	CorrectCommission	1.834579	1.104222	0	0
241.359589	0.792284	city	3	1	0.992432	0.992432	0	1	0	0	CorrectCommission	1.484610	1.095977	0	0
242.151871	0.792293	city	7	1	0.992419	0.992419	0	1	0	0	CorrectCommission	1.484517	1.083277	0	0
242.944138	0.792230	city	9	1	0.992455	0.992455	0	1	0	0	CorrectCommission	1.484773	1.064361	0	0
243.736374	0.792253	city	2	1	1.043677	1.043677	0	1	0	0	CorrectCommission	1.844373	1.038423	0	0
244.528641	0.792263	city	1	1	0.992489	0.992489	0	1	0	0	CorrectCommission	1.485008	1.005686	0	0
245.320908	0.792268	mountain	6	0	0.000000	0.809482	1	0	0	0	CorrectOmission	0.200231	0.967284	0	0
246.113174	0.792263	city	4	1	0.663046	0.663046	0	1	0	0	CorrectCommission	0.827804	0.924956	0	1
246.905441	0.792269	mountain	3	0	0.000000	0.721570	1	0	0	0	CorrectOmission	0.416944	0.880601	0	1
247.697693	0.792261	city	6	1	0.795548	0.795548	0	1	0	0	CorrectCommission	0.102407	0.835999	0	1
248.489960	0.792269	city	1	1	0.695473	0.695473	0	1	0	0	CorrectCommission	0.600156	0.792552	0	1
249.282227	0.792262	city	2	1	0.645946	0.645946	0	1	0	0	CorrectCommission	0.947850	0.751228	0	1
250.074493	0.792274	city	8	1	0.597038	0.597038	0	1	0	0	CorrectCommission	1.291202	0.712743	0	1
250.866760	0.792253	city	7	1	0.652794	0.652794	0	1	0	0	CorrectCommission	0.899774	0.677759	1	1
251.659134	0.792482	city	10	1	0.700516	0.700516	0	1	0	0	CorrectCommission	0.564750	0.647141	1	1
252.451401	0.792050	city	3	1	0.695226	0.695226	0	1	0	0	CorrectCommission	0.601889	0.622146	1	1
253.243546	0.792263	mountain	6	0	0.000000	0.692354	1	0	0	0	CorrectOmission	0.622052	0.604456	1	1
254.035919	0.792482	city	8	1	0.695312	0.695312	0	1	0	0	CorrectCommission	0.601285	0.596025	1	1
254.828201	0.792077	city	6	1	0.707512	0.707512	0	1	0	0	CorrectCommission	0.515634	0.598775	1	1
255.620361	0.792236	mountain	4	0	0.000000	0.786292	1	0	0	0	CorrectOmission	0.037432	0.614172	1	1
256.412659	0.792374	city	1	1	0.844316	0.844316	0	1	0	0	CorrectCommission	0.444778	0.642768	1	1
257.205048	0.792372	city	2	1	0.794245	0.794245	0	1	0	0	CorrectCommission	0.093265	0.683738	1	1
257.997253	0.792048	city	6	1	0.794120	0.794120	0	1	0	0	CorrectCommission	0.092382	0.734713	0	1
258.789520	0.792484	city	8	1	0.794392	0.794392	0	1	0	0	CorrectCommission	0.094294	0.791767	0	1
259.581787	0.792047	city	10	1	0.794138	0.794138	0	1	0	0	CorrectCommission	0.092515	0.849719	0	1
260.374054	0.792481	city	2	1	0.893369	0.893369	0	1	0	0	CorrectCommission	0.789150	0.902728	0	1
261.166321	0.792099	city	7	1	1.041964	1.041964	0	1	0	0	CorrectCommission	1.832346	0.945069	0	1
261.958588	0.792432	city	9	1	1.193265	1.193265	0	1	0	0	CorrectCommission	2.894532	0.971979	0	1
262.750824	0.792048	city	1	1	1.239785	1.239785	0	1	0	0	CorrectCommission	3.221120	0.980434	0	1
263.543060	0.792372	mountain	1	0	0.000000	0.979313	1	0	0	0	CorrectOmission	1.392513	0.969605	0	1
264.335358	0.792263	city	3	1	0.763272	0.763272	0	1	0	0	CorrectCommission	0.124182	0.941080	0	1
265.127563	0.792158	city	2	1	0.943080	0.943080	0	1	0	0	CorrectCommission	1.138143	0.898580	0	1
265.919800	0.792271	mountain	10	0	0.000000	0.925212	1	0	0	0	CorrectOmission	1.012704	0.847409	0	1
266.712158	0.792475	mountain	1	0	0.000000	0.821747	1	0	0	0	CorrectOmission	0.286336	0.793797	0	1
267.504486	0.792155	city	3	1	0.744762	0.744762	0	1	0	0	CorrectCommission	0.254126	0.744095	0	1
268.296753	0.792374	city	4	1	0.806337	0.806337	0	1	0	0	CorrectCommission	0.178153	0.704007	0	1
269.089050	0.792265	city	3	1	0.794119	0.794119	0	1	0	0	CorrectCommission	0.092380	0.678006	1	1
269.881287	0.792156	city	1	1	0.794130	0.794130	0	1	0	0	CorrectCommission	0.092458	0.668931	1	1
270.673492	0.792263	city	6	1	0.801026	0.801026	0	1	0	0	CorrectCommission	0.140871	0.677808	1	1
271.465698	0.792165	city	7	1	0.645742	0.645742	0	1	0	0	CorrectCommission	0.949283	0.703885	0	1
272.257904	0.792260	mountain	7	0	0.000000	0.762146	1	0	0	0	CorrectOmission	0.132084	0.744761	0	1
273.050171	0.792269	city	6	1	0.943448	0.943448	0	1	0	0	CorrectCommission	1.140728	0.796749	0	1
273.842438	0.792258	mountain	6	0	0.000000	0.982860	1	0	0	0	CorrectOmission	1.417414	0.855143	0	1
274.634796	0.792481	city	6	1	0.907886	0.907886	0	1	0	0	CorrectCommission	0.891065	0.914669	0	1
275.427063	0.792048	city	1	1	0.746029	0.746029	0	1	0	0	CorrectCommission	0.245229	0.969887	0	1
276.219238	0.792264	city	5	1	0.695394	0.695394	0	1	0	0	CorrectCommission	0.600706	1.015635	0	1
277.011536	0.792373	city	2	1	0.646312	0.646312	0	1	0	0	CorrectCommission	0.945285	1.047437	0	1
277.803802	0.792160	city	5	1	0.500287	0.500287	0	1	0	0	CorrectCommission	1.970434	1.061970	0	1
278.596069	0.792371	city	3	1	0.447900	0.447900	0	1	0	0	CorrectCommission	2.338207	1.057416	0	1
279.388458	0.792373	city	4	1	0.366582	0.366582	0	1	0	0	CorrectCommission	2.909089	1.033712	0	1
280.180756	0.792266	city	1	1	1.041747	1.041747	0	1	0	0	CorrectCommission	1.830818	0.992548	0	1
280.972992	0.792153	city	4	1	0.893170	0.893170	0	1	0	0	CorrectCommission	0.787751	0.937202	0	1
281.765198	0.792265	mountain	3	0	0.000000	0.796662	1	0	0	0	CorrectOmission	0.110229	0.872063	0	1
282.557404	0.792156	city	2	1	0.754969	0.754969	0	1	0	0	CorrectCommission	0.182471	0.802003	0	1
283.349609	0.792245	mountain	4	0	0.000000	0.770836	1	0	0	0	CorrectOmission	0.071075	0.731720	0	1
284.141876	0.792285	city	9	1	0.801177	0.801177	0	1	0	0	CorrectCommission	0.141932	0.665237	1	1
284.934174	0.792316	mountain	5	0	0.000000	0.802905	1	0	0	0	CorrectOmission	0.154060	0.605479	1	1
285.726440	0.792212	city	3	1	0.843997	0.843997	0	1	0	0	CorrectCommission	0.442543	0.554115	1	1
286.518707	0.792375	city	10	1	0.992432	0.992432	0	1	0	0	CorrectCommission	1.484611	0.511648	1	1
287.310974	0.792157	city	1	1	0.745078	0.745078	0	1	0	0	CorrectCommission	0.251906	0.477600	1	1
288.103241	0.792330	city	3	1	0.759923	0.759923	0	1	0	0	CorrectCommission	0.147691	0.450907	1	1
288.895508	0.792198	city	5	1	0.744783	0.744783	0	1	0	0	CorrectCommission	0.253979	0.430205	1	1
289.687836	0.792482	city	9	1	0.845636	0.845636	0	1	0	0	CorrectCommission	0.454045	0.414188	1	1
290.480103	0.792049	city	1	1	0.806660	0.806660	0	1	0	0	CorrectCommission	0.180420	0.401822	1	1
291.272247	0.792266	city	10	1	0.942930	0.942930	0	1	0	0	CorrectCommission	1.137090	0.392490	1	1
292.064514	0.792261	city	2	1	0.744810	0.744810	0	1	0	0	CorrectCommission	0.253786	0.386006	1	1
292.856903	0.792482	city	10	1	0.744803	0.744803	0	1	0	0	CorrectCommission	0.253837	0.382598	1	1
293.649170	0.792047	mountain	4	0	0.000000	0.800549	1	0	0	0	CorrectOmission	0.137516	0.382711	1	1
294.441315	0.792263	city	2	1	0.843868	0.843868	0	1	0	0	CorrectCommission	0.441633	0.386860	1	1
295.233643	0.792374	city	5	1	0.806582	0.806582	0	1	0	0	CorrectCommission	0.179870	0.395453	1	1
296.025909	0.792159	mountain	2	0	0.000000	0.787067	1	0	0	0	CorrectOmission	0.042868	0.408704	1	1
296.818146	0.792302	city	9	1	0.750227	0.750227	0	1	0	0	CorrectCommission	0.215758	0.426573	1	1
297.610382	0.792225	city	1	1	0.660968	0.660968	0	1	0	0	CorrectCommission	0.842395	0.448825	1	1
298.402649	0.792268	city	3	1	0.794391	0.794391	0	1	0	0	CorrectCommission	0.094285	0.475123	1	1
299.194916	0.792304	mountain	3	0	0.000000	0.861870	1	0	0	0	CorrectOmission	0.568016	0.505191	1	1
299.987305	0.792439	city	5	1	0.863410	0.863410	0	1	0	0	CorrectCommission	0.578830	0.538869	1	1
300.779602	0.792158	city	9	1	0.799016	0.799016	0	1	0	0	CorrectCommission	0.126757	0.576228	1	1
301.571777	0.792219	city	1	1	0.992469	0.992469	0	1	0	0	CorrectCommission	1.484869	0.617538	1	1
302.363983	0.792203	city	6	1	0.955778	0.955778	0	1	0	0	CorrectCommission	1.227283	0.663102	1	1
303.156219	0.792265	city	4	1	0.747852	0.747852	0	1	0	0	CorrectCommission	0.232432	0.713073	0	1
303.948547	0.792372	city	1	1	0.695655	0.695655	0	1	0	0	CorrectCommission	0.598878	0.767132	0	1
304.740814	0.792155	city	8	1	0.745399	0.745399	0	1	0	0	CorrectCommission	0.249656	0.824211	0	1
305.533020	0.792276	city	9	1	0.754794	0.754794	0	1	0	0	CorrectCommission	0.183694	0.882312	0	0
306.325317	0.792296	city	5	1	0.809534	0.809534	0	1	0	0	CorrectCommission	0.200600	0.938489	0	0
307.117584	0.792249	city	7	1	0.898400	0.898400	0	1	0	0	CorrectCommission	0.824469	0.989042	0	0
307.909882	0.792346	city	2	1	0.993268	0.993268	0	1	0	0	CorrectCommission	1.490483	1.029929	0	0
308.702148	0.792158	city	3	1	1.098465	1.098465	0	1	0	0	CorrectCommission	2.229005	1.057314	0	0
309.494354	0.792268	mountain	9	0	0.000000	1.117043	1	0	0	0	CorrectOmission	2.359427	1.068191	0	0
310.286713	0.792476	mountain	10	0	0.000000	1.073461	1	0	0	0	CorrectOmission	2.053468	1.060884	0	0
311.079010	0.792073	city	9	1	0.992181	0.992181	0	1	0	0	CorrectCommission	1.482847	1.035385	0	0
311.871155	0.792241	city	5	1	0.897661	0.897661	0	1	0	0	CorrectCommission	0.819283	0.993418	0	0
312.663513	0.792482	city	9	1	0.896129	0.896129	0	1	0	0	CorrectCommission	0.808530	0.938246	0	0
313.455841	0.792156	mountain	1	0	0.000000	0.918918	1	0	0	0	CorrectOmission	0.968518	0.874266	0	0
314.248016	0.792198	city	6	1	0.893361	0.893361	0	1	0	0	CorrectCommission	0.789096	0.806454	0	0
315.040283	0.792332	city	3	1	0.746790	0.746790	0	1	0	0	CorrectCommission	0.239890	0.739777	0	0
315.832520	0.792165	city	4	1	0.806427	0.806427	0	1	0	0	CorrectCommission	0.178786	0.678683	1	0
316.624725	0.792257	city	9	1	0.807553	0.807553	0	1	0	0	CorrectCommission	0.186687	0.626617	1	0
317.416992	0.792260	city	1	1	0.695318	0.695318	0	1	0	0	CorrectCommission	0.601242	0.585796	1	0
318.209320	0.792376	city	3	1	0.744995	0.744995	0	1	0	0	CorrectCommission	0.252492	0.557129	1	0
319.001587	0.792190	city	9	1	0.754043	0.754043	0	1	0	0	CorrectCommission	0.188970	0.540288	1	0
319.793793	0.792232	city	8	1	0.702369	0.702369	0	1	0	0	CorrectCommission	0.551738	0.533943	1	0
320.586151	0.792480	city	5	1	0.745943	0.745943	0	1	0	0	CorrectCommission	0.245832	0.536106	1	0
321.378418	0.792045	city	1	1	0.695104	0.695104	0	1	0	0	CorrectCommission	0.602747	0.544470	1	0
322.170593	0.792274	city	3	1	0.695339	0.695339	0	1	0	0	CorrectCommission	0.601092	0.556844	1	0
322.962952	0.792474	city	9	1	0.695353	0.695353	0	1	0	0	CorrectCommission	0.600995	0.571504	1	0
323.755219	0.792058	city	1	1	0.655263	0.655263	0	1	0	0	CorrectCommission	0.882440	0.587449	1	0
324.547394	0.792256	city	6	1	0.612666	0.612666	0	1	0	0	CorrectCommission	1.181489	0.604507	1	0
325.339630	0.792263	city	8	1	0.695327	0.695327	0	1	0	0	CorrectCommission	0.601179	0.623323	1	0
326.131927	0.792290	city	10	1	0.695452	0.695452	0	1	0	0	CorrectCommission	0.600299	0.645193	1	0
326.924225	0.792347	city	5	1	0.695401	0.695401	0	1	0	0	CorrectCommission	0.600657	0.671720	1	0
327.716492	0.792160	city	8	1	0.754777	0.754777	0	1	0	0	CorrectCommission	0.183817	0.704443	0	0
328.508728	0.792289	city	6	1	0.852094	0.852094	0	1	0	0	CorrectCommission	0.499385	0.744416	0	0
329.300964	0.792235	city	5	1	0.844217	0.844217	0	1	0	0	CorrectCommission	0.444083	0.791845	0	0
330.093262	0.792329	city	7	1	0.861479	0.861479	0	1	0	0	CorrectCommission	0.565268	0.845860	0	0
330.885559	0.792265	city	4	1	0.905896	0.905896	0	1	0	0	CorrectCommission	0.877093	0.904441	0	0
331.677826	0.792261	city	8	1	0.795056	0.795056	0	1	0	0	CorrectCommission	0.098954	0.964583	0	0
332.470062	0.792208	city	5	1	0.698162	0.698162	0	1	0	0	CorrectCommission	0.581278	1.022677	0	0
333.262390	0.792480	city	4	1	0.548993	0.548993	0	1	0	0	CorrectCommission	1.628496	1.074944	0	0
334.054657	0.792049	city	6	1	0.497021	0.497021	0	1	0	0	CorrectCommission	1.993359	1.118005	0	0
334.846863	0.792371	city	9	1	0.400934	0.400934	0	1	0	0	CorrectCommission	2.667926	1.149397	0	0
335.639130	0.792156	mountain	3	1	0.355445	0.355445	0	0	1	0	CommissionError	2.987279	1.167923	0	0
336.431335	0.792264	city	8	1	0.803267	0.803267	0	1	0	0	CorrectCommission	0.156601	1.173816	0	0
337.223663	0.792374	city	5	1	0.712543	0.712543	0	1	0	0	CorrectCommission	0.480312	1.168702	0	0
338.016052	0.792375	city	3	1	0.645707	0.645707	0	1	0	0	CorrectCommission	0.949530	1.155201	0	0
338.808289	0.792155	city	5	1	0.596194	0.596194	0	1	0	0	CorrectCommission	1.297129	1.136540	0	0
339.600525	0.792265	city	4	1	0.645719	0.645719	0	1	0	0	CorrectCommission	0.949443	1.116055	0	0
340.392731	0.792171	city	8	1	0.646025	0.646025	0	1	0	0	CorrectCommission	0.947298	1.096744	0	0
341.184937	0.792253	city	9	1	0.606226	0.606226	0	1	0	0	CorrectCommission	1.226701	1.080841	0	0
341.977234	0.792301	city	1	1	0.646350	0.646350	0	1	0	0	CorrectCommission	0.945019	1.069526	0	0
342.769592	0.792441	city	6	1	0.943550	0.943550	0	1	0	0	CorrectCommission	1.141440	1.062830	0	0
343.561829	0.792054	city	5	1	0.843689	0.843689	0	1	0	0	CorrectCommission	0.440379	1.059595	0	0
344.354004	0.792259	city	2	1	0.893390	0.893390	0	1	0	0	CorrectCommission	0.789297	1.057664	0	0
345.146362	0.792482	city	7	1	0.893959	0.893959	0	1	0	0	CorrectCommission	0.793291	1.054140	0	0
345.938690	0.792154	city	6	1	0.893176	0.893176	0	1	0	0	CorrectCommission	0.787798	1.045828	0	0
346.730835	0.792160	city	3	1	0.942957	0.942957	0	1	0	0	CorrectCommission	1.137275	1.029733	0	0
347.523071	0.792310	city	5	1	1.091478	1.091478	0	1	0	0	CorrectCommission	2.179948	1.003534	0	0
348.315460	0.792433	city	3	1	1.091624	1.091624	0	1	0	0	CorrectCommission	2.180973	0.965974	0	0
349.107697	0.792047	city	1	1	1.041753	1.041753	0	1	0	0	CorrectCommission	1.830860	0.917156	0	0
349.899841	0.792268	city	5	1	0.952511	0.952511	0	1	0	0	CorrectCommission	1.204353	0.858529	0	0
350.692139	0.792337	city	3	1	0.806925	0.806925	0	1	0	0	CorrectCommission	0.182284	0.792667	0	0
351.484406	0.792191	city	1	1	0.794257	0.794257	0	1	0	0	CorrectCommission	0.093346	0.722919	0	0
352.276642	0.792264	city	10	1	0.745056	0.745056	0	1	0	0	CorrectCommission	0.252062	0.652866	1	0
353.068970	0.792373	city	2	1	0.745381	0.745381	0	1	0	0	CorrectCommission	0.249779	0.585849	1	0
353.861237	0.792158	city	1	1	0.744999	0.744999	0	1	0	0	CorrectCommission	0.252461	0.524630	1	0
354.653534	0.792480	mountain	4	0	0.000000	0.790797	1	0	0	0	CorrectOmission	0.069054	0.471087	1	0
355.445862	0.792156	city	7	1	0.850931	0.850931	0	1	0	0	CorrectCommission	0.491223	0.426139	1	0
356.238129	0.792373	city	4	1	0.893562	0.893562	0	1	0	0	CorrectCommission	0.790508	0.389804	1	0
357.030396	0.792158	mountain	10	1	0.744609	0.744609	0	0	1	0	CommissionError	0.255198	0.361395	1	0
357.822662	0.792373	city	8	1	0.744745	0.744745	0	1	0	0	CorrectCommission	0.254246	0.339739	1	0
358.614929	0.792155	city	6	1	0.794608	0.794608	0	1	0	0	CorrectCommission	0.095815	0.323389	1	0
359.407196	0.792373	city	7	1	0.763552	0.763552	0	1	0	0	CorrectCommission	0.122214	0.310874	1	0
360.199402	0.792084	city	1	1	0.752168	0.752168	0	1	0	0	CorrectCommission	0.202135	0.300858	1	0
360.991577	0.792226	mountain	2	0	0.000000	0.827307	1	0	0	0	CorrectOmission	0.325369	0.292307	1	0
361.783813	0.792267	city	9	1	0.893366	0.893366	0	1	0	0	CorrectCommission	0.789130	0.284554	1	0
362.576202	0.792481	mountain	4	0	0.000000	0.854743	1	0	0	0	CorrectOmission	0.517981	0.277355	1	0
363.368469	0.792048	city	7	1	0.794155	0.794155	0	1	0	0	CorrectCommission	0.092628	0.270897	1	0
364.160706	0.792479	city	5	1	0.794318	0.794318	0	1	0	0	CorrectCommission	0.093776	0.265733	1	0
364.953003	0.792106	city	2	1	0.794685	0.794685	0	1	0	0	CorrectCommission	0.096355	0.262646	1	1
365.745209	0.792317	city	1	1	0.794738	0.794738	0	1	0	0	CorrectCommission	0.096727	0.262538	1	1
366.537506	0.792263	city	8	1	0.695230	0.695230	0	1	0	0	CorrectCommission	0.601859	0.266274	1	1
367.329834	0.792374	city	6	1	0.806544	0.806544	0	1	0	0	CorrectCommission	0.179608	0.274487	1	1
368.122040	0.792052	city	9	1	0.794308	0.794308	0	1	0	0	CorrectCommission	0.093704	0.287481	1	1
368.914246	0.792370	city	7	1	0.798587	0.798587	0	1	0	0	CorrectCommission	0.123744	0.305056	1	1
369.706512	0.792155	city	9	1	0.794256	0.794256	0	1	0	0	CorrectCommission	0.093340	0.326469	1	1
370.498840	0.792483	mountain	1	0	0.000000	0.778757	1	0	0	0	CorrectOmission	0.015467	0.350449	1	1
371.291168	0.792155	city	2	1	0.796845	0.796845	0	1	0	0	CorrectCommission	0.111514	0.375324	1	1
372.083313	0.792159	city	10	1	0.893273	0.893273	0	1	0	0	CorrectCommission	0.788478	0.399183	1	1
372.875519	0.792263	city	1	1	0.844609	0.844609	0	1	0	0	CorrectCommission	0.446839	0.420147	1	1
373.667816	0.792313	mountain	2	0	0.000000	0.869559	1	0	0	0	CorrectOmission	0.621996	0.436671	1	1
374.460083	0.792247	mountain	7	0	0.000000	0.918883	1	0	0	0	CorrectOmission	0.968270	0.447785	1	1
375.252319	0.792235	city	1	1	0.943342	0.943342	0	1	0	0	CorrectCommission	1.139981	0.453261	1	1
376.044586	0.792294	city	7	1	0.893697	0.893697	0	1	0	0	CorrectCommission	0.791451	0.453689	1	1
376.836853	0.792237	city	3	1	0.794795	0.794795	0	1	0	0	CorrectCommission	0.097126	0.450387	1	1
377.629150	0.792312	city	10	1	0.744989	0.744989	0	1	0	0	CorrectCommission	0.252530	0.445214	1	1
378.421387	0.792213	city	1	1	0.794310	0.794310	0	1	0	0	CorrectCommission	0.093716	0.440245	1	1
379.213654	0.792282	city	10	1	0.843913	0.843913	0	1	0	0	CorrectCommission	0.441951	0.437482	1	1
380.005981	0.792410	city	1	1	0.808884	0.808884	0	1	0	0	CorrectCommission	0.196033	0.438534	1	1
380.798248	0.792104	city	5	1	0.794250	0.794250	0	1	0	0	CorrectCommission	0.093301	0.444437	1	1
381.590454	0.792316	city	2	1	0.695376	0.695376	0	1	0	0	CorrectCommission	0.600835	0.455500	1	1
382.382721	0.792210	mountain	6	0	0.000000	0.794392	1	0	0	0	CorrectOmission	0.094299	0.471319	1	1
383.174957	0.792266	city	6	1	0.893369	0.893369	0	1	0	0	CorrectCommission	0.789153	0.490899	1	1
383.967224	0.792266	city	10	1	0.794376	0.794376	0	1	0	0	CorrectCommission	0.094182	0.512832	1	1
384.759491	0.792263	city	9	1	0.696134	0.696134	0	1	0	0	CorrectCommission	0.595513	0.535630	1	1
385.551758	0.792268	city	8	1	0.850847	0.850847	0	1	0	0	CorrectCommission	0.490633	0.557970	1	1
386.344055	0.792317	city	1	1	0.992445	0.992445	0	1	0	0	CorrectCommission	1.484699	0.579023	1	1
387.136322	0.792210	mountain	6	0	0.000000	0.842243	1	0	0	0	CorrectOmission	0.430228	0.598598	1	1
387.928619	0.792370	city	2	1	0.650094	0.650094	0	1	0	0	CorrectCommission	0.918733	0.617336	1	1
388.720856	0.792159	city	1	1	0.665847	0.665847	0	1	0	0	CorrectCommission	0.808136	0.636584	1	1
389.513092	0.792262	city	7	1	0.695383	0.695383	0	1	0	0	CorrectCommission	0.600785	0.658254	1	1
390.305328	0.792265	city	4	1	0.744814	0.744814	0	1	0	0	CorrectCommission	0.253758	0.684522	1	1
391.097656	0.792331	city	5	1	0.696497	0.696497	0	1	0	0	CorrectCommission	0.592967	0.717435	0	1
391.890015	0.792417	city	3	1	0.744901	0.744901	0	1	0	0	CorrectCommission	0.253154	0.758475	0	1
392.682251	0.792052	city	9	1	0.663615	0.663615	0	1	0	0	CorrectCommission	0.823809	0.808233	0	1
393.474396	0.792264	city	3	1	0.695377	0.695377	0	1	0	0	CorrectCommission	0.600828	0.866097	0	1
394.266663	0.792260	city	2	1	0.700314	0.700314	0	1	0	0	CorrectCommission	0.566165	0.930202	0	1
395.058990	0.792374	city	8	1	0.745498	0.745498	0	1	0	0	CorrectCommission	0.248958	0.997470	0	1
395.851349	0.792374	city	7	1	0.893304	0.893304	0	1	0	0	CorrectCommission	0.788692	1.063926	0	1
396.643616	0.792116	city	9	1	0.958942	0.958942	0	1	0	0	CorrectCommission	1.249498	1.125088	0	1
397.435760	0.792194	city	4	1	1.107024	1.107024	0	1	0	0	CorrectCommission	2.289088	1.176633	0	1
398.227997	0.792265	city	9	1	1.041972	1.041972	0	1	0	0	CorrectCommission	1.832397	1.214916	0	1
399.020264	0.792269	city	1	1	1.098820	1.098820	0	1	0	0	CorrectCommission	2.231491	1.237555	0	1
399.812531	0.792272	city	4	1	1.042222	1.042222	0	1	0	0	CorrectCommission	1.834154	1.243731	0	1
400.604797	0.792258	city	8	1	0.992424	0.992424	0	1	0	0	CorrectCommission	1.484557	1.234314	0	1
401.397125	0.792375	city	10	1	1.041923	1.041923	0	1	0	0	CorrectCommission	1.832058	1.211737	0	1
402.189362	0.792148	city	1	1	0.846626	0.846626	0	1	0	0	CorrectCommission	0.461001	1.179594	0	1
402.981689	0.792489	city	7	1	0.893371	0.893371	0	1	0	0	CorrectCommission	0.789163	1.142143	0	1
403.773987	0.792095	city	9	1	0.893336	0.893336	0	1	0	0	CorrectCommission	0.788916	1.103662	0	1
404.566132	0.792213	mountain	1	0	0.000000	0.924394	1	0	0	0	CorrectOmission	1.006960	1.067953	0	1
405.358368	0.792265	mountain	7	0	0.000000	0.940638	1	0	0	0	CorrectOmission	1.120994	1.037832	0	1
406.150635	0.792263	city	3	1	0.896156	0.896156	0	1	0	0	CorrectCommission	0.808718	1.014870	0	1
406.942932	0.792287	city	8	1	0.745041	0.745041	0	1	0	0	CorrectCommission	0.252169	0.999302	0	1
407.735168	0.792238	city	7	1	0.700319	0.700319	0	1	0	0	CorrectCommission	0.566133	0.990137	0	1
408.527435	0.792270	city	6	1	0.856959	0.856959	0	1	0	0	CorrectCommission	0.533536	0.985439	0	1
409.319763	0.792376	city	9	1	0.955795	0.955795	0	1	0	0	CorrectCommission	1.227403	0.982717	0	1
410.112030	0.792149	city	7	1	1.006847	1.006847	0	1	0	0	CorrectCommission	1.585812	0.979444	0	1
410.904327	0.792483	city	8	1	1.107033	1.107033	0	1	0	0	CorrectCommission	2.289154	0.973510	0	1
411.696625	0.792112	city	1	0	0.000000	0.762805	0	0	0	1	OmissionError	0.127459	0.963589	0	1
412.488800	0.792198	city	6	1	0.462717	0.462717	0	1	0	0	CorrectCommission	2.234185	0.949445	0	1
413.281006	0.792267	city	9	1	0.695326	0.695326	0	1	0	0	CorrectCommission	0.601183	0.931782	0	1
414.073395	0.792456	city	3	1	0.645780	0.645780	0	1	0	0	CorrectCommission	0.949015	0.912301	0	1
414.865753	0.792290	city	7	1	0.744955	0.744955	0	1	0	0	CorrectCommission	0.252773	0.893301	0	1
415.657928	0.792046	city	10	1	0.744679	0.744679	0	1	0	0	CorrectCommission	0.254711	0.877383	0	1
416.450073	0.792268	mountain	8	0	0.000000	0.909261	1	0	0	0	CorrectOmission	0.900718	0.867016	0	1
417.242340	0.792266	city	9	1	0.992595	0.992595	0	1	0	0	CorrectCommission	1.485752	0.864192	0	1
418.034637	0.792299	city	8	1	0.748573	0.748573	0	1	0	0	CorrectCommission	0.227370	0.870132	0	1
418.826904	0.792228	city	7	1	0.861025	0.861025	0	1	0	0	CorrectCommission	0.562086	0.885083	0	1
419.619263	0.792481	city	6	1	0.943014	0.943014	0	1	0	0	CorrectCommission	1.137677	0.908164	0	1
420.411499	0.792047	city	1	1	0.843607	0.843607	0	1	0	0	CorrectCommission	0.439803	0.937358	0	1
421.203735	0.792374	mountain	1	0	0.000000	0.713841	1	0	0	0	CorrectOmission	0.471204	0.969684	0	1
421.996002	0.792191	mountain	10	1	0.699167	0.699167	0	0	1	0	CommissionError	0.574221	1.001394	0	1
422.788208	0.792234	city	7	1	0.945036	0.945036	0	1	0	0	CorrectCommission	1.151874	1.028368	0	1
423.580505	0.792369	city	8	1	1.143795	1.143795	0	1	0	0	CorrectCommission	2.547236	1.046570	0	1
424.372803	0.792174	city	5	0	0.000000	0.845297	0	0	0	1	OmissionError	0.451668	1.052545	0	0
425.165009	0.792250	city	7	1	0.497220	0.497220	0	1	0	0	CorrectCommission	1.991964	1.043943	0	0
425.957367	0.792478	city	2	1	0.547242	0.547242	0	1	0	0	CorrectCommission	1.640792	1.019757	0	0
426.749634	0.792049	city	6	1	0.547243	0.547243	0	1	0	0	CorrectCommission	1.640781	0.980593	0	0
427.541901	0.792481	city	3	1	0.497260	0.497260	0	1	0	0	CorrectCommission	1.991682	0.928587	0	0
428.334259	0.792264	city	4	1	0.753158	0.753158	0	1	0	0	CorrectCommission	0.195180	0.867148	0	0
429.126434	0.792047	city	10	1	0.801087	0.801087	0	1	0	0	CorrectCommission	0.141297	0.800638	0	0
429.918640	0.792375	city	7	1	0.906404	0.906404	0	1	0	0	CorrectCommission	0.880663	0.733669	0	0
430.710907	0.792154	city	9	1	0.843728	0.843728	0	1	0	0	CorrectCommission	0.440654	0.670625	1	0
431.503113	0.792264	city	8	1	0.794469	0.794469	0	1	0	0	CorrectCommission	0.094839	0.615145	1	0
432.295410	0.792324	city	9	1	0.808186	0.808186	0	1	0	0	CorrectCommission	0.191134	0.569750	1	0
433.087677	0.792226	city	3	1	0.751503	0.751503	0	1	0	0	CorrectCommission	0.206802	0.535582	1	0
433.879913	0.792266	city	6	1	0.794554	0.794554	0	1	0	0	CorrectCommission	0.095432	0.512420	1	0
434.672241	0.792353	city	4	1	0.759690	0.759690	0	1	0	0	CorrectCommission	0.149329	0.498854	1	0
435.464478	0.792160	city	1	1	0.746586	0.746586	0	1	0	0	CorrectCommission	0.241323	0.492675	1	0
436.256744	0.792370	city	10	1	0.646358	0.646358	0	1	0	0	CorrectCommission	0.944957	0.491275	1	0
437.049072	0.792267	city	7	1	0.645782	0.645782	0	1	0	0	CorrectCommission	0.949001	0.492073	1	0
437.841278	0.792162	city	4	1	0.665477	0.665477	0	1	0	0	CorrectCommission	0.810737	0.493008	1	0
438.633484	0.792261	city	6	1	0.657745	0.657745	0	1	0	0	CorrectCommission	0.865021	0.492800	1	0
439.425751	0.792264	city	7	1	0.695355	0.695355	0	1	0	0	CorrectCommission	0.600982	0.491088	1	0
440.218018	0.792276	city	8	1	0.744804	0.744804	0	1	0	0	CorrectCommission	0.253829	0.488407	1	0
441.010284	0.792256	city	6	1	0.844761	0.844761	0	1	0	0	CorrectCommission	0.447904	0.485978	1	0
441.802673	0.792477	city	7	1	0.843848	0.843848	0	1	0	0	CorrectCommission	0.441496	0.485455	1	0
442.594910	0.792048	city	8	1	0.794139	0.794139	0	1	0	0	CorrectCommission	0.092517	0.488533	1	0
443.387085	0.792265	city	5	1	0.744870	0.744870	0	1	0	0	CorrectCommission	0.253367	0.496644	1	0
444.179352	0.792264	city	1	1	0.695790	0.695790	0	1	0	0	CorrectCommission	0.597931	0.510647	1	0
444.971649	0.792373	city	2	1	0.744850	0.744850	0	1	0	0	CorrectCommission	0.253508	0.530638	1	0
445.763916	0.792155	city	6	1	0.794264	0.794264	0	1	0	0	CorrectCommission	0.093400	0.555928	1	0
446.556244	0.792483	city	3	1	0.744912	0.744912	0	1	0	0	CorrectCommission	0.253077	0.585087	1	0
447.348511	0.792047	city	5	1	0.992216	0.992216	0	1	0	0	CorrectCommission	1.483091	0.616113	1	0
448.140656	0.792266	city	4	1	0.846599	0.846599	0	1	0	0	CorrectCommission	0.460806	0.646658	1	0
448.932953	0.792325	city	10	1	0.754868	0.754868	0	1	0	0	CorrectCommission	0.183182	0.674448	1	0
449.725220	0.792201	city	9	1	0.709823	0.709823	0	1	0	0	CorrectCommission	0.499414	0.697555	0	0
450.517456	0.792284	city	6	1	0.497310	0.497310	0	1	0	0	CorrectCommission	1.991335	0.714708	0	0
451.309753	0.792306	mountain	9	1	0.509632	0.509632	0	0	1	0	CommissionError	1.904826	0.725466	0	0
452.102142	0.792424	city	5	1	0.744791	0.744791	0	1	0	0	CorrectCommission	0.253921	0.730385	0	0
452.894379	0.792058	city	3	1	0.698337	0.698337	0	1	0	0	CorrectCommission	0.580050	0.730982	0	0
453.686523	0.792253	city	9	1	0.695432	0.695432	0	1	0	0	CorrectCommission	0.600440	0.729483	0	0
454.478851	0.792374	mountain	7	0	0.000000	0.696564	1	0	0	0	CorrectOmission	0.592491	0.728626	0	0
455.271118	0.792182	mountain	6	0	0.000000	0.700019	1	0	0	0	CorrectOmission	0.568242	0.731369	0	0
456.063354	0.792302	mountain	10	0	0.000000	0.704079	1	0	0	0	CorrectOmission	0.539733	0.740509	0	0
456.855652	0.792310	city	5	1	0.707032	0.707032	0	1	0	0	CorrectCommission	0.519003	0.758462	0	0
457.647888	0.792157	city	10	1	0.707162	0.707162	0	1	0	0	CorrectCommission	0.518091	0.786981	0	0
458.440155	0.792373	city	6	1	0.652568	0.652568	0	1	0	0	CorrectCommission	0.901359	0.826984	0	0
459.232544	0.792375	city	7	1	0.695344	0.695344	0	1	0	0	CorrectCommission	0.601062	0.878441	0	0
460.024811	0.792154	city	9	1	0.843687	0.843687	0	1	0	0	CorrectCommission	0.440362	0.940412	0	0
460.816956	0.792181	city	5	1	0.795010	0.795010	0	1	0	0	CorrectCommission	0.098634	1.011038	0	0
461.609283	0.792458	city	2	1	0.943044	0.943044	0	1	0	0	CorrectCommission	1.137891	1.087736	0	0
462.401550	0.792046	city	4	1	1.160989	1.160989	0	1	0	0	CorrectCommission	2.667941	1.167313	0	0
463.193817	0.792482	city	10	0	0.000000	0.894400	0	0	0	1	OmissionError	0.796388	1.246264	0	0
463.986176	0.792266	city	8	1	0.664422	0.664422	0	1	0	0	CorrectCommission	0.818147	1.321095	0	0
464.778351	0.792051	city	1	1	0.992197	0.992197	0	1	0	0	CorrectCommission	1.482958	1.388478	0	0
465.570557	0.792370	city	9	1	1.101478	1.101478	0	1	0	0	CorrectCommission	2.250154	1.445598	0	0
466.362854	0.792225	city	5	1	1.004549	1.004549	0	1	0	0	CorrectCommission	1.569680	1.490353	0	0
467.155151	0.792414	city	7	1	1.042194	1.042194	0	1	0	0	CorrectCommission	1.833960	1.521558	0	0
467.947510	0.792265	city	9	1	1.108341	1.108341	0	1	0	0	CorrectCommission	2.298333	1.538956	0	0
468.739716	0.792154	city	7	1	1.041772	1.041772	0	1	0	0	CorrectCommission	1.830995	1.543220	0	0
469.531982	0.792375	city	10	1	0.992757	0.992757	0	1	0	0	CorrectCommission	1.486892	1.535877	0	0
470.324188	0.792048	city	2	1	1.091918	1.091918	0	1	0	0	CorrectCommission	2.183038	1.518998	0	0
471.116455	0.792480	city	9	0	0.000000	0.731327	0	0	0	1	OmissionError	0.348443	1.494898	0	0
471.908722	0.792048	city	5	1	0.513965	0.513965	0	1	0	0	CorrectCommission	1.874411	1.465873	0	0
472.700989	0.792483	city	9	1	1.042809	1.042809	0	1	0	0	CorrectCommission	1.838276	1.433782	0	0
473.493256	0.792049	city	1	1	0.943274	0.943274	0	1	0	0	CorrectCommission	1.139504	1.399883	0	0
474.285400	0.792262	city	3	1	0.846894	0.846894	0	1	0	0	CorrectCommission	0.462877	1.364685	0	0
475.077667	0.792268	city	8	1	1.002517	1.002517	0	1	0	0	CorrectCommission	1.555413	1.327957	0	0
475.869934	0.792264	city	10	0	0.000000	0.725809	0	0	0	1	OmissionError	0.387183	1.288799	0	0
476.662201	0.792294	city	1	1	0.448317	0.448317	0	1	0	0	CorrectCommission	2.335280	1.245972	0	0
477.454468	0.792238	city	8	1	0.601590	0.601590	0	1	0	0	CorrectCommission	1.259248	1.198077	0	0
478.246765	0.792315	city	7	1	0.497509	0.497509	0	1	0	0	CorrectCommission	1.989936	1.143959	0	0
479.039032	0.792226	mountain	6	1	0.546677	0.546677	0	0	1	0	CommissionError	1.644755	1.082837	0	0
479.831268	0.792249	mountain	5	1	0.663467	0.663467	0	0	1	0	CommissionError	0.824847	1.014443	0	0
480.623627	0.792482	city	4	1	0.943624	0.943624	0	1	0	0	CorrectCommission	1.141963	0.939073	0	0
481.415894	0.792060	city	1	1	0.843689	0.843689	0	1	0	0	CorrectCommission	0.440381	0.857435	0	0
482.208069	0.792253	mountain	6	0	0.000000	0.851456	1	0	0	0	CorrectOmission	0.494904	0.770500	0	0
483.000366	0.792373	city	3	1	0.847914	0.847914	0	1	0	0	CorrectCommission	0.470040	0.679341	1	0
483.792694	0.792265	city	1	1	0.714054	0.714054	0	1	0	0	CorrectCommission	0.469708	0.584976	1	0
484.585022	0.792372	city	4	1	0.605907	0.605907	0	1	0	0	CorrectCommission	1.228942	0.488316	1	0
485.377319	0.792265	mountain	4	0	0.000000	0.688853	1	0	0	0	CorrectOmission	0.646629	0.390084	1	0
486.169495	0.792061	city	6	1	0.794316	0.794316	0	1	0	0	CorrectCommission	0.093763	0.290887	1	0
486.961639	0.792264	city	8	1	0.753720	0.753720	0	1	0	0	CorrectCommission	0.191235	0.191235	1	0
