onset	duration	trial_type	image_type	Press	ReactionTime	ReactionTime_Interpolated	CorrectOmission	CorrectCommission	CommissionError	OmissionError	response_type	nonsmoothVarianceTimeCourse	VarianceTimeCourse	In_the_Zone	Reward_trial
8.433921	0.792105	city	2	1	1.000986	1.000986	0	1	0	0	CorrectCommission	2.127390	2.127390	0	0
9.226130	0.792315	city	8	1	0.612331	0.612331	0	1	0	0	CorrectCommission	0.372522	1.934992	0	0
10.018379	0.792182	city	4	1	1.042012	1.042012	0	1	0	0	CorrectCommission	2.391280	1.750132	0	0
10.810593	0.792245	city	1	1	0.853606	0.853606	0	1	0	0	CorrectCommission	1.179409	1.579759	0	0
11.602847	0.792263	city	6	1	0.794349	0.794349	0	1	0	0	CorrectCommission	0.798261	1.429887	0	0
12.395111	0.792265	city	8	1	0.647640	0.647640	0	1	0	0	CorrectCommission	0.145405	1.305090	0	0
13.187374	0.792261	city	7	1	0.803857	0.803857	0	1	0	0	CorrectCommission	0.859415	1.208231	0	0
13.979745	0.792481	mountain	8	0	0.000000	0.645688	1	0	0	0	CorrectOmission	0.157958	1.140186	0	0
14.772037	0.792104	city	3	1	0.562712	0.562712	0	1	0	0	CorrectCommission	0.691681	1.099838	0	0
15.564239	0.792300	city	8	1	0.944504	0.944504	0	1	0	0	CorrectCommission	1.764087	1.084082	0	0
16.356529	0.792283	city	10	1	0.744960	0.744960	0	1	0	0	CorrectCommission	0.480576	1.088109	0	0
17.148764	0.792184	city	1	1	0.659552	0.659552	0	1	0	0	CorrectCommission	0.068784	1.105828	0	0
17.940975	0.792242	mountain	9	1	0.547353	0.547353	0	0	1	0	CommissionError	0.790472	1.130374	0	0
18.733229	0.792263	city	7	1	0.596274	0.596274	0	1	0	0	CorrectCommission	0.475806	1.154772	0	0
19.525545	0.792370	city	6	1	0.998412	0.998412	0	1	0	0	CorrectCommission	2.110838	1.172676	0	0
20.317808	0.792158	city	1	1	1.091652	1.091652	0	1	0	0	CorrectCommission	2.710578	1.178983	0	0
21.110020	0.792264	city	9	1	1.190533	1.190533	0	1	0	0	CorrectCommission	3.346601	1.170449	0	0
21.902308	0.792310	city	2	0	0.000000	0.860054	0	0	0	1	OmissionError	1.220884	1.145924	0	0
22.694572	0.792218	city	9	1	0.513347	0.513347	0	1	0	0	CorrectCommission	1.009207	1.106430	0	0
23.486921	0.792481	city	4	1	0.563547	0.563547	0	1	0	0	CorrectCommission	0.686307	1.054749	0	0
24.279295	0.792267	city	7	1	0.511576	0.511576	0	1	0	0	CorrectCommission	1.020600	0.994974	0	0
25.071476	0.792095	mountain	1	1	0.546723	0.546723	0	0	1	0	CommissionError	0.794522	0.931750	0	0
25.863632	0.792218	city	10	1	0.555503	0.555503	0	1	0	0	CorrectCommission	0.738047	0.869649	0	0
26.655874	0.792264	city	5	1	0.695764	0.695764	0	1	0	0	CorrectCommission	0.164141	0.812569	0	0
27.448246	0.792480	city	3	1	0.666163	0.666163	0	1	0	0	CorrectCommission	0.026263	0.763258	0	0
28.240511	0.792051	city	4	1	0.649796	0.649796	0	1	0	0	CorrectCommission	0.131538	0.723219	0	0
29.032682	0.792292	city	7	1	0.759099	0.759099	0	1	0	0	CorrectCommission	0.571525	0.692721	0	0
29.824957	0.792258	city	1	1	0.794420	0.794420	0	1	0	0	CorrectCommission	0.798713	0.671072	0	0
30.617216	0.792257	city	5	1	0.849819	0.849819	0	1	0	0	CorrectCommission	1.155052	0.656957	0	0
31.409470	0.792250	city	8	1	0.849811	0.849811	0	1	0	0	CorrectCommission	1.155002	0.648826	1	0
32.201794	0.792398	city	4	1	0.794391	0.794391	0	1	0	0	CorrectCommission	0.798528	0.645188	1	0
32.994057	0.792128	city	3	1	0.794235	0.794235	0	1	0	0	CorrectCommission	0.797524	0.644781	1	0
33.786259	0.792281	city	5	1	0.656449	0.656449	0	1	0	0	CorrectCommission	0.088742	0.646621	1	0
34.578636	0.792467	city	3	1	0.652324	0.652324	0	1	0	0	CorrectCommission	0.115280	0.649947	1	0
35.370895	0.792057	mountain	5	0	0.000000	0.613447	1	0	0	0	CorrectOmission	0.365343	0.654051	1	0
36.163052	0.792255	city	8	1	0.556295	0.556295	0	1	0	0	CorrectCommission	0.732954	0.658178	0	0
36.955421	0.792482	mountain	8	0	0.000000	0.497345	1	0	0	0	CorrectOmission	1.112135	0.661417	0	0
37.747688	0.792055	city	7	1	0.506697	0.506697	0	1	0	0	CorrectCommission	1.051981	0.662728	0	0
38.539848	0.792260	city	5	1	0.654453	0.654453	0	1	0	0	CorrectCommission	0.101586	0.661027	0	0
39.332108	0.792263	city	7	1	0.596351	0.596351	0	1	0	0	CorrectCommission	0.475304	0.655389	1	0
40.124371	0.792262	city	10	1	0.497311	0.497311	0	1	0	0	CorrectCommission	1.112356	0.645149	1	0
40.916744	0.792483	city	6	1	0.497286	0.497286	0	1	0	0	CorrectCommission	1.112518	0.630073	1	0
41.709064	0.792156	mountain	2	1	0.497035	0.497035	0	0	1	0	CommissionError	1.114128	0.610475	1	0
42.501328	0.792373	city	1	1	0.645816	0.645816	0	1	0	0	CorrectCommission	0.157139	0.587213	1	0
43.293541	0.792048	city	5	1	0.513027	0.513027	0	1	0	0	CorrectCommission	1.011267	0.561614	1	0
44.085697	0.792267	city	8	1	0.596256	0.596256	0	1	0	0	CorrectCommission	0.475921	0.535258	1	0
44.877960	0.792260	city	5	1	0.695348	0.695348	0	1	0	0	CorrectCommission	0.161461	0.509807	1	0
45.670250	0.792321	city	8	1	0.695288	0.695288	0	1	0	0	CorrectCommission	0.161075	0.486744	1	0
46.462517	0.792211	mountain	7	0	0.000000	0.710623	1	0	0	0	CorrectOmission	0.259713	0.467154	1	0
47.254780	0.792317	city	9	1	0.695292	0.695292	0	1	0	0	CorrectCommission	0.161100	0.451623	1	0
48.047073	0.792267	city	3	1	0.603234	0.603234	0	1	0	0	CorrectCommission	0.431036	0.440211	1	0
48.839314	0.792210	mountain	5	0	0.000000	0.634024	1	0	0	0	CorrectOmission	0.232988	0.432518	1	0
49.631550	0.792266	city	2	1	0.646298	0.646298	0	1	0	0	CorrectCommission	0.154036	0.427855	1	0
50.423813	0.792261	city	1	1	0.498693	0.498693	0	1	0	0	CorrectCommission	1.103462	0.425410	1	0
51.216091	0.792292	city	10	1	0.505719	0.505719	0	1	0	0	CorrectCommission	1.058273	0.424400	1	0
52.008465	0.792455	city	8	1	0.596263	0.596263	0	1	0	0	CorrectCommission	0.475873	0.424214	1	0
52.800716	0.792051	city	2	1	0.645889	0.645889	0	1	0	0	CorrectCommission	0.156666	0.424436	1	0
53.592926	0.792370	mountain	8	0	0.000000	0.670588	1	0	0	0	CorrectOmission	0.002198	0.424831	1	0
54.385189	0.792156	city	8	1	0.695273	0.695273	0	1	0	0	CorrectCommission	0.160979	0.425260	1	0
55.177399	0.792265	city	6	1	0.744860	0.744860	0	1	0	0	CorrectCommission	0.479937	0.425608	1	0
55.969719	0.792375	mountain	10	0	0.000000	0.654071	1	0	0	0	CorrectOmission	0.104040	0.425774	1	0
56.761986	0.792155	city	7	1	0.546896	0.546896	0	1	0	0	CorrectCommission	0.793413	0.425645	1	0
57.554195	0.792264	city	6	1	0.547327	0.547327	0	1	0	0	CorrectCommission	0.790642	0.425095	1	0
58.346485	0.792318	mountain	4	0	0.000000	0.576452	1	0	0	0	CorrectOmission	0.603301	0.424084	1	0
59.138752	0.792215	city	1	1	0.615541	0.615541	0	1	0	0	CorrectCommission	0.351874	0.422670	1	0
59.930992	0.792263	city	2	1	0.645862	0.645862	0	1	0	0	CorrectCommission	0.156843	0.421053	1	0
60.723255	0.792264	city	10	1	0.569682	0.569682	0	1	0	0	CorrectCommission	0.646846	0.419509	1	0
61.515549	0.792328	city	5	1	0.695315	0.695315	0	1	0	0	CorrectCommission	0.161253	0.418347	1	0
62.307819	0.792206	city	10	1	0.744772	0.744772	0	1	0	0	CorrectCommission	0.479365	0.417860	1	0
63.100071	0.792303	city	2	1	0.749379	0.749379	0	1	0	0	CorrectCommission	0.509001	0.418206	1	0
63.892334	0.792221	mountain	4	0	0.000000	0.707020	1	0	0	0	CorrectOmission	0.236542	0.419397	1	0
64.684608	0.792329	city	4	1	0.646404	0.646404	0	1	0	0	CorrectCommission	0.153354	0.421247	1	0
65.476875	0.792204	city	9	1	0.596238	0.596238	0	1	0	0	CorrectCommission	0.476031	0.423411	1	0
66.269218	0.792479	city	1	1	0.596268	0.596268	0	1	0	0	CorrectCommission	0.475840	0.425455	1	0
67.061485	0.792052	city	10	1	0.745028	0.745028	0	1	0	0	CorrectCommission	0.481012	0.426988	1	0
67.853638	0.792263	city	9	1	0.695330	0.695330	0	1	0	0	CorrectCommission	0.161345	0.427733	1	1
68.645958	0.792369	city	3	1	0.843948	0.843948	0	1	0	0	CorrectCommission	1.117292	0.427648	1	1
69.438225	0.792161	city	8	1	0.547683	0.547683	0	1	0	0	CorrectCommission	0.788349	0.426950	1	1
70.230484	0.792369	city	6	1	0.695485	0.695485	0	1	0	0	CorrectCommission	0.162346	0.426109	1	1
71.022751	0.792159	city	3	1	0.744872	0.744872	0	1	0	0	CorrectCommission	0.480010	0.425752	1	1
71.814980	0.792296	city	9	1	0.695812	0.695812	0	1	0	0	CorrectCommission	0.164450	0.426484	1	1
72.607239	0.792233	city	4	1	0.663668	0.663668	0	1	0	0	CorrectCommission	0.042310	0.428772	1	1
73.399597	0.792479	city	5	1	0.744831	0.744831	0	1	0	0	CorrectCommission	0.479746	0.432812	1	1
74.191864	0.792047	city	8	1	0.695201	0.695201	0	1	0	0	CorrectCommission	0.160514	0.438440	1	1
74.984016	0.792270	city	2	1	0.744815	0.744815	0	1	0	0	CorrectCommission	0.479642	0.445178	1	1
75.776283	0.792261	city	1	1	0.744807	0.744807	0	1	0	0	CorrectCommission	0.479596	0.452339	1	1
76.568657	0.792481	city	6	1	0.745000	0.745000	0	1	0	0	CorrectCommission	0.480833	0.459250	1	1
77.361031	0.792265	city	7	1	0.744783	0.744783	0	1	0	0	CorrectCommission	0.479436	0.465494	1	1
78.153221	0.792116	city	1	1	0.749314	0.749314	0	1	0	0	CorrectCommission	0.508585	0.471133	1	1
78.945381	0.792197	city	7	1	0.942821	0.942821	0	1	0	0	CorrectCommission	1.753261	0.476907	1	1
79.737717	0.792481	city	3	1	0.703122	0.703122	0	1	0	0	CorrectCommission	0.211467	0.484233	1	1
80.530006	0.792106	city	5	1	0.645671	0.645671	0	1	0	0	CorrectCommission	0.158074	0.495258	1	1
81.322166	0.792206	city	7	1	0.645946	0.645946	0	1	0	0	CorrectCommission	0.156303	0.512573	1	1
82.114403	0.792266	city	5	1	0.746398	0.746398	0	1	0	0	CorrectCommission	0.489824	0.538885	1	1
82.906670	0.792262	city	9	1	0.709554	0.709554	0	1	0	0	CorrectCommission	0.252836	0.576626	1	1
83.698929	0.792266	city	7	1	0.695399	0.695399	0	1	0	0	CorrectCommission	0.161793	0.627555	1	1
84.491196	0.792269	city	2	1	0.794511	0.794511	0	1	0	0	CorrectCommission	0.799302	0.692352	0	1
85.283463	0.792260	city	3	1	0.695335	0.695335	0	1	0	0	CorrectCommission	0.161380	0.770331	0	1
86.075775	0.792373	mountain	3	0	0.000000	0.703592	1	0	0	0	CorrectOmission	0.214491	0.859334	0	1
86.868073	0.792216	city	4	1	0.695357	0.695357	0	1	0	0	CorrectCommission	0.161522	0.955744	0	1
87.660393	0.792425	city	1	1	0.546706	0.546706	0	1	0	0	CorrectCommission	0.794636	1.054784	0	1
88.452736	0.792265	city	2	1	0.402896	0.402896	0	1	0	0	CorrectCommission	1.719654	1.150889	0	1
89.244896	0.792050	city	6	1	1.041724	1.041724	0	1	0	0	CorrectCommission	2.389429	1.238296	0	1
90.037048	0.792262	city	7	1	0.943276	0.943276	0	1	0	0	CorrectCommission	1.756191	1.311677	0	1
90.829315	0.792264	city	5	1	0.943182	0.943182	0	1	0	0	CorrectCommission	1.755583	1.366759	0	1
91.621635	0.792374	city	2	1	0.942904	0.942904	0	1	0	0	CorrectCommission	1.753793	1.400778	0	1
92.413895	0.792158	city	5	1	0.992322	0.992322	0	1	0	0	CorrectCommission	2.071664	1.412833	0	1
93.206215	0.792480	city	6	1	0.992388	0.992388	0	1	0	0	CorrectCommission	2.072088	1.404001	0	1
93.998589	0.792263	city	3	1	1.003563	1.003563	0	1	0	0	CorrectCommission	2.143965	1.377221	0	1
94.790855	0.792265	city	7	0	0.000000	0.749780	0	0	0	1	OmissionError	0.511582	1.337027	0	1
95.583008	0.792046	city	2	1	0.448022	0.448022	0	1	0	0	CorrectCommission	1.429392	1.289087	0	1
96.375168	0.792268	mountain	5	1	0.315269	0.315269	0	0	1	0	CommissionError	2.283285	1.239489	0	1
97.167442	0.792291	city	7	1	0.546743	0.546743	0	1	0	0	CorrectCommission	0.794395	1.194162	0	1
97.959709	0.792238	city	5	1	0.646252	0.646252	0	1	0	0	CorrectCommission	0.154332	1.158235	0	1
98.751961	0.792263	city	2	1	0.695296	0.695296	0	1	0	0	CorrectCommission	0.161127	1.135407	0	1
99.544228	0.792279	city	3	1	0.695361	0.695361	0	1	0	0	CorrectCommission	0.161547	1.127544	0	1
100.336533	0.792316	city	7	1	0.596298	0.596298	0	1	0	0	CorrectCommission	0.475645	1.134521	0	1
101.128792	0.792203	mountain	2	0	0.000000	0.457033	1	0	0	0	CorrectOmission	1.371431	1.154277	0	1
101.921127	0.792479	city	4	1	0.511645	0.511645	0	1	0	0	CorrectCommission	1.020157	1.183094	0	1
102.713448	0.792154	city	8	1	0.994214	0.994214	0	1	0	0	CorrectCommission	2.083830	1.216126	0	1
103.505600	0.792160	city	7	1	0.904569	0.904569	0	1	0	0	CorrectCommission	1.507217	1.247914	0	1
104.297813	0.792264	city	6	1	0.853034	0.853034	0	1	0	0	CorrectCommission	1.175736	1.273063	0	1
105.090134	0.792370	city	10	1	0.844520	0.844520	0	1	0	0	CorrectCommission	1.120970	1.286777	0	1
105.882393	0.792157	city	4	1	0.993075	0.993075	0	1	0	0	CorrectCommission	2.076504	1.285334	0	1
106.674606	0.792269	city	5	1	0.911089	0.911089	0	1	0	0	CorrectCommission	1.549152	1.266400	0	1
107.466980	0.792479	city	3	1	0.992413	0.992413	0	1	0	0	CorrectCommission	2.072248	1.229288	0	1
108.259247	0.792046	city	1	1	1.041685	1.041685	0	1	0	0	CorrectCommission	2.389173	1.174896	0	1
109.051453	0.792374	city	3	0	0.000000	0.751320	0	0	0	1	OmissionError	0.521488	1.105572	0	1
109.843719	0.792156	city	9	1	0.459205	0.459205	0	1	0	0	CorrectCommission	1.357462	1.024838	0	1
110.635933	0.792265	city	5	1	0.503223	0.503223	0	1	0	0	CorrectCommission	1.074328	0.936887	0	1
111.428192	0.792263	city	8	1	0.596272	0.596272	0	1	0	0	CorrectCommission	0.475815	0.846189	0	1
112.220512	0.792374	city	4	1	0.645777	0.645777	0	1	0	0	CorrectCommission	0.157386	0.757056	0	1
113.012787	0.792170	city	3	1	0.695179	0.695179	0	1	0	0	CorrectCommission	0.160376	0.673211	0	1
113.805000	0.792252	city	6	1	0.744855	0.744855	0	1	0	0	CorrectCommission	0.479901	0.597532	1	1
114.597267	0.792289	city	4	1	0.596494	0.596494	0	1	0	0	CorrectCommission	0.474387	0.531953	1	1
115.389587	0.792348	mountain	4	0	0.000000	0.599177	1	0	0	0	CorrectOmission	0.457128	0.477494	1	1
116.181892	0.792265	city	1	1	0.649917	0.649917	0	1	0	0	CorrectCommission	0.130762	0.434354	1	1
116.974098	0.792155	city	6	1	0.645724	0.645724	0	1	0	0	CorrectCommission	0.157732	0.402105	1	1
117.766327	0.792294	city	10	1	0.600980	0.600980	0	1	0	0	CorrectCommission	0.445532	0.379886	1	1
118.558647	0.792346	mountain	3	0	0.000000	0.624106	1	0	0	0	CorrectOmission	0.296782	0.366601	1	1
119.350899	0.792165	city	7	1	0.645684	0.645684	0	1	0	0	CorrectCommission	0.157987	0.361144	1	1
120.143112	0.792256	city	2	1	0.596297	0.596297	0	1	0	0	CorrectCommission	0.475653	0.362425	1	1
120.935371	0.792265	city	1	1	0.607921	0.607921	0	1	0	0	CorrectCommission	0.400884	0.369491	1	1
121.727638	0.792266	city	8	1	0.646431	0.646431	0	1	0	0	CorrectCommission	0.153181	0.381507	1	1
122.520012	0.792478	city	9	1	0.598782	0.598782	0	1	0	0	CorrectCommission	0.459674	0.397747	1	1
123.312332	0.792159	city	1	1	0.596285	0.596285	0	1	0	0	CorrectCommission	0.475732	0.417510	1	1
124.104485	0.792157	mountain	1	1	0.600595	0.600595	0	0	1	0	CommissionError	0.448007	0.440163	1	1
124.896698	0.792262	city	4	1	0.661983	0.661983	0	1	0	0	CorrectCommission	0.053146	0.465064	1	1
125.688957	0.792267	mountain	4	0	0.000000	0.660835	1	0	0	0	CorrectOmission	0.060532	0.491637	1	1
126.481277	0.792371	city	1	1	0.601877	0.601877	0	1	0	0	CorrectCommission	0.439761	0.519485	1	1
127.273560	0.792193	mountain	5	0	0.000000	0.489837	1	0	0	0	CorrectOmission	1.160426	0.548420	1	0
128.065781	0.792256	city	8	1	0.497277	0.497277	0	1	0	0	CorrectCommission	1.112570	0.578573	1	0
128.858032	0.792236	city	5	1	0.796760	0.796760	0	1	0	0	CorrectCommission	0.813768	0.610443	1	0
129.650284	0.792265	city	2	1	0.646403	0.646403	0	1	0	0	CorrectCommission	0.153362	0.644821	1	0
130.442551	0.792265	mountain	1	0	0.000000	0.563652	1	0	0	0	CorrectOmission	0.685631	0.682644	0	0
131.234863	0.792355	city	7	1	0.547319	0.547319	0	1	0	0	CorrectCommission	0.790691	0.724740	0	0
132.027115	0.792174	city	3	1	0.596213	0.596213	0	1	0	0	CorrectCommission	0.476194	0.771594	0	0
132.819397	0.792373	city	9	1	0.653353	0.653353	0	1	0	0	CorrectCommission	0.108657	0.823120	0	0
133.611664	0.792161	city	8	1	0.710808	0.710808	0	1	0	0	CorrectCommission	0.260908	0.878475	0	0
134.403915	0.792347	city	9	1	0.951176	0.951176	0	1	0	0	CorrectCommission	1.807000	0.936025	0	0
135.196182	0.792195	city	10	1	0.744704	0.744704	0	1	0	0	CorrectCommission	0.478931	0.993406	0	0
135.988403	0.792248	city	1	1	0.893386	0.893386	0	1	0	0	CorrectCommission	1.435288	1.047845	0	0
136.780670	0.792268	city	2	1	0.794373	0.794373	0	1	0	0	CorrectCommission	0.798411	1.096391	0	0
137.572983	0.792370	city	8	1	0.857733	0.857733	0	1	0	0	CorrectCommission	1.205960	1.136334	0	0
138.365250	0.792157	city	4	1	0.905405	0.905405	0	1	0	0	CorrectCommission	1.512592	1.165517	0	0
139.157455	0.792267	city	3	1	1.152974	1.152974	0	1	0	0	CorrectCommission	3.105009	1.182616	0	0
139.949783	0.792369	city	4	0	0.000000	0.874311	0	0	0	1	OmissionError	1.312593	1.187231	0	0
140.742096	0.792264	city	1	1	0.497941	0.497941	0	1	0	0	CorrectCommission	1.108299	1.179943	0	0
141.534317	0.792171	mountain	4	0	0.000000	0.452387	1	0	0	0	CorrectOmission	1.401313	1.162015	0	0
142.326538	0.792277	city	4	1	0.548368	0.548368	0	1	0	0	CorrectCommission	0.783947	1.135144	0	0
143.118851	0.792348	city	1	1	0.596601	0.596601	0	1	0	0	CorrectCommission	0.473700	1.101172	0	0
143.911209	0.792373	city	5	1	0.546652	0.546652	0	1	0	0	CorrectCommission	0.794979	1.061789	0	0
144.703415	0.792048	city	7	1	0.547055	0.547055	0	1	0	0	CorrectCommission	0.792387	1.018359	0	0
145.495575	0.792264	city	5	1	0.497596	0.497596	0	1	0	0	CorrectCommission	1.110523	0.971912	0	0
146.287949	0.792482	city	4	1	0.418726	0.418726	0	1	0	0	CorrectCommission	1.617827	0.923197	0	0
147.080215	0.792056	mountain	3	1	0.447581	0.447581	0	0	1	0	CommissionError	1.432228	0.872820	0	0
147.872375	0.792259	city	5	1	0.455004	0.455004	0	1	0	0	CorrectCommission	1.384479	0.821369	0	0
148.664658	0.792312	city	9	1	0.695453	0.695453	0	1	0	0	CorrectCommission	0.162139	0.769487	0	0
149.456985	0.792323	city	7	1	0.744821	0.744821	0	1	0	0	CorrectCommission	0.479684	0.717913	0	0
150.249329	0.792374	city	9	1	0.657881	0.657881	0	1	0	0	CorrectCommission	0.079536	0.667379	0	0
151.041641	0.792264	city	2	1	0.600796	0.600796	0	1	0	0	CorrectCommission	0.446714	0.618577	1	0
151.833801	0.792047	mountain	10	1	0.497113	0.497113	0	0	1	0	CommissionError	1.113630	0.572016	1	0
152.626068	0.792483	city	9	1	0.596436	0.596436	0	1	0	0	CorrectCommission	0.474759	0.528026	1	0
153.418335	0.792049	city	7	1	0.645769	0.645769	0	1	0	0	CorrectCommission	0.157442	0.486742	1	0
154.210495	0.792268	city	3	1	0.703804	0.703804	0	1	0	0	CorrectCommission	0.215855	0.448160	1	0
155.002808	0.792370	city	8	1	0.596576	0.596576	0	1	0	0	CorrectCommission	0.473862	0.412227	1	0
155.795120	0.792262	city	9	1	0.508944	0.508944	0	1	0	0	CorrectCommission	1.037531	0.378938	1	0
156.587372	0.792234	city	7	1	0.645763	0.645763	0	1	0	0	CorrectCommission	0.157478	0.348380	1	0
157.379608	0.792228	city	4	1	0.695328	0.695328	0	1	0	0	CorrectCommission	0.161335	0.320916	1	0
158.171829	0.792228	mountain	6	0	0.000000	0.711831	1	0	0	0	CorrectOmission	0.267484	0.297132	1	0
158.964081	0.792262	city	10	1	0.695317	0.695317	0	1	0	0	CorrectCommission	0.161261	0.277816	1	0
159.756454	0.792481	city	5	1	0.645830	0.645830	0	1	0	0	CorrectCommission	0.157045	0.263917	1	0
160.548721	0.792047	city	2	1	0.654393	0.654393	0	1	0	0	CorrectCommission	0.101968	0.256416	1	0
161.340897	0.792309	city	3	1	0.647764	0.647764	0	1	0	0	CorrectCommission	0.144608	0.256195	1	0
162.133194	0.792286	city	9	1	0.695242	0.695242	0	1	0	0	CorrectCommission	0.160781	0.263889	1	0
162.925491	0.792309	city	3	1	0.645783	0.645783	0	1	0	0	CorrectCommission	0.157352	0.279756	1	0
163.717712	0.792155	city	9	1	0.645664	0.645664	0	1	0	0	CorrectCommission	0.158113	0.303560	1	0
164.510040	0.792485	city	6	1	0.645979	0.645979	0	1	0	0	CorrectCommission	0.156087	0.334510	1	0
165.302307	0.792050	city	9	1	0.645526	0.645526	0	1	0	0	CorrectCommission	0.159003	0.371273	1	0
166.094513	0.792369	city	4	1	0.700872	0.700872	0	1	0	0	CorrectCommission	0.196996	0.412027	1	0
166.886795	0.792202	city	3	1	0.744706	0.744706	0	1	0	0	CorrectCommission	0.478941	0.454596	1	0
167.679016	0.792223	city	10	1	0.744855	0.744855	0	1	0	0	CorrectCommission	0.479902	0.496662	1	0
168.471268	0.792288	city	8	1	0.695544	0.695544	0	1	0	0	CorrectCommission	0.162723	0.536024	1	0
169.263535	0.792236	city	5	1	0.762998	0.762998	0	1	0	0	CorrectCommission	0.596605	0.570821	1	0
170.055786	0.792265	city	1	1	0.992792	0.992792	0	1	0	0	CorrectCommission	2.074686	0.599739	1	0
170.848053	0.792270	city	6	1	0.942946	0.942946	0	1	0	0	CorrectCommission	1.754064	0.622109	1	0
171.640320	0.792261	city	1	1	0.702385	0.702385	0	1	0	0	CorrectCommission	0.206729	0.637953	1	0
172.432571	0.792268	city	4	1	0.695959	0.695959	0	1	0	0	CorrectCommission	0.165396	0.647857	1	0
173.224945	0.792481	city	2	1	0.599080	0.599080	0	1	0	0	CorrectCommission	0.457753	0.652712	1	0
174.017212	0.792051	city	10	1	0.614428	0.614428	0	1	0	0	CorrectCommission	0.359033	0.653514	1	0
174.809433	0.792369	city	4	1	0.744860	0.744860	0	1	0	0	CorrectCommission	0.479931	0.651203	1	0
175.601700	0.792161	city	7	1	0.746870	0.746870	0	1	0	0	CorrectCommission	0.492861	0.646553	1	0
176.393906	0.792264	city	2	1	0.794471	0.794471	0	1	0	0	CorrectCommission	0.799044	0.640191	1	0
177.186188	0.792304	city	1	1	0.812609	0.812609	0	1	0	0	CorrectCommission	0.915711	0.632671	1	0
177.978500	0.792329	city	2	1	0.843967	0.843967	0	1	0	0	CorrectCommission	1.117413	0.624631	1	0
178.770889	0.792428	city	9	1	0.807610	0.807610	0	1	0	0	CorrectCommission	0.883556	0.616921	1	0
179.563095	0.791994	city	10	1	0.696404	0.696404	0	1	0	0	CorrectCommission	0.168253	0.610646	1	0
180.355255	0.792325	city	6	1	0.844429	0.844429	0	1	0	0	CorrectCommission	1.120385	0.607150	1	0
181.147522	0.792203	city	7	1	0.695415	0.695415	0	1	0	0	CorrectCommission	0.161891	0.607826	1	0
181.939758	0.792269	city	4	1	0.695320	0.695320	0	1	0	0	CorrectCommission	0.161282	0.613987	1	0
182.732025	0.792265	city	7	1	0.707351	0.707351	0	1	0	0	CorrectCommission	0.238671	0.626561	1	0
183.524399	0.792478	city	4	1	0.843838	0.843838	0	1	0	0	CorrectCommission	1.116581	0.645881	1	0
184.316666	0.792068	city	1	1	0.695068	0.695068	0	1	0	0	CorrectCommission	0.159659	0.671519	0	0
185.108826	0.792245	mountain	5	0	0.000000	0.669073	1	0	0	0	CorrectOmission	0.007544	0.702304	0	0
185.901077	0.792265	city	4	1	0.646295	0.646295	0	1	0	0	CorrectCommission	0.154055	0.736364	0	0
186.693451	0.792482	city	10	1	0.507176	0.507176	0	1	0	0	CorrectCommission	1.048903	0.771335	0	1
187.485764	0.792157	city	7	1	0.397970	0.397970	0	1	0	0	CorrectCommission	1.751339	0.804603	0	1
188.277924	0.792154	mountain	10	1	0.364551	0.364551	0	0	1	0	CommissionError	1.966295	0.833634	0	1
189.070129	0.792267	city	10	1	0.745113	0.745113	0	1	0	0	CorrectCommission	0.481562	0.856258	0	1
189.862427	0.792325	city	7	1	0.596287	0.596287	0	1	0	0	CorrectCommission	0.475717	0.870880	0	1
190.654755	0.792313	city	9	1	0.514368	0.514368	0	1	0	0	CorrectCommission	1.002638	0.876502	0	1
191.446991	0.792157	city	10	1	0.448200	0.448200	0	1	0	0	CorrectCommission	1.428246	0.872776	0	1
192.239197	0.792266	city	7	1	0.546721	0.546721	0	1	0	0	CorrectCommission	0.794538	0.859947	0	1
193.031509	0.792344	city	2	1	0.546752	0.546752	0	1	0	0	CorrectCommission	0.794339	0.838773	0	1
193.823792	0.792238	city	4	1	0.447631	0.447631	0	1	0	0	CorrectCommission	1.431907	0.810378	0	1
194.616013	0.792210	city	8	1	0.596251	0.596251	0	1	0	0	CorrectCommission	0.475950	0.776134	0	1
195.408249	0.792263	city	6	1	0.551552	0.551552	0	1	0	0	CorrectCommission	0.763465	0.737600	0	1
196.200577	0.792374	city	9	1	0.596290	0.596290	0	1	0	0	CorrectCommission	0.475702	0.696383	0	1
196.992844	0.792157	city	6	1	0.547518	0.547518	0	1	0	0	CorrectCommission	0.789414	0.654110	1	1
197.785065	0.792301	city	3	1	0.502006	0.502006	0	1	0	0	CorrectCommission	1.082153	0.612292	1	1
198.577332	0.792228	city	9	1	0.605457	0.605457	0	1	0	0	CorrectCommission	0.416736	0.572311	1	1
199.369583	0.792268	city	3	1	0.645817	0.645817	0	1	0	0	CorrectCommission	0.157132	0.535360	1	1
200.161957	0.792479	mountain	4	0	0.000000	0.638398	1	0	0	0	CorrectOmission	0.204853	0.502366	1	1
200.954224	0.792068	city	6	1	0.612422	0.612422	0	1	0	0	CorrectCommission	0.371932	0.473939	1	1
201.746429	0.792352	city	8	1	0.597113	0.597113	0	1	0	0	CorrectCommission	0.470405	0.450397	1	1
202.538712	0.792196	city	5	1	0.596881	0.596881	0	1	0	0	CorrectCommission	0.471900	0.431756	1	1
203.331024	0.792443	city	10	1	0.695285	0.695285	0	1	0	0	CorrectCommission	0.161059	0.417783	1	1
204.123322	0.792156	city	2	1	0.645594	0.645594	0	1	0	0	CorrectCommission	0.158563	0.408080	1	1
204.915512	0.792196	city	3	1	0.550835	0.550835	0	1	0	0	CorrectCommission	0.768075	0.402153	1	1
205.707718	0.792225	city	4	1	0.596214	0.596214	0	1	0	0	CorrectCommission	0.476186	0.399516	1	1
206.499954	0.792267	city	9	1	0.597316	0.597316	0	1	0	0	CorrectCommission	0.469101	0.399767	1	1
207.292252	0.792317	city	2	1	0.645809	0.645809	0	1	0	0	CorrectCommission	0.157184	0.402624	1	1
208.084625	0.792426	city	9	1	0.695254	0.695254	0	1	0	0	CorrectCommission	0.160857	0.407935	1	1
208.876923	0.792158	city	6	1	0.744645	0.744645	0	1	0	0	CorrectCommission	0.478554	0.415656	1	1
209.669067	0.792157	city	5	1	0.744754	0.744754	0	1	0	0	CorrectCommission	0.479251	0.425832	1	1
210.461288	0.792265	city	8	1	0.745302	0.745302	0	1	0	0	CorrectCommission	0.482780	0.438533	1	1
211.253601	0.792370	city	1	1	0.762673	0.762673	0	1	0	0	CorrectCommission	0.594509	0.453753	1	1
212.045868	0.792160	city	4	1	0.744777	0.744777	0	1	0	0	CorrectCommission	0.479400	0.471357	1	1
212.838074	0.792261	city	10	1	0.645769	0.645769	0	1	0	0	CorrectCommission	0.157440	0.490979	1	1
213.630402	0.792374	city	3	1	0.660477	0.660477	0	1	0	0	CorrectCommission	0.062837	0.512003	1	1
214.422714	0.792263	city	7	1	0.744865	0.744865	0	1	0	0	CorrectCommission	0.479970	0.533505	1	1
215.214920	0.792162	city	5	1	0.794287	0.794287	0	1	0	0	CorrectCommission	0.797860	0.554336	1	1
216.007187	0.792369	city	3	1	0.546754	0.546754	0	1	0	0	CorrectCommission	0.794327	0.573237	1	1
216.799515	0.792264	city	6	1	0.503624	0.503624	0	1	0	0	CorrectCommission	1.071746	0.589005	1	1
217.591766	0.792265	city	2	1	0.596184	0.596184	0	1	0	0	CorrectCommission	0.476380	0.600662	1	1
218.384094	0.792375	city	1	1	0.707024	0.707024	0	1	0	0	CorrectCommission	0.236566	0.607706	1	1
219.176300	0.792046	city	10	1	0.598565	0.598565	0	1	0	0	CorrectCommission	0.461064	0.610272	1	1
219.968567	0.792481	city	2	1	0.795415	0.795415	0	1	0	0	CorrectCommission	0.805112	0.609298	1	1
220.760834	0.792047	city	4	1	0.992426	0.992426	0	1	0	0	CorrectCommission	2.072329	0.606582	1	1
221.553009	0.792315	city	8	1	0.744813	0.744813	0	1	0	0	CorrectCommission	0.479635	0.604713	1	1
222.345337	0.792331	city	9	1	0.749502	0.749502	0	1	0	0	CorrectCommission	0.509796	0.606993	1	1
223.137573	0.792154	city	10	1	0.710285	0.710285	0	1	0	0	CorrectCommission	0.257544	0.616988	1	1
223.929901	0.792479	city	2	1	0.663992	0.663992	0	1	0	0	CorrectCommission	0.040229	0.638196	1	1
224.722260	0.792264	city	3	1	0.695095	0.695095	0	1	0	0	CorrectCommission	0.159837	0.673566	0	1
225.514420	0.792049	city	9	1	0.645600	0.645600	0	1	0	0	CorrectCommission	0.158525	0.725043	0	1
226.306580	0.792268	city	5	1	0.695255	0.695255	0	1	0	0	CorrectCommission	0.160865	0.793232	0	1
227.098877	0.792321	city	3	1	0.756199	0.756199	0	1	0	0	CorrectCommission	0.552869	0.877183	0	1
227.891144	0.792207	city	1	1	0.803911	0.803911	0	1	0	0	CorrectCommission	0.859761	0.974329	0	1
228.683365	0.792259	city	7	1	0.907079	0.907079	0	1	0	0	CorrectCommission	1.523359	1.080622	0	1
229.475693	0.792374	mountain	8	0	0.000000	0.709353	1	0	0	0	CorrectOmission	0.251547	1.190817	0	1
230.268066	0.792375	city	1	1	0.459652	0.459652	0	1	0	0	CorrectCommission	1.354586	1.298933	0	1
231.060272	0.792046	city	3	1	0.406892	0.406892	0	1	0	0	CorrectCommission	1.693947	1.398672	0	1
231.852432	0.792265	city	5	1	1.042355	1.042355	0	1	0	0	CorrectCommission	2.393484	1.484008	0	1
232.644699	0.792276	city	2	1	0.995155	0.995155	0	1	0	0	CorrectCommission	2.089887	1.549676	0	1
233.436996	0.792316	city	8	1	1.053828	1.053828	0	1	0	0	CorrectCommission	2.467286	1.591635	0	1
234.229263	0.792205	city	5	1	0.992390	0.992390	0	1	0	0	CorrectCommission	2.072103	1.607340	0	1
235.021484	0.792264	city	6	1	1.042282	1.042282	0	1	0	0	CorrectCommission	2.393017	1.595939	0	1
235.813812	0.792374	city	7	1	0.945517	0.945517	0	1	0	0	CorrectCommission	1.770603	1.558254	0	1
236.606079	0.792162	city	6	1	0.808537	0.808537	0	1	0	0	CorrectCommission	0.889516	1.496653	0	1
237.398285	0.792260	city	10	1	1.141024	1.141024	0	1	0	0	CorrectCommission	3.028145	1.414801	0	1
238.190582	0.792317	city	8	0	0.000000	0.841480	0	0	0	1	OmissionError	1.101414	1.317289	0	1
238.982834	0.792210	city	6	1	0.447681	0.447681	0	1	0	0	CorrectCommission	1.431583	1.209386	0	1
239.775192	0.792482	mountain	4	0	0.000000	0.497405	1	0	0	0	CorrectOmission	1.111749	1.096506	0	1
240.567566	0.792265	city	5	1	0.695154	0.695154	0	1	0	0	CorrectCommission	0.160215	0.983967	0	1
241.359818	0.792264	city	8	1	0.745431	0.745431	0	1	0	0	CorrectCommission	0.483610	0.876674	0	1
242.151978	0.792047	city	3	1	0.794227	0.794227	0	1	0	0	CorrectCommission	0.797470	0.778873	0	1
242.944138	0.792268	city	2	1	0.600158	0.600158	0	1	0	0	CorrectCommission	0.450818	0.694016	0	1
243.736435	0.792344	city	4	1	0.646197	0.646197	0	1	0	0	CorrectCommission	0.154687	0.624699	1	1
244.528702	0.792187	city	2	1	0.609696	0.609696	0	1	0	0	CorrectCommission	0.389469	0.572601	1	1
245.320938	0.792262	city	7	1	0.598775	0.598775	0	1	0	0	CorrectCommission	0.459713	0.538481	1	1
246.113251	0.792372	city	1	1	0.646153	0.646153	0	1	0	0	CorrectCommission	0.154970	0.522166	1	0
246.905624	0.792374	city	8	1	0.712837	0.712837	0	1	0	0	CorrectCommission	0.273957	0.522592	1	0
247.697830	0.792047	city	9	1	0.709128	0.709128	0	1	0	0	CorrectCommission	0.250096	0.537765	1	0
248.490005	0.792314	city	10	1	0.652657	0.652657	0	1	0	0	CorrectCommission	0.113134	0.564834	1	0
249.282288	0.792221	city	6	1	0.750695	0.750695	0	1	0	0	CorrectCommission	0.517464	0.600198	1	0
250.074570	0.792368	city	10	1	0.756302	0.756302	0	1	0	0	CorrectCommission	0.553534	0.639672	1	0
250.866943	0.792374	city	8	1	0.794872	0.794872	0	1	0	0	CorrectCommission	0.801622	0.678792	0	0
251.659180	0.792101	city	7	1	0.696351	0.696351	0	1	0	0	CorrectCommission	0.167912	0.713177	0	0
252.451447	0.792428	city	4	1	0.652847	0.652847	0	1	0	0	CorrectCommission	0.111913	0.738946	0	0
253.243683	0.792047	mountain	3	1	1.190463	1.190463	0	0	1	0	CommissionError	3.346150	0.753102	0	0
254.035843	0.792269	mountain	9	0	0.000000	1.023710	1	0	0	0	CorrectOmission	2.273555	0.753810	0	0
254.828110	0.792262	city	10	1	0.647798	0.647798	0	1	0	0	CorrectCommission	0.144390	0.740641	0	0
255.620483	0.792480	city	6	1	0.557940	0.557940	0	1	0	0	CorrectCommission	0.722378	0.714569	0	0
256.412842	0.792266	city	7	1	0.596654	0.596654	0	1	0	0	CorrectCommission	0.473355	0.677668	0	0
257.205017	0.792048	city	2	1	0.546965	0.546965	0	1	0	0	CorrectCommission	0.792968	0.632846	1	0
257.997162	0.792267	city	1	1	0.596291	0.596291	0	1	0	0	CorrectCommission	0.475695	0.583403	1	0
258.789429	0.792260	city	2	1	0.645915	0.645915	0	1	0	0	CorrectCommission	0.156499	0.532632	1	0
259.581696	0.792270	city	3	1	0.695364	0.695364	0	1	0	0	CorrectCommission	0.161568	0.483428	1	0
260.373962	0.792263	city	10	1	0.601000	0.601000	0	1	0	0	CorrectCommission	0.445403	0.438057	1	0
261.166290	0.792371	city	7	1	0.601452	0.601452	0	1	0	0	CorrectCommission	0.442493	0.398037	1	0
261.958588	0.792221	city	3	1	0.695207	0.695207	0	1	0	0	CorrectCommission	0.160556	0.364138	1	0
262.750854	0.792308	city	8	1	0.660230	0.660230	0	1	0	0	CorrectCommission	0.064425	0.336480	1	0
263.543182	0.792374	city	4	1	0.664219	0.664219	0	1	0	0	CorrectCommission	0.038766	0.314699	1	0
264.335388	0.792046	city	6	1	0.794152	0.794152	0	1	0	0	CorrectCommission	0.796991	0.298126	1	0
265.127533	0.792267	city	1	1	0.696012	0.696012	0	1	0	0	CorrectCommission	0.165732	0.285974	1	0
265.919830	0.792298	city	5	1	0.705942	0.705942	0	1	0	0	CorrectCommission	0.229606	0.277508	1	0
266.712097	0.792251	city	6	1	0.745151	0.745151	0	1	0	0	CorrectCommission	0.481808	0.272095	1	0
267.504364	0.792248	city	9	1	0.695272	0.695272	0	1	0	0	CorrectCommission	0.160973	0.269258	1	0
268.296600	0.792264	city	8	1	0.645792	0.645792	0	1	0	0	CorrectCommission	0.157293	0.268657	1	0
269.088867	0.792261	city	10	1	0.646333	0.646333	0	1	0	0	CorrectCommission	0.153813	0.270044	1	0
269.881134	0.792265	city	1	1	0.656637	0.656637	0	1	0	0	CorrectCommission	0.087535	0.273206	1	0
270.673462	0.792373	city	7	1	0.646631	0.646631	0	1	0	0	CorrectCommission	0.151894	0.277868	1	0
271.465729	0.792158	city	4	1	0.744727	0.744727	0	1	0	0	CorrectCommission	0.479080	0.283729	1	0
272.257935	0.792298	city	10	1	0.744848	0.744848	0	1	0	0	CorrectCommission	0.479857	0.290460	1	0
273.050262	0.792339	city	5	1	0.645793	0.645793	0	1	0	0	CorrectCommission	0.157283	0.297711	1	0
273.842560	0.792219	city	7	1	0.596191	0.596191	0	1	0	0	CorrectCommission	0.476336	0.305163	1	0
274.634796	0.792274	city	2	1	0.645751	0.645751	0	1	0	0	CorrectCommission	0.157556	0.312548	1	0
275.427032	0.792194	city	10	1	0.695241	0.695241	0	1	0	0	CorrectCommission	0.160773	0.319750	1	0
276.219269	0.792263	city	8	1	0.744961	0.744961	0	1	0	0	CorrectCommission	0.480584	0.326807	1	0
277.011627	0.792481	city	6	1	0.744965	0.744965	0	1	0	0	CorrectCommission	0.480613	0.333955	1	0
277.803986	0.792264	city	10	1	0.602398	0.602398	0	1	0	0	CorrectCommission	0.436412	0.341641	1	0
278.596191	0.792099	city	7	1	0.695110	0.695110	0	1	0	0	CorrectCommission	0.159931	0.350514	1	0
279.388336	0.792216	city	9	1	0.645724	0.645724	0	1	0	0	CorrectCommission	0.157729	0.361416	1	0
280.180573	0.792279	city	2	1	0.547606	0.547606	0	1	0	0	CorrectCommission	0.788845	0.375292	1	0
280.972870	0.792274	city	6	1	0.706712	0.706712	0	1	0	0	CorrectCommission	0.234555	0.393126	1	0
281.765228	0.792456	city	5	1	0.645807	0.645807	0	1	0	0	CorrectCommission	0.157196	0.415831	1	0
282.557526	0.792114	city	4	1	0.610208	0.610208	0	1	0	0	CorrectCommission	0.386178	0.444144	1	0
283.349701	0.792242	city	9	1	0.695483	0.695483	0	1	0	0	CorrectCommission	0.162330	0.478495	1	0
284.141937	0.792224	city	4	1	0.764649	0.764649	0	1	0	0	CorrectCommission	0.607223	0.518927	1	0
284.934204	0.792334	city	6	1	0.695613	0.695613	0	1	0	0	CorrectCommission	0.163164	0.565012	1	0
285.726471	0.792196	mountain	9	0	0.000000	0.608120	1	0	0	0	CorrectOmission	0.399609	0.615859	1	0
286.518738	0.792368	city	8	1	0.546767	0.546767	0	1	0	0	CorrectCommission	0.794240	0.670098	0	0
287.311005	0.792155	city	3	1	0.556153	0.556153	0	1	0	0	CorrectCommission	0.733871	0.725946	0	0
288.103210	0.792268	city	9	1	0.498058	0.498058	0	1	0	0	CorrectCommission	1.107552	0.781310	0	0
288.895508	0.792279	city	6	1	0.546930	0.546930	0	1	0	0	CorrectCommission	0.793193	0.833928	0	0
289.687775	0.792258	city	9	1	0.596280	0.596280	0	1	0	0	CorrectCommission	0.475762	0.881512	0	0
290.480011	0.792259	city	1	1	0.447703	0.447703	0	1	0	0	CorrectCommission	1.431445	0.921950	0	0
291.272308	0.792296	city	3	1	0.497228	0.497228	0	1	0	0	CorrectCommission	1.112890	0.953424	0	0
292.064575	0.792232	city	6	1	0.447721	0.447721	0	1	0	0	CorrectCommission	1.431325	0.974616	0	0
292.856812	0.792262	city	3	1	0.497250	0.497250	0	1	0	0	CorrectCommission	1.112747	0.984831	0	0
293.649078	0.792263	city	8	1	0.505968	0.505968	0	1	0	0	CorrectCommission	1.056672	0.984072	0	0
294.441345	0.792268	city	1	1	0.461463	0.461463	0	1	0	0	CorrectCommission	1.342934	0.973075	0	0
295.233612	0.792264	city	7	1	0.497949	0.497949	0	1	0	0	CorrectCommission	1.108251	0.953260	0	0
296.025879	0.792263	city	8	1	0.447752	0.447752	0	1	0	0	CorrectCommission	1.431129	0.926632	0	0
296.818176	0.792323	city	7	1	0.546743	0.546743	0	1	0	0	CorrectCommission	0.794393	0.895563	0	0
297.610474	0.792316	city	10	1	0.546971	0.546971	0	1	0	0	CorrectCommission	0.792933	0.862593	0	0
298.402740	0.792173	city	7	1	0.596545	0.596545	0	1	0	0	CorrectCommission	0.474060	0.830194	0	0
299.195038	0.792466	city	2	1	0.751440	0.751440	0	1	0	0	CorrectCommission	0.522256	0.800575	0	0
299.987305	0.792048	city	3	1	0.646133	0.646133	0	1	0	0	CorrectCommission	0.155099	0.775529	0	0
300.779510	0.792372	city	8	1	0.556536	0.556536	0	1	0	0	CorrectCommission	0.731405	0.756389	0	0
301.571777	0.792157	mountain	6	1	0.497107	0.497107	0	0	1	0	CommissionError	1.113669	0.743997	0	0
302.364014	0.792317	city	9	1	0.547652	0.547652	0	1	0	0	CorrectCommission	0.788549	0.738789	0	0
303.156281	0.792214	city	5	1	0.645754	0.645754	0	1	0	0	CorrectCommission	0.157538	0.740872	0	0
303.948578	0.792371	city	3	1	0.844295	0.844295	0	1	0	0	CorrectCommission	1.119520	0.750076	0	0
304.740845	0.792158	city	1	1	0.609977	0.609977	0	1	0	0	CorrectCommission	0.387659	0.765946	0	0
305.533173	0.792480	city	8	1	0.497258	0.497258	0	1	0	0	CorrectCommission	1.112693	0.787772	0	1
306.325409	0.792050	mountain	2	1	0.497131	0.497131	0	0	1	0	CommissionError	1.113509	0.814473	0	1
307.117676	0.792480	city	1	1	0.646493	0.646493	0	1	0	0	CorrectCommission	0.152786	0.844571	0	1
307.910065	0.792264	city	9	1	0.547468	0.547468	0	1	0	0	CorrectCommission	0.789732	0.876154	0	1
308.702271	0.792156	city	3	1	0.695105	0.695105	0	1	0	0	CorrectCommission	0.159897	0.906922	0	1
309.494415	0.792155	city	8	1	0.745406	0.745406	0	1	0	0	CorrectCommission	0.483448	0.934378	0	1
310.286621	0.792265	city	9	1	0.448187	0.448187	0	1	0	0	CorrectCommission	1.428328	0.956089	0	1
311.078888	0.792267	city	5	1	0.349496	0.349496	0	1	0	0	CorrectCommission	2.063132	0.970061	0	1
311.871277	0.792479	city	8	1	0.398181	0.398181	0	1	0	0	CorrectCommission	1.749976	0.975086	0	1
312.663544	0.792049	city	7	1	0.463585	0.463585	0	1	0	0	CorrectCommission	1.329286	0.971038	0	1
313.455719	0.792329	mountain	6	1	0.447717	0.447717	0	0	1	0	CommissionError	1.431351	0.958962	0	1
314.248016	0.792239	city	10	1	0.547065	0.547065	0	1	0	0	CorrectCommission	0.792326	0.940981	0	1
315.040253	0.792228	city	3	1	0.551493	0.551493	0	1	0	0	CorrectCommission	0.763846	0.920022	0	1
315.832550	0.792372	city	6	1	0.596294	0.596294	0	1	0	0	CorrectCommission	0.475671	0.899325	0	1
316.624817	0.792156	mountain	7	1	0.546892	0.546892	0	0	1	0	CommissionError	0.793435	0.881944	0	1
317.417023	0.792266	city	9	1	0.596377	0.596377	0	1	0	0	CorrectCommission	0.475141	0.870237	0	1
318.209290	0.792265	city	1	1	0.596304	0.596304	0	1	0	0	CorrectCommission	0.475610	0.865481	0	1
319.001556	0.792264	mountain	2	0	0.000000	0.597228	1	0	0	0	CorrectOmission	0.469664	0.867650	0	1
319.793823	0.792266	city	1	1	0.597769	0.597769	0	1	0	0	CorrectCommission	0.466183	0.875492	0	1
320.586090	0.792275	city	2	1	0.596547	0.596547	0	1	0	0	CorrectCommission	0.474048	0.886797	0	1
321.378387	0.792299	city	3	1	0.497588	0.497588	0	1	0	0	CorrectCommission	1.110574	0.898849	0	1
322.170624	0.792218	city	9	1	0.497249	0.497249	0	1	0	0	CorrectCommission	1.112754	0.909051	0	1
322.962860	0.792263	city	7	1	0.412879	0.412879	0	1	0	0	CorrectCommission	1.655436	0.915497	0	1
323.755127	0.792265	mountain	1	1	0.303478	0.303478	0	0	1	0	CommissionError	2.359132	0.917443	0	1
324.547394	0.792264	city	2	1	0.448272	0.448272	0	1	0	0	CorrectCommission	1.427781	0.915574	0	1
325.339661	0.792264	city	6	1	0.596406	0.596406	0	1	0	0	CorrectCommission	0.474951	0.911967	0	1
326.131927	0.792272	city	10	1	0.547065	0.547065	0	1	0	0	CorrectCommission	0.792325	0.909741	0	1
326.924316	0.792478	city	1	1	0.596393	0.596393	0	1	0	0	CorrectCommission	0.475036	0.912489	0	1
327.716614	0.792153	city	5	1	0.645599	0.645599	0	1	0	0	CorrectCommission	0.158533	0.923589	0	1
328.508820	0.792266	mountain	9	0	0.000000	0.596050	1	0	0	0	CorrectOmission	0.477242	0.945526	0	1
329.301086	0.792264	mountain	5	1	0.596151	0.596151	0	0	1	0	CommissionError	0.476591	0.979334	0	1
330.093323	0.792187	city	6	1	0.794308	0.794308	0	1	0	0	CorrectCommission	0.797993	1.024273	0	1
330.885590	0.792342	city	4	1	0.695520	0.695520	0	1	0	0	CorrectCommission	0.162568	1.077786	0	1
331.677856	0.792206	city	1	1	0.547350	0.547350	0	1	0	0	CorrectCommission	0.790489	1.135816	0	1
332.470184	0.792433	city	3	1	0.412685	0.412685	0	1	0	0	CorrectCommission	1.656689	1.193273	0	1
333.262421	0.792068	city	9	1	0.350196	0.350196	0	1	0	0	CorrectCommission	2.058628	1.244764	0	1
334.054596	0.792243	city	2	1	0.403232	0.403232	0	1	0	0	CorrectCommission	1.717491	1.285338	0	1
334.846954	0.792484	city	10	1	1.041937	1.041937	0	1	0	0	CorrectCommission	2.390798	1.311192	0	1
335.639282	0.792154	city	4	1	0.992202	0.992202	0	1	0	0	CorrectCommission	2.070892	1.320137	0	1
336.431458	0.792204	city	10	1	0.893769	0.893769	0	1	0	0	CorrectCommission	1.437752	1.311910	0	1
337.223694	0.792274	city	5	1	0.942856	0.942856	0	1	0	0	CorrectCommission	1.753490	1.288160	0	1
338.016022	0.792426	city	2	1	0.843824	0.843824	0	1	0	0	CorrectCommission	1.116495	1.252205	0	1
338.808319	0.792112	city	7	1	0.843628	0.843628	0	1	0	0	CorrectCommission	1.115231	1.208578	0	1
339.600464	0.792201	city	10	1	0.846315	0.846315	0	1	0	0	CorrectCommission	1.132514	1.162491	0	1
340.392700	0.792264	city	5	1	0.843936	0.843936	0	1	0	0	CorrectCommission	1.117211	1.119256	0	1
341.185028	0.792373	city	4	1	0.695292	0.695292	0	1	0	0	CorrectCommission	0.161101	1.083733	0	1
341.977325	0.792264	city	5	1	0.805810	0.805810	0	1	0	0	CorrectCommission	0.871978	1.059930	0	1
342.769562	0.792215	mountain	3	0	0.000000	0.712811	1	0	0	0	CorrectOmission	0.273790	1.050620	0	1
343.561890	0.792425	city	1	1	0.549105	0.549105	0	1	0	0	CorrectCommission	0.779206	1.057193	0	1
344.354156	0.792092	mountain	1	1	0.447499	0.447499	0	0	1	0	CommissionError	1.432754	1.079560	0	1
345.146301	0.792222	city	5	1	0.546948	0.546948	0	1	0	0	CorrectCommission	0.793078	1.116216	0	1
345.938599	0.792369	city	4	1	0.556532	0.556532	0	1	0	0	CorrectCommission	0.731431	1.164382	0	1
346.730865	0.792160	city	3	1	0.497210	0.497210	0	1	0	0	CorrectCommission	1.113001	1.220205	0	1
347.523193	0.792479	city	9	1	0.497231	0.497231	0	1	0	0	CorrectCommission	1.112871	1.279024	0	1
348.315491	0.792156	city	6	1	0.459077	0.459077	0	1	0	0	CorrectCommission	1.358283	1.335747	0	1
349.107758	0.792373	city	5	1	0.448306	0.448306	0	1	0	0	CorrectCommission	1.427562	1.385222	0	1
349.900024	0.792156	city	4	1	0.398058	0.398058	0	1	0	0	CorrectCommission	1.750768	1.422652	0	1
350.692200	0.792159	city	3	1	0.362702	0.362702	0	1	0	0	CorrectCommission	1.978188	1.444084	0	1
351.484406	0.792266	city	4	1	0.349532	0.349532	0	1	0	0	CorrectCommission	2.062898	1.446774	0	1
352.276672	0.792261	city	8	1	0.992390	0.992390	0	1	0	0	CorrectCommission	2.072102	1.429521	0	1
353.068939	0.792265	city	10	1	1.151663	1.151663	0	1	0	0	CorrectCommission	3.096577	1.392840	0	1
353.861206	0.792267	city	4	0	0.000000	0.881448	0	0	0	1	OmissionError	1.358495	1.338910	0	1
354.653473	0.792262	city	7	1	0.546968	0.546968	0	1	0	0	CorrectCommission	0.792952	1.271504	0	1
355.445709	0.792263	city	4	1	0.513446	0.513446	0	1	0	0	CorrectCommission	1.008573	1.195590	0	1
356.237976	0.792265	city	2	1	0.547266	0.547266	0	1	0	0	CorrectCommission	0.791035	1.116897	0	1
357.030243	0.792268	city	8	1	0.513537	0.513537	0	1	0	0	CorrectCommission	1.007987	1.041456	0	1
357.822510	0.792262	city	7	1	0.555888	0.555888	0	1	0	0	CorrectCommission	0.735577	0.975060	0	1
358.614838	0.792375	city	1	1	0.596299	0.596299	0	1	0	0	CorrectCommission	0.475640	0.922813	0	1
359.407104	0.792153	city	3	1	0.546771	0.546771	0	1	0	0	CorrectCommission	0.794214	0.888627	0	1
360.199341	0.792301	city	10	1	0.561394	0.561394	0	1	0	0	CorrectCommission	0.700155	0.874862	0	1
360.991608	0.792231	city	5	1	0.645793	0.645793	0	1	0	0	CorrectCommission	0.157285	0.882043	0	1
361.783905	0.792374	mountain	8	1	0.645788	0.645788	0	0	1	0	CommissionError	0.157320	0.908692	0	1
362.576202	0.792221	city	7	1	0.744864	0.744864	0	1	0	0	CorrectCommission	0.479957	0.951337	0	1
363.368408	0.792201	mountain	4	0	0.000000	0.613966	1	0	0	0	CorrectOmission	0.362006	1.004732	0	1
364.160645	0.792267	mountain	3	1	0.511361	0.511361	0	0	1	0	CommissionError	1.021983	1.062317	0	1
364.952911	0.792261	city	3	1	0.695315	0.695315	0	1	0	0	CorrectCommission	0.161252	1.116855	0	0
365.745270	0.792481	city	8	1	1.053248	1.053248	0	1	0	0	CorrectCommission	2.463553	1.161287	0	0
366.537659	0.792265	city	9	1	0.943000	0.943000	0	1	0	0	CorrectCommission	1.754415	1.189477	0	0
367.329865	0.792155	city	10	1	1.150289	1.150289	0	1	0	0	CorrectCommission	3.087739	1.197071	0	0
368.122009	0.792160	city	8	1	1.190376	1.190376	0	1	0	0	CorrectCommission	3.345587	1.181913	0	0
368.914215	0.792262	mountain	7	0	0.000000	0.841741	1	0	0	0	CorrectOmission	1.103096	1.144293	0	0
369.706573	0.792455	city	10	1	0.497264	0.497264	0	1	0	0	CorrectCommission	1.112658	1.086800	0	0
370.498962	0.792291	mountain	1	1	0.549820	0.549820	0	0	1	0	CommissionError	0.774602	1.013727	0	0
371.291138	0.792047	mountain	6	0	0.000000	0.648073	1	0	0	0	CorrectOmission	0.142619	0.930463	0	0
372.083405	0.792484	city	7	1	0.695667	0.695667	0	1	0	0	CorrectCommission	0.163513	0.842707	0	0
372.875671	0.792047	city	10	1	0.596245	0.596245	0	1	0	0	CorrectCommission	0.475987	0.755730	0	0
373.667877	0.792373	city	3	1	0.794819	0.794819	0	1	0	0	CorrectCommission	0.801283	0.673873	0	0
374.460236	0.792375	city	7	1	0.596887	0.596887	0	1	0	0	CorrectCommission	0.471858	0.600245	1	0
375.252441	0.792048	city	2	1	0.646049	0.646049	0	1	0	0	CorrectCommission	0.155641	0.536682	1	0
376.044647	0.792319	city	6	1	0.754794	0.754794	0	1	0	0	CorrectCommission	0.543830	0.483860	1	0
376.836914	0.792209	city	9	1	0.744834	0.744834	0	1	0	0	CorrectCommission	0.479770	0.441531	1	0
377.629150	0.792265	city	5	1	0.646650	0.646650	0	1	0	0	CorrectCommission	0.151771	0.408874	1	0
378.421417	0.792264	city	1	1	0.645861	0.645861	0	1	0	0	CorrectCommission	0.156847	0.384802	1	0
379.213684	0.792299	city	6	1	0.613160	0.613160	0	1	0	0	CorrectCommission	0.367189	0.368216	1	0
380.005951	0.792230	city	3	1	0.610769	0.610769	0	1	0	0	CorrectCommission	0.382568	0.358183	1	0
380.798187	0.792263	city	5	1	0.596252	0.596252	0	1	0	0	CorrectCommission	0.475942	0.354044	1	0
381.590515	0.792373	city	3	1	0.608559	0.608559	0	1	0	0	CorrectCommission	0.396786	0.355390	1	0
382.382782	0.792159	city	2	1	0.695593	0.695593	0	1	0	0	CorrectCommission	0.163036	0.362021	1	0
383.174988	0.792266	city	4	1	0.708827	0.708827	0	1	0	0	CorrectCommission	0.248164	0.373767	1	0
383.967316	0.792372	city	5	1	0.745117	0.745117	0	1	0	0	CorrectCommission	0.481588	0.390399	1	0
384.759674	0.792373	city	2	1	0.695285	0.695285	0	1	0	0	CorrectCommission	0.161056	0.411464	1	0
385.552002	0.792265	city	5	1	0.695238	0.695238	0	1	0	0	CorrectCommission	0.160756	0.436267	1	0
386.344147	0.792047	city	10	1	0.645649	0.645649	0	1	0	0	CorrectCommission	0.158211	0.463914	1	0
387.136353	0.792373	city	1	1	0.596653	0.596653	0	1	0	0	CorrectCommission	0.473367	0.493369	1	0
387.928619	0.792158	city	3	1	0.596153	0.596153	0	1	0	0	CorrectCommission	0.476582	0.523656	1	0
388.720856	0.792268	city	9	1	0.546800	0.546800	0	1	0	0	CorrectCommission	0.794033	0.554110	1	0
389.513153	0.792368	city	6	1	0.506385	0.506385	0	1	0	0	CorrectCommission	1.053988	0.584571	1	0
390.305420	0.792160	mountain	3	1	0.498388	0.498388	0	0	1	0	CommissionError	1.105427	0.615539	1	0
391.097748	0.792479	city	1	1	0.794409	0.794409	0	1	0	0	CorrectCommission	0.798645	0.648201	1	0
391.890106	0.792264	city	4	1	0.596146	0.596146	0	1	0	0	CorrectCommission	0.476628	0.684309	0	0
392.682281	0.792048	city	8	1	0.596346	0.596346	0	1	0	0	CorrectCommission	0.475336	0.725942	0	0
393.474457	0.792320	city	9	1	0.612543	0.612543	0	1	0	0	CorrectCommission	0.371159	0.775123	0	0
394.266846	0.792427	city	6	1	0.597465	0.597465	0	1	0	0	CorrectCommission	0.468142	0.833439	0	0
395.059174	0.792265	city	5	1	0.596046	0.596046	0	1	0	0	CorrectCommission	0.477268	0.901707	0	0
395.851349	0.792094	city	6	1	0.546770	0.546770	0	1	0	0	CorrectCommission	0.794221	0.979714	0	0
396.643524	0.792218	city	5	1	0.547758	0.547758	0	1	0	0	CorrectCommission	0.787870	1.066120	0	0
397.435760	0.792266	city	6	1	0.556797	0.556797	0	1	0	0	CorrectCommission	0.729728	1.158600	0	0
398.228119	0.792481	mountain	7	0	0.000000	0.503371	1	0	0	0	CorrectOmission	1.073373	1.254096	0	0
399.020508	0.792266	city	6	1	0.447666	0.447666	0	1	0	0	CorrectCommission	1.431682	1.349188	0	0
399.812653	0.792048	city	8	1	0.449866	0.449866	0	1	0	0	CorrectCommission	1.417533	1.440543	0	0
400.604828	0.792263	city	5	1	1.041963	1.041963	0	1	0	0	CorrectCommission	2.390965	1.525276	0	0
401.397095	0.792322	city	3	1	1.190464	1.190464	0	1	0	0	CorrectCommission	3.346153	1.601154	0	0
402.189423	0.792285	city	6	1	1.005533	1.005533	0	1	0	0	CorrectCommission	2.156641	1.666667	0	0
402.981689	0.792257	city	9	1	0.905460	0.905460	0	1	0	0	CorrectCommission	1.512947	1.720909	0	0
403.773926	0.792248	city	7	1	0.860137	0.860137	0	1	0	0	CorrectCommission	1.221419	1.763219	0	0
404.566162	0.792212	city	9	1	0.843794	0.843794	0	1	0	0	CorrectCommission	1.116298	1.792834	0	0
405.358459	0.792372	city	10	1	0.906344	0.906344	0	1	0	0	CorrectCommission	1.518635	1.808637	0	0
406.150726	0.792157	city	5	1	0.942777	0.942777	0	1	0	0	CorrectCommission	1.752976	1.809056	0	0
406.942932	0.792266	city	10	1	0.893874	0.893874	0	1	0	0	CorrectCommission	1.438424	1.792230	0	0
407.735199	0.792265	city	3	1	1.042458	1.042458	0	1	0	0	CorrectCommission	2.394145	1.756414	0	0
408.527466	0.792266	city	9	1	1.141029	1.141029	0	1	0	0	CorrectCommission	3.028176	1.700449	0	0
409.319794	0.792370	city	2	1	1.091567	1.091567	0	1	0	0	CorrectCommission	2.710029	1.624339	0	0
410.112030	0.792161	city	1	1	1.190377	1.190377	0	1	0	0	CorrectCommission	3.345593	1.529626	0	0
410.904297	0.792369	city	2	0	0.000000	1.006283	0	0	0	1	OmissionError	2.161466	1.419485	0	0
411.696686	0.792374	city	3	1	0.744759	0.744759	0	1	0	0	CorrectCommission	0.479286	1.298581	0	0
412.488953	0.792156	city	2	1	0.611275	0.611275	0	1	0	0	CorrectCommission	0.379311	1.172586	0	0
413.281097	0.792155	mountain	7	0	0.000000	0.598047	1	0	0	0	CorrectOmission	0.464396	1.047488	0	0
414.073303	0.792266	city	2	1	0.658212	0.658212	0	1	0	0	CorrectCommission	0.077403	0.928936	0	0
414.865570	0.792268	city	4	1	0.744906	0.744906	0	1	0	0	CorrectCommission	0.480232	0.821626	0	0
415.657837	0.792265	mountain	10	1	0.705572	0.705572	0	0	1	0	CommissionError	0.227224	0.728865	0	0
416.450104	0.792261	city	8	1	0.695476	0.695476	0	1	0	0	CorrectCommission	0.162286	0.652422	1	0
417.242371	0.792267	city	4	1	0.744861	0.744861	0	1	0	0	CorrectCommission	0.479940	0.592573	1	0
418.034698	0.792372	city	6	1	0.844088	0.844088	0	1	0	0	CorrectCommission	1.118192	0.548319	1	0
418.826965	0.792156	city	8	1	0.794263	0.794263	0	1	0	0	CorrectCommission	0.797703	0.517689	1	0
419.619171	0.792274	city	2	1	0.695300	0.695300	0	1	0	0	CorrectCommission	0.161153	0.498155	1	0
420.411438	0.792256	city	6	1	0.659346	0.659346	0	1	0	0	CorrectCommission	0.070107	0.486917	1	0
421.203735	0.792335	city	3	1	0.700778	0.700778	0	1	0	0	CorrectCommission	0.196390	0.481150	1	0
421.996033	0.792255	city	10	1	0.695215	0.695215	0	1	0	0	CorrectCommission	0.160604	0.478217	1	0
422.788300	0.792271	city	2	1	0.808168	0.808168	0	1	0	0	CorrectCommission	0.887147	0.475836	1	0
423.580627	0.792415	city	4	1	0.744770	0.744770	0	1	0	0	CorrectCommission	0.479358	0.472191	1	0
424.372894	0.792126	city	9	1	0.794355	0.794355	0	1	0	0	CorrectCommission	0.798299	0.466072	1	1
425.165161	0.792405	city	6	1	0.794291	0.794291	0	1	0	0	CorrectCommission	0.797885	0.456887	1	1
425.957397	0.792046	city	1	1	0.794159	0.794159	0	1	0	0	CorrectCommission	0.797036	0.444698	1	1
426.749542	0.792268	city	6	1	0.761068	0.761068	0	1	0	0	CorrectCommission	0.584190	0.430166	1	1
427.541840	0.792311	city	1	1	0.657551	0.657551	0	1	0	0	CorrectCommission	0.081656	0.414404	1	1
428.334106	0.792215	city	9	1	0.695203	0.695203	0	1	0	0	CorrectCommission	0.160532	0.398819	1	1
429.126404	0.792374	city	5	1	0.596329	0.596329	0	1	0	0	CorrectCommission	0.475451	0.384858	1	1
429.918762	0.792373	city	6	1	0.645891	0.645891	0	1	0	0	CorrectCommission	0.156652	0.373790	1	1
430.710968	0.792051	mountain	2	0	0.000000	0.671712	1	0	0	0	CorrectOmission	0.009432	0.366532	1	1
431.503143	0.792261	city	8	1	0.696059	0.696059	0	1	0	0	CorrectCommission	0.166035	0.363522	1	1
432.295441	0.792372	mountain	9	0	0.000000	0.741199	1	0	0	0	CorrectOmission	0.456386	0.364664	1	1
433.087708	0.792157	city	4	1	0.745227	0.745227	0	1	0	0	CorrectCommission	0.482292	0.369392	1	1
433.879974	0.792334	city	8	1	0.646235	0.646235	0	1	0	0	CorrectCommission	0.154443	0.376799	1	1
434.672241	0.792196	city	3	1	0.715178	0.715178	0	1	0	0	CorrectCommission	0.289012	0.385784	1	1
435.464447	0.792263	city	7	1	0.597696	0.597696	0	1	0	0	CorrectCommission	0.466657	0.395243	1	1
436.256714	0.792272	city	9	1	0.598997	0.598997	0	1	0	0	CorrectCommission	0.458285	0.404249	1	1
437.048981	0.792257	city	8	1	0.560455	0.560455	0	1	0	0	CorrectCommission	0.706198	0.412195	1	1
437.841309	0.792374	city	6	1	0.546785	0.546785	0	1	0	0	CorrectCommission	0.794127	0.418866	1	1
438.633636	0.792265	city	5	1	0.547156	0.547156	0	1	0	0	CorrectCommission	0.791740	0.424408	1	1
439.425842	0.792158	city	8	1	0.645722	0.645722	0	1	0	0	CorrectCommission	0.157742	0.429276	1	1
440.218048	0.792262	mountain	2	0	0.000000	0.662434	1	0	0	0	CorrectOmission	0.050245	0.434105	1	1
441.010376	0.792374	city	5	1	0.646138	0.646138	0	1	0	0	CorrectCommission	0.155066	0.439565	1	1
441.802643	0.792158	city	6	1	0.645679	0.645679	0	1	0	0	CorrectCommission	0.158021	0.446233	1	1
442.594910	0.792372	city	3	1	0.610313	0.610313	0	1	0	0	CorrectCommission	0.385498	0.454547	1	1
443.387177	0.792180	city	7	1	0.811620	0.811620	0	1	0	0	CorrectCommission	0.909349	0.464766	1	1
444.179443	0.792350	mountain	7	0	0.000000	0.712769	1	0	0	0	CorrectOmission	0.273520	0.477012	1	1
444.971741	0.792263	city	1	1	0.546890	0.546890	0	1	0	0	CorrectCommission	0.793451	0.491360	1	1
445.763947	0.792159	city	10	1	0.547111	0.547111	0	1	0	0	CorrectCommission	0.792029	0.507811	1	1
446.556152	0.792261	city	4	1	0.596339	0.596339	0	1	0	0	CorrectCommission	0.475388	0.526343	1	1
447.348480	0.792376	city	9	1	0.649725	0.649725	0	1	0	0	CorrectCommission	0.131997	0.546905	1	1
448.140869	0.792372	city	3	1	0.645710	0.645710	0	1	0	0	CorrectCommission	0.157820	0.569377	1	1
448.933075	0.792048	city	5	1	0.547687	0.547687	0	1	0	0	CorrectCommission	0.788327	0.593494	1	1
449.725250	0.792315	city	7	1	0.610168	0.610168	0	1	0	0	CorrectCommission	0.386432	0.618815	1	1
450.517609	0.792432	city	1	1	0.547607	0.547607	0	1	0	0	CorrectCommission	0.788842	0.644739	1	1
451.309875	0.792049	city	5	1	0.547420	0.547420	0	1	0	0	CorrectCommission	0.790042	0.670505	0	1
452.102020	0.792267	city	2	1	0.596311	0.596311	0	1	0	0	CorrectCommission	0.475566	0.695239	0	1
452.894348	0.792368	city	9	1	0.457117	0.457117	0	1	0	0	CorrectCommission	1.370891	0.718008	0	1
453.686615	0.792182	city	10	1	0.596196	0.596196	0	1	0	0	CorrectCommission	0.476303	0.737866	0	1
454.478821	0.792255	city	6	1	0.547181	0.547181	0	1	0	0	CorrectCommission	0.791578	0.753955	0	1
455.271149	0.792360	city	5	1	0.516569	0.516569	0	1	0	0	CorrectCommission	0.988485	0.765482	0	1
456.063507	0.792371	city	7	1	0.518153	0.518153	0	1	0	0	CorrectCommission	0.978293	0.771797	0	1
456.855774	0.792157	city	6	1	0.596823	0.596823	0	1	0	0	CorrectCommission	0.472273	0.772447	0	1
457.647919	0.792157	city	3	1	0.546680	0.546680	0	1	0	0	CorrectCommission	0.794799	0.767219	0	1
458.440155	0.792282	city	8	1	0.596324	0.596324	0	1	0	0	CorrectCommission	0.475480	0.756171	0	1
459.232422	0.792247	mountain	6	1	0.500903	0.500903	0	0	1	0	CommissionError	1.089248	0.739704	0	1
460.024780	0.792481	city	9	1	0.414312	0.414312	0	1	0	0	CorrectCommission	1.646221	0.718541	0	1
460.817047	0.792045	city	3	1	0.514413	0.514413	0	1	0	0	CorrectCommission	1.002352	0.693701	0	1
461.609192	0.792264	city	1	1	0.606146	0.606146	0	1	0	0	CorrectCommission	0.412304	0.666456	0	1
462.401459	0.792269	city	5	1	0.702622	0.702622	0	1	0	0	CorrectCommission	0.208253	0.638141	1	1
463.193787	0.792370	city	1	1	0.794320	0.794320	0	1	0	0	CorrectCommission	0.798072	0.609969	1	1
463.986053	0.792164	city	6	1	0.646056	0.646056	0	1	0	0	CorrectCommission	0.155592	0.582882	1	1
464.778259	0.792255	mountain	5	0	0.000000	0.635185	1	0	0	0	CorrectOmission	0.225519	0.557493	1	1
465.570526	0.792270	city	5	1	0.646635	0.646635	0	1	0	0	CorrectCommission	0.151869	0.534014	1	1
466.362793	0.792280	city	7	1	0.565336	0.565336	0	1	0	0	CorrectCommission	0.674805	0.512353	1	1
467.155060	0.792246	city	2	1	0.556270	0.556270	0	1	0	0	CorrectCommission	0.733116	0.492289	1	1
467.947357	0.792342	city	1	1	0.613342	0.613342	0	1	0	0	CorrectCommission	0.366019	0.473685	1	1
468.739624	0.792187	city	8	1	0.511956	0.511956	0	1	0	0	CorrectCommission	1.018151	0.456698	1	1
469.531952	0.792482	city	10	1	0.499967	0.499967	0	1	0	0	CorrectCommission	1.095273	0.441875	1	1
470.324310	0.792265	city	1	1	0.648441	0.648441	0	1	0	0	CorrectCommission	0.140252	0.430179	1	1
471.116577	0.792266	city	10	1	0.649469	0.649469	0	1	0	0	CorrectCommission	0.133638	0.422909	1	1
471.908752	0.792044	mountain	9	0	0.000000	0.675155	1	0	0	0	CorrectOmission	0.031577	0.421418	1	1
472.700897	0.792269	city	3	1	0.699244	0.699244	0	1	0	0	CorrectCommission	0.186521	0.426845	1	1
473.493164	0.792264	city	9	1	0.695481	0.695481	0	1	0	0	CorrectCommission	0.162319	0.439818	1	1
474.285431	0.792265	city	1	1	0.645909	0.645909	0	1	0	0	CorrectCommission	0.156538	0.460245	1	1
475.077789	0.792480	city	6	1	0.646008	0.646008	0	1	0	0	CorrectCommission	0.155905	0.487170	1	1
475.870056	0.792051	mountain	9	1	0.695073	0.695073	0	0	1	0	CommissionError	0.159697	0.518818	1	1
476.662231	0.792261	mountain	8	0	0.000000	0.804022	1	0	0	0	CorrectOmission	0.860477	0.552744	1	1
477.454498	0.792307	city	9	1	0.848617	0.848617	0	1	0	0	CorrectCommission	1.147323	0.586096	1	1
478.246765	0.792220	city	8	1	0.704623	0.704623	0	1	0	0	CorrectCommission	0.221122	0.615997	1	1
479.039062	0.792374	city	6	1	0.564643	0.564643	0	1	0	0	CorrectCommission	0.679259	0.639915	1	1
479.831390	0.792266	city	7	1	0.460679	0.460679	0	1	0	0	CorrectCommission	1.347980	0.655922	0	1
480.623596	0.792156	city	3	1	0.464074	0.464074	0	1	0	0	CorrectCommission	1.326141	0.662906	0	1
481.415924	0.792482	city	10	1	0.497232	0.497232	0	1	0	0	CorrectCommission	1.112864	0.660645	0	1
482.208191	0.792051	city	3	1	0.546718	0.546718	0	1	0	0	CorrectCommission	0.794558	0.649727	1	1
483.000336	0.792260	city	4	1	0.608224	0.608224	0	1	0	0	CorrectCommission	0.398938	0.631356	1	1
483.792603	0.792270	city	6	1	0.604410	0.604410	0	1	0	0	CorrectCommission	0.423473	0.607069	1	1
484.584869	0.792261	city	10	1	0.646443	0.646443	0	1	0	0	CorrectCommission	0.153105	0.578465	1	1
485.377136	0.792266	city	8	1	0.744867	0.744867	0	1	0	0	CorrectCommission	0.479977	0.547006	1	1
486.169403	0.792266	city	2	1	0.744855	0.744855	0	1	0	0	CorrectCommission	0.479899	0.513868	1	1
486.961700	0.792334	city	6	1	0.744865	0.744865	0	1	0	0	CorrectCommission	0.479966	0.479966	1	1
