onset	duration	trial_type	image_type	Press	ReactionTime	ReactionTime_Interpolated	CorrectOmission	CorrectCommission	CommissionError	OmissionError	response_type	nonsmoothVarianceTimeCourse	VarianceTimeCourse	In_the_Zone	Reward_trial
8.433806	0.792264	mountain	9	1	0.602770	0.602770	0	0	1	0	CommissionError	0.971804	0.971804	0	0
9.226179	0.792482	city	5	1	0.546804	0.546804	0	1	0	0	CorrectCommission	1.364117	1.050769	0	0
10.018475	0.792108	mountain	8	1	0.402806	0.402806	0	0	1	0	CommissionError	2.373525	1.127285	0	0
10.810626	0.792195	city	9	1	0.850770	0.850770	0	1	0	0	CorrectCommission	0.766639	1.198855	0	0
11.602861	0.792275	city	6	1	0.603000	0.603000	0	1	0	0	CorrectCommission	0.970195	1.262995	0	0
12.395240	0.792482	city	4	1	0.553761	0.553761	0	1	0	0	CorrectCommission	1.315352	1.317166	0	0
13.187504	0.792046	city	8	1	0.447888	0.447888	0	1	0	0	CorrectCommission	2.057505	1.358927	0	0
13.979714	0.792375	city	4	1	0.611798	0.611798	0	1	0	0	CorrectCommission	0.908521	1.386075	0	0
14.772088	0.792373	city	8	1	0.546674	0.546674	0	1	0	0	CorrectCommission	1.365028	1.396923	0	0
15.564299	0.792048	city	10	1	0.497831	0.497831	0	1	0	0	CorrectCommission	1.707413	1.390546	0	0
16.356455	0.792264	city	7	1	0.398345	0.398345	0	1	0	0	CorrectCommission	2.404797	1.367046	0	0
17.148720	0.792266	city	3	1	0.398288	0.398288	0	1	0	0	CorrectCommission	2.405193	1.327731	0	0
17.941008	0.792311	city	5	1	0.457209	0.457209	0	1	0	0	CorrectCommission	1.992168	1.275164	0	0
18.733273	0.792219	mountain	3	1	0.497194	0.497194	0	0	1	0	CommissionError	1.711880	1.213000	0	0
19.525515	0.792265	city	1	1	0.657847	0.657847	0	1	0	0	CorrectCommission	0.585724	1.145664	0	0
20.317780	0.792265	mountain	4	0	0.000000	0.701444	1	0	0	0	CorrectOmission	0.280118	1.077866	0	0
21.110098	0.792370	city	1	1	0.695548	0.695548	0	1	0	0	CorrectCommission	0.321448	1.014112	0	0
21.902363	0.792160	city	7	1	0.707723	0.707723	0	1	0	0	CorrectCommission	0.236100	0.958187	0	0
22.694683	0.792478	city	6	1	0.655102	0.655102	0	1	0	0	CorrectCommission	0.604964	0.912817	0	0
23.486946	0.792050	mountain	5	0	0.000000	0.605311	1	0	0	0	CorrectOmission	0.953997	0.879462	0	0
24.279102	0.792261	mountain	6	0	0.000000	0.593641	1	0	0	0	CorrectOmission	1.035799	0.858342	0	0
25.071474	0.792483	city	8	1	0.655387	0.655387	0	1	0	0	CorrectCommission	0.602971	0.848521	0	0
25.863768	0.792104	mountain	7	0	0.000000	0.825841	1	0	0	0	CorrectOmission	0.591887	0.848160	0	0
26.655926	0.792211	city	4	1	0.893332	0.893332	0	1	0	0	CorrectCommission	1.064993	0.854776	0	0
27.448164	0.792265	city	6	1	0.646190	0.646190	0	1	0	0	CorrectCommission	0.667435	0.865504	0	0
28.240440	0.792287	city	9	1	0.551481	0.551481	0	1	0	0	CorrectCommission	1.331335	0.877411	0	0
29.032703	0.792239	mountain	5	0	0.000000	0.632285	1	0	0	0	CorrectOmission	0.764909	0.887647	0	0
29.824955	0.792267	city	7	1	0.699878	0.699878	0	1	0	0	CorrectCommission	0.291092	0.893685	0	0
30.617222	0.792264	city	1	1	0.565535	0.565535	0	1	0	0	CorrectCommission	1.232818	0.893457	0	0
31.409487	0.792269	city	4	1	0.546776	0.546776	0	1	0	0	CorrectCommission	1.364318	0.885483	0	0
32.201771	0.792298	city	10	1	0.547448	0.547448	0	1	0	0	CorrectCommission	1.359605	0.868997	0	0
32.994053	0.792263	city	3	1	0.596285	0.596285	0	1	0	0	CorrectCommission	1.017264	0.843983	0	0
33.786312	0.792257	city	6	1	0.596272	0.596272	0	1	0	0	CorrectCommission	1.017353	0.811168	0	0
34.578556	0.792235	city	8	1	0.550036	0.550036	0	1	0	0	CorrectCommission	1.341465	0.771927	0	0
35.370834	0.792318	city	7	1	0.695379	0.695379	0	1	0	0	CorrectCommission	0.322633	0.728106	0	0
36.163101	0.792213	city	1	1	0.646333	0.646333	0	1	0	0	CorrectCommission	0.666436	0.681860	1	0
36.955338	0.792263	city	4	1	0.794365	0.794365	0	1	0	0	CorrectCommission	0.371248	0.635352	1	0
37.747711	0.792483	city	6	1	0.708814	0.708814	0	1	0	0	CorrectCommission	0.228456	0.590588	1	0
38.540028	0.792154	city	4	1	0.695118	0.695118	0	1	0	0	CorrectCommission	0.324460	0.549214	1	0
39.332294	0.792376	city	8	1	0.645820	0.645820	0	1	0	0	CorrectCommission	0.670030	0.512451	1	0
40.124504	0.792047	city	4	1	0.695119	0.695119	0	1	0	0	CorrectCommission	0.324452	0.481079	1	0
40.916702	0.792346	city	2	1	0.695378	0.695378	0	1	0	0	CorrectCommission	0.322638	0.455530	1	0
41.709019	0.792290	city	5	1	0.695265	0.695265	0	1	0	0	CorrectCommission	0.323432	0.435990	1	0
42.501244	0.792158	city	3	1	0.663706	0.663706	0	1	0	0	CorrectCommission	0.544654	0.422562	1	0
43.293564	0.792481	mountain	5	1	0.645976	0.645976	0	0	1	0	CommissionError	0.668940	0.415377	1	0
44.085838	0.792067	city	1	1	0.705156	0.705156	0	1	0	0	CorrectCommission	0.254093	0.414730	1	0
44.877991	0.792244	mountain	3	0	0.000000	0.773731	1	0	0	0	CorrectOmission	0.226606	0.421127	1	0
45.670357	0.792484	city	3	1	0.794395	0.794395	0	1	0	0	CorrectCommission	0.371459	0.435224	1	0
46.462677	0.792155	city	8	1	0.709844	0.709844	0	1	0	0	CorrectCommission	0.221235	0.457746	1	0
47.254833	0.792157	city	5	1	0.759552	0.759552	0	1	0	0	CorrectCommission	0.127211	0.489371	1	0
48.047073	0.792327	city	8	1	0.752322	0.752322	0	1	0	0	CorrectCommission	0.076535	0.530543	1	0
48.839340	0.792202	mountain	3	0	0.000000	0.854793	1	0	0	0	CorrectOmission	0.794838	0.581295	1	0
49.631573	0.792266	city	10	1	0.893578	0.893578	0	1	0	0	CorrectCommission	1.066712	0.641032	1	0
50.423840	0.792264	city	2	1	0.695291	0.695291	0	1	0	0	CorrectCommission	0.323247	0.708480	0	0
51.216156	0.792372	city	1	1	0.616230	0.616230	0	1	0	0	CorrectCommission	0.877450	0.781610	0	0
52.008472	0.792264	city	10	1	0.744749	0.744749	0	1	0	0	CorrectCommission	0.023449	0.857642	0	0
52.800716	0.792225	city	5	1	0.662270	0.662270	0	1	0	0	CorrectCommission	0.554717	0.933281	0	0
53.592930	0.792201	city	6	1	0.794321	0.794321	0	1	0	0	CorrectCommission	0.370935	1.004943	0	0
54.385216	0.792369	mountain	2	0	0.000000	0.932452	1	0	0	0	CorrectOmission	1.339215	1.069203	0	0
55.177483	0.792160	mountain	9	0	0.000000	1.048996	1	0	0	0	CorrectOmission	2.156173	1.123178	0	0
55.969719	0.792319	mountain	8	0	0.000000	1.116285	1	0	0	0	CorrectOmission	2.627857	1.164954	0	0
56.761982	0.792205	mountain	4	0	0.000000	1.106650	1	0	0	0	CorrectOmission	2.560317	1.193810	0	0
57.554234	0.792296	city	6	1	0.992423	0.992423	0	1	0	0	CorrectCommission	1.759602	1.210248	0	0
58.346607	0.792452	city	1	1	0.745935	0.745935	0	1	0	0	CorrectCommission	0.031762	1.215793	0	0
59.138966	0.792264	city	8	1	0.614925	0.614925	0	1	0	0	CorrectCommission	0.886600	1.212597	0	0
59.931122	0.792050	mountain	3	1	0.596187	0.596187	0	0	1	0	CommissionError	1.017952	1.202879	0	0
60.723286	0.792279	city	6	1	0.850426	0.850426	0	1	0	0	CorrectCommission	0.764227	1.188527	0	0
61.515591	0.792325	city	3	1	0.695374	0.695374	0	1	0	0	CorrectCommission	0.322663	1.170778	0	0
62.307899	0.792297	city	5	1	0.645730	0.645730	0	1	0	0	CorrectCommission	0.670666	1.150090	0	0
63.100182	0.792264	city	9	1	0.409674	0.409674	0	1	0	0	CorrectCommission	2.325378	1.126236	0	0
63.892391	0.792159	mountain	6	1	0.349431	0.349431	0	0	1	0	CommissionError	2.747673	1.098564	0	0
64.684647	0.792345	mountain	10	1	0.695294	0.695294	0	0	1	0	CommissionError	0.323223	1.066394	0	0
65.476936	0.792234	city	10	1	0.901411	0.901411	0	1	0	0	CorrectCommission	1.121621	1.029412	0	0
66.269173	0.792235	city	4	1	0.859295	0.859295	0	1	0	0	CorrectCommission	0.826397	0.987830	0	0
67.061409	0.792240	city	1	1	0.893520	0.893520	0	1	0	0	CorrectCommission	1.066305	0.942571	0	0
67.853661	0.792266	city	3	1	0.893394	0.893394	0	1	0	0	CorrectCommission	1.065427	0.895245	0	1
68.645981	0.792372	mountain	2	0	0.000000	0.918352	1	0	0	0	CorrectOmission	1.240375	0.847958	0	1
69.438301	0.792266	city	2	1	0.893706	0.893706	0	1	0	0	CorrectCommission	1.067613	0.803048	0	1
70.230614	0.792373	city	7	1	0.744772	0.744772	0	1	0	0	CorrectCommission	0.023605	0.762723	0	1
71.022827	0.792049	city	6	1	0.695606	0.695606	0	1	0	0	CorrectCommission	0.321039	0.728736	0	1
71.815094	0.792480	city	4	1	0.696055	0.696055	0	1	0	0	CorrectCommission	0.317889	0.702050	1	1
72.607414	0.792156	city	6	1	0.744837	0.744837	0	1	0	0	CorrectCommission	0.024065	0.682722	1	1
73.399673	0.792374	city	3	1	0.794423	0.794423	0	1	0	0	CorrectCommission	0.371655	0.669902	1	1
74.191887	0.792050	city	8	1	0.645689	0.645689	0	1	0	0	CorrectCommission	0.670950	0.661976	1	1
74.984100	0.792370	city	7	1	0.596781	0.596781	0	1	0	0	CorrectCommission	1.013784	0.656881	1	1
75.776474	0.792374	city	5	1	0.596340	0.596340	0	1	0	0	CorrectCommission	1.016879	0.652456	1	1
76.568726	0.792131	city	2	1	0.546597	0.546597	0	1	0	0	CorrectCommission	1.365567	0.646765	1	1
77.360985	0.792398	city	5	1	0.645744	0.645744	0	1	0	0	CorrectCommission	0.670567	0.638360	1	1
78.153267	0.792157	city	7	1	0.607039	0.607039	0	1	0	0	CorrectCommission	0.941878	0.626452	1	1
78.945526	0.792373	city	6	1	0.794251	0.794251	0	1	0	0	CorrectCommission	0.370445	0.610900	1	1
79.737755	0.792080	city	5	1	0.744679	0.744679	0	1	0	0	CorrectCommission	0.022957	0.592136	1	1
80.529968	0.792341	city	1	1	0.706596	0.706596	0	1	0	0	CorrectCommission	0.243998	0.570977	1	1
81.322258	0.792239	city	9	1	0.942805	0.942805	0	1	0	0	CorrectCommission	1.411788	0.548416	1	1
82.114464	0.792184	city	8	1	0.660071	0.660071	0	1	0	0	CorrectCommission	0.570132	0.525482	1	1
82.906693	0.792267	city	4	1	0.695812	0.695812	0	1	0	0	CorrectCommission	0.319596	0.503096	1	1
83.698975	0.792302	city	9	1	0.744853	0.744853	0	1	0	0	CorrectCommission	0.024177	0.481957	1	1
84.491257	0.792251	city	5	1	0.695280	0.695280	0	1	0	0	CorrectCommission	0.323323	0.462501	1	1
85.283501	0.792239	city	8	1	0.646090	0.646090	0	1	0	0	CorrectCommission	0.668138	0.444909	1	1
86.075806	0.792370	city	10	1	0.652517	0.652517	0	1	0	0	CorrectCommission	0.623089	0.429153	1	1
86.868065	0.792156	city	9	1	0.704379	0.704379	0	1	0	0	CorrectCommission	0.259540	0.415074	1	1
87.660278	0.792267	city	4	1	0.794400	0.794400	0	1	0	0	CorrectCommission	0.371490	0.402464	1	1
88.452560	0.792298	city	8	1	0.695414	0.695414	0	1	0	0	CorrectCommission	0.322387	0.391088	1	1
89.244881	0.792338	city	5	1	0.699408	0.699408	0	1	0	0	CorrectCommission	0.294387	0.380751	1	1
90.037132	0.792162	city	9	1	0.648213	0.648213	0	1	0	0	CorrectCommission	0.653259	0.371316	1	1
90.829338	0.792262	city	10	1	0.695456	0.695456	0	1	0	0	CorrectCommission	0.322093	0.362691	1	1
91.621605	0.792265	city	7	1	0.695650	0.695650	0	1	0	0	CorrectCommission	0.320731	0.354828	1	1
92.413864	0.792262	city	5	1	0.705147	0.705147	0	1	0	0	CorrectCommission	0.254157	0.347669	1	1
93.206131	0.792264	city	9	1	0.695330	0.695330	0	1	0	0	CorrectCommission	0.322976	0.341145	1	1
93.998413	0.792307	city	7	1	0.695347	0.695347	0	1	0	0	CorrectCommission	0.322853	0.335129	1	1
94.790688	0.792244	city	6	1	0.744897	0.744897	0	1	0	0	CorrectCommission	0.024484	0.329470	1	1
95.582947	0.792262	city	8	1	0.655221	0.655221	0	1	0	0	CorrectCommission	0.604134	0.323991	1	1
96.375198	0.792250	city	3	1	0.695281	0.695281	0	1	0	0	CorrectCommission	0.323314	0.318514	1	1
97.167511	0.792371	mountain	3	0	0.000000	0.777654	1	0	0	0	CorrectOmission	0.254105	0.312930	1	1
97.959778	0.792157	city	9	1	0.800448	0.800448	0	1	0	0	CorrectCommission	0.413885	0.307219	1	1
98.751984	0.792263	city	4	1	0.661772	0.661772	0	1	0	0	CorrectCommission	0.558212	0.301444	1	1
99.544250	0.792264	city	6	1	0.695460	0.695460	0	1	0	0	CorrectCommission	0.322065	0.295771	1	1
100.336624	0.792482	city	5	1	0.756216	0.756216	0	1	0	0	CorrectCommission	0.103827	0.290465	1	1
101.128883	0.792048	city	3	1	0.744630	0.744630	0	1	0	0	CorrectCommission	0.022610	0.285846	1	1
101.921097	0.792373	city	5	1	0.711890	0.711890	0	1	0	0	CorrectCommission	0.206889	0.282251	1	1
102.713387	0.792208	mountain	10	1	0.803563	0.803563	0	0	1	0	CommissionError	0.435726	0.280007	1	1
103.505600	0.792217	city	4	1	0.798652	0.798652	0	1	0	0	CorrectCommission	0.401296	0.279425	1	1
104.297836	0.792263	city	2	1	0.756452	0.756452	0	1	0	0	CorrectCommission	0.105479	0.280800	1	1
105.090210	0.792481	city	4	1	0.762758	0.762758	0	1	0	0	CorrectCommission	0.149683	0.284400	1	1
105.882477	0.792049	city	5	1	0.695071	0.695071	0	1	0	0	CorrectCommission	0.324788	0.290455	1	1
106.674683	0.792370	city	7	1	0.695321	0.695321	0	1	0	0	CorrectCommission	0.323034	0.299141	1	1
107.466949	0.792157	city	6	1	0.695252	0.695252	0	1	0	0	CorrectCommission	0.323518	0.310526	1	1
108.259163	0.792263	city	10	1	0.661239	0.661239	0	1	0	0	CorrectCommission	0.561947	0.324555	1	1
109.051537	0.792483	city	3	1	0.713217	0.713217	0	1	0	0	CorrectCommission	0.197587	0.340974	1	1
109.843826	0.792103	mountain	5	0	0.000000	0.748350	1	0	0	0	CorrectOmission	0.048689	0.359291	1	1
110.636093	0.792427	city	7	1	0.760791	0.760791	0	1	0	0	CorrectCommission	0.135897	0.378786	1	1
111.428436	0.792265	city	6	1	0.744693	0.744693	0	1	0	0	CorrectCommission	0.023055	0.398533	1	1
112.220703	0.792264	city	7	1	0.695103	0.695103	0	1	0	0	CorrectCommission	0.324563	0.417518	1	1
113.012970	0.792266	city	4	1	0.600975	0.600975	0	1	0	0	CorrectCommission	0.984386	0.434752	1	1
113.805145	0.792093	mountain	3	1	0.560384	0.560384	0	0	1	0	CommissionError	1.268926	0.449412	1	1
114.597313	0.792247	mountain	10	0	0.000000	0.705717	1	0	0	0	CorrectOmission	0.250163	0.460974	1	1
115.389664	0.792454	city	9	1	0.847288	0.847288	0	1	0	0	CorrectCommission	0.742226	0.469299	1	1
116.181969	0.792154	city	7	1	0.795409	0.795409	0	1	0	0	CorrectCommission	0.378562	0.474556	1	1
116.974129	0.792158	mountain	6	0	0.000000	0.791860	1	0	0	0	CorrectOmission	0.353688	0.477196	1	1
117.766335	0.792267	city	9	1	0.802793	0.802793	0	1	0	0	CorrectCommission	0.430325	0.477820	1	1
118.558708	0.792479	city	10	1	0.794358	0.794358	0	1	0	0	CorrectCommission	0.371196	0.477037	1	1
119.350975	0.792046	city	2	1	0.695268	0.695268	0	1	0	0	CorrectCommission	0.323410	0.475372	1	1
120.143181	0.792374	city	7	1	0.695331	0.695331	0	1	0	0	CorrectCommission	0.322970	0.473183	1	1
120.935448	0.792159	city	4	1	0.650790	0.650790	0	1	0	0	CorrectCommission	0.635191	0.470682	1	1
121.727661	0.792263	city	8	1	0.645976	0.645976	0	1	0	0	CorrectCommission	0.668939	0.467997	1	1
122.519928	0.792265	mountain	3	0	0.000000	0.748433	1	0	0	0	CorrectOmission	0.049270	0.465264	1	1
123.312187	0.792265	mountain	10	0	0.000000	0.862724	1	0	0	0	CorrectOmission	0.850436	0.462747	1	1
124.104485	0.792318	city	9	1	0.893413	0.893413	0	1	0	0	CorrectCommission	1.065561	0.460855	1	1
124.896759	0.792233	city	4	1	0.745063	0.745063	0	1	0	0	CorrectCommission	0.025648	0.460203	1	1
125.688995	0.792245	city	9	1	0.660351	0.660351	0	1	0	0	CorrectCommission	0.568171	0.461548	1	1
126.481361	0.792481	mountain	2	0	0.000000	0.704128	1	0	0	0	CorrectOmission	0.261301	0.465623	1	1
127.273628	0.792053	city	5	1	0.745171	0.745171	0	1	0	0	CorrectCommission	0.026402	0.473007	1	0
128.065781	0.792259	city	9	1	0.652256	0.652256	0	1	0	0	CorrectCommission	0.624916	0.483934	1	0
128.858047	0.792266	city	7	1	0.695471	0.695471	0	1	0	0	CorrectCommission	0.321988	0.498137	1	0
129.650360	0.792370	city	5	1	0.701901	0.701901	0	1	0	0	CorrectCommission	0.276914	0.514788	1	0
130.442627	0.792159	city	10	1	0.843798	0.843798	0	1	0	0	CorrectCommission	0.717764	0.532481	1	0
131.234863	0.792324	city	5	1	0.813632	0.813632	0	1	0	0	CorrectCommission	0.506303	0.549337	1	0
132.027176	0.792289	city	10	1	0.744839	0.744839	0	1	0	0	CorrectCommission	0.024078	0.563249	1	0
132.819412	0.792182	city	6	1	0.646032	0.646032	0	1	0	0	CorrectCommission	0.668549	0.572121	1	0
133.611679	0.792372	city	4	1	0.597265	0.597265	0	1	0	0	CorrectCommission	1.010394	0.574159	1	0
134.403946	0.792157	city	10	1	0.512874	0.512874	0	1	0	0	CorrectCommission	1.601961	0.568187	1	0
135.196274	0.792482	city	5	1	0.597654	0.597654	0	1	0	0	CorrectCommission	1.007668	0.553845	1	0
135.988541	0.792049	city	1	1	0.645599	0.645599	0	1	0	0	CorrectCommission	0.671581	0.531699	1	0
136.780685	0.792263	city	5	1	0.645790	0.645790	0	1	0	0	CorrectCommission	0.670242	0.503186	1	0
137.573059	0.792481	city	9	1	0.745037	0.745037	0	1	0	0	CorrectCommission	0.025462	0.470450	1	0
138.365387	0.792157	city	7	1	0.704760	0.704760	0	1	0	0	CorrectCommission	0.256874	0.436093	1	0
139.157532	0.792155	city	1	1	0.744745	0.744745	0	1	0	0	CorrectCommission	0.023419	0.402835	1	0
139.949753	0.792268	city	9	1	0.801747	0.801747	0	1	0	0	CorrectCommission	0.422992	0.373252	1	0
140.742020	0.792264	city	10	1	0.711440	0.711440	0	1	0	0	CorrectCommission	0.210046	0.349475	1	0
141.534393	0.792480	city	6	1	0.794665	0.794665	0	1	0	0	CorrectCommission	0.373353	0.333040	1	0
142.326660	0.792071	city	3	1	0.744733	0.744733	0	1	0	0	CorrectCommission	0.023335	0.324772	1	0
143.118881	0.792349	city	4	1	0.745341	0.745341	0	1	0	0	CorrectCommission	0.027594	0.324763	1	0
143.911133	0.792159	city	9	1	0.695749	0.695749	0	1	0	0	CorrectCommission	0.320039	0.332418	1	0
144.703339	0.792263	city	1	1	0.744818	0.744818	0	1	0	0	CorrectCommission	0.023931	0.346565	1	0
145.495651	0.792371	city	10	1	0.758514	0.758514	0	1	0	0	CorrectCommission	0.119937	0.365588	1	0
146.287949	0.792230	city	5	1	0.656900	0.656900	0	1	0	0	CorrectCommission	0.592361	0.387627	1	0
147.080170	0.792192	city	10	1	0.645761	0.645761	0	1	0	0	CorrectCommission	0.670448	0.410753	1	0
147.872498	0.792484	city	5	1	0.645778	0.645778	0	1	0	0	CorrectCommission	0.670329	0.433162	1	0
148.664795	0.792100	city	4	1	0.702600	0.702600	0	1	0	0	CorrectCommission	0.272012	0.453309	1	0
149.456955	0.792212	city	9	1	0.657146	0.657146	0	1	0	0	CorrectCommission	0.590637	0.470060	1	0
150.249191	0.792265	city	10	1	0.596701	0.596701	0	1	0	0	CorrectCommission	1.014347	0.482687	1	0
151.041565	0.792481	city	7	1	0.695349	0.695349	0	1	0	0	CorrectCommission	0.322844	0.490918	1	0
151.833832	0.792049	city	10	1	0.695540	0.695540	0	1	0	0	CorrectCommission	0.321499	0.494941	1	0
152.626038	0.792372	mountain	5	0	0.000000	0.813207	1	0	0	0	CorrectOmission	0.503324	0.495350	1	0
153.418304	0.792158	city	3	1	0.860718	0.860718	0	1	0	0	CorrectCommission	0.836370	0.493145	1	0
154.210510	0.792267	city	4	1	0.650444	0.650444	0	1	0	0	CorrectCommission	0.637617	0.489639	1	0
155.002884	0.792479	city	9	1	0.695552	0.695552	0	1	0	0	CorrectCommission	0.321415	0.486516	1	0
155.795258	0.792263	city	4	1	0.695382	0.695382	0	1	0	0	CorrectCommission	0.322609	0.485720	1	0
156.587418	0.792054	city	6	1	0.660671	0.660671	0	1	0	0	CorrectCommission	0.565926	0.489425	1	0
157.379578	0.792257	city	5	1	0.744836	0.744836	0	1	0	0	CorrectCommission	0.024060	0.499933	1	0
158.171951	0.792484	city	2	1	0.794393	0.794393	0	1	0	0	CorrectCommission	0.371443	0.519574	1	0
158.964218	0.792052	city	8	1	0.845211	0.845211	0	1	0	0	CorrectCommission	0.727671	0.550505	1	0
159.756470	0.792477	city	4	1	0.893553	0.893553	0	1	0	0	CorrectCommission	1.066541	0.594519	1	0
160.548737	0.792050	city	5	1	0.744915	0.744915	0	1	0	0	CorrectCommission	0.024607	0.652825	1	0
161.340897	0.792261	city	3	1	0.762179	0.762179	0	1	0	0	CorrectCommission	0.145626	0.725824	0	0
162.133163	0.792266	city	4	1	0.751422	0.751422	0	1	0	0	CorrectCommission	0.070225	0.812883	0	0
162.925476	0.792372	city	8	1	0.695902	0.695902	0	1	0	0	CorrectCommission	0.318964	0.912257	0	0
163.717773	0.792218	city	6	1	0.744736	0.744736	0	1	0	0	CorrectCommission	0.023353	1.021073	0	0
164.509979	0.792204	city	5	1	0.510560	0.510560	0	1	0	0	CorrectCommission	1.618184	1.135495	0	0
165.302322	0.792483	city	3	1	0.993731	0.993731	0	1	0	0	CorrectCommission	1.768770	1.250912	0	0
166.094650	0.792156	city	10	1	1.046292	1.046292	0	1	0	0	CorrectCommission	2.137218	1.362363	0	0
166.886810	0.792158	city	9	1	1.041830	1.041830	0	1	0	0	CorrectCommission	2.105943	1.464808	0	0
167.679016	0.792262	city	3	1	0.992431	0.992431	0	1	0	0	CorrectCommission	1.759657	1.553467	0	0
168.471283	0.792268	city	6	1	1.093737	1.093737	0	1	0	0	CorrectCommission	2.469802	1.624122	0	0
169.263550	0.792265	city	7	0	0.000000	0.779649	0	0	0	1	OmissionError	0.268090	1.673317	0	0
170.055923	0.792479	city	8	1	0.448112	0.448112	0	1	0	0	CorrectCommission	2.055937	1.698666	0	0
170.848282	0.792264	city	2	1	0.497072	0.497072	0	1	0	0	CorrectCommission	1.712735	1.698926	0	0
171.640442	0.792049	city	9	1	0.348536	0.348536	0	1	0	0	CorrectCommission	2.753951	1.674286	0	0
172.432602	0.792265	city	2	1	0.302456	0.302456	0	1	0	0	CorrectCommission	3.076964	1.626429	0	0
173.224869	0.792263	city	6	1	0.348901	0.348901	0	1	0	0	CorrectCommission	2.751387	1.558552	0	0
174.017136	0.792274	city	9	1	1.041927	1.041927	0	1	0	0	CorrectCommission	2.106620	1.475182	0	0
174.809402	0.792259	city	5	1	0.893813	0.893813	0	1	0	0	CorrectCommission	1.068362	1.381804	0	0
175.601654	0.792260	city	4	1	0.843942	0.843942	0	1	0	0	CorrectCommission	0.718777	1.284323	0	0
176.393921	0.792265	city	10	1	0.794370	0.794370	0	1	0	0	CorrectCommission	0.371279	1.188445	0	0
177.186218	0.792327	city	5	1	0.744957	0.744957	0	1	0	0	CorrectCommission	0.024903	1.099096	0	0
177.978485	0.792211	city	4	1	0.794481	0.794481	0	1	0	0	CorrectCommission	0.372062	1.019992	0	0
178.770721	0.792260	city	7	1	0.646398	0.646398	0	1	0	0	CorrectCommission	0.665977	0.953370	0	0
179.562988	0.792260	city	1	1	0.645915	0.645915	0	1	0	0	CorrectCommission	0.669365	0.900010	0	0
180.355255	0.792271	city	6	1	0.646209	0.646209	0	1	0	0	CorrectCommission	0.667306	0.859420	0	0
181.147522	0.792260	city	10	1	0.465547	0.465547	0	1	0	0	CorrectCommission	1.933718	0.830163	0	0
181.939880	0.792484	city	5	1	0.546937	0.546937	0	1	0	0	CorrectCommission	1.363186	0.810157	0	0
182.732147	0.792048	city	2	1	0.646049	0.646049	0	1	0	0	CorrectCommission	0.668427	0.797054	0	0
183.524307	0.792266	city	7	1	0.700819	0.700819	0	1	0	0	CorrectCommission	0.284498	0.788421	0	0
184.316620	0.792370	city	8	1	0.745021	0.745021	0	1	0	0	CorrectCommission	0.025355	0.781877	0	0
185.108887	0.792163	city	5	1	0.794448	0.794448	0	1	0	0	CorrectCommission	0.371831	0.775191	0	0
185.901108	0.792262	city	4	1	0.893465	0.893465	0	1	0	0	CorrectCommission	1.065922	0.766311	0	0
186.693375	0.792263	city	5	1	0.855120	0.855120	0	1	0	0	CorrectCommission	0.797131	0.753516	0	1
187.485687	0.792372	city	7	1	0.895161	0.895161	0	1	0	0	CorrectCommission	1.077813	0.735493	0	1
188.277954	0.792155	city	1	1	0.942790	0.942790	0	1	0	0	CorrectCommission	1.411684	0.711471	0	1
189.070221	0.792373	city	4	1	0.943071	0.943071	0	1	0	0	CorrectCommission	1.413651	0.681304	1	1
189.862473	0.792158	city	6	1	0.846219	0.846219	0	1	0	0	CorrectCommission	0.734734	0.645514	1	1
190.654694	0.792266	city	5	1	0.802281	0.802281	0	1	0	0	CorrectCommission	0.426736	0.605256	1	1
191.446960	0.792260	mountain	6	0	0.000000	0.799183	1	0	0	0	CorrectOmission	0.405020	0.562132	1	1
192.239227	0.792269	city	10	1	0.794411	0.794411	0	1	0	0	CorrectCommission	0.371568	0.517994	1	1
193.031479	0.792262	city	6	1	0.745450	0.745450	0	1	0	0	CorrectCommission	0.028363	0.474755	1	1
193.823746	0.792263	city	10	1	0.749664	0.749664	0	1	0	0	CorrectCommission	0.057897	0.434245	1	1
194.616013	0.792268	city	7	1	0.796866	0.796866	0	1	0	0	CorrectCommission	0.388779	0.398091	1	1
195.408386	0.792481	city	9	1	0.794381	0.794381	0	1	0	0	CorrectCommission	0.371362	0.367707	1	1
196.200653	0.792049	city	3	1	0.794148	0.794148	0	1	0	0	CorrectCommission	0.369726	0.344340	1	1
196.992813	0.792262	city	9	1	0.844314	0.844314	0	1	0	0	CorrectCommission	0.721383	0.329153	1	1
197.785065	0.792266	city	3	1	0.794633	0.794633	0	1	0	0	CorrectCommission	0.373124	0.323275	1	1
198.577347	0.792276	city	5	1	0.744791	0.744791	0	1	0	0	CorrectCommission	0.023738	0.327785	1	1
199.369644	0.792337	city	7	1	0.745074	0.745074	0	1	0	0	CorrectCommission	0.025724	0.343635	1	1
200.161911	0.792184	city	10	1	0.744759	0.744759	0	1	0	0	CorrectCommission	0.023519	0.371493	1	1
200.954147	0.792281	city	3	1	0.744868	0.744868	0	1	0	0	CorrectCommission	0.024278	0.411539	1	1
201.746399	0.792247	mountain	9	0	0.000000	0.722987	1	0	0	0	CorrectOmission	0.129100	0.463273	1	1
202.538666	0.792263	city	10	1	0.699629	0.699629	0	1	0	0	CorrectCommission	0.292837	0.525342	1	1
203.330978	0.792374	city	8	1	0.695304	0.695304	0	1	0	0	CorrectCommission	0.323159	0.595468	1	1
204.123245	0.792159	city	1	1	0.794541	0.794541	0	1	0	0	CorrectCommission	0.372479	0.670496	1	1
204.915466	0.792299	city	4	1	0.844397	0.844397	0	1	0	0	CorrectCommission	0.721961	0.746532	0	1
205.707733	0.792226	city	1	1	0.992403	0.992403	0	1	0	0	CorrectCommission	1.759464	0.819207	0	1
206.500031	0.792375	city	6	1	0.942887	0.942887	0	1	0	0	CorrectCommission	1.412364	0.884000	0	1
207.292358	0.792263	city	4	1	0.760341	0.760341	0	1	0	0	CorrectCommission	0.132742	0.936670	0	1
208.084564	0.792160	mountain	10	1	0.844125	0.844125	0	0	1	0	CommissionError	0.720056	0.973659	0	1
208.876892	0.792479	city	3	1	1.041940	1.041940	0	1	0	0	CorrectCommission	2.106708	0.992409	0	1
209.669159	0.792060	city	2	1	1.042213	1.042213	0	1	0	0	CorrectCommission	2.108626	0.991653	0	1
210.461319	0.792255	city	5	1	1.041912	1.041912	0	1	0	0	CorrectCommission	2.106512	0.971647	0	1
211.253571	0.792266	city	9	0	0.000000	0.854422	0	0	0	1	OmissionError	0.792234	0.934126	0	1
212.045944	0.792479	city	7	1	0.645867	0.645867	0	1	0	0	CorrectCommission	0.669700	0.882153	0	1
212.838318	0.792264	mountain	7	0	0.000000	0.582373	1	0	0	0	CorrectOmission	1.114784	0.819767	0	1
213.630478	0.792052	mountain	9	0	0.000000	0.612220	1	0	0	0	CorrectOmission	0.905560	0.751555	0	1
214.422668	0.792321	mountain	10	0	0.000000	0.683691	1	0	0	0	CorrectOmission	0.404564	0.682193	1	1
215.215027	0.792421	city	2	1	0.745065	0.745065	0	1	0	0	CorrectCommission	0.025662	0.615952	1	1
216.007263	0.792048	city	5	1	0.744625	0.744625	0	1	0	0	CorrectCommission	0.022580	0.556327	1	1
216.799423	0.792265	mountain	3	0	0.000000	0.759384	1	0	0	0	CorrectOmission	0.126038	0.505739	1	1
217.591690	0.792265	mountain	10	0	0.000000	0.779295	1	0	0	0	CorrectOmission	0.265606	0.465463	1	1
218.383957	0.792264	city	2	1	0.794309	0.794309	0	1	0	0	CorrectCommission	0.370855	0.435677	1	1
219.176224	0.792262	city	9	1	0.794381	0.794381	0	1	0	0	CorrectCommission	0.371356	0.415646	1	1
219.968536	0.792376	city	7	1	0.744830	0.744830	0	1	0	0	CorrectCommission	0.024016	0.403986	1	1
220.760910	0.792372	city	10	1	0.611753	0.611753	0	1	0	0	CorrectCommission	0.908836	0.398966	1	1
221.553116	0.792051	city	2	1	0.645835	0.645835	0	1	0	0	CorrectCommission	0.669930	0.398761	1	1
222.345276	0.792260	city	4	1	0.695322	0.695322	0	1	0	0	CorrectCommission	0.323027	0.401735	1	1
223.137543	0.792267	mountain	6	0	0.000000	0.764153	1	0	0	0	CorrectOmission	0.159463	0.406563	1	1
223.929855	0.792371	city	8	1	0.798669	0.798669	0	1	0	0	CorrectCommission	0.401417	0.412335	1	1
224.722122	0.792162	city	5	1	0.745215	0.745215	0	1	0	0	CorrectCommission	0.026710	0.418573	1	1
225.514343	0.792263	city	1	1	0.844038	0.844038	0	1	0	0	CorrectCommission	0.719444	0.425231	1	1
226.306595	0.792263	city	3	1	0.893394	0.893394	0	1	0	0	CorrectCommission	1.065428	0.432582	1	1
227.098892	0.792303	city	1	1	0.794399	0.794399	0	1	0	0	CorrectCommission	0.371486	0.441186	1	1
227.891144	0.792225	city	10	1	0.749091	0.749091	0	1	0	0	CorrectCommission	0.053883	0.451823	1	1
228.683502	0.792482	city	6	1	0.745417	0.745417	0	1	0	0	CorrectCommission	0.028126	0.465317	1	1
229.475769	0.792051	mountain	9	1	0.844243	0.844243	0	0	1	0	CommissionError	0.720883	0.482453	1	1
230.267929	0.792263	city	8	1	0.695314	0.695314	0	1	0	0	CorrectCommission	0.323086	0.503828	1	1
231.060242	0.792372	city	3	1	0.893611	0.893611	0	1	0	0	CorrectCommission	1.066950	0.529789	1	1
231.852509	0.792154	city	8	1	0.744758	0.744758	0	1	0	0	CorrectCommission	0.023507	0.560298	1	1
232.644714	0.792268	city	6	1	0.695334	0.695334	0	1	0	0	CorrectCommission	0.322943	0.594930	1	1
233.437042	0.792371	city	10	1	0.695358	0.695358	0	1	0	0	CorrectCommission	0.322774	0.632780	1	1
234.229309	0.792165	city	4	1	0.843776	0.843776	0	1	0	0	CorrectCommission	0.717613	0.672519	1	1
235.021530	0.792287	mountain	3	0	0.000000	0.868564	1	0	0	0	CorrectOmission	0.891370	0.712446	0	1
235.813797	0.792233	city	10	1	0.844029	0.844029	0	1	0	0	CorrectCommission	0.719382	0.750623	0	1
236.606049	0.792265	city	9	1	0.844478	0.844478	0	1	0	0	CorrectCommission	0.722533	0.785019	0	1
237.398422	0.792482	city	4	1	0.893611	0.893611	0	1	0	0	CorrectCommission	1.066947	0.813696	0	1
238.190796	0.792265	city	9	1	0.958565	0.958565	0	1	0	0	CorrectCommission	1.522263	0.834929	0	1
238.983002	0.792156	city	7	1	0.943042	0.943042	0	1	0	0	CorrectCommission	1.413451	0.847377	0	1
239.775269	0.792372	city	8	1	0.794558	0.794558	0	1	0	0	CorrectCommission	0.372597	0.850192	0	1
240.567535	0.792156	city	5	1	0.849585	0.849585	0	1	0	0	CorrectCommission	0.758329	0.843085	0	1
241.359680	0.792161	city	3	1	0.843826	0.843826	0	1	0	0	CorrectCommission	0.717958	0.826303	0	1
242.151901	0.792259	city	5	1	0.844249	0.844249	0	1	0	0	CorrectCommission	0.720925	0.800670	0	1
242.944153	0.792267	city	6	1	1.091585	1.091585	0	1	0	0	CorrectCommission	2.454717	0.767516	0	1
243.736420	0.792264	city	9	1	0.798998	0.798998	0	1	0	0	CorrectCommission	0.403725	0.728538	0	1
244.528748	0.792372	city	8	1	0.843898	0.843898	0	1	0	0	CorrectCommission	0.718468	0.685802	1	1
245.321014	0.792159	city	5	1	0.794280	0.794280	0	1	0	0	CorrectCommission	0.370654	0.641457	1	1
246.113220	0.792261	city	3	1	0.695376	0.695376	0	1	0	0	CorrectCommission	0.322651	0.597607	1	0
246.905487	0.792267	city	4	1	0.703556	0.703556	0	1	0	0	CorrectCommission	0.265314	0.556098	1	0
247.697754	0.792273	city	6	1	0.794733	0.794733	0	1	0	0	CorrectCommission	0.373823	0.518457	1	0
248.490067	0.792365	city	7	1	0.794654	0.794654	0	1	0	0	CorrectCommission	0.373272	0.485792	1	0
249.282333	0.792154	city	8	1	0.794209	0.794209	0	1	0	0	CorrectCommission	0.370152	0.458846	1	0
250.074585	0.792347	city	1	1	0.795054	0.795054	0	1	0	0	CorrectCommission	0.376078	0.438038	1	0
250.866898	0.792293	city	4	1	0.794293	0.794293	0	1	0	0	CorrectCommission	0.370741	0.423579	1	0
251.659119	0.792156	city	2	1	0.794352	0.794352	0	1	0	0	CorrectCommission	0.371154	0.415560	1	0
252.451385	0.792374	city	7	1	0.846389	0.846389	0	1	0	0	CorrectCommission	0.735927	0.414002	1	0
253.243713	0.792264	city	5	1	0.794272	0.794272	0	1	0	0	CorrectCommission	0.370598	0.418835	1	0
254.035919	0.792161	city	9	1	0.695466	0.695466	0	1	0	0	CorrectCommission	0.322020	0.429864	1	0
254.828247	0.792479	city	2	1	0.695315	0.695315	0	1	0	0	CorrectCommission	0.323077	0.446625	1	0
255.620499	0.792046	city	8	1	0.755713	0.755713	0	1	0	0	CorrectCommission	0.100299	0.468275	1	0
256.412659	0.792267	city	7	1	0.745170	0.745170	0	1	0	0	CorrectCommission	0.026400	0.493528	1	0
257.204926	0.792265	city	6	1	0.705234	0.705234	0	1	0	0	CorrectCommission	0.253545	0.520680	1	0
257.997192	0.792284	city	3	1	0.645729	0.645729	0	1	0	0	CorrectCommission	0.670672	0.547726	1	0
258.789459	0.792242	city	4	1	0.794350	0.794350	0	1	0	0	CorrectCommission	0.371141	0.572616	1	0
259.581726	0.792272	city	9	1	0.844042	0.844042	0	1	0	0	CorrectCommission	0.719476	0.593594	1	0
260.374084	0.792478	city	10	1	0.992448	0.992448	0	1	0	0	CorrectCommission	1.759777	0.609458	1	0
261.166351	0.792050	city	4	1	0.992305	0.992305	0	1	0	0	CorrectCommission	1.758777	0.619902	1	0
261.958527	0.792263	city	3	1	0.744990	0.744990	0	1	0	0	CorrectCommission	0.025138	0.625643	1	0
262.750824	0.792369	city	6	1	0.645796	0.645796	0	1	0	0	CorrectCommission	0.670202	0.628402	1	0
263.543152	0.792265	city	9	1	0.645688	0.645688	0	1	0	0	CorrectCommission	0.670954	0.630612	1	0
264.335358	0.792160	city	1	1	0.655704	0.655704	0	1	0	0	CorrectCommission	0.600745	0.635112	1	0
265.127563	0.792261	city	9	1	0.749404	0.749404	0	1	0	0	CorrectCommission	0.056078	0.644700	1	0
265.919861	0.792301	city	3	1	0.702073	0.702073	0	1	0	0	CorrectCommission	0.275708	0.661724	1	0
266.712128	0.792228	city	5	1	0.796659	0.796659	0	1	0	0	CorrectCommission	0.387331	0.687708	1	0
267.504425	0.792375	city	10	1	0.794379	0.794379	0	1	0	0	CorrectCommission	0.371347	0.723148	0	0
268.296783	0.792373	city	2	1	0.746088	0.746088	0	1	0	0	CorrectCommission	0.032831	0.767471	0	0
269.089050	0.792112	city	3	1	0.844125	0.844125	0	1	0	0	CorrectCommission	0.720057	0.819140	0	0
269.881195	0.792200	city	2	1	0.911126	0.911126	0	1	0	0	CorrectCommission	1.189727	0.875861	0	0
270.673431	0.792266	city	7	1	0.945290	0.945290	0	1	0	0	CorrectCommission	1.429211	0.934895	0	0
271.465790	0.792479	city	10	1	0.942956	0.942956	0	1	0	0	CorrectCommission	1.412851	0.993352	0	0
272.258087	0.792109	city	2	1	0.893174	0.893174	0	1	0	0	CorrectCommission	1.063885	1.048425	0	0
273.050293	0.792312	city	7	1	0.547224	0.547224	0	1	0	0	CorrectCommission	1.361173	1.097540	0	0
273.842529	0.792155	city	1	1	0.506123	0.506123	0	1	0	0	CorrectCommission	1.649285	1.138429	0	0
274.634766	0.792320	city	3	1	0.597575	0.597575	0	1	0	0	CorrectCommission	1.008221	1.169127	0	0
275.427094	0.792318	city	9	1	0.695316	0.695316	0	1	0	0	CorrectCommission	0.323070	1.188020	0	0
276.219452	0.792376	city	5	1	0.646200	0.646200	0	1	0	0	CorrectCommission	0.667367	1.193910	0	0
277.011658	0.792045	city	10	1	0.497157	0.497157	0	1	0	0	CorrectCommission	1.712137	1.186099	0	0
277.803925	0.792481	city	2	1	1.059311	1.059311	0	1	0	0	CorrectCommission	2.228478	1.164551	0	0
278.596191	0.792053	city	1	1	1.091366	1.091366	0	1	0	0	CorrectCommission	2.453180	1.130080	0	0
279.388367	0.792290	city	8	1	0.993099	0.993099	0	1	0	0	CorrectCommission	1.764340	1.084451	0	0
280.180603	0.792237	city	4	1	0.858357	0.858357	0	1	0	0	CorrectCommission	0.819818	1.030281	0	0
280.972870	0.792263	city	2	1	0.843877	0.843877	0	1	0	0	CorrectCommission	0.718319	0.970859	0	0
281.765259	0.792509	city	5	1	0.645860	0.645860	0	1	0	0	CorrectCommission	0.669749	0.909763	0	0
282.557617	0.792238	mountain	9	0	0.000000	0.695333	1	0	0	0	CorrectOmission	0.322952	0.850469	0	0
283.349884	0.792265	city	5	1	0.794278	0.794278	0	1	0	0	CorrectCommission	0.370639	0.795926	0	0
284.142029	0.792047	city	8	1	0.744679	0.744679	0	1	0	0	CorrectCommission	0.022953	0.748245	0	0
284.934204	0.792276	city	3	1	0.654714	0.654714	0	1	0	0	CorrectCommission	0.607687	0.708538	0	0
285.726471	0.792285	city	10	1	0.665666	0.665666	0	1	0	0	CorrectCommission	0.530915	0.676929	1	0
286.518799	0.792342	city	5	1	0.645890	0.645890	0	1	0	0	CorrectCommission	0.669543	0.652740	1	0
287.311035	0.792157	city	7	1	0.596297	0.596297	0	1	0	0	CorrectCommission	1.017180	0.634754	1	0
288.103241	0.792264	mountain	7	1	0.654807	0.654807	0	0	1	0	CommissionError	0.607032	0.621540	1	0
288.895538	0.792303	city	9	1	0.943241	0.943241	0	1	0	0	CorrectCommission	1.414848	0.611742	1	0
289.687805	0.792228	city	5	1	0.704249	0.704249	0	1	0	0	CorrectCommission	0.260451	0.604236	1	0
290.480042	0.792264	city	10	1	0.702386	0.702386	0	1	0	0	CorrectCommission	0.273510	0.598293	1	0
291.272339	0.792334	city	3	1	0.664119	0.664119	0	1	0	0	CorrectCommission	0.541758	0.593511	1	0
292.064636	0.792235	city	8	1	0.663786	0.663786	0	1	0	0	CorrectCommission	0.544095	0.589786	1	0
292.856903	0.792334	city	1	1	0.703591	0.703591	0	1	0	0	CorrectCommission	0.265064	0.587235	1	0
293.649200	0.792264	city	7	1	0.645889	0.645889	0	1	0	0	CorrectCommission	0.669546	0.586097	1	0
294.441406	0.792157	city	6	1	0.614437	0.614437	0	1	0	0	CorrectCommission	0.890021	0.586651	1	0
295.233643	0.792267	city	5	1	0.710715	0.710715	0	1	0	0	CorrectCommission	0.215130	0.589226	1	0
296.025909	0.792261	city	4	1	0.844038	0.844038	0	1	0	0	CorrectCommission	0.719444	0.594212	1	0
296.818207	0.792375	city	6	1	0.850702	0.850702	0	1	0	0	CorrectCommission	0.766164	0.602024	1	0
297.610504	0.792198	city	10	1	0.843761	0.843761	0	1	0	0	CorrectCommission	0.717505	0.613109	1	0
298.402710	0.792223	city	9	1	0.810422	0.810422	0	1	0	0	CorrectCommission	0.483805	0.627873	1	0
299.194946	0.792267	city	8	1	0.843936	0.843936	0	1	0	0	CorrectCommission	0.718733	0.646564	1	0
299.987213	0.792262	city	4	1	0.794455	0.794455	0	1	0	0	CorrectCommission	0.371878	0.669155	1	0
300.779510	0.792293	city	6	1	0.801178	0.801178	0	1	0	0	CorrectCommission	0.419003	0.695247	1	0
301.571808	0.792344	city	10	1	0.794339	0.794339	0	1	0	0	CorrectCommission	0.371062	0.723986	0	0
302.364166	0.792374	city	3	1	0.794326	0.794326	0	1	0	0	CorrectCommission	0.370974	0.754061	0	0
303.156433	0.792156	city	1	1	0.893336	0.893336	0	1	0	0	CorrectCommission	1.065017	0.783772	0	0
303.948608	0.792154	city	6	1	0.942831	0.942831	0	1	0	0	CorrectCommission	1.411972	0.811200	0	0
304.740814	0.792265	city	10	1	0.843932	0.843932	0	1	0	0	CorrectCommission	0.718705	0.834427	0	0
305.533112	0.792330	city	7	1	0.893428	0.893428	0	1	0	0	CorrectCommission	1.065662	0.851804	0	1
306.325470	0.792417	city	9	1	0.893344	0.893344	0	1	0	0	CorrectCommission	1.065073	0.862090	0	1
307.117706	0.792051	city	7	1	0.893135	0.893135	0	1	0	0	CorrectCommission	1.063611	0.864686	0	1
307.909882	0.792315	city	6	1	0.943357	0.943357	0	1	0	0	CorrectCommission	1.415662	0.859679	0	1
308.702271	0.792430	city	3	1	0.896957	0.896957	0	1	0	0	CorrectCommission	1.090405	0.847822	0	1
309.494507	0.792048	city	9	1	0.843635	0.843635	0	1	0	0	CorrectCommission	0.716625	0.830447	0	1
310.286713	0.792372	city	4	1	0.794524	0.794524	0	1	0	0	CorrectCommission	0.372360	0.809314	0	1
311.078979	0.792155	city	1	1	0.843740	0.843740	0	1	0	0	CorrectCommission	0.717362	0.786387	0	1
311.871185	0.792266	mountain	7	0	0.000000	0.843739	1	0	0	0	CorrectOmission	0.717351	0.763655	0	1
312.663452	0.792263	city	10	1	0.843856	0.843856	0	1	0	0	CorrectCommission	0.718169	0.742942	0	1
313.455719	0.792264	city	4	1	0.893427	0.893427	0	1	0	0	CorrectCommission	1.065656	0.725759	0	1
314.248047	0.792374	city	2	1	0.805989	0.805989	0	1	0	0	CorrectCommission	0.452727	0.713180	0	1
315.040314	0.792159	city	1	1	0.712148	0.712148	0	1	0	0	CorrectCommission	0.205080	0.705808	0	1
315.832520	0.792263	city	3	1	0.646275	0.646275	0	1	0	0	CorrectCommission	0.666841	0.703699	0	1
316.624878	0.792481	city	5	1	0.645793	0.645793	0	1	0	0	CorrectCommission	0.670224	0.706358	0	1
317.417145	0.792048	city	7	1	0.596113	0.596113	0	1	0	0	CorrectCommission	1.018469	0.712806	0	1
318.209351	0.792373	city	1	1	0.744980	0.744980	0	1	0	0	CorrectCommission	0.025069	0.721633	0	1
319.001678	0.792264	city	5	1	0.653469	0.653469	0	1	0	0	CorrectCommission	0.616413	0.731147	0	1
319.794006	0.792372	city	4	1	0.596218	0.596218	0	1	0	0	CorrectCommission	1.017733	0.739480	0	1
320.586304	0.792266	mountain	9	1	0.563431	0.563431	0	0	1	0	CommissionError	1.247568	0.744785	0	1
321.378479	0.792053	city	8	1	0.647222	0.647222	0	1	0	0	CorrectCommission	0.660202	0.745417	0	1
322.170654	0.792275	city	2	1	0.613763	0.613763	0	1	0	0	CorrectCommission	0.894749	0.740128	0	1
322.962891	0.792250	city	6	1	0.598919	0.598919	0	1	0	0	CorrectCommission	0.998804	0.728147	0	1
323.755157	0.792265	city	8	1	0.596286	0.596286	0	1	0	0	CorrectCommission	1.017254	0.709276	0	1
324.547546	0.792480	city	10	1	0.646273	0.646273	0	1	0	0	CorrectCommission	0.666853	0.683927	1	1
325.339783	0.792046	mountain	2	0	0.000000	0.637853	1	0	0	0	CorrectOmission	0.725878	0.653073	1	1
326.131958	0.792265	city	6	1	0.695308	0.695308	0	1	0	0	CorrectCommission	0.323131	0.618150	1	1
326.924286	0.792375	city	7	1	0.942918	0.942918	0	1	0	0	CorrectCommission	1.412584	0.580923	1	1
327.716522	0.792155	city	4	1	0.755741	0.755741	0	1	0	0	CorrectCommission	0.100502	0.543284	1	1
328.508789	0.792374	city	9	1	0.794334	0.794334	0	1	0	0	CorrectCommission	0.371031	0.507116	1	1
329.301086	0.792185	city	5	1	0.744722	0.744722	0	1	0	0	CorrectCommission	0.023259	0.474046	1	1
330.093323	0.792274	city	10	1	0.645776	0.645776	0	1	0	0	CorrectCommission	0.670338	0.445327	1	1
330.885620	0.792335	city	9	1	0.704668	0.704668	0	1	0	0	CorrectCommission	0.257518	0.421670	1	1
331.677856	0.792160	city	2	1	0.744892	0.744892	0	1	0	0	CorrectCommission	0.024448	0.403245	1	1
332.470062	0.792264	city	6	1	0.803143	0.803143	0	1	0	0	CorrectCommission	0.432782	0.389640	1	1
333.262390	0.792372	city	8	1	0.794384	0.794384	0	1	0	0	CorrectCommission	0.371381	0.379916	1	1
334.054657	0.792156	city	10	1	0.752408	0.752408	0	1	0	0	CorrectCommission	0.077135	0.372777	1	1
334.846893	0.792295	city	1	1	0.794482	0.794482	0	1	0	0	CorrectCommission	0.372066	0.366712	1	1
335.639160	0.792278	city	6	1	0.808198	0.808198	0	1	0	0	CorrectCommission	0.468217	0.360216	1	1
336.431519	0.792437	city	9	1	0.805517	0.805517	0	1	0	0	CorrectCommission	0.449422	0.351986	1	1
337.223816	0.792156	city	10	1	0.860949	0.860949	0	1	0	0	CorrectCommission	0.837988	0.341104	1	1
338.015991	0.792167	city	5	1	0.853033	0.853033	0	1	0	0	CorrectCommission	0.782502	0.327143	1	1
338.808197	0.792254	city	3	1	0.745457	0.745457	0	1	0	0	CorrectCommission	0.028412	0.310249	1	1
339.600464	0.792270	mountain	1	0	0.000000	0.705615	1	0	0	0	CorrectOmission	0.250877	0.291117	1	1
340.392761	0.792367	city	7	1	0.700146	0.700146	0	1	0	0	CorrectCommission	0.289217	0.270839	1	1
341.185089	0.792266	city	9	1	0.695689	0.695689	0	1	0	0	CorrectCommission	0.320458	0.250793	1	1
341.977356	0.792263	city	8	1	0.744651	0.744651	0	1	0	0	CorrectCommission	0.022758	0.232479	1	1
342.769562	0.792168	mountain	3	0	0.000000	0.752085	1	0	0	0	CorrectOmission	0.074871	0.217349	1	1
343.561768	0.792253	city	8	1	0.744798	0.744798	0	1	0	0	CorrectCommission	0.023791	0.206687	1	1
344.354034	0.792266	city	5	1	0.749597	0.749597	0	1	0	0	CorrectCommission	0.057430	0.201470	1	1
345.146301	0.792263	city	4	1	0.762726	0.762726	0	1	0	0	CorrectCommission	0.149459	0.202347	1	1
345.938568	0.792287	city	6	1	0.745064	0.745064	0	1	0	0	CorrectCommission	0.025655	0.209627	1	1
346.730865	0.792257	city	2	1	0.695305	0.695305	0	1	0	0	CorrectCommission	0.323150	0.223320	1	1
347.523132	0.792280	city	5	1	0.744813	0.744813	0	1	0	0	CorrectCommission	0.023895	0.243165	1	1
348.315430	0.792345	city	4	1	0.754253	0.754253	0	1	0	0	CorrectCommission	0.090069	0.268709	1	1
349.107697	0.792164	city	6	1	0.646349	0.646349	0	1	0	0	CorrectCommission	0.666322	0.299418	1	1
349.899994	0.792476	city	3	1	0.695360	0.695360	0	1	0	0	CorrectCommission	0.322761	0.334730	1	1
350.692383	0.792263	city	2	1	0.744661	0.744661	0	1	0	0	CorrectCommission	0.022827	0.374151	1	1
351.484589	0.792157	city	4	1	0.755650	0.755650	0	1	0	0	CorrectCommission	0.099864	0.417319	1	1
352.276733	0.792164	city	5	1	0.704514	0.704514	0	1	0	0	CorrectCommission	0.258595	0.464030	1	1
353.068970	0.792257	city	8	1	0.657273	0.657273	0	1	0	0	CorrectCommission	0.589747	0.514280	1	1
353.861206	0.792265	mountain	4	0	0.000000	0.841755	1	0	0	0	CorrectOmission	0.703447	0.568180	1	1
354.653473	0.792266	city	7	1	0.992479	0.992479	0	1	0	0	CorrectCommission	1.759996	0.625869	1	1
355.445862	0.792480	city	4	1	0.843961	0.843961	0	1	0	0	CorrectCommission	0.718909	0.687304	1	1
356.238159	0.792105	city	10	1	0.751441	0.751441	0	1	0	0	CorrectCommission	0.070357	0.752107	0	1
357.030304	0.792208	city	1	1	0.747503	0.747503	0	1	0	0	CorrectCommission	0.042748	0.819269	0	1
357.822571	0.792321	city	5	1	0.710207	0.710207	0	1	0	0	CorrectCommission	0.218686	0.886985	0	1
358.614838	0.792212	city	10	1	0.910116	0.910116	0	1	0	0	CorrectCommission	1.182645	0.952618	0	1
359.407104	0.792313	city	3	1	0.893362	0.893362	0	1	0	0	CorrectCommission	1.065204	1.012809	0	1
360.199371	0.792213	city	1	1	0.806453	0.806453	0	1	0	0	CorrectCommission	0.455979	1.063813	0	1
360.991638	0.792313	city	5	1	1.008787	1.008787	0	1	0	0	CorrectCommission	1.874316	1.101908	0	1
361.783997	0.792433	city	2	1	1.091615	1.091615	0	1	0	0	CorrectCommission	2.454925	1.123859	0	1
362.576263	0.792081	city	10	1	1.140739	1.140739	0	1	0	0	CorrectCommission	2.799275	1.127437	0	1
363.368469	0.792338	city	8	1	0.645773	0.645773	0	1	0	0	CorrectCommission	0.670364	1.111744	0	1
364.160828	0.792375	city	6	1	0.547337	0.547337	0	1	0	0	CorrectCommission	1.360381	1.077422	0	1
364.953033	0.792048	mountain	5	1	0.496942	0.496942	0	0	1	0	CommissionError	1.713642	1.026512	0	0
365.745209	0.792311	city	4	1	0.647048	0.647048	0	1	0	0	CorrectCommission	0.661421	0.962278	0	0
366.537506	0.792272	city	6	1	0.695392	0.695392	0	1	0	0	CorrectCommission	0.322538	0.888873	0	0
367.329742	0.792209	city	1	1	0.695316	0.695316	0	1	0	0	CorrectCommission	0.323073	0.810891	0	0
368.122040	0.792373	city	8	1	0.994786	0.994786	0	1	0	0	CorrectCommission	1.776166	0.732967	0	0
368.914307	0.792159	city	9	1	0.794333	0.794333	0	1	0	0	CorrectCommission	0.371025	0.659416	1	0
369.706512	0.792264	city	7	1	0.794787	0.794787	0	1	0	0	CorrectCommission	0.374203	0.594002	1	0
370.498779	0.792283	city	1	1	0.745205	0.745205	0	1	0	0	CorrectCommission	0.026642	0.539710	1	0
371.291138	0.792436	city	10	1	0.745599	0.745599	0	1	0	0	CorrectCommission	0.029402	0.498706	1	0
372.083435	0.792117	city	7	1	0.744657	0.744657	0	1	0	0	CorrectCommission	0.022799	0.472360	1	0
372.875580	0.792221	city	6	1	0.744848	0.744848	0	1	0	0	CorrectCommission	0.024138	0.461353	1	0
373.667877	0.792350	city	3	1	0.695547	0.695547	0	1	0	0	CorrectCommission	0.321453	0.465847	1	0
374.460205	0.792289	mountain	8	0	0.000000	0.807013	1	0	0	0	CorrectOmission	0.459910	0.485653	1	0
375.252411	0.792158	city	1	1	0.899809	0.899809	0	1	0	0	CorrectCommission	1.110395	0.520384	1	0
376.044647	0.792299	city	9	1	0.794497	0.794497	0	1	0	0	CorrectCommission	0.372171	0.569510	1	0
376.836914	0.792239	city	1	1	0.695306	0.695306	0	1	0	0	CorrectCommission	0.323140	0.632459	1	0
377.629181	0.792289	city	6	1	0.794423	0.794423	0	1	0	0	CorrectCommission	0.371656	0.708457	0	0
378.421448	0.792229	city	3	1	0.762845	0.762845	0	1	0	0	CorrectCommission	0.150297	0.796374	0	0
379.213684	0.792269	city	10	1	0.847684	0.847684	0	1	0	0	CorrectCommission	0.745005	0.894566	0	0
380.005951	0.792261	city	1	1	0.896056	0.896056	0	1	0	0	CorrectCommission	1.084083	1.000691	0	0
380.798218	0.792265	city	5	1	0.846325	0.846325	0	1	0	0	CorrectCommission	0.735481	1.111689	0	0
381.590515	0.792300	mountain	10	1	0.902990	0.902990	0	0	1	0	CommissionError	1.132689	1.223737	0	0
382.382812	0.792337	city	3	1	0.911664	0.911664	0	1	0	0	CorrectCommission	1.193495	1.332369	0	0
383.175079	0.792180	city	7	1	0.957884	0.957884	0	1	0	0	CorrectCommission	1.517491	1.432747	0	0
383.967285	0.792239	city	3	1	1.140989	1.140989	0	1	0	0	CorrectCommission	2.801027	1.519966	0	0
384.759552	0.792269	city	4	1	0.992642	0.992642	0	1	0	0	CorrectCommission	1.761138	1.589423	0	0
385.551819	0.792304	city	1	1	0.993896	0.993896	0	1	0	0	CorrectCommission	1.769927	1.637263	0	0
386.344086	0.792222	city	7	1	0.950004	0.950004	0	1	0	0	CorrectCommission	1.462252	1.660759	0	0
387.136322	0.792266	city	2	1	1.190511	1.190511	0	1	0	0	CorrectCommission	3.148168	1.658660	0	0
387.928619	0.792321	city	8	1	1.091515	1.091515	0	1	0	0	CorrectCommission	2.454222	1.631366	0	0
388.720886	0.792207	city	7	1	1.042110	1.042110	0	1	0	0	CorrectCommission	2.107904	1.581100	0	0
389.513153	0.792290	city	9	1	1.044551	1.044551	0	1	0	0	CorrectCommission	2.125014	1.511767	0	0
390.305450	0.792349	city	1	0	0.000000	0.910264	0	0	0	1	OmissionError	1.183679	1.428721	0	0
391.097778	0.792265	city	9	1	0.695560	0.695560	0	1	0	0	CorrectCommission	0.321364	1.338354	0	0
391.889984	0.792157	mountain	2	1	0.456750	0.456750	0	0	1	0	CommissionError	1.995383	1.247530	0	0
392.682190	0.792266	city	7	1	0.943435	0.943435	0	1	0	0	CorrectCommission	1.416208	1.162878	0	0
393.474457	0.792265	city	5	1	0.843874	0.843874	0	1	0	0	CorrectCommission	0.718300	1.090262	0	0
394.266724	0.792261	city	3	1	0.745330	0.745330	0	1	0	0	CorrectCommission	0.027522	1.034085	0	0
395.058990	0.792266	city	1	1	0.744957	0.744957	0	1	0	0	CorrectCommission	0.024907	0.996850	0	0
395.851349	0.792482	city	2	1	0.794434	0.794434	0	1	0	0	CorrectCommission	0.371729	0.978876	0	0
396.643616	0.792050	city	10	1	0.745079	0.745079	0	1	0	0	CorrectCommission	0.025761	0.978306	0	0
397.435791	0.792260	city	9	1	0.795219	0.795219	0	1	0	0	CorrectCommission	0.377232	0.991435	0	0
398.228027	0.792265	city	4	1	0.893363	0.893363	0	1	0	0	CorrectCommission	1.065205	1.013271	0	0
399.020294	0.792267	city	1	1	0.992658	0.992658	0	1	0	0	CorrectCommission	1.761251	1.038275	0	0
399.812561	0.792264	city	8	1	1.001806	1.001806	0	1	0	0	CorrectCommission	1.825379	1.061213	0	0
400.604828	0.792266	city	7	1	0.992439	0.992439	0	1	0	0	CorrectCommission	1.759715	1.077946	0	0
401.397095	0.792266	mountain	4	1	0.497256	0.497256	0	0	1	0	CommissionError	1.711443	1.085963	0	0
402.189484	0.792480	city	9	1	1.041949	1.041949	0	1	0	0	CorrectCommission	2.106772	1.084698	0	0
402.981842	0.792265	city	7	1	0.546985	0.546985	0	1	0	0	CorrectCommission	1.362853	1.075425	0	0
403.774017	0.792089	city	2	1	0.646037	0.646037	0	1	0	0	CorrectCommission	0.668507	1.060965	0	0
404.566223	0.792286	city	1	1	0.744816	0.744816	0	1	0	0	CorrectCommission	0.023917	1.045029	0	0
405.358459	0.792240	city	8	0	0.000000	0.842515	0	0	0	1	OmissionError	0.708774	1.031561	0	0
406.150696	0.792227	city	5	1	0.844181	0.844181	0	1	0	0	CorrectCommission	0.720451	1.024031	0	0
406.942963	0.792267	mountain	5	1	0.654860	0.654860	0	0	1	0	CommissionError	0.606660	1.024924	0	0
407.735321	0.792481	mountain	10	0	0.000000	0.815227	1	0	0	0	CorrectOmission	0.517485	1.035398	0	0
408.527710	0.792263	city	4	1	0.943254	0.943254	0	1	0	0	CorrectCommission	1.414936	1.055169	0	0
409.319885	0.792102	city	6	1	0.656914	0.656914	0	1	0	0	CorrectCommission	0.592261	1.082556	0	0
410.112030	0.792214	city	4	1	0.546803	0.546803	0	1	0	0	CorrectCommission	1.364124	1.114838	0	0
410.904266	0.792264	city	10	1	0.547252	0.547252	0	1	0	0	CorrectCommission	1.360978	1.148556	0	0
411.696564	0.792297	city	7	1	0.612307	0.612307	0	1	0	0	CorrectCommission	0.904954	1.179988	0	0
412.488831	0.792235	city	8	1	0.555944	0.555944	0	1	0	0	CorrectCommission	1.300046	1.205542	0	0
413.281097	0.792332	city	9	1	0.463349	0.463349	0	1	0	0	CorrectCommission	1.949123	1.222076	0	0
414.073486	0.792410	city	10	1	0.499577	0.499577	0	1	0	0	CorrectCommission	1.695172	1.227188	0	0
414.865723	0.792048	city	2	1	0.555946	0.555946	0	1	0	0	CorrectCommission	1.300038	1.219395	0	0
415.657898	0.792338	city	5	1	0.499637	0.499637	0	1	0	0	CorrectCommission	1.694754	1.198184	0	0
416.450287	0.792407	city	1	1	0.547152	0.547152	0	1	0	0	CorrectCommission	1.361681	1.163919	0	0
417.242615	0.792266	city	8	1	0.546552	0.546552	0	1	0	0	CorrectCommission	1.365886	1.117796	0	0
418.034790	0.792106	city	4	1	0.650373	0.650373	0	1	0	0	CorrectCommission	0.638114	1.061639	0	0
418.826965	0.792204	city	2	1	0.604764	0.604764	0	1	0	0	CorrectCommission	0.957827	0.997765	0	0
419.619293	0.792483	city	5	1	0.546740	0.546740	0	1	0	0	CorrectCommission	1.364569	0.928756	0	0
420.411560	0.792049	city	2	1	0.609450	0.609450	0	1	0	0	CorrectCommission	0.924977	0.857317	0	0
421.203827	0.792482	city	1	1	0.646375	0.646375	0	1	0	0	CorrectCommission	0.666137	0.786162	0	0
421.996155	0.792153	city	9	1	0.659492	0.659492	0	1	0	0	CorrectCommission	0.574190	0.717853	0	0
422.788361	0.792265	city	5	1	0.645830	0.645830	0	1	0	0	CorrectCommission	0.669961	0.654677	1	0
423.580566	0.792157	city	1	1	0.704302	0.704302	0	1	0	0	CorrectCommission	0.260083	0.598539	1	0
424.372803	0.792288	city	8	1	0.695371	0.695371	0	1	0	0	CorrectCommission	0.322685	0.550888	1	1
425.165039	0.792241	city	7	1	0.695349	0.695349	0	1	0	0	CorrectCommission	0.322842	0.512683	1	1
425.957306	0.792267	city	9	1	0.744843	0.744843	0	1	0	0	CorrectCommission	0.024105	0.484361	1	1
426.749573	0.792293	city	2	1	0.658826	0.658826	0	1	0	0	CorrectCommission	0.578859	0.465929	1	1
427.541840	0.792233	city	3	1	0.695349	0.695349	0	1	0	0	CorrectCommission	0.322840	0.457018	1	1
428.334106	0.792268	city	10	1	0.695389	0.695389	0	1	0	0	CorrectCommission	0.322557	0.457042	1	1
429.126373	0.792267	city	9	1	0.744847	0.744847	0	1	0	0	CorrectCommission	0.024136	0.465350	1	1
429.918732	0.792477	city	5	1	0.695388	0.695388	0	1	0	0	CorrectCommission	0.322568	0.481356	1	1
430.710999	0.792046	city	3	1	0.942809	0.942809	0	1	0	0	CorrectCommission	1.411821	0.504612	1	1
431.503265	0.792490	city	7	1	0.794701	0.794701	0	1	0	0	CorrectCommission	0.373602	0.534862	1	1
432.295532	0.792041	city	8	1	0.846390	0.846390	0	1	0	0	CorrectCommission	0.735934	0.572036	1	1
433.087708	0.792281	city	9	1	0.745116	0.745116	0	1	0	0	CorrectCommission	0.026022	0.616049	1	1
433.879974	0.792248	city	10	1	0.805768	0.805768	0	1	0	0	CorrectCommission	0.451180	0.666671	1	1
434.672211	0.792269	mountain	1	1	0.646491	0.646491	0	0	1	0	CommissionError	0.665330	0.723275	0	1
435.464478	0.792265	city	7	1	0.745035	0.745035	0	1	0	0	CorrectCommission	0.025450	0.784701	0	1
436.256744	0.792262	city	8	1	0.647143	0.647143	0	1	0	0	CorrectCommission	0.660758	0.849135	0	1
437.049133	0.792482	city	2	1	0.596376	0.596376	0	1	0	0	CorrectCommission	1.016630	0.914077	0	1
437.841400	0.792085	city	6	1	0.497160	0.497160	0	1	0	0	CorrectCommission	1.712116	0.976498	0	1
438.633575	0.792267	city	9	1	0.546748	0.546748	0	1	0	0	CorrectCommission	1.364514	1.032998	0	1
439.425812	0.792224	city	6	1	0.645797	0.645797	0	1	0	0	CorrectCommission	0.670190	1.080127	0	1
440.218079	0.792264	city	10	1	0.546924	0.546924	0	1	0	0	CorrectCommission	1.363281	1.114728	0	1
441.010345	0.792270	city	4	1	0.547517	0.547517	0	1	0	0	CorrectCommission	1.359117	1.134243	0	1
441.802612	0.792265	city	1	1	0.546780	0.546780	0	1	0	0	CorrectCommission	1.364284	1.137068	0	1
442.594910	0.792366	city	8	1	0.450111	0.450111	0	1	0	0	CorrectCommission	2.041923	1.122790	0	1
443.387177	0.792157	city	2	1	0.497157	0.497157	0	1	0	0	CorrectCommission	1.712138	1.092300	0	1
444.179443	0.792374	city	1	1	0.517033	0.517033	0	1	0	0	CorrectCommission	1.572811	1.047797	0	1
444.971832	0.792375	city	4	1	0.547131	0.547131	0	1	0	0	CorrectCommission	1.361826	0.992615	0	1
445.764130	0.792263	city	1	1	0.649342	0.649342	0	1	0	0	CorrectCommission	0.645341	0.930859	0	1
446.556305	0.792051	city	4	1	0.646595	0.646595	0	1	0	0	CorrectCommission	0.664601	0.867009	0	1
447.348511	0.792369	city	1	1	0.695322	0.695322	0	1	0	0	CorrectCommission	0.323030	0.805413	0	1
448.140778	0.792174	city	6	1	0.699487	0.699487	0	1	0	0	CorrectCommission	0.293834	0.749839	0	1
448.933014	0.792294	city	9	1	0.712403	0.712403	0	1	0	0	CorrectCommission	0.203292	0.703221	1	1
449.725311	0.792329	city	4	1	0.711533	0.711533	0	1	0	0	CorrectCommission	0.209393	0.667446	1	1
450.517609	0.792265	city	8	1	0.663951	0.663951	0	1	0	0	CorrectCommission	0.542934	0.643384	1	1
451.309937	0.792372	city	9	1	0.744839	0.744839	0	1	0	0	CorrectCommission	0.024079	0.631009	1	1
452.102203	0.792125	city	4	1	0.843688	0.843688	0	1	0	0	CorrectCommission	0.716994	0.629688	1	1
452.894348	0.792189	city	10	1	1.009465	1.009465	0	1	0	0	CorrectCommission	1.879064	0.638411	1	1
453.686615	0.792371	city	6	1	0.844405	0.844405	0	1	0	0	CorrectCommission	0.722017	0.656002	1	1
454.478882	0.792157	city	1	1	0.744708	0.744708	0	1	0	0	CorrectCommission	0.023159	0.681312	1	1
455.271149	0.792374	city	2	1	0.651194	0.651194	0	1	0	0	CorrectCommission	0.632361	0.713172	0	1
456.063416	0.792158	city	8	1	0.645721	0.645721	0	1	0	0	CorrectCommission	0.670726	0.750326	0	1
456.855621	0.792264	city	1	1	0.695466	0.695466	0	1	0	0	CorrectCommission	0.322018	0.791406	0	1
457.647919	0.792300	city	8	1	0.656810	0.656810	0	1	0	0	CorrectCommission	0.592990	0.834852	0	1
458.440186	0.792233	city	3	1	0.695296	0.695296	0	1	0	0	CorrectCommission	0.323215	0.878989	0	1
459.232452	0.792323	city	1	1	0.844394	0.844394	0	1	0	0	CorrectCommission	0.721942	0.922211	0	1
460.024750	0.792263	city	10	1	1.046122	1.046122	0	1	0	0	CorrectCommission	2.136023	0.963206	0	1
460.816986	0.792204	city	6	1	0.943347	0.943347	0	1	0	0	CorrectCommission	1.415586	1.001228	0	1
461.609222	0.792261	mountain	6	0	0.000000	0.962764	1	0	0	0	CorrectOmission	1.551701	1.036360	0	1
462.401581	0.792483	mountain	7	1	0.942917	0.942917	0	0	1	0	CommissionError	1.412576	1.069518	0	1
463.193909	0.792155	city	2	0	0.000000	0.722348	0	0	0	1	OmissionError	0.133581	1.102338	0	1
463.986084	0.792215	city	1	0	0.000000	0.505647	0	0	0	1	OmissionError	1.652623	1.136833	0	1
464.778351	0.792316	city	8	1	0.497404	0.497404	0	1	0	0	CorrectCommission	1.710402	1.174828	0	1
465.570709	0.792374	city	6	1	0.902211	0.902211	0	1	0	0	CorrectCommission	1.127228	1.217432	0	1
466.362915	0.792048	city	7	1	0.744711	0.744711	0	1	0	0	CorrectCommission	0.023182	1.264507	0	1
467.155060	0.792268	city	3	1	0.762987	0.762987	0	1	0	0	CorrectCommission	0.151291	1.314337	0	1
467.947388	0.792370	city	8	1	0.695321	0.695321	0	1	0	0	CorrectCommission	0.323034	1.363561	0	1
468.739655	0.792160	city	3	1	0.596406	0.596406	0	1	0	0	CorrectCommission	1.016418	1.407543	0	1
469.531860	0.792259	city	9	1	0.448299	0.448299	0	1	0	0	CorrectCommission	2.054625	1.441019	0	1
470.324127	0.792266	city	4	1	0.299218	0.299218	0	1	0	0	CorrectCommission	3.099659	1.459021	0	1
471.116394	0.792265	city	10	1	0.299171	0.299171	0	1	0	0	CorrectCommission	3.099993	1.457839	0	1
471.908661	0.792268	city	1	1	0.312969	0.312969	0	1	0	0	CorrectCommission	3.003268	1.435833	0	1
472.700928	0.792262	city	9	1	0.447989	0.447989	0	1	0	0	CorrectCommission	2.056799	1.393853	0	1
473.493195	0.792297	city	8	1	0.504159	0.504159	0	1	0	0	CorrectCommission	1.663056	1.335260	0	1
474.285461	0.792237	city	1	1	0.596306	0.596306	0	1	0	0	CorrectCommission	1.017118	1.265474	0	1
475.077728	0.792264	city	5	1	0.645824	0.645824	0	1	0	0	CorrectCommission	0.670001	1.191107	0	1
475.869995	0.792271	mountain	1	0	0.000000	0.711671	1	0	0	0	CorrectOmission	0.208425	1.118929	0	1
476.662262	0.792256	city	8	1	0.744846	0.744846	0	1	0	0	CorrectCommission	0.024123	1.054830	0	1
477.454559	0.792372	city	2	1	0.696347	0.696347	0	1	0	0	CorrectCommission	0.315846	1.002915	0	1
478.246826	0.792158	city	8	1	0.665525	0.665525	0	1	0	0	CorrectCommission	0.531903	0.964991	0	1
479.039062	0.792333	mountain	6	0	0.000000	0.780336	1	0	0	0	CorrectOmission	0.272905	0.940398	0	1
479.831390	0.792303	city	9	1	0.893634	0.893634	0	1	0	0	CorrectCommission	1.067106	0.926292	0	1
480.623657	0.792246	city	6	1	0.858272	0.858272	0	1	0	0	CorrectCommission	0.819226	0.918202	0	1
481.415894	0.792174	mountain	2	0	0.000000	0.910556	1	0	0	0	CorrectOmission	1.185729	0.910845	0	1
482.208099	0.792265	mountain	3	0	0.000000	0.985450	1	0	0	0	CorrectOmission	1.710726	0.898997	0	1
483.000366	0.792267	city	1	0	0.000000	1.017919	0	0	0	1	OmissionError	1.938328	0.878310	0	1
483.792633	0.792261	city	7	1	0.942927	0.942927	0	1	0	0	CorrectCommission	1.412647	0.845958	0	1
484.584900	0.792266	mountain	3	1	0.695440	0.695440	0	0	1	0	CommissionError	0.322205	0.801006	0	1
485.377167	0.792264	city	2	1	0.942949	0.942949	0	1	0	0	CorrectCommission	1.412801	0.744483	0	1
486.169464	0.792373	mountain	9	0	0.000000	0.877081	1	0	0	0	CorrectOmission	0.951073	0.679133	1	1
486.961853	0.792375	city	2	1	0.654523	0.654523	0	1	0	0	CorrectCommission	0.609024	0.609024	1	1
