onset	duration	trial_type	image_type	Press	ReactionTime	ReactionTime_Interpolated	CorrectOmission	CorrectCommission	CommissionError	OmissionError	response_type	nonsmoothVarianceTimeCourse	VarianceTimeCourse	In_the_Zone	Reward_trial
8.421800	0.795852	city	2	1	0.897435	0.897435	0	1	0	0	CorrectCommission	1.644850	1.644850	0	1
9.217571	0.795691	city	3	1	0.703132	0.703132	0	1	0	0	CorrectCommission	0.216126	1.603041	0	1
10.013320	0.795806	city	2	1	0.499431	0.499431	0	1	0	0	CorrectCommission	1.281708	1.563732	0	1
10.809122	0.795798	city	9	1	0.400447	0.400447	0	1	0	0	CorrectCommission	2.009541	1.529087	0	1
11.604976	0.795908	city	1	1	0.598886	0.598886	0	1	0	0	CorrectCommission	0.550406	1.500745	0	1
12.400777	0.795694	city	10	1	0.950318	0.950318	0	1	0	0	CorrectCommission	2.033704	1.479673	0	1
13.196578	0.795910	mountain	9	0	0.000000	0.868056	1	0	0	0	CorrectOmission	1.428821	1.465970	0	1
13.992382	0.795697	city	5	1	0.616733	0.616733	0	1	0	0	CorrectCommission	0.419176	1.458996	0	1
14.788239	0.796016	city	10	1	0.460985	0.460985	0	1	0	0	CorrectCommission	1.564405	1.457434	0	1
15.584053	0.795614	city	8	1	0.399727	0.399727	0	1	0	0	CorrectCommission	2.014836	1.459420	0	1
16.379799	0.795880	city	9	1	0.502296	0.502296	0	1	0	0	CorrectCommission	1.260636	1.462851	0	1
17.175587	0.795695	city	8	1	0.502262	0.502262	0	1	0	0	CorrectCommission	1.260887	1.465546	0	1
17.971443	0.796017	city	3	1	0.449785	0.449785	0	1	0	0	CorrectCommission	1.646755	1.465545	0	1
18.767244	0.795585	city	9	1	0.402763	0.402763	0	1	0	0	CorrectCommission	1.992511	1.461370	0	1
19.562939	0.795803	city	2	1	0.400286	0.400286	0	1	0	0	CorrectCommission	2.010724	1.452177	0	1
20.358774	0.795871	city	6	1	0.499750	0.499750	0	1	0	0	CorrectCommission	1.279360	1.437887	0	1
21.154575	0.795728	city	4	1	0.549061	0.549061	0	1	0	0	CorrectCommission	0.916771	1.419223	0	1
21.950340	0.795802	city	2	1	0.470194	0.470194	0	1	0	0	CorrectCommission	1.496684	1.397627	0	1
22.746252	0.796023	city	6	1	0.459175	0.459175	0	1	0	0	CorrectCommission	1.577708	1.375018	0	1
23.542057	0.795584	city	2	1	0.399730	0.399730	0	1	0	0	CorrectCommission	2.014815	1.353594	0	1
24.337803	0.795909	city	8	1	0.463317	0.463317	0	1	0	0	CorrectCommission	1.547254	1.335412	0	1
25.133713	0.795910	city	2	1	0.549033	0.549033	0	1	0	0	CorrectCommission	0.916980	1.322007	0	1
25.929459	0.795585	city	5	1	0.607957	0.607957	0	1	0	0	CorrectCommission	0.483703	1.314032	0	1
26.725262	0.796020	city	4	1	0.549161	0.549161	0	1	0	0	CorrectCommission	0.916037	1.310973	0	1
27.521061	0.795581	city	8	1	0.548963	0.548963	0	1	0	0	CorrectCommission	0.917493	1.310988	0	1
28.316755	0.795806	city	4	1	0.598997	0.598997	0	1	0	0	CorrectCommission	0.549590	1.311072	0	1
29.112589	0.795862	city	8	1	0.549167	0.549167	0	1	0	0	CorrectCommission	0.915990	1.307464	0	1
29.908499	0.795957	city	5	1	0.499420	0.499420	0	1	0	0	CorrectCommission	1.281787	1.296113	0	1
30.704268	0.795582	mountain	10	0	0.000000	1.012606	1	0	0	0	CorrectOmission	2.491709	1.273433	0	1
31.500015	0.795909	mountain	3	1	1.356297	1.356297	0	0	1	0	CommissionError	5.018895	1.236950	0	1
32.295818	0.795695	mountain	10	1	0.798065	0.798065	0	0	1	0	CommissionError	0.914171	1.185746	0	1
33.091564	0.795800	city	1	1	0.648809	0.648809	0	1	0	0	CorrectCommission	0.183317	1.120838	0	1
33.887474	0.796020	city	10	1	0.499771	0.499771	0	1	0	0	CorrectCommission	1.279203	1.044949	0	1
34.683281	0.795589	city	4	1	0.598891	0.598891	0	1	0	0	CorrectCommission	0.550368	0.962165	0	1
35.478970	0.795795	city	7	1	0.513392	0.513392	0	1	0	0	CorrectCommission	1.179049	0.877454	0	1
36.274769	0.795803	city	8	1	0.698383	0.698383	0	1	0	0	CorrectCommission	0.181206	0.795945	0	1
37.070610	0.795877	city	5	1	0.653205	0.653205	0	1	0	0	CorrectCommission	0.150993	0.722354	0	1
37.866417	0.795741	city	1	1	0.626698	0.626698	0	1	0	0	CorrectCommission	0.345903	0.660407	1	1
38.662205	0.795828	city	3	1	0.598872	0.598872	0	1	0	0	CorrectCommission	0.550510	0.612484	1	1
39.458054	0.795870	city	4	1	0.648590	0.648590	0	1	0	0	CorrectCommission	0.184930	0.579424	1	1
40.253887	0.795800	city	10	1	0.698468	0.698468	0	1	0	0	CorrectCommission	0.181826	0.560550	1	1
41.049633	0.795692	city	7	1	0.648525	0.648525	0	1	0	0	CorrectCommission	0.185407	0.553847	1	1
41.845379	0.795804	city	2	1	0.648626	0.648626	0	1	0	0	CorrectCommission	0.184664	0.556276	1	1
42.641186	0.795804	city	9	1	0.648645	0.648645	0	1	0	0	CorrectCommission	0.184521	0.564241	1	1
43.437042	0.795907	mountain	9	0	0.000000	0.836840	1	0	0	0	CorrectOmission	1.199291	0.574039	1	1
44.232841	0.795695	city	6	1	0.946946	0.946946	0	1	0	0	CorrectCommission	2.008908	0.582307	1	1
45.028698	0.796018	city	9	1	0.712698	0.712698	0	1	0	0	CorrectCommission	0.286467	0.586420	1	1
45.824535	0.795653	city	6	1	0.698638	0.698638	0	1	0	0	CorrectCommission	0.183081	0.584798	1	1
46.620281	0.795842	city	10	1	0.549631	0.549631	0	1	0	0	CorrectCommission	0.912578	0.576928	1	1
47.416103	0.795801	mountain	4	1	0.499465	0.499465	0	0	1	0	CommissionError	1.281457	0.563343	1	1
48.211853	0.795697	city	1	1	0.747969	0.747969	0	1	0	0	CorrectCommission	0.545817	0.545474	1	1
49.007599	0.795796	city	9	1	0.601486	0.601486	0	1	0	0	CorrectCommission	0.531285	0.525313	1	1
49.803398	0.795802	city	2	1	0.698427	0.698427	0	1	0	0	CorrectCommission	0.181528	0.505159	1	1
50.599220	0.795847	city	7	1	0.698483	0.698483	0	1	0	0	CorrectCommission	0.181942	0.487218	1	1
51.395023	0.795759	city	5	1	0.699077	0.699077	0	1	0	0	CorrectCommission	0.186311	0.473294	1	1
52.190804	0.795802	city	6	1	0.698396	0.698396	0	1	0	0	CorrectCommission	0.181303	0.464612	1	1
52.986660	0.795907	city	1	1	0.652236	0.652236	0	1	0	0	CorrectCommission	0.158120	0.461717	1	1
53.782459	0.795695	city	10	1	0.610962	0.610962	0	1	0	0	CorrectCommission	0.461607	0.464539	1	1
54.578209	0.795800	city	4	1	0.749032	0.749032	0	1	0	0	CorrectCommission	0.553627	0.472503	1	1
55.374050	0.795885	city	1	1	0.719065	0.719065	0	1	0	0	CorrectCommission	0.333283	0.484758	1	1
56.169853	0.795719	city	5	1	0.847890	0.847890	0	1	0	0	CorrectCommission	1.280544	0.500395	1	1
56.965668	0.795908	city	8	1	0.648955	0.648955	0	1	0	0	CorrectCommission	0.182240	0.518605	1	1
57.761513	0.795780	city	5	1	0.599326	0.599326	0	1	0	0	CorrectCommission	0.547167	0.538879	1	1
58.557285	0.795770	city	1	1	0.698404	0.698404	0	1	0	0	CorrectCommission	0.181360	0.560971	1	1
59.353046	0.795749	city	9	1	0.797845	0.797845	0	1	0	0	CorrectCommission	0.912557	0.584892	1	1
60.148876	0.795909	mountain	3	0	0.000000	0.806469	1	0	0	0	CorrectOmission	0.975968	0.610743	1	1
60.944729	0.795802	city	8	1	0.748585	0.748585	0	1	0	0	CorrectCommission	0.550345	0.638567	1	1
61.740585	0.795910	city	10	1	0.648504	0.648504	0	1	0	0	CorrectCommission	0.185561	0.668155	1	1
62.536442	0.795803	city	5	1	0.668115	0.668115	0	1	0	0	CorrectCommission	0.041359	0.698949	1	1
63.332134	0.795583	city	7	1	0.797741	0.797741	0	1	0	0	CorrectCommission	0.911788	0.729960	0	1
64.127831	0.795805	city	10	1	0.598888	0.598888	0	1	0	0	CorrectCommission	0.550387	0.759800	0	1
64.923630	0.795797	city	8	1	0.499533	0.499533	0	1	0	0	CorrectCommission	1.280956	0.786871	0	1
65.719482	0.795910	city	2	1	0.549184	0.549184	0	1	0	0	CorrectCommission	0.915870	0.809607	0	1
66.515289	0.795695	city	4	1	0.499538	0.499538	0	1	0	0	CorrectCommission	1.280922	0.826810	0	1
67.311142	0.796020	city	8	1	0.550425	0.550425	0	1	0	0	CorrectCommission	0.906743	0.837899	0	1
68.106941	0.795581	city	6	1	0.558476	0.558476	0	1	0	0	CorrectCommission	0.847539	0.843137	0	0
68.902687	0.795910	city	7	1	0.513302	0.513302	0	1	0	0	CorrectCommission	1.179713	0.843710	0	0
69.698601	0.795913	city	3	1	0.549397	0.549397	0	1	0	0	CorrectCommission	0.914303	0.841619	0	0
70.494354	0.795599	city	7	1	0.499320	0.499320	0	1	0	0	CorrectCommission	1.282521	0.839451	0	0
71.290161	0.796003	city	10	1	0.499407	0.499407	0	1	0	0	CorrectCommission	1.281883	0.839945	0	0
72.086060	0.795801	city	4	1	0.698161	0.698161	0	1	0	0	CorrectCommission	0.179569	0.845503	0	0
72.881783	0.795646	city	8	1	0.698153	0.698153	0	1	0	0	CorrectCommission	0.179510	0.857720	0	0
73.677528	0.795849	city	9	1	0.709622	0.709622	0	1	0	0	CorrectCommission	0.263847	0.876877	0	0
74.473335	0.795764	city	10	1	0.648531	0.648531	0	1	0	0	CorrectCommission	0.185363	0.901787	0	0
75.269196	0.795947	city	4	1	0.718551	0.718551	0	1	0	0	CorrectCommission	0.329504	0.929782	0	0
76.064957	0.795586	city	6	1	0.747880	0.747880	0	1	0	0	CorrectCommission	0.545161	0.957073	0	0
76.860657	0.795803	mountain	3	0	0.000000	0.835884	1	0	0	0	CorrectOmission	1.192263	0.979295	0	0
77.656456	0.795796	city	9	1	0.950297	0.950297	0	1	0	0	CorrectCommission	2.033550	0.992271	0	0
78.452255	0.795804	mountain	8	0	0.000000	1.058852	1	0	0	0	CorrectOmission	2.831759	0.992695	0	0
79.248077	0.795837	city	4	1	1.046520	1.046520	0	1	0	0	CorrectCommission	2.741085	0.978780	0	0
80.043907	0.795820	city	7	1	0.798276	0.798276	0	1	0	0	CorrectCommission	0.915723	0.950584	0	0
80.839691	0.795747	city	9	1	0.698281	0.698281	0	1	0	0	CorrectCommission	0.180458	0.910033	0	0
81.635513	0.795909	city	4	1	0.599243	0.599243	0	1	0	0	CorrectCommission	0.547783	0.860621	0	0
82.431427	0.795911	city	10	1	0.598766	0.598766	0	1	0	0	CorrectCommission	0.551287	0.806868	0	0
83.227226	0.795693	city	7	1	0.652941	0.652941	0	1	0	0	CorrectCommission	0.152931	0.753733	0	0
84.022919	0.795694	city	8	1	0.551748	0.551748	0	1	0	0	CorrectCommission	0.897016	0.705965	0	0
84.818779	0.796017	mountain	10	1	0.599383	0.599383	0	0	1	0	CommissionError	0.546751	0.667526	1	0
85.614616	0.795665	city	7	1	0.648362	0.648362	0	1	0	0	CorrectCommission	0.186607	0.641225	1	0
86.410316	0.795725	city	10	1	0.615043	0.615043	0	1	0	0	CorrectCommission	0.431603	0.628476	1	0
87.206078	0.795798	city	4	1	0.666177	0.666177	0	1	0	0	CorrectCommission	0.055610	0.629251	1	0
88.001930	0.795912	city	3	1	0.748105	0.748105	0	1	0	0	CorrectCommission	0.546815	0.642243	1	0
88.797729	0.795691	city	10	1	0.698435	0.698435	0	1	0	0	CorrectCommission	0.181588	0.665101	1	0
89.593475	0.795806	city	3	1	0.554301	0.554301	0	1	0	0	CorrectCommission	0.878243	0.694911	1	0
90.389282	0.795798	city	8	1	0.648765	0.648765	0	1	0	0	CorrectCommission	0.183644	0.728575	0	0
91.185188	0.796019	city	2	1	0.797817	0.797817	0	1	0	0	CorrectCommission	0.912347	0.763373	0	0
91.980995	0.795585	city	1	1	0.499235	0.499235	0	1	0	0	CorrectCommission	1.283143	0.797333	0	0
92.776810	0.796046	mountain	2	1	0.313103	0.313103	0	0	1	0	CommissionError	2.651791	0.829562	0	0
93.572609	0.795558	city	1	1	0.748189	0.748189	0	1	0	0	CorrectCommission	0.547429	0.860329	0	0
94.368401	0.796019	city	5	1	0.815637	0.815637	0	1	0	0	CorrectCommission	1.043379	0.891052	0	0
95.164307	0.795801	city	7	1	0.757638	0.757638	0	1	0	0	CorrectCommission	0.616910	0.923923	0	0
95.960052	0.795693	city	9	1	0.713003	0.713003	0	1	0	0	CorrectCommission	0.288706	0.961502	0	0
96.755745	0.795694	city	5	1	0.598760	0.598760	0	1	0	0	CorrectCommission	0.551334	1.006279	0	0
97.551498	0.795805	city	8	1	0.598898	0.598898	0	1	0	0	CorrectCommission	0.550320	1.060213	0	0
98.347351	0.795906	city	6	1	0.598867	0.598867	0	1	0	0	CorrectCommission	0.550548	1.124389	0	0
99.143150	0.795693	city	8	1	0.499715	0.499715	0	1	0	0	CorrectCommission	1.279616	1.198811	0	0
99.939011	0.796018	city	3	1	0.499878	0.499878	0	1	0	0	CorrectCommission	1.278415	1.282335	0	0
100.734863	0.795692	city	1	1	0.499465	0.499465	0	1	0	0	CorrectCommission	1.281452	1.372783	0	0
101.530586	0.795758	city	6	1	0.450096	0.450096	0	1	0	0	CorrectCommission	1.644467	1.467067	0	0
102.326347	0.795756	city	9	1	0.499328	0.499328	0	1	0	0	CorrectCommission	1.282464	1.561403	0	0
103.122116	0.795784	city	4	1	0.367120	0.367120	0	1	0	0	CorrectCommission	2.254598	1.651559	0	0
103.918015	0.796018	city	2	1	0.450208	0.450208	0	1	0	0	CorrectCommission	1.643648	1.733010	0	0
104.713814	0.795583	city	10	1	1.063272	1.063272	0	1	0	0	CorrectCommission	2.864263	1.801207	0	0
105.509537	0.795863	city	3	0	0.000000	0.866890	0	0	0	1	OmissionError	1.420252	1.851721	0	0
106.305344	0.795744	city	5	1	0.449635	0.449635	0	1	0	0	CorrectCommission	1.647856	1.880626	0	0
107.101112	0.795797	city	1	1	0.400080	0.400080	0	1	0	0	CorrectCommission	2.012239	1.884719	0	0
107.896927	0.795832	city	2	1	0.997341	0.997341	0	1	0	0	CorrectCommission	2.379469	1.861937	0	0
108.692787	0.795883	city	3	1	1.061330	1.061330	0	1	0	0	CorrectCommission	2.849980	1.811680	0	0
109.488579	0.795698	city	2	1	1.048854	1.048854	0	1	0	0	CorrectCommission	2.758244	1.735121	0	0
110.284431	0.796013	city	4	1	1.195731	1.195731	0	1	0	0	CorrectCommission	3.838241	1.635282	0	0
111.080284	0.795693	city	7	0	0.000000	0.833561	0	0	0	1	OmissionError	1.175181	1.516953	0	0
111.875977	0.795694	city	2	1	0.456970	0.456970	0	1	0	0	CorrectCommission	1.593924	1.386374	0	0
112.671837	0.796018	city	4	1	0.560581	0.560581	0	1	0	0	CorrectCommission	0.832064	1.250519	0	0
113.467690	0.795691	mountain	9	0	0.000000	0.664213	1	0	0	0	CorrectOmission	0.070047	1.116437	0	0
114.263382	0.795696	city	10	1	0.712896	0.712896	0	1	0	0	CorrectCommission	0.287921	0.990500	0	0
115.059128	0.795802	city	2	1	0.651659	0.651659	0	1	0	0	CorrectCommission	0.162363	0.877727	0	0
115.854935	0.795801	city	5	1	0.648841	0.648841	0	1	0	0	CorrectCommission	0.183085	0.781430	0	0
116.650734	0.795798	city	7	1	0.698460	0.698460	0	1	0	0	CorrectCommission	0.181769	0.703072	1	0
117.446640	0.796022	city	5	1	0.698349	0.698349	0	1	0	0	CorrectCommission	0.180957	0.642455	1	0
118.242569	0.795829	city	3	1	0.797699	0.797699	0	1	0	0	CorrectCommission	0.911480	0.598098	1	0
119.038315	0.795666	city	4	1	0.847412	0.847412	0	1	0	0	CorrectCommission	1.277023	0.567760	1	0
119.834023	0.795755	city	7	1	0.766524	0.766524	0	1	0	0	CorrectCommission	0.682252	0.549002	1	0
120.629776	0.795746	city	8	1	0.698344	0.698344	0	1	0	0	CorrectCommission	0.180916	0.539672	1	0
121.425575	0.795859	city	1	1	0.655294	0.655294	0	1	0	0	CorrectCommission	0.135631	0.538254	1	0
122.221375	0.795741	city	2	1	0.556637	0.556637	0	1	0	0	CorrectCommission	0.861064	0.543984	1	0
123.017151	0.795800	city	3	1	0.560849	0.560849	0	1	0	0	CorrectCommission	0.830091	0.556820	1	0
123.812996	0.795891	city	4	1	0.649917	0.649917	0	1	0	0	CorrectCommission	0.175174	0.577260	1	0
124.608803	0.795721	city	7	1	0.598902	0.598902	0	1	0	0	CorrectCommission	0.550286	0.606027	1	0
125.404556	0.795792	city	6	1	0.650153	0.650153	0	1	0	0	CorrectCommission	0.173432	0.643652	1	0
126.200356	0.795801	city	4	1	0.660623	0.660623	0	1	0	0	CorrectCommission	0.096445	0.690160	1	0
126.996155	0.795803	city	2	1	0.549183	0.549183	0	1	0	0	CorrectCommission	0.915876	0.744785	0	0
127.791992	0.795873	city	5	1	0.560263	0.560263	0	1	0	0	CorrectCommission	0.834406	0.805754	0	1
128.587814	0.795761	city	10	1	0.648809	0.648809	0	1	0	0	CorrectCommission	0.183320	0.870349	0	1
129.383621	0.795876	mountain	2	1	0.499393	0.499393	0	0	1	0	CommissionError	1.281985	0.935001	0	1
130.179520	0.795913	city	8	1	0.598867	0.598867	0	1	0	0	CorrectCommission	0.550546	0.995546	0	1
130.975388	0.795806	city	7	1	0.548908	0.548908	0	1	0	0	CorrectCommission	0.917896	1.047707	0	1
131.771088	0.795595	city	4	1	0.449527	0.449527	0	1	0	0	CorrectCommission	1.648656	1.087505	0	1
132.566879	0.796002	city	3	1	0.361442	0.361442	0	1	0	0	CorrectCommission	2.296348	1.111733	0	1
133.362671	0.795585	city	4	1	0.399762	0.399762	0	1	0	0	CorrectCommission	2.014578	1.118340	0	1
134.158371	0.795801	city	10	1	0.366668	0.366668	0	1	0	0	CorrectCommission	2.257924	1.106676	0	1
134.954178	0.795817	city	3	1	0.549384	0.549384	0	1	0	0	CorrectCommission	0.914397	1.077521	0	1
135.750092	0.796004	city	6	1	0.604079	0.604079	0	1	0	0	CorrectCommission	0.512217	1.032991	0	1
136.545990	0.795801	city	1	1	0.556093	0.556093	0	1	0	0	CorrectCommission	0.865063	0.976209	0	1
137.341690	0.795587	city	3	1	0.499195	0.499195	0	1	0	0	CorrectCommission	1.283443	0.910936	0	1
138.137375	0.795799	city	10	1	0.608304	0.608304	0	1	0	0	CorrectCommission	0.481152	0.841196	0	1
138.933228	0.795911	city	9	1	0.748259	0.748259	0	1	0	0	CorrectCommission	0.547947	0.770917	0	1
139.729141	0.795912	city	8	1	0.847919	0.847919	0	1	0	0	CorrectCommission	1.280753	0.703581	0	1
140.524948	0.795691	city	5	1	0.652213	0.652213	0	1	0	0	CorrectCommission	0.158287	0.642005	1	1
141.320740	0.795912	city	2	1	0.649094	0.649094	0	1	0	0	CorrectCommission	0.181222	0.588305	1	1
142.116486	0.795583	city	1	1	0.648415	0.648415	0	1	0	0	CorrectCommission	0.186216	0.543753	1	1
142.912247	0.795910	city	8	1	0.757912	0.757912	0	1	0	0	CorrectCommission	0.618927	0.508855	1	1
143.708038	0.795694	city	6	1	0.698414	0.698414	0	1	0	0	CorrectCommission	0.181435	0.483434	1	1
144.503845	0.795908	mountain	10	1	0.714443	0.714443	0	0	1	0	CommissionError	0.299295	0.466765	1	1
145.299698	0.795804	city	3	1	0.709586	0.709586	0	1	0	0	CorrectCommission	0.263580	0.457737	1	1
146.095444	0.795694	city	4	1	0.698252	0.698252	0	1	0	0	CorrectCommission	0.180241	0.455046	1	1
146.891220	0.795859	mountain	4	0	0.000000	0.779855	1	0	0	0	CorrectOmission	0.780272	0.457329	1	1
147.687027	0.795743	city	1	1	0.798658	0.798658	0	1	0	0	CorrectCommission	0.918532	0.463292	1	1
148.482803	0.795801	city	5	1	0.598925	0.598925	0	1	0	0	CorrectCommission	0.550120	0.471801	1	1
149.278656	0.795911	city	6	1	0.714675	0.714675	0	1	0	0	CorrectCommission	0.301000	0.481908	1	1
150.074448	0.795694	city	9	1	0.651431	0.651431	0	1	0	0	CorrectCommission	0.164039	0.492817	1	1
150.870316	0.796019	city	3	1	0.602687	0.602687	0	1	0	0	CorrectCommission	0.522456	0.503872	1	1
151.666107	0.795586	city	7	1	0.598659	0.598659	0	1	0	0	CorrectCommission	0.552071	0.514504	1	1
152.461838	0.795861	mountain	5	0	0.000000	0.707017	1	0	0	0	CorrectOmission	0.244692	0.524257	1	1
153.257629	0.795737	city	9	1	0.750610	0.750610	0	1	0	0	CorrectCommission	0.565230	0.532788	1	1
154.053467	0.795911	city	3	1	0.552286	0.552286	0	1	0	0	CorrectCommission	0.893059	0.539867	1	1
154.849274	0.795704	city	7	1	0.549056	0.549056	0	1	0	0	CorrectCommission	0.916811	0.545416	1	1
155.645020	0.795796	city	3	1	0.649106	0.649106	0	1	0	0	CorrectCommission	0.181137	0.549558	1	1
156.440872	0.795905	city	7	1	0.804269	0.804269	0	1	0	0	CorrectCommission	0.959789	0.552583	1	1
157.236664	0.795696	city	4	1	0.748578	0.748578	0	1	0	0	CorrectCommission	0.550290	0.554825	1	1
158.032455	0.795866	city	10	1	0.750236	0.750236	0	1	0	0	CorrectCommission	0.562486	0.556650	1	1
158.828247	0.795733	city	7	1	0.749060	0.749060	0	1	0	0	CorrectCommission	0.553839	0.558274	1	1
159.624023	0.795808	city	3	1	0.660147	0.660147	0	1	0	0	CorrectCommission	0.099946	0.559705	1	1
160.419830	0.795822	city	8	1	0.709757	0.709757	0	1	0	0	CorrectCommission	0.264835	0.560685	1	1
161.215637	0.795780	city	6	1	0.705506	0.705506	0	1	0	0	CorrectCommission	0.233577	0.560710	1	1
162.011444	0.795838	city	2	1	0.799044	0.799044	0	1	0	0	CorrectCommission	0.921373	0.559147	1	1
162.807251	0.795763	city	4	1	0.761532	0.761532	0	1	0	0	CorrectCommission	0.645543	0.555384	1	1
163.603027	0.795799	mountain	4	0	0.000000	0.811961	1	0	0	0	CorrectOmission	1.016351	0.549018	1	1
164.398834	0.795803	city	9	1	0.847578	0.847578	0	1	0	0	CorrectCommission	1.278247	0.539970	1	1
165.194733	0.796020	city	5	1	0.765631	0.765631	0	1	0	0	CorrectCommission	0.675683	0.528593	1	1
165.990555	0.795609	city	9	1	0.710169	0.710169	0	1	0	0	CorrectCommission	0.267868	0.515645	1	1
166.786240	0.795774	city	10	1	0.663888	0.663888	0	1	0	0	CorrectCommission	0.072437	0.502180	1	1
167.582031	0.795802	city	2	1	0.698373	0.698373	0	1	0	0	CorrectCommission	0.181133	0.489378	1	1
168.377884	0.795912	city	6	1	0.750550	0.750550	0	1	0	0	CorrectCommission	0.564793	0.478367	1	1
169.173721	0.795756	city	2	1	0.698507	0.698507	0	1	0	0	CorrectCommission	0.182116	0.470076	1	1
169.969467	0.795741	mountain	5	0	0.000000	0.714624	1	0	0	0	CorrectOmission	0.300623	0.465169	1	1
170.765350	0.796016	city	2	1	0.748142	0.748142	0	1	0	0	CorrectCommission	0.547090	0.463991	1	1
171.561157	0.795587	city	7	1	0.748305	0.748305	0	1	0	0	CorrectCommission	0.548288	0.466612	1	1
172.356903	0.795907	mountain	2	0	0.000000	0.762866	1	0	0	0	CorrectOmission	0.655349	0.472890	1	1
173.152725	0.795731	city	9	1	0.747977	0.747977	0	1	0	0	CorrectCommission	0.545875	0.482549	1	1
173.948471	0.795767	city	8	1	0.659795	0.659795	0	1	0	0	CorrectCommission	0.102536	0.495211	1	1
174.744247	0.795802	city	10	1	0.757877	0.757877	0	1	0	0	CorrectCommission	0.618668	0.510396	1	1
175.540054	0.795802	mountain	1	0	0.000000	0.762881	1	0	0	0	CorrectOmission	0.655465	0.527518	1	1
176.335846	0.795796	city	3	1	0.704640	0.704640	0	1	0	0	CorrectCommission	0.227211	0.545864	1	1
177.131653	0.795808	city	9	1	0.612984	0.612984	0	1	0	0	CorrectCommission	0.446741	0.564581	1	1
177.927460	0.795800	city	3	1	0.549792	0.549792	0	1	0	0	CorrectCommission	0.911399	0.582669	1	1
178.723312	0.795907	city	8	1	0.711887	0.711887	0	1	0	0	CorrectCommission	0.280497	0.599062	1	1
179.519119	0.795698	city	6	1	0.648522	0.648522	0	1	0	0	CorrectCommission	0.185430	0.612764	1	1
180.314865	0.795799	mountain	5	1	0.503622	0.503622	0	0	1	0	CommissionError	1.250886	0.622969	1	1
181.110657	0.795803	city	3	1	0.549256	0.549256	0	1	0	0	CorrectCommission	0.915342	0.629212	1	1
181.906464	0.795799	city	1	1	0.549759	0.549759	0	1	0	0	CorrectCommission	0.911643	0.631559	1	1
182.702271	0.795804	city	4	1	0.563827	0.563827	0	1	0	0	CorrectCommission	0.808193	0.630627	1	1
183.498077	0.795827	city	1	1	0.554321	0.554321	0	1	0	0	CorrectCommission	0.878096	0.627588	1	1
184.293884	0.795775	city	10	1	0.562425	0.562425	0	1	0	0	CorrectCommission	0.818508	0.624053	1	1
185.089676	0.795799	city	3	1	0.711834	0.711834	0	1	0	0	CorrectCommission	0.280113	0.621867	1	1
185.885468	0.795806	city	2	1	0.698348	0.698348	0	1	0	0	CorrectCommission	0.180949	0.622859	1	1
186.681274	0.795797	city	3	1	0.648914	0.648914	0	1	0	0	CorrectCommission	0.182543	0.628604	1	1
187.477127	0.795910	city	4	1	0.698501	0.698501	0	1	0	0	CorrectCommission	0.182070	0.640224	1	0
188.272980	0.795801	city	1	1	0.607939	0.607939	0	1	0	0	CorrectCommission	0.483839	0.658267	1	0
189.068756	0.795734	city	5	1	0.499370	0.499370	0	1	0	0	CorrectCommission	1.282157	0.682648	1	0
189.864548	0.795871	city	3	1	0.698475	0.698475	0	1	0	0	CorrectCommission	0.181884	0.712725	0	0
190.660339	0.795694	mountain	10	0	0.000000	0.822777	1	0	0	0	CorrectOmission	1.095882	0.747428	0	0
191.456116	0.795852	city	5	1	0.847551	0.847551	0	1	0	0	CorrectCommission	1.278052	0.785324	0	0
192.251907	0.795754	city	8	1	0.748077	0.748077	0	1	0	0	CorrectCommission	0.546606	0.824756	0	0
193.047714	0.795836	mountain	10	0	0.000000	0.721131	1	0	0	0	CorrectOmission	0.348469	0.863957	0	0
193.843567	0.795873	city	3	1	0.757373	0.757373	0	1	0	0	CorrectCommission	0.614960	0.901111	0	0
194.639359	0.795726	city	6	1	0.847463	0.847463	0	1	0	0	CorrectCommission	1.277399	0.934436	0	0
195.435165	0.795875	city	1	1	0.809058	0.809058	0	1	0	0	CorrectCommission	0.995007	0.962238	0	0
196.230942	0.795695	city	9	1	0.851483	0.851483	0	1	0	0	CorrectCommission	1.306961	0.983042	0	0
197.026688	0.795800	city	6	1	0.947036	0.947036	0	1	0	0	CorrectCommission	2.009571	0.995633	0	0
197.822495	0.795802	city	10	1	0.810217	0.810217	0	1	0	0	CorrectCommission	1.003532	0.999107	0	0
198.618301	0.795801	city	9	1	0.748098	0.748098	0	1	0	0	CorrectCommission	0.546760	0.992984	0	0
199.414093	0.795803	city	3	1	0.848145	0.848145	0	1	0	0	CorrectCommission	1.282418	0.977174	0	0
200.209930	0.795854	city	5	1	0.814244	0.814244	0	1	0	0	CorrectCommission	1.033136	0.951983	0	0
201.005753	0.795789	city	9	1	0.748385	0.748385	0	1	0	0	CorrectCommission	0.548870	0.918162	0	0
201.801544	0.795795	city	3	1	0.797863	0.797863	0	1	0	0	CorrectCommission	0.912685	0.876890	0	0
202.597427	0.795986	city	4	1	0.906561	0.906561	0	1	0	0	CorrectCommission	1.711952	0.829735	0	0
203.393326	0.795801	city	2	1	0.897137	0.897137	0	1	0	0	CorrectCommission	1.642655	0.778605	0	0
204.189072	0.795692	city	8	1	0.698155	0.698155	0	1	0	0	CorrectCommission	0.179527	0.725669	0	0
204.984756	0.795693	mountain	10	1	0.616701	0.616701	0	0	1	0	CommissionError	0.419411	0.673212	1	0
205.780518	0.795806	city	5	1	0.698363	0.698363	0	1	0	0	CorrectCommission	0.181057	0.623382	1	0
206.576309	0.795801	city	9	1	0.598902	0.598902	0	1	0	0	CorrectCommission	0.550290	0.578026	1	0
207.372116	0.795798	city	4	1	0.649373	0.649373	0	1	0	0	CorrectCommission	0.179171	0.538535	1	0
208.168030	0.796021	city	5	1	0.648774	0.648774	0	1	0	0	CorrectCommission	0.183574	0.505751	1	0
208.963882	0.795692	city	10	1	0.648819	0.648819	0	1	0	0	CorrectCommission	0.183243	0.479921	1	0
209.759598	0.795749	city	8	1	0.797790	0.797790	0	1	0	0	CorrectCommission	0.912154	0.460813	1	0
210.555359	0.795749	city	3	1	0.612549	0.612549	0	1	0	0	CorrectCommission	0.449941	0.447807	1	0
211.351181	0.795905	city	6	1	0.714166	0.714166	0	1	0	0	CorrectCommission	0.297258	0.440146	1	0
212.146973	0.795698	city	5	1	0.648547	0.648547	0	1	0	0	CorrectCommission	0.185246	0.437065	1	0
212.942764	0.795858	mountain	3	0	0.000000	0.718107	1	0	0	0	CorrectOmission	0.326240	0.437981	1	0
213.738571	0.795757	city	9	1	0.797841	0.797841	0	1	0	0	CorrectCommission	0.912526	0.442566	1	0
214.534439	0.796004	city	10	1	0.762740	0.762740	0	1	0	0	CorrectCommission	0.654425	0.450748	1	0
215.330246	0.795586	city	5	1	0.698150	0.698150	0	1	0	0	CorrectCommission	0.179490	0.462699	1	0
216.126038	0.796016	city	3	1	0.748113	0.748113	0	1	0	0	CorrectCommission	0.546869	0.478649	1	0
216.921875	0.795646	city	10	1	0.714514	0.714514	0	1	0	0	CorrectCommission	0.299815	0.498673	1	0
217.717682	0.795958	city	1	1	0.698333	0.698333	0	1	0	0	CorrectCommission	0.180840	0.522533	1	0
218.513443	0.795585	city	2	1	0.648878	0.648878	0	1	0	0	CorrectCommission	0.182806	0.549549	1	0
219.309143	0.795804	city	6	1	0.760761	0.760761	0	1	0	0	CorrectCommission	0.639872	0.578500	1	0
220.105057	0.796015	city	1	1	0.748243	0.748243	0	1	0	0	CorrectCommission	0.547827	0.607685	1	0
220.900848	0.795582	city	4	1	0.747846	0.747846	0	1	0	0	CorrectCommission	0.544908	0.635100	1	0
221.696686	0.796076	city	3	1	0.603788	0.603788	0	1	0	0	CorrectCommission	0.514360	0.658724	1	0
222.492477	0.795529	city	6	1	0.563843	0.563843	0	1	0	0	CorrectCommission	0.808079	0.676801	1	0
223.288147	0.795801	city	10	1	0.450013	0.450013	0	1	0	0	CorrectCommission	1.645081	0.688127	1	0
224.083954	0.795800	city	2	1	0.499418	0.499418	0	1	0	0	CorrectCommission	1.281803	0.692257	1	0
224.879745	0.795804	mountain	3	1	0.462023	0.462023	0	0	1	0	CommissionError	1.556769	0.689643	1	0
225.675552	0.795802	city	5	1	0.648611	0.648611	0	1	0	0	CorrectCommission	0.184771	0.681522	1	0
226.471375	0.795848	city	4	1	0.762006	0.762006	0	1	0	0	CorrectCommission	0.649030	0.669769	1	0
227.267288	0.795973	city	7	1	0.653516	0.653516	0	1	0	0	CorrectCommission	0.148706	0.656550	1	0
228.063171	0.795801	city	4	1	0.698632	0.698632	0	1	0	0	CorrectCommission	0.183035	0.644110	1	0
228.858871	0.795586	city	8	1	0.661715	0.661715	0	1	0	0	CorrectCommission	0.088418	0.634441	1	0
229.654617	0.795908	city	4	1	0.714645	0.714645	0	1	0	0	CorrectCommission	0.300777	0.629151	1	0
230.450409	0.795692	city	3	1	0.847601	0.847601	0	1	0	0	CorrectCommission	1.278413	0.629373	1	0
231.246155	0.795802	city	6	1	0.800675	0.800675	0	1	0	0	CorrectCommission	0.933365	0.635748	1	0
232.042068	0.796020	mountain	9	0	0.000000	0.774743	1	0	0	0	CorrectOmission	0.742688	0.648520	1	0
232.837875	0.795582	city	1	1	0.698235	0.698235	0	1	0	0	CorrectCommission	0.180118	0.667535	1	0
233.633560	0.795806	city	3	1	0.499580	0.499580	0	1	0	0	CorrectCommission	1.280610	0.692274	1	0
234.429367	0.795798	city	5	1	0.648950	0.648950	0	1	0	0	CorrectCommission	0.182277	0.721792	0	0
235.225174	0.795819	city	7	1	0.619219	0.619219	0	1	0	0	CorrectCommission	0.400897	0.754775	0	0
236.020981	0.795785	mountain	2	0	0.000000	0.662213	1	0	0	0	CorrectOmission	0.084758	0.789482	0	0
236.816772	0.795806	city	1	1	0.748230	0.748230	0	1	0	0	CorrectCommission	0.547730	0.823838	0	0
237.612625	0.795906	city	5	1	0.847566	0.847566	0	1	0	0	CorrectCommission	1.278156	0.855570	0	0
238.408539	0.795911	city	4	1	0.847546	0.847546	0	1	0	0	CorrectCommission	1.278013	0.882453	0	0
239.204346	0.795693	city	6	1	0.847534	0.847534	0	1	0	0	CorrectCommission	1.277920	0.902575	0	0
240.000031	0.795694	mountain	8	0	0.000000	0.921423	1	0	0	0	CorrectOmission	1.821237	0.914551	0	0
240.795792	0.795826	city	6	1	0.900641	0.900641	0	1	0	0	CorrectCommission	1.668424	0.917660	0	0
241.591614	0.795811	city	1	1	0.616613	0.616613	0	1	0	0	CorrectCommission	0.420056	0.911939	0	0
242.387436	0.795819	city	2	1	0.599348	0.599348	0	1	0	0	CorrectCommission	0.547005	0.898105	0	0
243.183212	0.795747	city	9	1	0.856726	0.856726	0	1	0	0	CorrectCommission	1.345513	0.877383	0	0
243.978989	0.795804	city	5	1	0.698576	0.698576	0	1	0	0	CorrectCommission	0.182627	0.851279	0	0
244.774796	0.795802	city	8	1	0.748134	0.748134	0	1	0	0	CorrectCommission	0.547026	0.821448	0	0
245.570648	0.795911	mountain	6	0	0.000000	0.806265	1	0	0	0	CorrectOmission	0.974472	0.789440	0	0
246.366455	0.795692	city	5	1	0.847838	0.847838	0	1	0	0	CorrectCommission	1.280158	0.756620	0	0
247.162247	0.795911	city	7	1	0.847719	0.847719	0	1	0	0	CorrectCommission	1.279281	0.724111	0	1
247.958054	0.795695	city	2	1	0.648939	0.648939	0	1	0	0	CorrectCommission	0.182359	0.692734	1	1
248.753799	0.795802	city	10	1	0.608222	0.608222	0	1	0	0	CorrectCommission	0.481760	0.663088	1	1
249.549652	0.795908	city	8	1	0.648923	0.648923	0	1	0	0	CorrectCommission	0.182480	0.635522	1	1
250.345459	0.795692	city	4	1	0.608086	0.608086	0	1	0	0	CorrectCommission	0.482757	0.610238	1	1
251.141205	0.795804	city	10	1	0.555520	0.555520	0	1	0	0	CorrectCommission	0.869277	0.587346	1	1
251.937012	0.795798	city	9	1	0.598932	0.598932	0	1	0	0	CorrectCommission	0.550065	0.566982	1	1
252.732910	0.796022	city	10	1	0.649085	0.649085	0	1	0	0	CorrectCommission	0.181286	0.549396	1	1
253.528717	0.795585	city	7	1	0.798014	0.798014	0	1	0	0	CorrectCommission	0.913796	0.535008	1	1
254.324463	0.795909	mountain	1	0	0.000000	0.803159	1	0	0	0	CorrectOmission	0.951627	0.524370	1	1
255.120270	0.795694	city	10	1	0.748042	0.748042	0	1	0	0	CorrectCommission	0.546350	0.518150	1	1
255.916122	0.796018	city	9	1	0.716185	0.716185	0	1	0	0	CorrectCommission	0.312104	0.516990	1	1
256.711914	0.795584	city	7	1	0.658024	0.658024	0	1	0	0	CorrectCommission	0.115560	0.521301	1	1
257.507690	0.795963	city	6	1	0.698986	0.698986	0	1	0	0	CorrectCommission	0.185639	0.531123	1	1
258.303528	0.795704	city	7	1	0.699249	0.699249	0	1	0	0	CorrectCommission	0.187569	0.546014	1	1
259.099274	0.795805	city	5	1	0.710394	0.710394	0	1	0	0	CorrectCommission	0.269519	0.565019	1	1
259.895050	0.795731	city	10	1	0.750513	0.750513	0	1	0	0	CorrectCommission	0.564522	0.586754	1	1
260.690826	0.795808	city	5	1	0.605586	0.605586	0	1	0	0	CorrectCommission	0.501138	0.609567	1	1
261.486633	0.795831	mountain	1	0	0.000000	0.781402	1	0	0	0	CorrectOmission	0.791648	0.631822	1	1
262.282440	0.795769	city	10	1	0.906798	0.906798	0	1	0	0	CorrectCommission	1.713698	0.652119	1	1
263.078217	0.795802	city	3	1	0.610613	0.610613	0	1	0	0	CorrectCommission	0.464173	0.669479	1	1
263.874054	0.795864	city	4	1	0.500784	0.500784	0	1	0	0	CorrectCommission	1.271758	0.683478	1	1
264.669861	0.795738	city	2	1	0.515278	0.515278	0	1	0	0	CorrectCommission	1.165182	0.694134	1	1
265.465729	0.796020	mountain	3	0	0.000000	0.659058	1	0	0	0	CorrectOmission	0.107958	0.701803	1	1
266.261597	0.795692	city	2	1	0.762300	0.762300	0	1	0	0	CorrectCommission	0.651191	0.706921	0	1
267.057312	0.795731	city	3	1	0.655182	0.655182	0	1	0	0	CorrectCommission	0.136458	0.709750	0	1
267.853058	0.795795	city	5	1	0.698906	0.698906	0	1	0	0	CorrectCommission	0.185053	0.710247	0	1
268.648865	0.795772	city	3	1	0.608022	0.608022	0	1	0	0	CorrectCommission	0.483226	0.707988	0	1
269.444763	0.796018	mountain	5	0	0.000000	0.744543	1	0	0	0	CorrectOmission	0.520622	0.702289	1	1
270.240662	0.795799	mountain	8	0	0.000000	0.921514	1	0	0	0	CorrectOmission	1.821905	0.692418	1	1
271.036346	0.795589	city	7	1	0.951981	0.951981	0	1	0	0	CorrectCommission	2.045929	0.677799	1	1
271.832062	0.795804	city	3	1	0.648988	0.648988	0	1	0	0	CorrectCommission	0.182002	0.658301	1	1
272.627869	0.795815	mountain	10	0	0.000000	0.727810	1	0	0	0	CorrectOmission	0.397584	0.634385	1	1
273.423676	0.795845	city	8	1	0.856285	0.856285	0	1	0	0	CorrectCommission	1.342268	0.607025	1	1
274.219543	0.795847	city	4	1	0.702249	0.702249	0	1	0	0	CorrectCommission	0.209634	0.577619	1	1
275.015320	0.795695	city	9	1	0.698385	0.698385	0	1	0	0	CorrectCommission	0.181219	0.547820	1	1
275.811096	0.795906	city	3	1	0.648628	0.648628	0	1	0	0	CorrectCommission	0.184646	0.519243	1	1
276.606964	0.795802	mountain	9	0	0.000000	0.683392	1	0	0	0	CorrectOmission	0.070971	0.493294	1	1
277.402771	0.795804	mountain	3	0	0.000000	0.738074	1	0	0	0	CorrectOmission	0.473057	0.471039	1	1
278.198517	0.795689	city	7	1	0.748076	0.748076	0	1	0	0	CorrectCommission	0.546599	0.453179	1	1
278.994263	0.795816	city	8	1	0.648796	0.648796	0	1	0	0	CorrectCommission	0.183414	0.440157	1	1
279.790070	0.795828	city	5	1	0.798406	0.798406	0	1	0	0	CorrectCommission	0.916678	0.432282	1	1
280.585876	0.795762	city	7	1	0.749010	0.749010	0	1	0	0	CorrectCommission	0.553467	0.429910	1	1
281.381653	0.795806	city	4	1	0.649175	0.649175	0	1	0	0	CorrectCommission	0.180628	0.433575	1	1
282.177490	0.795837	city	5	1	0.751616	0.751616	0	1	0	0	CorrectCommission	0.572627	0.444075	1	1
282.973297	0.795766	city	3	1	0.607928	0.607928	0	1	0	0	CorrectCommission	0.483920	0.462418	1	1
283.769073	0.795799	city	6	1	0.663285	0.663285	0	1	0	0	CorrectCommission	0.076872	0.489722	1	1
284.564972	0.796021	city	5	1	0.656219	0.656219	0	1	0	0	CorrectCommission	0.128831	0.527033	1	1
285.360901	0.795802	city	7	1	0.655136	0.655136	0	1	0	0	CorrectCommission	0.136793	0.575054	1	1
286.156586	0.795586	city	1	1	0.698875	0.698875	0	1	0	0	CorrectCommission	0.184823	0.633909	1	1
286.952271	0.795796	city	4	1	0.797744	0.797744	0	1	0	0	CorrectCommission	0.911816	0.702932	1	1
287.748108	0.795866	mountain	2	0	0.000000	0.823445	1	0	0	0	CorrectOmission	1.100798	0.780476	0	1
288.543915	0.795744	city	9	1	0.750860	0.750860	0	1	0	0	CorrectCommission	0.567073	0.863865	0	1
289.339691	0.795802	city	5	1	0.554871	0.554871	0	1	0	0	CorrectCommission	0.874054	0.949490	0	1
290.135468	0.795795	city	8	1	0.612094	0.612094	0	1	0	0	CorrectCommission	0.453288	1.032907	0	1
290.931274	0.795811	city	2	1	0.598923	0.598923	0	1	0	0	CorrectCommission	0.550130	1.109196	0	1
291.727203	0.796011	city	10	1	0.461773	0.461773	0	1	0	0	CorrectCommission	1.558606	1.173408	0	1
292.522980	0.795583	city	7	1	0.399893	0.399893	0	1	0	0	CorrectCommission	2.013619	1.221082	0	1
293.318695	0.795802	city	6	1	0.400026	0.400026	0	1	0	0	CorrectCommission	2.012642	1.248845	0	1
294.114594	0.796021	city	10	1	0.350945	0.350945	0	1	0	0	CorrectCommission	2.373537	1.254902	0	1
294.910400	0.795587	city	9	1	0.996578	0.996578	0	1	0	0	CorrectCommission	2.373858	1.239353	0	1
295.706085	0.795807	city	10	1	0.947494	0.947494	0	1	0	0	CorrectCommission	2.012940	1.204287	0	1
296.501892	0.795790	city	5	1	0.799578	0.799578	0	1	0	0	CorrectCommission	0.925300	1.153630	0	1
297.297699	0.795838	city	7	1	0.847564	0.847564	0	1	0	0	CorrectCommission	1.278146	1.092689	0	1
298.093567	0.795875	city	5	1	0.660612	0.660612	0	1	0	0	CorrectCommission	0.096530	1.027559	0	1
298.889404	0.795804	city	9	1	0.648525	0.648525	0	1	0	0	CorrectCommission	0.185402	0.964426	0	1
299.685150	0.795690	city	3	1	0.765748	0.765748	0	1	0	0	CorrectCommission	0.676545	0.908867	0	1
300.481018	0.796021	city	9	1	0.760600	0.760600	0	1	0	0	CorrectCommission	0.638693	0.865297	0	1
301.276825	0.795598	city	3	1	0.748171	0.748171	0	1	0	0	CorrectCommission	0.547302	0.836593	0	1
302.072510	0.795789	city	6	1	0.751781	0.751781	0	1	0	0	CorrectCommission	0.573845	0.823876	0	1
302.868317	0.795800	city	2	1	0.598912	0.598912	0	1	0	0	CorrectCommission	0.550210	0.826491	0	1
303.664215	0.796019	city	4	1	0.649142	0.649142	0	1	0	0	CorrectCommission	0.180872	0.842179	0	1
304.460022	0.795618	city	3	1	0.549048	0.549048	0	1	0	0	CorrectCommission	0.916864	0.867376	0	1
305.255737	0.795773	city	4	1	0.599435	0.599435	0	1	0	0	CorrectCommission	0.546365	0.897584	0	1
306.051575	0.795906	city	1	1	0.499471	0.499471	0	1	0	0	CorrectCommission	1.281409	0.927924	0	1
306.847382	0.795693	city	8	1	0.508470	0.508470	0	1	0	0	CorrectCommission	1.215242	0.953569	0	0
307.643127	0.795802	city	6	1	0.501824	0.501824	0	1	0	0	CorrectCommission	1.264110	0.970272	0	0
308.438904	0.795802	city	10	1	0.468731	0.468731	0	1	0	0	CorrectCommission	1.507444	0.974773	0	0
309.234711	0.795800	city	3	1	0.449785	0.449785	0	1	0	0	CorrectCommission	1.646753	0.965104	0	0
310.030640	0.796019	city	7	1	0.449681	0.449681	0	1	0	0	CorrectCommission	1.647524	0.940754	0	0
310.826447	0.795586	city	3	1	0.549398	0.549398	0	1	0	0	CorrectCommission	0.914293	0.902706	0	0
311.622131	0.795798	city	5	1	0.549208	0.549208	0	1	0	0	CorrectCommission	0.915689	0.853305	0	0
312.417938	0.795802	city	1	1	0.648751	0.648751	0	1	0	0	CorrectCommission	0.183745	0.795933	0	0
313.213715	0.795804	city	3	1	0.401540	0.401540	0	1	0	0	CorrectCommission	2.001506	0.734697	0	0
314.009521	0.795798	city	5	1	0.648620	0.648620	0	1	0	0	CorrectCommission	0.184703	0.673941	1	0
314.805389	0.795912	city	1	1	0.666737	0.666737	0	1	0	0	CorrectCommission	0.051493	0.617915	1	0
315.601288	0.795911	city	9	1	0.667785	0.667785	0	1	0	0	CorrectCommission	0.043786	0.570317	1	0
316.397064	0.795644	city	4	1	0.707580	0.707580	0	1	0	0	CorrectCommission	0.248832	0.533998	1	0
317.192780	0.795742	city	1	1	0.649002	0.649002	0	1	0	0	CorrectCommission	0.181895	0.510772	1	0
317.988556	0.795836	city	8	1	0.648722	0.648722	0	1	0	0	CorrectCommission	0.183953	0.501375	1	0
318.784363	0.795771	city	7	1	0.705663	0.705663	0	1	0	0	CorrectCommission	0.234737	0.505506	1	0
319.580139	0.795795	city	8	1	0.601713	0.601713	0	1	0	0	CorrectCommission	0.529615	0.521975	1	0
320.375946	0.795806	mountain	4	0	0.000000	0.681464	1	0	0	0	CorrectOmission	0.056794	0.548898	1	0
321.171753	0.795836	city	3	1	0.799138	0.799138	0	1	0	0	CorrectCommission	0.922062	0.583968	1	0
321.967682	0.795981	city	6	1	0.808960	0.808960	0	1	0	0	CorrectCommission	0.994283	0.624613	1	0
322.763458	0.795584	city	4	1	0.748301	0.748301	0	1	0	0	CorrectCommission	0.548258	0.668251	1	0
323.559143	0.795800	city	3	1	0.598981	0.598981	0	1	0	0	CorrectCommission	0.549708	0.712401	0	0
324.354980	0.795877	city	9	1	0.549132	0.549132	0	1	0	0	CorrectCommission	0.916254	0.754805	0	0
325.150787	0.795731	city	1	1	0.601148	0.601148	0	1	0	0	CorrectCommission	0.533772	0.793499	0	0
325.946564	0.795796	city	10	1	0.549161	0.549161	0	1	0	0	CorrectCommission	0.916033	0.826913	0	0
326.742340	0.795805	city	4	1	0.459329	0.459329	0	1	0	0	CorrectCommission	1.576575	0.853915	0	0
327.538177	0.795840	mountain	5	1	0.598922	0.598922	0	0	1	0	CommissionError	0.550143	0.873916	0	0
328.334045	0.795868	city	4	1	0.799676	0.799676	0	1	0	0	CorrectCommission	0.926016	0.886996	0	0
329.129822	0.795712	city	5	1	0.847466	0.847466	0	1	0	0	CorrectCommission	1.277420	0.893889	0	0
329.925568	0.795780	city	8	1	0.859278	0.859278	0	1	0	0	CorrectCommission	1.364277	0.896009	0	0
330.721375	0.795805	city	7	1	0.864045	0.864045	0	1	0	0	CorrectCommission	1.399332	0.895289	0	0
331.517273	0.796021	mountain	3	0	0.000000	0.773771	1	0	0	0	CorrectOmission	0.735537	0.894027	0	0
332.313141	0.795693	city	8	1	0.698447	0.698447	0	1	0	0	CorrectCommission	0.181677	0.894567	0	0
333.108917	0.795910	city	3	1	0.748068	0.748068	0	1	0	0	CorrectCommission	0.546539	0.898925	0	0
333.904694	0.795586	mountain	8	0	0.000000	0.795262	1	0	0	0	CorrectOmission	0.893562	0.908432	0	0
334.700439	0.795909	mountain	9	0	0.000000	0.807666	1	0	0	0	CorrectOmission	0.984768	0.923456	0	0
335.496338	0.795910	city	9	1	0.752914	0.752914	0	1	0	0	CorrectCommission	0.582177	0.943254	0	0
336.292084	0.795584	city	10	1	0.598643	0.598643	0	1	0	0	CorrectCommission	0.552192	0.965982	0	0
337.087799	0.795824	city	4	1	0.748592	0.748592	0	1	0	0	CorrectCommission	0.550395	0.988865	0	0
337.883636	0.795887	city	1	1	0.549139	0.549139	0	1	0	0	CorrectCommission	0.916198	1.008616	0	0
338.679443	0.795695	city	7	1	0.564851	0.564851	0	1	0	0	CorrectCommission	0.800669	1.021913	0	0
339.475281	0.796019	city	2	1	0.399975	0.399975	0	1	0	0	CorrectCommission	2.013013	1.026012	0	0
340.271088	0.795582	city	10	1	0.350008	0.350008	0	1	0	0	CorrectCommission	2.380428	1.019209	0	0
341.066833	0.795912	city	9	1	0.996790	0.996790	0	1	0	0	CorrectCommission	2.375411	1.001223	0	0
341.862762	0.795910	city	8	1	0.848084	0.848084	0	1	0	0	CorrectCommission	1.281968	0.973262	0	0
342.658508	0.795587	city	2	1	0.751963	0.751963	0	1	0	0	CorrectCommission	0.575184	0.937874	0	0
343.454254	0.795906	city	10	1	0.699175	0.699175	0	1	0	0	CorrectCommission	0.187029	0.898521	0	0
344.250031	0.795695	city	8	1	0.648525	0.648525	0	1	0	0	CorrectCommission	0.185404	0.859014	0	0
345.045807	0.795836	city	5	1	0.598904	0.598904	0	1	0	0	CorrectCommission	0.550270	0.822949	0	0
345.841644	0.795816	city	4	1	0.699976	0.699976	0	1	0	0	CorrectCommission	0.192920	0.793167	0	0
346.637421	0.795754	city	9	1	0.598873	0.598873	0	1	0	0	CorrectCommission	0.550503	0.771480	0	0
347.433197	0.795801	city	3	1	0.549334	0.549334	0	1	0	0	CorrectCommission	0.914767	0.758521	0	0
348.229065	0.795909	city	2	1	0.598892	0.598892	0	1	0	0	CorrectCommission	0.550361	0.753861	0	0
349.024902	0.795801	city	5	1	0.797879	0.797879	0	1	0	0	CorrectCommission	0.912805	0.756254	0	0
349.820679	0.795719	city	3	1	0.748296	0.748296	0	1	0	0	CorrectCommission	0.548215	0.763935	0	0
350.616425	0.795773	city	5	1	0.809779	0.809779	0	1	0	0	CorrectCommission	1.000308	0.774948	0	0
351.412201	0.795803	city	3	1	0.850583	0.850583	0	1	0	0	CorrectCommission	1.300339	0.787395	0	0
352.208038	0.795846	city	9	1	0.799008	0.799008	0	1	0	0	CorrectCommission	0.921109	0.799628	0	0
353.003815	0.795757	city	2	1	0.768502	0.768502	0	1	0	0	CorrectCommission	0.696796	0.810346	0	0
353.799622	0.795858	city	1	1	0.714520	0.714520	0	1	0	0	CorrectCommission	0.299862	0.818563	0	0
354.595459	0.795769	city	4	1	0.549370	0.549370	0	1	0	0	CorrectCommission	0.914497	0.823552	0	0
355.391327	0.795997	city	6	1	0.553850	0.553850	0	1	0	0	CorrectCommission	0.881559	0.824758	0	0
356.187134	0.795586	city	8	1	0.499699	0.499699	0	1	0	0	CorrectCommission	1.279732	0.821797	0	0
356.982819	0.795801	mountain	2	0	0.000000	0.552468	1	0	0	0	CorrectOmission	0.891722	0.814397	0	0
357.778625	0.795804	mountain	7	0	0.000000	0.667281	1	0	0	0	CorrectOmission	0.047490	0.802474	0	0
358.574432	0.795835	city	4	1	0.799266	0.799266	0	1	0	0	CorrectCommission	0.923003	0.786206	0	0
359.370270	0.795833	mountain	4	0	0.000000	0.903548	1	0	0	0	CorrectOmission	1.689796	0.766036	0	0
360.166046	0.795735	city	7	1	0.897480	0.897480	0	1	0	0	CorrectCommission	1.645176	0.742758	0	0
360.961823	0.795803	city	4	1	0.698414	0.698414	0	1	0	0	CorrectCommission	0.181433	0.717512	0	0
361.757721	0.796016	city	8	1	0.707526	0.707526	0	1	0	0	CorrectCommission	0.248430	0.691720	1	0
362.553650	0.795801	city	2	1	0.707562	0.707562	0	1	0	0	CorrectCommission	0.248701	0.666918	1	0
363.349335	0.795584	city	1	1	0.765692	0.765692	0	1	0	0	CorrectCommission	0.676131	0.644675	1	0
364.145050	0.795858	mountain	4	0	0.000000	0.780487	1	0	0	0	CorrectOmission	0.784919	0.626483	1	0
364.940857	0.795746	city	8	1	0.748056	0.748056	0	1	0	0	CorrectCommission	0.546453	0.613641	1	0
365.736633	0.795803	city	10	1	0.664509	0.664509	0	1	0	0	CorrectCommission	0.067877	0.607213	1	0
366.532440	0.795801	city	1	1	0.748451	0.748451	0	1	0	0	CorrectCommission	0.549356	0.608024	1	1
367.328247	0.795820	city	3	1	0.598930	0.598930	0	1	0	0	CorrectCommission	0.550078	0.616613	1	1
368.124054	0.795786	city	5	1	0.813983	0.813983	0	1	0	0	CorrectCommission	1.031222	0.633285	1	1
368.919830	0.795798	city	7	1	0.797795	0.797795	0	1	0	0	CorrectCommission	0.912185	0.658071	1	1
369.715698	0.795911	city	1	1	0.658473	0.658473	0	1	0	0	CorrectCommission	0.112258	0.690711	1	1
370.511505	0.795695	city	10	1	0.698732	0.698732	0	1	0	0	CorrectCommission	0.183773	0.730600	0	1
371.307251	0.795801	city	9	1	0.605366	0.605366	0	1	0	0	CorrectCommission	0.502758	0.776699	0	1
372.103088	0.795909	city	6	1	0.600105	0.600105	0	1	0	0	CorrectCommission	0.541444	0.827512	0	1
372.898926	0.795758	city	9	1	0.560170	0.560170	0	1	0	0	CorrectCommission	0.835084	0.881121	0	1
373.694672	0.795737	city	5	1	0.449664	0.449664	0	1	0	0	CorrectCommission	1.647645	0.935234	0	1
374.490448	0.795800	city	3	1	0.549161	0.549161	0	1	0	0	CorrectCommission	0.916034	0.987301	0	1
375.286255	0.795803	city	1	1	0.515357	0.515357	0	1	0	0	CorrectCommission	1.164598	1.034701	0	1
376.082062	0.795802	city	2	1	0.463318	0.463318	0	1	0	0	CorrectCommission	1.547244	1.074835	0	1
376.877960	0.796018	city	9	1	0.500386	0.500386	0	1	0	0	CorrectCommission	1.274679	1.105314	0	1
377.673798	0.795644	city	3	1	0.598709	0.598709	0	1	0	0	CorrectCommission	0.551708	1.124144	0	1
378.469482	0.795749	city	8	1	0.598926	0.598926	0	1	0	0	CorrectCommission	0.550109	1.129905	0	1
379.265320	0.795902	city	1	1	0.350202	0.350202	0	1	0	0	CorrectCommission	2.378998	1.121832	0	1
380.061127	0.795701	city	3	1	0.352434	0.352434	0	1	0	0	CorrectCommission	2.362583	1.099916	0	1
380.856964	0.796014	city	7	1	0.500736	0.500736	0	1	0	0	CorrectCommission	1.272107	1.064990	0	1
381.652771	0.795583	city	5	1	0.449530	0.449530	0	1	0	0	CorrectCommission	1.648634	1.018654	0	1
382.448456	0.795802	city	1	1	0.648996	0.648996	0	1	0	0	CorrectCommission	0.181944	0.963116	0	1
383.244263	0.795800	city	4	1	0.648667	0.648667	0	1	0	0	CorrectCommission	0.184365	0.901084	0	1
384.040100	0.795837	city	3	1	0.549616	0.549616	0	1	0	0	CorrectCommission	0.912690	0.835450	0	1
384.835907	0.795782	city	7	1	0.797816	0.797816	0	1	0	0	CorrectCommission	0.912344	0.769101	0	1
385.631744	0.795896	mountain	9	0	0.000000	0.831309	1	0	0	0	CorrectOmission	1.158618	0.704737	0	1
386.427551	0.795731	city	8	1	0.748701	0.748701	0	1	0	0	CorrectCommission	0.551194	0.644695	1	1
387.223328	0.795806	city	3	1	0.648599	0.648599	0	1	0	0	CorrectCommission	0.184865	0.590864	1	1
388.019104	0.795756	mountain	6	0	0.000000	0.651529	1	0	0	0	CorrectOmission	0.163320	0.544580	1	1
388.815002	0.796022	mountain	2	0	0.000000	0.702869	1	0	0	0	CorrectOmission	0.214187	0.506584	1	1
389.610901	0.795801	city	6	1	0.747996	0.747996	0	1	0	0	CorrectCommission	0.546013	0.477014	1	1
390.406586	0.795587	mountain	5	0	0.000000	0.732289	1	0	0	0	CorrectOmission	0.430517	0.455450	1	1
391.202362	0.795961	city	10	1	0.702996	0.702996	0	1	0	0	CorrectCommission	0.215123	0.441001	1	1
391.998169	0.795643	city	3	1	0.707366	0.707366	0	1	0	0	CorrectCommission	0.247256	0.432448	1	1
392.793884	0.795797	city	9	1	0.648883	0.648883	0	1	0	0	CorrectCommission	0.182775	0.428416	1	1
393.589691	0.795803	city	7	1	0.748268	0.748268	0	1	0	0	CorrectCommission	0.548010	0.427561	1	1
394.385559	0.795910	city	10	1	0.700146	0.700146	0	1	0	0	CorrectCommission	0.194166	0.428757	1	1
395.181366	0.795737	mountain	8	0	0.000000	0.799093	1	0	0	0	CorrectOmission	0.921729	0.431264	1	1
395.977112	0.795761	city	7	1	0.847851	0.847851	0	1	0	0	CorrectCommission	1.280254	0.434762	1	1
396.772888	0.795802	city	8	1	0.649164	0.649164	0	1	0	0	CorrectCommission	0.180707	0.439336	1	1
397.568756	0.795906	mountain	5	0	0.000000	0.688549	1	0	0	0	CorrectOmission	0.108892	0.445388	1	1
398.364594	0.795801	city	5	1	0.757740	0.757740	0	1	0	0	CorrectCommission	0.617660	0.453403	1	1
399.160461	0.795911	city	2	1	0.648473	0.648473	0	1	0	0	CorrectCommission	0.185789	0.463712	1	1
399.956207	0.795589	city	8	1	0.648675	0.648675	0	1	0	0	CorrectCommission	0.184306	0.476311	1	1
400.751923	0.795800	city	9	1	0.660426	0.660426	0	1	0	0	CorrectCommission	0.097894	0.490695	1	1
401.547729	0.795831	city	10	1	0.649140	0.649140	0	1	0	0	CorrectCommission	0.180881	0.505831	1	1
402.343536	0.795772	city	1	1	0.648717	0.648717	0	1	0	0	CorrectCommission	0.183995	0.520283	1	1
403.139313	0.795801	city	7	1	0.798064	0.798064	0	1	0	0	CorrectCommission	0.914166	0.532444	1	1
403.935120	0.795801	city	6	1	0.862424	0.862424	0	1	0	0	CorrectCommission	1.387412	0.540805	1	1
404.730927	0.795838	city	7	1	0.809267	0.809267	0	1	0	0	CorrectCommission	0.996542	0.544275	1	1
405.526794	0.795872	city	9	1	0.797791	0.797791	0	1	0	0	CorrectCommission	0.912156	0.542397	1	1
406.322571	0.795694	city	6	1	0.797732	0.797732	0	1	0	0	CorrectCommission	0.911725	0.535419	1	1
407.118317	0.795798	city	3	1	0.648818	0.648818	0	1	0	0	CorrectCommission	0.183254	0.524232	1	1
407.914154	0.795850	city	10	1	0.615588	0.615588	0	1	0	0	CorrectCommission	0.427590	0.510217	1	1
408.709930	0.795759	city	5	1	0.698647	0.698647	0	1	0	0	CorrectCommission	0.183148	0.494950	1	1
409.505737	0.795799	city	2	1	0.663168	0.663168	0	1	0	0	CorrectCommission	0.077732	0.479945	1	1
410.301575	0.795910	city	3	1	0.648804	0.648804	0	1	0	0	CorrectCommission	0.183353	0.466404	1	1
411.097382	0.795694	city	9	1	0.698355	0.698355	0	1	0	0	CorrectCommission	0.180998	0.455086	1	1
411.893188	0.795908	city	3	1	0.549160	0.549160	0	1	0	0	CorrectCommission	0.916042	0.446349	1	1
412.688995	0.795696	city	10	1	0.552632	0.552632	0	1	0	0	CorrectCommission	0.890513	0.440126	1	1
413.484772	0.795908	city	3	1	0.698376	0.698376	0	1	0	0	CorrectCommission	0.181152	0.436171	1	1
414.280609	0.795743	city	6	1	0.760105	0.760105	0	1	0	0	CorrectCommission	0.635052	0.434238	1	1
415.076477	0.795970	city	5	1	0.659573	0.659573	0	1	0	0	CorrectCommission	0.104166	0.434224	1	1
415.872253	0.795584	city	3	1	0.698314	0.698314	0	1	0	0	CorrectCommission	0.180699	0.436371	1	1
416.667999	0.795909	city	6	1	0.598866	0.598866	0	1	0	0	CorrectCommission	0.550550	0.441325	1	1
417.463806	0.795696	city	9	1	0.598949	0.598949	0	1	0	0	CorrectCommission	0.549941	0.450160	1	1
418.259552	0.795799	mountain	1	1	0.549478	0.549478	0	0	1	0	CommissionError	0.913709	0.464279	1	1
419.055389	0.795909	city	2	1	0.698363	0.698363	0	1	0	0	CorrectCommission	0.181059	0.485217	1	1
419.851318	0.795912	mountain	10	0	0.000000	0.733329	1	0	0	0	CorrectOmission	0.438163	0.514401	1	1
420.647064	0.795623	city	2	1	0.714067	0.714067	0	1	0	0	CorrectCommission	0.296528	0.552750	1	1
421.442810	0.795870	city	4	1	0.700270	0.700270	0	1	0	0	CorrectCommission	0.195080	0.600386	1	1
422.238617	0.795708	city	5	1	0.698577	0.698577	0	1	0	0	CorrectCommission	0.182634	0.656354	1	1
423.034454	0.796004	city	7	1	0.648609	0.648609	0	1	0	0	CorrectCommission	0.184785	0.718465	0	1
423.830261	0.795587	city	8	1	0.558939	0.558939	0	1	0	0	CorrectCommission	0.844138	0.783321	0	1
424.626068	0.796016	mountain	7	1	0.556357	0.556357	0	0	1	0	CommissionError	0.863124	0.846579	0	1
425.421875	0.795583	city	7	1	0.698163	0.698163	0	1	0	0	CorrectCommission	0.179590	0.903415	0	1
426.217621	0.795910	mountain	8	1	0.748047	0.748047	0	0	1	0	CommissionError	0.546391	0.949139	0	0
427.013428	0.795756	city	9	1	1.145909	1.145909	0	1	0	0	CorrectCommission	3.471898	0.979841	0	0
427.809204	0.795742	city	5	1	0.897383	0.897383	0	1	0	0	CorrectCommission	1.644467	0.992952	0	0
428.604980	0.795860	city	10	1	0.997257	0.997257	0	1	0	0	CorrectCommission	2.378850	0.987834	0	0
429.400787	0.795742	mountain	9	0	0.000000	0.895607	1	0	0	0	CorrectOmission	1.631404	0.965764	0	0
430.196564	0.795805	city	5	1	0.757548	0.757548	0	1	0	0	CorrectCommission	0.616250	0.929880	0	0
430.992371	0.795829	city	2	1	0.748199	0.748199	0	1	0	0	CorrectCommission	0.547505	0.884715	0	0
431.788239	0.795878	city	10	1	0.698375	0.698375	0	1	0	0	CorrectCommission	0.181148	0.835509	0	0
432.584015	0.795695	city	1	1	0.598846	0.598846	0	1	0	0	CorrectCommission	0.550698	0.787506	0	0
433.379761	0.795803	city	8	1	0.701729	0.701729	0	1	0	0	CorrectCommission	0.205811	0.745246	0	0
434.175568	0.795799	city	1	1	0.704845	0.704845	0	1	0	0	CorrectCommission	0.228723	0.712073	0	0
434.971375	0.795805	city	7	1	0.748705	0.748705	0	1	0	0	CorrectCommission	0.551222	0.689851	1	0
435.767242	0.795906	city	1	1	0.698754	0.698754	0	1	0	0	CorrectCommission	0.183931	0.678915	1	0
436.563019	0.795692	city	4	1	0.599269	0.599269	0	1	0	0	CorrectCommission	0.547591	0.678295	1	0
437.358765	0.795802	city	1	1	0.561161	0.561161	0	1	0	0	CorrectCommission	0.827800	0.686034	1	0
438.154602	0.795865	city	9	1	0.549583	0.549583	0	1	0	0	CorrectCommission	0.912931	0.699657	1	0
438.950531	0.795957	city	6	1	0.599221	0.599221	0	1	0	0	CorrectCommission	0.547943	0.716607	0	0
439.746338	0.795699	city	7	1	0.549492	0.549492	0	1	0	0	CorrectCommission	0.913601	0.734629	0	0
440.542084	0.795755	city	5	1	0.470373	0.470373	0	1	0	0	CorrectCommission	1.495372	0.751973	0	0
441.337860	0.795842	city	9	1	0.510588	0.510588	0	1	0	0	CorrectCommission	1.199666	0.767496	0	0
442.133636	0.795695	city	3	1	0.551351	0.551351	0	1	0	0	CorrectCommission	0.899932	0.780622	0	0
442.929413	0.795838	city	6	1	0.698387	0.698387	0	1	0	0	CorrectCommission	0.181231	0.791195	0	0
443.725250	0.795834	city	1	1	0.652264	0.652264	0	1	0	0	CorrectCommission	0.157916	0.799266	0	0
444.521149	0.795952	city	5	1	0.649891	0.649891	0	1	0	0	CorrectCommission	0.175359	0.804861	0	0
445.316895	0.795583	city	10	1	0.797774	0.797774	0	1	0	0	CorrectCommission	0.912032	0.807958	0	0
446.112610	0.795802	city	9	1	0.868637	0.868637	0	1	0	0	CorrectCommission	1.433098	0.808416	0	0
446.908417	0.795862	mountain	7	0	0.000000	0.909932	1	0	0	0	CorrectOmission	1.736738	0.806040	0	0
447.704224	0.795746	city	8	1	0.847792	0.847792	0	1	0	0	CorrectCommission	1.279820	0.800664	0	0
448.500122	0.796013	city	10	1	0.608353	0.608353	0	1	0	0	CorrectCommission	0.480790	0.792222	0	0
449.295929	0.795593	city	3	1	0.698284	0.698284	0	1	0	0	CorrectCommission	0.180473	0.780768	0	0
450.091614	0.795792	city	5	1	0.764889	0.764889	0	1	0	0	CorrectCommission	0.670228	0.766445	0	0
450.887390	0.795800	city	9	1	0.797880	0.797880	0	1	0	0	CorrectCommission	0.912813	0.749452	0	0
451.683228	0.795823	city	2	1	0.750869	0.750869	0	1	0	0	CorrectCommission	0.567136	0.730019	0	0
452.479065	0.795891	city	5	1	0.754657	0.754657	0	1	0	0	CorrectCommission	0.594989	0.708399	0	0
453.274963	0.795910	city	9	1	0.798096	0.798096	0	1	0	0	CorrectCommission	0.914404	0.684879	1	0
454.070740	0.795620	city	6	1	0.802368	0.802368	0	1	0	0	CorrectCommission	0.945815	0.659815	1	0
454.866425	0.795764	city	9	1	0.847543	0.847543	0	1	0	0	CorrectCommission	1.277987	0.633704	1	0
455.662262	0.795912	city	6	1	0.707929	0.707929	0	1	0	0	CorrectCommission	0.251395	0.607224	1	0
456.458069	0.795696	mountain	9	0	0.000000	0.704803	1	0	0	0	CorrectOmission	0.228410	0.581277	1	0
457.253815	0.795796	city	7	1	0.698443	0.698443	0	1	0	0	CorrectCommission	0.181647	0.556968	1	0
458.049622	0.795805	city	3	1	0.549128	0.549128	0	1	0	0	CorrectCommission	0.916282	0.535559	1	0
458.845428	0.795805	city	9	1	0.601722	0.601722	0	1	0	0	CorrectCommission	0.529550	0.518474	1	0
459.641266	0.795905	city	4	1	0.598881	0.598881	0	1	0	0	CorrectCommission	0.550443	0.507258	1	0
460.437195	0.795913	city	2	1	0.667271	0.667271	0	1	0	0	CorrectCommission	0.047565	0.503481	1	0
461.232941	0.795582	city	8	1	0.750169	0.750169	0	1	0	0	CorrectCommission	0.561990	0.508619	1	0
462.028656	0.795836	city	3	1	0.704709	0.704709	0	1	0	0	CorrectCommission	0.227718	0.523895	1	0
462.824463	0.795773	city	6	1	0.648600	0.648600	0	1	0	0	CorrectCommission	0.184853	0.550123	1	0
463.620239	0.795797	city	5	1	0.599047	0.599047	0	1	0	0	CorrectCommission	0.549220	0.587481	1	0
464.416046	0.795804	city	10	1	0.752828	0.752828	0	1	0	0	CorrectCommission	0.581542	0.635334	1	0
465.211823	0.795799	city	4	1	0.601895	0.601895	0	1	0	0	CorrectCommission	0.528281	0.692090	1	0
466.007629	0.795799	city	8	1	0.598877	0.598877	0	1	0	0	CorrectCommission	0.550469	0.755122	0	0
466.803467	0.795854	city	6	1	0.605799	0.605799	0	1	0	0	CorrectCommission	0.499573	0.820805	0	0
467.599365	0.795967	city	2	1	0.598758	0.598758	0	1	0	0	CorrectCommission	0.551343	0.884678	0	0
468.395142	0.795592	city	4	1	0.598653	0.598653	0	1	0	0	CorrectCommission	0.552119	0.941811	0	0
469.190857	0.795798	city	7	1	0.549585	0.549585	0	1	0	0	CorrectCommission	0.912922	0.987303	0	0
469.986633	0.795805	city	8	1	0.449725	0.449725	0	1	0	0	CorrectCommission	1.647196	1.016835	0	0
470.782440	0.795799	city	3	1	0.300487	0.300487	0	1	0	0	CorrectCommission	2.744558	1.027274	0	0
471.578247	0.795798	city	2	1	0.359770	0.359770	0	1	0	0	CorrectCommission	2.308640	1.017108	0	0
472.374054	0.795805	city	4	1	0.300743	0.300743	0	1	0	0	CorrectCommission	2.742670	0.986721	0	0
473.169952	0.796015	city	10	1	0.698528	0.698528	0	1	0	0	CorrectCommission	0.182272	0.938356	0	0
473.965759	0.795586	city	8	1	0.611012	0.611012	0	1	0	0	CorrectCommission	0.461243	0.875845	0	0
474.761566	0.796018	city	7	1	0.711740	0.711740	0	1	0	0	CorrectCommission	0.279416	0.803997	0	0
475.557373	0.795632	city	9	1	0.748526	0.748526	0	1	0	0	CorrectCommission	0.549911	0.727995	0	0
476.353088	0.795771	city	3	1	0.654955	0.654955	0	1	0	0	CorrectCommission	0.138129	0.652739	1	0
477.148865	0.795784	mountain	3	1	0.612701	0.612701	0	0	1	0	CommissionError	0.448823	0.582316	1	0
477.944702	0.795910	city	4	1	0.750536	0.750536	0	1	0	0	CorrectCommission	0.564688	0.519606	1	0
478.740509	0.795692	city	2	1	0.698228	0.698228	0	1	0	0	CorrectCommission	0.180065	0.466113	1	0
479.536285	0.795827	city	10	1	0.648900	0.648900	0	1	0	0	CorrectCommission	0.182648	0.422013	1	0
480.332123	0.795846	city	3	1	0.652395	0.652395	0	1	0	0	CorrectCommission	0.156949	0.386326	1	0
481.128021	0.795950	city	5	1	0.658382	0.658382	0	1	0	0	CorrectCommission	0.112925	0.357236	1	0
481.923798	0.795630	city	8	1	0.598679	0.598679	0	1	0	0	CorrectCommission	0.551926	0.332491	1	0
482.719482	0.795754	city	6	1	0.667654	0.667654	0	1	0	0	CorrectCommission	0.044745	0.309780	1	0
483.515320	0.795912	city	3	1	0.599375	0.599375	0	1	0	0	CorrectCommission	0.546808	0.287141	1	0
484.311127	0.795697	city	6	1	0.797775	0.797775	0	1	0	0	CorrectCommission	0.912042	0.263197	1	0
485.106873	0.795798	city	9	1	0.710316	0.710316	0	1	0	0	CorrectCommission	0.268949	0.237337	1	0
485.902679	0.795799	city	2	1	0.802743	0.802743	0	1	0	0	CorrectCommission	0.948568	0.209690	1	0
486.698517	0.795911	city	4	1	0.698352	0.698352	0	1	0	0	CorrectCommission	0.180977	0.180977	1	0
