onset	duration	trial_type	image_type	Press	ReactionTime	ReactionTime_Interpolated	CorrectOmission	CorrectCommission	CommissionError	OmissionError	response_type	nonsmoothVarianceTimeCourse	VarianceTimeCourse	In_the_Zone	Reward_trial
8.421738	0.795798	city	2	1	0.765020	0.765020	0	1	0	0	CorrectCommission	1.578857	1.578857	0	1
9.217648	0.796021	mountain	1	0	0.000000	0.714298	1	0	0	0	CorrectOmission	0.881008	1.514591	0	1
10.013449	0.795581	city	6	1	0.648535	0.648535	0	1	0	0	CorrectCommission	0.023780	1.453504	0	1
10.809142	0.795806	city	1	1	0.552690	0.552690	0	1	0	0	CorrectCommission	1.342445	1.398414	0	1
11.604947	0.795802	city	8	1	0.560482	0.560482	0	1	0	0	CorrectCommission	1.235233	1.351393	0	1
12.400857	0.796018	city	1	1	0.551206	0.551206	0	1	0	0	CorrectCommission	1.362863	1.313644	0	1
13.196657	0.795581	city	7	1	0.558868	0.558868	0	1	0	0	CorrectCommission	1.257443	1.285409	0	1
13.992357	0.795819	city	4	1	0.598909	0.598909	0	1	0	0	CorrectCommission	0.706550	1.266014	0	1
14.788158	0.795784	city	7	1	0.559112	0.559112	0	1	0	0	CorrectCommission	1.254090	1.254040	0	1
15.583953	0.795804	city	4	1	0.550906	0.550906	0	1	0	0	CorrectCommission	1.366983	1.247456	0	1
16.379808	0.795907	city	3	1	0.499400	0.499400	0	1	0	0	CorrectCommission	2.075619	1.243883	0	1
17.175718	0.795912	city	5	1	0.598783	0.598783	0	1	0	0	CorrectCommission	0.708281	1.240776	0	1
17.971519	0.795691	city	9	1	0.609944	0.609944	0	1	0	0	CorrectCommission	0.554724	1.235702	0	1
18.767212	0.795694	city	5	1	0.549040	0.549040	0	1	0	0	CorrectCommission	1.392662	1.226418	0	1
19.562969	0.795821	city	10	1	0.499695	0.499695	0	1	0	0	CorrectCommission	2.071557	1.211047	0	1
20.358772	0.795783	city	9	1	0.549200	0.549200	0	1	0	0	CorrectCommission	1.390463	1.188225	0	1
21.154566	0.795805	mountain	1	0	0.000000	0.565007	1	0	0	0	CorrectOmission	1.172984	1.157288	0	1
21.950367	0.795797	city	3	1	0.564202	0.564202	0	1	0	0	CorrectCommission	1.184055	1.118284	0	1
22.746220	0.795909	city	6	1	0.563871	0.563871	0	1	0	0	CorrectCommission	1.188613	1.072033	0	1
23.542023	0.795697	city	4	1	0.549348	0.549348	0	1	0	0	CorrectCommission	1.388415	1.020111	0	1
24.337879	0.796017	city	2	1	0.549556	0.549556	0	1	0	0	CorrectCommission	1.385555	0.964719	0	1
25.133736	0.795694	city	6	1	0.607784	0.607784	0	1	0	0	CorrectCommission	0.584444	0.908549	0	1
25.929482	0.795800	city	9	1	0.560898	0.560898	0	1	0	0	CorrectCommission	1.229506	0.854550	0	1
26.725338	0.795911	city	6	1	0.660900	0.660900	0	1	0	0	CorrectCommission	0.146350	0.805617	0	1
27.521086	0.795586	city	2	1	0.648388	0.648388	0	1	0	0	CorrectCommission	0.025797	0.764395	0	1
28.316780	0.795802	city	5	1	0.606446	0.606446	0	1	0	0	CorrectCommission	0.602852	0.732947	1	1
29.112690	0.796017	city	2	1	0.599540	0.599540	0	1	0	0	CorrectCommission	0.697869	0.712648	1	1
29.908493	0.795590	city	9	1	0.599037	0.599037	0	1	0	0	CorrectCommission	0.704778	0.704097	1	1
30.704185	0.795797	city	6	1	0.649053	0.649053	0	1	0	0	CorrectCommission	0.016644	0.707128	1	1
31.499987	0.795804	mountain	7	0	0.000000	0.676472	1	0	0	0	CorrectOmission	0.360588	0.720914	1	1
32.295898	0.796017	city	7	1	0.698479	0.698479	0	1	0	0	CorrectCommission	0.663372	0.744069	1	1
33.091724	0.795634	mountain	4	0	0.000000	0.732261	1	0	0	0	CorrectOmission	1.128157	0.774848	0	1
33.887421	0.795761	city	6	1	0.748360	0.748360	0	1	0	0	CorrectCommission	1.349647	0.811274	0	1
34.683197	0.795791	mountain	6	0	0.000000	0.717317	1	0	0	0	CorrectOmission	0.922545	0.851293	0	1
35.479099	0.796019	city	8	1	0.648917	0.648917	0	1	0	0	CorrectCommission	0.018521	0.892823	0	1
36.274902	0.795584	city	7	1	0.552946	0.552946	0	1	0	0	CorrectCommission	1.338922	0.933759	0	1
37.070610	0.795829	city	3	1	0.598901	0.598901	0	1	0	0	CorrectCommission	0.706660	0.971962	0	1
37.866467	0.795882	mountain	9	0	0.000000	0.586197	1	0	0	0	CorrectOmission	0.881444	1.005382	0	1
38.662285	0.795758	city	1	1	0.556041	0.556041	0	1	0	0	CorrectCommission	1.296335	1.032055	0	1
39.458035	0.795742	city	8	1	0.549641	0.549641	0	1	0	0	CorrectCommission	1.384394	1.050238	0	1
40.253857	0.795906	mountain	1	0	0.000000	0.548915	1	0	0	0	CorrectOmission	1.394372	1.058588	0	1
41.049660	0.795697	city	3	1	0.550030	0.550030	0	1	0	0	CorrectCommission	1.379039	1.056334	0	1
41.845520	0.796021	city	1	1	0.549149	0.549149	0	1	0	0	CorrectCommission	1.391161	1.043469	0	1
42.641426	0.795796	city	9	1	0.560799	0.560799	0	1	0	0	CorrectCommission	1.230874	1.020847	0	1
43.437225	0.795802	city	3	1	0.613050	0.613050	0	1	0	0	CorrectCommission	0.511982	0.990205	0	1
44.232937	0.795617	city	5	1	0.749815	0.749815	0	1	0	0	CorrectCommission	1.369670	0.954084	0	1
45.028664	0.795836	city	4	1	0.748538	0.748538	0	1	0	0	CorrectCommission	1.352094	0.915566	0	1
45.824570	0.795977	city	6	1	0.748088	0.748088	0	1	0	0	CorrectCommission	1.345908	0.877969	0	1
46.620392	0.795667	city	7	1	0.698457	0.698457	0	1	0	0	CorrectCommission	0.663065	0.844422	0	1
47.416069	0.795694	city	3	1	0.648495	0.648495	0	1	0	0	CorrectCommission	0.024330	0.817423	0	1
48.211845	0.795858	city	8	1	0.650279	0.650279	0	1	0	0	CorrectCommission	0.000221	0.798451	0	1
49.007648	0.795743	city	7	1	0.648595	0.648595	0	1	0	0	CorrectCommission	0.022946	0.787657	0	1
49.803528	0.796022	city	8	1	0.699013	0.699013	0	1	0	0	CorrectCommission	0.670712	0.783860	0	1
50.599331	0.795585	mountain	6	0	0.000000	0.699681	1	0	0	0	CorrectOmission	0.679907	0.784695	0	1
51.395023	0.795800	city	1	1	0.649970	0.649970	0	1	0	0	CorrectCommission	0.004034	0.787065	0	1
52.190826	0.795803	city	7	1	0.549249	0.549249	0	1	0	0	CorrectCommission	1.389782	0.787712	0	1
52.986645	0.795837	city	5	1	0.499554	0.499554	0	1	0	0	CorrectCommission	2.073506	0.783817	0	1
53.782448	0.795766	city	6	1	0.509023	0.509023	0	1	0	0	CorrectCommission	1.943229	0.773604	0	1
54.578259	0.795857	city	10	1	0.549312	0.549312	0	1	0	0	CorrectCommission	1.388919	0.756749	0	1
55.374115	0.795855	city	3	1	0.608167	0.608167	0	1	0	0	CorrectCommission	0.579164	0.734499	1	1
56.169888	0.795689	city	9	1	0.648514	0.648514	0	1	0	0	CorrectCommission	0.024063	0.709499	1	1
56.965687	0.795912	city	10	1	0.598922	0.598922	0	1	0	0	CorrectCommission	0.706371	0.685363	1	1
57.761494	0.795695	city	4	1	0.648636	0.648636	0	1	0	0	CorrectCommission	0.022384	0.666056	1	1
58.557240	0.795798	city	2	1	0.599006	0.599006	0	1	0	0	CorrectCommission	0.705211	0.655302	1	1
59.353043	0.795806	city	10	1	0.649213	0.649213	0	1	0	0	CorrectCommission	0.014452	0.655899	1	1
60.148842	0.795798	city	7	1	0.661347	0.661347	0	1	0	0	CorrectCommission	0.152493	0.669316	1	1
60.944641	0.795804	city	9	1	0.670646	0.670646	0	1	0	0	CorrectCommission	0.280429	0.695403	1	1
61.740444	0.795798	city	1	1	0.698398	0.698398	0	1	0	0	CorrectCommission	0.662249	0.732376	1	1
62.536243	0.795804	city	9	1	0.698380	0.698380	0	1	0	0	CorrectCommission	0.662001	0.777051	0	1
63.332050	0.795805	city	6	1	0.698413	0.698413	0	1	0	0	CorrectCommission	0.662457	0.825341	0	1
64.127960	0.796017	city	3	1	0.649073	0.649073	0	1	0	0	CorrectCommission	0.016379	0.872875	0	1
64.923759	0.795587	city	5	1	0.554444	0.554444	0	1	0	0	CorrectCommission	1.318304	0.915692	0	1
65.719460	0.795800	city	1	1	0.499448	0.499448	0	1	0	0	CorrectCommission	2.074961	0.950800	0	1
66.515366	0.796017	city	8	1	0.450747	0.450747	0	1	0	0	CorrectCommission	2.745002	0.976680	0	1
67.311165	0.795584	city	1	1	0.499290	0.499290	0	1	0	0	CorrectCommission	2.077138	0.993453	0	1
68.106857	0.795805	city	5	1	0.609062	0.609062	0	1	0	0	CorrectCommission	0.566860	1.002771	0	0
68.902718	0.795908	city	4	1	0.698633	0.698633	0	1	0	0	CorrectCommission	0.665486	1.007381	0	0
69.698570	0.795802	city	3	1	0.648575	0.648575	0	1	0	0	CorrectCommission	0.023230	1.010409	0	0
70.494316	0.795692	city	6	1	0.698283	0.698283	0	1	0	0	CorrectCommission	0.660674	1.014687	0	0
71.290062	0.795801	city	7	1	0.599192	0.599192	0	1	0	0	CorrectCommission	0.702645	1.022070	0	0
72.085869	0.795804	city	2	1	0.598904	0.598904	0	1	0	0	CorrectCommission	0.706619	1.033006	0	0
72.881676	0.795809	city	3	1	0.648936	0.648936	0	1	0	0	CorrectCommission	0.018261	1.046412	0	0
73.677475	0.795795	city	9	1	0.717037	0.717037	0	1	0	0	CorrectCommission	0.918689	1.059855	0	0
74.473328	0.795907	city	1	1	0.748135	0.748135	0	1	0	0	CorrectCommission	1.346550	1.069987	0	0
75.269127	0.795694	city	6	1	0.804971	0.804971	0	1	0	0	CorrectCommission	2.128511	1.073281	0	0
76.064911	0.795872	mountain	8	0	0.000000	0.827416	1	0	0	0	CorrectOmission	2.437321	1.066721	0	0
76.860710	0.795732	city	7	1	0.797804	0.797804	0	1	0	0	CorrectCommission	2.029910	1.048456	0	0
77.656586	0.796020	city	10	1	0.698468	0.698468	0	1	0	0	CorrectCommission	0.663211	1.018252	0	0
78.452393	0.795584	city	7	1	0.698657	0.698657	0	1	0	0	CorrectCommission	0.665821	0.977666	0	0
79.248116	0.795872	mountain	4	0	0.000000	0.731861	1	0	0	0	CorrectOmission	1.122645	0.929910	0	0
80.043915	0.795729	city	6	1	0.748394	0.748394	0	1	0	0	CorrectCommission	1.350114	0.879487	0	0
80.839790	0.796021	city	9	1	0.698573	0.698573	0	1	0	0	CorrectCommission	0.664664	0.831701	0	0
81.635612	0.795620	city	1	1	0.648400	0.648400	0	1	0	0	CorrectCommission	0.025627	0.792020	0	0
82.431305	0.795765	mountain	6	0	0.000000	0.673291	1	0	0	0	CorrectOmission	0.316821	0.765429	0	0
83.227089	0.795806	city	7	1	0.698341	0.698341	0	1	0	0	CorrectCommission	0.661468	0.755837	0	0
84.022896	0.795807	city	1	1	0.648648	0.648648	0	1	0	0	CorrectCommission	0.022227	0.765670	0	0
84.818695	0.795795	city	10	1	0.648967	0.648967	0	1	0	0	CorrectCommission	0.017834	0.795616	0	0
85.614601	0.796018	city	3	1	0.655907	0.655907	0	1	0	0	CorrectCommission	0.077650	0.844545	0	0
86.410400	0.795577	city	7	1	0.598699	0.598699	0	1	0	0	CorrectCommission	0.709437	0.909561	0	0
87.206200	0.796026	city	9	1	0.598913	0.598913	0	1	0	0	CorrectCommission	0.706495	0.986321	0	0
88.002007	0.795583	city	3	1	0.512175	0.512175	0	1	0	0	CorrectCommission	1.899857	1.069427	0	0
88.797752	0.795911	city	7	1	0.550173	0.550173	0	1	0	0	CorrectCommission	1.377076	1.152877	0	0
89.593567	0.795717	city	1	1	0.552832	0.552832	0	1	0	0	CorrectCommission	1.340486	1.230621	0	0
90.389427	0.795995	city	6	1	0.549117	0.549117	0	1	0	0	CorrectCommission	1.391603	1.296998	0	0
91.185211	0.795587	city	5	1	0.513858	0.513858	0	1	0	0	CorrectCommission	1.876697	1.347147	0	0
91.980957	0.795906	city	1	1	0.549718	0.549718	0	1	0	0	CorrectCommission	1.383331	1.377353	0	0
92.776764	0.795698	city	5	1	0.514797	0.514797	0	1	0	0	CorrectCommission	1.863776	1.385342	0	0
93.572517	0.795816	city	1	1	0.504087	0.504087	0	1	0	0	CorrectCommission	2.011130	1.370394	0	0
94.368324	0.795788	city	2	1	0.450077	0.450077	0	1	0	0	CorrectCommission	2.754220	1.333394	0	0
95.164124	0.795825	city	9	1	0.549724	0.549724	0	1	0	0	CorrectCommission	1.383253	1.276726	0	0
95.959984	0.795883	city	5	1	0.506347	0.506347	0	1	0	0	CorrectCommission	1.980047	1.204057	0	0
96.755768	0.795694	mountain	4	0	0.000000	0.603380	1	0	0	0	CorrectOmission	0.645026	1.119889	0	0
97.551552	0.795865	city	8	1	0.698432	0.698432	0	1	0	0	CorrectCommission	0.662724	1.029200	0	0
98.347366	0.795764	city	7	1	0.649108	0.649108	0	1	0	0	CorrectCommission	0.015886	0.936953	0	0
99.143135	0.795779	city	8	1	0.603831	0.603831	0	1	0	0	CorrectCommission	0.638826	0.847710	0	0
99.939034	0.796015	mountain	5	0	0.000000	0.697314	1	0	0	0	CorrectOmission	0.647343	0.765257	0	0
100.734940	0.795803	city	6	1	0.766643	0.766643	0	1	0	0	CorrectCommission	1.601191	0.692433	1	0
101.530632	0.795584	city	7	1	0.648903	0.648903	0	1	0	0	CorrectCommission	0.018715	0.631011	1	0
102.326332	0.795808	city	1	1	0.649037	0.649037	0	1	0	0	CorrectCommission	0.016869	0.581752	1	0
103.122131	0.795792	city	4	1	0.648763	0.648763	0	1	0	0	CorrectCommission	0.020645	0.544411	1	0
103.917931	0.795805	city	3	1	0.660532	0.660532	0	1	0	0	CorrectCommission	0.141285	0.517938	1	0
104.713730	0.795800	mountain	7	0	0.000000	0.698113	1	0	0	0	CorrectOmission	0.658339	0.500683	1	0
105.509537	0.795805	city	7	1	0.698585	0.698585	0	1	0	0	CorrectCommission	0.664825	0.490611	1	0
106.305389	0.795906	city	4	1	0.599025	0.599025	0	1	0	0	CorrectCommission	0.704947	0.485612	1	0
107.101189	0.795696	city	1	1	0.648808	0.648808	0	1	0	0	CorrectCommission	0.020024	0.483696	1	0
107.896942	0.795801	city	8	1	0.599055	0.599055	0	1	0	0	CorrectCommission	0.704535	0.483235	1	0
108.692749	0.795826	city	1	1	0.598858	0.598858	0	1	0	0	CorrectCommission	0.707247	0.483070	1	0
109.488564	0.795797	city	10	1	0.598762	0.598762	0	1	0	0	CorrectCommission	0.708564	0.482622	1	0
110.284462	0.796000	city	8	1	0.606685	0.606685	0	1	0	0	CorrectCommission	0.599560	0.481846	1	0
111.080254	0.795585	city	10	1	0.599219	0.599219	0	1	0	0	CorrectCommission	0.702284	0.481171	1	0
111.875946	0.795798	city	7	1	0.657747	0.657747	0	1	0	0	CorrectCommission	0.102966	0.481297	1	0
112.671745	0.795803	mountain	9	0	0.000000	0.643929	1	0	0	0	CorrectOmission	0.087145	0.483084	1	0
113.467545	0.795800	city	7	1	0.610633	0.610633	0	1	0	0	CorrectCommission	0.545239	0.487301	1	0
114.263351	0.795805	city	9	1	0.610727	0.610727	0	1	0	0	CorrectCommission	0.543944	0.494493	1	0
115.059189	0.795865	city	7	1	0.649015	0.649015	0	1	0	0	CorrectCommission	0.017172	0.504851	1	0
115.855011	0.795792	mountain	5	0	0.000000	0.688140	1	0	0	0	CorrectOmission	0.521126	0.518167	1	0
116.650841	0.795856	mountain	1	0	0.000000	0.712061	1	0	0	0	CorrectOmission	0.850239	0.533810	1	0
117.446609	0.795693	city	2	1	0.704736	0.704736	0	1	0	0	CorrectCommission	0.749457	0.550812	1	0
118.242355	0.795801	city	10	1	0.650123	0.650123	0	1	0	0	CorrectCommission	0.001932	0.567972	1	0
119.038170	0.795826	city	2	1	0.698402	0.698402	0	1	0	0	CorrectCommission	0.662304	0.584023	1	0
119.834084	0.795996	city	1	1	0.698335	0.698335	0	1	0	0	CorrectCommission	0.661383	0.597709	1	0
120.629913	0.795664	city	4	1	0.598680	0.598680	0	1	0	0	CorrectCommission	0.709698	0.607980	1	0
121.425636	0.795785	city	1	1	0.549088	0.549088	0	1	0	0	CorrectCommission	1.392000	0.614068	1	0
122.221420	0.795772	mountain	5	0	0.000000	0.613617	1	0	0	0	CorrectOmission	0.504182	0.615548	1	0
123.017189	0.795771	city	8	1	0.661000	0.661000	0	1	0	0	CorrectCommission	0.147724	0.612407	1	0
123.812996	0.795850	city	4	1	0.559967	0.559967	0	1	0	0	CorrectCommission	1.242315	0.604970	1	0
124.608803	0.795753	city	9	1	0.599007	0.599007	0	1	0	0	CorrectCommission	0.705197	0.593832	1	0
125.404610	0.795871	mountain	8	0	0.000000	0.674902	1	0	0	0	CorrectOmission	0.338990	0.579810	1	0
126.200409	0.795727	city	7	1	0.715633	0.715633	0	1	0	0	CorrectCommission	0.899385	0.563794	1	0
126.996284	0.796020	city	3	1	0.649182	0.649182	0	1	0	0	CorrectCommission	0.014874	0.546650	1	0
127.792091	0.795597	city	7	1	0.648426	0.648426	0	1	0	0	CorrectCommission	0.025274	0.529209	1	1
128.587891	0.796006	city	10	1	0.698346	0.698346	0	1	0	0	CorrectCommission	0.661545	0.512156	1	1
129.383804	0.795802	mountain	3	0	0.000000	0.725254	1	0	0	0	CorrectOmission	1.031746	0.496057	1	1
130.179535	0.795675	city	4	1	0.713965	0.713965	0	1	0	0	CorrectCommission	0.876426	0.481358	1	1
130.975235	0.795713	city	8	1	0.649295	0.649295	0	1	0	0	CorrectCommission	0.013321	0.468385	1	1
131.770996	0.795813	city	5	1	0.698345	0.698345	0	1	0	0	CorrectCommission	0.661530	0.457343	1	1
132.566788	0.795790	city	2	1	0.648628	0.648628	0	1	0	0	CorrectCommission	0.022492	0.448284	1	1
133.362595	0.795797	city	8	1	0.615327	0.615327	0	1	0	0	CorrectCommission	0.480665	0.441125	1	1
134.158386	0.795803	city	5	1	0.661685	0.661685	0	1	0	0	CorrectCommission	0.157140	0.435601	1	1
134.954300	0.796020	city	2	1	0.649148	0.649148	0	1	0	0	CorrectCommission	0.015341	0.431348	1	1
135.750107	0.795588	city	1	1	0.698154	0.698154	0	1	0	0	CorrectCommission	0.658900	0.427965	1	1
136.545853	0.795906	city	2	1	0.698368	0.698368	0	1	0	0	CorrectCommission	0.661846	0.425058	1	1
137.341660	0.795722	city	1	1	0.711851	0.711851	0	1	0	0	CorrectCommission	0.847340	0.422372	1	1
138.137466	0.795882	city	7	1	0.698516	0.698516	0	1	0	0	CorrectCommission	0.663877	0.419821	1	1
138.933365	0.795911	mountain	2	0	0.000000	0.678229	1	0	0	0	CorrectOmission	0.384767	0.417469	1	1
139.729111	0.795585	city	5	1	0.648427	0.648427	0	1	0	0	CorrectCommission	0.025259	0.415504	1	1
140.524811	0.795800	mountain	10	1	0.606546	0.606546	0	0	1	0	CommissionError	0.601468	0.414122	1	1
141.320663	0.795910	city	4	1	0.648707	0.648707	0	1	0	0	CorrectCommission	0.021412	0.413386	1	1
142.116455	0.795694	city	8	1	0.648572	0.648572	0	1	0	0	CorrectCommission	0.023270	0.413175	1	1
142.912216	0.795803	city	5	1	0.698375	0.698375	0	1	0	0	CorrectCommission	0.661943	0.413150	1	1
143.708023	0.795814	city	1	1	0.662793	0.662793	0	1	0	0	CorrectCommission	0.172396	0.412760	1	1
144.503815	0.795789	city	8	1	0.698345	0.698345	0	1	0	0	CorrectCommission	0.661524	0.411382	1	1
145.299728	0.796017	city	7	1	0.698817	0.698817	0	1	0	0	CorrectCommission	0.668024	0.408448	1	1
146.095520	0.795588	city	3	1	0.698642	0.698642	0	1	0	0	CorrectCommission	0.665615	0.403636	1	1
146.891327	0.796016	city	1	1	0.662915	0.662915	0	1	0	0	CorrectCommission	0.174066	0.397006	1	1
147.687134	0.795585	city	9	1	0.707631	0.707631	0	1	0	0	CorrectCommission	0.789283	0.389119	1	1
148.482880	0.795908	city	7	1	0.698477	0.698477	0	1	0	0	CorrectCommission	0.663344	0.381006	1	1
149.278671	0.795695	city	9	1	0.663151	0.663151	0	1	0	0	CorrectCommission	0.177320	0.374090	1	1
150.074417	0.795799	city	3	1	0.648731	0.648731	0	1	0	0	CorrectCommission	0.021074	0.370065	1	1
150.870224	0.795803	city	7	1	0.662073	0.662073	0	1	0	0	CorrectCommission	0.162489	0.370623	1	1
151.666031	0.795802	city	10	1	0.648609	0.648609	0	1	0	0	CorrectCommission	0.022760	0.377228	1	1
152.461884	0.795911	mountain	6	0	0.000000	0.679798	1	0	0	0	CorrectOmission	0.406345	0.390902	1	1
153.257690	0.795694	city	1	1	0.698873	0.698873	0	1	0	0	CorrectCommission	0.668795	0.412020	1	1
154.053543	0.796018	city	8	1	0.649070	0.649070	0	1	0	0	CorrectCommission	0.016416	0.440210	1	1
154.849335	0.795584	city	6	1	0.664389	0.664389	0	1	0	0	CorrectCommission	0.194343	0.474324	1	1
155.645096	0.795910	city	5	1	0.650761	0.650761	0	1	0	0	CorrectCommission	0.006856	0.512524	1	1
156.440887	0.795695	city	7	1	0.601341	0.601341	0	1	0	0	CorrectCommission	0.673086	0.552436	1	1
157.236633	0.795797	city	6	1	0.649255	0.649255	0	1	0	0	CorrectCommission	0.013864	0.591411	1	1
158.032547	0.796021	mountain	4	0	0.000000	0.747939	1	0	0	0	CorrectOmission	1.343854	0.626861	1	1
158.828400	0.795692	city	5	1	0.797631	0.797631	0	1	0	0	CorrectCommission	2.027538	0.656517	1	1
159.624100	0.795695	city	8	1	0.698573	0.698573	0	1	0	0	CorrectCommission	0.664657	0.678739	1	1
160.419952	0.796018	city	2	1	0.698370	0.698370	0	1	0	0	CorrectCommission	0.661873	0.692727	1	1
161.215759	0.795608	city	1	1	0.698131	0.698131	0	1	0	0	CorrectCommission	0.658578	0.698557	1	1
162.011459	0.795776	city	8	1	0.615824	0.615824	0	1	0	0	CorrectCommission	0.473820	0.697180	1	1
162.807251	0.795822	city	9	1	0.748599	0.748599	0	1	0	0	CorrectCommission	1.352933	0.690297	1	1
163.603058	0.795782	city	8	1	0.698406	0.698406	0	1	0	0	CorrectCommission	0.662371	0.680155	1	1
164.398849	0.795801	city	1	1	0.648775	0.648775	0	1	0	0	CorrectCommission	0.020472	0.669389	1	1
165.194763	0.796020	city	3	1	0.567213	0.567213	0	1	0	0	CorrectCommission	1.142633	0.660719	1	1
165.990677	0.795802	city	1	1	0.598790	0.598790	0	1	0	0	CorrectCommission	0.708179	0.656682	1	1
166.786392	0.795646	city	3	1	0.667150	0.667150	0	1	0	0	CorrectCommission	0.232338	0.659477	1	1
167.582092	0.795743	city	5	1	0.650119	0.650119	0	1	0	0	CorrectCommission	0.001986	0.670738	1	1
168.377869	0.795804	city	3	1	0.598904	0.598904	0	1	0	0	CorrectCommission	0.706619	0.691417	1	1
169.173660	0.795795	city	4	1	0.598981	0.598981	0	1	0	0	CorrectCommission	0.705555	0.721701	1	1
169.969482	0.795839	city	2	1	0.649081	0.649081	0	1	0	0	CorrectCommission	0.016269	0.761056	0	1
170.765289	0.795789	city	10	1	0.549394	0.549394	0	1	0	0	CorrectCommission	1.387788	0.808298	0	1
171.561081	0.795780	mountain	2	0	0.000000	0.631303	1	0	0	0	CorrectOmission	0.260855	0.861650	0	1
172.356918	0.795907	city	6	1	0.698364	0.698364	0	1	0	0	CorrectCommission	0.661793	0.919001	0	1
173.152771	0.795802	city	7	1	0.554133	0.554133	0	1	0	0	CorrectCommission	1.322586	0.977992	0	1
173.948532	0.795696	city	4	1	0.549511	0.549511	0	1	0	0	CorrectCommission	1.386171	1.036152	0	1
174.744278	0.795806	city	6	1	0.549158	0.549158	0	1	0	0	CorrectCommission	1.391032	1.091081	0	1
175.540070	0.795793	city	3	1	0.549347	0.549347	0	1	0	0	CorrectCommission	1.388428	1.140481	0	1
176.335922	0.795911	city	4	1	0.551227	0.551227	0	1	0	0	CorrectCommission	1.362574	1.182223	0	1
177.131760	0.795757	city	6	1	0.549298	0.549298	0	1	0	0	CorrectCommission	1.389103	1.214400	0	1
177.927505	0.795738	mountain	10	0	0.000000	0.611778	1	0	0	0	CorrectOmission	0.529495	1.235374	0	1
178.723389	0.796021	city	8	1	0.698396	0.698396	0	1	0	0	CorrectCommission	0.662221	1.243907	0	1
179.519211	0.795627	mountain	7	0	0.000000	0.768884	1	0	0	0	CorrectOmission	1.632016	1.239281	0	1
180.314911	0.795758	city	5	1	0.815655	0.815655	0	1	0	0	CorrectCommission	2.275506	1.221456	0	1
181.110687	0.795802	mountain	3	0	0.000000	0.831122	1	0	0	0	CorrectOmission	2.488308	1.191265	0	1
181.906540	0.795911	city	6	1	0.797870	0.797870	0	1	0	0	CorrectCommission	2.030824	1.150443	0	1
182.702377	0.795757	city	8	1	0.698485	0.698485	0	1	0	0	CorrectCommission	0.663453	1.101573	0	1
183.498123	0.795736	city	6	1	0.712995	0.712995	0	1	0	0	CorrectCommission	0.863081	1.047859	0	1
184.293900	0.795806	city	1	1	0.661208	0.661208	0	1	0	0	CorrectCommission	0.150578	0.992760	0	1
185.089691	0.795800	city	10	1	0.698335	0.698335	0	1	0	0	CorrectCommission	0.661389	0.939641	0	1
185.885498	0.795802	city	4	1	0.712297	0.712297	0	1	0	0	CorrectCommission	0.853488	0.891346	0	1
186.681335	0.795864	city	5	1	0.658100	0.658100	0	1	0	0	CorrectCommission	0.107821	0.849949	0	1
187.477234	0.795956	mountain	2	1	0.598866	0.598866	0	0	1	0	CommissionError	0.707142	0.816671	0	0
188.273010	0.795588	city	6	1	0.549094	0.549094	0	1	0	0	CorrectCommission	1.391914	0.791745	0	0
189.068695	0.795795	mountain	2	0	0.000000	0.629643	1	0	0	0	CorrectOmission	0.283703	0.774640	0	0
189.864502	0.795807	city	9	1	0.698519	0.698519	0	1	0	0	CorrectCommission	0.663922	0.764333	0	0
190.660324	0.795841	city	1	1	0.613732	0.613732	0	1	0	0	CorrectCommission	0.502604	0.759464	0	0
191.456146	0.795788	city	8	1	0.748088	0.748088	0	1	0	0	CorrectCommission	1.345904	0.758716	0	0
192.251923	0.795776	city	1	1	0.712557	0.712557	0	1	0	0	CorrectCommission	0.857056	0.760963	0	0
193.047714	0.795800	city	8	1	0.698344	0.698344	0	1	0	0	CorrectCommission	0.661509	0.765483	0	0
193.843536	0.795834	city	7	1	0.700570	0.700570	0	1	0	0	CorrectCommission	0.692139	0.771976	0	0
194.639435	0.795985	city	6	1	0.698339	0.698339	0	1	0	0	CorrectCommission	0.661449	0.780514	0	0
195.435226	0.795582	city	5	1	0.698270	0.698270	0	1	0	0	CorrectCommission	0.660494	0.791425	0	0
196.230911	0.795807	city	6	1	0.748249	0.748249	0	1	0	0	CorrectCommission	1.348116	0.805093	0	0
197.026718	0.795798	city	9	1	0.656051	0.656051	0	1	0	0	CorrectCommission	0.079638	0.821702	0	0
197.822525	0.795801	city	6	1	0.748383	0.748383	0	1	0	0	CorrectCommission	1.349958	0.841091	0	0
198.618378	0.795911	city	8	1	0.698368	0.698368	0	1	0	0	CorrectCommission	0.661846	0.862516	0	0
199.414185	0.795703	city	5	1	0.698225	0.698225	0	1	0	0	CorrectCommission	0.659871	0.884672	0	0
200.209930	0.795794	city	4	1	0.666067	0.666067	0	1	0	0	CorrectCommission	0.217430	0.905726	0	0
201.005722	0.795799	city	8	1	0.613509	0.613509	0	1	0	0	CorrectCommission	0.505678	0.923488	0	0
201.801544	0.795836	city	2	1	0.698496	0.698496	0	1	0	0	CorrectCommission	0.663607	0.935727	0	0
202.597351	0.795768	city	9	1	0.856299	0.856299	0	1	0	0	CorrectCommission	2.834705	0.940525	0	0
203.393127	0.795803	city	5	1	0.762768	0.762768	0	1	0	0	CorrectCommission	1.547877	0.936567	0	0
204.188934	0.795798	mountain	7	0	0.000000	0.594897	1	0	0	0	CorrectOmission	0.761739	0.923546	0	0
204.984772	0.795870	mountain	1	1	0.499897	0.499897	0	0	1	0	CommissionError	2.068784	0.902133	0	0
205.780624	0.795843	mountain	7	0	0.000000	0.624976	1	0	0	0	CorrectOmission	0.347901	0.873876	0	0
206.576508	0.795915	city	4	1	0.748413	0.748413	0	1	0	0	CorrectCommission	1.350371	0.841048	0	0
207.372253	0.795578	city	2	1	0.648482	0.648482	0	1	0	0	CorrectCommission	0.024507	0.806108	0	0
208.167938	0.795802	city	7	1	0.654549	0.654549	0	1	0	0	CorrectCommission	0.058969	0.771413	0	0
208.963745	0.795803	city	8	1	0.662962	0.662962	0	1	0	0	CorrectCommission	0.174710	0.738774	1	0
209.759552	0.795812	city	5	1	0.611674	0.611674	0	1	0	0	CorrectCommission	0.530920	0.709272	1	0
210.555344	0.795790	city	4	1	0.599049	0.599049	0	1	0	0	CorrectCommission	0.704620	0.683204	1	0
211.351181	0.795863	city	3	1	0.556188	0.556188	0	1	0	0	CorrectCommission	1.294312	0.660196	1	0
212.147034	0.795852	city	6	1	0.707382	0.707382	0	1	0	0	CorrectCommission	0.785856	0.639451	1	0
212.942810	0.795689	city	3	1	0.698219	0.698219	0	1	0	0	CorrectCommission	0.659794	0.620069	1	0
213.738571	0.795853	city	2	1	0.698357	0.698357	0	1	0	0	CorrectCommission	0.661684	0.601268	1	0
214.534424	0.795861	city	6	1	0.698295	0.698295	0	1	0	0	CorrectCommission	0.660836	0.582664	1	0
215.330322	0.795912	city	8	1	0.603260	0.603260	0	1	0	0	CorrectCommission	0.646686	0.564389	1	0
216.126068	0.795583	mountain	10	0	0.000000	0.634974	1	0	0	0	CorrectOmission	0.210356	0.547126	1	0
216.921860	0.796019	city	1	1	0.698354	0.698354	0	1	0	0	CorrectCommission	0.661645	0.532067	1	0
217.717667	0.795583	city	10	1	0.698317	0.698317	0	1	0	0	CorrectCommission	0.661136	0.520736	1	0
218.513367	0.795803	city	1	1	0.648637	0.648637	0	1	0	0	CorrectCommission	0.022375	0.514790	1	0
219.309158	0.795802	city	9	1	0.598903	0.598903	0	1	0	0	CorrectCommission	0.706623	0.515833	1	0
220.105011	0.795909	city	1	1	0.648601	0.648601	0	1	0	0	CorrectCommission	0.022865	0.525045	1	0
220.900848	0.795760	mountain	2	0	0.000000	0.690843	1	0	0	0	CorrectOmission	0.558311	0.543113	1	0
221.696594	0.795736	city	6	1	0.699623	0.699623	0	1	0	0	CorrectCommission	0.679106	0.569986	1	0
222.492416	0.795911	city	4	1	0.648934	0.648934	0	1	0	0	CorrectCommission	0.018280	0.604755	1	0
223.288223	0.795689	mountain	10	0	0.000000	0.665083	1	0	0	0	CorrectOmission	0.203897	0.645736	1	0
224.083969	0.795802	city	2	1	0.698388	0.698388	0	1	0	0	CorrectCommission	0.662117	0.690465	1	0
224.879776	0.795808	city	7	1	0.699169	0.699169	0	1	0	0	CorrectCommission	0.672858	0.735993	1	0
225.675583	0.795800	mountain	3	0	0.000000	0.683617	1	0	0	0	CorrectOmission	0.458899	0.779160	0	0
226.471405	0.795844	city	6	1	0.698930	0.698930	0	1	0	0	CorrectCommission	0.669567	0.816975	0	0
227.267197	0.795758	mountain	7	0	0.000000	0.792300	1	0	0	0	CorrectOmission	1.954188	0.846952	0	0
228.062988	0.795804	city	3	1	0.847575	0.847575	0	1	0	0	CorrectCommission	2.714670	0.867380	0	0
228.858780	0.795798	city	6	1	0.748598	0.748598	0	1	0	0	CorrectCommission	1.352922	0.877527	0	0
229.654587	0.795804	city	3	1	0.654993	0.654993	0	1	0	0	CorrectCommission	0.065080	0.877717	0	0
230.450439	0.795908	city	8	1	0.698456	0.698456	0	1	0	0	CorrectCommission	0.663053	0.869132	0	0
231.246246	0.795691	city	4	1	0.648800	0.648800	0	1	0	0	CorrectCommission	0.020136	0.853601	0	0
232.042099	0.796022	mountain	6	0	0.000000	0.590204	1	0	0	0	CorrectOmission	0.826306	0.833408	0	0
232.837906	0.795588	city	4	1	0.560852	0.560852	0	1	0	0	CorrectCommission	1.230149	0.810997	0	0
233.633698	0.796015	city	6	1	0.598923	0.598923	0	1	0	0	CorrectCommission	0.706359	0.788814	0	0
234.429504	0.795588	city	5	1	0.517010	0.517010	0	1	0	0	CorrectCommission	1.833335	0.769125	0	0
235.225311	0.796016	city	6	1	0.648775	0.648775	0	1	0	0	CorrectCommission	0.020478	0.753838	1	0
236.021103	0.795586	city	10	1	0.598813	0.598813	0	1	0	0	CorrectCommission	0.707861	0.744475	1	0
236.816803	0.795797	city	2	1	0.598862	0.598862	0	1	0	0	CorrectCommission	0.707187	0.741901	1	0
237.612595	0.795800	city	9	1	0.648634	0.648634	0	1	0	0	CorrectCommission	0.022414	0.746286	1	0
238.408447	0.795912	city	10	1	0.613616	0.613616	0	1	0	0	CorrectCommission	0.504196	0.757015	0	0
239.204269	0.795717	city	9	1	0.648523	0.648523	0	1	0	0	CorrectCommission	0.023945	0.772668	0	0
240.000122	0.795998	city	5	1	0.565656	0.565656	0	1	0	0	CorrectCommission	1.164049	0.791186	0	0
240.796021	0.795799	city	7	1	0.598668	0.598668	0	1	0	0	CorrectCommission	0.709858	0.810053	0	0
241.591721	0.795586	city	2	1	0.548923	0.548923	0	1	0	0	CorrectCommission	1.394272	0.826657	0	0
242.387466	0.795909	mountain	2	0	0.000000	0.551569	1	0	0	0	CorrectOmission	1.357862	0.838591	0	0
243.183258	0.795693	city	7	1	0.610829	0.610829	0	1	0	0	CorrectCommission	0.542547	0.844044	0	0
243.979004	0.795801	mountain	8	0	0.000000	0.730924	1	0	0	0	CorrectOmission	1.109751	0.842056	0	0
244.774811	0.795801	city	1	1	0.798058	0.798058	0	1	0	0	CorrectCommission	2.033400	0.832609	0	0
245.570663	0.795911	city	9	1	0.698435	0.698435	0	1	0	0	CorrectCommission	0.662769	0.816642	0	0
246.366577	0.795913	city	2	1	0.607807	0.607807	0	1	0	0	CorrectCommission	0.584121	0.795975	0	0
247.162323	0.795582	city	3	1	0.698593	0.698593	0	1	0	0	CorrectCommission	0.664935	0.772964	0	1
247.958130	0.796020	city	5	1	0.698461	0.698461	0	1	0	0	CorrectCommission	0.663116	0.750130	1	1
248.753967	0.795647	city	1	1	0.714183	0.714183	0	1	0	0	CorrectCommission	0.879432	0.729808	1	1
249.549713	0.795846	city	4	1	0.648676	0.648676	0	1	0	0	CorrectCommission	0.021838	0.713789	1	1
250.345520	0.795761	city	2	1	0.648528	0.648528	0	1	0	0	CorrectCommission	0.023868	0.703133	1	1
251.141266	0.795733	city	6	1	0.698312	0.698312	0	1	0	0	CorrectCommission	0.661071	0.698059	1	1
251.937027	0.795804	mountain	9	0	0.000000	0.713170	1	0	0	0	CorrectOmission	0.865495	0.697947	1	1
252.732834	0.795800	mountain	8	0	0.000000	0.708249	1	0	0	0	CorrectOmission	0.797785	0.701584	1	1
253.528748	0.796019	city	1	1	0.698694	0.698694	0	1	0	0	CorrectCommission	0.666322	0.707402	1	1
254.324539	0.795585	city	4	1	0.699650	0.699650	0	1	0	0	CorrectCommission	0.679484	0.713777	1	1
255.120346	0.796017	city	2	1	0.698388	0.698388	0	1	0	0	CorrectCommission	0.662118	0.719341	1	1
255.916138	0.795586	city	3	1	0.748340	0.748340	0	1	0	0	CorrectCommission	1.349373	0.723174	1	1
256.711853	0.795801	city	1	1	0.748413	0.748413	0	1	0	0	CorrectCommission	1.350380	0.724933	1	1
257.507660	0.795872	city	6	1	0.698516	0.698516	0	1	0	0	CorrectCommission	0.663881	0.724853	1	1
258.303589	0.795948	city	2	1	0.698375	0.698375	0	1	0	0	CorrectCommission	0.661939	0.723697	1	1
259.099457	0.795801	mountain	2	0	0.000000	0.682254	1	0	0	0	CorrectOmission	0.440139	0.722556	1	1
259.895172	0.795647	city	9	1	0.663554	0.663554	0	1	0	0	CorrectCommission	0.182864	0.722706	1	1
260.690887	0.795741	city	10	1	0.655678	0.655678	0	1	0	0	CorrectCommission	0.074494	0.725448	1	1
261.486664	0.795814	mountain	1	0	0.000000	0.700760	1	0	0	0	CorrectOmission	0.694750	0.732002	1	1
262.282471	0.795787	city	1	1	0.748400	0.748400	0	1	0	0	CorrectCommission	1.350202	0.743395	1	1
263.078369	0.796021	city	5	1	0.748198	0.748198	0	1	0	0	CorrectCommission	1.347418	0.760469	0	1
263.874176	0.795607	mountain	6	0	0.000000	0.706163	1	0	0	0	CorrectOmission	0.769084	0.783832	0	1
264.669861	0.795778	city	2	1	0.648608	0.648608	0	1	0	0	CorrectCommission	0.022768	0.813751	0	1
265.465668	0.795808	city	1	1	0.601848	0.601848	0	1	0	0	CorrectCommission	0.666103	0.850061	0	1
266.261475	0.795798	city	8	1	0.549608	0.549608	0	1	0	0	CorrectCommission	1.384841	0.891962	0	1
267.057251	0.795795	city	10	1	0.605173	0.605173	0	1	0	0	CorrectCommission	0.620357	0.937935	0	1
267.853058	0.795807	city	9	1	0.653663	0.653663	0	1	0	0	CorrectCommission	0.046782	0.985728	0	1
268.648956	0.796017	city	3	1	0.612917	0.612917	0	1	0	0	CorrectCommission	0.513818	1.032434	0	1
269.444763	0.795584	city	5	1	0.712193	0.712193	0	1	0	0	CorrectCommission	0.852052	1.074697	0	1
270.240479	0.795804	city	9	1	0.797848	0.797848	0	1	0	0	CorrectCommission	2.030515	1.109128	0	1
271.036255	0.795801	city	5	1	0.798697	0.798697	0	1	0	0	CorrectCommission	2.042199	1.132770	0	1
271.832062	0.795801	city	10	1	0.803236	0.803236	0	1	0	0	CorrectCommission	2.104642	1.143570	0	1
272.627991	0.796018	city	9	1	0.752715	0.752715	0	1	0	0	CorrectCommission	1.409558	1.140721	0	1
273.423828	0.795691	city	8	1	0.747910	0.747910	0	1	0	0	CorrectCommission	1.343452	1.124850	0	1
274.219635	0.795912	city	3	1	0.748452	0.748452	0	1	0	0	CorrectCommission	1.350909	1.097973	0	1
275.015442	0.795692	city	1	1	0.748017	0.748017	0	1	0	0	CorrectCommission	1.344933	1.063244	0	1
275.811249	0.795912	city	2	1	0.698265	0.698265	0	1	0	0	CorrectCommission	0.660426	1.024470	0	1
276.606995	0.795613	city	4	1	0.714739	0.714739	0	1	0	0	CorrectCommission	0.887075	0.985589	0	1
277.402740	0.795882	mountain	6	0	0.000000	0.692592	1	0	0	0	CorrectOmission	0.582370	0.950087	0	1
278.198578	0.795755	city	8	1	0.648514	0.648514	0	1	0	0	CorrectCommission	0.024060	0.920534	0	1
278.994324	0.795787	city	7	1	0.599197	0.599197	0	1	0	0	CorrectCommission	0.702588	0.898269	0	1
279.790100	0.795751	city	4	1	0.648722	0.648722	0	1	0	0	CorrectCommission	0.021200	0.883260	0	1
280.585907	0.795871	city	1	1	0.561742	0.561742	0	1	0	0	CorrectCommission	1.217894	0.874283	0	1
281.381714	0.795737	city	9	1	0.549538	0.549538	0	1	0	0	CorrectCommission	1.385807	0.869171	0	1
282.177490	0.795800	city	7	1	0.598902	0.598902	0	1	0	0	CorrectCommission	0.706646	0.865274	0	1
282.973297	0.795807	city	6	1	0.598877	0.598877	0	1	0	0	CorrectCommission	0.706978	0.859910	0	1
283.769135	0.795905	city	10	1	0.501281	0.501281	0	1	0	0	CorrectCommission	2.049740	0.850755	0	1
284.565002	0.795801	city	7	1	0.560673	0.560673	0	1	0	0	CorrectCommission	1.232601	0.836150	0	1
285.360779	0.795740	mountain	3	0	0.000000	0.672520	1	0	0	0	CorrectOmission	0.306221	0.815323	0	1
286.156525	0.795776	city	3	1	0.748052	0.748052	0	1	0	0	CorrectCommission	1.345407	0.788335	0	1
286.952362	0.795889	city	8	1	0.698498	0.698498	0	1	0	0	CorrectCommission	0.663635	0.755945	0	1
287.748199	0.795800	city	2	1	0.615931	0.615931	0	1	0	0	CorrectCommission	0.472350	0.719493	1	1
288.543945	0.795692	mountain	1	0	0.000000	0.650686	1	0	0	0	CorrectOmission	0.005813	0.680651	1	1
289.339722	0.795838	mountain	3	0	0.000000	0.721776	1	0	0	0	CorrectOmission	0.983901	0.641237	1	1
290.135559	0.795828	city	3	1	0.748218	0.748218	0	1	0	0	CorrectCommission	1.347689	0.603018	1	1
290.931427	0.795904	city	1	1	0.649024	0.649024	0	1	0	0	CorrectCommission	0.017046	0.567632	1	1
291.727234	0.795748	city	4	1	0.648480	0.648480	0	1	0	0	CorrectCommission	0.024535	0.536524	1	1
292.522980	0.795694	city	1	1	0.598793	0.598793	0	1	0	0	CorrectCommission	0.708144	0.510841	1	1
293.318726	0.795801	city	4	1	0.604012	0.604012	0	1	0	0	CorrectCommission	0.636330	0.491384	1	1
294.114502	0.795801	city	9	1	0.698341	0.698341	0	1	0	0	CorrectCommission	0.661473	0.478557	1	1
294.910309	0.795801	city	2	1	0.649047	0.649047	0	1	0	0	CorrectCommission	0.016735	0.472307	1	1
295.706177	0.795916	city	3	1	0.648626	0.648626	0	1	0	0	CorrectCommission	0.022524	0.472084	1	1
296.501984	0.795689	city	8	1	0.613216	0.613216	0	1	0	0	CorrectCommission	0.509702	0.476808	1	1
297.297729	0.795801	city	2	1	0.648621	0.648621	0	1	0	0	CorrectCommission	0.022596	0.484959	1	1
298.093536	0.795801	city	3	1	0.648654	0.648654	0	1	0	0	CorrectCommission	0.022137	0.494726	1	1
298.889343	0.795820	city	7	1	0.598900	0.598900	0	1	0	0	CorrectCommission	0.706667	0.504202	1	1
299.685150	0.795786	city	1	1	0.549598	0.549598	0	1	0	0	CorrectCommission	1.384984	0.511648	1	1
300.480927	0.795801	city	6	1	0.557557	0.557557	0	1	0	0	CorrectCommission	1.275484	0.515754	1	1
301.276733	0.795801	city	9	1	0.606024	0.606024	0	1	0	0	CorrectCommission	0.608648	0.515839	1	1
302.072540	0.795802	mountain	10	0	0.000000	0.653771	1	0	0	0	CorrectOmission	0.048258	0.511977	1	1
302.868378	0.795909	mountain	4	0	0.000000	0.691350	1	0	0	0	CorrectOmission	0.565283	0.504958	1	1
303.664246	0.795802	mountain	5	0	0.000000	0.709316	1	0	0	0	CorrectOmission	0.812474	0.496134	1	1
304.459991	0.795692	city	10	1	0.698225	0.698225	0	1	0	0	CorrectCommission	0.659880	0.487249	1	1
305.255737	0.795800	city	1	1	0.648631	0.648631	0	1	0	0	CorrectCommission	0.022454	0.480095	1	1
306.051605	0.795911	mountain	10	0	0.000000	0.648677	1	0	0	0	CorrectOmission	0.021815	0.476315	1	1
306.847504	0.795911	city	2	1	0.648641	0.648641	0	1	0	0	CorrectCommission	0.022318	0.477136	1	0
307.643372	0.795800	city	8	1	0.598798	0.598798	0	1	0	0	CorrectCommission	0.708076	0.483212	1	0
308.439117	0.795692	city	5	1	0.598807	0.598807	0	1	0	0	CorrectCommission	0.707949	0.494610	1	0
309.234802	0.795703	mountain	4	0	0.000000	0.657044	1	0	0	0	CorrectOmission	0.093293	0.510887	1	0
310.030548	0.795797	city	1	1	0.698614	0.698614	0	1	0	0	CorrectCommission	0.665224	0.531157	1	0
310.826355	0.795811	city	2	1	0.648622	0.648622	0	1	0	0	CorrectCommission	0.022580	0.554247	1	0
311.622192	0.795850	city	6	1	0.707946	0.707946	0	1	0	0	CorrectCommission	0.793612	0.578968	1	0
312.418030	0.795849	city	8	1	0.602053	0.602053	0	1	0	0	CorrectCommission	0.663285	0.604202	1	0
313.213867	0.795802	city	1	1	0.556545	0.556545	0	1	0	0	CorrectCommission	1.289396	0.629083	1	0
314.009613	0.795694	mountain	9	0	0.000000	0.567011	1	0	0	0	CorrectOmission	1.145411	0.653024	1	0
314.805359	0.795804	city	2	1	0.606750	0.606750	0	1	0	0	CorrectCommission	0.598668	0.675738	1	0
315.601166	0.795797	city	7	1	0.649064	0.649064	0	1	0	0	CorrectCommission	0.016504	0.697148	1	0
316.396973	0.795840	city	8	1	0.613258	0.613258	0	1	0	0	CorrectCommission	0.509124	0.717280	1	0
317.192841	0.795872	city	6	1	0.698762	0.698762	0	1	0	0	CorrectCommission	0.667266	0.736196	1	0
317.988617	0.795696	city	4	1	0.648548	0.648548	0	1	0	0	CorrectCommission	0.023597	0.753936	1	0
318.784363	0.795802	city	10	1	0.565305	0.565305	0	1	0	0	CorrectCommission	1.168883	0.770568	0	0
319.580261	0.796016	city	4	1	0.847679	0.847679	0	1	0	0	CorrectCommission	2.716103	0.786154	0	0
320.376068	0.795585	city	6	1	0.651244	0.651244	0	1	0	0	CorrectCommission	0.013494	0.800815	0	0
321.171783	0.795806	city	7	1	0.616995	0.616995	0	1	0	0	CorrectCommission	0.457719	0.814863	0	0
321.967590	0.795840	city	5	1	0.748179	0.748179	0	1	0	0	CorrectCommission	1.347159	0.828671	0	0
322.763397	0.795790	city	9	1	0.655643	0.655643	0	1	0	0	CorrectCommission	0.074014	0.842698	0	0
323.559204	0.795773	city	2	1	0.648929	0.648929	0	1	0	0	CorrectCommission	0.018360	0.857529	0	0
324.354980	0.795800	city	8	1	0.499542	0.499542	0	1	0	0	CorrectCommission	2.073669	0.873801	0	0
325.150787	0.795843	mountain	2	0	0.000000	0.565776	1	0	0	0	CorrectOmission	1.162392	0.892130	0	0
325.946716	0.795975	city	4	1	0.648583	0.648583	0	1	0	0	CorrectCommission	0.023120	0.913247	0	0
326.742493	0.795583	city	10	1	0.548910	0.548910	0	1	0	0	CorrectCommission	1.394444	0.937947	0	0
327.538239	0.795911	city	1	1	0.601993	0.601993	0	1	0	0	CorrectCommission	0.664114	0.966951	0	0
328.334045	0.795692	city	4	1	0.607674	0.607674	0	1	0	0	CorrectCommission	0.585948	1.000969	0	0
329.129791	0.795805	city	5	1	0.549653	0.549653	0	1	0	0	CorrectCommission	1.384218	1.040502	0	0
329.925598	0.795799	city	1	1	0.519483	0.519483	0	1	0	0	CorrectCommission	1.799311	1.085686	0	0
330.721375	0.795801	city	9	1	0.716537	0.716537	0	1	0	0	CorrectCommission	0.911817	1.136109	0	0
331.517181	0.795800	city	1	1	0.648636	0.648636	0	1	0	0	CorrectCommission	0.022380	1.190660	0	0
332.312988	0.795807	city	4	1	0.549500	0.549500	0	1	0	0	CorrectCommission	1.386328	1.247390	0	0
333.108856	0.795909	city	9	1	0.613234	0.613234	0	1	0	0	CorrectCommission	0.509453	1.303522	0	0
333.904694	0.795800	city	2	1	0.554031	0.554031	0	1	0	0	CorrectCommission	1.323989	1.355684	0	0
334.700439	0.795691	city	1	1	0.549555	0.549555	0	1	0	0	CorrectCommission	1.385574	1.400153	0	0
335.496246	0.795913	city	9	1	0.500463	0.500463	0	1	0	0	CorrectCommission	2.060993	1.433373	0	0
336.292053	0.795693	city	5	1	0.449846	0.449846	0	1	0	0	CorrectCommission	2.757397	1.452410	0	0
337.087799	0.795801	city	10	1	0.454075	0.454075	0	1	0	0	CorrectCommission	2.699209	1.455367	0	0
337.883606	0.795802	city	2	1	0.549280	0.549280	0	1	0	0	CorrectCommission	1.389360	1.441772	0	0
338.679504	0.796020	city	4	1	0.549159	0.549159	0	1	0	0	CorrectCommission	1.391015	1.412640	0	0
339.475372	0.795692	city	10	1	0.500766	0.500766	0	1	0	0	CorrectCommission	2.056820	1.370303	0	0
340.271088	0.795747	city	7	1	0.598772	0.598772	0	1	0	0	CorrectCommission	0.708427	1.318132	0	0
341.066833	0.795753	city	1	1	0.553215	0.553215	0	1	0	0	CorrectCommission	1.335221	1.260130	0	0
341.862610	0.795811	city	10	1	0.512456	0.512456	0	1	0	0	CorrectCommission	1.895991	1.200300	0	0
342.658539	0.796003	city	3	1	0.648615	0.648615	0	1	0	0	CorrectCommission	0.022679	1.142241	0	0
343.454437	0.795802	city	9	1	0.648403	0.648403	0	1	0	0	CorrectCommission	0.025593	1.088853	0	0
344.250122	0.795592	mountain	4	0	0.000000	0.693900	1	0	0	0	CorrectOmission	0.600372	1.041978	0	0
345.045959	0.796066	city	3	1	0.748108	0.748108	0	1	0	0	CorrectCommission	1.346183	1.002412	0	0
345.841766	0.795550	mountain	8	0	0.000000	0.774029	1	0	0	0	CorrectOmission	1.702808	0.970003	0	0
346.637421	0.795780	city	4	1	0.748577	0.748577	0	1	0	0	CorrectCommission	1.352629	0.943829	0	0
347.433319	0.796019	city	5	1	0.648666	0.648666	0	1	0	0	CorrectCommission	0.021976	0.922448	0	0
348.229126	0.795586	city	3	1	0.598653	0.598653	0	1	0	0	CorrectCommission	0.710072	0.904172	0	0
349.024811	0.795799	city	2	1	0.557761	0.557761	0	1	0	0	CorrectCommission	1.272672	0.887224	0	0
349.820648	0.795826	city	6	1	0.599379	0.599379	0	1	0	0	CorrectCommission	0.700078	0.869891	0	0
350.616425	0.795780	city	2	1	0.598793	0.598793	0	1	0	0	CorrectCommission	0.708143	0.850731	0	0
351.412262	0.795861	city	7	1	0.559149	0.559149	0	1	0	0	CorrectCommission	1.253577	0.828593	0	0
352.208069	0.795740	city	3	1	0.565625	0.565625	0	1	0	0	CorrectCommission	1.164475	0.802686	0	0
353.003876	0.795915	city	10	1	0.598945	0.598945	0	1	0	0	CorrectCommission	0.706054	0.772636	0	0
353.799744	0.795797	city	6	1	0.600409	0.600409	0	1	0	0	CorrectCommission	0.685909	0.738524	1	0
354.595490	0.795696	city	10	1	0.598794	0.598794	0	1	0	0	CorrectCommission	0.708133	0.700867	1	0
355.391296	0.795906	city	5	1	0.698456	0.698456	0	1	0	0	CorrectCommission	0.663054	0.660634	1	0
356.187103	0.795693	mountain	1	0	0.000000	0.723664	1	0	0	0	CorrectOmission	1.009866	0.619161	1	0
356.982941	0.796020	mountain	2	0	0.000000	0.699031	1	0	0	0	CorrectOmission	0.670966	0.578093	1	0
357.778870	0.795802	city	8	1	0.649174	0.649174	0	1	0	0	CorrectCommission	0.014985	0.539275	1	0
358.574585	0.795653	city	10	1	0.598707	0.598707	0	1	0	0	CorrectCommission	0.709322	0.504607	1	0
359.370270	0.795733	mountain	3	0	0.000000	0.612470	1	0	0	0	CorrectOmission	0.519967	0.475837	1	0
360.166046	0.795801	city	10	1	0.648614	0.648614	0	1	0	0	CorrectCommission	0.022684	0.454495	1	0
360.961853	0.795804	city	9	1	0.665291	0.665291	0	1	0	0	CorrectCommission	0.206763	0.441711	1	0
361.757660	0.795797	city	4	1	0.654295	0.654295	0	1	0	0	CorrectCommission	0.055476	0.438108	1	0
362.553436	0.795807	city	5	1	0.648801	0.648801	0	1	0	0	CorrectCommission	0.020115	0.443787	1	0
363.349274	0.795863	mountain	10	1	0.614206	0.614206	0	0	1	0	CommissionError	0.496085	0.458362	1	0
364.145111	0.795770	city	1	1	0.602918	0.602918	0	1	0	0	CorrectCommission	0.651391	0.481048	1	0
364.940979	0.795986	city	7	1	0.650525	0.650525	0	1	0	0	CorrectCommission	0.003608	0.510811	1	0
365.736755	0.795585	city	2	1	0.698405	0.698405	0	1	0	0	CorrectCommission	0.662344	0.546476	1	0
366.532471	0.795801	city	7	1	0.748525	0.748525	0	1	0	0	CorrectCommission	1.351916	0.586748	1	1
367.328247	0.795800	city	9	1	0.698350	0.698350	0	1	0	0	CorrectCommission	0.661592	0.630300	1	1
368.124054	0.795800	city	2	1	0.655931	0.655931	0	1	0	0	CorrectCommission	0.077978	0.675743	1	1
368.919861	0.795807	city	5	1	0.698469	0.698469	0	1	0	0	CorrectCommission	0.663226	0.721530	1	1
369.715668	0.795799	city	7	1	0.599134	0.599134	0	1	0	0	CorrectCommission	0.703454	0.765880	0	1
370.511475	0.795805	mountain	2	0	0.000000	0.592550	1	0	0	0	CorrectOmission	0.794037	0.806774	0	1
371.307312	0.795906	city	2	1	0.664070	0.664070	0	1	0	0	CorrectCommission	0.189962	0.841981	0	1
372.103119	0.795692	city	9	1	0.799048	0.799048	0	1	0	0	CorrectCommission	2.047028	0.869198	0	1
372.898987	0.796023	city	6	1	0.711382	0.711382	0	1	0	0	CorrectCommission	0.840896	0.886221	0	1
373.694885	0.795802	city	1	1	0.710860	0.710860	0	1	0	0	CorrectCommission	0.833710	0.891313	0	1
374.490570	0.795579	mountain	4	0	0.000000	0.732781	1	0	0	0	CorrectOmission	1.135301	0.883420	0	1
375.286377	0.796022	mountain	8	0	0.000000	0.759815	1	0	0	0	CorrectOmission	1.507245	0.862458	0	1
376.082306	0.795829	mountain	7	0	0.000000	0.774633	1	0	0	0	CorrectOmission	1.711114	0.829425	0	1
376.878052	0.795664	city	7	1	0.759905	0.759905	0	1	0	0	CorrectCommission	1.508480	0.786511	0	1
377.673767	0.795733	city	5	1	0.698301	0.698301	0	1	0	0	CorrectCommission	0.660918	0.736832	1	1
378.469513	0.795809	mountain	9	0	0.000000	0.663748	1	0	0	0	CorrectOmission	0.185533	0.684224	1	1
379.265320	0.795760	city	2	1	0.649560	0.649560	0	1	0	0	CorrectCommission	0.009669	0.632845	1	1
380.061096	0.795798	city	4	1	0.649051	0.649051	0	1	0	0	CorrectCommission	0.016680	0.586794	1	1
380.856873	0.795799	city	8	1	0.599048	0.599048	0	1	0	0	CorrectCommission	0.704637	0.549753	1	1
381.652740	0.795912	city	6	1	0.648677	0.648677	0	1	0	0	CorrectCommission	0.021821	0.524694	1	1
382.448547	0.795693	city	4	1	0.613394	0.613394	0	1	0	0	CorrectCommission	0.507258	0.513763	1	1
383.244293	0.795820	city	8	1	0.648677	0.648677	0	1	0	0	CorrectCommission	0.021827	0.518122	1	1
384.040100	0.795782	city	6	1	0.658216	0.658216	0	1	0	0	CorrectCommission	0.109416	0.537955	1	1
384.835907	0.795807	mountain	6	0	0.000000	0.696511	1	0	0	0	CorrectOmission	0.636290	0.572504	1	1
385.631714	0.795802	city	7	1	0.698531	0.698531	0	1	0	0	CorrectCommission	0.664085	0.620099	1	1
386.427551	0.795910	city	9	1	0.599246	0.599246	0	1	0	0	CorrectCommission	0.701909	0.678210	1	1
387.223389	0.795731	city	8	1	0.599527	0.599527	0	1	0	0	CorrectCommission	0.698045	0.743531	1	1
388.019165	0.795869	city	5	1	0.598839	0.598839	0	1	0	0	CorrectCommission	0.707503	0.812062	0	1
388.814941	0.795691	city	3	1	0.614684	0.614684	0	1	0	0	CorrectCommission	0.489508	0.879326	0	1
389.610718	0.795806	city	4	1	0.649183	0.649183	0	1	0	0	CorrectCommission	0.014864	0.940630	0	1
390.406616	0.796017	city	1	1	0.618662	0.618662	0	1	0	0	CorrectCommission	0.434783	0.991526	0	1
391.202423	0.795587	city	10	1	0.598934	0.598934	0	1	0	0	CorrectCommission	0.706200	1.028224	0	1
391.998108	0.795796	city	6	1	1.046532	1.046532	0	1	0	0	CorrectCommission	5.451981	1.048112	0	1
392.793915	0.795813	city	1	1	0.798429	0.798429	0	1	0	0	CorrectCommission	2.038514	1.050000	0	1
393.589783	0.795901	city	4	1	0.764747	0.764747	0	1	0	0	CorrectCommission	1.575110	1.034511	0	1
394.385559	0.795695	city	2	1	0.698393	0.698393	0	1	0	0	CorrectCommission	0.662184	1.003745	0	1
395.181305	0.795800	mountain	5	0	0.000000	0.662423	1	0	0	0	CorrectOmission	0.167293	0.961008	0	1
395.977112	0.795800	city	9	1	0.648597	0.648597	0	1	0	0	CorrectCommission	0.022916	0.910268	0	1
396.772980	0.795911	city	1	1	0.648679	0.648679	0	1	0	0	CorrectCommission	0.021799	0.855573	0	1
397.568787	0.795697	city	3	1	0.599404	0.599404	0	1	0	0	CorrectCommission	0.699739	0.800560	0	1
398.364594	0.795908	city	10	1	0.549929	0.549929	0	1	0	0	CorrectCommission	1.380432	0.748117	1	1
399.160492	0.795910	city	6	1	0.698603	0.698603	0	1	0	0	CorrectCommission	0.665072	0.700262	1	1
399.956268	0.795625	mountain	8	0	0.000000	0.731566	1	0	0	0	CorrectOmission	1.118592	0.658173	1	1
400.751953	0.795763	city	8	1	0.698395	0.698395	0	1	0	0	CorrectCommission	0.662220	0.622313	1	1
401.547729	0.795805	city	1	1	0.648668	0.648668	0	1	0	0	CorrectCommission	0.021952	0.592684	1	1
402.343628	0.796013	city	4	1	0.698369	0.698369	0	1	0	0	CorrectCommission	0.661849	0.569003	1	1
403.139435	0.795585	city	1	1	0.648409	0.648409	0	1	0	0	CorrectCommission	0.025505	0.550841	1	1
403.935181	0.795908	city	7	1	0.652657	0.652657	0	1	0	0	CorrectCommission	0.032936	0.537869	1	1
404.730988	0.795693	city	10	1	0.700418	0.700418	0	1	0	0	CorrectCommission	0.690045	0.529935	1	1
405.526733	0.795805	city	9	1	0.748641	0.748641	0	1	0	0	CorrectCommission	1.353518	0.527102	1	1
406.322540	0.795802	city	5	1	0.667167	0.667167	0	1	0	0	CorrectCommission	0.232575	0.529672	1	1
407.118378	0.795862	city	2	1	0.698554	0.698554	0	1	0	0	CorrectCommission	0.664395	0.538172	1	1
407.914185	0.795746	city	6	1	0.698309	0.698309	0	1	0	0	CorrectCommission	0.661031	0.553164	1	1
408.709991	0.795902	mountain	3	0	0.000000	0.673348	1	0	0	0	CorrectOmission	0.317606	0.575053	1	1
409.505859	0.795803	city	4	1	0.648672	0.648672	0	1	0	0	CorrectCommission	0.021884	0.603855	1	1
410.301605	0.795689	city	2	1	0.649286	0.649286	0	1	0	0	CorrectCommission	0.013444	0.639107	1	1
411.097351	0.795813	city	3	1	0.698731	0.698731	0	1	0	0	CorrectCommission	0.666834	0.679722	1	1
411.893158	0.795792	city	4	1	0.698400	0.698400	0	1	0	0	CorrectCommission	0.662287	0.723989	1	1
412.688965	0.795806	city	1	1	0.612918	0.612918	0	1	0	0	CorrectCommission	0.513807	0.769675	0	1
413.484741	0.795797	city	4	1	0.549471	0.549471	0	1	0	0	CorrectCommission	1.386725	0.814252	0	1
414.280579	0.795858	city	3	1	0.551666	0.551666	0	1	0	0	CorrectCommission	1.356533	0.855118	0	1
415.076385	0.795757	mountain	10	0	0.000000	0.608687	1	0	0	0	CorrectOmission	0.572013	0.889932	0	1
415.872162	0.795794	city	3	1	0.698389	0.698389	0	1	0	0	CorrectCommission	0.662133	0.916847	0	1
416.667969	0.795798	mountain	10	0	0.000000	0.798625	1	0	0	0	CorrectOmission	2.041205	0.934664	0	1
417.463867	0.796021	city	6	1	0.813904	0.813904	0	1	0	0	CorrectCommission	2.251418	0.942897	0	1
418.259674	0.795587	city	5	1	0.648736	0.648736	0	1	0	0	CorrectCommission	0.021011	0.941759	0	1
419.055359	0.795796	city	8	1	0.698368	0.698368	0	1	0	0	CorrectCommission	0.661848	0.932077	0	1
419.851196	0.795860	city	9	1	0.752355	0.752355	0	1	0	0	CorrectCommission	1.404610	0.914981	0	1
420.647034	0.795800	city	6	1	0.698511	0.698511	0	1	0	0	CorrectCommission	0.663816	0.891784	0	1
421.442810	0.795747	city	7	1	0.648867	0.648867	0	1	0	0	CorrectCommission	0.019205	0.863831	0	1
422.238586	0.795803	city	10	1	0.598869	0.598869	0	1	0	0	CorrectCommission	0.707094	0.832371	0	1
423.034424	0.795909	city	6	1	0.848006	0.848006	0	1	0	0	CorrectCommission	2.720612	0.798501	0	1
423.830231	0.795698	city	7	1	0.660666	0.660666	0	1	0	0	CorrectCommission	0.143127	0.763205	0	1
424.625977	0.795795	city	5	1	0.698324	0.698324	0	1	0	0	CorrectCommission	0.661243	0.727540	1	1
425.421783	0.795802	city	3	1	0.652567	0.652567	0	1	0	0	CorrectCommission	0.031702	0.692564	1	1
426.217590	0.795802	mountain	2	0	0.000000	0.707685	1	0	0	0	CorrectOmission	0.790031	0.659455	1	0
427.013367	0.795805	city	2	1	0.748115	0.748115	0	1	0	0	CorrectCommission	1.346281	0.629479	1	0
427.809174	0.795806	city	3	1	0.658295	0.658295	0	1	0	0	CorrectCommission	0.110502	0.603930	1	0
428.604980	0.795794	city	7	1	0.606184	0.606184	0	1	0	0	CorrectCommission	0.606452	0.584063	1	0
429.400848	0.795909	city	3	1	0.649174	0.649174	0	1	0	0	CorrectCommission	0.014979	0.570854	1	0
430.196655	0.795734	city	8	1	0.698238	0.698238	0	1	0	0	CorrectCommission	0.660050	0.564904	1	0
430.992401	0.795760	city	10	1	0.599197	0.599197	0	1	0	0	CorrectCommission	0.702578	0.566213	1	0
431.788177	0.795800	city	2	1	0.648605	0.648605	0	1	0	0	CorrectCommission	0.022813	0.574122	1	0
432.583984	0.795806	city	3	1	0.598907	0.598907	0	1	0	0	CorrectCommission	0.706573	0.587290	1	0
433.379791	0.795798	city	5	1	0.649060	0.649060	0	1	0	0	CorrectCommission	0.016559	0.603707	1	0
434.175598	0.795804	city	9	1	0.648835	0.648835	0	1	0	0	CorrectCommission	0.019643	0.620956	1	0
434.971405	0.795799	city	2	1	0.598978	0.598978	0	1	0	0	CorrectCommission	0.705590	0.636504	1	0
435.767242	0.795911	city	9	1	0.748096	0.748096	0	1	0	0	CorrectCommission	1.346013	0.648117	1	0
436.563049	0.795697	city	6	1	0.748021	0.748021	0	1	0	0	CorrectCommission	1.344984	0.654197	1	0
437.358795	0.795800	mountain	7	0	0.000000	0.764926	1	0	0	0	CorrectOmission	1.577569	0.654099	1	0
438.154602	0.795801	city	4	1	0.748533	0.748533	0	1	0	0	CorrectCommission	1.352023	0.648247	1	0
438.950409	0.795800	city	8	1	0.648562	0.648562	0	1	0	0	CorrectCommission	0.023402	0.638091	1	0
439.746307	0.796020	mountain	6	0	0.000000	0.664819	1	0	0	0	CorrectOmission	0.200270	0.625896	1	0
440.542114	0.795583	city	4	1	0.698085	0.698085	0	1	0	0	CorrectCommission	0.657950	0.614270	1	0
441.337921	0.796020	city	8	1	0.649140	0.649140	0	1	0	0	CorrectCommission	0.015453	0.605802	1	0
442.133759	0.795650	city	2	1	0.601304	0.601304	0	1	0	0	CorrectCommission	0.673591	0.602614	1	0
442.929443	0.795738	city	10	1	0.648921	0.648921	0	1	0	0	CorrectCommission	0.018468	0.606023	1	0
443.725220	0.795801	city	4	1	0.698424	0.698424	0	1	0	0	CorrectCommission	0.662608	0.616367	1	0
444.521027	0.795801	city	8	1	0.648737	0.648737	0	1	0	0	CorrectCommission	0.021000	0.632975	1	0
445.316803	0.795801	city	2	1	0.665060	0.665060	0	1	0	0	CorrectCommission	0.203579	0.654419	1	0
446.112610	0.795798	city	7	1	0.698375	0.698375	0	1	0	0	CorrectCommission	0.661936	0.678702	1	0
446.908417	0.795804	mountain	6	0	0.000000	0.770153	1	0	0	0	CorrectOmission	1.649484	0.703653	1	0
447.704224	0.795801	city	7	1	0.797840	0.797840	0	1	0	0	CorrectCommission	2.030402	0.727193	1	0
448.500031	0.795801	city	9	1	0.698879	0.698879	0	1	0	0	CorrectCommission	0.668868	0.747620	1	0
449.295837	0.795804	city	2	1	0.648961	0.648961	0	1	0	0	CorrectCommission	0.017919	0.763741	0	0
450.091614	0.795800	city	3	1	0.599103	0.599103	0	1	0	0	CorrectCommission	0.703870	0.774827	0	0
450.887451	0.795832	city	1	1	0.599056	0.599056	0	1	0	0	CorrectCommission	0.704516	0.780537	0	0
451.683350	0.795989	city	4	1	0.598841	0.598841	0	1	0	0	CorrectCommission	0.707487	0.780799	0	0
452.479126	0.795588	city	5	1	0.549969	0.549969	0	1	0	0	CorrectCommission	1.379877	0.775682	0	0
453.274902	0.795906	mountain	2	0	0.000000	0.580263	1	0	0	0	CorrectOmission	0.963080	0.765295	0	0
454.070801	0.795912	city	4	1	0.649786	0.649786	0	1	0	0	CorrectCommission	0.006566	0.749789	1	0
454.866669	0.795803	mountain	4	0	0.000000	0.718600	1	0	0	0	CorrectOmission	0.940197	0.729390	1	0
455.662354	0.795583	city	8	1	0.747894	0.747894	0	1	0	0	CorrectCommission	1.343236	0.704402	1	0
456.458038	0.795799	city	2	1	0.698857	0.698857	0	1	0	0	CorrectCommission	0.668575	0.675375	1	0
457.253876	0.795895	city	1	1	0.607798	0.607798	0	1	0	0	CorrectCommission	0.584249	0.643116	1	0
458.049713	0.795754	city	9	1	0.748025	0.748025	0	1	0	0	CorrectCommission	1.345044	0.608682	1	0
458.845520	0.795865	city	1	1	0.660689	0.660689	0	1	0	0	CorrectCommission	0.143440	0.573354	1	0
459.641296	0.795694	city	10	1	0.658376	0.658376	0	1	0	0	CorrectCommission	0.111613	0.538599	1	0
460.437164	0.796020	city	8	1	0.599752	0.599752	0	1	0	0	CorrectCommission	0.694953	0.505927	1	0
461.233002	0.795693	mountain	3	0	0.000000	0.647662	1	0	0	0	CorrectOmission	0.035781	0.476791	1	0
462.028717	0.795700	city	10	1	0.698545	0.698545	0	1	0	0	CorrectCommission	0.664275	0.452519	1	0
462.824463	0.795794	city	5	1	0.648835	0.648835	0	1	0	0	CorrectCommission	0.019644	0.434209	1	0
463.620361	0.796019	city	9	1	0.606195	0.606195	0	1	0	0	CorrectCommission	0.606300	0.422697	1	0
464.416260	0.795801	city	8	1	0.648446	0.648446	0	1	0	0	CorrectCommission	0.024996	0.418495	1	0
465.211975	0.795621	city	4	1	0.617663	0.617663	0	1	0	0	CorrectCommission	0.448518	0.421804	1	0
466.007690	0.795763	city	1	1	0.600526	0.600526	0	1	0	0	CorrectCommission	0.684294	0.432452	1	0
466.803528	0.795912	city	4	1	0.649547	0.649547	0	1	0	0	CorrectCommission	0.009847	0.449888	1	0
467.599426	0.795910	mountain	1	0	0.000000	0.689848	1	0	0	0	CorrectOmission	0.544619	0.473147	1	0
468.395172	0.795587	city	2	1	0.698194	0.698194	0	1	0	0	CorrectCommission	0.659451	0.500825	1	0
469.190857	0.795807	city	5	1	0.651353	0.651353	0	1	0	0	CorrectCommission	0.014999	0.531143	1	0
469.986664	0.795794	city	8	1	0.648617	0.648617	0	1	0	0	CorrectCommission	0.022654	0.562050	1	0
470.782532	0.795912	city	6	1	0.649239	0.649239	0	1	0	0	CorrectCommission	0.014087	0.591432	1	0
471.578339	0.795694	city	3	1	0.548956	0.548956	0	1	0	0	CorrectCommission	1.393809	0.617360	1	0
472.374084	0.795798	city	8	1	0.549630	0.549630	0	1	0	0	CorrectCommission	1.384545	0.638318	1	0
473.169861	0.795806	city	5	1	0.549224	0.549224	0	1	0	0	CorrectCommission	1.390132	0.653530	1	0
473.965668	0.795800	mountain	9	0	0.000000	0.563495	1	0	0	0	CorrectOmission	1.193787	0.663070	1	0
474.761536	0.795909	city	4	1	0.599100	0.599100	0	1	0	0	CorrectCommission	0.703915	0.667898	1	0
475.557343	0.795729	mountain	5	0	0.000000	0.662698	1	0	0	0	CorrectOmission	0.171083	0.669751	1	0
476.353149	0.795875	city	5	1	0.698376	0.698376	0	1	0	0	CorrectCommission	0.661958	0.670937	1	0
477.148956	0.795743	city	4	1	0.650224	0.650224	0	1	0	0	CorrectCommission	0.000536	0.674015	1	0
477.944702	0.795748	city	10	1	0.598944	0.598944	0	1	0	0	CorrectCommission	0.706066	0.681523	1	0
478.740601	0.796021	city	4	1	0.653609	0.653609	0	1	0	0	CorrectCommission	0.046029	0.695722	1	0
479.536407	0.795587	city	1	1	0.598821	0.598821	0	1	0	0	CorrectCommission	0.707757	0.718457	1	0
480.332092	0.795796	city	9	1	0.566064	0.566064	0	1	0	0	CorrectCommission	1.158440	0.751028	1	0
481.127899	0.795805	city	7	1	0.611155	0.611155	0	1	0	0	CorrectCommission	0.538064	0.794197	0	0
481.923798	0.796018	city	1	1	0.599241	0.599241	0	1	0	0	CorrectCommission	0.701978	0.848217	0	0
482.719666	0.795694	city	2	1	0.598827	0.598827	0	1	0	0	CorrectCommission	0.707678	0.912825	0	0
483.515350	0.795690	city	10	1	0.555354	0.555354	0	1	0	0	CorrectCommission	1.305790	0.987265	0	0
484.311096	0.795803	city	2	1	0.599045	0.599045	0	1	0	0	CorrectCommission	0.704668	1.070307	0	0
485.106995	0.796022	city	3	1	0.648783	0.648783	0	1	0	0	CorrectCommission	0.020364	1.160289	0	0
485.902802	0.795587	city	10	1	0.748376	0.748376	0	1	0	0	CorrectCommission	1.349862	1.255157	0	0
486.698517	0.795832	city	8	1	0.748569	0.748569	0	1	0	0	CorrectCommission	1.352527	1.352527	0	0
