onset	duration	trial_type	image_type	Press	ReactionTime	ReactionTime_Interpolated	CorrectOmission	CorrectCommission	CommissionError	OmissionError	response_type	nonsmoothVarianceTimeCourse	VarianceTimeCourse	In_the_Zone	Reward_trial
8.421776	0.795692	city	9	1	0.901310	0.901310	0	1	0	0	CorrectCommission	3.261530	3.261530	0	1
9.217523	0.795800	city	7	1	0.750769	0.750769	0	1	0	0	CorrectCommission	1.376502	2.885284	0	1
10.013325	0.795805	city	2	1	0.802690	0.802690	0	1	0	0	CorrectCommission	2.026636	2.521212	0	1
10.809136	0.795818	city	1	1	0.748248	0.748248	0	1	0	0	CorrectCommission	1.344929	2.180503	0	1
11.604938	0.795784	city	4	1	0.708048	0.708048	0	1	0	0	CorrectCommission	0.841562	1.872548	0	1
12.400730	0.795802	city	1	1	0.655775	0.655775	0	1	0	0	CorrectCommission	0.187014	1.604284	0	1
13.196543	0.795821	city	6	1	0.698393	0.698393	0	1	0	0	CorrectCommission	0.720657	1.379904	0	1
13.992373	0.795841	city	9	1	0.648626	0.648626	0	1	0	0	CorrectCommission	0.097493	1.200740	0	1
14.788274	0.795960	mountain	6	0	0.000000	0.681428	1	0	0	0	CorrectOmission	0.508230	1.065575	0	1
15.584044	0.795582	city	4	1	0.698128	0.698128	0	1	0	0	CorrectCommission	0.717344	0.971031	0	1
16.379845	0.796020	city	2	1	0.600056	0.600056	0	1	0	0	CorrectCommission	0.510693	0.912174	0	1
17.175758	0.795804	city	3	1	0.664149	0.664149	0	1	0	0	CorrectCommission	0.291866	0.883132	0	1
17.971453	0.795585	city	7	1	0.711369	0.711369	0	1	0	0	CorrectCommission	0.883148	0.877663	0	1
18.767252	0.796015	city	9	1	0.753113	0.753113	0	1	0	0	CorrectCommission	1.405852	0.889637	0	1
19.563082	0.795643	city	2	1	0.748015	0.748015	0	1	0	0	CorrectCommission	1.342008	0.913393	0	1
20.358883	0.795961	city	3	1	0.698280	0.698280	0	1	0	0	CorrectCommission	0.719249	0.943959	0	1
21.154711	0.795692	city	8	1	0.599673	0.599673	0	1	0	0	CorrectCommission	0.515483	0.977159	0	1
21.950401	0.795693	city	3	1	0.698298	0.698298	0	1	0	0	CorrectCommission	0.719465	1.009614	0	1
22.746204	0.795912	mountain	10	0	0.000000	0.755915	1	0	0	0	CorrectOmission	1.440929	1.038733	0	1
23.542009	0.795697	city	1	1	0.763097	0.763097	0	1	0	0	CorrectCommission	1.530867	1.062677	0	1
24.337755	0.795798	city	4	1	0.710418	0.710418	0	1	0	0	CorrectCommission	0.871239	1.080364	0	1
25.133572	0.795835	city	3	1	0.709381	0.709381	0	1	0	0	CorrectCommission	0.858253	1.091443	0	1
25.929377	0.795774	city	9	1	0.814313	0.814313	0	1	0	0	CorrectCommission	2.172183	1.096239	0	1
26.725161	0.795795	city	10	1	0.748253	0.748253	0	1	0	0	CorrectCommission	1.344996	1.095654	0	1
27.520960	0.795802	city	7	1	0.711121	0.711121	0	1	0	0	CorrectCommission	0.880040	1.091043	0	1
28.316769	0.795819	city	6	1	0.797861	0.797861	0	1	0	0	CorrectCommission	1.966173	1.083947	0	1
29.112625	0.795892	city	1	1	0.698799	0.698799	0	1	0	0	CorrectCommission	0.725738	1.075806	0	1
29.908419	0.795694	city	8	1	0.649210	0.649210	0	1	0	0	CorrectCommission	0.104800	1.067764	0	1
30.704165	0.795799	city	3	1	0.648771	0.648771	0	1	0	0	CorrectCommission	0.099304	1.060410	0	1
31.499968	0.795806	city	7	1	0.698367	0.698367	0	1	0	0	CorrectCommission	0.720336	1.053727	0	1
32.295769	0.795798	city	5	1	0.763762	0.763762	0	1	0	0	CorrectCommission	1.539197	1.047129	0	1
33.091625	0.795912	city	3	1	0.748308	0.748308	0	1	0	0	CorrectCommission	1.345679	1.039659	0	1
33.887421	0.795680	mountain	9	0	0.000000	0.761774	1	0	0	0	CorrectOmission	1.514304	1.030268	0	1
34.683277	0.796034	mountain	7	0	0.000000	0.776435	1	0	0	0	CorrectOmission	1.697884	1.018085	0	1
35.479095	0.795608	city	3	1	0.764563	0.764563	0	1	0	0	CorrectCommission	1.549228	1.002565	0	1
36.274807	0.795809	city	5	1	0.698432	0.698432	0	1	0	0	CorrectCommission	0.721147	0.983600	0	1
37.070595	0.795773	city	7	1	0.699103	0.699103	0	1	0	0	CorrectCommission	0.729552	0.961500	0	1
37.866489	0.796016	city	10	1	0.698396	0.698396	0	1	0	0	CorrectCommission	0.720703	0.936875	0	1
38.662319	0.795638	city	5	1	0.666913	0.666913	0	1	0	0	CorrectCommission	0.326478	0.910521	0	1
39.458065	0.795855	city	1	1	0.662937	0.662937	0	1	0	0	CorrectCommission	0.276692	0.883307	0	1
40.253948	0.795913	city	3	1	0.748516	0.748516	0	1	0	0	CorrectCommission	1.348282	0.856103	0	1
41.049805	0.795801	mountain	6	0	0.000000	0.740168	1	0	0	0	CorrectOmission	1.243751	0.829773	0	1
41.845551	0.795691	city	1	1	0.714613	0.714613	0	1	0	0	CorrectCommission	0.923768	0.805256	0	1
42.641247	0.795699	city	2	1	0.748573	0.748573	0	1	0	0	CorrectCommission	1.348999	0.783519	0	1
43.436996	0.795806	city	3	1	0.698449	0.698449	0	1	0	0	CorrectCommission	0.721356	0.765482	0	1
44.232815	0.795829	city	2	1	0.703202	0.703202	0	1	0	0	CorrectCommission	0.780883	0.751960	0	1
45.028618	0.795777	city	1	1	0.661420	0.661420	0	1	0	0	CorrectCommission	0.257693	0.743436	0	1
45.824402	0.795789	city	4	1	0.649529	0.649529	0	1	0	0	CorrectCommission	0.108796	0.739854	0	1
46.620197	0.795803	city	8	1	0.607433	0.607433	0	1	0	0	CorrectCommission	0.418315	0.740510	0	1
47.416031	0.795865	city	5	1	0.648765	0.648765	0	1	0	0	CorrectCommission	0.099233	0.744020	0	1
48.211834	0.795744	city	9	1	0.660963	0.660963	0	1	0	0	CorrectCommission	0.251978	0.748460	0	1
49.007607	0.795799	city	3	1	0.599585	0.599585	0	1	0	0	CorrectCommission	0.516581	0.751607	0	1
49.803406	0.795801	city	7	1	0.847663	0.847663	0	1	0	0	CorrectCommission	2.589772	0.751322	0	1
50.599316	0.796019	city	8	1	0.797821	0.797821	0	1	0	0	CorrectCommission	1.965666	0.745878	0	1
51.395119	0.795587	city	5	1	0.748718	0.748718	0	1	0	0	CorrectCommission	1.350820	0.734320	1	1
52.190834	0.795846	city	3	1	0.658234	0.658234	0	1	0	0	CorrectCommission	0.217801	0.716549	1	1
52.986687	0.795861	city	8	1	0.649089	0.649089	0	1	0	0	CorrectCommission	0.103288	0.693318	1	1
53.782467	0.795694	city	3	1	0.611336	0.611336	0	1	0	0	CorrectCommission	0.369441	0.666056	1	1
54.578270	0.795911	city	2	1	0.614386	0.614386	0	1	0	0	CorrectCommission	0.331249	0.636721	1	1
55.374073	0.795696	city	5	1	0.604846	0.604846	0	1	0	0	CorrectCommission	0.450713	0.607501	1	1
56.169830	0.795821	mountain	3	0	0.000000	0.690406	1	0	0	0	CorrectOmission	0.620652	0.580685	1	1
56.965630	0.795780	city	1	1	0.748507	0.748507	0	1	0	0	CorrectCommission	1.348169	0.558557	1	1
57.761421	0.795799	city	6	1	0.656585	0.656585	0	1	0	0	CorrectCommission	0.197157	0.543318	1	1
58.557224	0.795807	city	8	1	0.649010	0.649010	0	1	0	0	CorrectCommission	0.102297	0.537099	1	1
59.353081	0.795907	city	6	1	0.698392	0.698392	0	1	0	0	CorrectCommission	0.720654	0.541821	1	1
60.148933	0.795801	city	2	1	0.598918	0.598918	0	1	0	0	CorrectCommission	0.524941	0.559058	1	1
60.944736	0.795802	city	4	1	0.648711	0.648711	0	1	0	0	CorrectCommission	0.098561	0.589848	1	1
61.740593	0.795909	city	5	1	0.648554	0.648554	0	1	0	0	CorrectCommission	0.096586	0.634413	1	1
62.536343	0.795594	city	2	1	0.598705	0.598705	0	1	0	0	CorrectCommission	0.527609	0.691930	1	1
63.332035	0.795791	city	7	1	0.598948	0.598948	0	1	0	0	CorrectCommission	0.524560	0.760328	0	1
64.127831	0.795802	mountain	5	0	0.000000	0.643014	1	0	0	0	CorrectOmission	0.027224	0.836218	0	1
64.923637	0.795805	city	6	1	0.698356	0.698356	0	1	0	0	CorrectCommission	0.720193	0.915048	0	1
65.719437	0.795801	mountain	2	0	0.000000	0.732425	1	0	0	0	CorrectOmission	1.146799	0.991365	0	1
66.515236	0.795797	city	4	1	0.748095	0.748095	0	1	0	0	CorrectCommission	1.343016	1.059372	0	1
67.311150	0.796021	mountain	9	1	0.748239	0.748239	0	0	1	0	CommissionError	1.344820	1.113517	0	1
68.106949	0.795584	city	3	1	0.758170	0.758170	0	1	0	0	CorrectCommission	1.469171	1.149238	0	0
68.902641	0.795801	city	10	1	0.748454	0.748454	0	1	0	0	CorrectCommission	1.347508	1.163529	0	0
69.698448	0.795806	city	2	1	1.013294	1.013294	0	1	0	0	CorrectCommission	4.663767	1.155400	0	0
70.494354	0.796015	city	10	1	0.798817	0.798817	0	1	0	0	CorrectCommission	1.978140	1.125912	0	0
71.290154	0.795585	city	5	1	0.710692	0.710692	0	1	0	0	CorrectCommission	0.874662	1.078174	0	0
72.085846	0.795799	city	10	1	0.648697	0.648697	0	1	0	0	CorrectCommission	0.098383	1.016734	0	0
72.881668	0.795835	city	1	1	0.655656	0.655656	0	1	0	0	CorrectCommission	0.185519	0.946928	0	0
73.677521	0.795879	mountain	9	0	0.000000	0.672205	1	0	0	0	CorrectOmission	0.392739	0.874135	0	0
74.473419	0.795911	city	9	1	0.655731	0.655731	0	1	0	0	CorrectCommission	0.186463	0.803104	0	0
75.269165	0.795588	city	3	1	0.563623	0.563623	0	1	0	0	CorrectCommission	0.966889	0.737522	0	0
76.064857	0.795797	city	10	1	0.610040	0.610040	0	1	0	0	CorrectCommission	0.385676	0.679751	1	0
76.860710	0.795912	city	1	1	0.648789	0.648789	0	1	0	0	CorrectCommission	0.099538	0.630867	1	0
77.656570	0.795801	mountain	6	0	0.000000	0.721831	1	0	0	0	CorrectOmission	1.014141	0.590851	1	0
78.452423	0.795910	city	8	1	0.748634	0.748634	0	1	0	0	CorrectCommission	1.349763	0.558922	1	0
79.248230	0.795693	city	2	1	0.648670	0.648670	0	1	0	0	CorrectCommission	0.098037	0.533904	1	0
80.043930	0.795721	city	4	1	0.660470	0.660470	0	1	0	0	CorrectCommission	0.245802	0.514555	1	0
80.839684	0.795773	city	9	1	0.648611	0.648611	0	1	0	0	CorrectCommission	0.097307	0.499750	1	0
81.635475	0.795808	city	1	1	0.599298	0.599298	0	1	0	0	CorrectCommission	0.520173	0.488667	1	0
82.431274	0.795793	city	3	1	0.598863	0.598863	0	1	0	0	CorrectCommission	0.525625	0.480769	1	0
83.227180	0.796022	city	6	1	0.748118	0.748118	0	1	0	0	CorrectCommission	1.343305	0.475797	1	0
84.022987	0.795591	city	7	1	0.648771	0.648771	0	1	0	0	CorrectCommission	0.099304	0.473604	1	0
84.818687	0.795804	city	4	1	0.661219	0.661219	0	1	0	0	CorrectCommission	0.255173	0.474096	1	0
85.614479	0.795788	city	2	1	0.648640	0.648640	0	1	0	0	CorrectCommission	0.097666	0.477049	1	0
86.410278	0.795803	city	4	1	0.648723	0.648723	0	1	0	0	CorrectCommission	0.098703	0.482035	1	0
87.206192	0.796021	city	1	1	0.598808	0.598808	0	1	0	0	CorrectCommission	0.526318	0.488394	1	0
88.002045	0.795691	city	9	1	0.702994	0.702994	0	1	0	0	CorrectCommission	0.778277	0.495318	1	0
88.797745	0.795706	city	4	1	0.698658	0.698658	0	1	0	0	CorrectCommission	0.723976	0.501983	1	0
89.593506	0.795820	city	1	1	0.615544	0.615544	0	1	0	0	CorrectCommission	0.316754	0.507736	1	0
90.389297	0.795770	city	8	1	0.602571	0.602571	0	1	0	0	CorrectCommission	0.479191	0.512266	1	0
91.185143	0.795913	mountain	10	1	0.549191	0.549191	0	0	1	0	CommissionError	1.147599	0.515703	1	0
91.980980	0.795762	city	2	1	0.698407	0.698407	0	1	0	0	CorrectCommission	0.720832	0.518693	1	0
92.776726	0.795733	city	5	1	0.649565	0.649565	0	1	0	0	CorrectCommission	0.109246	0.522356	1	0
93.572495	0.795800	city	4	1	0.698405	0.698405	0	1	0	0	CorrectCommission	0.720809	0.528177	1	0
94.368301	0.795824	mountain	9	0	0.000000	0.689528	1	0	0	0	CorrectOmission	0.609652	0.537684	1	0
95.164108	0.795780	city	6	1	0.660511	0.660511	0	1	0	0	CorrectCommission	0.246307	0.552225	1	0
95.959900	0.795804	city	7	1	0.648931	0.648931	0	1	0	0	CorrectCommission	0.101308	0.572661	1	0
96.755753	0.795908	city	1	1	0.605778	0.605778	0	1	0	0	CorrectCommission	0.439042	0.599151	1	0
97.551666	0.795910	mountain	7	0	0.000000	0.652942	1	0	0	0	CorrectOmission	0.151537	0.630989	1	0
98.347435	0.795630	city	1	1	0.698164	0.698164	0	1	0	0	CorrectCommission	0.717797	0.666630	1	0
99.143234	0.795974	city	2	1	0.649185	0.649185	0	1	0	0	CorrectCommission	0.104488	0.703798	1	0
99.939041	0.795644	city	5	1	0.598700	0.598700	0	1	0	0	CorrectCommission	0.527665	0.739799	0	0
100.734734	0.795740	city	4	1	0.797725	0.797725	0	1	0	0	CorrectCommission	1.964472	0.771805	0	0
101.530510	0.795805	city	2	1	0.698469	0.698469	0	1	0	0	CorrectCommission	0.721610	0.797237	0	0
102.326309	0.795797	city	6	1	0.848109	0.848109	0	1	0	0	CorrectCommission	2.595358	0.814119	0	0
103.122223	0.796021	city	4	1	0.698330	0.698330	0	1	0	0	CorrectCommission	0.719875	0.821192	0	0
103.918076	0.795692	city	5	1	0.648400	0.648400	0	1	0	0	CorrectCommission	0.094663	0.818088	0	0
104.713768	0.795697	mountain	8	0	0.000000	0.698203	1	0	0	0	CorrectOmission	0.718276	0.805197	0	0
105.509544	0.795843	city	1	1	0.748079	0.748079	0	1	0	0	CorrectCommission	1.342818	0.783531	0	0
106.305344	0.795760	city	5	1	0.698372	0.698372	0	1	0	0	CorrectCommission	0.720392	0.754578	0	0
107.101120	0.795798	city	9	1	0.661817	0.661817	0	1	0	0	CorrectCommission	0.262666	0.720150	1	0
107.896973	0.795909	city	2	1	0.656156	0.656156	0	1	0	0	CorrectCommission	0.191778	0.682214	1	0
108.692780	0.795694	city	4	1	0.812202	0.812202	0	1	0	0	CorrectCommission	2.145744	0.642791	1	0
109.488579	0.795911	city	1	1	0.608603	0.608603	0	1	0	0	CorrectCommission	0.403659	0.603863	1	0
110.284378	0.795691	city	4	1	0.598910	0.598910	0	1	0	0	CorrectCommission	0.525032	0.567442	1	0
111.080132	0.795806	mountain	2	0	0.000000	0.626368	1	0	0	0	CorrectOmission	0.181210	0.535372	1	0
111.875931	0.795797	city	9	1	0.655085	0.655085	0	1	0	0	CorrectCommission	0.178375	0.509345	1	0
112.671837	0.796022	city	8	1	0.649169	0.649169	0	1	0	0	CorrectCommission	0.104292	0.490780	1	0
113.467751	0.795802	city	6	1	0.660367	0.660367	0	1	0	0	CorrectCommission	0.244514	0.480785	1	0
114.263443	0.795585	city	7	1	0.598819	0.598819	0	1	0	0	CorrectCommission	0.526171	0.480051	1	0
115.059135	0.795803	city	8	1	0.598936	0.598936	0	1	0	0	CorrectCommission	0.524711	0.488809	1	0
115.854942	0.795800	city	10	1	0.598874	0.598874	0	1	0	0	CorrectCommission	0.525485	0.506788	1	0
116.650742	0.795799	city	2	1	0.648776	0.648776	0	1	0	0	CorrectCommission	0.099374	0.533218	1	0
117.446571	0.795862	city	6	1	0.649049	0.649049	0	1	0	0	CorrectCommission	0.102791	0.566814	1	0
118.242477	0.795961	city	2	1	0.549147	0.549147	0	1	0	0	CorrectCommission	1.148153	0.605769	1	0
119.038307	0.795693	city	1	1	0.599100	0.599100	0	1	0	0	CorrectCommission	0.522662	0.647874	1	0
119.834000	0.795693	city	6	1	0.663017	0.663017	0	1	0	0	CorrectCommission	0.277688	0.690637	1	0
120.629745	0.795802	city	5	1	0.598798	0.598798	0	1	0	0	CorrectCommission	0.526443	0.731478	1	0
121.425552	0.795801	city	10	1	0.559097	0.559097	0	1	0	0	CorrectCommission	1.023565	0.767941	0	0
122.221352	0.795799	city	3	1	0.549500	0.549500	0	1	0	0	CorrectCommission	1.143732	0.797961	0	0
123.017151	0.795803	city	5	1	0.549327	0.549327	0	1	0	0	CorrectCommission	1.145899	0.820134	0	0
123.813065	0.796020	city	10	1	0.517941	0.517941	0	1	0	0	CorrectCommission	1.538904	0.833938	0	0
124.608971	0.795801	city	1	1	0.551473	0.551473	0	1	0	0	CorrectCommission	1.119025	0.839842	0	0
125.404671	0.795588	city	5	1	0.548948	0.548948	0	1	0	0	CorrectCommission	1.150644	0.839333	0	0
126.200363	0.795796	city	2	1	0.598897	0.598897	0	1	0	0	CorrectCommission	0.525201	0.834704	0	0
126.996162	0.795804	mountain	6	1	0.556456	0.556456	0	0	1	0	CommissionError	1.056628	0.828855	0	0
127.791962	0.795800	city	10	1	0.649238	0.649238	0	1	0	0	CorrectCommission	0.105158	0.824844	0	1
128.587875	0.796020	city	7	1	0.711317	0.711317	0	1	0	0	CorrectCommission	0.882494	0.825518	0	1
129.383698	0.795622	city	4	1	0.698147	0.698147	0	1	0	0	CorrectCommission	0.717584	0.833030	0	1
130.179382	0.795763	city	8	1	0.649072	0.649072	0	1	0	0	CorrectCommission	0.103072	0.848557	0	1
130.975204	0.795869	city	5	1	0.598915	0.598915	0	1	0	0	CorrectCommission	0.524976	0.872039	0	1
131.771057	0.795842	city	10	1	0.549460	0.549460	0	1	0	0	CorrectCommission	1.144232	0.902101	0	1
132.566879	0.795802	mountain	3	0	0.000000	0.570819	1	0	0	0	CorrectOmission	0.876781	0.936172	0	1
133.362625	0.795693	city	1	1	0.606272	0.606272	0	1	0	0	CorrectCommission	0.432847	0.970800	0	1
134.158371	0.795803	city	5	1	0.599100	0.599100	0	1	0	0	CorrectCommission	0.522653	1.002043	0	1
134.954178	0.795799	city	6	1	0.502018	0.502018	0	1	0	0	CorrectCommission	1.738290	1.025998	0	1
135.750092	0.796021	city	7	1	0.499396	0.499396	0	1	0	0	CorrectCommission	1.771121	1.039316	0	1
136.545990	0.795803	city	6	1	0.499431	0.499431	0	1	0	0	CorrectCommission	1.770687	1.039754	0	1
137.341797	0.795801	city	3	1	0.499755	0.499755	0	1	0	0	CorrectCommission	1.766624	1.026512	0	1
138.137497	0.795596	city	8	1	0.503067	0.503067	0	1	0	0	CorrectCommission	1.725161	1.000352	0	1
138.933304	0.796007	mountain	5	0	0.000000	0.551603	1	0	0	0	CorrectOmission	1.117400	0.963534	0	1
139.729141	0.795693	city	7	1	0.598979	0.598979	0	1	0	0	CorrectCommission	0.524178	0.919485	0	1
140.524841	0.795695	city	3	1	0.598806	0.598806	0	1	0	0	CorrectCommission	0.526335	0.872335	0	1
141.320602	0.795830	city	4	1	0.599529	0.599529	0	1	0	0	CorrectCommission	0.517290	0.826302	0	1
142.116516	0.795990	city	9	1	0.614486	0.614486	0	1	0	0	CorrectCommission	0.329993	0.785172	0	1
142.912308	0.795602	city	1	1	0.599277	0.599277	0	1	0	0	CorrectCommission	0.520439	0.751827	0	1
143.708008	0.795780	city	10	1	0.615198	0.615198	0	1	0	0	CorrectCommission	0.321088	0.727937	1	1
144.503799	0.795803	city	2	1	0.603811	0.603811	0	1	0	0	CorrectCommission	0.463669	0.713818	1	1
145.299591	0.795807	city	1	1	0.566385	0.566385	0	1	0	0	CorrectCommission	0.932303	0.708550	1	1
146.095428	0.795863	city	8	1	0.659842	0.659842	0	1	0	0	CorrectCommission	0.237932	0.710153	1	1
146.891266	0.795809	city	2	1	0.614056	0.614056	0	1	0	0	CorrectCommission	0.335383	0.716003	1	1
147.687057	0.795762	city	7	1	0.598793	0.598793	0	1	0	0	CorrectCommission	0.526497	0.723235	1	1
148.482819	0.795771	city	4	1	0.798230	0.798230	0	1	0	0	CorrectCommission	1.970787	0.729163	1	1
149.278610	0.795800	city	10	1	0.549625	0.549625	0	1	0	0	CorrectCommission	1.142174	0.731617	1	1
150.074402	0.795807	city	5	1	0.549755	0.549755	0	1	0	0	CorrectCommission	1.140543	0.729249	1	1
150.870209	0.795796	city	3	1	0.564860	0.564860	0	1	0	0	CorrectCommission	0.951407	0.721557	1	1
151.666016	0.795800	city	5	1	0.648625	0.648625	0	1	0	0	CorrectCommission	0.097478	0.708853	1	1
152.461838	0.795866	city	8	1	0.698511	0.698511	0	1	0	0	CorrectCommission	0.722134	0.692058	1	1
153.257645	0.795746	city	2	1	0.649756	0.649756	0	1	0	0	CorrectCommission	0.111639	0.672450	1	1
154.053421	0.795796	city	9	1	0.748373	0.748373	0	1	0	0	CorrectCommission	1.346490	0.651430	1	1
154.849243	0.795864	city	7	1	0.609803	0.609803	0	1	0	0	CorrectCommission	0.388638	0.630239	1	1
155.645050	0.795750	city	2	1	0.564199	0.564199	0	1	0	0	CorrectCommission	0.959673	0.609846	1	1
156.440826	0.795788	city	6	1	0.648621	0.648621	0	1	0	0	CorrectCommission	0.097429	0.590799	1	1
157.236618	0.795803	city	7	1	0.648638	0.648638	0	1	0	0	CorrectCommission	0.097642	0.573292	1	1
158.032532	0.796020	city	3	1	0.602745	0.602745	0	1	0	0	CorrectCommission	0.477018	0.557186	1	1
158.828339	0.795586	mountain	6	0	0.000000	0.574639	1	0	0	0	CorrectOmission	0.828948	0.542137	1	1
159.624130	0.796017	city	10	1	0.608355	0.608355	0	1	0	0	CorrectCommission	0.406773	0.527780	1	1
160.419937	0.795586	city	6	1	0.747925	0.747925	0	1	0	0	CorrectCommission	1.340881	0.513883	1	1
161.215622	0.795797	city	9	1	0.698487	0.698487	0	1	0	0	CorrectCommission	0.721832	0.500420	1	1
162.011429	0.795814	city	7	1	0.660719	0.660719	0	1	0	0	CorrectCommission	0.248920	0.487645	1	1
162.807251	0.795823	city	2	1	0.648611	0.648611	0	1	0	0	CorrectCommission	0.097302	0.476026	1	1
163.603043	0.795772	city	6	1	0.648777	0.648777	0	1	0	0	CorrectCommission	0.099382	0.466173	1	1
164.398895	0.795908	city	7	1	0.599020	0.599020	0	1	0	0	CorrectCommission	0.523654	0.458694	1	1
165.194687	0.795694	city	2	1	0.599158	0.599158	0	1	0	0	CorrectCommission	0.521930	0.454078	1	1
165.990540	0.796018	city	1	1	0.612797	0.612797	0	1	0	0	CorrectCommission	0.351152	0.452565	1	1
166.786362	0.795625	city	6	1	0.698228	0.698228	0	1	0	0	CorrectCommission	0.718593	0.454128	1	1
167.582062	0.795759	city	8	1	0.649070	0.649070	0	1	0	0	CorrectCommission	0.103047	0.458430	1	1
168.377945	0.796022	city	1	1	0.605984	0.605984	0	1	0	0	CorrectCommission	0.436459	0.464875	1	1
169.173767	0.795625	city	3	1	0.649019	0.649019	0	1	0	0	CorrectCommission	0.102415	0.472697	1	1
169.969528	0.795869	city	9	1	0.698752	0.698752	0	1	0	0	CorrectCommission	0.725155	0.481046	1	1
170.765305	0.795699	city	7	1	0.603896	0.603896	0	1	0	0	CorrectCommission	0.462600	0.489166	1	1
171.561050	0.795801	city	1	1	0.598904	0.598904	0	1	0	0	CorrectCommission	0.525108	0.496543	1	1
172.356903	0.795904	city	3	1	0.563422	0.563422	0	1	0	0	CorrectCommission	0.969412	0.503038	1	1
173.152817	0.795911	city	4	1	0.549348	0.549348	0	1	0	0	CorrectCommission	1.145641	0.508887	1	1
173.948563	0.795584	city	7	1	0.648450	0.648450	0	1	0	0	CorrectCommission	0.095290	0.514810	1	1
174.744308	0.795910	city	4	1	0.649434	0.649434	0	1	0	0	CorrectCommission	0.107605	0.521974	1	1
175.540115	0.795696	city	5	1	0.614840	0.614840	0	1	0	0	CorrectCommission	0.325563	0.531842	1	1
176.335861	0.795798	city	3	1	0.567990	0.567990	0	1	0	0	CorrectCommission	0.912203	0.546027	1	1
177.131775	0.796019	mountain	4	0	0.000000	0.608781	1	0	0	0	CorrectOmission	0.401438	0.566142	1	1
177.927567	0.795582	city	5	1	0.648610	0.648610	0	1	0	0	CorrectCommission	0.097290	0.593578	1	1
178.723373	0.796022	city	1	1	0.598876	0.598876	0	1	0	0	CorrectCommission	0.525459	0.629286	1	1
179.519226	0.795690	city	5	1	0.598765	0.598765	0	1	0	0	CorrectCommission	0.526855	0.673575	1	1
180.314926	0.795694	city	6	1	0.567934	0.567934	0	1	0	0	CorrectCommission	0.912910	0.725954	1	1
181.110779	0.796020	city	8	1	0.599326	0.599326	0	1	0	0	CorrectCommission	0.519828	0.784996	0	1
181.906693	0.795801	city	5	1	0.600195	0.600195	0	1	0	0	CorrectCommission	0.508946	0.848284	0	1
182.702408	0.795636	city	1	1	0.549349	0.549349	0	1	0	0	CorrectCommission	1.145622	0.912499	0	1
183.498215	0.795968	mountain	7	0	0.000000	0.656655	1	0	0	0	CorrectOmission	0.198030	0.973580	0	1
184.294037	0.795692	city	2	1	0.747889	0.747889	0	1	0	0	CorrectCommission	1.340431	1.027144	0	1
185.089737	0.795697	city	9	1	0.648827	0.648827	0	1	0	0	CorrectCommission	0.100005	1.068896	0	1
185.885513	0.795864	mountain	4	0	0.000000	0.758242	1	0	0	0	CorrectOmission	1.470073	1.095272	0	1
186.681305	0.795735	mountain	8	0	0.000000	0.912282	1	0	0	0	CorrectOmission	3.398924	1.103883	0	1
187.477081	0.795800	city	5	1	0.947096	0.947096	0	1	0	0	CorrectCommission	3.834845	1.093955	0	0
188.272888	0.795804	city	4	1	0.698829	0.698829	0	1	0	0	CorrectCommission	0.726125	1.066530	0	0
189.068695	0.795830	city	9	1	0.661172	0.661172	0	1	0	0	CorrectCommission	0.254593	1.024423	0	0
189.864502	0.795775	city	4	1	0.698370	0.698370	0	1	0	0	CorrectCommission	0.720377	0.971738	0	0
190.660309	0.795841	city	3	1	0.698497	0.698497	0	1	0	0	CorrectCommission	0.721968	0.913313	0	0
191.456116	0.795761	city	8	1	0.655635	0.655635	0	1	0	0	CorrectCommission	0.185258	0.854113	0	0
192.251938	0.795910	city	2	1	0.565465	0.565465	0	1	0	0	CorrectCommission	0.943832	0.798575	0	0
193.047745	0.795694	city	4	1	0.598901	0.598901	0	1	0	0	CorrectCommission	0.525151	0.750076	0	0
193.843521	0.795863	mountain	2	0	0.000000	0.637569	1	0	0	0	CorrectOmission	0.040959	0.710680	1	0
194.639328	0.795739	city	9	1	0.648549	0.648549	0	1	0	0	CorrectCommission	0.096529	0.681069	1	0
195.435104	0.795805	city	5	1	0.598921	0.598921	0	1	0	0	CorrectCommission	0.524901	0.660656	1	0
196.230927	0.795859	city	1	1	0.552799	0.552799	0	1	0	0	CorrectCommission	1.102422	0.647910	1	0
197.026733	0.795745	city	9	1	0.648999	0.648999	0	1	0	0	CorrectCommission	0.102166	0.640753	1	0
197.822556	0.795908	city	5	1	0.506606	0.506606	0	1	0	0	CorrectCommission	1.680842	0.636991	1	0
198.618362	0.795692	city	7	1	0.598789	0.598789	0	1	0	0	CorrectCommission	0.526554	0.634614	1	0
199.414154	0.795909	city	10	1	0.549445	0.549445	0	1	0	0	CorrectCommission	1.144419	0.632145	1	0
200.209976	0.795713	city	3	1	0.598774	0.598774	0	1	0	0	CorrectCommission	0.526745	0.628649	1	0
201.005722	0.795785	city	7	1	0.599450	0.599450	0	1	0	0	CorrectCommission	0.518278	0.623804	1	0
201.801514	0.795799	city	2	1	0.648942	0.648942	0	1	0	0	CorrectCommission	0.101454	0.617699	1	0
202.597305	0.795804	city	6	1	0.698774	0.698774	0	1	0	0	CorrectCommission	0.725430	0.610740	1	0
203.393112	0.795798	city	3	1	0.649522	0.649522	0	1	0	0	CorrectCommission	0.108711	0.603401	1	0
204.188904	0.795798	city	6	1	0.698399	0.698399	0	1	0	0	CorrectCommission	0.720740	0.596141	1	0
204.984711	0.795806	city	3	1	0.748128	0.748128	0	1	0	0	CorrectCommission	1.343429	0.589249	1	0
205.780548	0.795853	city	5	1	0.706798	0.706798	0	1	0	0	CorrectCommission	0.825904	0.582860	1	0
206.576340	0.795752	city	1	1	0.608442	0.608442	0	1	0	0	CorrectCommission	0.405679	0.576930	1	0
207.372116	0.795801	city	10	1	0.648997	0.648997	0	1	0	0	CorrectCommission	0.102140	0.571209	1	0
208.167923	0.795800	city	5	1	0.648799	0.648799	0	1	0	0	CorrectCommission	0.099659	0.565323	1	0
208.963776	0.795911	city	6	1	0.600507	0.600507	0	1	0	0	CorrectCommission	0.505035	0.558837	1	0
209.759598	0.795739	city	2	1	0.563220	0.563220	0	1	0	0	CorrectCommission	0.971942	0.551336	1	0
210.555344	0.795758	city	4	1	0.613930	0.613930	0	1	0	0	CorrectCommission	0.336965	0.542612	1	0
211.351135	0.795803	city	10	1	0.549872	0.549872	0	1	0	0	CorrectCommission	1.139078	0.532807	1	0
212.146927	0.795803	city	2	1	0.549138	0.549138	0	1	0	0	CorrectCommission	1.148264	0.522456	1	0
212.942749	0.795840	city	9	1	0.612208	0.612208	0	1	0	0	CorrectCommission	0.358519	0.512548	1	0
213.738586	0.795809	city	4	1	0.648911	0.648911	0	1	0	0	CorrectCommission	0.101064	0.504458	1	0
214.534363	0.795752	city	10	1	0.648712	0.648712	0	1	0	0	CorrectCommission	0.098567	0.499779	1	0
215.330170	0.795868	city	1	1	0.599251	0.599251	0	1	0	0	CorrectCommission	0.520768	0.500085	1	0
216.125977	0.795738	city	7	1	0.611210	0.611210	0	1	0	0	CorrectCommission	0.371025	0.506694	1	0
216.921799	0.795909	city	5	1	0.598892	0.598892	0	1	0	0	CorrectCommission	0.525264	0.520437	1	0
217.717712	0.795910	city	4	1	0.605325	0.605325	0	1	0	0	CorrectCommission	0.444707	0.541461	1	0
218.513458	0.795588	city	6	1	0.648880	0.648880	0	1	0	0	CorrectCommission	0.100670	0.569125	1	0
219.309143	0.795796	city	9	1	0.598995	0.598995	0	1	0	0	CorrectCommission	0.523974	0.602021	1	0
220.105057	0.796021	city	4	1	0.615623	0.615623	0	1	0	0	CorrectCommission	0.315758	0.638075	1	0
220.900864	0.795599	city	6	1	0.651111	0.651111	0	1	0	0	CorrectCommission	0.128605	0.674838	1	0
221.696564	0.795787	city	1	1	0.598882	0.598882	0	1	0	0	CorrectCommission	0.525387	0.709820	1	0
222.492462	0.796019	mountain	8	0	0.000000	0.729646	1	0	0	0	CorrectOmission	1.112008	0.740856	0	0
223.288269	0.795582	city	7	1	0.857828	0.857828	0	1	0	0	CorrectCommission	2.717065	0.766432	0	0
224.083954	0.795804	city	6	1	0.797852	0.797852	0	1	0	0	CorrectCommission	1.966058	0.785876	0	0
224.879807	0.795908	city	3	1	0.659364	0.659364	0	1	0	0	CorrectCommission	0.231953	0.799448	0	0
225.675613	0.795694	city	1	1	0.613690	0.613690	0	1	0	0	CorrectCommission	0.339964	0.808140	0	0
226.471375	0.795827	city	5	1	0.659575	0.659575	0	1	0	0	CorrectCommission	0.234587	0.813310	0	0
227.267288	0.795994	city	2	1	0.663939	0.663939	0	1	0	0	CorrectCommission	0.289232	0.816371	0	0
228.063187	0.795802	city	3	1	0.698158	0.698158	0	1	0	0	CorrectCommission	0.717716	0.818429	0	0
228.858902	0.795639	city	8	1	0.549238	0.549238	0	1	0	0	CorrectCommission	1.147017	0.820011	0	0
229.654602	0.795755	city	9	1	0.598872	0.598872	0	1	0	0	CorrectCommission	0.525512	0.821006	0	0
230.450378	0.795793	city	2	1	0.549192	0.549192	0	1	0	0	CorrectCommission	1.147591	0.820761	0	0
231.246170	0.795805	city	9	1	0.599288	0.599288	0	1	0	0	CorrectCommission	0.520306	0.818255	0	0
232.042084	0.796017	city	5	1	0.549128	0.549128	0	1	0	0	CorrectCommission	1.148393	0.812429	0	0
232.837936	0.795692	city	4	1	0.549637	0.549637	0	1	0	0	CorrectCommission	1.142024	0.802409	0	0
233.633682	0.795802	city	1	1	0.549062	0.549062	0	1	0	0	CorrectCommission	1.149217	0.787865	0	0
234.429489	0.795802	city	2	1	0.549152	0.549152	0	1	0	0	CorrectCommission	1.148091	0.769082	0	0
235.225250	0.795740	city	8	1	0.554445	0.554445	0	1	0	0	CorrectCommission	1.081811	0.747033	0	0
236.020996	0.795753	city	9	1	0.653227	0.653227	0	1	0	0	CorrectCommission	0.155106	0.723262	1	0
236.816788	0.795803	city	7	1	0.609108	0.609108	0	1	0	0	CorrectCommission	0.397346	0.699709	1	0
237.612579	0.795799	city	3	1	0.563237	0.563237	0	1	0	0	CorrectCommission	0.971731	0.678406	1	0
238.408386	0.795804	city	10	1	0.649122	0.649122	0	1	0	0	CorrectCommission	0.103700	0.661230	1	0
239.204193	0.795831	city	3	1	0.654953	0.654953	0	1	0	0	CorrectCommission	0.176722	0.649690	1	0
240.000000	0.795772	city	7	1	0.706574	0.706574	0	1	0	0	CorrectCommission	0.823095	0.644677	1	0
240.795898	0.796018	city	1	1	0.700921	0.700921	0	1	0	0	CorrectCommission	0.752314	0.646391	1	0
241.591736	0.795658	city	4	1	0.648432	0.648432	0	1	0	0	CorrectCommission	0.095067	0.654377	1	0
242.387482	0.795836	mountain	10	1	0.549120	0.549120	0	0	1	0	CommissionError	1.148489	0.667610	1	0
243.183243	0.795691	city	5	1	0.698369	0.698369	0	1	0	0	CorrectCommission	0.720366	0.684530	1	0
243.978989	0.795808	city	10	1	0.649398	0.649398	0	1	0	0	CorrectCommission	0.107160	0.703311	1	0
244.774811	0.795818	city	3	1	0.601376	0.601376	0	1	0	0	CorrectCommission	0.494160	0.722030	1	0
245.570724	0.795999	city	6	1	0.698667	0.698667	0	1	0	0	CorrectCommission	0.724093	0.738877	0	0
246.366623	0.795808	mountain	6	0	0.000000	0.757797	1	0	0	0	CorrectOmission	1.464498	0.752350	0	0
247.162369	0.795684	city	6	1	0.750668	0.750668	0	1	0	0	CorrectCommission	1.375230	0.761439	0	1
247.958054	0.795696	city	8	1	0.649183	0.649183	0	1	0	0	CorrectCommission	0.104464	0.765711	0	1
248.753860	0.795906	city	9	1	0.797822	0.797822	0	1	0	0	CorrectCommission	1.965681	0.765344	0	1
249.549774	0.795912	city	10	1	0.698345	0.698345	0	1	0	0	CorrectCommission	0.720064	0.760936	0	1
250.345535	0.795618	city	9	1	0.706869	0.706869	0	1	0	0	CorrectCommission	0.826793	0.753421	0	1
251.141235	0.795798	city	7	1	0.648952	0.648952	0	1	0	0	CorrectCommission	0.101579	0.743781	0	1
251.937164	0.796044	mountain	9	0	0.000000	0.655110	1	0	0	0	CorrectOmission	0.178679	0.732873	1	1
252.732956	0.795530	city	4	1	0.648340	0.648340	0	1	0	0	CorrectCommission	0.093906	0.721214	1	1
253.528671	0.795907	city	8	1	0.551641	0.551641	0	1	0	0	CorrectCommission	1.116926	0.708996	1	1
254.324493	0.795744	city	3	1	0.509223	0.509223	0	1	0	0	CorrectCommission	1.648071	0.696068	1	1
255.120255	0.795769	city	1	1	0.608807	0.608807	0	1	0	0	CorrectCommission	0.401116	0.682074	1	1
255.916031	0.795789	city	6	1	0.599606	0.599606	0	1	0	0	CorrectCommission	0.516316	0.666707	1	1
256.711945	0.796016	city	1	1	0.563713	0.563713	0	1	0	0	CorrectCommission	0.965760	0.649778	1	1
257.507721	0.795581	city	8	1	0.548919	0.548919	0	1	0	0	CorrectCommission	1.151016	0.631366	1	1
258.303436	0.795806	city	6	1	0.658625	0.658625	0	1	0	0	CorrectCommission	0.222691	0.611887	1	1
259.099335	0.796018	mountain	3	0	0.000000	0.667399	1	0	0	0	CorrectOmission	0.332557	0.592098	1	1
259.895203	0.795692	city	10	1	0.666739	0.666739	0	1	0	0	CorrectCommission	0.324302	0.572919	1	1
260.690887	0.795694	city	1	1	0.748145	0.748145	0	1	0	0	CorrectCommission	1.343646	0.555331	1	1
261.486725	0.796017	city	5	1	0.612517	0.612517	0	1	0	0	CorrectCommission	0.354656	0.540185	1	1
262.282532	0.795586	city	2	1	0.653383	0.653383	0	1	0	0	CorrectCommission	0.157060	0.528088	1	1
263.078247	0.795807	city	7	1	0.649150	0.649150	0	1	0	0	CorrectCommission	0.104057	0.519243	1	1
263.874146	0.796014	city	6	1	0.649574	0.649574	0	1	0	0	CorrectCommission	0.109363	0.513393	1	1
264.669952	0.795585	city	9	1	0.556281	0.556281	0	1	0	0	CorrectCommission	1.058828	0.509892	1	1
265.465759	0.796018	city	6	1	0.648620	0.648620	0	1	0	0	CorrectCommission	0.097423	0.507841	1	1
266.261566	0.795632	city	7	1	0.602254	0.602254	0	1	0	0	CorrectCommission	0.483167	0.506287	1	1
267.057281	0.795756	city	8	1	0.549526	0.549526	0	1	0	0	CorrectCommission	1.143410	0.504429	1	1
267.853058	0.795801	city	6	1	0.648888	0.648888	0	1	0	0	CorrectCommission	0.100770	0.501851	1	1
268.648834	0.795799	city	1	1	0.549286	0.549286	0	1	0	0	CorrectCommission	1.146420	0.498704	1	1
269.444641	0.795810	city	5	1	0.564655	0.564655	0	1	0	0	CorrectCommission	0.953963	0.495676	1	1
270.240448	0.795797	mountain	3	0	0.000000	0.642447	1	0	0	0	CorrectOmission	0.020119	0.494004	1	1
271.036255	0.795797	city	9	1	0.698535	0.698535	0	1	0	0	CorrectCommission	0.722437	0.495251	1	1
271.832062	0.795855	city	5	1	0.648794	0.648794	0	1	0	0	CorrectCommission	0.099602	0.500966	1	1
272.627930	0.795857	city	1	1	0.649054	0.649054	0	1	0	0	CorrectCommission	0.102850	0.512507	1	1
273.423737	0.795768	city	9	1	0.648818	0.648818	0	1	0	0	CorrectCommission	0.099890	0.530671	1	1
274.219482	0.795729	city	2	1	0.599141	0.599141	0	1	0	0	CorrectCommission	0.522143	0.555504	1	1
275.015320	0.795910	city	4	1	0.665180	0.665180	0	1	0	0	CorrectCommission	0.304773	0.586215	1	1
275.811127	0.795692	city	5	1	0.657316	0.657316	0	1	0	0	CorrectCommission	0.206307	0.621294	1	1
276.606873	0.795800	mountain	6	0	0.000000	0.692303	1	0	0	0	CorrectOmission	0.644403	0.658670	1	1
277.402649	0.795806	mountain	8	0	0.000000	0.734537	1	0	0	0	CorrectOmission	1.173247	0.695976	1	1
278.198486	0.795846	city	8	1	0.748415	0.748415	0	1	0	0	CorrectCommission	1.347027	0.730886	1	1
278.994293	0.795757	city	10	1	0.698335	0.698335	0	1	0	0	CorrectCommission	0.719928	0.761436	0	1
279.790070	0.795799	city	6	1	0.698396	0.698396	0	1	0	0	CorrectCommission	0.720695	0.786274	0	1
280.585876	0.795800	mountain	2	0	0.000000	0.748341	1	0	0	0	CorrectOmission	1.346089	0.804727	0	1
281.381683	0.795803	city	7	1	0.748547	0.748547	0	1	0	0	CorrectCommission	1.348675	0.816899	0	1
282.177460	0.795800	city	2	1	0.599393	0.599393	0	1	0	0	CorrectCommission	0.518983	0.823446	0	1
282.973297	0.795837	city	7	1	0.564037	0.564037	0	1	0	0	CorrectCommission	0.961702	0.825501	0	1
283.769104	0.795770	city	1	1	0.598862	0.598862	0	1	0	0	CorrectCommission	0.525640	0.824381	0	1
284.564972	0.796017	city	6	1	0.648650	0.648650	0	1	0	0	CorrectCommission	0.097787	0.821454	0	1
285.360779	0.795598	city	5	1	0.549151	0.549151	0	1	0	0	CorrectCommission	1.148102	0.818012	0	1
286.156494	0.795793	city	10	1	0.550041	0.550041	0	1	0	0	CorrectCommission	1.136966	0.815135	0	1
286.952332	0.795905	mountain	4	0	0.000000	0.649091	1	0	0	0	CorrectOmission	0.103317	0.813732	0	1
287.748138	0.795699	city	10	1	0.748029	0.748029	0	1	0	0	CorrectCommission	1.342189	0.814640	0	1
288.543915	0.795849	city	7	1	0.748580	0.748580	0	1	0	0	CorrectCommission	1.349094	0.818562	0	1
289.339813	0.795966	city	6	1	0.698448	0.698448	0	1	0	0	CorrectCommission	0.721355	0.826119	0	1
290.135620	0.795646	city	8	1	0.648430	0.648430	0	1	0	0	CorrectCommission	0.095039	0.837848	0	1
290.931305	0.795737	mountain	10	0	0.000000	0.714715	1	0	0	0	CorrectOmission	0.925040	0.854105	0	1
291.727112	0.795838	city	1	1	0.748111	0.748111	0	1	0	0	CorrectCommission	1.343220	0.874944	0	1
292.522919	0.795765	city	8	1	0.599427	0.599427	0	1	0	0	CorrectCommission	0.518561	0.900011	0	1
293.318726	0.795850	city	2	1	0.599355	0.599355	0	1	0	0	CorrectCommission	0.519464	0.928518	0	1
294.114532	0.795755	city	10	1	0.649084	0.649084	0	1	0	0	CorrectCommission	0.103221	0.959194	0	1
294.910309	0.795804	city	9	1	0.698762	0.698762	0	1	0	0	CorrectCommission	0.725276	0.990395	0	1
295.706116	0.795808	city	2	1	0.662708	0.662708	0	1	0	0	CorrectCommission	0.273818	1.020251	0	1
296.501892	0.795797	city	9	1	0.996804	0.996804	0	1	0	0	CorrectCommission	4.457284	1.046909	0	1
297.297821	0.796017	city	7	1	0.748233	0.748233	0	1	0	0	CorrectCommission	1.344738	1.068579	0	1
298.093597	0.795581	city	3	1	0.698646	0.698646	0	1	0	0	CorrectCommission	0.723823	1.083883	0	1
298.889343	0.795879	city	9	1	0.648845	0.648845	0	1	0	0	CorrectCommission	0.100234	1.091731	0	1
299.685150	0.795724	city	1	1	0.702072	0.702072	0	1	0	0	CorrectCommission	0.766732	1.091369	0	1
300.480957	0.795910	city	5	1	0.748686	0.748686	0	1	0	0	CorrectCommission	1.350420	1.082296	0	1
301.276764	0.795696	city	9	1	0.748170	0.748170	0	1	0	0	CorrectCommission	1.343959	1.064287	0	1
302.072510	0.795803	city	10	1	0.655945	0.655945	0	1	0	0	CorrectCommission	0.189144	1.037420	0	1
302.868317	0.795801	mountain	7	0	0.000000	0.801087	1	0	0	0	CorrectOmission	2.006571	1.002121	0	1
303.664215	0.796018	city	6	1	0.897813	0.897813	0	1	0	0	CorrectCommission	3.217743	0.959142	0	1
304.460022	0.795585	city	10	1	0.660339	0.660339	0	1	0	0	CorrectCommission	0.244165	0.909686	0	1
305.255768	0.795909	city	5	1	0.649053	0.649053	0	1	0	0	CorrectCommission	0.102841	0.855420	0	1
306.051575	0.795695	city	9	1	0.648647	0.648647	0	1	0	0	CorrectCommission	0.097751	0.798275	0	1
306.847321	0.795803	city	1	1	0.763857	0.763857	0	1	0	0	CorrectCommission	1.540382	0.740361	0	0
307.643158	0.795841	city	6	1	0.613379	0.613379	0	1	0	0	CorrectCommission	0.343855	0.683783	1	0
308.438995	0.795869	city	9	1	0.602628	0.602628	0	1	0	0	CorrectCommission	0.478483	0.630569	1	0
309.234894	0.795909	city	4	1	0.599298	0.599298	0	1	0	0	CorrectCommission	0.520176	0.582480	1	0
310.030640	0.795587	city	8	1	0.649219	0.649219	0	1	0	0	CorrectCommission	0.104919	0.540988	1	0
310.826324	0.795796	mountain	7	0	0.000000	0.690393	1	0	0	0	CorrectOmission	0.620488	0.507263	1	0
311.622131	0.795804	city	7	1	0.698384	0.698384	0	1	0	0	CorrectCommission	0.720553	0.482172	1	0
312.417999	0.795909	city	9	1	0.648758	0.648758	0	1	0	0	CorrectCommission	0.099139	0.466295	1	0
313.213898	0.795911	city	8	1	0.654116	0.654116	0	1	0	0	CorrectCommission	0.166242	0.459996	1	0
314.009705	0.795693	city	6	1	0.598916	0.598916	0	1	0	0	CorrectCommission	0.524965	0.463279	1	0
314.805389	0.795694	mountain	1	0	0.000000	0.620835	1	0	0	0	CorrectOmission	0.250502	0.475900	1	0
315.601135	0.795801	city	8	1	0.649420	0.649420	0	1	0	0	CorrectCommission	0.107430	0.497303	1	0
316.397064	0.796018	city	5	1	0.614217	0.614217	0	1	0	0	CorrectCommission	0.333372	0.526564	1	0
317.192871	0.795598	city	4	1	0.598914	0.598914	0	1	0	0	CorrectCommission	0.524985	0.562374	1	0
317.988556	0.795789	city	3	1	0.549568	0.549568	0	1	0	0	CorrectCommission	1.142882	0.603044	1	0
318.784393	0.795911	mountain	2	0	0.000000	0.596438	1	0	0	0	CorrectOmission	0.555985	0.646559	1	0
319.580200	0.795696	city	2	1	0.648838	0.648838	0	1	0	0	CorrectCommission	0.100143	0.690750	1	0
320.375946	0.795801	city	3	1	0.616078	0.616078	0	1	0	0	CorrectCommission	0.310063	0.733391	1	0
321.171814	0.795907	city	4	1	0.549947	0.549947	0	1	0	0	CorrectCommission	1.138133	0.772409	0	0
321.967621	0.795695	city	7	1	0.557689	0.557689	0	1	0	0	CorrectCommission	1.041196	0.806183	0	0
322.763397	0.795907	city	5	1	0.549719	0.549719	0	1	0	0	CorrectCommission	1.140988	0.833732	0	0
323.559235	0.795731	city	4	1	0.499797	0.499797	0	1	0	0	CorrectCommission	1.766098	0.854813	0	0
324.354980	0.795764	city	5	1	0.499890	0.499890	0	1	0	0	CorrectCommission	1.764943	0.869911	0	0
325.150757	0.795802	mountain	1	0	0.000000	0.593094	1	0	0	0	CorrectOmission	0.597869	0.880166	0	0
325.946564	0.795805	city	4	1	0.664499	0.664499	0	1	0	0	CorrectCommission	0.296250	0.887107	0	0
326.742371	0.795795	city	1	1	0.599196	0.599196	0	1	0	0	CorrectCommission	0.521460	0.892304	0	0
327.538177	0.795813	city	4	1	0.598893	0.598893	0	1	0	0	CorrectCommission	0.525249	0.897088	0	0
328.333984	0.795794	city	10	1	0.557058	0.557058	0	1	0	0	CorrectCommission	1.049097	0.902313	0	0
329.129822	0.795909	city	6	1	0.599229	0.599229	0	1	0	0	CorrectCommission	0.521041	0.908230	0	0
329.925629	0.795693	city	4	1	0.599285	0.599285	0	1	0	0	CorrectCommission	0.520343	0.914587	0	0
330.721466	0.796017	city	3	1	0.549660	0.549660	0	1	0	0	CorrectCommission	1.141733	0.920764	0	0
331.517273	0.795589	city	9	1	0.548922	0.548922	0	1	0	0	CorrectCommission	1.150968	0.926082	0	0
332.312988	0.795801	city	6	1	0.511218	0.511218	0	1	0	0	CorrectCommission	1.623090	0.930129	0	0
333.108795	0.795816	city	8	1	0.511049	0.511049	0	1	0	0	CorrectCommission	1.625205	0.932935	0	0
333.904572	0.795785	city	7	1	0.549505	0.549505	0	1	0	0	CorrectCommission	1.143668	0.935089	0	0
334.700439	0.795910	city	2	1	0.556662	0.556662	0	1	0	0	CorrectCommission	1.054052	0.937658	0	0
335.496277	0.795802	city	10	1	0.649029	0.649029	0	1	0	0	CorrectCommission	0.102538	0.941918	0	0
336.292023	0.795694	city	5	1	0.648649	0.648649	0	1	0	0	CorrectCommission	0.097783	0.949081	0	0
337.087769	0.795800	city	9	1	0.598884	0.598884	0	1	0	0	CorrectCommission	0.525359	0.959927	0	0
337.883636	0.795911	city	4	1	0.549176	0.549176	0	1	0	0	CorrectCommission	1.147799	0.974562	0	0
338.679474	0.795762	city	6	1	0.560982	0.560982	0	1	0	0	CorrectCommission	0.999956	0.992243	0	0
339.475220	0.795734	city	7	1	0.508924	0.508924	0	1	0	0	CorrectCommission	1.651814	1.011426	0	0
340.271057	0.795909	city	10	1	0.549630	0.549630	0	1	0	0	CorrectCommission	1.142106	1.029893	0	0
341.066833	0.795693	city	4	1	0.598809	0.598809	0	1	0	0	CorrectCommission	0.526303	1.045065	0	0
341.862579	0.795800	city	10	1	0.649284	0.649284	0	1	0	0	CorrectCommission	0.105732	1.054341	0	0
342.658386	0.795806	city	9	1	0.748717	0.748717	0	1	0	0	CorrectCommission	1.350807	1.055515	0	0
343.454193	0.795798	mountain	10	0	0.000000	0.822978	1	0	0	0	CorrectOmission	2.280685	1.047086	0	0
344.250000	0.795804	mountain	6	0	0.000000	0.847557	1	0	0	0	CorrectOmission	2.588451	1.028540	0	0
345.045807	0.795846	city	4	1	0.797942	0.797942	0	1	0	0	CorrectCommission	1.967188	1.000488	0	0
345.841736	0.795974	city	10	1	0.649623	0.649623	0	1	0	0	CorrectCommission	0.109980	0.964596	0	0
346.637512	0.795583	city	8	1	0.648435	0.648435	0	1	0	0	CorrectCommission	0.095105	0.923381	0	0
347.433319	0.796021	city	3	1	0.703157	0.703157	0	1	0	0	CorrectCommission	0.780315	0.879830	0	0
348.229156	0.795693	city	10	1	0.648723	0.648723	0	1	0	0	CorrectCommission	0.098709	0.837047	0	0
349.024902	0.795801	mountain	4	0	0.000000	0.694168	1	0	0	0	CorrectOmission	0.667752	0.797997	0	0
349.820770	0.795912	city	9	1	0.748319	0.748319	0	1	0	0	CorrectCommission	1.345826	0.765167	0	0
350.616516	0.795582	mountain	5	0	0.000000	0.720007	1	0	0	0	CorrectOmission	0.991311	0.740453	0	0
351.412262	0.795911	city	2	1	0.667466	0.667466	0	1	0	0	CorrectCommission	0.333406	0.725086	1	0
352.208191	0.795912	city	4	1	0.648931	0.648931	0	1	0	0	CorrectCommission	0.101309	0.719630	1	0
353.003937	0.795584	city	8	1	0.563658	0.563658	0	1	0	0	CorrectCommission	0.966453	0.723999	1	0
353.799622	0.795800	city	10	1	0.608395	0.608395	0	1	0	0	CorrectCommission	0.406271	0.737484	1	0
354.595428	0.795803	city	9	1	0.657209	0.657209	0	1	0	0	CorrectCommission	0.204971	0.758869	0	0
355.391235	0.795804	city	2	1	0.598942	0.598942	0	1	0	0	CorrectCommission	0.524635	0.786448	0	0
356.187012	0.795798	city	1	1	0.549889	0.549889	0	1	0	0	CorrectCommission	1.138870	0.818168	0	0
356.982819	0.795802	city	3	1	0.556842	0.556842	0	1	0	0	CorrectCommission	1.051795	0.851739	0	0
357.778625	0.795800	city	8	1	0.549403	0.549403	0	1	0	0	CorrectCommission	1.144951	0.884777	0	0
358.574432	0.795820	city	10	1	0.558188	0.558188	0	1	0	0	CorrectCommission	1.034948	0.914959	0	0
359.370239	0.795780	city	6	1	0.599533	0.599533	0	1	0	0	CorrectCommission	0.517234	0.940137	0	0
360.166016	0.795802	city	3	1	0.549325	0.549325	0	1	0	0	CorrectCommission	1.145926	0.958464	0	0
360.961853	0.795866	city	8	1	0.499343	0.499343	0	1	0	0	CorrectCommission	1.771786	0.968481	0	0
361.757721	0.795848	city	9	1	0.549957	0.549957	0	1	0	0	CorrectCommission	1.138013	0.969249	0	0
362.553589	0.795910	city	4	1	0.598808	0.598808	0	1	0	0	CorrectCommission	0.526310	0.960471	0	0
363.349335	0.795587	city	6	1	0.598694	0.598694	0	1	0	0	CorrectCommission	0.527746	0.942522	0	0
364.145050	0.795801	city	7	1	0.503079	0.503079	0	1	0	0	CorrectCommission	1.725002	0.916455	0	0
364.940948	0.796017	city	1	1	0.504217	0.504217	0	1	0	0	CorrectCommission	1.710754	0.883938	0	0
365.736755	0.795587	city	8	1	0.504338	0.504338	0	1	0	0	CorrectCommission	1.709244	0.847199	0	0
366.532440	0.795804	city	3	1	0.648886	0.648886	0	1	0	0	CorrectCommission	0.100746	0.808800	0	1
367.328247	0.795800	city	1	1	0.648765	0.648765	0	1	0	0	CorrectCommission	0.099227	0.771409	0	1
368.124054	0.795799	city	6	1	0.652459	0.652459	0	1	0	0	CorrectCommission	0.145487	0.737468	1	1
368.919861	0.795803	city	7	1	0.604001	0.604001	0	1	0	0	CorrectCommission	0.461285	0.708968	1	1
369.715698	0.795910	city	2	1	0.556479	0.556479	0	1	0	0	CorrectCommission	1.056350	0.687269	1	1
370.511505	0.795692	city	1	1	0.648992	0.648992	0	1	0	0	CorrectCommission	0.102074	0.673005	1	1
371.307281	0.795860	city	7	1	0.599172	0.599172	0	1	0	0	CorrectCommission	0.521752	0.666130	1	1
372.103088	0.795745	city	10	1	0.549113	0.549113	0	1	0	0	CorrectCommission	1.148583	0.665975	1	1
372.898895	0.795908	city	4	1	0.648645	0.648645	0	1	0	0	CorrectCommission	0.097733	0.671423	1	1
373.694824	0.795911	city	10	1	0.550499	0.550499	0	1	0	0	CorrectCommission	1.131226	0.681127	1	1
374.490570	0.795584	city	8	1	0.598696	0.598696	0	1	0	0	CorrectCommission	0.527716	0.693602	1	1
375.286255	0.795799	city	5	1	0.599242	0.599242	0	1	0	0	CorrectCommission	0.520880	0.707441	1	1
376.082153	0.796021	city	7	1	0.598892	0.598892	0	1	0	0	CorrectCommission	0.525263	0.721395	1	1
376.877991	0.795652	city	3	1	0.550375	0.550375	0	1	0	0	CorrectCommission	1.132777	0.734403	1	1
377.673706	0.795733	city	10	1	0.499256	0.499256	0	1	0	0	CorrectCommission	1.772880	0.745624	0	1
378.469574	0.796021	city	3	1	0.599320	0.599320	0	1	0	0	CorrectCommission	0.519909	0.754402	0	1
379.265472	0.795801	city	10	1	0.648549	0.648549	0	1	0	0	CorrectCommission	0.096532	0.760326	0	1
380.061188	0.795584	city	3	1	0.658464	0.658464	0	1	0	0	CorrectCommission	0.220680	0.763152	0	1
380.856995	0.796020	city	10	1	0.666873	0.666873	0	1	0	0	CorrectCommission	0.325982	0.762828	0	1
381.652802	0.795593	city	8	1	0.748596	0.748596	0	1	0	0	CorrectCommission	1.349284	0.759527	0	1
382.448486	0.795793	city	7	1	0.798315	0.798315	0	1	0	0	CorrectCommission	1.971861	0.753689	0	1
383.244293	0.795834	city	3	1	0.748597	0.748597	0	1	0	0	CorrectCommission	1.349302	0.746040	0	1
384.040131	0.795837	city	10	1	0.667055	0.667055	0	1	0	0	CorrectCommission	0.328250	0.737572	0	1
384.835907	0.795736	city	8	1	0.660352	0.660352	0	1	0	0	CorrectCommission	0.244319	0.729381	1	1
385.631683	0.795799	city	6	1	0.706325	0.706325	0	1	0	0	CorrectCommission	0.819982	0.722478	1	1
386.427582	0.796019	city	3	1	0.649104	0.649104	0	1	0	0	CorrectCommission	0.103473	0.717580	1	1
387.223511	0.795804	mountain	5	0	0.000000	0.627144	1	0	0	0	CorrectOmission	0.171505	0.714974	1	1
388.019257	0.795690	city	7	1	0.605489	0.605489	0	1	0	0	CorrectCommission	0.442658	0.714445	1	1
388.814972	0.795734	city	2	1	0.549184	0.549184	0	1	0	0	CorrectCommission	1.147690	0.715312	1	1
389.610718	0.795761	city	9	1	0.702772	0.702772	0	1	0	0	CorrectCommission	0.775495	0.716566	1	1
390.406494	0.795802	city	1	1	0.698600	0.698600	0	1	0	0	CorrectCommission	0.723249	0.717126	1	1
391.202393	0.796022	city	4	1	0.808718	0.808718	0	1	0	0	CorrectCommission	2.102116	0.716010	1	1
391.998199	0.795583	city	10	1	0.651696	0.651696	0	1	0	0	CorrectCommission	0.135928	0.712510	1	1
392.793884	0.795802	city	9	1	0.698406	0.698406	0	1	0	0	CorrectCommission	0.720820	0.706373	1	1
393.589844	0.796074	city	5	1	0.649060	0.649060	0	1	0	0	CorrectCommission	0.102929	0.697697	1	1
394.385651	0.795544	city	7	1	0.552147	0.552147	0	1	0	0	CorrectCommission	1.110586	0.686922	1	1
395.181427	0.796005	city	4	1	0.549219	0.549219	0	1	0	0	CorrectCommission	1.147258	0.674628	1	1
395.977203	0.795586	mountain	10	1	0.599534	0.599534	0	0	1	0	CommissionError	0.517228	0.661458	1	1
396.772919	0.795805	city	2	1	0.610989	0.610989	0	1	0	0	CorrectCommission	0.373788	0.647948	1	1
397.568695	0.795794	city	6	1	0.615532	0.615532	0	1	0	0	CorrectCommission	0.316903	0.634439	1	1
398.364502	0.795801	mountain	1	0	0.000000	0.614520	1	0	0	0	CorrectOmission	0.329569	0.621080	1	1
399.160339	0.795866	city	6	1	0.608695	0.608695	0	1	0	0	CorrectCommission	0.402510	0.607878	1	1
399.956146	0.795758	city	7	1	0.598798	0.598798	0	1	0	0	CorrectCommission	0.526444	0.594836	1	1
400.751923	0.795785	city	2	1	0.507780	0.507780	0	1	0	0	CorrectCommission	1.666143	0.582092	1	1
401.547699	0.795801	city	8	1	0.549272	0.549272	0	1	0	0	CorrectCommission	1.146593	0.570008	1	1
402.343628	0.796019	mountain	4	0	0.000000	0.614030	1	0	0	0	CorrectOmission	0.335708	0.559240	1	1
403.139465	0.795661	city	10	1	0.649854	0.649854	0	1	0	0	CorrectCommission	0.112869	0.550646	1	1
403.935150	0.795726	city	1	1	0.604543	0.604543	0	1	0	0	CorrectCommission	0.454502	0.545128	1	1
404.731018	0.796017	city	5	1	0.599349	0.599349	0	1	0	0	CorrectCommission	0.519536	0.543402	1	1
405.526825	0.795583	city	7	1	0.648805	0.648805	0	1	0	0	CorrectCommission	0.099740	0.545836	1	1
406.322510	0.795801	city	4	1	0.648647	0.648647	0	1	0	0	CorrectCommission	0.097753	0.552287	1	1
407.118317	0.795802	city	7	1	0.648652	0.648652	0	1	0	0	CorrectCommission	0.097817	0.562069	1	1
407.914124	0.795824	city	6	1	0.605566	0.605566	0	1	0	0	CorrectCommission	0.441697	0.574064	1	1
408.709930	0.795788	city	4	1	0.556548	0.556548	0	1	0	0	CorrectCommission	1.055485	0.586885	1	1
409.505768	0.795839	city	1	1	0.549129	0.549129	0	1	0	0	CorrectCommission	1.148380	0.599175	1	1
410.301544	0.795757	city	2	1	0.549213	0.549213	0	1	0	0	CorrectCommission	1.147325	0.609815	1	1
411.097351	0.795860	city	10	1	0.549171	0.549171	0	1	0	0	CorrectCommission	1.147861	0.618134	1	1
411.893158	0.795746	city	9	1	0.648574	0.648574	0	1	0	0	CorrectCommission	0.096846	0.623971	1	1
412.688995	0.795906	city	3	1	0.598870	0.598870	0	1	0	0	CorrectCommission	0.525538	0.627669	1	1
413.484802	0.795694	city	1	1	0.603802	0.603802	0	1	0	0	CorrectCommission	0.463781	0.629910	1	1
414.280579	0.795871	mountain	10	0	0.000000	0.668611	1	0	0	0	CorrectOmission	0.347733	0.631577	1	1
415.076385	0.795735	city	6	1	0.698669	0.698669	0	1	0	0	CorrectCommission	0.724112	0.633544	1	1
415.872131	0.795805	city	9	1	0.599349	0.599349	0	1	0	0	CorrectCommission	0.519536	0.636522	1	1
416.667999	0.795904	city	4	1	0.599039	0.599039	0	1	0	0	CorrectCommission	0.523418	0.640981	1	1
417.463837	0.795754	city	6	1	0.599323	0.599323	0	1	0	0	CorrectCommission	0.519871	0.647100	1	1
418.259583	0.795741	city	9	1	0.549092	0.549092	0	1	0	0	CorrectCommission	1.148850	0.654762	1	1
419.055450	0.796021	city	8	1	0.549154	0.549154	0	1	0	0	CorrectCommission	1.148063	0.663609	1	1
419.851379	0.795801	mountain	9	0	0.000000	0.640182	1	0	0	0	CorrectOmission	0.008246	0.673069	1	1
420.647125	0.795693	city	6	1	0.698157	0.698157	0	1	0	0	CorrectCommission	0.717711	0.682437	1	1
421.442810	0.795695	city	5	1	0.599066	0.599066	0	1	0	0	CorrectCommission	0.523081	0.690858	1	1
422.238556	0.795799	mountain	2	0	0.000000	0.621761	1	0	0	0	CorrectOmission	0.238908	0.697461	1	1
423.034363	0.795803	city	3	1	0.698387	0.698387	0	1	0	0	CorrectCommission	0.720582	0.701426	1	1
423.830170	0.795837	mountain	10	0	0.000000	0.761091	1	0	0	0	CorrectOmission	1.505743	0.702049	1	1
424.625977	0.795768	city	9	1	0.748538	0.748538	0	1	0	0	CorrectCommission	1.348563	0.698868	1	1
425.421814	0.795908	city	3	1	0.599395	0.599395	0	1	0	0	CorrectCommission	0.518969	0.691741	1	1
426.217712	0.795911	city	7	1	0.663201	0.663201	0	1	0	0	CorrectCommission	0.279992	0.680880	1	0
427.013489	0.795591	mountain	5	0	0.000000	0.707280	1	0	0	0	CorrectOmission	0.831940	0.666845	1	0
427.809235	0.795901	city	9	1	0.698520	0.698520	0	1	0	0	CorrectCommission	0.722253	0.650507	1	0
428.605133	0.795912	city	3	1	0.603809	0.603809	0	1	0	0	CorrectCommission	0.463692	0.632980	1	0
429.400879	0.795584	city	5	1	0.553480	0.553480	0	1	0	0	CorrectCommission	1.093901	0.615548	1	0
430.196564	0.795800	city	7	1	0.611260	0.611260	0	1	0	0	CorrectCommission	0.370389	0.599514	1	0
430.992371	0.795802	city	4	1	0.615303	0.615303	0	1	0	0	CorrectCommission	0.319775	0.586140	1	0
431.788177	0.795801	city	7	1	0.613835	0.613835	0	1	0	0	CorrectCommission	0.338150	0.576513	1	0
432.584076	0.796020	city	8	0	0.000000	0.619851	0	0	0	1	OmissionError	0.262815	0.571485	1	0
433.379883	0.795585	city	3	1	0.598660	0.598660	0	1	0	0	CorrectCommission	0.528169	0.571631	1	0
434.175568	0.795799	city	1	1	0.515569	0.515569	0	1	0	0	CorrectCommission	1.568613	0.577199	1	0
434.971497	0.796020	city	5	1	0.649067	0.649067	0	1	0	0	CorrectCommission	0.103010	0.588126	1	0
435.767303	0.795583	city	10	1	0.648522	0.648522	0	1	0	0	CorrectCommission	0.096191	0.604130	1	0
436.563049	0.795909	city	4	1	0.648960	0.648960	0	1	0	0	CorrectCommission	0.101676	0.624704	1	0
437.358887	0.795785	city	3	1	0.705214	0.705214	0	1	0	0	CorrectCommission	0.806076	0.649276	1	0
438.154633	0.795711	city	5	1	0.698694	0.698694	0	1	0	0	CorrectCommission	0.724434	0.677276	1	0
438.950378	0.795808	city	2	1	0.611493	0.611493	0	1	0	0	CorrectCommission	0.367475	0.708310	1	0
439.746185	0.795798	city	6	1	0.753748	0.753748	0	1	0	0	CorrectCommission	1.413804	0.742211	0	0
440.542023	0.795864	city	7	1	0.748112	0.748112	0	1	0	0	CorrectCommission	1.343222	0.779007	0	0
441.337830	0.795764	city	4	1	0.698288	0.698288	0	1	0	0	CorrectCommission	0.719349	0.818865	0	0
442.133728	0.795993	city	9	1	0.698354	0.698354	0	1	0	0	CorrectCommission	0.720175	0.861928	0	0
442.929504	0.795590	city	4	1	0.707009	0.707009	0	1	0	0	CorrectCommission	0.828543	0.908068	0	0
443.725189	0.795799	city	3	1	0.648932	0.648932	0	1	0	0	CorrectCommission	0.101328	0.956657	0	0
444.520996	0.795800	city	8	1	0.598950	0.598950	0	1	0	0	CorrectCommission	0.524539	1.006418	0	0
445.316833	0.795853	city	10	1	0.563682	0.563682	0	1	0	0	CorrectCommission	0.966152	1.055360	0	0
446.112640	0.795769	city	4	1	0.551575	0.551575	0	1	0	0	CorrectCommission	1.117749	1.100934	0	0
446.908478	0.795888	city	2	1	0.549567	0.549567	0	1	0	0	CorrectCommission	1.142892	1.140350	0	0
447.704254	0.795692	city	7	1	0.499610	0.499610	0	1	0	0	CorrectCommission	1.768442	1.171007	0	0
448.500122	0.796021	city	1	1	0.463232	0.463232	0	1	0	0	CorrectCommission	2.223953	1.190923	0	0
449.296021	0.795802	city	4	1	0.512482	0.512482	0	1	0	0	CorrectCommission	1.607271	1.199109	0	0
450.091827	0.795807	city	5	1	0.499663	0.499663	0	1	0	0	CorrectCommission	1.767776	1.195822	0	0
450.887573	0.795663	city	1	1	0.500799	0.500799	0	1	0	0	CorrectCommission	1.753558	1.182545	0	0
451.683350	0.795933	city	9	1	0.549227	0.549227	0	1	0	0	CorrectCommission	1.147160	1.161750	0	0
452.479126	0.795588	mountain	6	0	0.000000	0.602046	1	0	0	0	CorrectOmission	0.485770	1.136596	0	0
453.274811	0.795797	city	4	1	0.616332	0.616332	0	1	0	0	CorrectCommission	0.306880	1.110370	0	0
454.070618	0.795806	city	8	1	0.549161	0.549161	0	1	0	0	CorrectCommission	1.147984	1.086041	0	0
454.866516	0.796016	city	3	1	0.552780	0.552780	0	1	0	0	CorrectCommission	1.102671	1.065841	0	0
455.662384	0.795693	city	1	1	0.557458	0.557458	0	1	0	0	CorrectCommission	1.044089	1.051103	0	0
456.458069	0.795694	city	10	1	0.648549	0.648549	0	1	0	0	CorrectCommission	0.096526	1.042243	0	0
457.253876	0.795876	city	3	1	0.605267	0.605267	0	1	0	0	CorrectCommission	0.445432	1.038930	0	0
458.049713	0.795833	city	6	1	0.558826	0.558826	0	1	0	0	CorrectCommission	1.026955	1.040361	0	0
458.845581	0.795911	city	10	1	0.499308	0.499308	0	1	0	0	CorrectCommission	1.772221	1.045635	0	0
459.641327	0.795587	mountain	6	1	0.456815	0.456815	0	0	1	0	CommissionError	2.304314	1.054045	0	0
460.437042	0.795803	city	8	1	0.499419	0.499419	0	1	0	0	CorrectCommission	1.770833	1.065268	0	0
461.232880	0.795864	city	9	1	0.598911	0.598911	0	1	0	0	CorrectCommission	0.525030	1.079432	0	0
462.028656	0.795733	city	3	1	0.598806	0.598806	0	1	0	0	CorrectCommission	0.526340	1.096913	0	0
462.824432	0.795806	city	8	1	0.599263	0.599263	0	1	0	0	CorrectCommission	0.520615	1.118027	0	0
463.620239	0.795803	city	7	1	0.563444	0.563444	0	1	0	0	CorrectCommission	0.969137	1.142750	0	0
464.416046	0.795798	city	1	1	0.619116	0.619116	0	1	0	0	CorrectCommission	0.272028	1.170490	0	0
465.211853	0.795805	city	6	1	0.600564	0.600564	0	1	0	0	CorrectCommission	0.504332	1.199971	0	0
466.007629	0.795799	city	8	1	0.499435	0.499435	0	1	0	0	CorrectCommission	1.770641	1.229268	0	0
466.803436	0.795802	city	2	1	0.509602	0.509602	0	1	0	0	CorrectCommission	1.643324	1.256070	0	0
467.599365	0.796019	city	4	1	0.409762	0.409762	0	1	0	0	CorrectCommission	2.893497	1.278006	0	0
468.395203	0.795674	city	8	1	0.499703	0.499703	0	1	0	0	CorrectCommission	1.767280	1.292907	0	0
469.190887	0.795712	city	10	1	0.514619	0.514619	0	1	0	0	CorrectCommission	1.580502	1.299133	0	0
469.986694	0.795911	city	5	1	0.698611	0.698611	0	1	0	0	CorrectCommission	0.723386	1.295668	0	0
470.782501	0.795691	city	7	1	0.658044	0.658044	0	1	0	0	CorrectCommission	0.215424	1.282185	0	0
471.578278	0.795855	mountain	6	0	0.000000	0.716642	1	0	0	0	CorrectOmission	0.949168	1.259007	0	0
472.374176	0.795967	city	5	1	0.798186	0.798186	0	1	0	0	CorrectCommission	1.970239	1.227034	0	0
473.169952	0.795588	city	8	0	0.000000	0.826458	0	0	0	1	OmissionError	2.324254	1.187660	0	0
473.965668	0.795796	city	3	1	0.798632	0.798632	0	1	0	0	CorrectCommission	1.975829	1.142698	0	0
474.761444	0.795805	city	10	1	0.711883	0.711883	0	1	0	0	CorrectCommission	0.889576	1.094214	0	0
475.557312	0.795883	city	9	1	0.654002	0.654002	0	1	0	0	CorrectCommission	0.164804	1.044344	0	0
476.353119	0.795740	city	2	1	0.554789	0.554789	0	1	0	0	CorrectCommission	1.077507	0.995062	0	0
477.148865	0.795780	city	1	1	0.698360	0.698360	0	1	0	0	CorrectCommission	0.720242	0.947968	0	0
477.944672	0.795800	city	4	1	0.649644	0.649644	0	1	0	0	CorrectCommission	0.110237	0.904143	0	0
478.740479	0.795802	city	10	1	0.611635	0.611635	0	1	0	0	CorrectCommission	0.365694	0.864058	0	0
479.536316	0.795911	city	4	1	0.500155	0.500155	0	1	0	0	CorrectCommission	1.761620	0.827567	0	0
480.332123	0.795695	city	5	0	0.000000	0.546161	0	0	0	1	OmissionError	1.185551	0.793978	0	0
481.127869	0.795803	city	9	1	0.649112	0.649112	0	1	0	0	CorrectCommission	0.103573	0.762262	0	0
481.923676	0.795796	city	6	1	0.708467	0.708467	0	1	0	0	CorrectCommission	0.846810	0.731254	1	0
482.719513	0.795913	city	4	1	0.698532	0.698532	0	1	0	0	CorrectCommission	0.722399	0.699830	1	0
483.515320	0.795691	city	5	1	0.698257	0.698257	0	1	0	0	CorrectCommission	0.718952	0.667097	1	0
484.311066	0.795806	city	7	1	0.699508	0.699508	0	1	0	0	CorrectCommission	0.734627	0.632539	1	0
485.106934	0.795909	city	9	1	0.549752	0.549752	0	1	0	0	CorrectCommission	1.140577	0.596056	1	0
485.902740	0.795695	city	8	1	0.599013	0.599013	0	1	0	0	CorrectCommission	0.523748	0.557987	1	0
486.698608	0.796016	city	1	1	0.599390	0.599390	0	1	0	0	CorrectCommission	0.519031	0.519031	1	0
