onset	duration	trial_type	image_type	Press	ReactionTime	ReactionTime_Interpolated	CorrectOmission	CorrectCommission	CommissionError	OmissionError	response_type	nonsmoothVarianceTimeCourse	VarianceTimeCourse	In_the_Zone	Reward_trial
8.433850	0.792170	city	9	1	1.041798	1.041798	0	1	0	0	CorrectCommission	2.466269	2.466269	0	0
9.226061	0.792251	city	4	1	0.653547	0.653547	0	1	0	0	CorrectCommission	0.477167	2.233623	0	0
10.018318	0.792264	city	6	1	0.460194	0.460194	0	1	0	0	CorrectCommission	1.943022	2.006206	0	0
10.810589	0.792277	city	5	1	0.403357	0.403357	0	1	0	0	CorrectCommission	2.373915	1.788822	0	0
11.602854	0.792254	city	6	1	0.562112	0.562112	0	1	0	0	CorrectCommission	1.170355	1.585617	0	0
12.395114	0.792267	city	1	1	0.645737	0.645737	0	1	0	0	CorrectCommission	0.536374	1.399865	0	0
13.187433	0.792372	city	3	1	0.646139	0.646139	0	1	0	0	CorrectCommission	0.533326	1.233762	0	0
13.979698	0.792157	city	5	1	0.657594	0.657594	0	1	0	0	CorrectCommission	0.446480	1.088426	0	0
14.771908	0.792263	city	8	1	0.601332	0.601332	0	1	0	0	CorrectCommission	0.873016	0.963984	0	0
15.564173	0.792267	city	9	1	0.603704	0.603704	0	1	0	0	CorrectCommission	0.855034	0.859701	0	0
16.356493	0.792373	city	8	1	0.596149	0.596149	0	1	0	0	CorrectCommission	0.912313	0.774217	0	0
17.148758	0.792157	city	5	1	0.645846	0.645846	0	1	0	0	CorrectCommission	0.535544	0.705713	1	0
17.940989	0.792305	city	1	1	0.645844	0.645844	0	1	0	0	CorrectCommission	0.535563	0.652116	1	0
18.733253	0.792227	city	4	1	0.695210	0.695210	0	1	0	0	CorrectCommission	0.161302	0.611208	1	0
19.525497	0.792259	city	7	1	0.695272	0.695272	0	1	0	0	CorrectCommission	0.160835	0.580756	1	0
20.317760	0.792266	city	5	1	0.645805	0.645805	0	1	0	0	CorrectCommission	0.535859	0.558590	1	0
21.110062	0.792338	city	7	1	0.646090	0.646090	0	1	0	0	CorrectCommission	0.533696	0.542683	1	0
21.902357	0.792252	city	8	1	0.646342	0.646342	0	1	0	0	CorrectCommission	0.531787	0.531229	1	0
22.694586	0.792208	city	3	1	0.646044	0.646044	0	1	0	0	CorrectCommission	0.534045	0.522759	1	0
23.486822	0.792263	city	8	1	0.596238	0.596238	0	1	0	0	CorrectCommission	0.911636	0.516217	1	0
24.279085	0.792262	city	1	1	0.606578	0.606578	0	1	0	0	CorrectCommission	0.833248	0.511002	1	0
25.071402	0.792374	mountain	1	0	0.000000	0.650155	1	0	0	0	CorrectOmission	0.502881	0.506974	1	0
25.863668	0.792160	city	2	1	0.695162	0.695162	0	1	0	0	CorrectCommission	0.161669	0.504442	1	0
26.655880	0.792261	city	6	1	0.709793	0.709793	0	1	0	0	CorrectCommission	0.050746	0.504046	1	0
27.448162	0.792303	city	8	1	0.847827	0.847827	0	1	0	0	CorrectCommission	0.995728	0.506579	1	0
28.240480	0.792334	city	1	1	0.744749	0.744749	0	1	0	0	CorrectCommission	0.214265	0.512816	1	0
29.032730	0.792166	city	9	1	0.744689	0.744689	0	1	0	0	CorrectCommission	0.213805	0.523431	1	0
29.824942	0.792255	city	7	1	0.844026	0.844026	0	1	0	0	CorrectCommission	0.966909	0.538782	1	0
30.617203	0.792270	city	10	1	0.750606	0.750606	0	1	0	0	CorrectCommission	0.258665	0.558834	1	0
31.409492	0.792307	city	4	1	0.794334	0.794334	0	1	0	0	CorrectCommission	0.590182	0.583174	1	0
32.201756	0.792223	city	10	1	0.695277	0.695277	0	1	0	0	CorrectCommission	0.160795	0.610969	1	0
32.994106	0.792479	city	8	1	0.645798	0.645798	0	1	0	0	CorrectCommission	0.535908	0.641125	1	0
33.786407	0.792120	city	6	1	0.695245	0.695245	0	1	0	0	CorrectCommission	0.161040	0.672422	1	0
34.578564	0.792190	city	5	1	0.645681	0.645681	0	1	0	0	CorrectCommission	0.536799	0.703736	1	0
35.370789	0.792264	city	2	1	0.497229	0.497229	0	1	0	0	CorrectCommission	1.662249	0.734187	1	0
36.163063	0.792285	city	1	1	0.447691	0.447691	0	1	0	0	CorrectCommission	2.037808	0.763259	0	0
36.955345	0.792278	city	3	1	0.613258	0.613258	0	1	0	0	CorrectCommission	0.782606	0.790841	0	0
37.747707	0.792449	city	10	1	0.600930	0.600930	0	1	0	0	CorrectCommission	0.876065	0.817151	0	0
38.539955	0.792047	city	6	1	0.704523	0.704523	0	1	0	0	CorrectCommission	0.090701	0.842494	0	0
39.332115	0.792268	city	3	1	0.700680	0.700680	0	1	0	0	CorrectCommission	0.119836	0.867082	0	0
40.124405	0.792316	city	4	1	0.646026	0.646026	0	1	0	0	CorrectCommission	0.534179	0.890786	0	0
40.916668	0.792210	city	3	1	0.561238	0.561238	0	1	0	0	CorrectCommission	1.176985	0.913035	0	0
41.708927	0.792309	city	4	1	0.646096	0.646096	0	1	0	0	CorrectCommission	0.533653	0.932836	0	0
42.501247	0.792330	city	8	1	0.551536	0.551536	0	1	0	0	CorrectCommission	1.250537	0.948926	0	0
43.293495	0.792161	city	9	1	0.497677	0.497677	0	1	0	0	CorrectCommission	1.658857	0.959959	0	0
44.085705	0.792261	city	3	1	0.454961	0.454961	0	1	0	0	CorrectCommission	1.982693	0.964773	0	0
44.878075	0.792482	city	9	1	0.596347	0.596347	0	1	0	0	CorrectCommission	0.910814	0.962562	0	0
45.670341	0.792046	city	6	1	0.596033	0.596033	0	1	0	0	CorrectCommission	0.913194	0.953046	0	0
46.462494	0.792264	city	7	1	0.547177	0.547177	0	1	0	0	CorrectCommission	1.283585	0.936438	0	0
47.254761	0.792267	mountain	1	0	0.000000	0.672324	1	0	0	0	CorrectOmission	0.334812	0.913367	0	0
48.047028	0.792266	city	2	1	0.759383	0.759383	0	1	0	0	CorrectCommission	0.325204	0.884820	0	0
48.839294	0.792270	city	9	1	0.596262	0.596262	0	1	0	0	CorrectCommission	0.911455	0.851956	0	0
49.631668	0.792473	city	4	1	0.551387	0.551387	0	1	0	0	CorrectCommission	1.251663	0.816041	0	0
50.424038	0.792265	city	7	1	0.550386	0.550386	0	1	0	0	CorrectCommission	1.259251	0.778375	0	0
51.216194	0.792053	city	5	1	0.600146	0.600146	0	1	0	0	CorrectCommission	0.882010	0.740277	1	0
52.008404	0.792368	city	8	1	0.646568	0.646568	0	1	0	0	CorrectCommission	0.530070	0.703042	1	0
52.800667	0.792157	city	9	1	0.646082	0.646082	0	1	0	0	CorrectCommission	0.533761	0.667904	1	0
53.592987	0.792482	city	6	1	0.646050	0.646050	0	1	0	0	CorrectCommission	0.533997	0.635974	1	0
54.385265	0.792074	city	2	1	0.652678	0.652678	0	1	0	0	CorrectCommission	0.483754	0.608194	1	0
55.177475	0.792345	city	1	1	0.700318	0.700318	0	1	0	0	CorrectCommission	0.122577	0.585268	1	0
55.969753	0.792216	city	9	1	0.695102	0.695102	0	1	0	0	CorrectCommission	0.162121	0.567640	1	0
56.761978	0.792234	city	2	1	0.602949	0.602949	0	1	0	0	CorrectCommission	0.860764	0.555456	1	0
57.554234	0.792276	city	7	1	0.661561	0.661561	0	1	0	0	CorrectCommission	0.416408	0.548577	1	0
58.346489	0.792231	city	9	1	0.843919	0.843919	0	1	0	0	CorrectCommission	0.966096	0.546617	1	0
59.138844	0.792478	mountain	6	0	0.000000	0.808220	1	0	0	0	CorrectOmission	0.695457	0.548959	1	0
59.931126	0.792090	city	8	1	0.708753	0.708753	0	1	0	0	CorrectCommission	0.058628	0.554799	1	0
60.723282	0.792221	city	5	1	0.699806	0.699806	0	1	0	0	CorrectCommission	0.126458	0.563165	1	0
61.515530	0.792273	city	4	1	0.794765	0.794765	0	1	0	0	CorrectCommission	0.593444	0.572923	1	0
62.307793	0.792258	city	7	1	0.843871	0.843871	0	1	0	0	CorrectCommission	0.965731	0.582837	1	0
63.100163	0.792481	city	1	1	0.801781	0.801781	0	1	0	0	CorrectCommission	0.646637	0.591649	1	0
63.892429	0.792049	city	7	1	0.794467	0.794467	0	1	0	0	CorrectCommission	0.591189	0.598155	1	0
64.684586	0.792266	city	9	1	0.794334	0.794334	0	1	0	0	CorrectCommission	0.590182	0.601311	1	0
65.476852	0.792262	city	7	1	0.794306	0.794306	0	1	0	0	CorrectCommission	0.589964	0.600382	1	0
66.269142	0.792318	city	10	1	0.802652	0.802652	0	1	0	0	CorrectCommission	0.653239	0.595048	1	0
67.061417	0.792229	city	5	1	0.794842	0.794842	0	1	0	0	CorrectCommission	0.594033	0.585517	1	0
67.853691	0.792326	mountain	10	0	0.000000	0.875695	1	0	0	0	CorrectOmission	1.207002	0.572570	1	1
68.645950	0.792194	city	3	1	0.893274	0.893274	0	1	0	0	CorrectCommission	1.340273	0.557493	1	1
69.438286	0.792474	city	2	1	0.695642	0.695642	0	1	0	0	CorrectCommission	0.158031	0.541995	1	1
70.230598	0.792157	city	5	1	0.695344	0.695344	0	1	0	0	CorrectCommission	0.160291	0.528012	1	1
71.022865	0.792372	city	1	1	0.713056	0.713056	0	1	0	0	CorrectCommission	0.026009	0.517404	1	1
71.815071	0.792047	city	7	1	0.695186	0.695186	0	1	0	0	CorrectCommission	0.161486	0.511732	1	1
72.607231	0.792270	city	6	1	0.614033	0.614033	0	1	0	0	CorrectCommission	0.776731	0.512044	1	1
73.399498	0.792265	city	10	1	0.695268	0.695268	0	1	0	0	CorrectCommission	0.160865	0.518719	1	1
74.191872	0.792478	city	2	1	0.695243	0.695243	0	1	0	0	CorrectCommission	0.161055	0.531458	1	1
74.984161	0.792100	city	8	1	0.645952	0.645952	0	1	0	0	CorrectCommission	0.534742	0.549382	1	1
75.776337	0.792248	city	10	1	0.645841	0.645841	0	1	0	0	CorrectCommission	0.535587	0.571241	1	1
76.568573	0.792227	city	3	1	0.794269	0.794269	0	1	0	0	CorrectCommission	0.589687	0.595693	1	1
77.360817	0.792267	city	8	1	0.645849	0.645849	0	1	0	0	CorrectCommission	0.535523	0.621569	1	1
78.153191	0.792482	city	7	1	0.900749	0.900749	0	1	0	0	CorrectCommission	1.396940	0.648093	1	1
78.945496	0.792118	city	4	1	0.901076	0.901076	0	1	0	0	CorrectCommission	1.399418	0.674973	1	1
79.737648	0.792193	city	5	1	0.744729	0.744729	0	1	0	0	CorrectCommission	0.214112	0.702411	1	1
80.529984	0.792482	city	3	1	0.660514	0.660514	0	1	0	0	CorrectCommission	0.424342	0.730963	1	1
81.322357	0.792266	city	7	1	0.645548	0.645548	0	1	0	0	CorrectCommission	0.537806	0.761235	0	1
82.114624	0.792264	city	2	1	0.596476	0.596476	0	1	0	0	CorrectCommission	0.909831	0.793579	0	1
82.906784	0.792046	city	8	1	0.557498	0.557498	0	1	0	0	CorrectCommission	1.205332	0.827790	0	1
83.698952	0.792303	city	9	1	0.695274	0.695274	0	1	0	0	CorrectCommission	0.160816	0.862904	0	1
84.491272	0.792336	city	8	1	0.745148	0.745148	0	1	0	0	CorrectCommission	0.217291	0.897173	0	1
85.283524	0.792157	city	9	1	0.794603	0.794603	0	1	0	0	CorrectCommission	0.592217	0.928130	0	1
86.075836	0.792482	city	1	1	0.795243	0.795243	0	1	0	0	CorrectCommission	0.597074	0.952944	0	1
86.868103	0.792049	city	8	1	0.893233	0.893233	0	1	0	0	CorrectCommission	1.339959	0.968897	0	1
87.660316	0.792372	city	9	1	1.091422	1.091422	0	1	0	0	CorrectCommission	2.842483	0.973824	0	1
88.452583	0.792158	mountain	5	0	0.000000	1.051792	1	0	0	0	CorrectOmission	2.542040	0.966528	0	1
89.244797	0.792267	mountain	3	0	0.000000	0.883397	1	0	0	0	CorrectOmission	1.265391	0.947085	0	1
90.037056	0.792258	city	10	1	0.695290	0.695290	0	1	0	0	CorrectCommission	0.160700	0.916848	0	1
90.829323	0.792271	city	9	1	0.596524	0.596524	0	1	0	0	CorrectCommission	0.909473	0.878247	0	1
91.621696	0.792478	mountain	10	0	0.000000	0.621047	1	0	0	0	CorrectOmission	0.723552	0.834358	0	1
92.413956	0.792047	city	2	1	0.695062	0.695062	0	1	0	0	CorrectCommission	0.162429	0.788522	0	1
93.206116	0.792264	city	3	1	0.744768	0.744768	0	1	0	0	CorrectCommission	0.214405	0.743868	1	1
93.998489	0.792484	city	9	1	0.794304	0.794304	0	1	0	0	CorrectCommission	0.589953	0.702967	1	1
94.790749	0.792046	city	2	1	0.794069	0.794069	0	1	0	0	CorrectCommission	0.588168	0.667656	1	1
95.582962	0.792373	city	1	1	0.655887	0.655887	0	1	0	0	CorrectCommission	0.459420	0.639012	1	1
96.375229	0.792155	city	2	1	0.551111	0.551111	0	1	0	0	CorrectCommission	1.253761	0.617431	1	1
97.167435	0.792268	city	5	1	0.646215	0.646215	0	1	0	0	CorrectCommission	0.532749	0.602771	1	1
97.959808	0.792481	city	4	1	0.656350	0.656350	0	1	0	0	CorrectCommission	0.455914	0.594553	1	1
98.752129	0.792157	mountain	6	0	0.000000	0.640307	1	0	0	0	CorrectOmission	0.577539	0.592041	1	1
99.544395	0.792374	city	9	1	0.645632	0.645632	0	1	0	0	CorrectCommission	0.537168	0.594349	1	1
100.336662	0.792156	mountain	1	0	0.000000	0.719870	1	0	0	0	CorrectOmission	0.025652	0.600471	1	1
101.128853	0.792223	city	9	1	0.745107	0.745107	0	1	0	0	CorrectCommission	0.216974	0.609329	1	1
101.921059	0.792199	city	5	1	0.603425	0.603425	0	1	0	0	CorrectCommission	0.857147	0.619761	1	1
102.713310	0.792299	city	1	1	0.854947	0.854947	0	1	0	0	CorrectCommission	1.049701	0.630543	1	1
103.505630	0.792335	city	9	1	0.798254	0.798254	0	1	0	0	CorrectCommission	0.619897	0.640465	1	1
104.297874	0.792157	city	2	1	0.794230	0.794230	0	1	0	0	CorrectCommission	0.589393	0.648416	1	1
105.090195	0.792482	city	5	1	0.843949	0.843949	0	1	0	0	CorrectCommission	0.966324	0.653414	1	1
105.882477	0.792083	city	2	1	0.844681	0.844681	0	1	0	0	CorrectCommission	0.971876	0.654689	1	1
106.674652	0.792262	city	3	1	0.754355	0.754355	0	1	0	0	CorrectCommission	0.287087	0.651747	1	1
107.466896	0.792233	city	5	1	0.844067	0.844067	0	1	0	0	CorrectCommission	0.967220	0.644398	1	1
108.259148	0.792264	city	2	1	0.645763	0.645763	0	1	0	0	CorrectCommission	0.536179	0.632674	1	1
109.051514	0.792481	city	3	1	0.645748	0.645748	0	1	0	0	CorrectCommission	0.536286	0.616883	1	1
109.843887	0.792264	mountain	4	0	0.000000	0.784841	1	0	0	0	CorrectOmission	0.518213	0.597546	1	1
110.636101	0.792156	city	4	1	0.843993	0.843993	0	1	0	0	CorrectCommission	0.966659	0.575410	1	1
111.428268	0.792180	city	5	1	0.604157	0.604157	0	1	0	0	CorrectCommission	0.851603	0.551333	1	1
112.220535	0.792349	city	3	1	0.745746	0.745746	0	1	0	0	CorrectCommission	0.221824	0.526323	1	1
113.012787	0.792156	city	5	1	0.808579	0.808579	0	1	0	0	CorrectCommission	0.698177	0.501492	1	1
113.805046	0.792373	city	4	1	0.695283	0.695283	0	1	0	0	CorrectCommission	0.160754	0.477946	1	1
114.597420	0.792374	city	7	1	0.645955	0.645955	0	1	0	0	CorrectCommission	0.534716	0.456806	1	1
115.389687	0.792156	city	3	1	0.695068	0.695068	0	1	0	0	CorrectCommission	0.162383	0.439107	1	1
116.181847	0.792157	city	10	1	0.695216	0.695216	0	1	0	0	CorrectCommission	0.161259	0.425769	1	1
116.974060	0.792267	city	6	1	0.799349	0.799349	0	1	0	0	CorrectCommission	0.628203	0.417519	1	1
117.766319	0.792262	city	2	1	0.662180	0.662180	0	1	0	0	CorrectCommission	0.411717	0.414842	1	1
118.558640	0.792374	city	7	1	0.702810	0.702810	0	1	0	0	CorrectCommission	0.103689	0.417955	1	1
119.350906	0.792154	city	8	1	0.645706	0.645706	0	1	0	0	CorrectCommission	0.536608	0.426712	1	1
120.143120	0.792284	city	2	1	0.646502	0.646502	0	1	0	0	CorrectCommission	0.530574	0.440567	1	1
120.935387	0.792249	mountain	6	0	0.000000	0.686288	1	0	0	0	CorrectOmission	0.228941	0.458557	1	1
121.727699	0.792371	mountain	3	0	0.000000	0.735584	1	0	0	0	CorrectOmission	0.144781	0.479308	1	1
122.520073	0.792373	mountain	10	0	0.000000	0.764906	1	0	0	0	CorrectOmission	0.367082	0.501085	1	1
123.312332	0.792155	city	5	1	0.744774	0.744774	0	1	0	0	CorrectCommission	0.214453	0.521919	1	1
124.104492	0.792159	city	10	1	0.645705	0.645705	0	1	0	0	CorrectCommission	0.536616	0.539830	1	1
124.896698	0.792261	city	5	1	0.794293	0.794293	0	1	0	0	CorrectCommission	0.589867	0.553007	1	1
125.688965	0.792269	city	6	1	1.042348	1.042348	0	1	0	0	CorrectCommission	2.470438	0.560070	1	1
126.481232	0.792261	city	2	1	0.744787	0.744787	0	1	0	0	CorrectCommission	0.214554	0.560192	1	1
127.273506	0.792282	city	1	1	0.645738	0.645738	0	1	0	0	CorrectCommission	0.536361	0.553314	1	0
128.065872	0.792465	city	2	1	0.843803	0.843803	0	1	0	0	CorrectCommission	0.965215	0.539995	1	0
128.858139	0.792050	city	10	1	0.744834	0.744834	0	1	0	0	CorrectCommission	0.214906	0.521351	1	0
129.650299	0.792265	city	9	1	0.695745	0.695745	0	1	0	0	CorrectCommission	0.157246	0.498931	1	0
130.442581	0.792321	city	10	1	0.650646	0.650646	0	1	0	0	CorrectCommission	0.499155	0.474438	1	0
131.234909	0.792315	city	2	1	0.645987	0.645987	0	1	0	0	CorrectCommission	0.534476	0.449573	1	0
132.027252	0.792373	mountain	5	0	0.000000	0.686285	1	0	0	0	CorrectOmission	0.228968	0.425896	1	0
132.819489	0.792116	city	5	1	0.744747	0.744747	0	1	0	0	CorrectCommission	0.214251	0.404754	1	0
133.611755	0.792414	city	4	1	0.794583	0.794583	0	1	0	0	CorrectCommission	0.592064	0.387243	1	0
134.403992	0.792047	city	10	1	0.695184	0.695184	0	1	0	0	CorrectCommission	0.161505	0.374201	1	0
135.196198	0.792371	city	2	1	0.794274	0.794274	0	1	0	0	CorrectCommission	0.589726	0.366246	1	0
135.988464	0.792161	city	5	1	0.695156	0.695156	0	1	0	0	CorrectCommission	0.161715	0.363788	1	0
136.780701	0.792330	city	9	1	0.744815	0.744815	0	1	0	0	CorrectCommission	0.214764	0.367022	1	0
137.572968	0.792200	city	7	1	0.658867	0.658867	0	1	0	0	CorrectCommission	0.436829	0.375928	1	0
138.365265	0.792370	city	4	1	0.745359	0.745359	0	1	0	0	CorrectCommission	0.218886	0.390203	1	0
139.157516	0.792154	city	2	1	0.752172	0.752172	0	1	0	0	CorrectCommission	0.270536	0.409320	1	0
139.949738	0.792269	city	1	1	0.744814	0.744814	0	1	0	0	CorrectCommission	0.214754	0.432502	1	0
140.742111	0.792480	city	7	1	0.695257	0.695257	0	1	0	0	CorrectCommission	0.160950	0.458826	1	0
141.534378	0.792053	city	10	1	0.695036	0.695036	0	1	0	0	CorrectCommission	0.162621	0.487336	1	0
142.326584	0.792368	city	8	1	0.609186	0.609186	0	1	0	0	CorrectCommission	0.813474	0.517175	1	0
143.118851	0.792165	city	5	1	0.596179	0.596179	0	1	0	0	CorrectCommission	0.912085	0.547704	1	0
143.911102	0.792330	city	4	1	0.596249	0.596249	0	1	0	0	CorrectCommission	0.911553	0.578670	1	0
144.703491	0.792462	city	8	1	0.549053	0.549053	0	1	0	0	CorrectCommission	1.269363	0.610156	1	0
145.495834	0.792210	mountain	5	0	0.000000	0.610029	1	0	0	0	CorrectOmission	0.807083	0.642497	1	0
146.287964	0.792047	city	5	1	0.695052	0.695052	0	1	0	0	CorrectCommission	0.162500	0.676113	1	0
147.080109	0.792268	mountain	6	0	0.000000	0.719995	1	0	0	0	CorrectOmission	0.026597	0.711284	1	0
147.872375	0.792262	city	3	1	0.695904	0.695904	0	1	0	0	CorrectCommission	0.156040	0.747904	0	0
148.664703	0.792373	mountain	1	0	0.000000	0.633828	1	0	0	0	CorrectOmission	0.626657	0.785377	0	0
149.456955	0.792157	city	8	1	0.596310	0.596310	0	1	0	0	CorrectCommission	0.911089	0.822606	0	0
150.249191	0.792314	city	1	1	0.645896	0.645896	0	1	0	0	CorrectCommission	0.535169	0.858120	0	0
151.041519	0.792324	city	4	1	0.497128	0.497128	0	1	0	0	CorrectCommission	1.663019	0.890334	0	0
151.833817	0.792265	city	1	1	0.547301	0.547301	0	1	0	0	CorrectCommission	1.282638	0.917774	0	0
152.626053	0.792219	city	10	1	1.041790	1.041790	0	1	0	0	CorrectCommission	2.466208	0.939358	0	0
153.418259	0.792201	city	9	1	0.744703	0.744703	0	1	0	0	CorrectCommission	0.213918	0.954513	0	0
154.210495	0.792267	city	8	1	0.565189	0.565189	0	1	0	0	CorrectCommission	1.147030	0.963302	0	0
155.002762	0.792264	mountain	5	0	0.000000	0.658693	1	0	0	0	CorrectOmission	0.438149	0.966191	0	0
155.795135	0.792483	mountain	7	0	0.000000	0.833323	1	0	0	0	CorrectOmission	0.885764	0.963990	0	0
156.587402	0.792058	city	9	1	0.897183	0.897183	0	1	0	0	CorrectCommission	1.369909	0.957587	0	0
157.379608	0.792345	city	6	1	0.658381	0.658381	0	1	0	0	CorrectCommission	0.440513	0.947797	0	0
158.171860	0.792173	city	2	1	0.600885	0.600885	0	1	0	0	CorrectCommission	0.876410	0.935266	0	0
158.964111	0.792335	city	10	1	0.553748	0.553748	0	1	0	0	CorrectCommission	1.233768	0.920405	0	0
159.756500	0.792413	city	7	1	0.608064	0.608064	0	1	0	0	CorrectCommission	0.821984	0.903407	0	0
160.548721	0.792050	city	5	1	0.514560	0.514560	0	1	0	0	CorrectCommission	1.530860	0.884401	0	0
161.340881	0.792269	city	2	1	0.794320	0.794320	0	1	0	0	CorrectCommission	0.590076	0.863518	0	0
162.133148	0.792265	city	5	1	0.843800	0.843800	0	1	0	0	CorrectCommission	0.965193	0.841062	0	0
162.925446	0.792322	city	2	1	0.794401	0.794401	0	1	0	0	CorrectCommission	0.590685	0.817543	0	0
163.717712	0.792205	city	8	1	0.604019	0.604019	0	1	0	0	CorrectCommission	0.852651	0.793786	0	0
164.509995	0.792368	city	5	1	0.596295	0.596295	0	1	0	0	CorrectCommission	0.911208	0.770818	0	0
165.302261	0.792155	mountain	4	0	0.000000	0.751666	1	0	0	0	CorrectOmission	0.266703	0.749868	0	0
166.094467	0.792266	city	5	1	0.893321	0.893321	0	1	0	0	CorrectCommission	1.340630	0.732228	1	0
166.886841	0.792484	city	7	1	0.844449	0.844449	0	1	0	0	CorrectCommission	0.970118	0.719079	1	0
167.679138	0.792118	city	2	1	0.711974	0.711974	0	1	0	0	CorrectCommission	0.034215	0.711375	1	0
168.471313	0.792236	city	4	1	0.760603	0.760603	0	1	0	0	CorrectCommission	0.334459	0.709681	1	0
169.263565	0.792257	mountain	6	0	0.000000	0.792277	1	0	0	0	CorrectOmission	0.574587	0.714083	1	0
170.055801	0.792227	mountain	9	0	0.000000	0.793016	1	0	0	0	CorrectOmission	0.580188	0.724099	1	0
170.848053	0.792269	city	9	1	0.748840	0.748840	0	1	0	0	CorrectCommission	0.245280	0.738809	1	0
171.640427	0.792479	city	3	1	0.645771	0.645771	0	1	0	0	CorrectCommission	0.536118	0.756906	0	0
172.432709	0.792066	city	8	1	0.843623	0.843623	0	1	0	0	CorrectCommission	0.963856	0.776885	0	0
173.224915	0.792355	city	3	1	0.893338	0.893338	0	1	0	0	CorrectCommission	1.340753	0.797206	0	0
174.017166	0.792155	city	4	1	0.998623	0.998623	0	1	0	0	CorrectCommission	2.138948	0.816422	0	0
174.809372	0.792267	city	7	1	0.798396	0.798396	0	1	0	0	CorrectCommission	0.620975	0.833277	0	0
175.601746	0.792480	city	8	1	0.647471	0.647471	0	1	0	0	CorrectCommission	0.523225	0.846757	0	0
176.394073	0.792155	city	7	1	0.744621	0.744621	0	1	0	0	CorrectCommission	0.213292	0.855968	0	0
177.186264	0.792229	city	10	1	0.695201	0.695201	0	1	0	0	CorrectCommission	0.161377	0.860157	0	0
177.978485	0.792218	city	1	1	0.803931	0.803931	0	1	0	0	CorrectCommission	0.662938	0.858663	0	0
178.770828	0.792457	city	9	1	1.042172	1.042172	0	1	0	0	CorrectCommission	2.469108	0.850988	0	0
179.563080	0.792051	city	2	1	0.794257	0.794257	0	1	0	0	CorrectCommission	0.589597	0.836858	0	0
180.355347	0.792479	city	6	1	0.893365	0.893365	0	1	0	0	CorrectCommission	1.340962	0.816468	0	0
181.147598	0.792046	city	10	1	0.596113	0.596113	0	1	0	0	CorrectCommission	0.912587	0.790415	0	0
181.939758	0.792264	city	1	1	0.905210	0.905210	0	1	0	0	CorrectCommission	1.430759	0.759834	0	0
182.732056	0.792328	city	8	1	0.704964	0.704964	0	1	0	0	CorrectCommission	0.087355	0.726301	1	0
183.524429	0.792420	city	1	1	0.704700	0.704700	0	1	0	0	CorrectCommission	0.089358	0.691733	1	0
184.316696	0.792114	city	2	1	0.893674	0.893674	0	1	0	0	CorrectCommission	1.343302	0.658138	1	0
185.108856	0.792208	city	8	1	0.695271	0.695271	0	1	0	0	CorrectCommission	0.160846	0.627401	1	0
185.901108	0.792306	city	1	1	0.651432	0.651432	0	1	0	0	CorrectCommission	0.493199	0.601118	1	0
186.693420	0.792323	mountain	10	0	0.000000	0.740916	1	0	0	0	CorrectOmission	0.185206	0.580365	1	1
187.485672	0.792165	city	9	1	0.795196	0.795196	0	1	0	0	CorrectCommission	0.596714	0.565637	1	1
188.277908	0.792305	city	1	1	0.645742	0.645742	0	1	0	0	CorrectCommission	0.536333	0.556814	1	1
189.070175	0.792217	city	6	1	0.745313	0.745313	0	1	0	0	CorrectCommission	0.218543	0.553247	1	1
189.862411	0.792264	city	9	1	0.695295	0.695295	0	1	0	0	CorrectCommission	0.160664	0.553910	1	1
190.654678	0.792268	city	8	1	0.596292	0.596292	0	1	0	0	CorrectCommission	0.911227	0.557548	1	1
191.446991	0.792369	city	7	1	0.606509	0.606509	0	1	0	0	CorrectCommission	0.833773	0.562873	1	1
192.239288	0.792225	city	9	1	0.596572	0.596572	0	1	0	0	CorrectCommission	0.909109	0.568812	1	1
193.031555	0.792306	city	1	1	0.645682	0.645682	0	1	0	0	CorrectCommission	0.536787	0.574587	1	1
193.823792	0.792154	city	9	1	0.752918	0.752918	0	1	0	0	CorrectCommission	0.276194	0.579776	1	1
194.616043	0.792374	city	2	1	0.660815	0.660815	0	1	0	0	CorrectCommission	0.422062	0.584371	1	1
195.408310	0.792157	city	1	1	0.894295	0.894295	0	1	0	0	CorrectCommission	1.348012	0.588617	1	1
196.200577	0.792373	city	9	1	0.659933	0.659933	0	1	0	0	CorrectCommission	0.428746	0.592913	1	1
196.992844	0.792155	city	5	1	0.653096	0.653096	0	1	0	0	CorrectCommission	0.480580	0.597790	1	1
197.785049	0.792268	mountain	5	0	0.000000	0.722639	1	0	0	0	CorrectOmission	0.046644	0.603702	1	1
198.577316	0.792261	city	5	1	0.794441	0.794441	0	1	0	0	CorrectCommission	0.590989	0.610995	1	1
199.369583	0.792269	city	3	1	0.794379	0.794379	0	1	0	0	CorrectCommission	0.590518	0.619824	1	1
200.161850	0.792263	mountain	10	0	0.000000	0.797392	1	0	0	0	CorrectOmission	0.613362	0.630213	1	1
200.954224	0.792480	city	3	1	0.811257	0.811257	0	1	0	0	CorrectCommission	0.718479	0.642052	1	1
201.746536	0.792156	city	5	1	0.843752	0.843752	0	1	0	0	CorrectCommission	0.964828	0.655138	1	1
202.538696	0.792154	mountain	9	0	0.000000	0.831190	1	0	0	0	CorrectOmission	0.869597	0.669221	1	1
203.330902	0.792267	city	1	1	0.794606	0.794606	0	1	0	0	CorrectCommission	0.592245	0.684017	1	1
204.123276	0.792481	city	10	1	0.755033	0.755033	0	1	0	0	CorrectCommission	0.292231	0.699172	1	1
204.915543	0.792051	city	7	1	0.893158	0.893158	0	1	0	0	CorrectCommission	1.339388	0.714228	1	1
205.707703	0.792263	city	8	1	0.708119	0.708119	0	1	0	0	CorrectCommission	0.063437	0.728578	1	1
206.499969	0.792266	city	6	1	0.761799	0.761799	0	1	0	0	CorrectCommission	0.343522	0.741515	1	1
207.292236	0.792261	mountain	10	0	0.000000	0.828569	1	0	0	0	CorrectOmission	0.849722	0.752230	0	1
208.084518	0.792312	city	9	1	0.844266	0.844266	0	1	0	0	CorrectCommission	0.968725	0.759911	0	1
208.876785	0.792221	city	8	1	0.744726	0.744726	0	1	0	0	CorrectCommission	0.214090	0.763909	0	1
209.669022	0.792265	city	3	1	1.103834	1.103834	0	1	0	0	CorrectCommission	2.936584	0.763846	0	1
210.461349	0.792369	city	9	1	0.809384	0.809384	0	1	0	0	CorrectCommission	0.704278	0.759630	0	1
211.253616	0.792159	city	3	1	0.655386	0.655386	0	1	0	0	CorrectCommission	0.463223	0.751623	0	1
212.045822	0.792262	city	4	1	0.695297	0.695297	0	1	0	0	CorrectCommission	0.160642	0.740469	1	1
212.838135	0.792374	city	6	1	0.645786	0.645786	0	1	0	0	CorrectCommission	0.535998	0.727014	1	1
213.630402	0.792159	city	4	1	0.645658	0.645658	0	1	0	0	CorrectCommission	0.536975	0.712213	1	1
214.422607	0.792261	city	2	1	0.596243	0.596243	0	1	0	0	CorrectCommission	0.911597	0.697000	1	1
215.214874	0.792266	city	6	1	0.596257	0.596257	0	1	0	0	CorrectCommission	0.911491	0.682206	1	1
216.007202	0.792374	city	1	1	0.695326	0.695326	0	1	0	0	CorrectCommission	0.160426	0.668513	1	1
216.799469	0.792154	city	4	1	0.549012	0.549012	0	1	0	0	CorrectCommission	1.269673	0.656455	1	1
217.591675	0.792266	city	10	1	0.646627	0.646627	0	1	0	0	CorrectCommission	0.529625	0.646355	1	1
218.383942	0.792268	city	1	1	0.596238	0.596238	0	1	0	0	CorrectCommission	0.911640	0.638394	1	1
219.176254	0.792369	mountain	1	0	0.000000	0.687309	1	0	0	0	CorrectOmission	0.221207	0.632545	1	1
219.968536	0.792191	city	4	1	0.745544	0.745544	0	1	0	0	CorrectCommission	0.220293	0.628607	1	1
220.760757	0.792252	city	9	1	0.596649	0.596649	0	1	0	0	CorrectCommission	0.908522	0.626206	1	1
221.553024	0.792285	mountain	8	0	0.000000	0.701381	1	0	0	0	CorrectOmission	0.114521	0.624871	1	1
222.345276	0.792223	city	8	1	0.803543	0.803543	0	1	0	0	CorrectCommission	0.659998	0.624161	1	1
223.137527	0.792267	city	7	1	0.646939	0.646939	0	1	0	0	CorrectCommission	0.527262	0.623745	1	1
223.929840	0.792368	city	8	1	0.547152	0.547152	0	1	0	0	CorrectCommission	1.283772	0.623581	1	1
224.722107	0.792157	city	2	1	0.597316	0.597316	0	1	0	0	CorrectCommission	0.903462	0.623968	1	1
225.514374	0.792373	city	7	1	0.596277	0.596277	0	1	0	0	CorrectCommission	0.911338	0.625600	1	1
226.306686	0.792265	city	5	1	0.661127	0.661127	0	1	0	0	CorrectCommission	0.419698	0.629512	1	1
227.098923	0.792193	city	6	1	0.658171	0.658171	0	1	0	0	CorrectCommission	0.442108	0.636827	1	1
227.891129	0.792231	mountain	8	0	0.000000	0.743232	1	0	0	0	CorrectOmission	0.202759	0.648607	1	1
228.683426	0.792371	city	3	1	0.811378	0.811378	0	1	0	0	CorrectCommission	0.719398	0.665533	1	1
229.475693	0.792157	city	1	1	0.757681	0.757681	0	1	0	0	CorrectCommission	0.312305	0.687683	1	1
230.267914	0.792262	city	9	1	0.695246	0.695246	0	1	0	0	CorrectCommission	0.161030	0.714394	1	1
231.060287	0.792485	city	4	1	0.649974	0.649974	0	1	0	0	CorrectCommission	0.504254	0.744237	1	1
231.852539	0.792045	city	8	1	0.596135	0.596135	0	1	0	0	CorrectCommission	0.912421	0.775108	0	1
232.644699	0.792268	city	2	1	0.596375	0.596375	0	1	0	0	CorrectCommission	0.910595	0.804506	0	1
233.437073	0.792481	city	8	1	0.546695	0.546695	0	1	0	0	CorrectCommission	1.287233	0.829886	0	1
234.229340	0.792046	city	10	1	0.503976	0.503976	0	1	0	0	CorrectCommission	1.611099	0.848945	0	1
235.021606	0.792484	city	3	1	0.608416	0.608416	0	1	0	0	CorrectCommission	0.819312	0.860010	0	1
235.813873	0.792048	city	9	1	0.645519	0.645519	0	1	0	0	CorrectCommission	0.538022	0.862277	0	1
236.606079	0.792372	city	7	1	0.547040	0.547040	0	1	0	0	CorrectCommission	1.284620	0.855935	0	1
237.398392	0.792264	mountain	5	1	0.447916	0.447916	0	0	1	0	CommissionError	2.036105	0.842127	0	1
238.190613	0.792157	city	1	1	0.646111	0.646111	0	1	0	0	CorrectCommission	0.533534	0.822823	0	1
238.982880	0.792373	city	9	1	0.645908	0.645908	0	1	0	0	CorrectCommission	0.535079	0.800656	0	1
239.775253	0.792373	city	5	1	0.645685	0.645685	0	1	0	0	CorrectCommission	0.536763	0.778549	0	1
240.567474	0.792078	city	6	1	0.695047	0.695047	0	1	0	0	CorrectCommission	0.162541	0.759462	0	1
241.359634	0.792233	city	5	1	0.596254	0.596254	0	1	0	0	CorrectCommission	0.911515	0.746106	0	1
242.151886	0.792270	city	3	1	0.745268	0.745268	0	1	0	0	CorrectCommission	0.218197	0.740751	1	1
242.944260	0.792480	city	5	1	0.596279	0.596279	0	1	0	0	CorrectCommission	0.911328	0.745117	0	1
243.736511	0.792046	city	9	1	0.748472	0.748472	0	1	0	0	CorrectCommission	0.242492	0.760270	0	1
244.528778	0.792482	city	2	1	0.596854	0.596854	0	1	0	0	CorrectCommission	0.906967	0.786640	0	1
245.321045	0.792049	city	3	1	0.596000	0.596000	0	1	0	0	CorrectCommission	0.913443	0.823962	0	1
246.113205	0.792263	city	5	1	0.596391	0.596391	0	1	0	0	CorrectCommission	0.910478	0.871283	0	0
246.905518	0.792372	city	3	1	0.700403	0.700403	0	1	0	0	CorrectCommission	0.121939	0.926923	0	0
247.697784	0.792163	city	8	1	0.602881	0.602881	0	1	0	0	CorrectCommission	0.861275	0.988494	0	0
248.490005	0.792257	city	1	1	0.546740	0.546740	0	1	0	0	CorrectCommission	1.286898	1.052860	0	0
249.282257	0.792268	city	5	1	0.612679	0.612679	0	1	0	0	CorrectCommission	0.786996	1.116267	0	0
250.074554	0.792312	city	7	1	0.596237	0.596237	0	1	0	0	CorrectCommission	0.911647	1.174561	0	0
250.866837	0.792261	city	3	1	0.547129	0.547129	0	1	0	0	CorrectCommission	1.283945	1.223467	0	0
251.659119	0.792289	city	8	1	0.450204	0.450204	0	1	0	0	CorrectCommission	2.018763	1.258986	0	0
252.451355	0.792200	city	1	1	0.447595	0.447595	0	1	0	0	CorrectCommission	2.038538	1.277850	0	0
253.243591	0.792261	city	2	1	0.498042	0.498042	0	1	0	0	CorrectCommission	1.656087	1.277968	0	0
254.035965	0.792482	city	7	1	0.497559	0.497559	0	1	0	0	CorrectCommission	1.659746	1.258754	0	0
254.828247	0.792103	city	8	1	0.452367	0.452367	0	1	0	0	CorrectCommission	2.002359	1.221299	0	0
255.620514	0.792425	city	2	1	0.457441	0.457441	0	1	0	0	CorrectCommission	1.963892	1.168409	0	0
256.412872	0.792265	city	3	1	0.560985	0.560985	0	1	0	0	CorrectCommission	1.178898	1.104369	0	0
257.205017	0.792048	city	4	1	0.561037	0.561037	0	1	0	0	CorrectCommission	1.178507	1.034552	0	0
257.997223	0.792372	city	9	1	0.762602	0.762602	0	1	0	0	CorrectCommission	0.349611	0.964852	0	0
258.789490	0.792159	city	10	1	0.695155	0.695155	0	1	0	0	CorrectCommission	0.161720	0.901101	0	0
259.581696	0.792264	city	3	1	0.695250	0.695250	0	1	0	0	CorrectCommission	0.161004	0.848483	0	0
260.374023	0.792373	mountain	5	0	0.000000	0.761157	1	0	0	0	CorrectOmission	0.338659	0.811024	0	0
261.166290	0.792154	city	3	1	0.794230	0.794230	0	1	0	0	CorrectCommission	0.589394	0.791318	0	0
261.958496	0.792266	city	2	1	0.695821	0.695821	0	1	0	0	CorrectCommission	0.156670	0.790338	0	0
262.750824	0.792372	city	8	1	0.601758	0.601758	0	1	0	0	CorrectCommission	0.869788	0.807506	0	0
263.543091	0.792156	city	5	1	0.596803	0.596803	0	1	0	0	CorrectCommission	0.907356	0.840819	0	0
264.335297	0.792276	city	4	1	0.646014	0.646014	0	1	0	0	CorrectCommission	0.534271	0.887165	0	0
265.127563	0.792255	city	1	1	0.797970	0.797970	0	1	0	0	CorrectCommission	0.617747	0.942615	0	0
265.919830	0.792279	city	8	1	0.612853	0.612853	0	1	0	0	CorrectCommission	0.785678	1.002782	0	0
266.712097	0.792280	city	5	1	0.546856	0.546856	0	1	0	0	CorrectCommission	1.286017	1.063223	0	0
267.504486	0.792449	city	10	1	0.546712	0.546712	0	1	0	0	CorrectCommission	1.287108	1.119777	0	0
268.296722	0.792049	city	4	1	0.497016	0.497016	0	1	0	0	CorrectCommission	1.663867	1.168923	0	0
269.088989	0.792481	city	3	1	0.497322	0.497322	0	1	0	0	CorrectCommission	1.661548	1.208008	0	0
269.881256	0.792052	city	8	1	0.497007	0.497007	0	1	0	0	CorrectCommission	1.663932	1.235435	0	0
270.673462	0.792369	city	3	1	0.497407	0.497407	0	1	0	0	CorrectCommission	1.660904	1.250746	0	0
271.465729	0.792160	city	1	1	0.546750	0.546750	0	1	0	0	CorrectCommission	1.286816	1.254576	0	0
272.257935	0.792265	city	7	1	0.556341	0.556341	0	1	0	0	CorrectCommission	1.214108	1.248466	0	0
273.050323	0.792479	city	3	1	0.563526	0.563526	0	1	0	0	CorrectCommission	1.159634	1.234651	0	0
273.842621	0.792153	city	8	1	0.507081	0.507081	0	1	0	0	CorrectCommission	1.587560	1.215768	0	0
274.634796	0.792172	city	7	1	0.497404	0.497404	0	1	0	0	CorrectCommission	1.660920	1.194486	0	0
275.427063	0.792358	city	5	1	0.646369	0.646369	0	1	0	0	CorrectCommission	0.531581	1.173235	0	0
276.219360	0.792266	city	3	1	0.596545	0.596545	0	1	0	0	CorrectCommission	0.909314	1.153931	0	0
277.011688	0.792373	city	8	1	0.695168	0.695168	0	1	0	0	CorrectCommission	0.161627	1.137734	0	0
277.803925	0.792097	city	9	1	0.809929	0.809929	0	1	0	0	CorrectCommission	0.708407	1.125040	0	0
278.596130	0.792323	mountain	7	0	0.000000	0.925823	1	0	0	0	CorrectOmission	1.587034	1.115450	0	0
279.388489	0.792375	mountain	10	0	0.000000	0.975878	1	0	0	0	CorrectOmission	1.966510	1.107953	0	0
280.180725	0.792111	city	4	1	0.893118	0.893118	0	1	0	0	CorrectCommission	1.339087	1.101106	0	0
280.972870	0.792202	city	3	1	0.610571	0.610571	0	1	0	0	CorrectCommission	0.802979	1.093277	0	0
281.765106	0.792266	city	5	1	0.596380	0.596380	0	1	0	0	CorrectCommission	0.910560	1.082883	0	0
282.557373	0.792260	city	4	1	0.645799	0.645799	0	1	0	0	CorrectCommission	0.535899	1.068554	0	0
283.349640	0.792291	city	10	1	0.548286	0.548286	0	1	0	0	CorrectCommission	1.275173	1.049336	0	0
284.141907	0.792242	mountain	1	1	0.497157	0.497157	0	0	1	0	CommissionError	1.662795	1.024768	0	0
284.934174	0.792265	city	2	1	0.596689	0.596689	0	1	0	0	CorrectCommission	0.908216	0.994985	0	0
285.726471	0.792327	city	10	1	0.512254	0.512254	0	1	0	0	CorrectCommission	1.548344	0.960711	0	0
286.518738	0.792220	mountain	4	1	0.447971	0.447971	0	0	1	0	CommissionError	2.035690	0.923112	0	0
287.310974	0.792265	city	2	1	0.745423	0.745423	0	1	0	0	CorrectCommission	0.219377	0.883652	0	0
288.103241	0.792240	city	5	1	0.702601	0.702601	0	1	0	0	CorrectCommission	0.105273	0.843900	0	0
288.895508	0.792294	city	4	1	0.656582	0.656582	0	1	0	0	CorrectCommission	0.454153	0.805218	0	0
289.687775	0.792237	mountain	2	0	0.000000	0.742869	1	0	0	0	CorrectOmission	0.200014	0.768577	0	0
290.480042	0.792321	city	2	1	0.844308	0.844308	0	1	0	0	CorrectCommission	0.969045	0.734455	1	0
291.272308	0.792209	city	10	1	0.843742	0.843742	0	1	0	0	CorrectCommission	0.964759	0.702779	1	0
292.064606	0.792374	city	3	1	0.794333	0.794333	0	1	0	0	CorrectCommission	0.590171	0.673088	1	0
292.856873	0.792156	city	8	1	0.843766	0.843766	0	1	0	0	CorrectCommission	0.964941	0.644641	1	0
293.649078	0.792264	city	2	1	0.757352	0.757352	0	1	0	0	CorrectCommission	0.309810	0.616644	1	0
294.441467	0.792483	city	3	1	0.843890	0.843890	0	1	0	0	CorrectCommission	0.965880	0.588470	1	0
295.233734	0.792048	city	2	1	0.814442	0.814442	0	1	0	0	CorrectCommission	0.742621	0.559791	1	0
296.025879	0.792265	city	9	1	0.701643	0.701643	0	1	0	0	CorrectCommission	0.112536	0.530722	1	0
296.818146	0.792299	city	10	1	0.610304	0.610304	0	1	0	0	CorrectCommission	0.805000	0.501840	1	0
297.610535	0.792446	city	5	1	0.794307	0.794307	0	1	0	0	CorrectCommission	0.589977	0.474156	1	0
298.402893	0.792266	city	8	1	0.762682	0.762682	0	1	0	0	CorrectCommission	0.350215	0.449042	1	0
299.195038	0.792048	city	6	1	0.695083	0.695083	0	1	0	0	CorrectCommission	0.162271	0.428065	1	0
299.987305	0.792481	city	8	1	0.744807	0.744807	0	1	0	0	CorrectCommission	0.214702	0.412799	1	0
300.779572	0.792048	city	9	1	0.794466	0.794466	0	1	0	0	CorrectCommission	0.591183	0.404610	1	0
301.571747	0.792270	city	10	1	0.745450	0.745450	0	1	0	0	CorrectCommission	0.219577	0.404472	1	0
302.364105	0.792476	mountain	5	0	0.000000	0.712202	1	0	0	0	CorrectOmission	0.032481	0.412852	1	0
303.156372	0.792049	city	3	1	0.695411	0.695411	0	1	0	0	CorrectCommission	0.159778	0.429546	1	0
303.948517	0.792265	city	1	1	0.695765	0.695765	0	1	0	0	CorrectCommission	0.157099	0.453658	1	0
304.740784	0.792264	city	7	1	0.751680	0.751680	0	1	0	0	CorrectCommission	0.266813	0.483677	1	0
305.533173	0.792480	city	6	1	0.763313	0.763313	0	1	0	0	CorrectCommission	0.355003	0.517584	1	1
306.325470	0.792157	city	1	1	0.695825	0.695825	0	1	0	0	CorrectCommission	0.156640	0.553053	1	1
307.117645	0.792158	city	6	1	0.992236	0.992236	0	1	0	0	CorrectCommission	2.090528	0.587695	1	1
307.909851	0.792265	city	8	1	0.695339	0.695339	0	1	0	0	CorrectCommission	0.160329	0.619229	1	1
308.702209	0.792480	city	3	1	0.546961	0.546961	0	1	0	0	CorrectCommission	1.285217	0.645838	1	1
309.494598	0.792262	mountain	1	1	0.657291	0.657291	0	0	1	0	CommissionError	0.448779	0.666166	1	1
310.286865	0.792266	city	2	1	0.596010	0.596010	0	1	0	0	CorrectCommission	0.913362	0.679494	1	1
311.079010	0.792046	city	7	1	0.596152	0.596152	0	1	0	0	CorrectCommission	0.912288	0.685705	1	1
311.871216	0.792372	mountain	10	1	0.709539	0.709539	0	0	1	0	CommissionError	0.052676	0.685282	1	1
312.663483	0.792160	city	10	1	0.596132	0.596132	0	1	0	0	CorrectCommission	0.912442	0.679189	1	1
313.455688	0.792260	city	1	1	0.846997	0.846997	0	1	0	0	CorrectCommission	0.989431	0.668752	1	1
314.248077	0.792484	city	7	1	0.893378	0.893378	0	1	0	0	CorrectCommission	1.341061	0.655542	1	1
315.040436	0.792264	city	4	1	0.794091	0.794091	0	1	0	0	CorrectCommission	0.588341	0.641215	1	1
315.832611	0.792050	city	2	1	0.695065	0.695065	0	1	0	0	CorrectCommission	0.162402	0.627364	1	1
316.624756	0.792265	city	1	1	0.700159	0.700159	0	1	0	0	CorrectCommission	0.123785	0.615352	1	1
317.417023	0.792260	city	8	1	0.606772	0.606772	0	1	0	0	CorrectCommission	0.831779	0.606179	1	1
318.209290	0.792267	city	4	1	0.744825	0.744825	0	1	0	0	CorrectCommission	0.214837	0.600385	1	1
319.001556	0.792266	city	8	1	0.794301	0.794301	0	1	0	0	CorrectCommission	0.589930	0.598086	1	1
319.793823	0.792263	city	9	1	0.745648	0.745648	0	1	0	0	CorrectCommission	0.221076	0.598978	1	1
320.586090	0.792267	city	7	1	0.650749	0.650749	0	1	0	0	CorrectCommission	0.498372	0.602514	1	1
321.378357	0.792263	city	2	1	0.546996	0.546996	0	1	0	0	CorrectCommission	1.284955	0.608045	1	1
322.170624	0.792269	city	8	1	0.596313	0.596313	0	1	0	0	CorrectCommission	0.911072	0.614965	1	1
322.962891	0.792262	mountain	3	0	0.000000	0.759613	1	0	0	0	CorrectOmission	0.326950	0.622892	1	1
323.755249	0.792480	city	9	1	0.844190	0.844190	0	1	0	0	CorrectCommission	0.968155	0.631728	1	1
324.547516	0.792050	city	8	1	0.657340	0.657340	0	1	0	0	CorrectCommission	0.448410	0.641569	1	1
325.339783	0.792479	city	1	1	0.699924	0.699924	0	1	0	0	CorrectCommission	0.125569	0.652770	1	1
326.132080	0.792100	city	8	1	0.744561	0.744561	0	1	0	0	CorrectCommission	0.212839	0.665754	1	1
326.924225	0.792213	city	2	1	0.992322	0.992322	0	1	0	0	CorrectCommission	2.091181	0.680866	1	1
327.716492	0.792299	city	7	1	0.756571	0.756571	0	1	0	0	CorrectCommission	0.303887	0.698219	1	1
328.508789	0.792301	city	9	1	0.744927	0.744927	0	1	0	0	CorrectCommission	0.215614	0.717672	1	1
329.301086	0.792302	city	7	1	0.794229	0.794229	0	1	0	0	CorrectCommission	0.589388	0.738690	1	1
330.093323	0.792185	city	4	1	0.794276	0.794276	0	1	0	0	CorrectCommission	0.589743	0.760340	0	1
330.885529	0.792235	city	3	1	0.745687	0.745687	0	1	0	0	CorrectCommission	0.221377	0.781426	0	1
331.677795	0.792266	city	4	1	0.843826	0.843826	0	1	0	0	CorrectCommission	0.965395	0.800611	0	1
332.470062	0.792266	city	10	1	0.902968	0.902968	0	1	0	0	CorrectCommission	1.413767	0.816592	0	1
333.262329	0.792263	city	7	1	0.943381	0.943381	0	1	0	0	CorrectCommission	1.720143	0.828313	0	1
334.054596	0.792266	city	6	1	0.903257	0.903257	0	1	0	0	CorrectCommission	1.415951	0.835077	0	1
334.846893	0.792374	city	10	1	0.746228	0.746228	0	1	0	0	CorrectCommission	0.225479	0.836620	0	1
335.639160	0.792154	city	9	1	0.646094	0.646094	0	1	0	0	CorrectCommission	0.533664	0.833124	0	1
336.431366	0.792266	city	10	1	0.559348	0.559348	0	1	0	0	CorrectCommission	1.191308	0.825076	0	1
337.223755	0.792481	city	5	1	0.745742	0.745742	0	1	0	0	CorrectCommission	0.221791	0.813185	0	1
338.016022	0.792080	city	7	1	0.843859	0.843859	0	1	0	0	CorrectCommission	0.965643	0.798331	0	1
338.808228	0.792285	city	6	1	0.853433	0.853433	0	1	0	0	CorrectCommission	1.038222	0.781374	0	1
339.600464	0.792243	city	10	1	0.646300	0.646300	0	1	0	0	CorrectCommission	0.532108	0.763206	0	1
340.392731	0.792260	mountain	9	0	0.000000	0.804458	1	0	0	0	CorrectOmission	0.666935	0.744718	0	1
341.184967	0.792239	city	4	1	0.947687	0.947687	0	1	0	0	CorrectCommission	1.752788	0.726763	1	1
341.977234	0.792270	city	3	1	0.695763	0.695763	0	1	0	0	CorrectCommission	0.157110	0.710179	1	1
342.769562	0.792368	city	5	1	0.794367	0.794367	0	1	0	0	CorrectCommission	0.590433	0.695771	1	1
343.561829	0.792156	city	10	1	0.804033	0.804033	0	1	0	0	CorrectCommission	0.663710	0.684213	1	1
344.354034	0.792263	city	2	1	0.794327	0.794327	0	1	0	0	CorrectCommission	0.590124	0.676016	1	1
345.146301	0.792294	city	3	1	0.695331	0.695331	0	1	0	0	CorrectCommission	0.160384	0.671521	1	1
345.938568	0.792267	city	4	1	0.645752	0.645752	0	1	0	0	CorrectCommission	0.536256	0.670891	1	1
346.730865	0.792274	city	8	1	0.646294	0.646294	0	1	0	0	CorrectCommission	0.532153	0.674093	1	1
347.523163	0.792334	city	1	1	0.646286	0.646286	0	1	0	0	CorrectCommission	0.532207	0.680993	1	1
348.315399	0.792171	city	6	1	0.898249	0.898249	0	1	0	0	CorrectCommission	1.377990	0.691399	1	1
349.107635	0.792253	city	9	1	0.809088	0.809088	0	1	0	0	CorrectCommission	0.702038	0.705061	1	1
349.899933	0.792371	city	1	1	0.843919	0.843919	0	1	0	0	CorrectCommission	0.966099	0.721713	1	1
350.692230	0.792220	city	6	1	0.808810	0.808810	0	1	0	0	CorrectCommission	0.699923	0.740965	1	1
351.484436	0.792202	city	7	1	0.794274	0.794274	0	1	0	0	CorrectCommission	0.589725	0.762242	0	1
352.276733	0.792372	city	9	1	0.695656	0.695656	0	1	0	0	CorrectCommission	0.157920	0.784705	0	1
353.069000	0.792156	city	1	1	0.602419	0.602419	0	1	0	0	CorrectCommission	0.864777	0.807203	0	1
353.861206	0.792268	city	6	1	0.745478	0.745478	0	1	0	0	CorrectCommission	0.219787	0.828286	0	1
354.653473	0.792263	city	3	1	0.608509	0.608509	0	1	0	0	CorrectCommission	0.818605	0.846485	0	1
355.445740	0.792268	city	7	1	0.596695	0.596695	0	1	0	0	CorrectCommission	0.908175	0.860516	0	1
356.238007	0.792260	mountain	2	0	0.000000	0.883782	1	0	0	0	CorrectOmission	1.268311	0.869646	0	1
357.030273	0.792283	city	7	1	1.092033	1.092033	0	1	0	0	CorrectCommission	2.847115	0.873928	0	1
357.822601	0.792355	city	10	1	0.843708	0.843708	0	1	0	0	CorrectCommission	0.964496	0.874326	0	1
358.614868	0.792187	city	8	1	0.794271	0.794271	0	1	0	0	CorrectCommission	0.589704	0.872766	0	1
359.407135	0.792343	city	9	1	0.843937	0.843937	0	1	0	0	CorrectCommission	0.966237	0.871817	0	1
360.199371	0.792157	city	6	1	0.744820	0.744820	0	1	0	0	CorrectCommission	0.214801	0.874281	0	1
360.991608	0.792287	city	9	1	0.646011	0.646011	0	1	0	0	CorrectCommission	0.534298	0.882723	0	1
361.783905	0.792350	city	2	1	0.695551	0.695551	0	1	0	0	CorrectCommission	0.158718	0.898928	0	1
362.576263	0.792374	city	9	1	0.645627	0.645627	0	1	0	0	CorrectCommission	0.537205	0.923580	0	1
363.368530	0.792156	city	4	1	0.646096	0.646096	0	1	0	0	CorrectCommission	0.533653	0.956040	0	1
364.160706	0.792195	city	8	1	0.645677	0.645677	0	1	0	0	CorrectCommission	0.536830	0.994439	0	1
364.953033	0.792444	city	4	1	0.596181	0.596181	0	1	0	0	CorrectCommission	0.912070	1.035919	0	0
365.745392	0.792265	city	6	1	0.510465	0.510465	0	1	0	0	CorrectCommission	1.561907	1.077065	0	0
366.537659	0.792264	city	2	1	0.448297	0.448297	0	1	0	0	CorrectCommission	2.033218	1.114431	0	0
367.329834	0.792089	city	9	1	0.397976	0.397976	0	1	0	0	CorrectCommission	2.414716	1.144990	0	0
368.121979	0.792227	mountain	4	1	0.459779	0.459779	0	0	1	0	CommissionError	1.946168	1.166480	0	0
368.914276	0.792323	mountain	8	1	0.744810	0.744810	0	0	1	0	CommissionError	0.214727	1.177588	0	0
369.706543	0.792205	city	2	0	0.000000	0.718006	0	0	0	1	OmissionError	0.011515	1.177999	0	0
370.498871	0.792480	city	9	1	0.546767	0.546767	0	1	0	0	CorrectCommission	1.286688	1.168186	0	0
371.291138	0.792046	city	4	1	0.398497	0.398497	0	1	0	0	CorrectCommission	2.410762	1.149243	0	0
372.083405	0.792484	city	8	1	0.497215	0.497215	0	1	0	0	CorrectCommission	1.662357	1.122717	0	0
372.875702	0.792096	city	6	1	0.649672	0.649672	0	1	0	0	CorrectCommission	0.506541	1.090355	0	0
373.667908	0.792324	city	5	1	0.547118	0.547118	0	1	0	0	CorrectCommission	1.284029	1.053983	0	0
374.460144	0.792167	city	6	1	0.597758	0.597758	0	1	0	0	CorrectCommission	0.900113	1.015299	0	0
375.252350	0.792258	city	5	1	0.596341	0.596341	0	1	0	0	CorrectCommission	0.910856	0.975924	0	0
376.044617	0.792266	city	3	1	0.596242	0.596242	0	1	0	0	CorrectCommission	0.911605	0.937312	0	0
376.836884	0.792268	city	2	1	0.695265	0.695265	0	1	0	0	CorrectCommission	0.160888	0.900825	0	0
377.629150	0.792271	city	9	1	0.645758	0.645758	0	1	0	0	CorrectCommission	0.536213	0.867813	0	0
378.421417	0.792251	city	10	1	0.548731	0.548731	0	1	0	0	CorrectCommission	1.271801	0.839655	0	0
379.213715	0.792335	city	6	1	0.992692	0.992692	0	1	0	0	CorrectCommission	2.093985	0.817831	0	0
380.005981	0.792218	city	9	1	0.794364	0.794364	0	1	0	0	CorrectCommission	0.590408	0.803843	0	0
380.798218	0.792242	mountain	4	0	0.000000	0.728431	1	0	0	0	CorrectOmission	0.090556	0.799137	0	0
381.590576	0.792481	city	2	1	0.745213	0.745213	0	1	0	0	CorrectCommission	0.217779	0.804840	0	0
382.382874	0.792099	mountain	1	0	0.000000	0.795027	1	0	0	0	CorrectOmission	0.595431	0.821522	0	0
383.175018	0.792226	city	9	1	0.795040	0.795040	0	1	0	0	CorrectCommission	0.595531	0.848944	0	0
383.967255	0.792251	city	4	1	0.662419	0.662419	0	1	0	0	CorrectCommission	0.409900	0.885959	0	0
384.759521	0.792263	city	8	1	0.596223	0.596223	0	1	0	0	CorrectCommission	0.911754	0.930420	0	0
385.551788	0.792267	city	3	1	0.794777	0.794777	0	1	0	0	CorrectCommission	0.593536	0.979327	0	0
386.344055	0.792264	city	1	1	0.695309	0.695309	0	1	0	0	CorrectCommission	0.160554	1.029183	0	0
387.136322	0.792263	city	9	1	1.091540	1.091540	0	1	0	0	CorrectCommission	2.843381	1.076393	0	0
387.928680	0.792484	city	10	1	0.647202	0.647202	0	1	0	0	CorrectCommission	0.525266	1.117622	0	0
388.720947	0.792046	city	8	1	0.496933	0.496933	0	1	0	0	CorrectCommission	1.664492	1.150387	0	0
389.513123	0.792312	city	1	1	0.399295	0.399295	0	1	0	0	CorrectCommission	2.404716	1.173271	0	0
390.305389	0.792221	city	3	1	0.398125	0.398125	0	1	0	0	CorrectCommission	2.413582	1.186061	0	0
391.097656	0.792317	mountain	2	0	0.000000	0.641710	1	0	0	0	CorrectOmission	0.566905	1.189686	0	0
391.890045	0.792428	city	6	1	0.851102	0.851102	0	1	0	0	CorrectCommission	1.020550	1.185965	0	0
392.682404	0.792264	city	4	1	0.747355	0.747355	0	1	0	0	CorrectCommission	0.234019	1.177157	0	0
393.474548	0.792047	city	3	1	0.804349	0.804349	0	1	0	0	CorrectCommission	0.666104	1.165574	0	0
394.266754	0.792372	city	4	1	0.992401	0.992401	0	1	0	0	CorrectCommission	2.091781	1.153151	0	0
395.059082	0.792266	city	1	1	0.898235	0.898235	0	1	0	0	CorrectCommission	1.377882	1.141161	0	0
395.851288	0.792157	mountain	4	0	0.000000	0.751947	1	0	0	0	CorrectOmission	0.268837	1.130125	0	0
396.643494	0.792265	city	2	1	0.701130	0.701130	0	1	0	0	CorrectCommission	0.116426	1.119821	0	0
397.435760	0.792267	city	9	1	0.893373	0.893373	0	1	0	0	CorrectCommission	1.341019	1.109477	0	0
398.228149	0.792479	city	2	1	0.893336	0.893336	0	1	0	0	CorrectCommission	1.340738	1.097989	0	0
399.020447	0.792156	city	8	1	1.141279	1.141279	0	1	0	0	CorrectCommission	3.220460	1.084246	0	0
399.812622	0.792165	city	1	1	0.907474	0.907474	0	1	0	0	CorrectCommission	1.447928	1.067267	0	0
400.604919	0.792473	city	10	1	0.711890	0.711890	0	1	0	0	CorrectCommission	0.034847	1.046457	0	0
401.397247	0.792154	city	6	1	0.744574	0.744574	0	1	0	0	CorrectCommission	0.212938	1.021591	0	0
402.189392	0.792157	city	7	1	0.893373	0.893373	0	1	0	0	CorrectCommission	1.341024	0.992755	0	0
402.981598	0.792264	city	6	1	0.799429	0.799429	0	1	0	0	CorrectCommission	0.628809	0.960304	0	0
403.773865	0.792267	city	4	1	0.751586	0.751586	0	1	0	0	CorrectCommission	0.266093	0.924865	0	0
404.566162	0.792325	city	10	1	1.054382	1.054382	0	1	0	0	CorrectCommission	2.561675	0.887171	0	0
405.358551	0.792421	city	4	1	0.844187	0.844187	0	1	0	0	CorrectCommission	0.968127	0.848101	0	0
406.150787	0.792046	city	7	1	0.857559	0.857559	0	1	0	0	CorrectCommission	1.069509	0.808649	0	0
406.942932	0.792270	mountain	6	1	0.696756	0.696756	0	0	1	0	CommissionError	0.149586	0.769837	0	0
407.735321	0.792479	city	4	1	0.646445	0.646445	0	1	0	0	CorrectCommission	0.531004	0.732642	1	0
408.527588	0.792049	city	3	1	0.645979	0.645979	0	1	0	0	CorrectCommission	0.534536	0.697919	1	0
409.319733	0.792266	city	2	1	0.661408	0.661408	0	1	0	0	CorrectCommission	0.417570	0.666323	1	0
410.112000	0.792261	city	9	1	0.596600	0.596600	0	1	0	0	CorrectCommission	0.908894	0.638335	1	0
410.904358	0.792483	city	4	1	0.700204	0.700204	0	1	0	0	CorrectCommission	0.123444	0.614191	1	0
411.696625	0.792048	city	5	1	0.695385	0.695385	0	1	0	0	CorrectCommission	0.159980	0.594023	1	0
412.488800	0.792262	city	4	1	0.607767	0.607767	0	1	0	0	CorrectCommission	0.824237	0.577947	1	0
413.281097	0.792375	city	2	1	0.596375	0.596375	0	1	0	0	CorrectCommission	0.910598	0.566137	1	0
414.073364	0.792156	city	10	1	0.546658	0.546658	0	1	0	0	CorrectCommission	1.287520	0.558885	1	0
414.865570	0.792268	mountain	4	0	0.000000	0.643803	1	0	0	0	CorrectOmission	0.551031	0.556536	1	0
415.657867	0.792266	city	10	1	0.744969	0.744969	0	1	0	0	CorrectCommission	0.215932	0.559402	1	0
416.450104	0.792260	mountain	6	1	0.707311	0.707311	0	0	1	0	CommissionError	0.069566	0.567538	1	0
417.242371	0.792264	city	2	1	0.747559	0.747559	0	1	0	0	CorrectCommission	0.235569	0.580590	1	0
418.034637	0.792284	city	1	1	0.707373	0.707373	0	1	0	0	CorrectCommission	0.069095	0.597649	1	0
418.826904	0.792249	city	10	1	0.745072	0.745072	0	1	0	0	CorrectCommission	0.216711	0.617221	1	0
419.619232	0.792370	city	5	1	0.708728	0.708728	0	1	0	0	CorrectCommission	0.058824	0.637293	1	0
420.411499	0.792157	city	6	1	0.992232	0.992232	0	1	0	0	CorrectCommission	2.090494	0.655610	1	0
421.203705	0.792269	city	8	1	0.645736	0.645736	0	1	0	0	CorrectCommission	0.536377	0.669947	1	0
421.996033	0.792369	city	9	1	0.993154	0.993154	0	1	0	0	CorrectCommission	2.097486	0.678473	1	0
422.788391	0.792373	city	3	1	0.808340	0.808340	0	1	0	0	CorrectCommission	0.696365	0.679969	1	0
423.580597	0.792052	mountain	1	0	0.000000	0.704615	1	0	0	0	CorrectOmission	0.090005	0.674107	1	0
424.372772	0.792259	city	8	1	0.745120	0.745120	0	1	0	0	CorrectCommission	0.217075	0.661435	1	1
425.165070	0.792345	city	9	1	0.992998	0.992998	0	1	0	0	CorrectCommission	2.096305	0.643330	1	1
425.957336	0.792185	city	7	1	0.695310	0.695310	0	1	0	0	CorrectCommission	0.160549	0.621800	1	1
426.749664	0.792484	city	6	1	0.695435	0.695435	0	1	0	0	CorrectCommission	0.159598	0.599381	1	1
427.541931	0.792050	city	2	1	0.596133	0.596133	0	1	0	0	CorrectCommission	0.912431	0.578799	1	1
428.334076	0.792259	city	3	1	0.695569	0.695569	0	1	0	0	CorrectCommission	0.158579	0.562802	1	1
429.126343	0.792268	city	1	1	0.710620	0.710620	0	1	0	0	CorrectCommission	0.044481	0.554002	1	1
429.918732	0.792480	city	6	1	0.794820	0.794820	0	1	0	0	CorrectCommission	0.593864	0.554656	1	1
430.710999	0.792088	city	2	1	0.695537	0.695537	0	1	0	0	CorrectCommission	0.158826	0.566542	1	1
431.503174	0.792240	city	7	1	0.844133	0.844133	0	1	0	0	CorrectCommission	0.967720	0.590849	1	1
432.295410	0.792252	city	3	1	0.802250	0.802250	0	1	0	0	CorrectCommission	0.650196	0.628011	1	1
433.087677	0.792261	city	6	1	0.744904	0.744904	0	1	0	0	CorrectCommission	0.215436	0.677621	1	1
433.879944	0.792267	city	5	1	0.748579	0.748579	0	1	0	0	CorrectCommission	0.243300	0.738291	1	1
434.672211	0.792289	city	4	1	0.744788	0.744788	0	1	0	0	CorrectCommission	0.214561	0.807571	0	1
435.464539	0.792346	city	6	1	0.794270	0.794270	0	1	0	0	CorrectCommission	0.589693	0.881978	0	1
436.256805	0.792174	city	3	1	0.893368	0.893368	0	1	0	0	CorrectCommission	1.340981	0.957136	0	1
437.049072	0.792357	city	9	1	0.844129	0.844129	0	1	0	0	CorrectCommission	0.967686	1.028064	0	1
437.841370	0.792263	city	5	1	0.794512	0.794512	0	1	0	0	CorrectCommission	0.591530	1.089592	0	1
438.633575	0.792159	city	3	1	0.943202	0.943202	0	1	0	0	CorrectCommission	1.718789	1.136931	0	1
439.425781	0.792265	city	1	1	0.943399	0.943399	0	1	0	0	CorrectCommission	1.720284	1.166104	0	1
440.218048	0.792263	city	3	1	1.140951	1.140951	0	1	0	0	CorrectCommission	3.217977	1.174532	0	1
441.010437	0.792482	mountain	3	0	0.000000	1.033452	1	0	0	0	CorrectOmission	2.402995	1.161286	0	1
441.802734	0.792115	city	7	1	0.843635	0.843635	0	1	0	0	CorrectCommission	0.963948	1.127263	0	1
442.594879	0.792203	city	6	1	0.794237	0.794237	0	1	0	0	CorrectCommission	0.589443	1.075028	0	1
443.387115	0.792273	city	5	1	0.605389	0.605389	0	1	0	0	CorrectCommission	0.842265	1.008548	0	1
444.179382	0.792250	city	9	1	0.562346	0.562346	0	1	0	0	CorrectCommission	1.168583	0.932735	0	1
444.971710	0.792373	city	1	1	0.601097	0.601097	0	1	0	0	CorrectCommission	0.874804	0.852955	0	1
445.763977	0.792197	city	10	1	0.645628	0.645628	0	1	0	0	CorrectCommission	0.537202	0.774609	0	1
446.556183	0.792224	mountain	1	0	0.000000	0.666933	1	0	0	0	CorrectOmission	0.375677	0.702707	1	1
447.348450	0.792268	city	1	1	0.695826	0.695826	0	1	0	0	CorrectCommission	0.156634	0.641557	1	1
448.140717	0.792267	city	5	1	0.763118	0.763118	0	1	0	0	CorrectCommission	0.353522	0.594618	1	1
448.933075	0.792477	city	10	1	0.762839	0.762839	0	1	0	0	CorrectCommission	0.351410	0.564375	1	1
449.725433	0.792265	city	6	1	0.762587	0.762587	0	1	0	0	CorrectCommission	0.349494	0.552285	1	1
450.517609	0.792068	city	1	1	0.710566	0.710566	0	1	0	0	CorrectCommission	0.044890	0.558777	1	1
451.309784	0.792255	city	7	1	0.645786	0.645786	0	1	0	0	CorrectCommission	0.536003	0.583275	1	1
452.102142	0.792472	city	9	1	0.745729	0.745729	0	1	0	0	CorrectCommission	0.221695	0.624197	1	1
452.894409	0.792050	city	2	1	0.661942	0.661942	0	1	0	0	CorrectCommission	0.413516	0.679017	1	1
453.686615	0.792369	city	7	1	0.605941	0.605941	0	1	0	0	CorrectCommission	0.838080	0.744355	1	1
454.478882	0.792159	city	9	1	0.695141	0.695141	0	1	0	0	CorrectCommission	0.161825	0.816130	0	1
455.271179	0.792479	city	4	1	0.794439	0.794439	0	1	0	0	CorrectCommission	0.590979	0.889851	0	1
456.063446	0.792051	city	2	1	0.893309	0.893309	0	1	0	0	CorrectCommission	1.340538	0.960908	0	1
456.855621	0.792288	city	5	1	0.853361	0.853361	0	1	0	0	CorrectCommission	1.037677	1.025051	0	1
457.647888	0.792242	mountain	2	0	0.000000	0.918362	1	0	0	0	CorrectOmission	1.530471	1.078775	0	1
458.440155	0.792259	city	7	1	0.992493	0.992493	0	1	0	0	CorrectCommission	2.092480	1.119775	0	1
459.232391	0.792265	mountain	5	0	0.000000	0.979934	1	0	0	0	CorrectOmission	1.997260	1.147154	0	1
460.024658	0.792265	city	1	1	0.942834	0.942834	0	1	0	0	CorrectCommission	1.715998	1.161520	0	1
460.816925	0.792268	city	5	1	0.943346	0.943346	0	1	0	0	CorrectCommission	1.719876	1.164823	0	1
461.609192	0.792263	city	3	1	0.844186	0.844186	0	1	0	0	CorrectCommission	0.968124	1.159990	0	1
462.401520	0.792371	city	8	1	0.695269	0.695269	0	1	0	0	CorrectCommission	0.160858	1.150445	0	1
463.193848	0.792266	city	1	1	0.660212	0.660212	0	1	0	0	CorrectCommission	0.426633	1.139582	0	1
463.986053	0.792158	city	5	1	0.942752	0.942752	0	1	0	0	CorrectCommission	1.715375	1.130221	0	1
464.778259	0.792267	city	10	1	0.794325	0.794325	0	1	0	0	CorrectCommission	0.590112	1.124297	0	1
465.570648	0.792478	city	2	1	0.745236	0.745236	0	1	0	0	CorrectCommission	0.217958	1.122804	0	1
466.362946	0.792119	mountain	8	0	0.000000	0.844075	1	0	0	0	CorrectOmission	0.967282	1.125854	0	1
467.155151	0.792303	city	7	1	0.942767	0.942767	0	1	0	0	CorrectCommission	1.715491	1.132889	0	1
467.947418	0.792264	city	6	1	0.893238	0.893238	0	1	0	0	CorrectCommission	1.339994	1.143058	0	1
468.739624	0.792157	city	9	1	0.996308	0.996308	0	1	0	0	CorrectCommission	2.121400	1.155533	0	1
469.531860	0.792263	city	6	1	0.893487	0.893487	0	1	0	0	CorrectCommission	1.341887	1.169694	0	1
470.324158	0.792374	city	2	1	0.808830	0.808830	0	1	0	0	CorrectCommission	0.700079	1.185235	0	1
471.116455	0.792214	city	7	1	0.808922	0.808922	0	1	0	0	CorrectCommission	0.700774	1.202022	0	1
471.908661	0.792212	city	9	1	0.992422	0.992422	0	1	0	0	CorrectCommission	2.091935	1.219896	0	1
472.700928	0.792267	city	1	0	0.000000	0.717703	0	0	0	1	OmissionError	0.009224	1.238381	0	1
473.493164	0.792261	city	9	1	0.447811	0.447811	0	1	0	0	CorrectCommission	2.036900	1.256556	0	1
474.285431	0.792266	city	10	1	0.645790	0.645790	0	1	0	0	CorrectCommission	0.535973	1.272878	0	1
475.077820	0.792483	city	3	1	0.744799	0.744799	0	1	0	0	CorrectCommission	0.214640	1.285478	0	1
475.870178	0.792258	city	2	1	0.855505	0.855505	0	1	0	0	CorrectCommission	1.053931	1.292453	0	1
476.662384	0.792112	city	6	1	1.006274	1.006274	0	1	0	0	CorrectCommission	2.196951	1.292436	0	1
477.454529	0.792202	city	10	1	1.007215	1.007215	0	1	0	0	CorrectCommission	2.204089	1.285205	0	1
478.246857	0.792479	city	1	1	1.190837	1.190837	0	1	0	0	CorrectCommission	3.596172	1.272251	0	1
479.039246	0.792266	city	3	0	0.000000	0.940950	0	0	0	1	OmissionError	1.701716	1.256983	0	1
479.831421	0.792101	city	8	1	0.646242	0.646242	0	1	0	0	CorrectCommission	0.532541	1.244744	0	1
480.623566	0.792209	city	2	1	0.695400	0.695400	0	1	0	0	CorrectCommission	0.159862	1.242247	0	1
481.415833	0.792321	city	7	1	0.893896	0.893896	0	1	0	0	CorrectCommission	1.344983	1.256792	0	1
482.208160	0.792318	city	2	1	0.794689	0.794689	0	1	0	0	CorrectCommission	0.592874	1.295205	0	1
483.000397	0.792156	mountain	4	0	0.000000	0.763911	1	0	0	0	CorrectOmission	0.359537	1.362805	0	1
483.792725	0.792484	city	5	1	0.748423	0.748423	0	1	0	0	CorrectCommission	0.242117	1.462360	0	1
484.584991	0.792049	city	1	1	0.695087	0.695087	0	1	0	0	CorrectCommission	0.162240	1.593407	0	1
485.377136	0.792261	city	7	1	0.794280	0.794280	0	1	0	0	CorrectCommission	0.589769	1.752021	0	1
486.169464	0.792372	city	1	1	0.843801	0.843801	0	1	0	0	CorrectCommission	0.965200	1.931103	0	1
486.961731	0.792160	city	5	1	0.996265	0.996265	0	1	0	0	CorrectCommission	2.121072	2.121072	0	1
