onset	duration	trial_type	image_type	Press	ReactionTime	ReactionTime_Interpolated	CorrectOmission	CorrectCommission	CommissionError	OmissionError	response_type	nonsmoothVarianceTimeCourse	VarianceTimeCourse	In_the_Zone	Reward_trial
8.433869	0.792156	city	5	1	0.800521	0.800521	0	1	0	0	CorrectCommission	1.004618	1.004618	0	1
9.226110	0.792326	city	9	1	0.601126	0.601126	0	1	0	0	CorrectCommission	1.184993	0.943581	0	1
10.018373	0.792202	city	2	1	0.546722	0.546722	0	1	0	0	CorrectCommission	1.782423	0.882165	0	1
10.810662	0.792375	city	5	1	0.645743	0.645743	0	1	0	0	CorrectCommission	0.695041	0.820287	0	1
11.602935	0.792171	city	7	1	0.645983	0.645983	0	1	0	0	CorrectCommission	0.692408	0.758464	0	1
12.395144	0.792249	mountain	8	0	0.000000	0.769958	1	0	0	0	CorrectOmission	0.669002	0.697904	1	1
13.187409	0.792281	mountain	10	1	0.844277	0.844277	0	0	1	0	CommissionError	1.485117	0.640417	1	1
13.979676	0.792254	city	1	1	0.695547	0.695547	0	1	0	0	CorrectCommission	0.148136	0.588320	1	1
14.772042	0.792478	city	3	1	0.705104	0.705104	0	1	0	0	CorrectCommission	0.043188	0.544107	1	1
15.564306	0.792049	city	6	1	0.695359	0.695359	0	1	0	0	CorrectCommission	0.150193	0.510045	1	1
16.356462	0.792263	mountain	6	0	0.000000	0.703871	1	0	0	0	CorrectOmission	0.056721	0.487870	1	1
17.148726	0.792266	city	2	1	0.712224	0.712224	0	1	0	0	CorrectCommission	0.035003	0.478478	1	1
17.940990	0.792263	city	3	1	0.702003	0.702003	0	1	0	0	CorrectCommission	0.077241	0.481770	1	1
18.733364	0.792483	city	7	1	0.695313	0.695313	0	1	0	0	CorrectCommission	0.150698	0.496649	1	1
19.525631	0.792050	city	10	1	0.695149	0.695149	0	1	0	0	CorrectCommission	0.152497	0.521147	1	1
20.317795	0.792280	city	9	1	0.597184	0.597184	0	1	0	0	CorrectCommission	1.228282	0.552684	1	1
21.110058	0.792245	city	5	1	0.708867	0.708867	0	1	0	0	CorrectCommission	0.001858	0.588367	1	1
21.902313	0.792267	city	1	1	0.546845	0.546845	0	1	0	0	CorrectCommission	1.781074	0.625352	1	1
22.694580	0.792268	mountain	9	0	0.000000	0.618811	1	0	0	0	CorrectOmission	0.990792	0.661018	1	1
23.486847	0.792265	city	4	1	0.744781	0.744781	0	1	0	0	CorrectCommission	0.392520	0.693251	1	1
24.279112	0.792265	city	7	1	0.744770	0.744770	0	1	0	0	CorrectCommission	0.392400	0.720512	1	1
25.071407	0.792328	city	5	1	0.602927	0.602927	0	1	0	0	CorrectCommission	1.165217	0.741807	1	1
25.863779	0.792416	city	4	1	0.646023	0.646023	0	1	0	0	CorrectCommission	0.691969	0.756693	0	1
26.656120	0.792265	city	7	1	0.645961	0.645961	0	1	0	0	CorrectCommission	0.692651	0.765265	0	1
27.448290	0.792073	city	1	1	0.596060	0.596060	0	1	0	0	CorrectCommission	1.240629	0.768042	0	1
28.240553	0.792454	city	2	1	0.707167	0.707167	0	1	0	0	CorrectCommission	0.020534	0.765948	0	1
29.032913	0.792266	city	8	1	0.546860	0.546860	0	1	0	0	CorrectCommission	1.780906	0.760288	0	1
29.825071	0.792052	mountain	4	0	0.000000	0.613652	1	0	0	0	CorrectOmission	1.047444	0.752581	1	1
30.617228	0.792261	city	8	1	0.699515	0.699515	0	1	0	0	CorrectCommission	0.104562	0.744500	1	1
31.409544	0.792371	city	4	1	0.596419	0.596419	0	1	0	0	CorrectCommission	1.236679	0.737709	1	1
32.201847	0.792232	city	10	1	0.646111	0.646111	0	1	0	0	CorrectCommission	0.691007	0.733574	1	1
32.994110	0.792298	city	1	1	0.744704	0.744704	0	1	0	0	CorrectCommission	0.391673	0.733002	1	1
33.786339	0.792155	city	10	1	0.695223	0.695223	0	1	0	0	CorrectCommission	0.151684	0.736241	1	1
34.578548	0.792265	city	3	1	0.695300	0.695300	0	1	0	0	CorrectCommission	0.150849	0.742786	1	1
35.370838	0.792316	city	5	1	0.646230	0.646230	0	1	0	0	CorrectCommission	0.689695	0.751437	1	1
36.163105	0.792219	city	6	1	0.745262	0.745262	0	1	0	0	CorrectCommission	0.397803	0.760442	0	1
36.955345	0.792260	city	7	1	0.607396	0.607396	0	1	0	0	CorrectCommission	1.116138	0.767827	0	1
37.747639	0.792325	city	5	1	0.562275	0.562275	0	1	0	0	CorrectCommission	1.611631	0.771716	0	1
38.539906	0.792208	city	1	1	0.562041	0.562041	0	1	0	0	CorrectCommission	1.614196	0.770753	0	1
39.332138	0.792260	city	9	1	0.596229	0.596229	0	1	0	0	CorrectCommission	1.238773	0.764288	0	1
40.124401	0.792266	city	1	1	0.695280	0.695280	0	1	0	0	CorrectCommission	0.151068	0.752576	1	1
40.916721	0.792373	city	6	1	0.646445	0.646445	0	1	0	0	CorrectCommission	0.687329	0.736718	1	1
41.708984	0.792156	city	9	1	0.614451	0.614451	0	1	0	0	CorrectCommission	1.038673	0.718417	1	1
42.501194	0.792264	city	4	1	0.656198	0.656198	0	1	0	0	CorrectCommission	0.580234	0.699711	1	1
43.293465	0.792273	mountain	6	0	0.000000	0.723776	1	0	0	0	CorrectOmission	0.161862	0.682669	1	1
44.085728	0.792256	city	7	1	0.744932	0.744932	0	1	0	0	CorrectCommission	0.394183	0.669022	1	1
44.878044	0.792374	city	1	1	0.647413	0.647413	0	1	0	0	CorrectCommission	0.676702	0.659917	1	1
45.670315	0.792170	mountain	6	0	0.000000	0.686526	1	0	0	0	CorrectOmission	0.247189	0.655803	1	1
46.462524	0.792250	mountain	8	0	0.000000	0.769488	1	0	0	0	CorrectOmission	0.663834	0.656407	1	1
47.254799	0.792294	city	3	1	0.803513	0.803513	0	1	0	0	CorrectCommission	1.037478	0.660854	1	1
48.047119	0.792346	city	7	1	0.695819	0.695819	0	1	0	0	CorrectCommission	0.145143	0.667873	1	1
48.839367	0.792154	city	6	1	0.660725	0.660725	0	1	0	0	CorrectCommission	0.530523	0.676060	1	1
49.631603	0.792318	city	4	1	0.647760	0.647760	0	1	0	0	CorrectCommission	0.672894	0.684134	1	1
50.423870	0.792215	city	8	1	0.546673	0.546673	0	1	0	0	CorrectCommission	1.782954	0.691176	1	1
51.216145	0.792331	city	6	1	0.596316	0.596316	0	1	0	0	CorrectCommission	1.237810	0.696758	1	1
52.008461	0.792306	mountain	2	0	0.000000	0.702047	1	0	0	0	CorrectOmission	0.076755	0.701045	1	1
52.800694	0.792163	city	1	1	0.744640	0.744640	0	1	0	0	CorrectCommission	0.390973	0.704702	1	1
53.592911	0.792265	city	9	1	0.604872	0.604872	0	1	0	0	CorrectCommission	1.143863	0.708703	1	1
54.385170	0.792260	mountain	10	1	0.713165	0.713165	0	0	1	0	CommissionError	0.045342	0.714120	1	1
55.177540	0.792480	city	5	1	0.609967	0.609967	0	1	0	0	CorrectCommission	1.087905	0.721932	1	1
55.969807	0.792052	city	3	1	0.645901	0.645901	0	1	0	0	CorrectCommission	0.693306	0.732747	1	1
56.762074	0.792478	city	8	1	0.695320	0.695320	0	1	0	0	CorrectCommission	0.150622	0.746734	1	1
57.554337	0.792049	city	3	1	0.744672	0.744672	0	1	0	0	CorrectCommission	0.391319	0.763574	0	1
58.346493	0.792264	city	8	1	0.596204	0.596204	0	1	0	0	CorrectCommission	1.239044	0.782457	0	1
59.138756	0.792262	city	9	1	0.645721	0.645721	0	1	0	0	CorrectCommission	0.695284	0.802237	0	1
59.931046	0.792320	city	6	1	0.602843	0.602843	0	1	0	0	CorrectCommission	1.166136	0.821687	0	1
60.723320	0.792227	mountain	3	0	0.000000	0.733016	1	0	0	0	CorrectOmission	0.263325	0.839689	0	1
61.515579	0.792296	city	2	1	0.794779	0.794779	0	1	0	0	CorrectCommission	0.941569	0.855457	0	1
62.307838	0.792222	city	3	1	0.546675	0.546675	0	1	0	0	CorrectCommission	1.782934	0.868643	0	1
63.100101	0.792298	city	5	1	0.596687	0.596687	0	1	0	0	CorrectCommission	1.233743	0.879415	0	1
63.892365	0.792230	city	3	1	0.794436	0.794436	0	1	0	0	CorrectCommission	0.937795	0.888412	0	1
64.684624	0.792287	mountain	7	0	0.000000	0.811688	1	0	0	0	CorrectOmission	1.127243	0.896529	0	1
65.476883	0.792238	city	2	1	0.749533	0.749533	0	1	0	0	CorrectCommission	0.444706	0.904685	0	1
66.269135	0.792267	city	5	1	0.709063	0.709063	0	1	0	0	CorrectCommission	0.000290	0.913602	0	1
67.061401	0.792265	city	8	1	0.744760	0.744760	0	1	0	0	CorrectCommission	0.392287	0.923587	0	1
67.853691	0.792306	city	2	1	0.596536	0.596536	0	1	0	0	CorrectCommission	1.235404	0.934398	0	0
68.645950	0.792222	city	3	1	0.605428	0.605428	0	1	0	0	CorrectCommission	1.137748	0.945322	0	0
69.438194	0.792266	city	1	1	0.613419	0.613419	0	1	0	0	CorrectCommission	1.049998	0.955346	0	0
70.230568	0.792481	mountain	10	0	0.000000	0.606193	1	0	0	0	CorrectOmission	1.129358	0.963338	0	0
71.022835	0.792049	city	1	1	0.596375	0.596375	0	1	0	0	CorrectCommission	1.237163	0.968267	0	0
71.814995	0.792265	city	8	1	0.596595	0.596595	0	1	0	0	CorrectCommission	1.234750	0.969444	0	0
72.607277	0.792303	city	6	1	0.546696	0.546696	0	1	0	0	CorrectCommission	1.782707	0.966584	0	0
73.399544	0.792223	city	1	1	0.645835	0.645835	0	1	0	0	CorrectCommission	0.694036	0.959789	0	0
74.191788	0.792267	city	6	1	0.671714	0.671714	0	1	0	0	CorrectCommission	0.409851	0.949509	0	0
74.984161	0.792480	city	4	1	0.645804	0.645804	0	1	0	0	CorrectCommission	0.694375	0.936341	0	0
75.776474	0.792157	city	3	1	0.596085	0.596085	0	1	0	0	CorrectCommission	1.240349	0.920903	0	0
76.568665	0.792226	city	10	1	0.645953	0.645953	0	1	0	0	CorrectCommission	0.692734	0.903764	0	0
77.360893	0.792220	city	7	1	0.645678	0.645678	0	1	0	0	CorrectCommission	0.695752	0.885420	0	0
78.153122	0.792238	city	3	1	0.648149	0.648149	0	1	0	0	CorrectCommission	0.668626	0.866342	0	0
78.945374	0.792266	city	1	1	0.597782	0.597782	0	1	0	0	CorrectCommission	1.221712	0.847071	0	0
79.737694	0.792374	city	4	1	0.596648	0.596648	0	1	0	0	CorrectCommission	1.234165	0.828322	0	0
80.529961	0.792167	city	9	1	0.645597	0.645597	0	1	0	0	CorrectCommission	0.696641	0.811091	0	0
81.322189	0.792293	city	7	1	0.596226	0.596226	0	1	0	0	CorrectCommission	1.238809	0.796636	0	0
82.114464	0.792252	city	5	1	0.596324	0.596324	0	1	0	0	CorrectCommission	1.237727	0.786345	0	0
82.906708	0.792236	city	7	1	0.699613	0.699613	0	1	0	0	CorrectCommission	0.103481	0.781552	0	0
83.698959	0.792269	city	10	1	0.745244	0.745244	0	1	0	0	CorrectCommission	0.397609	0.783289	0	0
84.491226	0.792265	city	9	1	0.695501	0.695501	0	1	0	0	CorrectCommission	0.148641	0.792008	0	0
85.283493	0.792262	mountain	2	0	0.000000	0.708791	1	0	0	0	CorrectOmission	0.002692	0.807397	0	0
86.075752	0.792269	city	10	1	0.705920	0.705920	0	1	0	0	CorrectCommission	0.034226	0.828343	0	0
86.868019	0.792261	city	9	1	0.607689	0.607689	0	1	0	0	CorrectCommission	1.112922	0.853063	0	0
87.660339	0.792374	city	10	1	0.497381	0.497381	0	1	0	0	CorrectCommission	2.324248	0.879300	0	0
88.452713	0.792373	city	7	1	0.550209	0.550209	0	1	0	0	CorrectCommission	1.744124	0.904644	0	0
89.244919	0.792046	city	5	1	0.614500	0.614500	0	1	0	0	CorrectCommission	1.038133	0.926909	0	0
90.037132	0.792373	city	8	1	0.695324	0.695324	0	1	0	0	CorrectCommission	0.150579	0.944338	0	0
90.829399	0.792162	city	1	1	0.645773	0.645773	0	1	0	0	CorrectCommission	0.694711	0.955793	0	0
91.621613	0.792261	city	2	1	0.613225	0.613225	0	1	0	0	CorrectCommission	1.052135	0.960832	0	0
92.413925	0.792373	city	8	1	0.596284	0.596284	0	1	0	0	CorrectCommission	1.238165	0.959727	0	0
93.206299	0.792374	mountain	10	0	0.000000	0.600556	1	0	0	0	CorrectOmission	1.191259	0.953367	0	0
93.998512	0.792048	city	2	1	0.595996	0.595996	0	1	0	0	CorrectCommission	1.241329	0.943149	0	0
94.790665	0.792263	city	3	1	0.552562	0.552562	0	1	0	0	CorrectCommission	1.718286	0.930797	0	0
95.583038	0.792480	mountain	7	0	0.000000	0.618540	1	0	0	0	CorrectOmission	0.993762	0.918101	0	0
96.375328	0.792090	city	1	1	0.710574	0.710574	0	1	0	0	CorrectCommission	0.016884	0.906712	0	0
97.167488	0.792232	city	6	1	0.745307	0.745307	0	1	0	0	CorrectCommission	0.398293	0.897900	0	0
97.959740	0.792281	city	2	1	0.695273	0.695273	0	1	0	0	CorrectCommission	0.151144	0.892349	0	0
98.752007	0.792242	city	1	1	0.701708	0.701708	0	1	0	0	CorrectCommission	0.080472	0.890127	0	0
99.544258	0.792263	city	10	1	0.911301	0.911301	0	1	0	0	CorrectCommission	2.221125	0.890688	0	0
100.336517	0.792264	city	5	1	0.557644	0.557644	0	1	0	0	CorrectCommission	1.662479	0.892999	0	0
101.128784	0.792264	city	1	1	0.744892	0.744892	0	1	0	0	CorrectCommission	0.393741	0.895783	0	0
101.921051	0.792267	city	5	1	0.604660	0.604660	0	1	0	0	CorrectCommission	1.146188	0.897697	0	0
102.713348	0.792339	city	9	1	0.645714	0.645714	0	1	0	0	CorrectCommission	0.695365	0.897464	0	0
103.505615	0.792187	city	5	1	0.744864	0.744864	0	1	0	0	CorrectCommission	0.393433	0.894084	0	0
104.297844	0.792266	mountain	8	0	0.000000	0.835634	1	0	0	0	CorrectOmission	1.390203	0.886870	0	0
105.090111	0.792276	city	6	1	0.843828	0.843828	0	1	0	0	CorrectCommission	1.480186	0.875472	0	0
105.882416	0.792326	city	3	1	0.695251	0.695251	0	1	0	0	CorrectCommission	0.151376	0.859943	0	0
106.674675	0.792196	city	8	1	0.611210	0.611210	0	1	0	0	CorrectCommission	1.074262	0.840700	0	0
107.466904	0.792262	city	1	1	0.546847	0.546847	0	1	0	0	CorrectCommission	1.781051	0.818406	0	0
108.259224	0.792374	city	4	1	0.648573	0.648573	0	1	0	0	CorrectCommission	0.663961	0.793887	0	0
109.051483	0.792155	city	6	1	0.705715	0.705715	0	1	0	0	CorrectCommission	0.036470	0.768062	0	0
109.843697	0.792265	city	4	1	0.794276	0.794276	0	1	0	0	CorrectCommission	0.936043	0.741800	1	0
110.635963	0.792268	city	3	1	0.695275	0.695275	0	1	0	0	CorrectCommission	0.151120	0.715836	1	0
111.428337	0.792480	city	10	1	0.646382	0.646382	0	1	0	0	CorrectCommission	0.688021	0.690789	1	0
112.220604	0.792061	mountain	8	1	0.596004	0.596004	0	0	1	0	CommissionError	1.241246	0.667112	1	0
113.012764	0.792253	city	7	1	0.746229	0.746229	0	1	0	0	CorrectCommission	0.408427	0.645173	1	0
113.805023	0.792263	mountain	6	0	0.000000	0.785287	1	0	0	0	CorrectOmission	0.837325	0.625334	1	0
114.597282	0.792266	city	7	1	0.744822	0.744822	0	1	0	0	CorrectCommission	0.392968	0.607921	1	0
115.389656	0.792481	city	6	1	0.656481	0.656481	0	1	0	0	CorrectCommission	0.577121	0.593294	1	0
116.181946	0.792096	city	1	1	0.645506	0.645506	0	1	0	0	CorrectCommission	0.697640	0.581810	1	0
116.974113	0.792242	city	10	1	0.745840	0.745840	0	1	0	0	CorrectCommission	0.404153	0.573751	1	0
117.766357	0.792242	city	7	1	0.755964	0.755964	0	1	0	0	CorrectCommission	0.515320	0.569297	1	0
118.558609	0.792265	city	1	1	0.646618	0.646618	0	1	0	0	CorrectCommission	0.685436	0.568445	1	0
119.350929	0.792368	city	2	1	0.695367	0.695367	0	1	0	0	CorrectCommission	0.150111	0.570937	1	0
120.143211	0.792194	city	7	1	0.695149	0.695149	0	1	0	0	CorrectCommission	0.152505	0.576300	1	0
120.935448	0.792290	city	4	1	0.745370	0.745370	0	1	0	0	CorrectCommission	0.398994	0.583911	1	0
121.727806	0.792420	city	7	1	0.645811	0.645811	0	1	0	0	CorrectCommission	0.694298	0.593069	1	0
122.520042	0.792047	city	4	1	0.595992	0.595992	0	1	0	0	CorrectCommission	1.241377	0.603162	1	0
123.312195	0.792269	city	7	1	0.613512	0.613512	0	1	0	0	CorrectCommission	1.048976	0.613791	1	0
124.104462	0.792261	city	2	1	0.657732	0.657732	0	1	0	0	CorrectCommission	0.563393	0.624820	1	0
124.896729	0.792266	city	6	1	0.744855	0.744855	0	1	0	0	CorrectCommission	0.393331	0.636370	1	0
125.688988	0.792266	city	10	1	0.647281	0.647281	0	1	0	0	CorrectCommission	0.678155	0.648743	1	0
126.481255	0.792264	city	3	1	0.695278	0.695278	0	1	0	0	CorrectCommission	0.151084	0.662266	1	0
127.273521	0.792266	city	9	1	0.645659	0.645659	0	1	0	0	CorrectCommission	0.695966	0.677096	1	1
128.065781	0.792264	city	3	1	0.609875	0.609875	0	1	0	0	CorrectCommission	1.088920	0.693036	1	1
128.858109	0.792373	city	8	1	0.646138	0.646138	0	1	0	0	CorrectCommission	0.690705	0.709410	1	1
129.650375	0.792164	city	5	1	0.663765	0.663765	0	1	0	0	CorrectCommission	0.497142	0.725024	1	1
130.442688	0.792474	mountain	2	0	0.000000	0.699201	1	0	0	0	CorrectOmission	0.108000	0.738247	1	1
131.234955	0.792049	city	4	1	0.695607	0.695607	0	1	0	0	CorrectCommission	0.147478	0.747194	1	1
132.027115	0.792263	city	7	1	0.596138	0.596138	0	1	0	0	CorrectCommission	1.239770	0.750015	1	1
132.819366	0.792268	city	9	1	0.547309	0.547309	0	1	0	0	CorrectCommission	1.775974	0.745217	1	1
133.611633	0.792263	city	2	1	0.547472	0.547472	0	1	0	0	CorrectCommission	1.774187	0.732020	1	1
134.403915	0.792288	city	10	1	0.596224	0.596224	0	1	0	0	CorrectCommission	1.238825	0.710608	1	1
135.196228	0.792350	city	6	1	0.695240	0.695240	0	1	0	0	CorrectCommission	0.151505	0.682229	1	1
135.988480	0.792156	city	5	1	0.645620	0.645620	0	1	0	0	CorrectCommission	0.696396	0.649115	1	1
136.780807	0.792481	city	4	1	0.695287	0.695287	0	1	0	0	CorrectCommission	0.150983	0.614232	1	1
137.573090	0.792080	city	1	1	0.645558	0.645558	0	1	0	0	CorrectCommission	0.697078	0.580928	1	1
138.365295	0.792341	city	7	1	0.650356	0.650356	0	1	0	0	CorrectCommission	0.644384	0.552484	1	1
139.157562	0.792206	city	8	1	0.695163	0.695163	0	1	0	0	CorrectCommission	0.152349	0.531734	1	1
139.949783	0.792219	mountain	1	0	0.000000	0.702361	1	0	0	0	CorrectOmission	0.073300	0.520688	1	1
140.742081	0.792369	city	9	1	0.695259	0.695259	0	1	0	0	CorrectCommission	0.151291	0.520275	1	1
141.534454	0.792374	city	7	1	0.697164	0.697164	0	1	0	0	CorrectCommission	0.130380	0.530278	1	1
142.326706	0.792154	city	6	1	0.695180	0.695180	0	1	0	0	CorrectCommission	0.152163	0.549399	1	1
143.118973	0.792376	mountain	4	0	0.000000	0.684354	1	0	0	0	CorrectOmission	0.271049	0.575470	1	1
143.911240	0.792154	city	9	1	0.659017	0.659017	0	1	0	0	CorrectCommission	0.549276	0.605812	1	1
144.703400	0.792160	city	4	1	0.613502	0.613502	0	1	0	0	CorrectCommission	1.049087	0.637609	1	1
145.495667	0.792372	city	8	1	0.596695	0.596695	0	1	0	0	CorrectCommission	1.233652	0.668279	1	1
146.287933	0.792157	city	1	1	0.562450	0.562450	0	1	0	0	CorrectCommission	1.609707	0.695811	1	1
147.080139	0.792262	mountain	3	0	0.000000	0.597615	1	0	0	0	CorrectOmission	1.223546	0.718896	1	1
147.872513	0.792484	mountain	4	0	0.000000	0.659768	1	0	0	0	CorrectOmission	0.541031	0.736979	1	1
148.664780	0.792044	city	1	1	0.706485	0.706485	0	1	0	0	CorrectCommission	0.028022	0.750115	1	1
149.456924	0.792266	city	5	1	0.695342	0.695342	0	1	0	0	CorrectCommission	0.150382	0.758832	0	1
150.249191	0.792270	city	3	1	0.646857	0.646857	0	1	0	0	CorrectCommission	0.682814	0.763958	0	1
151.041489	0.792307	city	6	1	0.612343	0.612343	0	1	0	0	CorrectCommission	1.061812	0.766483	0	1
151.833740	0.792216	city	8	1	0.562618	0.562618	0	1	0	0	CorrectCommission	1.607860	0.767510	0	1
152.626099	0.792484	mountain	6	0	0.000000	0.669398	1	0	0	0	CorrectOmission	0.435278	0.768237	0	1
153.418365	0.792051	city	8	1	0.744542	0.744542	0	1	0	0	CorrectCommission	0.389896	0.769957	0	1
154.210632	0.792479	city	10	1	0.599908	0.599908	0	1	0	0	CorrectCommission	1.198373	0.774005	0	1
155.002899	0.792051	city	6	1	0.844082	0.844082	0	1	0	0	CorrectCommission	1.482976	0.781660	0	1
155.795166	0.792479	city	2	1	0.744805	0.744805	0	1	0	0	CorrectCommission	0.392789	0.793974	0	1
156.587418	0.792050	city	6	1	0.744573	0.744573	0	1	0	0	CorrectCommission	0.390238	0.811654	0	1
157.379578	0.792264	city	5	1	0.744799	0.744799	0	1	0	0	CorrectCommission	0.392721	0.834744	0	1
158.171906	0.792370	city	8	1	0.695333	0.695333	0	1	0	0	CorrectCommission	0.150476	0.862536	0	1
158.964157	0.792157	city	3	1	0.645988	0.645988	0	1	0	0	CorrectCommission	0.692352	0.893550	0	1
159.756378	0.792265	city	2	1	0.645730	0.645730	0	1	0	0	CorrectCommission	0.695188	0.925620	0	1
160.548752	0.792482	city	5	1	0.645871	0.645871	0	1	0	0	CorrectCommission	0.693637	0.956193	0	1
161.341034	0.792079	city	2	1	0.552740	0.552740	0	1	0	0	CorrectCommission	1.716336	0.982648	0	1
162.133179	0.792235	city	10	1	0.497551	0.497551	0	1	0	0	CorrectCommission	2.322385	1.002675	0	1
162.925430	0.792260	mountain	1	1	0.497221	0.497221	0	0	1	0	CommissionError	2.326004	1.014631	0	1
163.717804	0.792485	city	6	1	0.695310	0.695310	0	1	0	0	CorrectCommission	0.150736	1.017727	0	1
164.510178	0.792264	city	9	1	0.645511	0.645511	0	1	0	0	CorrectCommission	0.697591	1.012145	0	1
165.302353	0.792074	city	2	1	0.595953	0.595953	0	1	0	0	CorrectCommission	1.241797	0.998851	0	1
166.094498	0.792239	city	4	1	0.612124	0.612124	0	1	0	0	CorrectCommission	1.064224	0.979455	0	1
166.886749	0.792264	city	6	1	0.646230	0.646230	0	1	0	0	CorrectCommission	0.689698	0.955975	0	1
167.679016	0.792265	city	5	1	0.652501	0.652501	0	1	0	0	CorrectCommission	0.620827	0.930601	0	1
168.471390	0.792481	city	2	1	0.652674	0.652674	0	1	0	0	CorrectCommission	0.618932	0.905504	0	1
169.263763	0.792266	city	7	1	0.603019	0.603019	0	1	0	0	CorrectCommission	1.164203	0.882694	0	1
170.055923	0.792046	city	8	1	0.546644	0.546644	0	1	0	0	CorrectCommission	1.783273	0.863922	0	1
170.848190	0.792483	mountain	8	0	0.000000	0.710641	1	0	0	0	CorrectOmission	0.017624	0.850577	0	1
171.640457	0.792055	city	7	1	0.843880	0.843880	0	1	0	0	CorrectCommission	1.480751	0.843612	0	1
172.432617	0.792257	city	4	1	0.695229	0.695229	0	1	0	0	CorrectCommission	0.151629	0.843315	0	1
173.224899	0.792328	city	9	1	0.695279	0.695279	0	1	0	0	CorrectCommission	0.151073	0.849360	0	1
174.017166	0.792202	city	10	1	0.649326	0.649326	0	1	0	0	CorrectCommission	0.655699	0.860615	0	1
174.809509	0.792482	city	7	1	0.645672	0.645672	0	1	0	0	CorrectCommission	0.695824	0.875206	0	1
175.601883	0.792264	city	9	1	0.604643	0.604643	0	1	0	0	CorrectCommission	1.146369	0.890644	0	1
176.394043	0.792046	city	10	1	0.647917	0.647917	0	1	0	0	CorrectCommission	0.671170	0.904034	0	1
177.186203	0.792271	mountain	6	0	0.000000	0.794432	1	0	0	0	CorrectOmission	0.937754	0.912460	0	1
177.978470	0.792259	city	6	1	0.843949	0.843949	0	1	0	0	CorrectCommission	1.481514	0.913341	0	1
178.770721	0.792269	city	8	1	0.596228	0.596228	0	1	0	0	CorrectCommission	1.238777	0.904787	0	1
179.563095	0.792480	city	5	1	0.562388	0.562388	0	1	0	0	CorrectCommission	1.610390	0.885927	0	1
180.355362	0.792046	city	1	1	0.548581	0.548581	0	1	0	0	CorrectCommission	1.762012	0.857034	0	1
181.147522	0.792264	city	5	1	0.602312	0.602312	0	1	0	0	CorrectCommission	1.171975	0.819524	0	1
181.939789	0.792267	city	9	1	0.751914	0.751914	0	1	0	0	CorrectCommission	0.470849	0.775755	0	1
182.732056	0.792264	city	4	1	0.706909	0.706909	0	1	0	0	CorrectCommission	0.023365	0.728682	1	1
183.524429	0.792482	city	8	1	0.702131	0.702131	0	1	0	0	CorrectCommission	0.075829	0.681465	1	1
184.316742	0.792154	city	5	1	0.654918	0.654918	0	1	0	0	CorrectCommission	0.594292	0.637068	1	1
185.108902	0.792157	city	4	1	0.744680	0.744680	0	1	0	0	CorrectCommission	0.391407	0.597930	1	1
185.901108	0.792269	city	2	1	0.645724	0.645724	0	1	0	0	CorrectCommission	0.695248	0.565760	1	1
186.693375	0.792260	city	1	1	0.656451	0.656451	0	1	0	0	CorrectCommission	0.577457	0.541396	1	0
187.485641	0.792269	city	8	1	0.695752	0.695752	0	1	0	0	CorrectCommission	0.145877	0.524823	1	0
188.277908	0.792262	city	6	1	0.645900	0.645900	0	1	0	0	CorrectCommission	0.693317	0.515319	1	0
189.070175	0.792270	city	5	1	0.702745	0.702745	0	1	0	0	CorrectCommission	0.069084	0.511547	1	0
189.862442	0.792262	city	1	1	0.646153	0.646153	0	1	0	0	CorrectCommission	0.690542	0.511795	1	0
190.654694	0.792266	mountain	7	0	0.000000	0.674940	1	0	0	0	CorrectOmission	0.374418	0.514223	1	0
191.447067	0.792477	city	4	1	0.703489	0.703489	0	1	0	0	CorrectCommission	0.060920	0.517130	1	0
192.239349	0.792082	city	7	1	0.646179	0.646179	0	1	0	0	CorrectCommission	0.690254	0.519214	1	0
193.031509	0.792231	city	8	1	0.596203	0.596203	0	1	0	0	CorrectCommission	1.239058	0.519778	1	0
193.823792	0.792327	city	4	1	0.645868	0.645868	0	1	0	0	CorrectCommission	0.693673	0.518935	1	0
194.616058	0.792212	city	7	1	0.645684	0.645684	0	1	0	0	CorrectCommission	0.695691	0.517678	1	0
195.408401	0.792471	city	9	1	0.603101	0.603101	0	1	0	0	CorrectCommission	1.163303	0.517784	1	0
196.200684	0.792098	city	7	1	0.713294	0.713294	0	1	0	0	CorrectCommission	0.046753	0.521587	1	0
196.992844	0.792214	city	3	1	0.695598	0.695598	0	1	0	0	CorrectCommission	0.147567	0.531647	1	0
197.785080	0.792266	mountain	9	0	0.000000	0.692566	1	0	0	0	CorrectOmission	0.180863	0.550284	1	0
198.577347	0.792266	city	9	1	0.695387	0.695387	0	1	0	0	CorrectCommission	0.149884	0.579170	1	0
199.369614	0.792262	city	5	1	0.695251	0.695251	0	1	0	0	CorrectCommission	0.151378	0.618951	1	0
200.161865	0.792265	city	4	1	0.745375	0.745375	0	1	0	0	CorrectCommission	0.399045	0.668991	1	0
200.954163	0.792321	city	7	1	0.760642	0.760642	0	1	0	0	CorrectCommission	0.566699	0.727294	1	0
201.746429	0.792210	city	6	1	0.744815	0.744815	0	1	0	0	CorrectCommission	0.392892	0.790675	0	0
202.538666	0.792267	city	3	1	0.744827	0.744827	0	1	0	0	CorrectCommission	0.393025	0.855092	0	0
203.330933	0.792264	city	5	1	0.807754	0.807754	0	1	0	0	CorrectCommission	1.084049	0.916089	0	0
204.123230	0.792325	city	6	1	0.943308	0.943308	0	1	0	0	CorrectCommission	2.572608	0.969380	0	0
204.915604	0.792419	city	10	1	0.751003	0.751003	0	1	0	0	CorrectCommission	0.460847	1.011391	0	0
205.707840	0.792050	city	6	1	0.893094	0.893094	0	1	0	0	CorrectCommission	2.021190	1.039751	0	0
206.499985	0.792261	mountain	2	0	0.000000	0.932654	1	0	0	0	CorrectOmission	2.455608	1.053451	0	0
207.292267	0.792280	city	9	1	0.855177	0.855177	0	1	0	0	CorrectCommission	1.604813	1.052953	0	0
208.084641	0.792468	city	2	1	0.646158	0.646158	0	1	0	0	CorrectCommission	0.690488	1.040008	0	0
208.876999	0.792266	city	9	1	0.702259	0.702259	0	1	0	0	CorrectCommission	0.074423	1.017311	0	0
209.669189	0.792098	city	8	1	0.695459	0.695459	0	1	0	0	CorrectCommission	0.149098	0.988084	0	0
210.461441	0.792429	city	9	1	0.853093	0.853093	0	1	0	0	CorrectCommission	1.581931	0.955616	0	0
211.253693	0.792047	city	2	1	0.843600	0.843600	0	1	0	0	CorrectCommission	1.477684	0.922942	0	0
212.045837	0.792268	mountain	10	0	0.000000	0.752982	1	0	0	0	CorrectOmission	0.482579	0.892609	0	0
212.838150	0.792352	city	9	1	0.660875	0.660875	0	1	0	0	CorrectCommission	0.528877	0.866538	0	0
213.630447	0.792246	city	2	1	0.646914	0.646914	0	1	0	0	CorrectCommission	0.682179	0.845983	0	0
214.422668	0.792198	city	9	1	0.803763	0.803763	0	1	0	0	CorrectCommission	1.040220	0.831543	0	0
215.214905	0.792276	city	10	1	0.645776	0.645776	0	1	0	0	CorrectCommission	0.694682	0.823243	0	0
216.007233	0.792359	city	3	1	0.707442	0.707442	0	1	0	0	CorrectCommission	0.017512	0.820684	0	0
216.799484	0.792154	city	10	1	0.844625	0.844625	0	1	0	0	CorrectCommission	1.488942	0.823134	0	0
217.591690	0.792268	city	1	1	0.843847	0.843847	0	1	0	0	CorrectCommission	1.480392	0.829561	0	0
218.384064	0.792480	city	8	1	0.706436	0.706436	0	1	0	0	CorrectCommission	0.028553	0.838822	0	0
219.176331	0.792048	mountain	10	0	0.000000	0.732732	1	0	0	0	CorrectOmission	0.260204	0.849818	0	0
219.968491	0.792264	city	3	1	0.794278	0.794278	0	1	0	0	CorrectCommission	0.936066	0.861554	0	0
220.760803	0.792374	city	10	1	0.762622	0.762622	0	1	0	0	CorrectCommission	0.588440	0.873282	0	0
221.553131	0.792264	city	8	1	0.843813	0.843813	0	1	0	0	CorrectCommission	1.480025	0.884629	0	0
222.345398	0.792267	city	5	1	0.893252	0.893252	0	1	0	0	CorrectCommission	2.022929	0.895697	0	0
223.137604	0.792160	city	7	1	0.811495	0.811495	0	1	0	0	CorrectCommission	1.125132	0.907017	0	0
223.929855	0.792327	city	10	1	0.745472	0.745472	0	1	0	0	CorrectCommission	0.400104	0.919476	0	0
224.722168	0.792307	city	6	1	0.800784	0.800784	0	1	0	0	CorrectCommission	1.007501	0.934143	0	0
225.514404	0.792165	city	3	1	0.711850	0.711850	0	1	0	0	CorrectCommission	0.030899	0.951943	0	0
226.306671	0.792363	mountain	9	1	0.794263	0.794263	0	0	1	0	CommissionError	0.935901	0.973465	0	0
227.098923	0.792159	city	9	1	0.695199	0.695199	0	1	0	0	CorrectCommission	0.151953	0.998679	0	0
227.891251	0.792479	city	5	1	0.794311	0.794311	0	1	0	0	CorrectCommission	0.936420	1.026871	0	0
228.683517	0.792061	city	7	1	0.893141	0.893141	0	1	0	0	CorrectCommission	2.021702	1.056649	0	0
229.475693	0.792280	mountain	7	0	0.000000	0.818660	1	0	0	0	CorrectOmission	1.203806	1.086074	0	0
230.268051	0.792452	city	1	1	0.747223	0.747223	0	1	0	0	CorrectCommission	0.419338	1.112926	0	0
231.060303	0.792047	city	9	1	0.855186	0.855186	0	1	0	0	CorrectCommission	1.604906	1.134947	0	0
231.852463	0.792265	city	2	1	0.912696	0.912696	0	1	0	0	CorrectCommission	2.236441	1.150069	0	0
232.644836	0.792483	city	6	1	0.794321	0.794321	0	1	0	0	CorrectCommission	0.936536	1.156717	0	0
233.437103	0.792069	city	3	1	0.695663	0.695663	0	1	0	0	CorrectCommission	0.146854	1.154020	0	0
234.229294	0.792289	city	8	1	0.843776	0.843776	0	1	0	0	CorrectCommission	1.479615	1.141825	0	0
235.021591	0.792328	city	9	1	0.942783	0.942783	0	1	0	0	CorrectCommission	2.566835	1.120699	0	0
235.813950	0.792373	city	4	1	0.847811	0.847811	0	1	0	0	CorrectCommission	1.523928	1.091936	0	0
236.606155	0.792050	city	1	1	0.805627	0.805627	0	1	0	0	CorrectCommission	1.060694	1.057356	0	0
237.398331	0.792281	mountain	5	0	0.000000	0.774636	1	0	0	0	CorrectOmission	0.720370	1.019056	0	0
238.190598	0.792263	city	5	1	0.745093	0.745093	0	1	0	0	CorrectCommission	0.395948	0.979170	0	0
238.982849	0.792247	city	7	1	0.707253	0.707253	0	1	0	0	CorrectCommission	0.019583	0.939628	0	0
239.775101	0.792267	city	5	1	0.844448	0.844448	0	1	0	0	CorrectCommission	1.486996	0.901975	0	0
240.567368	0.792264	city	1	1	0.794426	0.794426	0	1	0	0	CorrectCommission	0.937692	0.867255	0	0
241.359772	0.792542	city	8	1	0.647108	0.647108	0	1	0	0	CorrectCommission	0.680053	0.836086	0	0
242.152100	0.792097	city	7	1	0.653664	0.653664	0	1	0	0	CorrectCommission	0.608055	0.808671	0	0
242.944336	0.792371	city	3	1	0.744711	0.744711	0	1	0	0	CorrectCommission	0.391755	0.784946	0	0
243.736542	0.792049	city	2	1	0.893601	0.893601	0	1	0	0	CorrectCommission	2.026760	0.764697	0	0
244.528702	0.792263	city	3	1	0.794302	0.794302	0	1	0	0	CorrectCommission	0.936320	0.747652	1	0
245.321014	0.792373	city	6	1	0.695267	0.695267	0	1	0	0	CorrectCommission	0.151203	0.733614	1	0
246.113388	0.792374	city	2	1	0.712826	0.712826	0	1	0	0	CorrectCommission	0.041614	0.722390	1	1
246.905640	0.792116	city	8	1	0.695525	0.695525	0	1	0	0	CorrectCommission	0.148377	0.713818	1	1
247.697845	0.792302	city	1	1	0.794874	0.794874	0	1	0	0	CorrectCommission	0.942608	0.707757	1	1
248.490128	0.792267	mountain	2	0	0.000000	0.823693	1	0	0	0	CorrectOmission	1.259077	0.704023	1	1
249.282440	0.792374	city	6	1	0.800680	0.800680	0	1	0	0	CorrectCommission	1.006364	0.702372	1	1
250.074768	0.792264	city	10	1	0.744534	0.744534	0	1	0	0	CorrectCommission	0.389807	0.702495	1	1
250.866928	0.792046	city	6	1	0.843751	0.843751	0	1	0	0	CorrectCommission	1.479342	0.703958	1	1
251.659180	0.792484	city	7	1	0.704846	0.704846	0	1	0	0	CorrectCommission	0.046015	0.706090	1	1
252.451553	0.792264	city	9	1	0.744630	0.744630	0	1	0	0	CorrectCommission	0.390863	0.708008	1	1
253.243713	0.792048	city	10	1	0.710709	0.710709	0	1	0	0	CorrectCommission	0.018372	0.708593	1	1
254.035873	0.792268	city	8	1	0.645790	0.645790	0	1	0	0	CorrectCommission	0.694528	0.706584	1	1
254.828140	0.792260	mountain	1	0	0.000000	0.609766	1	0	0	0	CorrectOmission	1.090113	0.700701	1	1
255.620407	0.792268	city	8	1	0.596235	0.596235	0	1	0	0	CorrectCommission	1.238706	0.689844	1	1
256.412659	0.792266	city	1	1	0.598792	0.598792	0	1	0	0	CorrectCommission	1.210629	0.673346	1	1
257.204956	0.792277	city	2	1	0.596251	0.596251	0	1	0	0	CorrectCommission	1.238530	0.651131	1	1
257.997314	0.792466	city	7	1	0.744773	0.744773	0	1	0	0	CorrectCommission	0.392437	0.623805	1	1
258.789581	0.792048	city	5	1	0.744951	0.744951	0	1	0	0	CorrectCommission	0.394390	0.592697	1	1
259.581848	0.792481	city	8	1	0.746194	0.746194	0	1	0	0	CorrectCommission	0.408043	0.559704	1	1
260.374084	0.792049	city	2	1	0.797734	0.797734	0	1	0	0	CorrectCommission	0.974018	0.527137	1	1
261.166260	0.792276	city	10	1	0.696576	0.696576	0	1	0	0	CorrectCommission	0.136829	0.497409	1	1
261.958527	0.792251	city	3	1	0.703984	0.703984	0	1	0	0	CorrectCommission	0.055478	0.472862	1	1
262.750793	0.792264	city	8	1	0.695319	0.695319	0	1	0	0	CorrectCommission	0.150639	0.455460	1	1
263.543152	0.792483	city	5	1	0.654670	0.654670	0	1	0	0	CorrectCommission	0.597011	0.446595	1	1
264.335419	0.792048	city	1	1	0.695035	0.695035	0	1	0	0	CorrectCommission	0.153750	0.446980	1	1
265.127563	0.792262	city	4	1	0.695242	0.695242	0	1	0	0	CorrectCommission	0.151485	0.456632	1	1
265.919952	0.792484	city	6	1	0.695365	0.695365	0	1	0	0	CorrectCommission	0.150134	0.474909	1	1
266.712219	0.792046	city	10	1	0.645539	0.645539	0	1	0	0	CorrectCommission	0.697287	0.500638	1	1
267.504425	0.792374	city	2	1	0.695297	0.695297	0	1	0	0	CorrectCommission	0.150872	0.532278	1	1
268.296692	0.792161	city	5	1	0.647102	0.647102	0	1	0	0	CorrectCommission	0.680124	0.568114	1	1
269.088928	0.792323	city	9	1	0.646946	0.646946	0	1	0	0	CorrectCommission	0.681830	0.606405	1	1
269.881195	0.792200	city	6	1	0.604636	0.604636	0	1	0	0	CorrectCommission	1.146451	0.645551	1	1
270.673431	0.792268	city	3	1	0.695272	0.695272	0	1	0	0	CorrectCommission	0.151155	0.684152	1	1
271.465698	0.792264	city	7	1	0.794610	0.794610	0	1	0	0	CorrectCommission	0.939707	0.721035	1	1
272.258026	0.792373	city	3	1	0.893936	0.893936	0	1	0	0	CorrectCommission	2.030439	0.755181	0	1
273.050293	0.792158	city	10	1	0.744731	0.744731	0	1	0	0	CorrectCommission	0.391977	0.785653	0	1
273.842499	0.792277	city	3	1	0.695982	0.695982	0	1	0	0	CorrectCommission	0.143354	0.811599	0	1
274.634766	0.792249	city	2	1	0.704230	0.704230	0	1	0	0	CorrectCommission	0.052781	0.832141	0	1
275.427063	0.792331	city	4	1	0.645784	0.645784	0	1	0	0	CorrectCommission	0.694591	0.846452	0	1
276.219421	0.792417	city	5	1	0.607688	0.607688	0	1	0	0	CorrectCommission	1.112932	0.853868	0	1
277.011719	0.792155	city	9	1	0.893298	0.893298	0	1	0	0	CorrectCommission	2.023426	0.854061	0	1
277.803986	0.792374	city	2	1	0.902465	0.902465	0	1	0	0	CorrectCommission	2.124100	0.847204	0	1
278.596191	0.792057	city	10	1	0.794290	0.794290	0	1	0	0	CorrectCommission	0.936195	0.834095	0	1
279.388367	0.792285	city	2	1	0.744771	0.744771	0	1	0	0	CorrectCommission	0.392414	0.816135	0	1
280.180634	0.792238	city	9	1	0.746263	0.746263	0	1	0	0	CorrectCommission	0.408791	0.795182	0	1
280.972870	0.792271	city	4	1	0.761139	0.761139	0	1	0	0	CorrectCommission	0.572150	0.773327	0	1
281.765167	0.792302	city	1	1	0.745064	0.745064	0	1	0	0	CorrectCommission	0.395634	0.752656	1	1
282.557434	0.792217	city	7	1	0.759600	0.759600	0	1	0	0	CorrectCommission	0.555256	0.734993	1	1
283.349670	0.792269	city	5	1	0.794519	0.794519	0	1	0	0	CorrectCommission	0.938712	0.721698	1	1
284.141937	0.792262	city	10	1	0.695240	0.695240	0	1	0	0	CorrectCommission	0.151500	0.713556	1	1
284.934235	0.792373	city	7	1	0.794439	0.794439	0	1	0	0	CorrectCommission	0.937827	0.710805	1	1
285.726501	0.792156	city	2	1	0.794293	0.794293	0	1	0	0	CorrectCommission	0.936224	0.713103	1	1
286.518738	0.792268	mountain	9	0	0.000000	0.697649	1	0	0	0	CorrectOmission	0.125044	0.719682	1	1
287.311127	0.792561	city	1	1	0.612481	0.612481	0	1	0	0	CorrectCommission	1.060299	0.729464	1	1
288.103424	0.791982	city	10	1	0.646761	0.646761	0	1	0	0	CorrectCommission	0.683867	0.741126	1	1
288.895538	0.792253	city	1	1	0.794429	0.794429	0	1	0	0	CorrectCommission	0.937720	0.753225	0	1
289.687805	0.792289	city	6	1	0.812781	0.812781	0	1	0	0	CorrectCommission	1.139246	0.764241	0	1
290.480164	0.792452	city	5	1	0.744794	0.744794	0	1	0	0	CorrectCommission	0.392669	0.772713	0	1
291.272461	0.792103	city	7	1	0.747023	0.747023	0	1	0	0	CorrectCommission	0.417146	0.777320	0	1
292.064728	0.792427	city	4	1	0.713759	0.713759	0	1	0	0	CorrectCommission	0.051860	0.776963	0	1
292.856964	0.792052	mountain	7	0	0.000000	0.845468	1	0	0	0	CorrectOmission	1.498192	0.770912	0	1
293.649109	0.792263	city	2	1	0.893703	0.893703	0	1	0	0	CorrectCommission	2.027875	0.758893	0	1
294.441376	0.792259	city	3	1	0.610017	0.610017	0	1	0	0	CorrectCommission	1.087358	0.741216	1	1
295.233673	0.792322	mountain	6	0	0.000000	0.646676	1	0	0	0	CorrectOmission	0.684796	0.718834	1	1
296.025940	0.792211	city	3	1	0.744999	0.744999	0	1	0	0	CorrectCommission	0.394911	0.693239	1	1
296.818268	0.792479	city	1	1	0.646304	0.646304	0	1	0	0	CorrectCommission	0.688887	0.666330	1	1
297.610596	0.792156	city	8	1	0.744607	0.744607	0	1	0	0	CorrectCommission	0.390610	0.640169	1	1
298.402802	0.792265	city	6	1	0.695322	0.695322	0	1	0	0	CorrectCommission	0.150597	0.616757	1	1
299.195007	0.792158	city	5	1	0.751807	0.751807	0	1	0	0	CorrectCommission	0.469675	0.597789	1	1
299.987335	0.792481	city	7	1	0.646056	0.646056	0	1	0	0	CorrectCommission	0.691611	0.584437	1	1
300.779633	0.792087	mountain	4	0	0.000000	0.680327	1	0	0	0	CorrectOmission	0.315266	0.577236	1	1
301.571808	0.792263	city	9	1	0.711437	0.711437	0	1	0	0	CorrectCommission	0.026359	0.576088	1	1
302.364136	0.792444	city	6	1	0.596200	0.596200	0	1	0	0	CorrectCommission	1.239087	0.580234	1	1
303.156403	0.792053	city	7	1	0.794170	0.794170	0	1	0	0	CorrectCommission	0.934880	0.588346	1	1
303.948547	0.792261	city	6	1	0.713311	0.713311	0	1	0	0	CorrectCommission	0.046938	0.598729	1	1
304.740936	0.792480	mountain	2	0	0.000000	0.712889	1	0	0	0	CorrectOmission	0.042309	0.609478	1	1
305.533173	0.792046	city	5	1	0.753148	0.753148	0	1	0	0	CorrectCommission	0.484404	0.618672	1	0
306.325409	0.792374	city	8	1	0.794330	0.794330	0	1	0	0	CorrectCommission	0.936634	0.624610	1	0
307.117676	0.792173	mountain	4	0	0.000000	0.818837	1	0	0	0	CorrectOmission	1.205753	0.626008	1	0
307.909943	0.792361	mountain	8	0	0.000000	0.821901	1	0	0	0	CorrectOmission	1.239396	0.622178	1	0
308.702240	0.792262	city	3	1	0.798752	0.798752	0	1	0	0	CorrectCommission	0.985194	0.613099	1	0
309.494568	0.792372	city	1	1	0.744622	0.744622	0	1	0	0	CorrectCommission	0.390781	0.599423	1	0
310.286835	0.792156	city	7	1	0.794056	0.794056	0	1	0	0	CorrectCommission	0.933621	0.582320	1	0
311.078979	0.792168	city	5	1	0.695237	0.695237	0	1	0	0	CorrectCommission	0.151531	0.563274	1	0
311.871246	0.792322	city	1	1	0.695234	0.695234	0	1	0	0	CorrectCommission	0.151567	0.543949	1	0
312.663605	0.792413	city	6	1	0.700044	0.700044	0	1	0	0	CorrectCommission	0.098750	0.525934	1	0
313.455933	0.792266	mountain	5	0	0.000000	0.674266	1	0	0	0	CorrectOmission	0.381820	0.510612	1	0
314.248138	0.792155	city	9	1	0.646569	0.646569	0	1	0	0	CorrectCommission	0.685969	0.499071	1	0
315.040344	0.792207	city	4	1	0.645620	0.645620	0	1	0	0	CorrectCommission	0.696395	0.492089	1	0
315.832550	0.792217	mountain	3	0	0.000000	0.727620	1	0	0	0	CorrectOmission	0.204067	0.490179	1	0
316.624786	0.792261	city	5	1	0.794288	0.794288	0	1	0	0	CorrectCommission	0.936169	0.493588	1	0
317.417053	0.792268	city	6	1	0.747344	0.747344	0	1	0	0	CorrectCommission	0.420662	0.502307	1	0
318.209320	0.792264	city	4	1	0.745681	0.745681	0	1	0	0	CorrectCommission	0.402410	0.516076	1	0
319.001678	0.792481	city	10	1	0.708182	0.708182	0	1	0	0	CorrectCommission	0.009385	0.534314	1	0
319.793945	0.792045	city	6	1	0.754311	0.754311	0	1	0	0	CorrectCommission	0.497174	0.556102	1	0
320.586212	0.792484	city	2	1	0.744915	0.744915	0	1	0	0	CorrectCommission	0.393996	0.580161	1	0
321.378479	0.792046	city	1	1	0.762767	0.762767	0	1	0	0	CorrectCommission	0.590031	0.604984	1	0
322.170624	0.792270	mountain	7	0	0.000000	0.748451	1	0	0	0	CorrectOmission	0.432818	0.628947	1	0
322.962921	0.792278	city	4	1	0.744788	0.744788	0	1	0	0	CorrectCommission	0.392603	0.650550	1	0
323.755280	0.792464	city	6	1	0.794603	0.794603	0	1	0	0	CorrectCommission	0.939628	0.668647	1	0
324.547546	0.792049	city	1	1	0.893278	0.893278	0	1	0	0	CorrectCommission	2.023215	0.682655	1	0
325.339752	0.792370	mountain	8	0	0.000000	0.835404	1	0	0	0	CorrectOmission	1.387679	0.692650	1	0
326.132019	0.792160	city	1	1	0.744672	0.744672	0	1	0	0	CorrectCommission	0.391327	0.699411	1	0
326.924286	0.792372	city	3	1	0.744776	0.744776	0	1	0	0	CorrectCommission	0.392465	0.704198	1	0
327.716644	0.792373	city	2	1	0.752438	0.752438	0	1	0	0	CorrectCommission	0.476608	0.708425	1	0
328.508850	0.792045	city	6	1	0.662505	0.662505	0	1	0	0	CorrectCommission	0.510977	0.713344	1	0
329.301086	0.792375	mountain	7	0	0.000000	0.654680	1	0	0	0	CorrectOmission	0.596908	0.719698	1	0
330.093353	0.792197	city	3	1	0.696912	0.696912	0	1	0	0	CorrectCommission	0.133139	0.727478	1	0
330.885559	0.792232	city	8	1	0.757152	0.757152	0	1	0	0	CorrectCommission	0.528375	0.735842	1	0
331.677826	0.792260	city	10	1	0.711714	0.711714	0	1	0	0	CorrectCommission	0.029404	0.743230	1	0
332.470093	0.792269	city	1	1	0.843839	0.843839	0	1	0	0	CorrectCommission	1.480305	0.747663	1	0
333.262360	0.792256	city	6	1	0.843783	0.843783	0	1	0	0	CorrectCommission	1.479689	0.747116	1	0
334.054596	0.792268	city	5	1	0.800011	0.800011	0	1	0	0	CorrectCommission	0.999022	0.739978	1	0
334.846863	0.792265	city	2	1	0.843955	0.843955	0	1	0	0	CorrectCommission	1.481583	0.725426	1	0
335.639130	0.792269	city	10	1	0.803707	0.803707	0	1	0	0	CorrectCommission	1.039605	0.703613	1	0
336.431396	0.792259	city	2	1	0.794675	0.794675	0	1	0	0	CorrectCommission	0.940420	0.675760	1	0
337.223663	0.792267	city	9	1	0.744830	0.744830	0	1	0	0	CorrectCommission	0.393062	0.643978	1	0
338.016052	0.792478	city	8	1	0.695928	0.695928	0	1	0	0	CorrectCommission	0.143947	0.610996	1	0
338.808289	0.792044	city	7	1	0.695108	0.695108	0	1	0	0	CorrectCommission	0.152951	0.579766	1	0
339.600464	0.792266	city	9	1	0.745082	0.745082	0	1	0	0	CorrectCommission	0.395825	0.553085	1	0
340.392822	0.792483	city	5	1	0.695283	0.695283	0	1	0	0	CorrectCommission	0.151032	0.533229	1	0
341.185089	0.792048	mountain	10	1	0.794560	0.794560	0	0	1	0	CommissionError	0.939156	0.521733	1	0
341.977264	0.792285	city	10	1	0.695270	0.695270	0	1	0	0	CorrectCommission	0.151168	0.519198	1	0
342.769623	0.792461	city	5	1	0.700986	0.700986	0	1	0	0	CorrectCommission	0.088409	0.525359	1	0
343.562012	0.792266	city	4	1	0.698425	0.698425	0	1	0	0	CorrectCommission	0.116525	0.539140	1	0
344.354279	0.792264	city	5	1	0.794107	0.794107	0	1	0	0	CorrectCommission	0.934188	0.558812	1	0
345.146423	0.792051	city	4	1	0.794235	0.794235	0	1	0	0	CorrectCommission	0.935587	0.582217	1	0
345.938568	0.792263	city	10	1	0.695518	0.695518	0	1	0	0	CorrectCommission	0.148450	0.607059	1	0
346.730865	0.792329	mountain	8	0	0.000000	0.640245	1	0	0	0	CorrectOmission	0.755419	0.631200	1	0
347.523132	0.792201	city	8	1	0.663790	0.663790	0	1	0	0	CorrectCommission	0.496868	0.652832	1	0
348.315491	0.792479	city	9	1	0.801526	0.801526	0	1	0	0	CorrectCommission	1.015658	0.670732	1	0
349.107788	0.792157	city	1	1	0.810062	0.810062	0	1	0	0	CorrectCommission	1.109392	0.684387	1	0
349.899963	0.792184	city	6	1	0.795174	0.795174	0	1	0	0	CorrectCommission	0.945906	0.694014	1	0
350.692291	0.792452	city	5	1	0.794258	0.794258	0	1	0	0	CorrectCommission	0.935846	0.700529	1	0
351.484528	0.792046	mountain	10	1	0.794121	0.794121	0	0	1	0	CommissionError	0.934337	0.705421	1	0
352.276703	0.792266	city	8	1	0.645751	0.645751	0	1	0	0	CorrectCommission	0.694951	0.710458	1	0
353.068970	0.792277	city	4	1	0.695417	0.695417	0	1	0	0	CorrectCommission	0.149564	0.717417	1	0
353.861298	0.792363	city	9	1	0.701974	0.701974	0	1	0	0	CorrectCommission	0.077559	0.727869	1	0
354.653595	0.792263	city	5	1	0.652496	0.652496	0	1	0	0	CorrectCommission	0.620888	0.742930	1	0
355.445923	0.792373	city	1	1	0.744711	0.744711	0	1	0	0	CorrectCommission	0.391757	0.763133	0	0
356.238159	0.792098	mountain	2	0	0.000000	0.784448	1	0	0	0	CorrectOmission	0.828114	0.788472	0	0
357.030426	0.792433	city	10	1	0.794264	0.794264	0	1	0	0	CorrectCommission	0.935908	0.818442	0	0
357.822754	0.792265	city	5	1	0.796718	0.796718	0	1	0	0	CorrectCommission	0.962861	0.852214	0	0
358.614929	0.792048	city	7	1	0.854013	0.854013	0	1	0	0	CorrectCommission	1.592030	0.888735	0	0
359.407074	0.792267	city	6	1	0.794313	0.794313	0	1	0	0	CorrectCommission	0.936447	0.926846	0	0
360.199371	0.792291	city	8	1	0.745282	0.745282	0	1	0	0	CorrectCommission	0.398023	0.965340	0	0
360.991638	0.792266	city	7	1	0.744767	0.744767	0	1	0	0	CorrectCommission	0.392364	1.002948	0	0
361.783905	0.792276	city	3	1	0.893745	0.893745	0	1	0	0	CorrectCommission	2.028338	1.038264	0	0
362.576172	0.792221	city	1	1	0.803669	0.803669	0	1	0	0	CorrectCommission	1.039190	1.069690	0	0
363.368500	0.792482	mountain	7	0	0.000000	0.789259	1	0	0	0	CorrectOmission	0.880944	1.095535	0	0
364.160767	0.792052	city	3	1	0.794223	0.794223	0	1	0	0	CorrectCommission	0.935460	1.114024	0	0
364.952942	0.792260	city	7	1	0.762272	0.762272	0	1	0	0	CorrectCommission	0.584599	1.123504	0	1
365.745209	0.792264	city	10	1	0.794317	0.794317	0	1	0	0	CorrectCommission	0.936487	1.122696	0	1
366.537506	0.792376	city	7	1	0.992431	0.992431	0	1	0	0	CorrectCommission	3.112032	1.110962	0	1
367.329834	0.792265	city	9	1	0.497452	0.497452	0	1	0	0	CorrectCommission	2.323471	1.088505	0	1
368.122040	0.792156	city	3	1	0.695159	0.695159	0	1	0	0	CorrectCommission	0.152387	1.056591	0	1
368.914246	0.792265	city	4	1	0.844001	0.844001	0	1	0	0	CorrectCommission	1.482089	1.017534	0	1
369.706512	0.792266	city	6	1	0.849177	0.849177	0	1	0	0	CorrectCommission	1.538923	0.974368	0	1
370.498901	0.792481	city	9	1	0.711509	0.711509	0	1	0	0	CorrectCommission	0.027147	0.930612	0	1
371.291199	0.792155	city	4	1	0.744700	0.744700	0	1	0	0	CorrectCommission	0.391632	0.889865	0	1
372.083374	0.792169	city	9	1	0.744950	0.744950	0	1	0	0	CorrectCommission	0.394377	0.855283	0	1
372.875610	0.792274	city	7	1	0.796182	0.796182	0	1	0	0	CorrectCommission	0.956970	0.829288	0	1
373.667908	0.792349	city	1	1	0.745957	0.745957	0	1	0	0	CorrectCommission	0.405436	0.813261	0	1
374.460266	0.792375	city	6	1	0.751238	0.751238	0	1	0	0	CorrectCommission	0.463427	0.807511	0	1
375.252594	0.792270	city	7	1	0.701610	0.701610	0	1	0	0	CorrectCommission	0.081547	0.811303	0	1
376.044800	0.792152	city	3	1	0.794100	0.794100	0	1	0	0	CorrectCommission	0.934104	0.823043	0	1
376.836945	0.792155	city	4	1	0.843727	0.843727	0	1	0	0	CorrectCommission	1.479079	0.840530	0	1
377.629181	0.792315	city	6	1	0.807376	0.807376	0	1	0	0	CorrectCommission	1.079890	0.861277	0	1
378.421570	0.792433	mountain	8	0	0.000000	0.792858	1	0	0	0	CorrectOmission	0.920465	0.882791	0	1
379.213806	0.792053	city	3	1	0.794293	0.794293	0	1	0	0	CorrectCommission	0.936223	0.902719	0	1
380.005951	0.792257	city	5	1	0.805800	0.805800	0	1	0	0	CorrectCommission	1.062586	0.919019	0	1
380.798218	0.792268	city	1	1	0.794290	0.794290	0	1	0	0	CorrectCommission	0.936199	0.930016	0	1
381.590485	0.792266	city	3	1	0.794260	0.794260	0	1	0	0	CorrectCommission	0.935862	0.934439	0	1
382.382751	0.792261	city	6	1	0.745089	0.745089	0	1	0	0	CorrectCommission	0.395908	0.931437	0	1
383.175079	0.792375	city	10	1	0.745255	0.745255	0	1	0	0	CorrectCommission	0.397726	0.920637	0	1
383.967438	0.792372	mountain	9	1	0.947669	0.947669	0	0	1	0	CommissionError	2.620496	0.902122	0	1
384.759674	0.792073	mountain	5	0	0.000000	0.883894	1	0	0	0	CorrectOmission	1.920166	0.876473	0	1
385.551849	0.792271	city	2	1	0.750702	0.750702	0	1	0	0	CorrectCommission	0.457546	0.844895	0	1
386.344086	0.792236	city	5	1	0.744865	0.744865	0	1	0	0	CorrectCommission	0.393448	0.809097	0	1
387.136353	0.792262	city	8	1	0.745255	0.745255	0	1	0	0	CorrectCommission	0.397726	0.771148	0	1
387.928619	0.792268	city	2	1	0.794461	0.794461	0	1	0	0	CorrectCommission	0.938072	0.733382	1	1
388.720886	0.792280	city	3	1	0.745142	0.745142	0	1	0	0	CorrectCommission	0.396482	0.698179	1	1
389.513214	0.792354	city	9	1	0.753907	0.753907	0	1	0	0	CorrectCommission	0.492735	0.667821	1	1
390.305450	0.792157	city	3	1	0.805230	0.805230	0	1	0	0	CorrectCommission	1.056331	0.644264	1	1
391.097656	0.792264	city	1	1	0.745200	0.745200	0	1	0	0	CorrectCommission	0.397123	0.629014	1	1
391.889923	0.792266	mountain	1	0	0.000000	0.718411	1	0	0	0	CorrectOmission	0.102946	0.623030	1	1
392.682220	0.792285	city	5	1	0.695240	0.695240	0	1	0	0	CorrectCommission	0.151503	0.626659	1	1
393.474487	0.792243	city	8	1	0.646063	0.646063	0	1	0	0	CorrectCommission	0.691530	0.639560	1	1
394.266724	0.792264	city	10	1	0.648090	0.648090	0	1	0	0	CorrectCommission	0.669264	0.660769	1	1
395.059052	0.792372	city	1	1	0.744778	0.744778	0	1	0	0	CorrectCommission	0.392485	0.688765	1	1
395.851318	0.792160	city	5	1	0.744663	0.744663	0	1	0	0	CorrectCommission	0.391224	0.721610	1	1
396.643524	0.792267	city	6	1	0.794430	0.794430	0	1	0	0	CorrectCommission	0.937736	0.757111	0	1
397.435883	0.792477	city	5	1	0.794267	0.794267	0	1	0	0	CorrectCommission	0.935942	0.793006	0	1
398.228149	0.792052	city	3	1	0.843588	0.843588	0	1	0	0	CorrectCommission	1.477551	0.827174	0	1
399.020325	0.792264	city	5	1	0.794426	0.794426	0	1	0	0	CorrectCommission	0.937682	0.857823	0	1
399.812592	0.792262	city	9	1	0.759990	0.759990	0	1	0	0	CorrectCommission	0.559531	0.883710	0	1
400.604828	0.792266	city	7	1	0.753899	0.753899	0	1	0	0	CorrectCommission	0.492645	0.904229	0	1
401.397217	0.792481	city	2	1	0.846281	0.846281	0	1	0	0	CorrectCommission	1.507117	0.919455	0	1
402.189514	0.792117	city	6	1	0.848958	0.848958	0	1	0	0	CorrectCommission	1.536519	0.930137	0	1
402.981659	0.792195	city	4	1	0.794454	0.794454	0	1	0	0	CorrectCommission	0.937993	0.937639	0	1
403.774017	0.792481	city	3	1	0.794297	0.794297	0	1	0	0	CorrectCommission	0.936276	0.943714	0	1
404.566284	0.792051	mountain	10	0	0.000000	0.817904	1	0	0	0	CorrectOmission	1.195511	0.950169	0	1
405.358551	0.792480	city	6	1	0.794271	0.794271	0	1	0	0	CorrectCommission	0.935987	0.958575	0	1
406.150818	0.792078	city	9	1	0.652394	0.652394	0	1	0	0	CorrectCommission	0.622008	0.969904	0	1
406.942963	0.792235	city	5	1	0.709524	0.709524	0	1	0	0	CorrectCommission	0.005349	0.984307	0	1
407.735229	0.792266	city	6	1	0.794640	0.794640	0	1	0	0	CorrectCommission	0.940032	1.000997	0	1
408.527496	0.792264	city	3	1	0.700123	0.700123	0	1	0	0	CorrectCommission	0.097886	1.018335	0	1
409.319763	0.792264	city	5	1	0.844282	0.844282	0	1	0	0	CorrectCommission	1.485175	1.034161	0	1
410.112122	0.792480	city	8	1	0.794517	0.794517	0	1	0	0	CorrectCommission	0.938690	1.046236	0	1
410.904388	0.792046	mountain	2	0	0.000000	0.851949	1	0	0	0	CorrectOmission	1.569359	1.052853	0	1
411.696533	0.792263	mountain	8	0	0.000000	0.930363	1	0	0	0	CorrectOmission	2.430455	1.053259	0	1
412.488800	0.792266	city	7	1	0.943549	0.943549	0	1	0	0	CorrectCommission	2.575248	1.048052	0	1
413.281097	0.792306	city	9	1	0.805292	0.805292	0	1	0	0	CorrectCommission	1.057010	1.039244	0	1
414.073425	0.792332	city	5	1	0.745078	0.745078	0	1	0	0	CorrectCommission	0.395780	1.030065	0	1
414.865784	0.792374	city	7	1	0.649453	0.649453	0	1	0	0	CorrectCommission	0.654299	1.024498	0	1
415.657990	0.792051	city	1	1	0.700629	0.700629	0	1	0	0	CorrectCommission	0.092326	1.026648	0	1
416.450134	0.792262	city	7	1	0.657238	0.657238	0	1	0	0	CorrectCommission	0.568809	1.040131	0	1
417.242401	0.792281	city	5	1	0.699479	0.699479	0	1	0	0	CorrectCommission	0.104949	1.067480	0	1
418.034668	0.792249	city	3	1	0.744896	0.744896	0	1	0	0	CorrectCommission	0.393779	1.109821	0	1
418.827026	0.792481	city	10	1	0.596150	0.596150	0	1	0	0	CorrectCommission	1.239635	1.166648	0	1
419.619293	0.792054	city	4	1	0.645613	0.645613	0	1	0	0	CorrectCommission	0.696472	1.235944	0	1
420.411469	0.792257	city	6	1	0.458327	0.458327	0	1	0	0	CorrectCommission	2.753111	1.314451	0	1
421.203735	0.792269	city	1	1	0.596831	0.596831	0	1	0	0	CorrectCommission	1.232164	1.397908	0	1
421.996094	0.792477	city	7	1	0.547224	0.547224	0	1	0	0	CorrectCommission	1.776911	1.481538	0	1
422.788422	0.792157	city	10	1	0.546526	0.546526	0	1	0	0	CorrectCommission	1.784571	1.560243	0	1
423.580566	0.792155	city	5	1	0.546725	0.546725	0	1	0	0	CorrectCommission	1.782390	1.628972	0	1
424.372772	0.792267	city	8	1	0.696395	0.696395	0	1	0	0	CorrectCommission	0.138820	1.682985	0	0
425.165161	0.792480	city	7	1	0.849432	0.849432	0	1	0	0	CorrectCommission	1.541728	1.718158	0	0
425.957428	0.792053	city	8	1	0.992261	0.992261	0	1	0	0	CorrectCommission	3.110175	1.731267	0	0
426.749573	0.792263	city	3	1	0.942907	0.942907	0	1	0	0	CorrectCommission	2.568197	1.720266	0	0
427.541840	0.792269	city	5	1	1.045866	1.045866	0	1	0	0	CorrectCommission	3.698818	1.684656	0	0
428.334167	0.792368	mountain	7	0	0.000000	0.978869	1	0	0	0	CorrectOmission	2.963108	1.625480	0	0
429.126526	0.792372	city	4	1	0.811936	0.811936	0	1	0	0	CorrectCommission	1.129967	1.545357	0	0
429.918854	0.792264	city	9	1	0.615085	0.615085	0	1	0	0	CorrectCommission	1.031709	1.448229	0	0
430.710999	0.792048	city	4	1	0.611913	0.611913	0	1	0	0	CorrectCommission	1.066535	1.338915	0	0
431.503174	0.792273	city	1	1	0.646768	0.646768	0	1	0	0	CorrectCommission	0.683784	1.222645	0	0
432.295441	0.792256	mountain	8	0	0.000000	0.768146	1	0	0	0	CorrectOmission	0.649099	1.104598	0	0
433.087708	0.792266	city	10	1	0.844681	0.844681	0	1	0	0	CorrectCommission	1.489550	0.989453	0	0
433.879974	0.792263	city	2	1	0.745007	0.745007	0	1	0	0	CorrectCommission	0.395003	0.881092	0	0
434.672241	0.792327	city	5	1	0.794668	0.794668	0	1	0	0	CorrectCommission	0.940341	0.782510	0	0
435.464508	0.792202	city	7	1	0.753774	0.753774	0	1	0	0	CorrectCommission	0.491281	0.695730	1	0
436.256744	0.792264	city	6	1	0.713754	0.713754	0	1	0	0	CorrectCommission	0.051809	0.621889	1	0
437.049011	0.792268	city	2	1	0.646453	0.646453	0	1	0	0	CorrectCommission	0.687248	0.561379	1	0
437.841309	0.792286	city	6	1	0.713017	0.713017	0	1	0	0	CorrectCommission	0.043711	0.513904	1	0
438.633575	0.792245	city	5	1	0.744795	0.744795	0	1	0	0	CorrectCommission	0.392678	0.478759	1	0
439.425812	0.792266	city	9	1	0.707985	0.707985	0	1	0	0	CorrectCommission	0.011550	0.454888	1	0
440.218079	0.792260	city	4	1	0.704040	0.704040	0	1	0	0	CorrectCommission	0.054872	0.441065	1	0
441.010406	0.792374	city	10	1	0.596239	0.596239	0	1	0	0	CorrectCommission	1.238663	0.435984	1	0
441.802673	0.792157	city	5	1	0.695331	0.695331	0	1	0	0	CorrectCommission	0.150501	0.438357	1	0
442.594879	0.792262	city	9	1	0.646055	0.646055	0	1	0	0	CorrectCommission	0.691617	0.446965	1	0
443.387177	0.792372	city	3	1	0.695374	0.695374	0	1	0	0	CorrectCommission	0.150027	0.460590	1	0
444.179504	0.792267	city	8	1	0.695290	0.695290	0	1	0	0	CorrectCommission	0.150957	0.478088	1	0
444.971741	0.792183	city	6	1	0.645943	0.645943	0	1	0	0	CorrectCommission	0.692851	0.498277	1	0
445.763947	0.792239	city	5	1	0.695225	0.695225	0	1	0	0	CorrectCommission	0.151662	0.519937	1	0
446.556213	0.792319	mountain	7	1	0.713005	0.713005	0	0	1	0	CommissionError	0.043579	0.541835	1	0
447.348480	0.792213	city	1	1	0.547088	0.547088	0	1	0	0	CorrectCommission	1.778402	0.562685	1	0
448.140717	0.792261	city	5	1	0.646149	0.646149	0	1	0	0	CorrectCommission	0.690581	0.581153	1	0
448.932983	0.792269	city	4	1	0.758746	0.758746	0	1	0	0	CorrectCommission	0.545875	0.595997	1	0
449.725372	0.792479	city	9	1	0.712729	0.712729	0	1	0	0	CorrectCommission	0.040554	0.606073	1	0
450.517639	0.792049	city	4	1	0.646114	0.646114	0	1	0	0	CorrectCommission	0.690964	0.610440	1	0
451.309906	0.792479	city	10	1	0.646198	0.646198	0	1	0	0	CorrectCommission	0.690049	0.608444	1	0
452.102142	0.792047	city	3	1	0.596013	0.596013	0	1	0	0	CorrectCommission	1.241144	0.599813	1	0
452.894318	0.792266	city	4	1	0.645733	0.645733	0	1	0	0	CorrectCommission	0.695148	0.584761	1	0
453.686584	0.792265	city	1	1	0.796893	0.796893	0	1	0	0	CorrectCommission	0.964775	0.564053	1	0
454.478851	0.792264	city	4	1	0.645759	0.645759	0	1	0	0	CorrectCommission	0.694872	0.538962	1	0
455.271118	0.792267	city	5	1	0.695584	0.695584	0	1	0	0	CorrectCommission	0.147722	0.511255	1	0
456.063385	0.792261	city	6	1	0.744856	0.744856	0	1	0	0	CorrectCommission	0.393350	0.483024	1	0
456.855652	0.792270	city	10	1	0.647379	0.647379	0	1	0	0	CorrectCommission	0.677082	0.456493	1	0
457.647919	0.792265	city	4	1	0.696319	0.696319	0	1	0	0	CorrectCommission	0.139654	0.433837	1	0
458.440155	0.792261	city	2	1	0.698734	0.698734	0	1	0	0	CorrectCommission	0.113135	0.416905	1	0
459.232422	0.792267	city	5	1	0.744774	0.744774	0	1	0	0	CorrectCommission	0.392446	0.407068	1	0
460.024689	0.792261	mountain	8	0	0.000000	0.727864	1	0	0	0	CorrectOmission	0.206757	0.405037	1	0
460.816956	0.792265	city	8	1	0.695522	0.695522	0	1	0	0	CorrectCommission	0.148407	0.410821	1	0
461.609222	0.792269	city	1	1	0.695263	0.695263	0	1	0	0	CorrectCommission	0.151249	0.423715	1	0
462.401489	0.792264	mountain	5	0	0.000000	0.728277	1	0	0	0	CorrectOmission	0.211282	0.442394	1	0
463.193756	0.792266	city	4	1	0.744844	0.744844	0	1	0	0	CorrectCommission	0.393214	0.465116	1	0
463.986023	0.792263	city	8	1	0.695247	0.695247	0	1	0	0	CorrectCommission	0.151424	0.489973	1	0
464.778290	0.792261	city	5	1	0.645754	0.645754	0	1	0	0	CorrectCommission	0.694927	0.515142	1	0
465.570587	0.792376	city	2	1	0.555348	0.555348	0	1	0	0	CorrectCommission	1.687696	0.539092	1	0
466.362885	0.792172	city	8	1	0.597175	0.597175	0	1	0	0	CorrectCommission	1.228382	0.560812	1	0
467.155121	0.792302	city	4	1	0.712502	0.712502	0	1	0	0	CorrectCommission	0.038053	0.579909	1	0
467.947388	0.792259	city	9	1	0.646170	0.646170	0	1	0	0	CorrectCommission	0.690353	0.596562	1	0
468.739624	0.792215	city	7	1	0.716814	0.716814	0	1	0	0	CorrectCommission	0.085403	0.611404	1	0
469.531860	0.792269	city	1	1	0.745248	0.745248	0	1	0	0	CorrectCommission	0.397652	0.625408	1	0
470.324158	0.792310	city	6	1	0.794827	0.794827	0	1	0	0	CorrectCommission	0.942093	0.639702	1	0
471.116455	0.792278	city	7	1	0.745191	0.745191	0	1	0	0	CorrectCommission	0.397026	0.655441	1	0
471.908691	0.792219	mountain	3	1	0.695384	0.695384	0	0	1	0	CommissionError	0.149920	0.673763	1	0
472.700958	0.792315	mountain	10	1	0.550410	0.550410	0	0	1	0	CommissionError	1.741924	0.695738	1	0
473.493225	0.792199	city	9	1	0.661257	0.661257	0	1	0	0	CorrectCommission	0.524680	0.722319	1	0
474.285583	0.792482	city	5	1	0.759071	0.759071	0	1	0	0	CorrectCommission	0.549447	0.754451	0	0
475.077881	0.792157	city	1	1	0.794099	0.794099	0	1	0	0	CorrectCommission	0.934099	0.793026	0	0
475.870056	0.792159	city	6	1	0.661295	0.661295	0	1	0	0	CorrectCommission	0.524264	0.838936	0	0
476.662262	0.792298	mountain	4	0	0.000000	0.665935	1	0	0	0	CorrectOmission	0.473310	0.893106	0	0
477.454651	0.792445	city	2	1	0.697512	0.697512	0	1	0	0	CorrectCommission	0.126551	0.956539	0	0
478.246887	0.792050	city	1	1	0.645519	0.645519	0	1	0	0	CorrectCommission	0.697499	1.030399	0	0
479.039062	0.792264	city	2	1	0.550788	0.550788	0	1	0	0	CorrectCommission	1.737771	1.115966	0	0
479.831299	0.792261	city	10	1	0.951220	0.951220	0	1	0	0	CorrectCommission	2.659483	1.214697	0	0
480.623566	0.792265	city	9	1	0.695243	0.695243	0	1	0	0	CorrectCommission	0.151468	1.328141	0	0
481.415833	0.792265	city	4	1	0.613998	0.613998	0	1	0	0	CorrectCommission	1.043649	1.457843	0	0
482.208160	0.792343	city	1	1	0.596276	0.596276	0	1	0	0	CorrectCommission	1.238257	1.604952	0	0
483.000519	0.792404	city	6	1	0.613722	0.613722	0	1	0	0	CorrectCommission	1.046670	1.770001	0	0
483.792755	0.792046	city	3	1	0.546537	0.546537	0	1	0	0	CorrectCommission	1.784449	1.952630	0	0
484.584961	0.792374	city	10	1	0.546878	0.546878	0	1	0	0	CorrectCommission	1.780710	2.151369	0	0
485.377289	0.792264	city	8	1	0.546629	0.546629	0	1	0	0	CorrectCommission	1.783444	2.363559	0	0
486.169495	0.792155	city	1	1	0.546597	0.546597	0	1	0	0	CorrectCommission	1.783788	2.585429	0	0
486.961761	0.792376	city	9	1	0.452929	0.452929	0	1	0	0	CorrectCommission	2.812387	2.812387	0	0
