onset	duration	trial_type	image_type	Press	ReactionTime	ReactionTime_Interpolated	CorrectOmission	CorrectCommission	CommissionError	OmissionError	response_type	nonsmoothVarianceTimeCourse	VarianceTimeCourse	In_the_Zone	Reward_trial
8.433807	0.792266	city	8	1	0.700112	0.700112	0	1	0	0	CorrectCommission	0.226534	0.226534	1	1
9.226082	0.792282	city	9	1	0.563256	0.563256	0	1	0	0	CorrectCommission	1.246971	0.459207	1	1
10.018346	0.792245	city	2	1	0.497200	0.497200	0	1	0	0	CorrectCommission	1.739503	0.686790	0	1
10.810601	0.792267	mountain	4	1	0.497261	0.497261	0	0	1	0	CommissionError	1.739049	0.904574	0	1
11.602921	0.792374	city	8	1	0.596224	0.596224	0	1	0	0	CorrectCommission	1.001151	1.108553	0	1
12.395295	0.792373	city	9	1	0.546924	0.546924	0	1	0	0	CorrectCommission	1.368749	1.295611	0	1
13.187613	0.792264	city	7	1	0.503972	0.503972	0	1	0	0	CorrectCommission	1.689011	1.463577	0	1
13.979771	0.792050	city	4	1	0.463570	0.463570	0	1	0	0	CorrectCommission	1.990255	1.611180	0	1
14.771981	0.792370	city	9	1	0.457586	0.457586	0	1	0	0	CorrectCommission	2.034877	1.737939	0	1
15.564298	0.792264	city	2	1	0.447613	0.447613	0	1	0	0	CorrectCommission	2.109241	1.844018	0	1
16.356508	0.792157	city	6	1	0.447657	0.447657	0	1	0	0	CorrectCommission	2.108913	1.930073	0	1
17.148722	0.792268	city	9	1	0.416633	0.416633	0	1	0	0	CorrectCommission	2.340235	1.997173	0	1
17.940985	0.792260	city	1	1	0.447696	0.447696	0	1	0	0	CorrectCommission	2.108618	2.046736	0	1
18.733250	0.792267	city	6	1	0.398522	0.398522	0	1	0	0	CorrectCommission	2.475275	2.080513	0	1
19.525515	0.792266	city	7	1	0.407976	0.407976	0	1	0	0	CorrectCommission	2.404783	2.100592	0	1
20.317814	0.792330	city	9	1	0.448734	0.448734	0	1	0	0	CorrectCommission	2.100879	2.109351	0	1
21.110079	0.792199	city	5	1	0.398568	0.398568	0	1	0	0	CorrectCommission	2.474936	2.109438	0	1
21.902363	0.792370	city	9	1	0.455633	0.455633	0	1	0	0	CorrectCommission	2.049443	2.103620	0	1
22.694653	0.792207	city	10	1	0.398747	0.398747	0	1	0	0	CorrectCommission	2.473601	2.094616	0	1
23.486864	0.792217	city	8	1	0.497289	0.497289	0	1	0	0	CorrectCommission	1.738844	2.084817	0	1
24.279104	0.792263	city	10	1	0.447810	0.447810	0	1	0	0	CorrectCommission	2.107769	2.076025	0	1
25.071367	0.792263	city	2	1	0.546728	0.546728	0	1	0	0	CorrectCommission	1.370208	2.069143	0	1
25.863638	0.792280	city	3	1	0.506929	0.506929	0	1	0	0	CorrectCommission	1.666964	2.064017	0	1
26.655958	0.792358	city	7	1	0.497219	0.497219	0	1	0	0	CorrectCommission	1.739360	2.059341	0	1
27.448215	0.792157	city	3	1	0.447613	0.447613	0	1	0	0	CorrectCommission	2.109241	2.052768	0	1
28.240536	0.792481	city	4	1	0.405978	0.405978	0	1	0	0	CorrectCommission	2.419681	2.041157	0	1
29.032806	0.792061	city	10	1	0.398117	0.398117	0	1	0	0	CorrectCommission	2.478296	2.020993	0	1
29.825098	0.792522	city	5	1	0.459545	0.459545	0	1	0	0	CorrectCommission	2.020268	1.988831	0	1
30.617357	0.791996	city	9	1	0.409235	0.409235	0	1	0	0	CorrectCommission	2.395400	1.941825	0	1
31.409540	0.792370	city	4	1	0.447908	0.447908	0	1	0	0	CorrectCommission	2.107042	1.878138	0	1
32.201839	0.792227	city	1	1	0.409523	0.409523	0	1	0	0	CorrectCommission	2.393253	1.797324	0	1
32.994049	0.792197	city	6	1	0.363855	0.363855	0	1	0	0	CorrectCommission	2.733762	1.700429	0	1
33.786289	0.792282	city	5	1	0.447692	0.447692	0	1	0	0	CorrectCommission	2.108654	1.589955	0	1
34.578556	0.792248	mountain	8	1	0.398232	0.398232	0	0	1	0	CommissionError	2.477437	1.469616	0	1
35.370865	0.792371	city	3	1	0.744785	0.744785	0	1	0	0	CorrectCommission	0.106564	1.343888	0	1
36.163151	0.792206	city	8	1	0.695863	0.695863	0	1	0	0	CorrectCommission	0.258214	1.217546	0	1
36.955360	0.792212	city	5	1	0.658476	0.658476	0	1	0	0	CorrectCommission	0.536979	1.095064	0	1
37.747635	0.792337	city	9	1	0.608215	0.608215	0	1	0	0	CorrectCommission	0.911743	0.980254	0	1
38.540009	0.792411	mountain	5	0	0.000000	0.617077	1	0	0	0	CorrectOmission	0.845668	0.875952	0	1
39.332294	0.792157	city	7	1	0.645892	0.645892	0	1	0	0	CorrectCommission	0.630809	0.783938	0	1
40.124451	0.792156	city	1	1	0.655493	0.655493	0	1	0	0	CorrectCommission	0.559221	0.704956	0	1
40.916660	0.792267	city	4	1	0.695287	0.695287	0	1	0	0	CorrectCommission	0.262508	0.638919	1	1
41.708927	0.792265	city	10	1	0.646066	0.646066	0	1	0	0	CorrectCommission	0.629515	0.585121	1	1
42.501301	0.792478	city	5	1	0.695598	0.695598	0	1	0	0	CorrectCommission	0.260191	0.542495	1	1
43.293568	0.792061	city	2	1	0.794542	0.794542	0	1	0	0	CorrectCommission	0.477566	0.509856	1	1
44.085732	0.792261	city	7	1	0.844328	0.844328	0	1	0	0	CorrectCommission	0.848787	0.485996	1	1
44.878044	0.792365	mountain	4	0	0.000000	0.769195	1	0	0	0	CorrectOmission	0.288570	0.469788	1	1
45.670357	0.792264	city	8	1	0.695217	0.695217	0	1	0	0	CorrectCommission	0.263029	0.460214	1	1
46.462566	0.792155	city	7	1	0.748471	0.748471	0	1	0	0	CorrectCommission	0.134050	0.456284	1	1
47.254833	0.792374	city	5	1	0.646084	0.646084	0	1	0	0	CorrectCommission	0.629377	0.457000	1	1
48.047150	0.792264	city	3	1	0.703213	0.703213	0	1	0	0	CorrectCommission	0.203412	0.461266	1	1
48.839417	0.792265	city	5	1	0.710378	0.710378	0	1	0	0	CorrectCommission	0.149988	0.467913	1	1
49.631626	0.792159	mountain	10	0	0.000000	0.653077	1	0	0	0	CorrectOmission	0.577241	0.475685	1	1
50.423840	0.792263	city	9	1	0.611879	0.611879	0	1	0	0	CorrectCommission	0.884421	0.483295	1	1
51.216103	0.792265	mountain	7	0	0.000000	0.667355	1	0	0	0	CorrectOmission	0.470776	0.489583	1	1
52.008366	0.792264	city	1	1	0.701490	0.701490	0	1	0	0	CorrectCommission	0.216258	0.493601	1	1
52.800739	0.792482	city	9	1	0.596269	0.596269	0	1	0	0	CorrectCommission	1.000819	0.494755	1	1
53.593006	0.792049	city	5	1	0.609458	0.609458	0	1	0	0	CorrectCommission	0.902474	0.492802	1	1
54.385269	0.792481	city	1	1	0.646864	0.646864	0	1	0	0	CorrectCommission	0.623566	0.487887	1	1
55.177536	0.792048	city	2	1	0.699248	0.699248	0	1	0	0	CorrectCommission	0.232972	0.480471	1	1
55.969799	0.792481	city	7	1	0.764381	0.764381	0	1	0	0	CorrectCommission	0.252677	0.471242	1	1
56.762173	0.792264	city	3	1	0.761290	0.761290	0	1	0	0	CorrectCommission	0.229632	0.460962	1	1
57.554329	0.792048	city	2	1	0.761587	0.761587	0	1	0	0	CorrectCommission	0.231842	0.450369	1	1
58.346485	0.792266	city	6	1	0.893343	0.893343	0	1	0	0	CorrectCommission	1.214254	0.440068	1	1
59.138859	0.792478	city	5	1	0.762996	0.762996	0	1	0	0	CorrectCommission	0.242354	0.430460	1	1
59.931175	0.792158	city	4	1	0.714611	0.714611	0	1	0	0	CorrectCommission	0.118425	0.421765	1	1
60.723339	0.792168	city	2	1	0.663698	0.663698	0	1	0	0	CorrectCommission	0.498048	0.414006	1	1
61.515549	0.792252	city	5	1	0.695282	0.695282	0	1	0	0	CorrectCommission	0.262545	0.407074	1	1
62.307816	0.792277	mountain	4	0	0.000000	0.741962	1	0	0	0	CorrectOmission	0.085512	0.400857	1	1
63.100113	0.792321	city	1	1	0.794640	0.794640	0	1	0	0	CorrectCommission	0.478300	0.395309	1	1
63.892387	0.792226	mountain	8	0	0.000000	0.844223	1	0	0	0	CorrectOmission	0.848000	0.390510	1	1
64.684647	0.792297	city	2	1	0.843769	0.843769	0	1	0	0	CorrectCommission	0.844619	0.386714	1	1
65.476898	0.792203	city	6	1	0.746341	0.746341	0	1	0	0	CorrectCommission	0.118163	0.384358	1	1
66.269135	0.792265	city	8	1	0.695939	0.695939	0	1	0	0	CorrectCommission	0.257645	0.383982	1	1
67.061447	0.792371	city	7	1	0.745744	0.745744	0	1	0	0	CorrectCommission	0.113716	0.386087	1	1
67.853714	0.792163	city	10	1	0.695145	0.695145	0	1	0	0	CorrectCommission	0.263570	0.391004	1	0
68.645927	0.792265	city	8	1	0.794313	0.794313	0	1	0	0	CorrectCommission	0.475857	0.398775	1	0
69.438301	0.792478	city	1	1	0.749509	0.749509	0	1	0	0	CorrectCommission	0.141788	0.409068	1	0
70.230675	0.792265	city	8	1	0.744581	0.744581	0	1	0	0	CorrectCommission	0.105044	0.421143	1	0
71.022934	0.792264	city	1	1	0.652541	0.652541	0	1	0	0	CorrectCommission	0.581231	0.433935	1	0
71.815201	0.792264	city	6	1	0.695060	0.695060	0	1	0	0	CorrectCommission	0.264201	0.446175	1	0
72.607376	0.792090	city	7	1	0.645583	0.645583	0	1	0	0	CorrectCommission	0.633116	0.456620	1	0
73.399590	0.792331	mountain	8	0	0.000000	0.810644	1	0	0	0	CorrectOmission	0.597631	0.464220	1	0
74.191841	0.792179	city	5	1	0.942724	0.942724	0	1	0	0	CorrectCommission	1.582457	0.468326	1	0
74.984055	0.792244	city	10	1	0.794302	0.794302	0	1	0	0	CorrectCommission	0.475781	0.468772	1	0
75.776360	0.792370	city	7	1	0.744823	0.744823	0	1	0	0	CorrectCommission	0.106848	0.465987	1	0
76.568626	0.792159	city	4	1	0.706493	0.706493	0	1	0	0	CorrectCommission	0.178955	0.460926	1	0
77.360840	0.792265	mountain	6	0	0.000000	0.651820	1	0	0	0	CorrectOmission	0.586612	0.454974	1	0
78.153114	0.792293	city	2	1	0.645892	0.645892	0	1	0	0	CorrectCommission	0.630812	0.449806	1	0
78.945381	0.792235	city	3	1	0.753796	0.753796	0	1	0	0	CorrectCommission	0.173753	0.447252	1	0
79.737740	0.792482	city	7	1	0.745093	0.745093	0	1	0	0	CorrectCommission	0.108857	0.449134	1	0
80.530075	0.792182	city	10	1	0.656943	0.656943	0	1	0	0	CorrectCommission	0.548411	0.457086	1	0
81.322281	0.792238	city	3	1	0.697802	0.697802	0	1	0	0	CorrectCommission	0.243759	0.472423	1	0
82.114494	0.792192	city	9	1	0.645890	0.645890	0	1	0	0	CorrectCommission	0.630826	0.496010	1	0
82.906815	0.792445	city	7	1	0.704403	0.704403	0	1	0	0	CorrectCommission	0.194538	0.528124	1	0
83.699066	0.792049	city	5	1	0.646102	0.646102	0	1	0	0	CorrectCommission	0.629249	0.568344	1	0
84.491219	0.792262	city	3	1	0.648229	0.648229	0	1	0	0	CorrectCommission	0.613384	0.615453	1	0
85.283485	0.792265	mountain	7	0	0.000000	0.735404	1	0	0	0	CorrectOmission	0.036614	0.667428	1	0
86.075783	0.792337	city	8	1	0.794824	0.794824	0	1	0	0	CorrectCommission	0.479666	0.721517	0	0
86.868050	0.792198	mountain	6	0	0.000000	0.713687	1	0	0	0	CorrectOmission	0.125309	0.774396	0	0
87.660339	0.792375	city	6	1	0.596383	0.596383	0	1	0	0	CorrectCommission	0.999965	0.822495	0	0
88.452599	0.792148	city	5	1	0.547298	0.547298	0	1	0	0	CorrectCommission	1.365957	0.862338	0	0
89.244804	0.792267	mountain	1	1	0.454231	0.454231	0	0	1	0	CommissionError	2.059894	0.890983	0	0
90.037178	0.792482	city	3	1	0.546667	0.546667	0	1	0	0	CorrectCommission	1.370661	0.906381	0	0
90.829445	0.792050	city	10	1	0.510796	0.510796	0	1	0	0	CorrectCommission	1.638124	0.907693	0	0
91.621613	0.792273	city	2	1	0.549362	0.549362	0	1	0	0	CorrectCommission	1.350570	0.895326	0	0
92.413879	0.792268	city	4	1	0.645789	0.645789	0	1	0	0	CorrectCommission	0.631577	0.870939	0	0
93.206139	0.792251	city	2	1	0.645751	0.645751	0	1	0	0	CorrectCommission	0.631864	0.837208	0	0
93.998398	0.792265	city	10	1	0.645755	0.645755	0	1	0	0	CorrectCommission	0.631835	0.797458	0	0
94.790665	0.792265	city	1	1	0.652390	0.652390	0	1	0	0	CorrectCommission	0.582362	0.755310	0	0
95.582932	0.792265	city	8	1	0.696885	0.696885	0	1	0	0	CorrectCommission	0.250595	0.714294	0	0
96.375191	0.792263	city	10	1	0.596386	0.596386	0	1	0	0	CorrectCommission	0.999945	0.677540	1	0
97.167458	0.792268	city	5	1	0.646156	0.646156	0	1	0	0	CorrectCommission	0.628846	0.647529	1	0
97.959724	0.792264	city	1	1	0.645892	0.645892	0	1	0	0	CorrectCommission	0.630814	0.625962	1	0
98.752014	0.792325	city	9	1	0.695585	0.695585	0	1	0	0	CorrectCommission	0.260283	0.613645	1	0
99.544334	0.792309	city	1	1	0.695200	0.695200	0	1	0	0	CorrectCommission	0.263156	0.610516	1	0
100.336624	0.792264	city	10	1	0.745033	0.745033	0	1	0	0	CorrectCommission	0.108410	0.615725	1	0
101.128883	0.792265	city	5	1	0.763205	0.763205	0	1	0	0	CorrectCommission	0.243912	0.627784	1	0
101.921204	0.792374	city	10	1	0.794224	0.794224	0	1	0	0	CorrectCommission	0.475193	0.644780	1	0
102.713524	0.792264	city	2	1	0.850102	0.850102	0	1	0	0	CorrectCommission	0.891838	0.664683	1	0
103.505737	0.792155	city	3	1	0.942637	0.942637	0	1	0	0	CorrectCommission	1.581808	0.685548	0	0
104.297943	0.792266	city	4	1	0.844598	0.844598	0	1	0	0	CorrectCommission	0.850801	0.705766	0	0
105.090157	0.792154	city	3	1	0.844832	0.844832	0	1	0	0	CorrectCommission	0.852546	0.724218	0	0
105.882370	0.792268	city	4	1	0.843955	0.843955	0	1	0	0	CorrectCommission	0.846003	0.740295	0	0
106.674629	0.792262	city	9	1	0.811227	0.811227	0	1	0	0	CorrectCommission	0.601978	0.753863	0	0
107.466949	0.792374	city	6	1	0.794445	0.794445	0	1	0	0	CorrectCommission	0.476847	0.765173	0	0
108.259216	0.792156	city	4	1	0.843870	0.843870	0	1	0	0	CorrectCommission	0.845372	0.774649	0	0
109.051422	0.792265	city	8	1	0.794320	0.794320	0	1	0	0	CorrectCommission	0.475908	0.782742	0	0
109.843796	0.792481	city	9	1	0.893395	0.893395	0	1	0	0	CorrectCommission	1.214643	0.789844	0	0
110.636063	0.792051	mountain	2	0	0.000000	0.812761	1	0	0	0	CorrectOmission	0.613411	0.796139	0	0
111.428276	0.792370	city	1	1	0.744841	0.744841	0	1	0	0	CorrectCommission	0.106979	0.801646	0	0
112.220535	0.792154	mountain	8	0	0.000000	0.882058	1	0	0	0	CorrectOmission	1.130114	0.806221	0	0
113.012856	0.792484	city	1	1	0.992380	0.992380	0	1	0	0	CorrectCommission	1.952704	0.809590	0	0
113.805122	0.792052	city	5	1	0.843771	0.843771	0	1	0	0	CorrectCommission	0.844635	0.811414	0	0
114.597305	0.792310	mountain	7	0	0.000000	0.805120	1	0	0	0	CorrectOmission	0.556438	0.811373	0	0
115.389626	0.792322	city	3	1	0.800181	0.800181	0	1	0	0	CorrectCommission	0.519613	0.809136	0	0
116.181862	0.792161	city	6	1	0.752711	0.752711	0	1	0	0	CorrectCommission	0.165660	0.804410	0	0
116.974075	0.792259	city	10	1	0.744902	0.744902	0	1	0	0	CorrectCommission	0.107437	0.796953	0	0
117.766388	0.792375	city	2	1	0.992358	0.992358	0	1	0	0	CorrectCommission	1.952542	0.786643	0	0
118.558655	0.792156	city	3	1	0.942747	0.942747	0	1	0	0	CorrectCommission	1.582631	0.773478	0	0
119.350975	0.792482	mountain	1	0	0.000000	0.879900	1	0	0	0	CorrectOmission	1.114023	0.757710	0	0
120.143242	0.792051	city	4	1	0.812358	0.812358	0	1	0	0	CorrectCommission	0.610405	0.739797	0	0
120.935394	0.792260	city	7	1	0.748661	0.748661	0	1	0	0	CorrectCommission	0.135465	0.720434	0	0
121.727661	0.792268	city	6	1	0.695300	0.695300	0	1	0	0	CorrectCommission	0.262408	0.700536	0	0
122.519928	0.792272	city	3	1	0.596237	0.596237	0	1	0	0	CorrectCommission	1.001056	0.681205	1	0
123.312248	0.792362	city	10	1	0.744989	0.744989	0	1	0	0	CorrectCommission	0.108086	0.663720	1	0
124.104507	0.792161	city	1	1	0.794196	0.794196	0	1	0	0	CorrectCommission	0.474990	0.649585	1	0
124.896721	0.792266	city	4	1	0.942872	0.942872	0	1	0	0	CorrectCommission	1.583560	0.640455	1	0
125.688988	0.792260	city	2	1	0.845097	0.845097	0	1	0	0	CorrectCommission	0.854521	0.638134	1	0
126.481354	0.792483	city	1	1	0.794317	0.794317	0	1	0	0	CorrectCommission	0.475893	0.644532	1	0
127.273727	0.792264	city	10	1	0.763186	0.763186	0	1	0	0	CorrectCommission	0.243770	0.661435	1	1
128.065887	0.792047	city	4	1	0.754106	0.754106	0	1	0	0	CorrectCommission	0.176068	0.690291	0	1
128.858047	0.792265	city	7	1	0.794370	0.794370	0	1	0	0	CorrectCommission	0.476283	0.731921	0	1
129.650314	0.792268	city	5	1	0.763518	0.763518	0	1	0	0	CorrectCommission	0.246240	0.786212	0	1
130.442627	0.792370	city	7	1	0.794348	0.794348	0	1	0	0	CorrectCommission	0.476120	0.851918	0	1
131.234894	0.792157	city	2	1	0.844222	0.844222	0	1	0	0	CorrectCommission	0.847997	0.926573	0	1
132.027206	0.792481	mountain	1	0	0.000000	0.715004	1	0	0	0	CorrectOmission	0.115491	1.006553	0	1
132.819473	0.792050	city	4	1	0.551169	0.551169	0	1	0	0	CorrectCommission	1.337097	1.087322	0	1
133.611633	0.792263	city	10	1	0.497191	0.497191	0	1	0	0	CorrectCommission	1.739574	1.163744	0	1
134.403900	0.792264	city	3	1	0.417631	0.417631	0	1	0	0	CorrectCommission	2.332793	1.230637	0	1
135.196198	0.792354	city	6	1	0.596259	0.596259	0	1	0	0	CorrectCommission	1.000887	1.283247	0	1
135.988480	0.792210	city	2	1	0.505272	0.505272	0	1	0	0	CorrectCommission	1.679313	1.317845	0	1
136.780701	0.792230	city	9	1	0.546817	0.546817	0	1	0	0	CorrectCommission	1.369546	1.332113	0	1
137.573059	0.792482	city	7	1	0.447704	0.447704	0	1	0	0	CorrectCommission	2.108563	1.325506	0	1
138.365341	0.792075	city	9	1	0.415402	0.415402	0	1	0	0	CorrectCommission	2.349416	1.299346	0	1
139.157547	0.792347	mountain	10	1	0.398217	0.398217	0	0	1	0	CommissionError	2.477547	1.256748	0	1
139.949799	0.792155	city	5	1	0.596138	0.596138	0	1	0	0	CorrectCommission	1.001793	1.202270	0	1
140.742020	0.792269	city	3	1	0.596230	0.596230	0	1	0	0	CorrectCommission	1.001103	1.141488	0	1
141.534286	0.792264	city	6	1	0.646343	0.646343	0	1	0	0	CorrectCommission	0.627453	1.080272	0	1
142.326569	0.792305	city	2	1	0.745364	0.745364	0	1	0	0	CorrectCommission	0.110881	1.024126	0	1
143.118835	0.792223	mountain	4	0	0.000000	0.786226	1	0	0	0	CorrectOmission	0.415561	0.977596	0	1
143.911087	0.792289	city	4	1	0.794322	0.794322	0	1	0	0	CorrectCommission	0.475925	0.943753	0	1
144.703354	0.792240	city	2	1	0.795045	0.795045	0	1	0	0	CorrectCommission	0.481314	0.923944	0	1
145.495712	0.792482	city	5	1	0.803317	0.803317	0	1	0	0	CorrectCommission	0.542993	0.917764	0	1
146.287979	0.792067	city	9	1	0.803474	0.803474	0	1	0	0	CorrectCommission	0.544169	0.923236	0	1
147.080170	0.792293	city	5	1	0.897467	0.897467	0	1	0	0	CorrectCommission	1.245003	0.937208	0	1
147.872528	0.792434	city	1	1	0.942777	0.942777	0	1	0	0	CorrectCommission	1.582855	0.955769	0	1
148.664871	0.792265	city	3	1	0.893545	0.893545	0	1	0	0	CorrectCommission	1.215767	0.974771	0	1
149.457031	0.792046	city	5	1	0.893148	0.893148	0	1	0	0	CorrectCommission	1.212802	0.990326	0	1
150.249191	0.792266	city	7	1	0.850815	0.850815	0	1	0	0	CorrectCommission	0.897159	0.999145	0	1
151.041458	0.792268	city	1	1	0.804948	0.804948	0	1	0	0	CorrectCommission	0.555159	0.998887	0	1
151.833832	0.792480	city	10	1	0.893388	0.893388	0	1	0	0	CorrectCommission	1.214593	0.988329	0	1
152.626099	0.792046	city	6	1	0.942682	0.942682	0	1	0	0	CorrectCommission	1.582140	0.967476	0	1
153.418243	0.792266	mountain	8	0	0.000000	0.992276	1	0	0	0	CorrectOmission	1.951933	0.937535	0	1
154.210571	0.792373	city	4	1	0.942980	0.942980	0	1	0	0	CorrectCommission	1.584364	0.900827	0	1
155.002838	0.792154	city	6	1	0.695600	0.695600	0	1	0	0	CorrectCommission	0.260175	0.860496	0	1
155.795151	0.792484	city	5	1	0.648310	0.648310	0	1	0	0	CorrectCommission	0.612786	0.820208	0	1
156.587463	0.792155	mountain	9	0	0.000000	0.682720	1	0	0	0	CorrectOmission	0.356210	0.783655	0	1
157.379684	0.792266	city	7	1	0.711086	0.711086	0	1	0	0	CorrectCommission	0.144708	0.754200	0	1
158.171997	0.792374	city	8	1	0.645660	0.645660	0	1	0	0	CorrectCommission	0.632540	0.734426	0	1
158.964203	0.792047	city	3	1	0.662407	0.662407	0	1	0	0	CorrectCommission	0.507673	0.725836	0	1
159.756363	0.792266	city	10	1	0.695251	0.695251	0	1	0	0	CorrectCommission	0.262777	0.728686	0	1
160.548737	0.792481	city	3	1	0.794307	0.794307	0	1	0	0	CorrectCommission	0.475818	0.741980	0	1
161.341003	0.792047	mountain	1	0	0.000000	0.671079	1	0	0	0	CorrectOmission	0.443010	0.763578	0	1
162.133163	0.792268	city	3	1	0.550230	0.550230	0	1	0	0	CorrectCommission	1.344093	0.790521	0	1
162.925446	0.792312	city	4	1	0.656426	0.656426	0	1	0	0	CorrectCommission	0.552267	0.819407	0	1
163.717712	0.792217	city	8	1	0.645875	0.645875	0	1	0	0	CorrectCommission	0.630936	0.846913	0	1
164.509979	0.792321	mountain	1	0	0.000000	0.611126	1	0	0	0	CorrectOmission	0.890040	0.870212	0	1
165.302307	0.792317	city	3	1	0.546815	0.546815	0	1	0	0	CorrectCommission	1.369562	0.887407	0	1
166.094543	0.792155	city	9	1	0.447580	0.447580	0	1	0	0	CorrectCommission	2.109487	0.897844	0	1
166.886749	0.792265	city	10	1	0.503173	0.503173	0	1	0	0	CorrectCommission	1.694965	0.902189	0	1
167.679016	0.792269	mountain	5	0	0.000000	0.608732	1	0	0	0	CorrectOmission	0.907888	0.902333	0	1
168.471329	0.792368	city	2	1	0.745222	0.745222	0	1	0	0	CorrectCommission	0.109823	0.901031	0	1
169.263657	0.792267	city	6	1	0.893610	0.893610	0	1	0	0	CorrectCommission	1.216247	0.901372	0	1
170.055862	0.792159	city	4	1	0.744674	0.744674	0	1	0	0	CorrectCommission	0.105736	0.906128	0	1
170.848068	0.792260	city	1	1	0.652712	0.652712	0	1	0	0	CorrectCommission	0.579958	0.917259	0	1
171.640396	0.792374	city	9	1	0.745246	0.745246	0	1	0	0	CorrectCommission	0.109999	0.935388	0	1
172.432709	0.792265	city	6	1	0.646323	0.646323	0	1	0	0	CorrectCommission	0.627598	0.959623	0	1
173.224930	0.792170	city	3	1	0.810748	0.810748	0	1	0	0	CorrectCommission	0.598404	0.987559	0	1
174.017151	0.792263	city	1	1	0.942985	0.942985	0	1	0	0	CorrectCommission	1.584405	1.015604	0	1
174.809402	0.792256	city	5	1	0.843831	0.843831	0	1	0	0	CorrectCommission	0.845084	1.039462	0	1
175.601654	0.792260	city	6	1	0.992405	0.992405	0	1	0	0	CorrectCommission	1.952889	1.054869	0	1
176.394028	0.792483	city	2	1	0.894068	0.894068	0	1	0	0	CorrectCommission	1.219665	1.058168	0	1
177.186295	0.792048	city	5	1	0.943129	0.943129	0	1	0	0	CorrectCommission	1.585480	1.047015	0	1
177.978516	0.792372	city	10	1	1.011747	1.011747	0	1	0	0	CorrectCommission	2.097115	1.020697	0	1
178.770767	0.792159	city	8	1	0.992243	0.992243	0	1	0	0	CorrectCommission	1.951686	0.980286	0	1
179.563095	0.792479	city	2	1	0.893571	0.893571	0	1	0	0	CorrectCommission	1.215954	0.928504	0	1
180.355469	0.792265	mountain	7	0	0.000000	0.775176	1	0	0	0	CorrectOmission	0.333166	0.869357	0	1
181.147675	0.792156	city	9	1	0.695029	0.695029	0	1	0	0	CorrectCommission	0.264433	0.807517	0	1
181.939941	0.792374	city	8	1	0.711101	0.711101	0	1	0	0	CorrectCommission	0.144596	0.747662	0	1
182.732147	0.792048	city	6	1	0.696116	0.696116	0	1	0	0	CorrectCommission	0.256326	0.693871	0	1
183.524307	0.792264	city	4	1	0.695287	0.695287	0	1	0	0	CorrectCommission	0.262511	0.649140	1	1
184.316574	0.792266	city	10	1	0.645744	0.645744	0	1	0	0	CorrectCommission	0.631912	0.615101	1	1
185.108948	0.792480	city	7	1	0.752334	0.752334	0	1	0	0	CorrectCommission	0.162850	0.591954	1	1
185.901321	0.792265	mountain	10	0	0.000000	0.797913	1	0	0	0	CorrectOmission	0.502702	0.578639	1	1
186.693497	0.792077	city	1	1	0.794192	0.794192	0	1	0	0	CorrectCommission	0.474955	0.573055	1	0
187.485748	0.792452	city	9	1	0.752879	0.752879	0	1	0	0	CorrectCommission	0.166919	0.572536	1	0
188.278000	0.792049	city	2	1	0.893190	0.893190	0	1	0	0	CorrectCommission	1.213115	0.574233	1	0
189.070190	0.792321	city	5	1	0.893311	0.893311	0	1	0	0	CorrectCommission	1.214015	0.575479	1	0
189.862457	0.792206	mountain	9	0	0.000000	0.699232	1	0	0	0	CorrectOmission	0.233094	0.574136	1	0
190.654694	0.792268	city	3	1	0.565035	0.565035	0	1	0	0	CorrectCommission	1.233708	0.568788	1	0
191.446976	0.792298	city	5	1	0.744800	0.744800	0	1	0	0	CorrectCommission	0.106678	0.558733	1	0
192.239258	0.792262	mountain	3	0	0.000000	0.840776	1	0	0	0	CorrectOmission	0.822304	0.544047	1	0
193.031494	0.792235	city	9	1	0.843829	0.843829	0	1	0	0	CorrectCommission	0.845069	0.525346	1	0
193.823761	0.792277	city	4	1	0.744826	0.744826	0	1	0	0	CorrectCommission	0.106870	0.503671	1	0
194.616028	0.792253	city	3	1	0.745390	0.745390	0	1	0	0	CorrectCommission	0.111072	0.480282	1	0
195.408386	0.792478	city	4	1	0.860042	0.860042	0	1	0	0	CorrectCommission	0.965955	0.456430	1	0
196.200699	0.792156	city	7	1	0.794059	0.794059	0	1	0	0	CorrectCommission	0.473966	0.433221	1	0
196.992920	0.792266	city	2	1	0.695116	0.695116	0	1	0	0	CorrectCommission	0.263783	0.411577	1	0
197.785187	0.792263	city	6	1	0.744715	0.744715	0	1	0	0	CorrectCommission	0.106040	0.392126	1	0
198.577438	0.792266	city	7	1	0.695204	0.695204	0	1	0	0	CorrectCommission	0.263125	0.375227	1	0
199.369659	0.792156	city	10	1	0.695285	0.695285	0	1	0	0	CorrectCommission	0.262524	0.360999	1	0
200.161865	0.792264	city	3	1	0.695271	0.695271	0	1	0	0	CorrectCommission	0.262628	0.349430	1	0
200.954132	0.792266	city	4	1	0.658858	0.658858	0	1	0	0	CorrectCommission	0.534134	0.340475	1	0
201.746399	0.792267	mountain	6	0	0.000000	0.756923	1	0	0	0	CorrectOmission	0.197070	0.334172	1	0
202.538666	0.792262	city	6	1	0.811845	0.811845	0	1	0	0	CorrectCommission	0.606585	0.330751	1	0
203.330978	0.792373	city	3	1	0.646003	0.646003	0	1	0	0	CorrectCommission	0.629985	0.330658	1	0
204.123383	0.792428	city	4	1	0.744669	0.744669	0	1	0	0	CorrectCommission	0.105697	0.334605	1	0
204.915588	0.791993	city	1	1	0.744963	0.744963	0	1	0	0	CorrectCommission	0.107891	0.343577	1	0
205.707779	0.792373	city	3	1	0.711067	0.711067	0	1	0	0	CorrectCommission	0.144845	0.358684	1	0
206.500092	0.792265	city	4	1	0.745143	0.745143	0	1	0	0	CorrectCommission	0.109235	0.381179	1	0
207.292297	0.792158	city	7	1	0.744709	0.744709	0	1	0	0	CorrectCommission	0.105996	0.412343	1	0
208.084518	0.792265	city	5	1	0.794626	0.794626	0	1	0	0	CorrectCommission	0.478194	0.453357	1	0
208.876892	0.792479	mountain	3	0	0.000000	0.818349	1	0	0	0	CorrectOmission	0.655080	0.505212	1	0
209.669159	0.792057	city	8	1	0.805426	0.805426	0	1	0	0	CorrectCommission	0.558725	0.568555	1	0
210.461319	0.792259	city	7	1	0.745406	0.745406	0	1	0	0	CorrectCommission	0.111197	0.643481	1	0
211.253571	0.792260	city	4	1	0.760497	0.760497	0	1	0	0	CorrectCommission	0.223718	0.729366	0	0
212.045837	0.792265	city	3	1	0.903119	0.903119	0	1	0	0	CorrectCommission	1.287149	0.824630	0	0
212.838104	0.792267	city	8	1	0.806198	0.806198	0	1	0	0	CorrectCommission	0.564479	0.926567	0	0
213.630371	0.792265	city	3	1	0.844387	0.844387	0	1	0	0	CorrectCommission	0.849226	1.031375	0	0
214.422638	0.792262	city	6	1	0.794309	0.794309	0	1	0	0	CorrectCommission	0.475828	1.134193	0	0
215.214996	0.792482	mountain	9	1	0.844468	0.844468	0	0	1	0	CommissionError	0.849834	1.229463	0	0
216.007278	0.792052	city	10	1	0.900423	0.900423	0	1	0	0	CorrectCommission	1.267047	1.311392	0	0
216.799454	0.792310	city	6	1	1.041906	1.041906	0	1	0	0	CorrectCommission	2.321984	1.374624	0	0
217.591721	0.792226	city	7	1	1.091401	1.091401	0	1	0	0	CorrectCommission	2.691040	1.414950	0	0
218.383957	0.792253	city	3	1	1.041901	1.041901	0	1	0	0	CorrectCommission	2.321949	1.429992	0	0
219.176270	0.792372	city	9	1	1.091514	1.091514	0	1	0	0	CorrectCommission	2.691881	1.419666	0	0
219.968597	0.792267	city	8	1	1.141341	1.141341	0	1	0	0	CorrectCommission	3.063402	1.386282	0	0
220.760834	0.792208	mountain	8	0	0.000000	0.815799	1	0	0	0	CorrectOmission	0.636067	1.334339	0	0
221.553101	0.792323	city	3	1	0.516752	0.516752	0	1	0	0	CorrectCommission	1.593719	1.270013	0	0
222.345337	0.792169	city	10	1	0.646061	0.646061	0	1	0	0	CorrectCommission	0.629549	1.200186	0	0
223.137543	0.792250	mountain	5	0	0.000000	0.741581	1	0	0	0	CorrectOmission	0.082671	1.131589	0	0
223.929810	0.792263	city	9	1	0.744769	0.744769	0	1	0	0	CorrectCommission	0.106446	1.069842	0	0
224.722092	0.792313	city	8	1	0.597087	0.597087	0	1	0	0	CorrectCommission	0.994717	1.018764	0	0
225.514359	0.792218	city	7	1	0.695261	0.695261	0	1	0	0	CorrectCommission	0.262700	0.979977	0	0
226.306610	0.792270	city	3	1	0.794445	0.794445	0	1	0	0	CorrectCommission	0.476845	0.952943	0	0
227.098862	0.792258	city	1	1	0.796342	0.796342	0	1	0	0	CorrectCommission	0.490989	0.935274	0	0
227.891235	0.792483	city	2	1	0.843831	0.843831	0	1	0	0	CorrectCommission	0.845078	0.923399	0	0
228.683563	0.792155	city	3	1	0.942610	0.942610	0	1	0	0	CorrectCommission	1.581607	0.913333	0	0
229.475769	0.792266	city	5	1	0.942748	0.942748	0	1	0	0	CorrectCommission	1.582632	0.901440	0	0
230.267975	0.792156	mountain	8	0	0.000000	0.992707	1	0	0	0	CorrectOmission	1.955148	0.885110	0	0
231.060196	0.792267	city	5	1	0.992982	0.992982	0	1	0	0	CorrectCommission	1.957197	0.863081	0	0
231.852478	0.792304	city	9	1	0.844064	0.844064	0	1	0	0	CorrectCommission	0.846821	0.835517	0	0
232.644791	0.792330	city	10	1	0.745071	0.745071	0	1	0	0	CorrectCommission	0.108696	0.803740	0	0
233.437042	0.792159	city	3	1	0.695755	0.695755	0	1	0	0	CorrectCommission	0.259022	0.769755	0	0
234.229263	0.792305	mountain	9	0	0.000000	0.698672	1	0	0	0	CorrectOmission	0.237266	0.735661	0	0
235.021530	0.792222	city	9	1	0.712335	0.712335	0	1	0	0	CorrectCommission	0.135392	0.703173	0	0
235.813782	0.792269	city	3	1	0.695254	0.695254	0	1	0	0	CorrectCommission	0.262757	0.673278	1	0
236.606049	0.792259	city	6	1	0.645914	0.645914	0	1	0	0	CorrectCommission	0.630650	0.646110	1	0
237.398315	0.792276	city	2	1	0.596556	0.596556	0	1	0	0	CorrectCommission	0.998675	0.621024	1	0
238.190582	0.792254	city	5	1	0.596370	0.596370	0	1	0	0	CorrectCommission	1.000065	0.596952	1	0
238.982834	0.792264	city	3	1	0.646210	0.646210	0	1	0	0	CorrectCommission	0.628443	0.572702	1	0
239.775101	0.792266	city	5	1	0.596297	0.596297	0	1	0	0	CorrectCommission	1.000609	0.547360	1	0
240.567398	0.792315	city	10	1	0.596252	0.596252	0	1	0	0	CorrectCommission	1.000945	0.520527	1	0
241.359665	0.792241	city	7	1	0.794539	0.794539	0	1	0	0	CorrectCommission	0.477545	0.492471	1	0
242.151901	0.792238	city	3	1	0.710027	0.710027	0	1	0	0	CorrectCommission	0.152599	0.464095	1	0
242.944168	0.792267	city	6	1	0.745403	0.745403	0	1	0	0	CorrectCommission	0.111169	0.436815	1	0
243.736526	0.792479	city	4	1	0.744897	0.744897	0	1	0	0	CorrectCommission	0.107398	0.412312	1	0
244.528900	0.792267	city	10	1	0.695163	0.695163	0	1	0	0	CorrectCommission	0.263432	0.392313	1	0
245.321060	0.792049	city	3	1	0.695114	0.695114	0	1	0	0	CorrectCommission	0.263794	0.378374	1	0
246.113220	0.792261	city	2	1	0.695371	0.695371	0	1	0	0	CorrectCommission	0.261882	0.371708	1	1
246.905533	0.792374	city	9	1	0.645767	0.645767	0	1	0	0	CorrectCommission	0.631742	0.373100	1	1
247.697830	0.792221	mountain	4	0	0.000000	0.700740	1	0	0	0	CorrectOmission	0.221850	0.382852	1	1
248.490097	0.792310	city	5	1	0.754246	0.754246	0	1	0	0	CorrectCommission	0.177111	0.400797	1	1
249.282364	0.792215	city	2	1	0.700245	0.700245	0	1	0	0	CorrectCommission	0.225537	0.426354	1	1
250.074570	0.792210	city	9	1	0.713390	0.713390	0	1	0	0	CorrectCommission	0.127525	0.458613	1	1
250.866913	0.792478	city	10	1	0.745826	0.745826	0	1	0	0	CorrectCommission	0.114324	0.496429	1	1
251.659180	0.792056	city	7	1	0.843677	0.843677	0	1	0	0	CorrectCommission	0.843930	0.538544	1	1
252.451370	0.792320	city	1	1	0.794694	0.794694	0	1	0	0	CorrectCommission	0.478699	0.583666	1	1
253.243637	0.792203	city	2	1	0.855722	0.855722	0	1	0	0	CorrectCommission	0.933743	0.630590	1	1
254.035873	0.792265	city	8	1	0.843729	0.843729	0	1	0	0	CorrectCommission	0.844317	0.678195	1	1
254.828125	0.792264	city	9	1	0.844278	0.844278	0	1	0	0	CorrectCommission	0.848416	0.725460	0	1
255.620407	0.792271	city	1	1	0.843847	0.843847	0	1	0	0	CorrectCommission	0.845197	0.771358	0	1
256.412659	0.792260	city	8	1	0.844293	0.844293	0	1	0	0	CorrectCommission	0.848522	0.814770	0	1
257.204926	0.792264	city	2	1	0.843937	0.843937	0	1	0	0	CorrectCommission	0.845872	0.854351	0	1
257.997192	0.792264	city	10	1	0.844159	0.844159	0	1	0	0	CorrectCommission	0.847524	0.888468	0	1
258.789459	0.792265	city	3	1	0.758484	0.758484	0	1	0	0	CorrectCommission	0.208707	0.915227	0	1
259.581726	0.792268	city	8	1	0.661693	0.661693	0	1	0	0	CorrectCommission	0.512998	0.932629	0	1
260.374054	0.792369	mountain	1	0	0.000000	0.571443	1	0	0	0	CorrectOmission	1.185929	0.938792	0	1
261.166290	0.792156	city	8	1	0.497019	0.497019	0	1	0	0	CorrectCommission	1.740853	0.932288	0	1
261.958527	0.792313	city	1	1	0.447707	0.447707	0	1	0	0	CorrectCommission	2.108535	0.912478	0	1
262.750793	0.792216	city	10	1	0.404739	0.404739	0	1	0	0	CorrectCommission	2.428918	0.879736	0	1
263.543030	0.792269	city	5	1	0.596216	0.596216	0	1	0	0	CorrectCommission	1.001213	0.835526	0	1
264.335297	0.792263	city	9	1	0.744797	0.744797	0	1	0	0	CorrectCommission	0.106652	0.782311	0	1
265.127686	0.792479	city	4	1	0.745451	0.745451	0	1	0	0	CorrectCommission	0.111529	0.723237	0	1
265.919983	0.792109	city	1	1	0.695821	0.695821	0	1	0	0	CorrectCommission	0.258524	0.661747	1	1
266.712250	0.792423	city	2	1	0.647092	0.647092	0	1	0	0	CorrectCommission	0.621862	0.601181	1	1
267.504486	0.792045	city	5	1	0.695089	0.695089	0	1	0	0	CorrectCommission	0.263984	0.544424	1	1
268.296753	0.792482	city	9	1	0.706782	0.706782	0	1	0	0	CorrectCommission	0.176801	0.493714	1	1
269.089050	0.792122	city	10	1	0.753748	0.753748	0	1	0	0	CorrectCommission	0.173393	0.450558	1	1
269.881317	0.792407	city	2	1	0.844199	0.844199	0	1	0	0	CorrectCommission	0.847822	0.415838	1	1
270.673584	0.792156	city	4	1	0.748296	0.748296	0	1	0	0	CorrectCommission	0.132743	0.389937	1	1
271.465790	0.792266	city	6	1	0.794697	0.794697	0	1	0	0	CorrectCommission	0.478723	0.373011	1	1
272.257996	0.792155	city	10	1	0.695185	0.695185	0	1	0	0	CorrectCommission	0.263266	0.365118	1	1
273.050232	0.792265	city	6	1	0.794903	0.794903	0	1	0	0	CorrectCommission	0.480259	0.366347	1	1
273.842499	0.792267	city	2	1	0.744821	0.744821	0	1	0	0	CorrectCommission	0.106832	0.376805	1	1
274.634766	0.792319	city	5	1	0.745134	0.745134	0	1	0	0	CorrectCommission	0.109168	0.396556	1	1
275.427032	0.792211	city	1	1	0.699551	0.699551	0	1	0	0	CorrectCommission	0.230713	0.425433	1	1
276.219269	0.792264	city	3	1	0.744789	0.744789	0	1	0	0	CorrectCommission	0.106594	0.462863	1	1
277.011536	0.792277	city	4	1	0.807899	0.807899	0	1	0	0	CorrectCommission	0.577163	0.507669	1	1
277.803833	0.792304	city	10	1	0.794354	0.794354	0	1	0	0	CorrectCommission	0.476162	0.557958	1	1
278.596100	0.792210	city	9	1	0.794936	0.794936	0	1	0	0	CorrectCommission	0.480505	0.611099	1	1
279.388397	0.792374	mountain	9	0	0.000000	0.766080	1	0	0	0	CorrectOmission	0.265344	0.663865	1	1
280.180756	0.792373	city	8	1	0.702027	0.702027	0	1	0	0	CorrectCommission	0.212249	0.712657	0	1
280.973022	0.792157	city	4	1	0.597021	0.597021	0	1	0	0	CorrectCommission	0.995207	0.753914	0	1
281.765198	0.792155	city	9	1	0.497102	0.497102	0	1	0	0	CorrectCommission	1.740237	0.784509	0	1
282.557404	0.792268	city	10	1	0.497825	0.497825	0	1	0	0	CorrectCommission	1.734845	0.802180	0	1
283.349762	0.792479	city	2	1	0.558298	0.558298	0	1	0	0	CorrectCommission	1.283936	0.805889	0	1
284.142029	0.792046	city	8	1	0.550770	0.550770	0	1	0	0	CorrectCommission	1.340067	0.795975	0	1
284.934204	0.792268	city	5	1	0.546739	0.546739	0	1	0	0	CorrectCommission	1.370124	0.774127	0	1
285.726501	0.792372	city	9	1	0.695267	0.695267	0	1	0	0	CorrectCommission	0.262660	0.743197	0	1
286.518799	0.792229	city	7	1	0.695540	0.695540	0	1	0	0	CorrectCommission	0.260624	0.706894	0	1
287.311035	0.792191	city	3	1	0.662835	0.662835	0	1	0	0	CorrectCommission	0.504478	0.669267	1	1
288.103271	0.792322	city	10	1	0.645747	0.645747	0	1	0	0	CorrectCommission	0.631892	0.634302	1	1
288.895569	0.792241	city	8	1	0.706918	0.706918	0	1	0	0	CorrectCommission	0.175784	0.605503	1	1
289.687805	0.792232	city	4	1	0.695391	0.695391	0	1	0	0	CorrectCommission	0.261733	0.585604	1	1
290.480072	0.792295	mountain	7	0	0.000000	0.757408	1	0	0	0	CorrectOmission	0.200683	0.576332	1	1
291.272430	0.792451	city	5	1	0.803745	0.803745	0	1	0	0	CorrectCommission	0.546189	0.578362	1	1
292.064667	0.792051	city	2	1	0.745180	0.745180	0	1	0	0	CorrectCommission	0.109510	0.591289	1	1
292.856842	0.792266	city	10	1	0.893314	0.893314	0	1	0	0	CorrectCommission	1.214040	0.613749	1	1
293.649170	0.792371	city	1	1	0.794299	0.794299	0	1	0	0	CorrectCommission	0.475757	0.643487	1	1
294.441406	0.792153	city	4	1	0.843864	0.843864	0	1	0	0	CorrectCommission	0.845324	0.677595	1	1
295.233673	0.792376	city	3	1	0.745131	0.745131	0	1	0	0	CorrectCommission	0.109147	0.712657	0	1
296.025940	0.792153	city	1	1	0.695255	0.695255	0	1	0	0	CorrectCommission	0.262749	0.745054	0	1
296.818268	0.792484	city	5	1	0.657227	0.657227	0	1	0	0	CorrectCommission	0.546293	0.771230	0	1
297.610535	0.792046	mountain	3	1	0.857526	0.857526	0	0	1	0	CommissionError	0.947191	0.788046	0	1
298.402802	0.792483	city	4	1	1.043140	1.043140	0	1	0	0	CorrectCommission	2.331186	0.793106	0	1
299.195068	0.792051	mountain	4	0	0.000000	1.013092	1	0	0	0	CorrectOmission	2.107143	0.785022	0	1
299.987213	0.792262	mountain	10	0	0.000000	0.864699	1	0	0	0	CorrectOmission	1.000677	0.763619	0	1
300.779510	0.792328	city	4	1	0.695275	0.695275	0	1	0	0	CorrectCommission	0.262594	0.729948	0	1
301.571808	0.792236	city	2	1	0.602138	0.602138	0	1	0	0	CorrectCommission	0.957054	0.686110	0	1
302.364044	0.792235	city	9	1	0.646406	0.646406	0	1	0	0	CorrectCommission	0.626976	0.634957	1	1
303.156281	0.792263	city	4	1	0.695560	0.695560	0	1	0	0	CorrectCommission	0.260472	0.579795	1	1
303.948547	0.792267	city	10	1	0.705949	0.705949	0	1	0	0	CorrectCommission	0.183005	0.523963	1	1
304.740906	0.792476	city	5	1	0.695893	0.695893	0	1	0	0	CorrectCommission	0.257989	0.470541	1	1
305.533234	0.792156	city	4	1	0.712192	0.712192	0	1	0	0	CorrectCommission	0.136456	0.422151	1	0
306.325378	0.792162	city	10	1	0.661452	0.661452	0	1	0	0	CorrectCommission	0.514792	0.380887	1	0
307.117645	0.792338	mountain	10	0	0.000000	0.726125	1	0	0	0	CorrectOmission	0.032570	0.348304	1	0
307.909943	0.792255	city	2	1	0.794316	0.794316	0	1	0	0	CorrectCommission	0.475883	0.325526	1	0
308.702179	0.792194	mountain	10	0	0.000000	0.754130	1	0	0	0	CorrectOmission	0.176244	0.313282	1	0
309.494446	0.792376	city	7	1	0.695657	0.695657	0	1	0	0	CorrectCommission	0.259751	0.312003	1	0
310.286713	0.792171	city	4	1	0.708986	0.708986	0	1	0	0	CorrectCommission	0.160365	0.321759	1	0
311.078949	0.792289	city	5	1	0.695397	0.695397	0	1	0	0	CorrectCommission	0.261685	0.342244	1	0
311.871216	0.792230	city	9	1	0.745105	0.745105	0	1	0	0	CorrectCommission	0.108953	0.372613	1	0
312.663574	0.792476	city	4	1	0.744794	0.744794	0	1	0	0	CorrectCommission	0.106630	0.411386	1	0
313.455841	0.792087	city	2	1	0.745036	0.745036	0	1	0	0	CorrectCommission	0.108436	0.456359	1	0
314.248108	0.792442	city	8	1	0.794264	0.794264	0	1	0	0	CorrectCommission	0.475496	0.504619	1	0
315.040344	0.792047	city	9	1	0.746982	0.746982	0	1	0	0	CorrectCommission	0.122949	0.552707	1	0
315.832611	0.792483	city	5	1	0.706766	0.706766	0	1	0	0	CorrectCommission	0.176920	0.596902	1	0
316.625000	0.792266	mountain	2	0	0.000000	0.824926	1	0	0	0	CorrectOmission	0.704121	0.633632	1	0
317.417145	0.792045	mountain	7	0	0.000000	0.977837	1	0	0	0	CorrectOmission	1.844266	0.659925	1	0
318.209320	0.792267	city	2	1	1.041868	1.041868	0	1	0	0	CorrectCommission	2.321706	0.673806	1	0
319.001556	0.792262	city	8	1	0.893394	0.893394	0	1	0	0	CorrectCommission	1.214634	0.674570	1	0
319.793823	0.792269	city	5	1	0.844153	0.844153	0	1	0	0	CorrectCommission	0.847479	0.662890	1	0
320.586121	0.792308	city	8	1	0.794647	0.794647	0	1	0	0	CorrectCommission	0.478350	0.640640	1	0
321.378510	0.792437	city	2	1	0.755109	0.755109	0	1	0	0	CorrectCommission	0.183546	0.610603	1	0
322.170746	0.792075	city	4	1	0.745008	0.745008	0	1	0	0	CorrectCommission	0.108227	0.576025	1	0
322.962921	0.792239	city	5	1	0.745264	0.745264	0	1	0	0	CorrectCommission	0.110138	0.540180	1	0
323.755219	0.792370	city	7	1	0.794355	0.794355	0	1	0	0	CorrectCommission	0.476172	0.506000	1	0
324.547485	0.792158	city	4	1	0.794384	0.794384	0	1	0	0	CorrectCommission	0.476386	0.475821	1	0
325.339691	0.792263	city	8	1	0.705027	0.705027	0	1	0	0	CorrectCommission	0.189882	0.451265	1	0
326.131958	0.792264	city	9	1	0.843776	0.843776	0	1	0	0	CorrectCommission	0.844670	0.433253	1	0
326.924316	0.792483	city	4	1	0.798965	0.798965	0	1	0	0	CorrectCommission	0.510544	0.422057	1	0
327.716583	0.792048	city	2	1	0.744550	0.744550	0	1	0	0	CorrectCommission	0.104815	0.417455	1	0
328.508759	0.792275	city	4	1	0.758758	0.758758	0	1	0	0	CorrectCommission	0.210753	0.418821	1	0
329.301086	0.792363	mountain	5	0	0.000000	0.707721	1	0	0	0	CorrectOmission	0.169798	0.425217	1	0
330.093323	0.792159	city	5	1	0.662776	0.662776	0	1	0	0	CorrectCommission	0.504922	0.435478	1	0
330.885559	0.792264	city	4	1	0.695261	0.695261	0	1	0	0	CorrectCommission	0.262704	0.448256	1	0
331.677917	0.792481	city	8	1	0.645762	0.645762	0	1	0	0	CorrectCommission	0.631779	0.462111	1	0
332.470184	0.792047	city	2	1	0.794230	0.794230	0	1	0	0	CorrectCommission	0.475238	0.475570	1	0
333.262329	0.792271	city	5	1	0.799102	0.799102	0	1	0	0	CorrectCommission	0.511566	0.487254	1	0
334.054626	0.792280	city	1	1	0.812497	0.812497	0	1	0	0	CorrectCommission	0.611447	0.495984	1	0
334.846863	0.792244	city	3	1	0.799630	0.799630	0	1	0	0	CorrectCommission	0.515505	0.500909	1	0
335.639191	0.792371	city	1	1	0.794297	0.794297	0	1	0	0	CorrectCommission	0.475739	0.501639	1	0
336.431458	0.792156	city	4	1	0.893802	0.893802	0	1	0	0	CorrectCommission	1.217679	0.498371	1	0
337.223663	0.792279	mountain	5	0	0.000000	0.817528	1	0	0	0	CorrectOmission	0.648959	0.491903	1	0
338.015930	0.792255	city	3	1	0.696037	0.696037	0	1	0	0	CorrectCommission	0.256916	0.483655	1	0
338.808197	0.792264	city	6	1	0.659890	0.659890	0	1	0	0	CorrectCommission	0.526442	0.475533	1	0
339.600464	0.792266	city	3	1	0.659280	0.659280	0	1	0	0	CorrectCommission	0.530986	0.469743	1	0
340.392822	0.792478	city	1	1	0.695272	0.695272	0	1	0	0	CorrectCommission	0.262619	0.468564	1	0
341.185150	0.792157	city	7	1	0.753798	0.753798	0	1	0	0	CorrectCommission	0.173765	0.474089	1	0
341.977356	0.792263	city	2	1	0.744671	0.744671	0	1	0	0	CorrectCommission	0.105712	0.487970	1	0
342.769684	0.792375	city	10	1	0.708563	0.708563	0	1	0	0	CorrectCommission	0.163520	0.511236	1	0
343.561890	0.792055	city	9	1	0.794065	0.794065	0	1	0	0	CorrectCommission	0.474011	0.544142	1	0
344.354095	0.792365	city	2	1	0.794308	0.794308	0	1	0	0	CorrectCommission	0.475822	0.586139	1	0
345.146362	0.792157	city	7	1	0.808490	0.808490	0	1	0	0	CorrectCommission	0.581564	0.635934	1	0
345.938568	0.792263	city	2	1	0.744798	0.744798	0	1	0	0	CorrectCommission	0.106664	0.691590	0	0
346.730835	0.792266	city	4	1	0.645939	0.645939	0	1	0	0	CorrectCommission	0.630461	0.750742	0	0
347.523224	0.792480	city	6	1	0.596371	0.596371	0	1	0	0	CorrectCommission	1.000054	0.810765	0	0
348.315460	0.792051	city	4	1	0.547675	0.547675	0	1	0	0	CorrectCommission	1.363151	0.869047	0	0
349.107635	0.792263	city	3	1	0.504320	0.504320	0	1	0	0	CorrectCommission	1.686416	0.923145	0	0
349.899963	0.792374	city	7	1	0.551769	0.551769	0	1	0	0	CorrectCommission	1.332621	0.970928	0	0
350.692200	0.792154	city	10	1	0.645888	0.645888	0	1	0	0	CorrectCommission	0.630843	1.010656	0	0
351.484436	0.792274	city	1	1	0.646315	0.646315	0	1	0	0	CorrectCommission	0.627655	1.040996	0	0
352.276703	0.792300	city	4	1	0.843821	0.843821	0	1	0	0	CorrectCommission	0.845006	1.061006	0	0
353.069031	0.792330	city	9	1	0.902589	0.902589	0	1	0	0	CorrectCommission	1.283198	1.070143	0	0
353.861267	0.792158	city	10	1	0.942943	0.942943	0	1	0	0	CorrectCommission	1.584089	1.068242	0	0
354.653473	0.792265	city	7	1	0.993149	0.993149	0	1	0	0	CorrectCommission	1.958439	1.055548	0	0
355.445801	0.792371	city	4	1	0.942928	0.942928	0	1	0	0	CorrectCommission	1.583979	1.032695	0	0
356.238068	0.792178	mountain	1	0	0.000000	0.867599	1	0	0	0	CorrectOmission	1.022305	1.000673	0	0
357.030396	0.792460	city	2	1	0.805911	0.805911	0	1	0	0	CorrectCommission	0.562341	0.960752	0	0
357.822662	0.792048	city	1	1	0.796613	0.796613	0	1	0	0	CorrectCommission	0.493009	0.914392	0	0
358.614838	0.792319	mountain	10	0	0.000000	0.816927	1	0	0	0	CorrectOmission	0.644477	0.863122	0	0
359.407104	0.792210	city	1	1	0.853592	0.853592	0	1	0	0	CorrectCommission	0.917863	0.808478	0	0
360.199341	0.792285	city	6	1	0.893346	0.893346	0	1	0	0	CorrectCommission	1.214282	0.751951	0	0
360.991608	0.792248	city	3	1	0.843821	0.843821	0	1	0	0	CorrectCommission	0.845007	0.694981	0	0
361.783875	0.792264	city	4	1	0.844565	0.844565	0	1	0	0	CorrectCommission	0.850556	0.638976	1	0
362.576233	0.792479	city	7	1	0.744929	0.744929	0	1	0	0	CorrectCommission	0.107635	0.585300	1	0
363.368561	0.792157	city	4	1	0.794118	0.794118	0	1	0	0	CorrectCommission	0.474405	0.535293	1	0
364.160736	0.792190	city	7	1	0.794247	0.794247	0	1	0	0	CorrectCommission	0.475366	0.490174	1	0
364.953064	0.792447	city	1	1	0.697524	0.697524	0	1	0	0	CorrectCommission	0.245832	0.451002	1	1
365.745300	0.792048	city	5	1	0.695732	0.695732	0	1	0	0	CorrectCommission	0.259189	0.418605	1	1
366.537445	0.792266	city	8	1	0.695327	0.695327	0	1	0	0	CorrectCommission	0.262210	0.393494	1	1
367.329712	0.792263	city	5	1	0.695283	0.695283	0	1	0	0	CorrectCommission	0.262539	0.375826	1	1
368.121979	0.792262	city	8	1	0.695263	0.695263	0	1	0	0	CorrectCommission	0.262684	0.365400	1	1
368.914246	0.792285	city	5	1	0.755542	0.755542	0	1	0	0	CorrectCommission	0.186770	0.361624	1	1
369.706573	0.792355	city	1	1	0.704851	0.704851	0	1	0	0	CorrectCommission	0.191198	0.363609	1	1
370.498840	0.792157	city	6	1	0.699092	0.699092	0	1	0	0	CorrectCommission	0.234139	0.370276	1	1
371.291046	0.792266	city	10	1	0.705101	0.705101	0	1	0	0	CorrectCommission	0.189330	0.380505	1	1
372.083405	0.792479	mountain	7	0	0.000000	0.806702	1	0	0	0	CorrectOmission	0.568236	0.393278	1	1
372.875671	0.792050	city	3	1	0.843649	0.843649	0	1	0	0	CorrectCommission	0.843722	0.407816	1	1
373.667847	0.792262	city	1	1	0.655697	0.655697	0	1	0	0	CorrectCommission	0.557705	0.423656	1	1
374.460114	0.792268	city	6	1	0.645804	0.645804	0	1	0	0	CorrectCommission	0.631468	0.440674	1	1
375.252380	0.792297	city	9	1	0.696080	0.696080	0	1	0	0	CorrectCommission	0.256597	0.458989	1	1
376.044769	0.792449	city	10	1	0.695653	0.695653	0	1	0	0	CorrectCommission	0.259776	0.478840	1	1
376.837006	0.792046	city	4	1	0.752274	0.752274	0	1	0	0	CorrectCommission	0.162404	0.500387	1	1
377.629150	0.792263	city	1	1	0.799618	0.799618	0	1	0	0	CorrectCommission	0.515412	0.523568	1	1
378.421539	0.792484	city	6	1	0.844002	0.844002	0	1	0	0	CorrectCommission	0.846357	0.548018	1	1
379.213837	0.792103	mountain	10	0	0.000000	0.802042	1	0	0	0	CorrectOmission	0.533492	0.572990	1	1
380.006104	0.792425	city	10	1	0.745104	0.745104	0	1	0	0	CorrectCommission	0.108942	0.597471	1	1
380.798340	0.792050	city	9	1	0.744552	0.744552	0	1	0	0	CorrectCommission	0.104827	0.620338	1	1
381.590485	0.792276	city	5	1	0.794331	0.794331	0	1	0	0	CorrectCommission	0.475997	0.640591	1	1
382.382812	0.792338	city	3	1	0.893311	0.893311	0	1	0	0	CorrectCommission	1.214017	0.657632	1	1
383.175171	0.792394	city	9	1	1.091313	1.091313	0	1	0	0	CorrectCommission	2.690381	0.671447	1	1
383.967377	0.792050	city	1	1	0.844456	0.844456	0	1	0	0	CorrectCommission	0.849741	0.682682	0	1
384.759613	0.792371	city	5	1	0.695564	0.695564	0	1	0	0	CorrectCommission	0.260444	0.692645	0	1
385.551971	0.792372	city	3	1	0.744988	0.744988	0	1	0	0	CorrectCommission	0.108080	0.702993	0	1
386.344177	0.792051	city	1	1	0.794087	0.794087	0	1	0	0	CorrectCommission	0.474176	0.715395	0	1
387.136353	0.792261	city	8	1	0.695310	0.695310	0	1	0	0	CorrectCommission	0.262338	0.731146	0	1
387.928650	0.792372	city	4	1	0.794366	0.794366	0	1	0	0	CorrectCommission	0.476253	0.750840	0	1
388.721039	0.792374	city	3	1	0.754153	0.754153	0	1	0	0	CorrectCommission	0.176414	0.774143	0	1
389.513336	0.792264	city	6	1	0.843587	0.843587	0	1	0	0	CorrectCommission	0.843263	0.799761	0	1
390.305603	0.792264	mountain	1	0	0.000000	0.898901	1	0	0	0	CorrectOmission	1.255697	0.825551	0	1
391.097778	0.792075	city	4	1	0.893650	0.893650	0	1	0	0	CorrectCommission	1.216544	0.848850	0	1
391.889923	0.792238	city	2	1	0.801390	0.801390	0	1	0	0	CorrectCommission	0.528630	0.866887	0	1
392.682220	0.792317	city	10	1	0.795815	0.795815	0	1	0	0	CorrectCommission	0.487059	0.877225	0	1
393.474487	0.792230	city	7	1	1.091367	1.091367	0	1	0	0	CorrectCommission	2.690787	0.878096	0	1
394.266724	0.792247	city	6	1	0.947931	0.947931	0	1	0	0	CorrectCommission	1.621279	0.868661	0	1
395.058990	0.792264	city	10	1	0.843833	0.843833	0	1	0	0	CorrectCommission	0.845099	0.849204	0	1
395.851257	0.792280	city	3	1	0.794756	0.794756	0	1	0	0	CorrectCommission	0.479162	0.821041	0	1
396.643616	0.792469	city	5	1	0.759237	0.759237	0	1	0	0	CorrectCommission	0.214323	0.786348	0	1
397.435883	0.792050	city	8	1	0.844255	0.844255	0	1	0	0	CorrectCommission	0.848243	0.747888	0	1
398.228058	0.792261	city	2	1	0.844209	0.844209	0	1	0	0	CorrectCommission	0.847902	0.708647	0	1
399.020294	0.792267	city	1	1	0.844437	0.844437	0	1	0	0	CorrectCommission	0.849600	0.671526	1	1
399.812592	0.792292	city	9	1	0.794332	0.794332	0	1	0	0	CorrectCommission	0.476002	0.639038	1	1
400.604858	0.792234	city	4	1	0.794287	0.794287	0	1	0	0	CorrectCommission	0.475669	0.613020	1	1
401.397125	0.792322	city	5	1	0.744814	0.744814	0	1	0	0	CorrectCommission	0.106777	0.594523	1	1
402.189392	0.792208	mountain	3	0	0.000000	0.720654	1	0	0	0	CorrectOmission	0.073365	0.583733	1	1
402.981628	0.792270	city	8	1	0.696182	0.696182	0	1	0	0	CorrectCommission	0.255836	0.579978	1	1
403.773956	0.792367	city	5	1	0.645771	0.645771	0	1	0	0	CorrectCommission	0.631713	0.581870	1	1
404.566223	0.792168	city	10	1	0.596106	0.596106	0	1	0	0	CorrectCommission	1.002032	0.587532	1	1
405.358429	0.792274	city	3	1	0.646302	0.646302	0	1	0	0	CorrectCommission	0.627755	0.594869	1	1
406.150696	0.792250	city	10	1	0.744800	0.744800	0	1	0	0	CorrectCommission	0.106678	0.601885	1	1
406.943054	0.792477	city	2	1	0.844208	0.844208	0	1	0	0	CorrectCommission	0.847895	0.606945	1	1
407.735321	0.792052	city	7	1	0.900053	0.900053	0	1	0	0	CorrectCommission	1.264285	0.608948	1	1
408.527496	0.792262	city	1	1	0.860285	0.860285	0	1	0	0	CorrectCommission	0.967766	0.607460	1	1
409.319733	0.792262	city	9	1	0.893460	0.893460	0	1	0	0	CorrectCommission	1.215128	0.602707	1	1
410.112000	0.792267	city	4	1	0.758172	0.758172	0	1	0	0	CorrectCommission	0.206382	0.595410	1	1
410.904266	0.792263	city	7	1	0.744798	0.744798	0	1	0	0	CorrectCommission	0.106662	0.586551	1	1
411.696655	0.792481	city	9	1	0.795099	0.795099	0	1	0	0	CorrectCommission	0.481719	0.577126	1	1
412.488922	0.792047	city	6	1	0.794087	0.794087	0	1	0	0	CorrectCommission	0.474172	0.567928	1	1
413.281097	0.792290	city	4	1	0.745283	0.745283	0	1	0	0	CorrectCommission	0.110278	0.559366	1	1
414.073456	0.792458	city	1	1	0.744833	0.744833	0	1	0	0	CorrectCommission	0.106921	0.551449	1	1
414.865723	0.792092	city	5	1	0.893250	0.893250	0	1	0	0	CorrectCommission	1.213566	0.543823	1	1
415.657928	0.792328	city	1	1	0.801460	0.801460	0	1	0	0	CorrectCommission	0.529152	0.535959	1	1
416.450195	0.792160	city	3	1	0.844236	0.844236	0	1	0	0	CorrectCommission	0.848102	0.527410	1	1
417.242493	0.792478	city	9	1	0.844000	0.844000	0	1	0	0	CorrectCommission	0.846343	0.517952	1	1
418.034760	0.792049	city	3	1	0.794382	0.794382	0	1	0	0	CorrectCommission	0.476376	0.507794	1	1
418.826935	0.792291	city	9	1	0.796337	0.796337	0	1	0	0	CorrectCommission	0.490949	0.497631	1	1
419.619202	0.792238	city	5	1	0.658333	0.658333	0	1	0	0	CorrectCommission	0.538048	0.488607	1	1
420.411469	0.792267	city	2	1	0.651149	0.651149	0	1	0	0	CorrectCommission	0.591614	0.482186	1	1
421.203735	0.792267	city	9	1	0.744769	0.744769	0	1	0	0	CorrectCommission	0.106443	0.480001	1	1
421.996094	0.792478	city	3	1	0.744803	0.744803	0	1	0	0	CorrectCommission	0.106700	0.483629	1	1
422.788361	0.792051	city	9	1	0.745693	0.745693	0	1	0	0	CorrectCommission	0.113336	0.494406	1	1
423.580505	0.792261	city	8	1	0.752128	0.752128	0	1	0	0	CorrectCommission	0.161319	0.513300	1	1
424.372833	0.792373	city	7	1	0.809295	0.809295	0	1	0	0	CorrectCommission	0.587573	0.540787	1	0
425.165192	0.792374	city	8	1	0.843958	0.843958	0	1	0	0	CorrectCommission	0.846029	0.576807	1	0
425.957520	0.792265	mountain	2	0	0.000000	0.808264	1	0	0	0	CorrectOmission	0.579884	0.620794	1	0
426.749786	0.792264	city	5	1	0.794089	0.794089	0	1	0	0	CorrectCommission	0.474190	0.671674	1	0
427.541992	0.792115	city	4	1	0.893308	0.893308	0	1	0	0	CorrectCommission	1.213995	0.727903	0	0
428.334137	0.792198	city	7	1	0.752611	0.752611	0	1	0	0	CorrectCommission	0.164919	0.787483	0	0
429.126465	0.792482	city	5	1	0.701659	0.701659	0	1	0	0	CorrectCommission	0.215000	0.848109	0	0
429.918854	0.792264	city	1	1	0.695202	0.695202	0	1	0	0	CorrectCommission	0.263142	0.907256	0	0
430.711121	0.792265	city	8	1	0.508822	0.508822	0	1	0	0	CorrectCommission	1.652846	0.962393	0	0
431.503326	0.792154	mountain	10	1	0.452348	0.452348	0	0	1	0	CommissionError	2.073932	1.011172	0	0
432.295532	0.792265	city	5	1	0.596942	0.596942	0	1	0	0	CorrectCommission	0.995796	1.051708	0	0
433.087738	0.792158	city	8	1	0.502586	0.502586	0	1	0	0	CorrectCommission	1.699344	1.082798	0	0
433.880005	0.792371	city	7	1	0.547067	0.547067	0	1	0	0	CorrectCommission	1.367683	1.103939	0	0
434.672272	0.792184	city	10	1	0.546659	0.546659	0	1	0	0	CorrectCommission	1.370720	1.115397	0	0
435.464539	0.792347	city	5	1	0.650454	0.650454	0	1	0	0	CorrectCommission	0.596800	1.118062	0	0
436.256805	0.792156	city	3	1	0.954148	0.954148	0	1	0	0	CorrectCommission	1.667634	1.113259	0	0
437.049133	0.792480	city	7	1	0.843848	0.843848	0	1	0	0	CorrectCommission	0.845206	1.102453	0	0
437.841400	0.792052	city	1	1	0.851192	0.851192	0	1	0	0	CorrectCommission	0.899964	1.087081	0	0
438.633667	0.792478	city	10	1	0.893339	0.893339	0	1	0	0	CorrectCommission	1.214227	1.068316	0	0
439.425964	0.792117	mountain	10	0	0.000000	0.836881	1	0	0	0	CorrectOmission	0.793256	1.046951	0	0
440.218201	0.792412	city	3	1	0.801227	0.801227	0	1	0	0	CorrectCommission	0.527414	1.023453	0	0
441.010437	0.792057	city	5	1	0.905790	0.905790	0	1	0	0	CorrectCommission	1.307064	0.998052	0	0
441.802612	0.792257	mountain	4	0	0.000000	0.939990	1	0	0	0	CorrectOmission	1.562071	0.970911	0	0
442.594910	0.792373	city	7	1	0.905186	0.905186	0	1	0	0	CorrectCommission	1.302560	0.942382	0	0
443.387177	0.792153	city	10	1	0.802735	0.802735	0	1	0	0	CorrectCommission	0.538657	0.913205	0	0
444.179443	0.792374	city	2	1	0.844949	0.844949	0	1	0	0	CorrectCommission	0.853419	0.884639	0	0
444.971741	0.792228	city	8	1	0.893270	0.893270	0	1	0	0	CorrectCommission	1.213710	0.858434	0	0
445.763947	0.792196	city	4	1	0.843662	0.843662	0	1	0	0	CorrectCommission	0.843818	0.836811	0	0
446.556183	0.792261	city	5	1	0.761747	0.761747	0	1	0	0	CorrectCommission	0.233037	0.822182	0	0
447.348511	0.792373	city	10	1	0.844165	0.844165	0	1	0	0	CorrectCommission	0.847570	0.816894	0	0
448.140778	0.792161	city	9	1	0.861973	0.861973	0	1	0	0	CorrectCommission	0.980355	0.822785	0	0
448.932983	0.792260	city	7	1	0.794282	0.794282	0	1	0	0	CorrectCommission	0.475632	0.840912	0	0
449.725311	0.792373	city	4	1	0.758431	0.758431	0	1	0	0	CorrectCommission	0.208315	0.871300	0	0
450.517670	0.792374	city	7	1	0.749457	0.749457	0	1	0	0	CorrectCommission	0.141403	0.912740	0	0
451.309937	0.792157	mountain	6	0	0.000000	0.732889	1	0	0	0	CorrectOmission	0.017868	0.962847	0	0
452.102081	0.792154	city	7	1	0.663780	0.663780	0	1	0	0	CorrectCommission	0.497431	1.018274	0	0
452.894318	0.792296	city	10	1	0.497183	0.497183	0	1	0	0	CorrectCommission	1.739632	1.075082	0	0
453.686707	0.792453	city	6	1	0.359397	0.359397	0	1	0	0	CorrectCommission	2.767007	1.129163	0	0
454.479004	0.792155	city	7	1	0.509342	0.509342	0	1	0	0	CorrectCommission	1.648971	1.176753	0	0
455.271179	0.792217	city	2	1	0.497249	0.497249	0	1	0	0	CorrectCommission	1.739142	1.214810	0	0
456.063385	0.792210	city	4	1	0.555990	0.555990	0	1	0	0	CorrectCommission	1.301149	1.241167	0	0
456.855621	0.792261	city	6	1	0.596283	0.596283	0	1	0	0	CorrectCommission	1.000714	1.254637	0	0
457.647888	0.792263	city	4	1	0.556384	0.556384	0	1	0	0	CorrectCommission	1.298212	1.254921	0	0
458.440155	0.792270	city	5	1	0.596249	0.596249	0	1	0	0	CorrectCommission	1.000967	1.242412	0	0
459.232422	0.792278	city	9	1	0.597455	0.597455	0	1	0	0	CorrectCommission	0.991973	1.218049	0	0
460.024689	0.792246	mountain	7	1	0.564052	0.564052	0	0	1	0	CommissionError	1.241032	1.183143	0	0
460.816956	0.792264	city	9	1	1.091908	1.091908	0	1	0	0	CorrectCommission	2.694818	1.139269	0	0
461.609222	0.792266	city	6	0	0.000000	0.874341	0	0	0	1	OmissionError	1.072575	1.088163	0	0
462.401489	0.792304	city	10	1	0.546810	0.546810	0	1	0	0	CorrectCommission	1.369595	1.031748	0	0
463.193787	0.792266	city	5	1	0.744773	0.744773	0	1	0	0	CorrectCommission	0.106474	0.971962	0	0
463.986023	0.792228	city	6	1	0.649506	0.649506	0	1	0	0	CorrectCommission	0.603867	0.910803	0	0
464.778320	0.792371	city	7	1	0.596407	0.596407	0	1	0	0	CorrectCommission	0.999783	0.850147	0	0
465.570587	0.792154	city	4	1	0.596109	0.596109	0	1	0	0	CorrectCommission	1.002007	0.791714	0	0
466.362793	0.792269	city	7	1	0.646678	0.646678	0	1	0	0	CorrectCommission	0.624950	0.737030	0	0
467.155060	0.792265	city	1	1	0.645904	0.645904	0	1	0	0	CorrectCommission	0.630725	0.687365	0	0
467.947449	0.792480	city	10	1	0.695282	0.695282	0	1	0	0	CorrectCommission	0.262544	0.643694	1	0
468.739716	0.792048	city	9	1	0.751542	0.751542	0	1	0	0	CorrectCommission	0.156950	0.606697	1	0
469.531921	0.792373	city	2	1	0.844157	0.844157	0	1	0	0	CorrectCommission	0.847510	0.576758	1	0
470.324188	0.792156	city	10	1	0.808059	0.808059	0	1	0	0	CorrectCommission	0.578351	0.553925	1	0
471.116425	0.792322	city	3	1	0.794833	0.794833	0	1	0	0	CorrectCommission	0.479740	0.537938	1	0
471.908691	0.792208	city	8	1	0.794269	0.794269	0	1	0	0	CorrectCommission	0.475530	0.528255	1	0
472.700989	0.792371	city	9	1	0.794274	0.794274	0	1	0	0	CorrectCommission	0.475568	0.524033	1	0
473.493347	0.792374	city	8	1	0.695501	0.695501	0	1	0	0	CorrectCommission	0.260912	0.524154	1	0
474.285675	0.792266	city	7	1	0.695189	0.695189	0	1	0	0	CorrectCommission	0.263237	0.527300	1	0
475.077850	0.792086	mountain	2	0	0.000000	0.673655	1	0	0	0	CorrectOmission	0.423803	0.532060	1	0
475.870056	0.792334	city	6	1	0.695420	0.695420	0	1	0	0	CorrectCommission	0.261514	0.537096	1	0
476.662415	0.792373	mountain	9	0	0.000000	0.825008	1	0	0	0	CorrectOmission	0.704730	0.541356	1	0
477.454620	0.792049	city	4	1	0.909782	0.909782	0	1	0	0	CorrectCommission	1.336832	0.544273	1	0
478.246887	0.792481	city	1	1	0.797107	0.797107	0	1	0	0	CorrectCommission	0.496693	0.545920	1	0
479.039246	0.792266	city	3	1	0.893100	0.893100	0	1	0	0	CorrectCommission	1.212443	0.547163	1	0
479.831421	0.792066	city	4	1	0.844087	0.844087	0	1	0	0	CorrectCommission	0.846991	0.549517	1	0
480.623596	0.792246	city	6	1	0.744849	0.744849	0	1	0	0	CorrectCommission	0.107044	0.555070	1	0
481.415833	0.792268	city	1	1	0.748539	0.748539	0	1	0	0	CorrectCommission	0.134558	0.566113	1	0
482.208160	0.792369	city	9	1	0.750603	0.750603	0	1	0	0	CorrectCommission	0.149945	0.584782	1	0
483.000427	0.792158	city	8	1	0.744701	0.744701	0	1	0	0	CorrectCommission	0.105934	0.612707	1	0
483.792633	0.792265	city	9	1	0.745252	0.745252	0	1	0	0	CorrectCommission	0.110048	0.650691	1	0
484.584900	0.792270	city	3	1	0.597595	0.597595	0	1	0	0	CorrectCommission	0.990930	0.698523	0	0
485.377167	0.792263	city	8	1	0.647066	0.647066	0	1	0	0	CorrectCommission	0.622055	0.754909	0	0
486.169464	0.792326	city	4	1	0.695426	0.695426	0	1	0	0	CorrectCommission	0.261475	0.817621	0	0
486.961761	0.792306	city	6	1	0.611977	0.611977	0	1	0	0	CorrectCommission	0.883694	0.883694	0	0
