onset	duration	trial_type	image_type	Press	ReactionTime	ReactionTime_Interpolated	CorrectOmission	CorrectCommission	CommissionError	OmissionError	response_type	nonsmoothVarianceTimeCourse	VarianceTimeCourse	In_the_Zone	Reward_trial
8.433769	0.792270	mountain	9	0	0.000000	0.742305	1	0	0	0	CorrectOmission	0.588716	0.588716	1	1
9.226037	0.792265	city	3	1	0.650995	0.650995	0	1	0	0	CorrectCommission	0.608524	0.575204	1	1
10.018321	0.792304	city	5	1	0.559686	0.559686	0	1	0	0	CorrectCommission	1.805765	0.561817	1	1
10.810584	0.792221	city	4	1	0.645929	0.645929	0	1	0	0	CorrectCommission	0.674952	0.548733	1	1
11.602828	0.792267	city	2	1	0.695350	0.695350	0	1	0	0	CorrectCommission	0.026944	0.536330	1	1
12.395205	0.792487	city	10	1	0.697899	0.697899	0	1	0	0	CorrectCommission	0.006474	0.525120	1	1
13.187523	0.792149	city	1	1	0.697836	0.697836	0	1	0	0	CorrectCommission	0.005655	0.515767	1	1
13.979710	0.792225	city	7	1	0.794569	0.794569	0	1	0	0	CorrectCommission	1.274001	0.509036	1	1
14.772029	0.792414	city	3	1	0.758114	0.758114	0	1	0	0	CorrectCommission	0.796007	0.505654	1	1
15.564272	0.792072	city	8	1	0.695122	0.695122	0	1	0	0	CorrectCommission	0.029937	0.506276	1	1
16.356430	0.792243	city	9	1	0.744902	0.744902	0	1	0	0	CorrectCommission	0.622778	0.511414	1	1
17.148695	0.792288	city	4	1	0.711828	0.711828	0	1	0	0	CorrectCommission	0.189108	0.521304	1	1
17.941067	0.792457	city	6	1	0.705506	0.705506	0	1	0	0	CorrectCommission	0.106218	0.535923	1	1
18.733341	0.792092	city	4	1	0.711944	0.711944	0	1	0	0	CorrectCommission	0.190634	0.554963	1	1
19.525551	0.792327	city	7	1	0.645961	0.645961	0	1	0	0	CorrectCommission	0.674535	0.577867	1	1
20.317848	0.792264	city	5	1	0.596136	0.596136	0	1	0	0	CorrectCommission	1.327833	0.603898	1	1
21.110060	0.792159	city	10	1	0.613017	0.613017	0	1	0	0	CorrectCommission	1.106489	0.632190	1	1
21.902288	0.792301	city	7	1	0.695410	0.695410	0	1	0	0	CorrectCommission	0.026165	0.661878	1	1
22.694551	0.792224	city	10	1	0.695267	0.695267	0	1	0	0	CorrectCommission	0.028038	0.692135	1	1
23.486851	0.792375	city	4	1	0.764370	0.764370	0	1	0	0	CorrectCommission	0.878034	0.722182	1	1
24.279224	0.792373	city	3	1	0.599274	0.599274	0	1	0	0	CorrectCommission	1.286687	0.751336	1	1
25.071438	0.792052	city	1	1	0.645565	0.645565	0	1	0	0	CorrectCommission	0.679725	0.778995	0	1
25.863617	0.792307	city	8	1	0.652539	0.652539	0	1	0	0	CorrectCommission	0.588286	0.804644	0	1
26.655895	0.792251	city	3	1	0.561869	0.561869	0	1	0	0	CorrectCommission	1.777136	0.827791	0	1
27.448160	0.792279	city	2	1	0.660062	0.660062	0	1	0	0	CorrectCommission	0.489638	0.847891	0	1
28.240408	0.792217	city	1	1	0.653133	0.653133	0	1	0	0	CorrectCommission	0.580492	0.864420	0	1
29.032650	0.792265	city	2	1	0.610384	0.610384	0	1	0	0	CorrectCommission	1.141005	0.876726	0	1
29.825024	0.792483	city	8	1	0.645913	0.645913	0	1	0	0	CorrectCommission	0.675158	0.884073	0	1
30.617313	0.792096	city	2	1	0.695373	0.695373	0	1	0	0	CorrectCommission	0.026646	0.885735	0	1
31.409576	0.792434	city	9	1	0.563376	0.563376	0	1	0	0	CorrectCommission	1.757379	0.881059	0	1
32.201817	0.792048	city	10	1	0.559789	0.559789	0	1	0	0	CorrectCommission	1.804403	0.869578	0	1
32.993977	0.792267	city	1	1	0.646123	0.646123	0	1	0	0	CorrectCommission	0.672401	0.851205	0	1
33.786240	0.792260	city	10	1	0.794430	0.794430	0	1	0	0	CorrectCommission	1.272174	0.826348	0	1
34.578503	0.792267	city	3	1	0.646046	0.646046	0	1	0	0	CorrectCommission	0.673417	0.795893	0	1
35.370876	0.792482	city	4	1	0.657488	0.657488	0	1	0	0	CorrectCommission	0.523389	0.761258	0	1
36.163143	0.792046	city	6	1	0.650324	0.650324	0	1	0	0	CorrectCommission	0.617316	0.724238	1	1
36.955299	0.792265	city	7	1	0.603448	0.603448	0	1	0	0	CorrectCommission	1.231960	0.686879	1	1
37.747574	0.792288	city	5	1	0.647785	0.647785	0	1	0	0	CorrectCommission	0.650609	0.651236	1	1
38.539841	0.792244	city	7	1	0.695266	0.695266	0	1	0	0	CorrectCommission	0.028050	0.619228	1	1
39.332111	0.792301	mountain	3	0	0.000000	0.682727	1	0	0	0	CorrectOmission	0.192457	0.592414	1	1
40.124378	0.792227	mountain	9	0	0.000000	0.652222	1	0	0	0	CorrectOmission	0.592440	0.571801	1	1
40.916622	0.792263	city	10	1	0.645802	0.645802	0	1	0	0	CorrectCommission	0.676612	0.557776	1	1
41.708885	0.792265	city	8	1	0.705521	0.705521	0	1	0	0	CorrectCommission	0.106418	0.550055	1	1
42.501163	0.792289	city	7	1	0.708683	0.708683	0	1	0	0	CorrectCommission	0.147878	0.547769	1	1
43.293537	0.792459	city	4	1	0.794329	0.794329	0	1	0	0	CorrectCommission	1.270853	0.549562	1	1
44.085789	0.792049	city	5	1	0.702447	0.702447	0	1	0	0	CorrectCommission	0.066106	0.553750	1	1
44.877953	0.792277	mountain	1	0	0.000000	0.707051	1	0	0	0	CorrectOmission	0.126474	0.558655	1	1
45.670269	0.792358	city	10	1	0.756797	0.756797	0	1	0	0	CorrectCommission	0.778740	0.562739	1	1
46.462551	0.792206	mountain	5	0	0.000000	0.800341	1	0	0	0	CorrectOmission	1.349688	0.564801	1	1
47.254871	0.792432	city	9	1	0.794244	0.794244	0	1	0	0	CorrectCommission	1.269736	0.564175	1	1
48.047131	0.792083	city	4	1	0.695064	0.695064	0	1	0	0	CorrectCommission	0.030697	0.560795	1	1
48.839287	0.792231	city	7	1	0.645717	0.645717	0	1	0	0	CorrectCommission	0.677733	0.555142	1	1
49.631535	0.792264	city	10	1	0.662725	0.662725	0	1	0	0	CorrectCommission	0.454720	0.548093	1	1
50.423813	0.792293	city	1	1	0.645771	0.645771	0	1	0	0	CorrectCommission	0.677027	0.540833	1	1
51.216110	0.792301	city	5	1	0.695235	0.695235	0	1	0	0	CorrectCommission	0.028458	0.534566	1	1
52.008411	0.792307	city	9	1	0.744777	0.744777	0	1	0	0	CorrectCommission	0.621132	0.530401	1	1
52.800755	0.792375	city	1	1	0.695182	0.695182	0	1	0	0	CorrectCommission	0.029145	0.529147	1	1
53.592964	0.792045	city	3	1	0.744588	0.744588	0	1	0	0	CorrectCommission	0.618654	0.531283	1	1
54.385174	0.792376	city	6	1	0.646677	0.646677	0	1	0	0	CorrectCommission	0.665143	0.536879	1	1
55.177471	0.792218	mountain	6	0	0.000000	0.713330	1	0	0	0	CorrectOmission	0.208799	0.545663	1	1
55.969734	0.792310	city	9	1	0.795653	0.795653	0	1	0	0	CorrectCommission	1.288220	0.557098	1	1
56.762024	0.792266	city	4	1	0.744756	0.744756	0	1	0	0	CorrectCommission	0.620857	0.570418	1	1
57.554291	0.792264	city	9	1	0.699218	0.699218	0	1	0	0	CorrectCommission	0.023770	0.584813	1	1
58.346497	0.792154	city	4	1	0.695156	0.695156	0	1	0	0	CorrectCommission	0.029490	0.599436	1	1
59.138710	0.792268	mountain	6	0	0.000000	0.748807	1	0	0	0	CorrectOmission	0.673973	0.613535	1	1
59.930977	0.792267	city	2	1	0.801491	0.801491	0	1	0	0	CorrectCommission	1.364762	0.626561	1	1
60.723240	0.792260	city	4	1	0.794529	0.794529	0	1	0	0	CorrectCommission	1.273478	0.638243	1	1
61.515503	0.792266	city	1	1	0.695407	0.695407	0	1	0	0	CorrectCommission	0.026194	0.648720	1	1
62.307800	0.792330	city	3	1	0.645799	0.645799	0	1	0	0	CorrectCommission	0.676659	0.658549	1	1
63.100174	0.792417	city	2	1	0.645722	0.645722	0	1	0	0	CorrectCommission	0.677659	0.668601	1	1
63.892406	0.792047	city	10	1	0.647094	0.647094	0	1	0	0	CorrectCommission	0.659668	0.680028	1	1
64.684570	0.792285	city	7	1	0.745479	0.745479	0	1	0	0	CorrectCommission	0.630339	0.694052	1	1
65.476891	0.792354	city	8	1	0.794307	0.794307	0	1	0	0	CorrectCommission	1.270570	0.711782	1	1
66.269150	0.792157	city	9	1	0.695222	0.695222	0	1	0	0	CorrectCommission	0.028621	0.733910	1	1
67.061356	0.792266	city	7	1	0.645966	0.645966	0	1	0	0	CorrectCommission	0.674464	0.760524	0	1
67.853622	0.792261	city	2	1	0.645769	0.645769	0	1	0	0	CorrectCommission	0.677049	0.790845	0	0
68.645889	0.792270	mountain	9	1	0.646199	0.646199	0	0	1	0	CommissionError	0.671415	0.823208	0	0
69.438164	0.792286	city	6	1	0.744773	0.744773	0	1	0	0	CorrectCommission	0.621081	0.855083	0	0
70.230431	0.792248	city	8	1	0.695435	0.695435	0	1	0	0	CorrectCommission	0.025827	0.883315	0	0
71.022690	0.792272	city	1	1	0.667233	0.667233	0	1	0	0	CorrectCommission	0.395615	0.904499	0	0
71.815063	0.792466	city	8	1	0.794332	0.794332	0	1	0	0	CorrectCommission	1.270893	0.915436	0	0
72.607430	0.792265	city	4	1	0.992171	0.992171	0	1	0	0	CorrectCommission	3.864932	0.913648	0	0
73.399689	0.792266	city	2	1	0.853381	0.853381	0	1	0	0	CorrectCommission	2.045138	0.897726	0	0
74.191849	0.792045	city	5	1	0.749614	0.749614	0	1	0	0	CorrectCommission	0.684552	0.867681	0	0
74.984001	0.792268	city	7	1	0.653698	0.653698	0	1	0	0	CorrectCommission	0.573085	0.824850	0	0
75.776321	0.792370	city	5	1	0.710065	0.710065	0	1	0	0	CorrectCommission	0.165992	0.771674	0	0
76.568695	0.792375	city	3	1	0.645816	0.645816	0	1	0	0	CorrectCommission	0.676433	0.711334	1	0
77.360909	0.792050	city	4	1	0.645613	0.645613	0	1	0	0	CorrectCommission	0.679095	0.647299	1	0
78.153175	0.792478	city	2	1	0.695386	0.695386	0	1	0	0	CorrectCommission	0.026476	0.582913	1	0
78.945465	0.792113	city	6	1	0.652427	0.652427	0	1	0	0	CorrectCommission	0.589746	0.521125	1	0
79.737656	0.792263	city	5	1	0.697973	0.697973	0	1	0	0	CorrectCommission	0.007449	0.464250	1	0
80.529892	0.792202	city	9	1	0.657171	0.657171	0	1	0	0	CorrectCommission	0.527548	0.413978	1	0
81.322121	0.792263	city	3	1	0.758656	0.758656	0	1	0	0	CorrectCommission	0.803121	0.371428	1	0
82.114403	0.792300	city	5	1	0.708041	0.708041	0	1	0	0	CorrectCommission	0.139452	0.337290	1	0
82.906776	0.792448	city	3	1	0.696800	0.696800	0	1	0	0	CorrectCommission	0.007937	0.311944	1	0
83.699028	0.792049	city	8	1	0.695520	0.695520	0	1	0	0	CorrectCommission	0.024723	0.295584	1	0
84.491180	0.792265	city	4	1	0.657558	0.657558	0	1	0	0	CorrectCommission	0.522477	0.288213	1	0
85.283554	0.792480	city	9	1	0.696096	0.696096	0	1	0	0	CorrectCommission	0.017167	0.289664	1	0
86.075821	0.792045	city	2	1	0.695711	0.695711	0	1	0	0	CorrectCommission	0.022216	0.299588	1	0
86.868080	0.792484	city	10	1	0.708209	0.708209	0	1	0	0	CorrectCommission	0.141657	0.317353	1	0
87.660347	0.792051	city	7	1	0.697259	0.697259	0	1	0	0	CorrectCommission	0.001911	0.341994	1	0
88.452614	0.792478	city	5	1	0.744814	0.744814	0	1	0	0	CorrectCommission	0.621621	0.372210	1	0
89.244888	0.792076	city	7	1	0.716930	0.716930	0	1	0	0	CorrectCommission	0.256014	0.406384	1	0
90.037048	0.792236	city	2	1	0.695300	0.695300	0	1	0	0	CorrectCommission	0.027607	0.442670	1	0
90.829300	0.792265	city	3	1	0.744800	0.744800	0	1	0	0	CorrectCommission	0.621442	0.479163	1	0
91.621567	0.792269	city	9	1	0.645783	0.645783	0	1	0	0	CorrectCommission	0.676857	0.514038	1	0
92.413834	0.792262	city	7	1	0.596559	0.596559	0	1	0	0	CorrectCommission	1.322277	0.545672	1	0
93.206093	0.792266	city	1	1	0.645762	0.645762	0	1	0	0	CorrectCommission	0.677139	0.572755	1	0
93.998375	0.792289	city	9	1	0.645788	0.645788	0	1	0	0	CorrectCommission	0.676804	0.594352	1	0
94.790741	0.792455	city	4	1	0.645813	0.645813	0	1	0	0	CorrectCommission	0.676473	0.609857	1	0
95.583046	0.792155	city	9	1	0.695102	0.695102	0	1	0	0	CorrectCommission	0.030200	0.618986	1	0
96.375313	0.792375	city	5	1	0.645688	0.645688	0	1	0	0	CorrectCommission	0.678109	0.621695	1	0
97.167549	0.792094	city	10	1	0.612567	0.612567	0	1	0	0	CorrectCommission	1.112386	0.618105	1	0
97.959808	0.792434	city	2	1	0.645773	0.645773	0	1	0	0	CorrectCommission	0.676992	0.608503	1	0
98.752052	0.792050	city	1	1	0.606310	0.606310	0	1	0	0	CorrectCommission	1.194431	0.593317	1	0
99.544212	0.792262	city	8	1	0.700138	0.700138	0	1	0	0	CorrectCommission	0.035831	0.573130	1	0
100.336586	0.792483	city	9	1	0.699306	0.699306	0	1	0	0	CorrectCommission	0.024921	0.548757	1	0
101.128845	0.792049	mountain	6	0	0.000000	0.775608	1	0	0	0	CorrectOmission	1.025384	0.521221	1	0
101.921036	0.792333	city	2	1	0.804200	0.804200	0	1	0	0	CorrectCommission	1.400283	0.491748	1	0
102.713356	0.792303	city	8	1	0.660239	0.660239	0	1	0	0	CorrectCommission	0.487317	0.461789	1	0
103.505638	0.792263	city	2	1	0.695174	0.695174	0	1	0	0	CorrectCommission	0.029256	0.432932	1	0
104.297852	0.792158	city	1	1	0.699025	0.699025	0	1	0	0	CorrectCommission	0.021234	0.406761	1	0
105.090080	0.792293	city	6	1	0.703952	0.703952	0	1	0	0	CorrectCommission	0.085836	0.384772	1	0
105.882339	0.792238	city	7	1	0.695277	0.695277	0	1	0	0	CorrectCommission	0.027898	0.368200	1	0
106.674591	0.792264	city	8	1	0.651396	0.651396	0	1	0	0	CorrectCommission	0.603269	0.357971	1	0
107.466888	0.792332	city	6	1	0.698602	0.698602	0	1	0	0	CorrectCommission	0.015689	0.354622	1	0
108.259262	0.792413	city	4	1	0.659961	0.659961	0	1	0	0	CorrectCommission	0.490969	0.358300	1	0
109.051498	0.792049	city	10	1	0.646111	0.646111	0	1	0	0	CorrectCommission	0.672559	0.368726	1	0
109.843651	0.792263	city	2	1	0.705424	0.705424	0	1	0	0	CorrectCommission	0.105144	0.385276	1	0
110.635918	0.792272	mountain	9	0	0.000000	0.710074	1	0	0	0	CorrectOmission	0.166113	0.406993	1	0
111.428215	0.792320	city	8	1	0.695495	0.695495	0	1	0	0	CorrectCommission	0.025041	0.432677	1	0
112.220581	0.792421	city	7	1	0.697123	0.697123	0	1	0	0	CorrectCommission	0.003702	0.460968	1	0
113.012817	0.792051	city	3	1	0.599791	0.599791	0	1	0	0	CorrectCommission	1.279902	0.490493	1	0
113.804977	0.792260	city	5	1	0.655157	0.655157	0	1	0	0	CorrectCommission	0.553953	0.519992	1	0
114.597237	0.792264	city	7	1	0.744940	0.744940	0	1	0	0	CorrectCommission	0.623278	0.548442	1	0
115.389503	0.792271	city	9	1	0.745457	0.745457	0	1	0	0	CorrectCommission	0.630045	0.575188	1	0
116.181877	0.792478	city	7	1	0.744812	0.744812	0	1	0	0	CorrectCommission	0.621592	0.600005	1	0
116.974251	0.792270	city	8	1	0.646024	0.646024	0	1	0	0	CorrectCommission	0.673698	0.623098	1	0
117.766411	0.792045	city	4	1	0.605728	0.605728	0	1	0	0	CorrectCommission	1.202060	0.645048	1	0
118.558563	0.792265	city	5	1	0.645934	0.645934	0	1	0	0	CorrectCommission	0.674878	0.666627	1	0
119.350830	0.792261	city	9	1	0.695309	0.695309	0	1	0	0	CorrectCommission	0.027488	0.688668	1	0
120.143105	0.792283	mountain	10	1	0.598779	0.598779	0	0	1	0	CommissionError	1.293175	0.711888	1	0
120.935478	0.792462	city	1	1	0.695532	0.695532	0	1	0	0	CorrectCommission	0.024561	0.736628	1	0
121.727753	0.792091	city	4	1	0.695088	0.695088	0	1	0	0	CorrectCommission	0.030387	0.762829	0	0
122.519913	0.792237	city	5	1	0.745124	0.745124	0	1	0	0	CorrectCommission	0.625688	0.789963	0	0
123.312172	0.792275	city	8	1	0.794325	0.794325	0	1	0	0	CorrectCommission	1.270799	0.817114	0	0
124.104485	0.792348	city	6	1	0.612913	0.612913	0	1	0	0	CorrectCommission	1.107854	0.843150	0	0
124.896736	0.792159	city	2	1	0.499553	0.499553	0	1	0	0	CorrectCommission	2.594219	0.866882	0	0
125.688965	0.792295	city	9	1	0.695832	0.695832	0	1	0	0	CorrectCommission	0.020623	0.887193	0	0
126.481239	0.792259	city	6	1	0.661083	0.661083	0	1	0	0	CorrectCommission	0.476256	0.903292	0	0
127.273491	0.792239	city	1	1	0.695402	0.695402	0	1	0	0	CorrectCommission	0.026270	0.914665	0	1
128.065750	0.792272	city	4	1	0.761436	0.761436	0	1	0	0	CorrectCommission	0.839565	0.921193	0	1
128.858063	0.792363	city	7	1	0.943449	0.943449	0	1	0	0	CorrectCommission	3.226101	0.923096	0	1
129.650360	0.792234	city	4	1	0.744713	0.744713	0	1	0	0	CorrectCommission	0.620292	0.920858	0	1
130.442566	0.792187	city	7	1	0.745081	0.745081	0	1	0	0	CorrectCommission	0.625119	0.915217	0	1
131.234909	0.792483	city	9	1	0.794362	0.794362	0	1	0	0	CorrectCommission	1.271282	0.906956	0	1
132.027222	0.792156	city	1	1	0.710610	0.710610	0	1	0	0	CorrectCommission	0.173147	0.896780	0	1
132.819382	0.792155	city	5	1	0.652929	0.652929	0	1	0	0	CorrectCommission	0.583170	0.885279	0	1
133.611694	0.792483	city	1	1	0.695385	0.695385	0	1	0	0	CorrectCommission	0.026490	0.872804	0	1
134.403961	0.792054	city	10	1	0.745721	0.745721	0	1	0	0	CorrectCommission	0.633514	0.859581	0	1
135.196182	0.792367	city	7	1	0.905300	0.905300	0	1	0	0	CorrectCommission	2.725888	0.845737	0	1
135.988556	0.792374	mountain	3	0	0.000000	0.833263	1	0	0	0	CorrectOmission	1.781353	0.831411	0	1
136.780869	0.792263	city	8	1	0.704814	0.704814	0	1	0	0	CorrectCommission	0.097149	0.816915	0	1
137.573044	0.792081	city	7	1	0.695157	0.695157	0	1	0	0	CorrectCommission	0.029482	0.802724	0	1
138.365204	0.792233	city	10	1	0.696053	0.696053	0	1	0	0	CorrectCommission	0.017725	0.789438	0	1
139.157547	0.792482	city	7	1	0.843879	0.843879	0	1	0	0	CorrectCommission	1.920551	0.777705	0	1
139.949844	0.792094	city	9	1	0.744793	0.744793	0	1	0	0	CorrectCommission	0.621345	0.768077	0	1
140.742111	0.792435	city	10	1	0.662292	0.662292	0	1	0	0	CorrectCommission	0.460396	0.760972	0	1
141.534348	0.792048	city	6	1	0.751746	0.751746	0	1	0	0	CorrectCommission	0.712505	0.756503	0	1
142.326508	0.792266	city	3	1	0.662497	0.662497	0	1	0	0	CorrectCommission	0.457710	0.754412	1	1
143.118774	0.792265	city	6	1	0.749177	0.749177	0	1	0	0	CorrectCommission	0.678828	0.754121	1	1
143.911041	0.792263	mountain	4	0	0.000000	0.778826	1	0	0	0	CorrectOmission	1.067585	0.754732	0	1
144.703293	0.792262	mountain	10	0	0.000000	0.758501	1	0	0	0	CorrectOmission	0.801081	0.755114	0	1
145.495667	0.792482	city	7	1	0.695257	0.695257	0	1	0	0	CorrectCommission	0.028163	0.754054	1	1
146.287994	0.792156	city	2	1	0.596152	0.596152	0	1	0	0	CorrectCommission	1.327624	0.750372	1	1
147.080154	0.792160	city	10	1	0.596765	0.596765	0	1	0	0	CorrectCommission	1.319576	0.743118	1	1
147.872406	0.792369	city	1	1	0.612862	0.612862	0	1	0	0	CorrectCommission	1.108518	0.731717	1	1
148.664673	0.792156	city	8	1	0.695250	0.695250	0	1	0	0	CorrectCommission	0.028257	0.716050	1	1
149.456909	0.792324	city	4	1	0.661529	0.661529	0	1	0	0	CorrectCommission	0.470405	0.696538	1	1
150.249222	0.792276	city	5	1	0.596634	0.596634	0	1	0	0	CorrectCommission	1.321306	0.674076	1	1
151.041458	0.792195	city	3	1	0.596529	0.596529	0	1	0	0	CorrectCommission	1.322676	0.649976	1	1
151.833679	0.792262	city	7	1	0.695424	0.695424	0	1	0	0	CorrectCommission	0.025978	0.625854	1	1
152.625946	0.792268	city	6	1	0.744810	0.744810	0	1	0	0	CorrectCommission	0.621562	0.603428	1	1
153.418213	0.792266	city	3	1	0.664969	0.664969	0	1	0	0	CorrectCommission	0.425303	0.584277	1	1
154.210480	0.792260	city	5	1	0.695415	0.695415	0	1	0	0	CorrectCommission	0.026091	0.569711	1	1
155.002853	0.792483	city	10	1	0.651506	0.651506	0	1	0	0	CorrectCommission	0.601824	0.560569	1	1
155.795227	0.792264	city	1	1	0.648540	0.648540	0	1	0	0	CorrectCommission	0.640717	0.557106	1	1
156.587433	0.792157	city	10	1	0.695178	0.695178	0	1	0	0	CorrectCommission	0.029196	0.558962	1	1
157.379639	0.792263	city	7	1	0.744751	0.744751	0	1	0	0	CorrectCommission	0.620798	0.565310	1	1
158.171967	0.792380	city	10	1	0.697616	0.697616	0	1	0	0	CorrectCommission	0.002764	0.575002	1	1
158.964172	0.792040	city	7	1	0.794099	0.794099	0	1	0	0	CorrectCommission	1.267840	0.586787	1	1
159.756439	0.792484	city	2	1	0.744768	0.744768	0	1	0	0	CorrectCommission	0.621015	0.599551	1	1
160.548706	0.792071	city	7	1	0.646877	0.646877	0	1	0	0	CorrectCommission	0.662523	0.612571	1	1
161.340881	0.792268	city	1	1	0.745062	0.745062	0	1	0	0	CorrectCommission	0.624867	0.625579	1	1
162.133148	0.792272	city	10	1	0.799259	0.799259	0	1	0	0	CorrectCommission	1.335501	0.638817	1	1
162.925461	0.792338	city	8	1	0.759014	0.759014	0	1	0	0	CorrectCommission	0.807811	0.652898	1	1
163.717758	0.792265	city	1	1	0.744806	0.744806	0	1	0	0	CorrectCommission	0.621515	0.668579	1	1
164.510025	0.792265	city	3	1	0.695172	0.695172	0	1	0	0	CorrectCommission	0.029274	0.686478	1	1
165.302231	0.792156	city	2	1	0.744725	0.744725	0	1	0	0	CorrectCommission	0.620449	0.706757	1	1
166.094437	0.792265	city	5	1	0.702798	0.702798	0	1	0	0	CorrectCommission	0.070706	0.728905	1	1
166.886703	0.792269	city	10	1	0.716567	0.716567	0	1	0	0	CorrectCommission	0.251248	0.751684	1	1
167.678970	0.792264	city	8	1	0.757793	0.757793	0	1	0	0	CorrectCommission	0.791794	0.773190	0	1
168.471237	0.792260	city	10	1	0.745083	0.745083	0	1	0	0	CorrectCommission	0.625141	0.791128	0	1
169.263611	0.792483	city	8	1	0.798414	0.798414	0	1	0	0	CorrectCommission	1.324412	0.803258	0	1
170.055908	0.792116	mountain	2	0	0.000000	0.863438	1	0	0	0	CorrectOmission	2.176999	0.807747	0	1
170.848068	0.792199	city	2	1	0.844460	0.844460	0	1	0	0	CorrectCommission	1.928171	0.803553	0	1
171.640305	0.792265	city	9	1	0.645787	0.645787	0	1	0	0	CorrectCommission	0.676807	0.790661	0	1
172.432617	0.792371	mountain	4	0	0.000000	0.703385	1	0	0	0	CorrectOmission	0.078401	0.770139	0	1
173.224884	0.792157	city	4	1	0.794236	0.794236	0	1	0	0	CorrectCommission	1.269638	0.743947	1	1
174.017105	0.792282	city	8	1	0.695327	0.695327	0	1	0	0	CorrectCommission	0.027252	0.714635	1	1
174.809372	0.792244	city	6	1	0.649089	0.649089	0	1	0	0	CorrectCommission	0.633513	0.685105	1	1
175.601639	0.792300	city	9	1	0.645757	0.645757	0	1	0	0	CorrectCommission	0.677210	0.658228	1	1
176.393921	0.792259	city	7	1	0.700461	0.700461	0	1	0	0	CorrectCommission	0.040075	0.636589	1	1
177.186157	0.792233	city	3	1	0.651608	0.651608	0	1	0	0	CorrectCommission	0.600491	0.622355	1	1
177.978409	0.792270	city	6	1	0.651070	0.651070	0	1	0	0	CorrectCommission	0.607547	0.617164	1	1
178.770691	0.792266	city	1	1	0.697920	0.697920	0	1	0	0	CorrectCommission	0.006745	0.622115	1	1
179.563049	0.792476	city	10	1	0.794345	0.794345	0	1	0	0	CorrectCommission	1.271058	0.637744	1	1
180.355423	0.792265	city	6	1	0.744731	0.744731	0	1	0	0	CorrectCommission	0.620538	0.663984	1	1
181.147644	0.792158	mountain	1	0	0.000000	0.736417	1	0	0	0	CorrectOmission	0.511523	0.700177	1	1
181.939789	0.792158	city	5	1	0.744680	0.744680	0	1	0	0	CorrectCommission	0.619863	0.745003	1	1
182.732117	0.792478	city	4	1	0.744798	0.744798	0	1	0	0	CorrectCommission	0.621407	0.796373	0	1
183.524384	0.792047	city	6	1	0.695050	0.695050	0	1	0	0	CorrectCommission	0.030884	0.851502	0	1
184.316528	0.792268	city	9	1	0.661306	0.661306	0	1	0	0	CorrectCommission	0.473330	0.907016	0	1
185.108902	0.792480	city	1	1	0.648557	0.648557	0	1	0	0	CorrectCommission	0.640491	0.959213	0	1
185.901184	0.792074	city	8	1	0.608174	0.608174	0	1	0	0	CorrectCommission	1.169990	1.004543	0	1
186.693344	0.792242	city	9	1	0.794298	0.794298	0	1	0	0	CorrectCommission	1.270454	1.040004	0	0
187.485626	0.792320	mountain	2	0	0.000000	0.931438	1	0	0	0	CorrectOmission	3.068614	1.063671	0	0
188.277893	0.792209	city	6	1	0.942932	0.942932	0	1	0	0	CorrectCommission	3.219315	1.074949	0	0
189.070175	0.792371	city	8	1	0.752117	0.752117	0	1	0	0	CorrectCommission	0.717380	1.074752	0	0
189.862457	0.792191	city	5	1	0.646050	0.646050	0	1	0	0	CorrectCommission	0.673358	1.065367	0	0
190.654770	0.792445	city	7	1	0.645887	0.645887	0	1	0	0	CorrectCommission	0.675498	1.049909	0	0
191.447037	0.792075	mountain	4	0	0.000000	0.685543	1	0	0	0	CorrectOmission	0.155533	1.031836	0	0
192.239212	0.792279	city	1	1	0.695534	0.695534	0	1	0	0	CorrectCommission	0.024538	1.014384	0	0
193.031525	0.792332	city	6	1	0.606374	0.606374	0	1	0	0	CorrectCommission	1.193592	1.000059	0	0
193.823807	0.792229	city	10	1	0.602278	0.602278	0	1	0	0	CorrectCommission	1.247296	0.990333	0	0
194.616058	0.792301	city	1	1	0.645912	0.645912	0	1	0	0	CorrectCommission	0.675174	0.985584	0	0
195.408340	0.792264	city	7	1	0.645810	0.645810	0	1	0	0	CorrectCommission	0.676513	0.985199	0	0
196.200562	0.792158	city	9	1	0.645639	0.645639	0	1	0	0	CorrectCommission	0.678755	0.987826	0	0
196.992767	0.792266	city	7	1	0.893323	0.893323	0	1	0	0	CorrectCommission	2.568851	0.991680	0	0
197.785141	0.792480	city	1	1	0.794335	0.794335	0	1	0	0	CorrectCommission	1.270931	0.994823	0	0
198.577515	0.792263	city	6	1	0.616503	0.616503	0	1	0	0	CorrectCommission	1.060785	0.995488	0	0
199.369675	0.792052	city	3	1	0.695431	0.695431	0	1	0	0	CorrectCommission	0.025881	0.992192	0	0
200.161942	0.792479	city	4	1	0.708235	0.708235	0	1	0	0	CorrectCommission	0.141995	0.983897	0	0
200.954254	0.792154	city	2	1	0.893264	0.893264	0	1	0	0	CorrectCommission	2.568076	0.970076	0	0
201.746521	0.792376	city	5	1	0.658043	0.658043	0	1	0	0	CorrectCommission	0.516116	0.950719	0	0
202.538788	0.792154	city	8	1	0.596222	0.596222	0	1	0	0	CorrectCommission	1.326707	0.926521	0	0
203.331055	0.792376	city	6	1	0.649365	0.649365	0	1	0	0	CorrectCommission	0.629892	0.898769	0	0
204.123260	0.792047	city	3	1	0.744667	0.744667	0	1	0	0	CorrectCommission	0.619690	0.869407	0	0
204.915421	0.792268	mountain	2	0	0.000000	0.834999	1	0	0	0	CorrectOmission	1.804111	0.840838	0	0
205.707687	0.792264	city	1	1	0.844023	0.844023	0	1	0	0	CorrectCommission	1.922438	0.815738	0	0
206.499985	0.792327	city	4	1	0.695402	0.695402	0	1	0	0	CorrectCommission	0.026264	0.796795	0	0
207.292236	0.792199	city	7	1	0.695374	0.695374	0	1	0	0	CorrectCommission	0.026630	0.786323	0	0
208.084564	0.792454	city	1	1	0.705108	0.705108	0	1	0	0	CorrectCommission	0.101000	0.785772	0	0
208.876831	0.792078	city	3	1	0.695293	0.695293	0	1	0	0	CorrectCommission	0.027700	0.795498	0	0
209.669006	0.792263	city	10	1	0.705540	0.705540	0	1	0	0	CorrectCommission	0.106666	0.814615	0	0
210.461273	0.792265	mountain	3	0	0.000000	0.706685	1	0	0	0	CorrectOmission	0.121673	0.841031	0	0
211.253647	0.792482	city	4	1	0.655277	0.655277	0	1	0	0	CorrectCommission	0.552383	0.871759	0	0
212.045914	0.792047	city	3	1	0.507867	0.507867	0	1	0	0	CorrectCommission	2.485208	0.903350	0	0
212.838165	0.792481	city	7	1	0.497363	0.497363	0	1	0	0	CorrectCommission	2.622924	0.932348	0	0
213.630447	0.792086	city	6	1	0.596078	0.596078	0	1	0	0	CorrectCommission	1.328585	0.955810	0	0
214.422668	0.792334	city	4	1	0.645885	0.645885	0	1	0	0	CorrectCommission	0.675531	0.971562	0	0
215.214951	0.792225	city	6	1	0.744706	0.744706	0	1	0	0	CorrectCommission	0.620210	0.978341	0	0
216.007202	0.792306	mountain	2	0	0.000000	0.756665	1	0	0	0	CorrectOmission	0.777004	0.975742	0	0
216.799469	0.792207	mountain	5	0	0.000000	0.737958	1	0	0	0	CorrectOmission	0.531719	0.964065	0	0
217.591675	0.792212	city	9	1	0.744783	0.744783	0	1	0	0	CorrectCommission	0.621219	0.944140	0	0
218.383942	0.792325	mountain	8	0	0.000000	0.833341	1	0	0	0	CorrectOmission	1.782371	0.917049	0	0
219.176208	0.792205	city	6	1	0.851159	0.851159	0	1	0	0	CorrectCommission	2.016004	0.884057	0	0
219.968491	0.792372	city	10	1	0.645768	0.645768	0	1	0	0	CorrectCommission	0.677054	0.846469	0	0
220.760864	0.792374	city	1	1	0.645790	0.645790	0	1	0	0	CorrectCommission	0.676766	0.805570	0	0
221.553085	0.792051	mountain	3	0	0.000000	0.713688	1	0	0	0	CorrectOmission	0.213497	0.762559	0	0
222.345245	0.792265	city	8	1	0.760957	0.760957	0	1	0	0	CorrectCommission	0.833291	0.718523	1	0
223.137619	0.792478	city	3	1	0.699096	0.699096	0	1	0	0	CorrectCommission	0.022172	0.674463	1	0
223.929977	0.792265	city	4	1	0.747341	0.747341	0	1	0	0	CorrectCommission	0.654752	0.631431	1	0
224.722244	0.792266	mountain	4	0	0.000000	0.776857	1	0	0	0	CorrectOmission	1.041763	0.590502	1	0
225.514465	0.792155	city	1	1	0.754137	0.754137	0	1	0	0	CorrectCommission	0.743860	0.552881	1	0
226.306671	0.792263	city	7	1	0.645673	0.645673	0	1	0	0	CorrectCommission	0.678304	0.519932	1	0
227.098877	0.792159	city	1	1	0.744857	0.744857	0	1	0	0	CorrectCommission	0.622179	0.493138	1	0
227.891113	0.792295	city	2	1	0.711021	0.711021	0	1	0	0	CorrectCommission	0.178525	0.473978	1	0
228.683380	0.792234	mountain	9	0	0.000000	0.695965	1	0	0	0	CorrectOmission	0.018884	0.463759	1	0
229.475723	0.792481	city	5	1	0.695309	0.695309	0	1	0	0	CorrectCommission	0.027481	0.463375	1	0
230.268051	0.792157	city	10	1	0.704674	0.704674	0	1	0	0	CorrectCommission	0.095303	0.473095	1	0
231.060211	0.792154	city	7	1	0.744726	0.744726	0	1	0	0	CorrectCommission	0.620466	0.492468	1	0
231.852417	0.792269	city	6	1	0.695296	0.695296	0	1	0	0	CorrectCommission	0.027658	0.520287	1	0
232.644684	0.792269	city	1	1	0.711889	0.711889	0	1	0	0	CorrectCommission	0.189915	0.554700	1	0
233.436981	0.792321	city	6	1	0.696903	0.696903	0	1	0	0	CorrectCommission	0.006586	0.593372	1	0
234.229294	0.792308	mountain	9	0	0.000000	0.606198	1	0	0	0	CorrectOmission	1.195892	0.633799	1	0
235.021637	0.792375	city	8	1	0.551956	0.551956	0	1	0	0	CorrectCommission	1.907110	0.673636	1	0
235.813843	0.792048	city	1	1	0.646356	0.646356	0	1	0	0	CorrectCommission	0.669345	0.710994	1	0
236.606018	0.792302	city	8	1	0.596293	0.596293	0	1	0	0	CorrectCommission	1.325774	0.744696	1	0
237.398315	0.792276	city	5	1	0.695297	0.695297	0	1	0	0	CorrectCommission	0.027647	0.774322	0	0
238.190567	0.792220	city	10	1	0.745207	0.745207	0	1	0	0	CorrectCommission	0.626773	0.800267	0	0
238.982803	0.792261	city	8	1	0.798288	0.798288	0	1	0	0	CorrectCommission	1.322761	0.823516	0	0
239.775177	0.792480	city	5	1	0.794315	0.794315	0	1	0	0	CorrectCommission	1.270667	0.845429	0	0
240.567429	0.792050	city	10	1	0.744888	0.744888	0	1	0	0	CorrectCommission	0.622590	0.867476	0	0
241.359589	0.792262	city	4	1	0.695332	0.695332	0	1	0	0	CorrectCommission	0.027182	0.890927	0	0
242.151855	0.792266	city	6	1	0.749780	0.749780	0	1	0	0	CorrectCommission	0.686740	0.916606	0	0
242.944122	0.792281	mountain	2	0	0.000000	0.772830	1	0	0	0	CorrectOmission	0.988968	0.944644	0	0
243.736389	0.792250	city	10	1	0.794295	0.794295	0	1	0	0	CorrectCommission	1.270411	0.974431	0	0
244.528656	0.792263	city	6	1	0.843988	0.843988	0	1	0	0	CorrectCommission	1.921978	1.004576	0	0
245.320908	0.792264	city	9	1	0.707689	0.707689	0	1	0	0	CorrectCommission	0.134847	1.033017	0	0
246.113174	0.792268	mountain	10	1	0.695301	0.695301	0	0	1	0	CommissionError	0.027589	1.057261	0	1
246.905441	0.792264	city	10	1	0.794291	0.794291	0	1	0	0	CorrectCommission	1.270360	1.074603	0	1
247.697769	0.792371	mountain	8	0	0.000000	0.851932	1	0	0	0	CorrectOmission	2.026133	1.082478	0	1
248.490036	0.792164	city	5	1	0.844333	0.844333	0	1	0	0	CorrectCommission	1.926506	1.078850	0	1
249.282242	0.792256	city	9	1	0.747608	0.747608	0	1	0	0	CorrectCommission	0.658255	1.062553	0	1
250.074509	0.792288	city	4	1	0.843872	0.843872	0	1	0	0	CorrectCommission	1.920457	1.033525	0	1
250.866882	0.792459	mountain	10	0	0.000000	0.851667	1	0	0	0	CorrectOmission	2.022665	0.992827	0	1
251.659164	0.792093	city	4	1	0.794341	0.794341	0	1	0	0	CorrectCommission	1.271006	0.942601	0	1
252.451324	0.792218	city	3	1	0.695240	0.695240	0	1	0	0	CorrectCommission	0.028389	0.885822	0	1
253.243668	0.792482	city	7	1	0.654314	0.654314	0	1	0	0	CorrectCommission	0.565012	0.825948	0	1
254.035934	0.792052	city	5	1	0.655290	0.655290	0	1	0	0	CorrectCommission	0.552203	0.766441	0	1
254.828094	0.792262	city	2	1	0.646393	0.646393	0	1	0	0	CorrectCommission	0.668861	0.710431	1	1
255.620361	0.792261	city	3	1	0.695445	0.695445	0	1	0	0	CorrectCommission	0.025696	0.660390	1	1
256.412628	0.792270	city	5	1	0.695316	0.695316	0	1	0	0	CorrectCommission	0.027388	0.617995	1	1
257.204926	0.792322	city	3	1	0.801929	0.801929	0	1	0	0	CorrectCommission	1.370502	0.584050	1	1
257.997192	0.792207	city	2	1	0.695141	0.695141	0	1	0	0	CorrectCommission	0.029686	0.558612	1	1
258.789429	0.792290	city	4	1	0.646155	0.646155	0	1	0	0	CorrectCommission	0.671986	0.541219	1	1
259.581696	0.792236	city	6	1	0.711775	0.711775	0	1	0	0	CorrectCommission	0.188421	0.531033	1	1
260.373932	0.792267	city	7	1	0.745045	0.745045	0	1	0	0	CorrectCommission	0.624652	0.527110	1	1
261.166260	0.792371	city	2	1	0.645662	0.645662	0	1	0	0	CorrectCommission	0.678453	0.528548	1	1
261.958649	0.792374	city	9	1	0.645568	0.645568	0	1	0	0	CorrectCommission	0.679683	0.534542	1	1
262.750854	0.792072	city	2	1	0.649028	0.649028	0	1	0	0	CorrectCommission	0.634318	0.544454	1	1
263.543060	0.792349	city	5	1	0.662618	0.662618	0	1	0	0	CorrectCommission	0.456131	0.557792	1	1
264.335327	0.792158	city	1	1	0.695331	0.695331	0	1	0	0	CorrectCommission	0.027196	0.574105	1	1
265.127533	0.792265	city	3	1	0.667828	0.667828	0	1	0	0	CorrectCommission	0.387819	0.592935	1	1
265.919800	0.792266	city	5	1	0.744782	0.744782	0	1	0	0	CorrectCommission	0.621200	0.613765	1	1
266.712067	0.792263	city	10	1	0.646855	0.646855	0	1	0	0	CorrectCommission	0.662803	0.636152	1	1
267.504333	0.792268	city	8	1	0.645890	0.645890	0	1	0	0	CorrectCommission	0.675460	0.659728	1	1
268.296600	0.792261	city	9	1	0.745560	0.745560	0	1	0	0	CorrectCommission	0.631397	0.684340	1	1
269.088898	0.792374	city	8	1	0.806687	0.806687	0	1	0	0	CorrectCommission	1.432892	0.710151	1	1
269.881165	0.792158	city	3	0	0.000000	0.744722	0	0	0	1	OmissionError	0.620417	0.737645	1	1
270.673492	0.792478	city	8	1	0.645803	0.645803	0	1	0	0	CorrectCommission	0.676603	0.767553	0	1
271.465759	0.792050	city	5	1	0.596067	0.596067	0	1	0	0	CorrectCommission	1.328740	0.800646	0	1
272.257904	0.792263	mountain	7	0	0.000000	0.676471	1	0	0	0	CorrectOmission	0.274485	0.837451	0	1
273.050293	0.792483	city	5	1	0.754536	0.754536	0	1	0	0	CorrectCommission	0.749092	0.878060	0	1
273.842621	0.792153	city	9	1	0.697780	0.697780	0	1	0	0	CorrectCommission	0.004921	0.921772	0	1
274.634766	0.792156	city	1	1	0.650957	0.650957	0	1	0	0	CorrectCommission	0.609029	0.967005	0	1
275.427094	0.792484	mountain	7	0	0.000000	0.775461	1	0	0	0	CorrectOmission	1.023456	1.011354	0	1
276.219452	0.792264	city	2	1	0.851255	0.851255	0	1	0	0	CorrectCommission	2.017266	1.051787	0	1
277.011658	0.792157	city	7	1	0.658303	0.658303	0	1	0	0	CorrectCommission	0.512708	1.085082	0	1
277.803925	0.792373	city	1	1	0.695852	0.695852	0	1	0	0	CorrectCommission	0.020359	1.108376	0	1
278.596130	0.792046	city	4	1	0.496962	0.496962	0	1	0	0	CorrectCommission	2.628194	1.119657	0	1
279.388306	0.792270	city	9	1	0.447724	0.447724	0	1	0	0	CorrectCommission	3.273797	1.118154	0	1
280.180573	0.792261	city	6	1	0.504336	0.504336	0	1	0	0	CorrectCommission	2.531501	1.104677	0	1
280.972931	0.792481	city	8	1	0.695200	0.695200	0	1	0	0	CorrectCommission	0.028918	1.081537	0	1
281.765198	0.792051	city	3	1	0.600296	0.600296	0	1	0	0	CorrectCommission	1.273286	1.052250	0	1
282.557373	0.792285	city	4	1	0.695307	0.695307	0	1	0	0	CorrectCommission	0.027514	1.020900	0	1
283.349640	0.792245	city	6	1	0.695306	0.695306	0	1	0	0	CorrectCommission	0.027520	0.991593	0	1
284.141876	0.792269	city	7	1	0.645839	0.645839	0	1	0	0	CorrectCommission	0.676128	0.967713	0	1
284.934143	0.792258	city	10	1	0.613525	0.613525	0	1	0	0	CorrectCommission	1.099824	0.951463	0	1
285.726532	0.792481	city	2	1	0.645955	0.645955	0	1	0	0	CorrectCommission	0.674614	0.943580	0	1
286.518829	0.792158	city	7	1	0.645669	0.645669	0	1	0	0	CorrectCommission	0.678356	0.943318	0	1
287.311066	0.792263	city	2	1	0.696163	0.696163	0	1	0	0	CorrectCommission	0.016293	0.948700	0	1
288.103271	0.792156	city	10	1	0.843866	0.843866	0	1	0	0	CorrectCommission	1.920375	0.956934	0	1
288.895477	0.792270	mountain	10	0	0.000000	0.784658	1	0	0	0	CorrectOmission	1.144048	0.964894	0	1
289.687744	0.792259	city	5	1	0.646195	0.646195	0	1	0	0	CorrectCommission	0.671457	0.969798	0	1
290.480042	0.792330	city	7	1	0.556135	0.556135	0	1	0	0	CorrectCommission	1.852323	0.969568	0	1
291.272308	0.792203	city	6	1	0.596386	0.596386	0	1	0	0	CorrectCommission	1.324554	0.963177	0	1
292.064575	0.792327	city	2	1	0.556562	0.556562	0	1	0	0	CorrectCommission	1.846721	0.950775	0	1
292.856934	0.792416	city	4	1	0.613422	0.613422	0	1	0	0	CorrectCommission	1.101184	0.933536	0	1
293.649200	0.792088	city	10	1	0.747618	0.747618	0	1	0	0	CorrectCommission	0.658387	0.913373	0	1
294.441376	0.792280	city	1	1	0.695385	0.695385	0	1	0	0	CorrectCommission	0.026483	0.892534	0	1
295.233673	0.792319	city	6	1	0.744801	0.744801	0	1	0	0	CorrectCommission	0.621445	0.873136	0	1
296.026031	0.792374	city	2	1	0.707282	0.707282	0	1	0	0	CorrectCommission	0.129499	0.856742	0	1
296.818329	0.792264	city	4	1	0.707180	0.707180	0	1	0	0	CorrectCommission	0.128173	0.844196	0	1
297.610504	0.792045	mountain	6	0	0.000000	0.806589	1	0	0	0	CorrectOmission	1.431611	0.835536	0	1
298.402649	0.792269	city	6	1	0.843924	0.843924	0	1	0	0	CorrectCommission	1.921139	0.830090	0	1
299.194916	0.792262	city	9	1	0.657600	0.657600	0	1	0	0	CorrectCommission	0.521915	0.826671	0	1
299.987183	0.792265	mountain	6	0	0.000000	0.626971	1	0	0	0	CorrectOmission	0.923523	0.823887	0	1
300.779449	0.792264	city	3	1	0.657754	0.657754	0	1	0	0	CorrectCommission	0.519902	0.820299	0	1
301.571716	0.792277	city	10	1	0.655667	0.655667	0	1	0	0	CorrectCommission	0.547268	0.814660	0	1
302.364075	0.792470	city	7	1	0.795292	0.795292	0	1	0	0	CorrectCommission	1.283486	0.806056	0	1
303.156403	0.792156	city	3	1	0.645845	0.645845	0	1	0	0	CorrectCommission	0.676045	0.793969	0	1
303.948669	0.792373	city	10	1	0.600050	0.600050	0	1	0	0	CorrectCommission	1.276513	0.778310	0	1
304.740936	0.792156	city	2	1	0.794081	0.794081	0	1	0	0	CorrectCommission	1.267602	0.759389	0	1
305.533142	0.792265	city	1	1	0.695357	0.695357	0	1	0	0	CorrectCommission	0.026853	0.737835	1	0
306.325409	0.792263	city	5	1	0.646580	0.646580	0	1	0	0	CorrectCommission	0.666408	0.714585	1	0
307.117737	0.792374	city	7	1	0.745063	0.745063	0	1	0	0	CorrectCommission	0.624888	0.690752	1	0
307.909943	0.792065	city	8	1	0.744653	0.744653	0	1	0	0	CorrectCommission	0.619509	0.667607	1	0
308.702148	0.792357	city	6	1	0.645793	0.645793	0	1	0	0	CorrectCommission	0.676729	0.646538	1	0
309.494415	0.792158	city	7	1	0.794333	0.794333	0	1	0	0	CorrectCommission	1.270908	0.629018	1	0
310.286621	0.792262	city	9	1	0.709469	0.709469	0	1	0	0	CorrectCommission	0.158176	0.616506	1	0
311.078888	0.792263	mountain	7	0	0.000000	0.671325	1	0	0	0	CorrectOmission	0.341961	0.610411	1	0
311.871185	0.792351	city	9	1	0.659310	0.659310	0	1	0	0	CorrectCommission	0.499505	0.611942	1	0
312.663452	0.792182	city	6	1	0.652831	0.652831	0	1	0	0	CorrectCommission	0.584458	0.621983	1	0
313.455719	0.792321	city	7	1	0.695345	0.695345	0	1	0	0	CorrectCommission	0.027008	0.640946	1	0
314.247986	0.792247	city	3	1	0.744792	0.744792	0	1	0	0	CorrectCommission	0.621332	0.668675	1	0
315.040283	0.792333	mountain	6	0	0.000000	0.761479	1	0	0	0	CorrectOmission	0.840128	0.704335	1	0
315.832520	0.792162	city	2	1	0.745085	0.745085	0	1	0	0	CorrectCommission	0.625174	0.746411	1	0
316.624756	0.792260	city	7	1	0.695290	0.695290	0	1	0	0	CorrectCommission	0.027734	0.792837	0	0
317.417114	0.792482	mountain	7	0	0.000000	0.759952	1	0	0	0	CorrectOmission	0.820114	0.841120	0	0
318.209381	0.792045	city	5	1	0.794206	0.794206	0	1	0	0	CorrectCommission	1.269236	0.888557	0	0
319.001526	0.792273	city	9	1	0.653182	0.653182	0	1	0	0	CorrectCommission	0.579848	0.932562	0	0
319.793854	0.792366	city	1	1	0.558610	0.558610	0	1	0	0	CorrectCommission	1.819866	0.970958	0	0
320.586121	0.792160	city	5	1	0.546535	0.546535	0	1	0	0	CorrectCommission	1.978190	1.002181	0	0
321.378448	0.792478	city	9	1	0.597014	0.597014	0	1	0	0	CorrectCommission	1.316317	1.025482	0	0
322.170715	0.792051	city	8	1	0.645553	0.645553	0	1	0	0	CorrectCommission	0.679874	1.040954	0	0
322.962860	0.792262	city	10	1	0.649486	0.649486	0	1	0	0	CorrectCommission	0.628311	1.049499	0	0
323.755127	0.792284	city	3	1	0.646046	0.646046	0	1	0	0	CorrectCommission	0.673411	1.052620	0	0
324.547455	0.792353	city	4	1	0.515728	0.515728	0	1	0	0	CorrectCommission	2.382125	1.052220	0	0
325.339691	0.792158	city	7	1	0.794239	0.794239	0	1	0	0	CorrectCommission	1.269680	1.050324	0	0
326.132019	0.792481	city	4	1	0.704746	0.704746	0	1	0	0	CorrectCommission	0.096258	1.048900	0	0
326.924408	0.792263	city	10	1	0.657908	0.657908	0	1	0	0	CorrectCommission	0.517886	1.049554	0	0
327.716675	0.792264	city	4	1	0.794096	0.794096	0	1	0	0	CorrectCommission	1.267795	1.053368	0	0
328.508820	0.792049	city	3	1	0.645694	0.645694	0	1	0	0	CorrectCommission	0.678034	1.060780	0	0
329.301086	0.792482	city	8	1	0.648434	0.648434	0	1	0	0	CorrectCommission	0.642106	1.071584	0	0
330.093414	0.792156	city	4	1	0.552239	0.552239	0	1	0	0	CorrectCommission	1.903406	1.084904	0	0
330.885681	0.792373	city	1	1	0.596174	0.596174	0	1	0	0	CorrectCommission	1.327330	1.099259	0	0
331.677979	0.792265	city	7	1	0.596307	0.596307	0	1	0	0	CorrectCommission	1.325594	1.112719	0	0
332.470154	0.792091	city	5	1	0.613466	0.613466	0	1	0	0	CorrectCommission	1.100606	1.122990	0	0
333.262329	0.792220	city	6	1	0.715781	0.715781	0	1	0	0	CorrectCommission	0.240936	1.127626	0	0
334.054565	0.792265	city	10	1	0.744858	0.744858	0	1	0	0	CorrectCommission	0.622192	1.124306	0	0
334.846832	0.792265	city	7	1	0.798955	0.798955	0	1	0	0	CorrectCommission	1.331512	1.111044	0	0
335.639099	0.792263	city	1	1	0.844297	0.844297	0	1	0	0	CorrectCommission	1.926036	1.086529	0	0
336.431366	0.792267	city	6	1	0.893330	0.893330	0	1	0	0	CorrectCommission	2.568948	1.050411	0	0
337.223633	0.792266	city	4	1	0.812646	0.812646	0	1	0	0	CorrectCommission	1.511030	1.003449	0	0
338.015900	0.792263	city	6	1	0.794435	0.794435	0	1	0	0	CorrectCommission	1.272241	0.947592	0	0
338.808167	0.792300	city	9	1	0.749649	0.749649	0	1	0	0	CorrectCommission	0.685017	0.885778	0	0
339.600555	0.792446	city	7	1	0.695250	0.695250	0	1	0	0	CorrectCommission	0.028262	0.821630	0	0
340.392853	0.792155	city	9	1	0.645575	0.645575	0	1	0	0	CorrectCommission	0.679597	0.759035	0	0
341.185059	0.792265	city	1	1	0.645815	0.645815	0	1	0	0	CorrectCommission	0.676444	0.701652	1	0
341.977264	0.792156	city	6	1	0.695328	0.695328	0	1	0	0	CorrectCommission	0.027235	0.652502	1	0
342.769470	0.792287	city	5	1	0.707143	0.707143	0	1	0	0	CorrectCommission	0.127681	0.613728	1	0
343.561859	0.792461	city	3	1	0.698054	0.698054	0	1	0	0	CorrectCommission	0.008509	0.586441	1	0
344.354218	0.792265	mountain	7	0	0.000000	0.670192	1	0	0	0	CorrectOmission	0.356817	0.570771	1	0
345.146423	0.792130	city	9	1	0.645526	0.645526	0	1	0	0	CorrectCommission	0.680234	0.566024	1	0
345.938629	0.792291	city	10	1	0.646026	0.646026	0	1	0	0	CorrectCommission	0.673676	0.570959	1	0
346.730865	0.792210	city	9	1	0.596290	0.596290	0	1	0	0	CorrectCommission	1.325812	0.584046	1	0
347.523102	0.792211	city	8	1	0.648577	0.648577	0	1	0	0	CorrectCommission	0.640233	0.603632	1	0
348.315369	0.792372	city	3	1	0.695324	0.695324	0	1	0	0	CorrectCommission	0.027294	0.628129	1	0
349.107635	0.792157	city	9	1	0.645669	0.645669	0	1	0	0	CorrectCommission	0.678357	0.656002	1	0
349.899902	0.792372	city	8	1	0.658450	0.658450	0	1	0	0	CorrectCommission	0.510781	0.685720	1	0
350.692169	0.792158	city	1	1	0.647432	0.647432	0	1	0	0	CorrectCommission	0.655247	0.715698	1	0
351.484375	0.792264	mountain	4	0	0.000000	0.663498	1	0	0	0	CorrectOmission	0.444591	0.744225	1	0
352.276764	0.792481	city	10	1	0.661449	0.661449	0	1	0	0	CorrectCommission	0.471451	0.769498	0	0
353.069031	0.792052	city	5	1	0.596088	0.596088	0	1	0	0	CorrectCommission	1.328464	0.789717	0	0
353.861176	0.792273	city	3	1	0.596251	0.596251	0	1	0	0	CorrectCommission	1.326325	0.803227	0	0
354.653564	0.792470	city	6	1	0.646234	0.646234	0	1	0	0	CorrectCommission	0.670949	0.808819	0	0
355.445831	0.792100	city	1	1	0.596069	0.596069	0	1	0	0	CorrectCommission	1.328704	0.805881	0	0
356.238037	0.792270	city	4	1	0.596338	0.596338	0	1	0	0	CorrectCommission	1.325185	0.794507	0	0
357.030273	0.792229	mountain	2	0	0.000000	0.618258	1	0	0	0	CorrectOmission	1.037769	0.775603	0	0
357.822632	0.792460	city	5	1	0.645713	0.645713	0	1	0	0	CorrectCommission	0.677777	0.750793	1	0
358.614868	0.792051	city	8	1	0.662587	0.662587	0	1	0	0	CorrectCommission	0.456529	0.722309	1	0
359.407074	0.792347	city	9	1	0.749779	0.749779	0	1	0	0	CorrectCommission	0.686726	0.692761	1	0
360.199402	0.792287	city	10	1	0.744696	0.744696	0	1	0	0	CorrectCommission	0.620067	0.664812	1	0
360.991608	0.792158	city	4	1	0.645697	0.645697	0	1	0	0	CorrectCommission	0.677995	0.640970	1	0
361.783813	0.792261	city	7	1	0.695267	0.695267	0	1	0	0	CorrectCommission	0.028031	0.623339	1	0
362.576141	0.792375	city	5	1	0.695303	0.695303	0	1	0	0	CorrectCommission	0.027559	0.613491	1	0
363.368408	0.792159	city	10	1	0.708044	0.708044	0	1	0	0	CorrectCommission	0.139500	0.612361	1	0
364.160614	0.792266	city	9	1	0.646186	0.646186	0	1	0	0	CorrectCommission	0.671577	0.620210	1	0
364.952881	0.792260	city	5	1	0.546741	0.546741	0	1	0	0	CorrectCommission	1.975486	0.636671	1	1
365.745270	0.792482	city	3	1	0.646271	0.646271	0	1	0	0	CorrectCommission	0.670469	0.660758	1	1
366.537537	0.792101	city	1	1	0.695099	0.695099	0	1	0	0	CorrectCommission	0.030240	0.690970	1	1
367.329712	0.792214	city	3	1	0.695199	0.695199	0	1	0	0	CorrectCommission	0.028923	0.725309	1	1
368.121979	0.792311	city	1	1	0.707365	0.707365	0	1	0	0	CorrectCommission	0.130587	0.761394	0	1
368.914246	0.792218	city	8	1	0.695238	0.695238	0	1	0	0	CorrectCommission	0.028415	0.796676	0	1
369.706482	0.792297	city	7	1	0.853180	0.853180	0	1	0	0	CorrectCommission	2.042503	0.828699	0	1
370.498810	0.792337	city	10	0	0.000000	0.859130	0	0	0	1	OmissionError	2.120517	0.855339	0	1
371.291077	0.792220	city	7	1	0.795665	0.795665	0	1	0	0	CorrectCommission	1.288367	0.875190	0	1
372.083344	0.792270	city	9	1	0.745361	0.745361	0	1	0	0	CorrectCommission	0.628796	0.887798	0	1
372.875580	0.792197	city	6	1	0.696493	0.696493	0	1	0	0	CorrectCommission	0.011956	0.893748	0	1
373.667908	0.792482	mountain	7	0	0.000000	0.811392	1	0	0	0	CorrectOmission	1.494582	0.894602	0	1
374.460236	0.792157	city	6	1	0.893116	0.893116	0	1	0	0	CorrectCommission	2.566145	0.892625	0	1
375.252380	0.792159	city	3	1	0.744726	0.744726	0	1	0	0	CorrectCommission	0.620467	0.890443	0	1
376.044586	0.792260	city	2	1	0.711756	0.711756	0	1	0	0	CorrectCommission	0.188171	0.890592	0	1
376.836853	0.792267	city	7	1	0.695462	0.695462	0	1	0	0	CorrectCommission	0.025474	0.894928	0	1
377.629242	0.792480	city	4	1	0.712685	0.712685	0	1	0	0	CorrectCommission	0.200345	0.904250	0	1
378.421539	0.792111	city	5	1	0.646093	0.646093	0	1	0	0	CorrectCommission	0.672795	0.918067	0	1
379.213715	0.792267	city	6	1	0.711686	0.711686	0	1	0	0	CorrectCommission	0.187248	0.934629	0	1
380.005951	0.792200	city	4	1	0.613814	0.613814	0	1	0	0	CorrectCommission	1.096034	0.951194	0	1
380.798279	0.792482	city	9	1	0.596401	0.596401	0	1	0	0	CorrectCommission	1.324354	0.964485	0	1
381.590607	0.792156	city	3	1	0.546536	0.546536	0	1	0	0	CorrectCommission	1.978174	0.971325	0	1
382.382782	0.792212	city	2	1	0.546613	0.546613	0	1	0	0	CorrectCommission	1.977175	0.969194	0	1
383.174988	0.792210	city	6	1	0.596860	0.596860	0	1	0	0	CorrectCommission	1.318332	0.956750	0	1
383.967346	0.792481	city	8	1	0.596268	0.596268	0	1	0	0	CorrectCommission	1.326101	0.934065	0	1
384.759674	0.792156	city	9	1	0.598512	0.598512	0	1	0	0	CorrectCommission	1.296680	0.902567	0	1
385.551819	0.792159	city	10	1	0.646187	0.646187	0	1	0	0	CorrectCommission	0.671568	0.864774	0	1
386.344025	0.792262	city	2	1	0.695316	0.695316	0	1	0	0	CorrectCommission	0.027394	0.823865	0	1
387.136292	0.792266	city	5	1	0.695276	0.695276	0	1	0	0	CorrectCommission	0.027911	0.783129	0	1
387.928558	0.792265	city	6	1	0.610061	0.610061	0	1	0	0	CorrectCommission	1.145241	0.745452	1	1
388.720825	0.792261	city	4	1	0.653450	0.653450	0	1	0	0	CorrectCommission	0.576332	0.712931	1	1
389.513214	0.792483	city	8	1	0.700811	0.700811	0	1	0	0	CorrectCommission	0.044652	0.686699	1	1
390.305573	0.792265	city	7	1	0.650726	0.650726	0	1	0	0	CorrectCommission	0.612047	0.666845	1	1
391.097717	0.792050	city	2	1	0.645983	0.645983	0	1	0	0	CorrectCommission	0.674246	0.652493	1	1
391.889893	0.792267	city	5	1	0.646178	0.646178	0	1	0	0	CorrectCommission	0.671689	0.642085	1	1
392.682159	0.792260	city	8	1	0.646260	0.646260	0	1	0	0	CorrectCommission	0.670611	0.633719	1	1
393.474426	0.792287	city	9	1	0.745558	0.745558	0	1	0	0	CorrectCommission	0.631379	0.625443	1	1
394.266785	0.792459	city	6	1	0.794295	0.794295	0	1	0	0	CorrectCommission	1.270405	0.615573	1	1
395.059174	0.792265	city	7	1	0.744730	0.744730	0	1	0	0	CorrectCommission	0.620524	0.602858	1	1
395.851318	0.792052	mountain	1	0	0.000000	0.750813	1	0	0	0	CorrectOmission	0.700284	0.586660	1	1
396.643494	0.792287	city	9	1	0.744716	0.744716	0	1	0	0	CorrectCommission	0.620338	0.566967	1	1
397.435760	0.792273	city	5	1	0.658611	0.658611	0	1	0	0	CorrectCommission	0.508665	0.544362	1	1
398.228027	0.792231	city	6	1	0.695296	0.695296	0	1	0	0	CorrectCommission	0.027660	0.519981	1	1
399.020264	0.792267	city	3	1	0.744845	0.744845	0	1	0	0	CorrectCommission	0.622025	0.495329	1	1
399.812531	0.792259	mountain	1	0	0.000000	0.761065	1	0	0	0	CorrectOmission	0.834706	0.472171	1	1
400.604797	0.792268	city	2	1	0.744838	0.744838	0	1	0	0	CorrectCommission	0.621929	0.452405	1	1
401.397064	0.792271	city	9	1	0.697042	0.697042	0	1	0	0	CorrectCommission	0.004756	0.437884	1	1
402.189331	0.792255	city	4	1	0.648968	0.648968	0	1	0	0	CorrectCommission	0.635102	0.430265	1	1
402.981598	0.792266	city	2	1	0.695709	0.695709	0	1	0	0	CorrectCommission	0.022244	0.430797	1	1
403.773865	0.792296	city	1	1	0.695194	0.695194	0	1	0	0	CorrectCommission	0.028989	0.440200	1	1
404.566193	0.792342	city	2	1	0.715974	0.715974	0	1	0	0	CorrectCommission	0.243473	0.458496	1	1
405.358429	0.792156	city	6	1	0.709620	0.709620	0	1	0	0	CorrectCommission	0.160158	0.484943	1	1
406.150665	0.792268	city	7	1	0.695338	0.695338	0	1	0	0	CorrectCommission	0.027107	0.518079	1	1
406.942963	0.792370	city	5	1	0.645785	0.645785	0	1	0	0	CorrectCommission	0.676844	0.555842	1	1
407.735229	0.792156	city	1	1	0.646055	0.646055	0	1	0	0	CorrectCommission	0.673291	0.595702	1	1
408.527466	0.792334	city	9	1	0.746060	0.746060	0	1	0	0	CorrectCommission	0.637958	0.634959	1	1
409.319855	0.792414	city	8	1	0.843922	0.843922	0	1	0	0	CorrectCommission	1.921112	0.670976	1	1
410.112183	0.792264	city	4	1	0.748286	0.748286	0	1	0	0	CorrectCommission	0.667139	0.701367	1	1
410.904358	0.792095	city	10	1	0.745134	0.745134	0	1	0	0	CorrectCommission	0.625812	0.724284	1	1
411.696533	0.792215	city	9	1	0.700441	0.700441	0	1	0	0	CorrectCommission	0.039812	0.738447	1	1
412.488770	0.792279	city	2	1	0.745262	0.745262	0	1	0	0	CorrectCommission	0.627490	0.743288	1	1
413.281097	0.792361	city	8	1	0.893345	0.893345	0	1	0	0	CorrectCommission	2.569147	0.738932	1	1
414.073364	0.792154	city	10	1	0.749042	0.749042	0	1	0	0	CorrectCommission	0.677057	0.726127	1	1
414.865662	0.792483	city	3	1	0.744819	0.744819	0	1	0	0	CorrectCommission	0.621682	0.706272	1	1
415.657928	0.792050	city	8	1	0.744602	0.744602	0	1	0	0	CorrectCommission	0.618842	0.681170	1	1
416.450134	0.792329	city	5	1	0.695342	0.695342	0	1	0	0	CorrectCommission	0.027050	0.652860	1	1
417.242432	0.792272	city	3	1	0.645708	0.645708	0	1	0	0	CorrectCommission	0.677843	0.623469	1	1
418.034668	0.792194	city	4	1	0.603751	0.603751	0	1	0	0	CorrectCommission	1.227982	0.594977	1	1
418.826874	0.792264	city	1	1	0.645748	0.645748	0	1	0	0	CorrectCommission	0.677324	0.569111	1	1
419.619171	0.792315	city	8	1	0.699590	0.699590	0	1	0	0	CorrectCommission	0.028649	0.547159	1	1
420.411560	0.792429	city	2	1	0.704860	0.704860	0	1	0	0	CorrectCommission	0.097744	0.529961	1	1
421.203857	0.792156	city	10	1	0.695074	0.695074	0	1	0	0	CorrectCommission	0.030564	0.517902	1	1
421.996002	0.792157	city	4	1	0.744632	0.744632	0	1	0	0	CorrectCommission	0.619229	0.511006	1	1
422.788208	0.792263	city	7	1	0.695670	0.695670	0	1	0	0	CorrectCommission	0.022751	0.509103	1	1
423.580536	0.792374	city	3	1	0.761832	0.761832	0	1	0	0	CorrectCommission	0.844752	0.512067	1	1
424.372803	0.792156	city	6	1	0.794208	0.794208	0	1	0	0	CorrectCommission	1.269272	0.519883	1	0
425.165009	0.792301	city	7	1	0.751731	0.751731	0	1	0	0	CorrectCommission	0.712312	0.532792	1	0
425.957397	0.792448	city	2	1	0.752132	0.752132	0	1	0	0	CorrectCommission	0.717573	0.551276	1	0
426.749664	0.792095	city	6	1	0.695084	0.695084	0	1	0	0	CorrectCommission	0.030441	0.575889	1	0
427.541809	0.792213	city	9	1	0.702405	0.702405	0	1	0	0	CorrectCommission	0.065555	0.607054	1	0
428.334167	0.792485	city	4	1	0.745105	0.745105	0	1	0	0	CorrectCommission	0.625438	0.644762	1	0
429.126434	0.792047	mountain	4	0	0.000000	0.685257	1	0	0	0	CorrectOmission	0.159280	0.688379	1	0
429.918579	0.792262	city	5	1	0.647528	0.647528	0	1	0	0	CorrectCommission	0.653990	0.736518	1	0
430.710846	0.792266	city	7	1	0.756582	0.756582	0	1	0	0	CorrectCommission	0.775916	0.787026	0	0
431.503113	0.792268	city	5	0	0.000000	0.694281	0	0	0	1	OmissionError	0.040969	0.837300	0	0
432.295380	0.792260	city	8	1	0.645797	0.645797	0	1	0	0	CorrectCommission	0.676686	0.884608	0	0
433.087769	0.792483	city	6	1	0.796302	0.796302	0	1	0	0	CorrectCommission	1.296727	0.926483	0	0
433.880066	0.792156	city	2	1	0.949857	0.949857	0	1	0	0	CorrectCommission	3.310116	0.961181	0	0
434.672241	0.792157	city	10	0	0.000000	0.799382	0	0	0	1	OmissionError	1.337114	0.987921	0	0
435.464447	0.792266	city	1	1	0.597366	0.597366	0	1	0	0	CorrectCommission	1.311698	1.007034	0	0
436.256714	0.792266	city	3	1	0.596295	0.596295	0	1	0	0	CorrectCommission	1.325739	1.019728	0	0
437.049042	0.792369	mountain	10	1	0.699076	0.699076	0	0	1	0	CommissionError	0.021910	1.027751	0	0
437.841339	0.792267	city	9	1	0.700212	0.700212	0	1	0	0	CorrectCommission	0.036810	1.032954	0	0
438.633545	0.792160	city	10	1	0.596629	0.596629	0	1	0	0	CorrectCommission	1.321368	1.036734	0	0
439.425873	0.792478	city	1	1	0.744921	0.744921	0	1	0	0	CorrectCommission	0.623029	1.039703	0	0
440.218140	0.792048	city	2	1	0.645604	0.645604	0	1	0	0	CorrectCommission	0.679215	1.041620	0	0
441.010284	0.792264	mountain	2	0	0.000000	0.745796	1	0	0	0	CorrectOmission	0.634496	1.041398	0	0
441.802612	0.792374	city	8	1	0.858064	0.858064	0	1	0	0	CorrectCommission	2.106538	1.037482	0	0
442.594879	0.792156	city	2	1	0.794972	0.794972	0	1	0	0	CorrectCommission	1.279289	1.028245	0	0
443.387085	0.792266	city	5	1	0.600912	0.600912	0	1	0	0	CorrectCommission	1.265213	1.012539	0	0
444.179352	0.792263	city	9	1	0.546757	0.546757	0	1	0	0	CorrectCommission	1.975277	0.990053	0	0
444.971741	0.792482	city	4	1	0.794334	0.794334	0	1	0	0	CorrectCommission	1.270919	0.961478	0	0
445.764099	0.792264	city	7	1	0.744586	0.744586	0	1	0	0	CorrectCommission	0.618634	0.928572	0	0
446.556305	0.792156	city	3	1	0.599532	0.599532	0	1	0	0	CorrectCommission	1.283305	0.893912	0	0
447.348511	0.792265	city	5	1	0.745587	0.745587	0	1	0	0	CorrectCommission	0.631760	0.860463	0	0
448.140747	0.792156	city	1	1	0.695089	0.695089	0	1	0	0	CorrectCommission	0.030371	0.831143	0	0
448.932953	0.792269	city	9	1	0.695267	0.695267	0	1	0	0	CorrectCommission	0.028032	0.808345	0	0
449.725250	0.792370	city	8	1	0.766491	0.766491	0	1	0	0	CorrectCommission	0.905850	0.793563	0	0
450.517639	0.792372	city	4	1	0.695184	0.695184	0	1	0	0	CorrectCommission	0.029121	0.787204	0	0
451.309845	0.792048	city	8	1	0.655794	0.655794	0	1	0	0	CorrectCommission	0.545599	0.788635	0	0
452.102020	0.792303	city	6	1	0.645779	0.645779	0	1	0	0	CorrectCommission	0.676919	0.796395	0	0
452.894409	0.792443	mountain	7	1	0.546742	0.546742	0	0	1	0	CommissionError	1.975472	0.808523	0	0
453.686646	0.792050	city	8	1	0.646114	0.646114	0	1	0	0	CorrectCommission	0.672524	0.822877	0	0
454.478851	0.792373	mountain	3	1	0.606251	0.606251	0	0	1	0	CommissionError	1.195197	0.837572	0	0
455.271118	0.792153	city	8	1	0.794345	0.794345	0	1	0	0	CorrectCommission	1.271067	0.851061	0	0
456.063354	0.792317	city	7	1	0.695597	0.695597	0	1	0	0	CorrectCommission	0.023712	0.862275	0	0
456.855682	0.792323	city	4	1	0.794594	0.794594	0	1	0	0	CorrectCommission	1.274324	0.870648	0	0
457.647919	0.792157	mountain	6	0	0.000000	0.752150	1	0	0	0	CorrectOmission	0.717815	0.875882	0	0
458.440216	0.792481	city	5	1	0.646768	0.646768	0	1	0	0	CorrectCommission	0.663946	0.877926	0	0
459.232513	0.792107	city	1	1	0.556948	0.556948	0	1	0	0	CorrectCommission	1.841665	0.876700	0	0
460.024719	0.792313	city	6	1	0.695235	0.695235	0	1	0	0	CorrectCommission	0.028461	0.872076	0	0
460.817078	0.792374	city	9	1	0.648923	0.648923	0	1	0	0	CorrectCommission	0.635693	0.863929	0	0
461.609344	0.792155	mountain	7	0	0.000000	0.748291	1	0	0	0	CorrectOmission	0.667207	0.852103	0	0
462.401611	0.792374	city	3	1	0.796359	0.796359	0	1	0	0	CorrectCommission	1.297469	0.836638	0	0
463.193939	0.792266	city	2	1	0.596148	0.596148	0	1	0	0	CorrectCommission	1.327679	0.817893	0	0
463.986176	0.792263	city	7	1	0.604289	0.604289	0	1	0	0	CorrectCommission	1.220932	0.796677	0	0
464.778351	0.792052	city	3	1	0.596009	0.596009	0	1	0	0	CorrectCommission	1.329490	0.774289	0	0
465.570526	0.792326	city	9	1	0.747441	0.747441	0	1	0	0	CorrectCommission	0.656063	0.752492	1	0
466.362823	0.792224	city	5	1	0.695259	0.695259	0	1	0	0	CorrectCommission	0.028139	0.733368	1	0
467.155060	0.792244	city	6	1	0.699774	0.699774	0	1	0	0	CorrectCommission	0.031061	0.719051	1	0
467.947296	0.792265	city	4	1	0.659302	0.659302	0	1	0	0	CorrectCommission	0.499606	0.711527	1	0
468.739563	0.792266	city	1	1	0.657765	0.657765	0	1	0	0	CorrectCommission	0.519760	0.712364	1	0
469.531891	0.792369	city	9	1	0.801612	0.801612	0	1	0	0	CorrectCommission	1.366355	0.722551	1	0
470.324188	0.792221	city	1	1	0.704897	0.704897	0	1	0	0	CorrectCommission	0.098232	0.742354	1	0
471.116394	0.792206	city	6	1	0.695202	0.695202	0	1	0	0	CorrectCommission	0.028885	0.771401	0	0
471.908722	0.792477	city	7	1	0.605448	0.605448	0	1	0	0	CorrectCommission	1.205737	0.808607	0	0
472.700989	0.792051	mountain	8	0	0.000000	0.739885	1	0	0	0	CorrectOmission	0.556997	0.852253	0	0
473.493164	0.792264	city	4	1	0.855552	0.855552	0	1	0	0	CorrectCommission	2.073604	0.900206	0	0
474.285431	0.792263	city	3	1	0.709484	0.709484	0	1	0	0	CorrectCommission	0.158371	0.949901	0	0
475.077667	0.792266	city	8	1	0.744998	0.744998	0	1	0	0	CorrectCommission	0.624038	0.998613	0	0
475.869934	0.792263	city	5	1	0.656230	0.656230	0	1	0	0	CorrectCommission	0.539878	1.043528	0	0
476.662201	0.792264	city	3	1	0.599758	0.599758	0	1	0	0	CorrectCommission	1.280333	1.081950	0	0
477.454590	0.792482	city	9	1	0.547039	0.547039	0	1	0	0	CorrectCommission	1.971585	1.111487	0	0
478.246857	0.792065	city	6	1	0.550476	0.550476	0	1	0	0	CorrectCommission	1.926524	1.130199	0	0
479.039062	0.792356	city	5	1	0.549338	0.549338	0	1	0	0	CorrectCommission	1.941447	1.136759	0	0
479.831329	0.792159	city	7	1	0.651116	0.651116	0	1	0	0	CorrectCommission	0.606934	1.130450	0	0
480.623657	0.792478	mountain	9	1	0.794315	0.794315	0	0	1	0	CommissionError	1.270666	1.111216	0	0
481.415894	0.792046	mountain	4	1	0.596759	0.596759	0	0	1	0	CommissionError	1.319663	1.079522	0	0
482.208160	0.792483	mountain	6	0	0.000000	0.665396	1	0	0	0	CorrectOmission	0.419695	1.036290	0	0
483.000427	0.792054	city	5	1	0.803893	0.803893	0	1	0	0	CorrectCommission	1.396257	0.982800	0	0
483.792603	0.792298	mountain	6	0	0.000000	0.815914	1	0	0	0	CorrectOmission	1.553878	0.920517	0	0
484.584869	0.792228	city	7	1	0.748748	0.748748	0	1	0	0	CorrectCommission	0.673203	0.851075	0	0
485.377167	0.792370	city	3	1	0.649682	0.649682	0	1	0	0	CorrectCommission	0.625735	0.776185	0	0
486.169495	0.792266	city	9	1	0.596512	0.596512	0	1	0	0	CorrectCommission	1.322902	0.697640	1	0
486.961761	0.792264	city	8	1	0.650332	0.650332	0	1	0	0	CorrectCommission	0.617224	0.617224	1	0
