onset	duration	trial_type	image_type	Press	ReactionTime	ReactionTime_Interpolated	CorrectOmission	CorrectCommission	CommissionError	OmissionError	response_type	nonsmoothVarianceTimeCourse	VarianceTimeCourse	In_the_Zone	Reward_trial
8.433915	0.792484	city	6	1	0.744829	0.744829	0	1	0	0	CorrectCommission	0.695109	0.695109	0	1
9.226221	0.792128	city	9	1	0.657471	0.657471	0	1	0	0	CorrectCommission	0.065496	0.678342	0	1
10.018432	0.792292	city	3	1	0.695166	0.695166	0	1	0	0	CorrectCommission	0.262705	0.661012	1	1
10.810690	0.792224	city	4	1	0.696748	0.696748	0	1	0	0	CorrectCommission	0.276479	0.642555	1	1
11.602926	0.792250	city	10	1	0.696505	0.696505	0	1	0	0	CorrectCommission	0.274360	0.622484	1	1
12.395158	0.792212	city	6	1	0.794225	0.794225	0	1	0	0	CorrectCommission	1.125183	0.600486	1	1
13.187397	0.792266	city	1	1	0.794278	0.794278	0	1	0	0	CorrectCommission	1.125644	0.576549	1	1
13.979715	0.792371	city	9	1	0.794876	0.794876	0	1	0	0	CorrectCommission	1.130856	0.551136	1	1
14.772089	0.792375	city	1	1	0.744771	0.744771	0	1	0	0	CorrectCommission	0.694597	0.525235	1	1
15.564407	0.792262	city	2	1	0.698702	0.698702	0	1	0	0	CorrectCommission	0.293492	0.500365	1	1
16.356670	0.792267	city	10	1	0.699578	0.699578	0	1	0	0	CorrectCommission	0.301112	0.478423	1	1
17.148853	0.792096	city	6	1	0.696926	0.696926	0	1	0	0	CorrectCommission	0.278022	0.461427	1	1
17.941010	0.792218	city	8	1	0.696822	0.696822	0	1	0	0	CorrectCommission	0.277119	0.451211	1	1
18.733252	0.792265	city	1	1	0.658215	0.658215	0	1	0	0	CorrectCommission	0.059023	0.449083	1	1
19.525517	0.792266	city	9	1	0.661549	0.661549	0	1	0	0	CorrectCommission	0.029994	0.455543	1	1
20.317780	0.792259	mountain	6	0	0.000000	0.687248	1	0	0	0	CorrectOmission	0.193759	0.470103	1	1
21.110043	0.792269	city	6	1	0.695329	0.695329	0	1	0	0	CorrectCommission	0.264117	0.491255	1	1
21.902315	0.792276	city	3	1	0.645809	0.645809	0	1	0	0	CorrectCommission	0.167039	0.516619	1	1
22.694687	0.792468	city	2	1	0.712122	0.712122	0	1	0	0	CorrectCommission	0.410337	0.543218	1	1
23.486946	0.792048	city	7	1	0.751511	0.751511	0	1	0	0	CorrectCommission	0.753280	0.567887	1	1
24.279104	0.792270	city	9	1	0.808092	0.808092	0	1	0	0	CorrectCommission	1.245923	0.587710	1	1
25.071402	0.792321	city	2	1	0.843832	0.843832	0	1	0	0	CorrectCommission	1.557097	0.600404	1	1
25.863663	0.792204	city	4	1	0.811514	0.811514	0	1	0	0	CorrectCommission	1.275715	0.604644	1	1
26.655895	0.792260	city	10	1	0.744811	0.744811	0	1	0	0	CorrectCommission	0.694951	0.600208	1	1
27.448162	0.792271	city	6	1	0.695637	0.695637	0	1	0	0	CorrectCommission	0.266799	0.587928	1	1
28.240425	0.792259	city	8	1	0.645731	0.645731	0	1	0	0	CorrectCommission	0.167717	0.569506	1	1
29.032688	0.792265	city	10	1	0.596250	0.596250	0	1	0	0	CorrectCommission	0.598539	0.547269	1	1
29.824955	0.792269	city	1	1	0.702183	0.702183	0	1	0	0	CorrectCommission	0.323798	0.523818	1	1
30.617220	0.792262	city	2	1	0.744782	0.744782	0	1	0	0	CorrectCommission	0.694693	0.501781	1	1
31.409487	0.792270	mountain	1	0	0.000000	0.707705	1	0	0	0	CorrectOmission	0.371879	0.483519	1	1
32.201805	0.792368	city	9	1	0.645835	0.645835	0	1	0	0	CorrectCommission	0.166811	0.470976	1	1
32.994122	0.792264	city	5	1	0.614052	0.614052	0	1	0	0	CorrectCommission	0.443540	0.465534	1	1
33.786385	0.792266	city	1	1	0.599314	0.599314	0	1	0	0	CorrectCommission	0.571861	0.467923	1	1
34.578598	0.792159	city	7	1	0.645649	0.645649	0	1	0	0	CorrectCommission	0.168428	0.478252	1	1
35.370865	0.792372	city	3	1	0.646305	0.646305	0	1	0	0	CorrectCommission	0.162719	0.496051	1	1
36.163235	0.792372	city	7	1	0.695628	0.695628	0	1	0	0	CorrectCommission	0.266727	0.520367	1	1
36.955444	0.792046	city	3	1	0.695544	0.695544	0	1	0	0	CorrectCommission	0.265989	0.549929	1	1
37.747608	0.792277	city	8	1	0.603226	0.603226	0	1	0	0	CorrectCommission	0.537804	0.583365	1	1
38.539982	0.792470	mountain	1	0	0.000000	0.558481	1	0	0	0	CorrectOmission	0.927387	0.619393	1	1
39.332249	0.792069	city	2	1	0.557439	0.557439	0	1	0	0	CorrectCommission	0.936452	0.657005	1	1
40.124458	0.792351	city	9	1	0.596233	0.596233	0	1	0	0	CorrectCommission	0.598688	0.695604	0	1
40.916821	0.792375	city	8	1	0.546612	0.546612	0	1	0	0	CorrectCommission	1.030721	0.735027	0	1
41.709034	0.792048	city	1	1	0.497242	0.497242	0	1	0	0	CorrectCommission	1.460580	0.775409	0	1
42.501190	0.792266	city	2	1	0.553608	0.553608	0	1	0	0	CorrectCommission	0.969815	0.816988	0	1
43.293564	0.792482	city	1	1	0.646238	0.646238	0	1	0	0	CorrectCommission	0.163307	0.859832	0	1
44.085938	0.792264	city	2	1	0.708942	0.708942	0	1	0	0	CorrectCommission	0.382649	0.903557	0	1
44.878094	0.792048	city	8	1	0.649658	0.649658	0	1	0	0	CorrectCommission	0.133523	0.947081	0	1
45.670250	0.792262	city	5	1	0.596396	0.596396	0	1	0	0	CorrectCommission	0.597270	0.988602	0	1
46.462620	0.792482	city	1	1	0.553649	0.553649	0	1	0	0	CorrectCommission	0.969457	1.025698	0	1
47.254887	0.792048	city	9	1	0.456971	0.456971	0	1	0	0	CorrectCommission	1.811207	1.055646	0	1
48.047047	0.792271	city	5	1	0.411909	0.411909	0	1	0	0	CorrectCommission	2.203552	1.075819	0	1
48.839310	0.792257	city	3	1	0.497657	0.497657	0	1	0	0	CorrectCommission	1.456964	1.084138	0	1
49.631573	0.792266	city	4	1	0.464312	0.464312	0	1	0	0	CorrectCommission	1.747291	1.079453	0	1
50.423840	0.792268	city	8	1	0.497204	0.497204	0	1	0	0	CorrectCommission	1.460912	1.061686	0	1
51.216103	0.792261	city	9	1	0.561646	0.561646	0	1	0	0	CorrectCommission	0.899826	1.031874	0	1
52.008419	0.792375	city	7	1	0.597137	0.597137	0	1	0	0	CorrectCommission	0.590813	0.992000	0	1
52.800686	0.792156	city	8	1	0.498632	0.498632	0	1	0	0	CorrectCommission	1.448471	0.944634	0	1
53.592899	0.792267	city	5	1	0.546723	0.546723	0	1	0	0	CorrectCommission	1.029762	0.892531	0	1
54.385162	0.792261	city	7	1	0.695260	0.695260	0	1	0	0	CorrectCommission	0.263519	0.838293	0	1
55.177425	0.792268	city	1	1	0.645905	0.645905	0	1	0	0	CorrectCommission	0.166204	0.784043	0	1
55.969692	0.792262	city	9	1	0.596252	0.596252	0	1	0	0	CorrectCommission	0.598519	0.731239	0	1
56.762009	0.792372	city	1	1	0.596385	0.596385	0	1	0	0	CorrectCommission	0.597364	0.680648	0	1
57.554295	0.792199	city	2	1	0.559656	0.559656	0	1	0	0	CorrectCommission	0.917155	0.632496	1	1
58.346504	0.792227	city	7	1	0.605357	0.605357	0	1	0	0	CorrectCommission	0.519242	0.586656	1	1
59.138859	0.792477	city	10	1	0.546742	0.546742	0	1	0	0	CorrectCommission	1.029588	0.542897	1	1
59.931122	0.792049	city	1	1	0.596022	0.596022	0	1	0	0	CorrectCommission	0.600524	0.501110	1	1
60.723309	0.792325	city	9	1	0.611532	0.611532	0	1	0	0	CorrectCommission	0.465481	0.461524	1	1
61.515625	0.792310	city	2	1	0.596195	0.596195	0	1	0	0	CorrectCommission	0.599014	0.424748	1	1
62.307865	0.792168	city	3	1	0.659275	0.659275	0	1	0	0	CorrectCommission	0.049790	0.391747	1	1
63.100185	0.792472	mountain	5	0	0.000000	0.664204	1	0	0	0	CorrectOmission	0.006878	0.363787	1	1
63.892445	0.792047	city	3	1	0.659936	0.659936	0	1	0	0	CorrectCommission	0.044041	0.342293	1	1
64.684654	0.792374	city	1	1	0.695425	0.695425	0	1	0	0	CorrectCommission	0.264959	0.328730	1	1
65.476974	0.792263	mountain	4	0	0.000000	0.685963	1	0	0	0	CorrectOmission	0.182574	0.324510	1	1
66.269295	0.792375	city	3	1	0.648207	0.648207	0	1	0	0	CorrectCommission	0.146163	0.330912	1	1
67.061531	0.792092	city	7	1	0.598813	0.598813	0	1	0	0	CorrectCommission	0.576221	0.348968	1	1
67.853683	0.792217	city	6	1	0.645847	0.645847	0	1	0	0	CorrectCommission	0.166706	0.379345	1	0
68.645927	0.792267	city	1	1	0.646121	0.646121	0	1	0	0	CorrectCommission	0.164327	0.422214	1	0
69.438301	0.792480	city	3	1	0.695304	0.695304	0	1	0	0	CorrectCommission	0.263903	0.477073	1	0
70.230560	0.792051	city	5	1	0.648074	0.648074	0	1	0	0	CorrectCommission	0.147317	0.542546	1	0
71.022743	0.792308	city	3	1	0.604957	0.604957	0	1	0	0	CorrectCommission	0.522725	0.616285	1	0
71.815002	0.792217	city	4	1	0.646639	0.646639	0	1	0	0	CorrectCommission	0.159812	0.694896	0	0
72.607246	0.792268	city	3	1	0.596240	0.596240	0	1	0	0	CorrectCommission	0.598624	0.774051	0	0
73.399513	0.792264	city	7	1	0.515315	0.515315	0	1	0	0	CorrectCommission	1.303221	0.848698	0	0
74.191780	0.792265	city	3	1	0.599928	0.599928	0	1	0	0	CorrectCommission	0.566516	0.913504	0	0
74.984039	0.792261	city	6	1	0.596261	0.596261	0	1	0	0	CorrectCommission	0.598439	0.963427	0	0
75.776306	0.792269	city	2	1	0.464323	0.464323	0	1	0	0	CorrectCommission	1.747198	0.994311	0	0
76.568573	0.792261	city	6	1	0.999603	0.999603	0	1	0	0	CorrectCommission	2.913366	1.003428	0	0
77.360840	0.792268	city	5	1	0.943328	0.943328	0	1	0	0	CorrectCommission	2.423389	0.989923	0	0
78.153114	0.792279	mountain	3	0	0.000000	0.882700	1	0	0	0	CorrectOmission	1.895514	0.955000	0	0
78.945374	0.792249	city	5	1	0.794805	0.794805	0	1	0	0	CorrectCommission	1.130234	0.901758	0	0
79.737633	0.792264	city	2	1	0.656730	0.656730	0	1	0	0	CorrectCommission	0.071956	0.834791	0	0
80.529953	0.792373	city	3	1	0.695309	0.695309	0	1	0	0	CorrectCommission	0.263942	0.759560	0	0
81.322212	0.792156	city	5	1	0.657394	0.657394	0	1	0	0	CorrectCommission	0.066174	0.681656	0	0
82.114464	0.792341	city	9	1	0.646669	0.646669	0	1	0	0	CorrectCommission	0.159550	0.606162	1	0
82.906731	0.792189	city	7	1	0.709008	0.709008	0	1	0	0	CorrectCommission	0.383224	0.537123	1	0
83.698952	0.792253	city	2	1	0.659641	0.659641	0	1	0	0	CorrectCommission	0.046604	0.477265	1	0
84.491226	0.792298	city	1	1	0.695336	0.695336	0	1	0	0	CorrectCommission	0.264180	0.427936	1	0
85.283493	0.792243	city	6	1	0.697004	0.697004	0	1	0	0	CorrectCommission	0.278705	0.389247	1	0
86.075752	0.792271	city	9	1	0.757181	0.757181	0	1	0	0	CorrectCommission	0.802655	0.360359	1	0
86.868019	0.792258	city	1	1	0.696153	0.696153	0	1	0	0	CorrectCommission	0.271291	0.339793	1	0
87.660332	0.792373	city	2	1	0.700527	0.700527	0	1	0	0	CorrectCommission	0.309379	0.325801	1	0
88.452705	0.792373	city	1	1	0.695169	0.695169	0	1	0	0	CorrectCommission	0.262723	0.316584	1	0
89.245026	0.792265	mountain	8	0	0.000000	0.683020	1	0	0	0	CorrectOmission	0.156951	0.310505	1	0
90.037292	0.792264	city	4	1	0.658252	0.658252	0	1	0	0	CorrectCommission	0.058698	0.306193	1	0
90.829552	0.792265	mountain	5	0	0.000000	0.615034	1	0	0	0	CorrectOmission	0.434985	0.302586	1	0
91.621712	0.792050	city	8	1	0.612277	0.612277	0	1	0	0	CorrectCommission	0.458991	0.298941	1	0
92.413918	0.792370	city	10	1	0.708891	0.708891	0	1	0	0	CorrectCommission	0.382205	0.294818	1	0
93.206184	0.792155	city	5	1	0.695206	0.695206	0	1	0	0	CorrectCommission	0.263053	0.290058	1	0
93.998398	0.792268	city	2	1	0.695273	0.695273	0	1	0	0	CorrectCommission	0.263630	0.284758	1	0
94.790665	0.792278	city	5	1	0.713969	0.713969	0	1	0	0	CorrectCommission	0.426417	0.279264	1	0
95.583038	0.792466	city	9	1	0.699994	0.699994	0	1	0	0	CorrectCommission	0.304741	0.274125	1	0
96.375320	0.792087	city	8	1	0.695569	0.695569	0	1	0	0	CorrectCommission	0.266214	0.270048	1	0
97.167473	0.792228	city	5	1	0.645905	0.645905	0	1	0	0	CorrectCommission	0.166206	0.267819	1	0
97.959732	0.792283	city	7	1	0.645985	0.645985	0	1	0	0	CorrectCommission	0.165505	0.268204	1	0
98.752106	0.792460	city	4	1	0.645715	0.645715	0	1	0	0	CorrectCommission	0.167855	0.271855	1	0
99.544357	0.792049	city	3	1	0.645685	0.645685	0	1	0	0	CorrectCommission	0.168120	0.279215	1	0
100.336517	0.792268	city	2	1	0.645785	0.645785	0	1	0	0	CorrectCommission	0.167245	0.290436	1	0
101.128838	0.792369	city	9	1	0.711071	0.711071	0	1	0	0	CorrectCommission	0.401186	0.305374	1	0
101.921204	0.792372	city	2	1	0.655479	0.655479	0	1	0	0	CorrectCommission	0.082845	0.323568	1	0
102.713417	0.792053	city	3	1	0.701887	0.701887	0	1	0	0	CorrectCommission	0.321218	0.344351	1	0
103.505577	0.792261	city	7	1	0.695328	0.695328	0	1	0	0	CorrectCommission	0.264113	0.366927	1	0
104.297836	0.792264	mountain	9	0	0.000000	0.682543	1	0	0	0	CorrectOmission	0.152793	0.390546	1	0
105.090103	0.792266	city	6	1	0.702577	0.702577	0	1	0	0	CorrectCommission	0.327230	0.414657	1	0
105.882477	0.792480	city	2	1	0.794479	0.794479	0	1	0	0	CorrectCommission	1.127394	0.439047	1	0
106.674744	0.792052	city	7	1	0.794058	0.794058	0	1	0	0	CorrectCommission	1.123735	0.463890	1	0
107.466980	0.792424	city	10	1	0.695718	0.695718	0	1	0	0	CorrectCommission	0.267505	0.489759	1	0
108.259293	0.792211	city	9	1	0.696710	0.696710	0	1	0	0	CorrectCommission	0.276147	0.517518	1	0
109.051590	0.792374	city	7	1	0.696595	0.696595	0	1	0	0	CorrectCommission	0.275143	0.548106	1	0
109.843849	0.792154	city	5	1	0.595996	0.595996	0	1	0	0	CorrectCommission	0.600754	0.582292	1	0
110.636009	0.792159	mountain	7	0	0.000000	0.636675	1	0	0	0	CorrectOmission	0.246569	0.620435	1	0
111.428223	0.792271	city	6	1	0.707472	0.707472	0	1	0	0	CorrectCommission	0.369842	0.662323	1	0
112.220596	0.792473	city	4	1	0.697225	0.697225	0	1	0	0	CorrectCommission	0.280624	0.707064	0	0
113.012871	0.792077	city	7	1	0.753723	0.753723	0	1	0	0	CorrectCommission	0.772546	0.753164	0	0
113.805031	0.792239	mountain	2	0	0.000000	0.790037	1	0	0	0	CorrectOmission	1.088723	0.798663	0	0
114.597336	0.792368	city	1	1	0.794271	0.794271	0	1	0	0	CorrectCommission	1.125589	0.841415	0	0
115.389595	0.792157	city	2	1	0.754531	0.754531	0	1	0	0	CorrectCommission	0.779575	0.879400	0	0
116.181808	0.792264	city	4	1	0.844321	0.844321	0	1	0	0	CorrectCommission	1.561357	0.911052	0	0
116.974106	0.792328	city	3	1	0.760604	0.760604	0	1	0	0	CorrectCommission	0.832457	0.935464	0	0
117.766365	0.792203	city	4	1	0.843757	0.843757	0	1	0	0	CorrectCommission	1.556449	0.952581	0	0
118.558601	0.792267	city	10	1	0.843953	0.843953	0	1	0	0	CorrectCommission	1.558158	0.963110	0	0
119.350975	0.792481	city	1	1	0.756049	0.756049	0	1	0	0	CorrectCommission	0.792795	0.968440	0	0
120.143295	0.792154	city	3	1	0.715542	0.715542	0	1	0	0	CorrectCommission	0.440106	0.970355	0	0
120.935471	0.792206	city	1	1	0.795859	0.795859	0	1	0	0	CorrectCommission	1.139411	0.970694	0	0
121.727684	0.792219	mountain	4	0	0.000000	0.758331	1	0	0	0	CorrectOmission	0.812665	0.971013	0	0
122.520035	0.792479	city	6	1	0.706700	0.706700	0	1	0	0	CorrectCommission	0.363121	0.972347	0	0
123.312294	0.792046	city	7	1	0.744706	0.744706	0	1	0	0	CorrectCommission	0.694032	0.975017	0	0
124.104454	0.792266	city	9	1	0.843818	0.843818	0	1	0	0	CorrectCommission	1.556982	0.978581	0	0
124.896774	0.792374	city	5	1	0.759043	0.759043	0	1	0	0	CorrectCommission	0.818859	0.981980	0	0
125.689041	0.792158	city	10	1	0.744843	0.744843	0	1	0	0	CorrectCommission	0.695223	0.983795	0	0
126.481361	0.792480	city	2	1	0.760789	0.760789	0	1	0	0	CorrectCommission	0.834068	0.982522	0	0
127.273621	0.792050	city	6	1	0.797518	0.797518	0	1	0	0	CorrectCommission	1.153857	0.976895	0	1
128.065781	0.792263	city	2	1	0.893474	0.893474	0	1	0	0	CorrectCommission	1.989324	0.966164	0	1
128.858047	0.792264	city	7	1	0.893701	0.893701	0	1	0	0	CorrectCommission	1.991296	0.950226	0	1
129.650314	0.792270	mountain	10	0	0.000000	0.776506	1	0	0	0	CorrectOmission	0.970910	0.929685	0	1
130.442688	0.792477	city	9	1	0.646154	0.646154	0	1	0	0	CorrectCommission	0.164034	0.905706	0	1
131.234970	0.792106	mountain	7	0	0.000000	0.606909	1	0	0	0	CorrectOmission	0.505736	0.879753	0	1
132.027130	0.792208	city	8	1	0.596241	0.596241	0	1	0	0	CorrectCommission	0.598618	0.853299	0	1
132.819382	0.792289	city	2	1	0.551622	0.551622	0	1	0	0	CorrectCommission	0.987102	0.827603	0	1
133.611649	0.792238	city	7	1	0.603279	0.603279	0	1	0	0	CorrectCommission	0.537338	0.803517	0	1
134.403946	0.792374	city	8	1	0.596630	0.596630	0	1	0	0	CorrectCommission	0.595232	0.781487	0	1
135.196243	0.792212	mountain	9	0	0.000000	0.603894	1	0	0	0	CorrectOmission	0.531980	0.761602	0	1
135.988464	0.792239	city	10	1	0.596773	0.596773	0	1	0	0	CorrectCommission	0.593987	0.743793	0	1
136.780701	0.792237	city	5	1	0.546964	0.546964	0	1	0	0	CorrectCommission	1.027656	0.728065	0	1
137.572968	0.792297	city	2	1	0.497172	0.497172	0	1	0	0	CorrectCommission	1.461188	0.714633	0	1
138.365295	0.792337	mountain	3	1	0.497168	0.497168	0	0	1	0	CommissionError	1.461224	0.703991	0	1
139.157654	0.792375	city	7	1	0.709955	0.709955	0	1	0	0	CorrectCommission	0.391466	0.696876	0	1
139.949905	0.792155	city	2	1	0.695684	0.695684	0	1	0	0	CorrectCommission	0.267210	0.694053	0	1
140.742126	0.792264	city	7	1	0.695451	0.695451	0	1	0	0	CorrectCommission	0.265186	0.696014	0	1
141.534332	0.792157	city	8	1	0.649111	0.649111	0	1	0	0	CorrectCommission	0.138292	0.702686	0	1
142.326553	0.792297	city	1	1	0.695309	0.695309	0	1	0	0	CorrectCommission	0.263946	0.713259	0	1
143.118881	0.792340	city	3	1	0.699964	0.699964	0	1	0	0	CorrectCommission	0.304475	0.726118	0	1
143.911133	0.792160	city	10	1	0.645836	0.645836	0	1	0	0	CorrectCommission	0.166800	0.739007	0	1
144.703339	0.792265	mountain	10	1	0.808471	0.808471	0	0	1	0	CommissionError	1.249217	0.749371	0	1
145.495605	0.792264	city	1	1	0.893571	0.893571	0	1	0	0	CorrectCommission	1.990167	0.754763	0	1
146.287918	0.792369	city	2	1	0.843797	0.843797	0	1	0	0	CorrectCommission	1.556793	0.753327	0	1
147.080185	0.792157	city	1	1	0.808572	0.808572	0	1	0	0	CorrectCommission	1.250101	0.744174	0	1
147.872391	0.792266	mountain	9	0	0.000000	0.779089	1	0	0	0	CorrectOmission	0.993400	0.727554	0	1
148.664658	0.792263	city	9	1	0.744832	0.744832	0	1	0	0	CorrectCommission	0.695134	0.704813	0	1
149.456924	0.792265	city	8	1	0.695286	0.695286	0	1	0	0	CorrectCommission	0.263747	0.678160	0	1
150.249237	0.792375	city	2	1	0.665167	0.665167	0	1	0	0	CorrectCommission	0.001509	0.650332	1	1
151.041504	0.792159	city	10	1	0.645646	0.645646	0	1	0	0	CorrectCommission	0.168462	0.624183	1	1
151.833725	0.792262	city	3	1	0.546876	0.546876	0	1	0	0	CorrectCommission	1.028428	0.602285	1	1
152.625992	0.792269	city	2	1	0.646371	0.646371	0	1	0	0	CorrectCommission	0.162144	0.586637	1	1
153.418243	0.792259	city	7	1	0.646166	0.646166	0	1	0	0	CorrectCommission	0.163929	0.578534	1	1
154.210510	0.792264	city	4	1	0.794307	0.794307	0	1	0	0	CorrectCommission	1.125900	0.578458	1	1
155.002777	0.792267	city	6	1	0.652694	0.652694	0	1	0	0	CorrectCommission	0.107090	0.586097	1	1
155.795044	0.792265	city	1	1	0.596881	0.596881	0	1	0	0	CorrectCommission	0.593042	0.600522	1	1
156.587311	0.792264	city	8	1	0.744763	0.744763	0	1	0	0	CorrectCommission	0.694530	0.620300	1	1
157.379593	0.792306	city	9	1	0.745228	0.745228	0	1	0	0	CorrectCommission	0.698582	0.643696	1	1
158.171875	0.792270	city	8	1	0.707165	0.707165	0	1	0	0	CorrectCommission	0.367177	0.668859	1	1
158.964127	0.792218	city	10	1	0.698852	0.698852	0	1	0	0	CorrectCommission	0.294797	0.694046	0	1
159.756378	0.792287	city	3	1	0.758792	0.758792	0	1	0	0	CorrectCommission	0.816674	0.717813	0	1
160.548676	0.792317	city	6	1	0.806889	0.806889	0	1	0	0	CorrectCommission	1.235451	0.739195	0	1
161.340927	0.792191	city	9	1	0.794337	0.794337	0	1	0	0	CorrectCommission	1.126156	0.757889	0	1
162.133194	0.792326	city	10	1	0.745039	0.745039	0	1	0	0	CorrectCommission	0.696932	0.774329	0	1
162.925568	0.792421	mountain	2	0	0.000000	0.810404	1	0	0	0	CorrectOmission	1.266056	0.789666	0	1
163.717804	0.792051	city	7	1	0.843653	0.843653	0	1	0	0	CorrectCommission	1.555544	0.805624	0	1
164.509964	0.792265	city	10	1	0.698005	0.698005	0	1	0	0	CorrectCommission	0.287417	0.824279	0	1
165.302322	0.792478	city	1	1	0.704444	0.704444	0	1	0	0	CorrectCommission	0.343479	0.847759	0	1
166.094589	0.792047	city	2	1	0.695262	0.695262	0	1	0	0	CorrectCommission	0.263538	0.877831	0	1
166.886749	0.792265	city	10	1	0.664030	0.664030	0	1	0	0	CorrectCommission	0.008396	0.915617	0	1
167.679016	0.792265	city	6	1	0.744793	0.744793	0	1	0	0	CorrectCommission	0.694789	0.961369	0	1
168.471283	0.792267	city	2	1	0.794366	0.794366	0	1	0	0	CorrectCommission	1.126409	1.014339	0	1
169.263565	0.792302	city	3	1	0.893438	0.893438	0	1	0	0	CorrectCommission	1.989008	1.072812	0	1
170.055939	0.792442	city	2	1	0.794295	0.794295	0	1	0	0	CorrectCommission	1.125796	1.134226	0	1
170.848282	0.792264	city	3	1	0.745016	0.745016	0	1	0	0	CorrectCommission	0.696735	1.195409	0	1
171.640442	0.792048	city	4	1	0.794225	0.794225	0	1	0	0	CorrectCommission	1.125185	1.252787	0	1
172.432648	0.792374	city	5	1	0.844138	0.844138	0	1	0	0	CorrectCommission	1.559768	1.302682	0	1
173.224915	0.792159	city	3	1	0.844313	0.844313	0	1	0	0	CorrectCommission	1.561285	1.341589	0	1
174.017136	0.792264	city	6	1	0.857747	0.857747	0	1	0	0	CorrectCommission	1.678256	1.366467	0	1
174.809509	0.792479	city	4	1	0.893307	0.893307	0	1	0	0	CorrectCommission	1.987864	1.375008	0	1
175.601776	0.792050	city	8	1	0.844145	0.844145	0	1	0	0	CorrectCommission	1.559829	1.365839	0	1
176.393951	0.792327	mountain	3	0	0.000000	0.868846	1	0	0	0	CorrectOmission	1.774890	1.338707	0	1
177.186218	0.792205	city	7	1	0.893405	0.893405	0	1	0	0	CorrectCommission	1.988723	1.294516	0	1
177.978561	0.792478	city	1	1	0.843821	0.843821	0	1	0	0	CorrectCommission	1.557007	1.235277	0	1
178.770935	0.792264	city	9	1	0.808125	0.808125	0	1	0	0	CorrectCommission	1.246212	1.163987	0	1
179.563202	0.792264	city	3	1	0.794044	0.794044	0	1	0	0	CorrectCommission	1.123606	1.084353	0	1
180.355362	0.792049	city	6	1	0.794188	0.794188	0	1	0	0	CorrectCommission	1.124861	1.000448	0	1
181.147629	0.792483	city	7	1	0.745436	0.745436	0	1	0	0	CorrectCommission	0.700387	0.916350	0	1
181.940002	0.792262	city	5	1	0.695489	0.695489	0	1	0	0	CorrectCommission	0.265515	0.835848	0	1
182.732147	0.792047	city	2	1	0.645677	0.645677	0	1	0	0	CorrectCommission	0.168192	0.762114	0	1
183.524323	0.792303	mountain	5	0	0.000000	0.702956	1	0	0	0	CorrectOmission	0.330524	0.697527	0	1
184.316589	0.792233	city	9	1	0.763339	0.763339	0	1	0	0	CorrectCommission	0.856271	0.643611	1	1
185.108856	0.792278	mountain	9	0	0.000000	0.722841	1	0	0	0	CorrectOmission	0.503656	0.601018	1	1
185.901108	0.792245	city	10	1	0.645723	0.645723	0	1	0	0	CorrectCommission	0.167785	0.569676	1	1
186.693359	0.792265	city	5	1	0.596252	0.596252	0	1	0	0	CorrectCommission	0.598519	0.548926	1	0
187.485657	0.792305	city	7	1	0.596242	0.596242	0	1	0	0	CorrectCommission	0.598609	0.537685	1	0
188.277908	0.792224	city	4	1	0.596359	0.596359	0	1	0	0	CorrectCommission	0.597592	0.534616	1	0
189.070160	0.792264	city	9	1	0.645743	0.645743	0	1	0	0	CorrectCommission	0.167613	0.538233	1	0
189.862427	0.792268	city	1	1	0.596665	0.596665	0	1	0	0	CorrectCommission	0.594920	0.546980	1	0
190.654709	0.792297	mountain	8	0	0.000000	0.629890	1	0	0	0	CorrectOmission	0.305642	0.559303	1	0
191.447021	0.792338	city	4	1	0.646471	0.646471	0	1	0	0	CorrectCommission	0.161273	0.573728	1	0
192.239380	0.792372	city	2	1	0.547464	0.547464	0	1	0	0	CorrectCommission	1.023305	0.588865	1	0
193.031586	0.792046	city	3	1	0.596106	0.596106	0	1	0	0	CorrectCommission	0.599790	0.603482	1	0
193.823746	0.792270	city	4	1	0.546726	0.546726	0	1	0	0	CorrectCommission	1.029734	0.616570	1	0
194.616119	0.792479	city	9	1	0.546840	0.546840	0	1	0	0	CorrectCommission	1.028735	0.627330	1	0
195.408386	0.792054	city	8	1	0.596058	0.596058	0	1	0	0	CorrectCommission	0.600207	0.635210	1	0
196.200653	0.792475	mountain	10	0	0.000000	0.694959	1	0	0	0	CorrectOmission	0.260898	0.639869	1	0
196.992966	0.792157	city	8	1	0.744537	0.744537	0	1	0	0	CorrectCommission	0.692566	0.641150	1	0
197.785233	0.792371	city	4	1	0.645789	0.645789	0	1	0	0	CorrectCommission	0.167216	0.638995	1	0
198.577438	0.792049	mountain	6	0	0.000000	0.744415	1	0	0	0	CorrectOmission	0.691505	0.633569	1	0
199.369598	0.792264	city	8	1	0.843850	0.843850	0	1	0	0	CorrectCommission	1.557257	0.625173	1	0
200.161865	0.792267	city	9	1	0.747524	0.747524	0	1	0	0	CorrectCommission	0.718571	0.614327	1	0
200.954132	0.792262	city	10	1	0.695734	0.695734	0	1	0	0	CorrectCommission	0.267645	0.601893	1	0
201.746429	0.792325	city	2	1	0.596764	0.596764	0	1	0	0	CorrectCommission	0.594060	0.589109	1	0
202.538696	0.792207	city	4	1	0.596137	0.596137	0	1	0	0	CorrectCommission	0.599522	0.577666	1	0
203.331039	0.792481	city	9	1	0.596238	0.596238	0	1	0	0	CorrectCommission	0.598645	0.569740	1	0
204.123337	0.792121	city	5	1	0.612383	0.612383	0	1	0	0	CorrectCommission	0.458073	0.567912	1	0
204.915497	0.792193	city	8	1	0.659930	0.659930	0	1	0	0	CorrectCommission	0.044087	0.575021	1	0
205.707718	0.792261	city	10	1	0.596259	0.596259	0	1	0	0	CorrectCommission	0.598460	0.593886	1	0
206.500015	0.792327	city	5	1	0.512438	0.512438	0	1	0	0	CorrectCommission	1.328265	0.626929	1	0
207.292389	0.792421	city	2	1	0.652726	0.652726	0	1	0	0	CorrectCommission	0.106816	0.675715	0	0
208.084641	0.792082	city	7	1	0.645701	0.645701	0	1	0	0	CorrectCommission	0.167981	0.740529	0	0
208.876801	0.792231	city	1	1	0.648387	0.648387	0	1	0	0	CorrectCommission	0.144596	0.819908	0	0
209.669159	0.792482	mountain	10	0	0.000000	0.692941	1	0	0	0	CorrectOmission	0.243332	0.910403	0	0
210.461411	0.792045	mountain	9	0	0.000000	0.726268	1	0	0	0	CorrectOmission	0.533497	1.006613	0	0
211.253586	0.792293	city	4	1	0.695268	0.695268	0	1	0	0	CorrectCommission	0.263589	1.101516	0	0
212.045853	0.792239	city	2	1	0.546845	0.546845	0	1	0	0	CorrectCommission	1.028700	1.187170	0	0
212.838211	0.792481	city	7	1	0.645882	0.645882	0	1	0	0	CorrectCommission	0.166407	1.255637	0	0
213.630478	0.792048	city	8	1	1.190219	1.190219	0	1	0	0	CorrectCommission	4.573015	1.300156	0	0
214.422638	0.792267	city	7	1	1.140967	1.140967	0	1	0	0	CorrectCommission	4.144190	1.315988	0	0
215.215012	0.792479	city	4	1	1.041991	1.041991	0	1	0	0	CorrectCommission	3.282424	1.301365	0	0
216.007324	0.792156	mountain	9	0	0.000000	0.885605	1	0	0	0	CorrectOmission	1.920812	1.257688	0	0
216.799515	0.792237	city	3	1	0.745456	0.745456	0	1	0	0	CorrectCommission	0.700566	1.189332	0	0
217.591721	0.792177	city	5	1	0.695188	0.695188	0	1	0	0	CorrectCommission	0.262897	1.102996	0	0
218.383957	0.792276	city	9	1	0.645728	0.645728	0	1	0	0	CorrectCommission	0.167742	1.006683	0	0
219.176254	0.792329	city	10	1	0.646313	0.646313	0	1	0	0	CorrectCommission	0.162647	0.908603	0	0
219.968521	0.792206	city	5	1	0.596241	0.596241	0	1	0	0	CorrectCommission	0.598616	0.816166	0	0
220.760757	0.792259	city	10	1	0.645775	0.645775	0	1	0	0	CorrectCommission	0.167337	0.735163	0	0
221.553009	0.792259	city	5	1	0.597606	0.597606	0	1	0	0	CorrectCommission	0.586727	0.669340	1	0
222.345276	0.792268	mountain	2	0	0.000000	0.613711	1	0	0	0	CorrectOmission	0.446513	0.620244	1	0
223.137650	0.792480	city	3	1	0.645982	0.645982	0	1	0	0	CorrectCommission	0.165536	0.587414	1	0
223.929932	0.792073	city	2	1	0.646314	0.646314	0	1	0	0	CorrectCommission	0.162641	0.568775	1	0
224.722092	0.792242	city	6	1	0.695278	0.695278	0	1	0	0	CorrectCommission	0.263673	0.561194	1	0
225.514343	0.792266	city	1	1	0.744844	0.744844	0	1	0	0	CorrectCommission	0.695236	0.561032	1	0
226.306610	0.792261	mountain	8	0	0.000000	0.802432	1	0	0	0	CorrectOmission	1.196643	0.564679	1	0
227.098862	0.792264	city	1	1	0.794371	0.794371	0	1	0	0	CorrectCommission	1.126458	0.569013	1	0
227.891190	0.792374	city	8	1	0.646990	0.646990	0	1	0	0	CorrectCommission	0.156753	0.571701	1	0
228.683456	0.792156	city	1	1	0.547195	0.547195	0	1	0	0	CorrectCommission	1.025650	0.571370	1	0
229.475662	0.792267	city	8	1	0.563250	0.563250	0	1	0	0	CorrectCommission	0.885862	0.567518	1	0
230.267929	0.792264	city	10	1	0.645886	0.645886	0	1	0	0	CorrectCommission	0.166373	0.560508	1	0
231.060196	0.792261	city	1	1	0.659579	0.659579	0	1	0	0	CorrectCommission	0.047148	0.551265	1	0
231.852554	0.792484	city	7	1	0.754603	0.754603	0	1	0	0	CorrectCommission	0.780202	0.541090	1	0
232.644821	0.792049	city	6	1	0.794084	0.794084	0	1	0	0	CorrectCommission	1.123954	0.531422	1	0
233.436981	0.792261	city	4	1	0.699232	0.699232	0	1	0	0	CorrectCommission	0.298105	0.523674	1	0
234.229263	0.792305	city	7	1	0.649444	0.649444	0	1	0	0	CorrectCommission	0.135392	0.519091	1	0
235.021576	0.792301	city	10	1	0.596574	0.596574	0	1	0	0	CorrectCommission	0.595719	0.518613	1	0
235.813828	0.792217	mountain	1	0	0.000000	0.637177	1	0	0	0	CorrectOmission	0.242196	0.522846	1	0
236.606064	0.792241	city	5	1	0.695399	0.695399	0	1	0	0	CorrectCommission	0.264730	0.532110	1	0
237.398315	0.792261	city	3	1	0.695386	0.695386	0	1	0	0	CorrectCommission	0.264615	0.546444	1	0
238.190567	0.792263	city	10	1	0.695273	0.695273	0	1	0	0	CorrectCommission	0.263634	0.565716	1	0
238.982834	0.792266	city	8	1	0.744772	0.744772	0	1	0	0	CorrectCommission	0.694613	0.589661	1	0
239.775101	0.792265	city	2	1	0.843787	0.843787	0	1	0	0	CorrectCommission	1.556712	0.617915	1	0
240.567368	0.792264	city	3	1	0.797622	0.797622	0	1	0	0	CorrectCommission	1.154758	0.649963	1	0
241.359634	0.792274	city	10	1	0.711216	0.711216	0	1	0	0	CorrectCommission	0.402445	0.685066	0	0
242.151901	0.792255	city	5	1	0.695404	0.695404	0	1	0	0	CorrectCommission	0.264770	0.722107	0	0
242.944153	0.792267	city	6	1	0.653792	0.653792	0	1	0	0	CorrectCommission	0.097536	0.759435	0	0
243.736526	0.792481	city	9	1	0.645757	0.645757	0	1	0	0	CorrectCommission	0.167490	0.794848	0	0
244.528793	0.792051	city	3	1	0.709693	0.709693	0	1	0	0	CorrectCommission	0.389187	0.825677	0	0
245.320953	0.792262	city	1	1	0.547982	0.547982	0	1	0	0	CorrectCommission	1.018792	0.849084	0	0
246.113327	0.792481	city	6	1	0.893297	0.893297	0	1	0	0	CorrectCommission	1.987781	0.862394	0	1
246.905609	0.792089	city	7	1	0.858902	0.858902	0	1	0	0	CorrectCommission	1.688309	0.863580	0	1
247.697784	0.792253	mountain	8	0	0.000000	0.859259	1	0	0	0	CorrectOmission	1.691422	0.851708	0	1
248.490036	0.792239	mountain	4	0	0.000000	0.852054	1	0	0	0	CorrectOmission	1.628691	0.827174	0	1
249.282303	0.792321	city	4	1	0.794972	0.794972	0	1	0	0	CorrectCommission	1.131686	0.791759	0	1
250.074677	0.792423	city	9	1	0.645696	0.645696	0	1	0	0	CorrectCommission	0.168023	0.748480	0	1
250.866943	0.792097	city	5	1	0.645543	0.645543	0	1	0	0	CorrectCommission	0.169356	0.701226	0	1
251.659210	0.792432	city	4	1	0.596837	0.596837	0	1	0	0	CorrectCommission	0.593429	0.654219	1	1
252.451447	0.792052	city	5	1	0.645612	0.645612	0	1	0	0	CorrectCommission	0.168755	0.611467	1	1
253.243713	0.792479	city	1	1	0.695268	0.695268	0	1	0	0	CorrectCommission	0.263585	0.576305	1	1
254.035980	0.792048	city	3	1	0.648946	0.648946	0	1	0	0	CorrectCommission	0.139728	0.550976	1	1
254.828125	0.792261	city	7	1	0.596749	0.596749	0	1	0	0	CorrectCommission	0.594192	0.536428	1	1
255.620392	0.792267	city	4	1	0.696609	0.696609	0	1	0	0	CorrectCommission	0.275262	0.532246	1	1
256.412689	0.792326	city	6	1	0.695441	0.695441	0	1	0	0	CorrectCommission	0.265096	0.536791	1	1
257.204956	0.792202	city	10	1	0.600392	0.600392	0	1	0	0	CorrectCommission	0.562475	0.547422	1	1
257.997253	0.792374	city	8	1	0.695407	0.695407	0	1	0	0	CorrectCommission	0.264796	0.560883	1	1
258.789520	0.792159	city	10	1	0.596139	0.596139	0	1	0	0	CorrectCommission	0.599506	0.573711	1	1
259.581787	0.792372	city	3	1	0.596866	0.596866	0	1	0	0	CorrectCommission	0.593172	0.582656	1	1
260.374084	0.792263	city	6	1	0.498003	0.498003	0	1	0	0	CorrectCommission	1.453956	0.585100	1	1
261.166321	0.792194	city	4	1	0.546647	0.546647	0	1	0	0	CorrectCommission	1.030422	0.579331	1	1
261.958527	0.792226	city	9	1	0.547330	0.547330	0	1	0	0	CorrectCommission	1.024474	0.564780	1	1
262.750885	0.792482	city	10	1	0.550281	0.550281	0	1	0	0	CorrectCommission	0.998775	0.542008	1	1
263.543152	0.792053	city	2	1	0.608309	0.608309	0	1	0	0	CorrectCommission	0.493542	0.512558	1	1
264.335297	0.792261	city	9	1	0.648586	0.648586	0	1	0	0	CorrectCommission	0.142859	0.478757	1	1
265.127563	0.792267	city	7	1	0.654983	0.654983	0	1	0	0	CorrectCommission	0.087163	0.443360	1	1
265.919830	0.792269	city	5	1	0.695452	0.695452	0	1	0	0	CorrectCommission	0.265188	0.409196	1	1
266.712097	0.792260	city	1	1	0.651575	0.651575	0	1	0	0	CorrectCommission	0.116840	0.378853	1	1
267.504364	0.792261	city	10	1	0.696109	0.696109	0	1	0	0	CorrectCommission	0.270909	0.354449	1	1
268.296631	0.792286	city	9	1	0.708326	0.708326	0	1	0	0	CorrectCommission	0.377286	0.337423	1	1
269.088898	0.792249	city	4	1	0.667553	0.667553	0	1	0	0	CorrectCommission	0.022277	0.328483	1	1
269.881226	0.792370	city	9	1	0.695431	0.695431	0	1	0	0	CorrectCommission	0.265007	0.327641	1	1
270.673492	0.792159	city	5	1	0.661751	0.661751	0	1	0	0	CorrectCommission	0.028236	0.334268	1	1
271.465698	0.792260	city	1	1	0.646402	0.646402	0	1	0	0	CorrectCommission	0.161879	0.347223	1	1
272.257965	0.792266	city	5	1	0.695634	0.695634	0	1	0	0	CorrectCommission	0.266779	0.365022	1	1
273.050232	0.792269	city	4	1	0.806490	0.806490	0	1	0	0	CorrectCommission	1.231974	0.386020	1	1
273.842499	0.792258	city	1	1	0.652927	0.652927	0	1	0	0	CorrectCommission	0.105065	0.408539	1	1
274.634735	0.792267	city	10	1	0.665148	0.665148	0	1	0	0	CorrectCommission	0.001341	0.431097	1	1
275.427002	0.792262	city	6	1	0.709354	0.709354	0	1	0	0	CorrectCommission	0.386232	0.452488	1	1
276.219269	0.792270	city	5	1	0.697757	0.697757	0	1	0	0	CorrectCommission	0.285259	0.471891	1	1
277.011658	0.792479	mountain	7	0	0.000000	0.798208	1	0	0	0	CorrectOmission	1.159862	0.488940	1	1
277.803955	0.792155	city	6	1	0.850681	0.850681	0	1	0	0	CorrectCommission	1.616734	0.503662	1	1
278.596130	0.792155	city	4	1	0.695151	0.695151	0	1	0	0	CorrectCommission	0.262569	0.516445	1	1
279.388336	0.792266	mountain	7	0	0.000000	0.644482	1	0	0	0	CorrectOmission	0.178591	0.527931	1	1
280.180725	0.792483	city	5	1	0.645793	0.645793	0	1	0	0	CorrectCommission	0.167178	0.538801	1	1
280.972961	0.792048	city	2	1	0.646201	0.646201	0	1	0	0	CorrectCommission	0.163628	0.549640	1	1
281.765137	0.792305	mountain	1	0	0.000000	0.722678	1	0	0	0	CorrectOmission	0.502244	0.560843	1	1
282.557434	0.792278	city	3	1	0.761080	0.761080	0	1	0	0	CorrectCommission	0.836601	0.572548	1	1
283.349701	0.792213	city	9	1	0.647261	0.647261	0	1	0	0	CorrectCommission	0.154398	0.584719	1	1
284.141937	0.792266	city	10	1	0.596238	0.596238	0	1	0	0	CorrectCommission	0.598640	0.597301	1	1
284.934296	0.792479	city	9	1	0.546790	0.546790	0	1	0	0	CorrectCommission	1.029173	0.610336	1	1
285.726562	0.792056	city	1	1	0.497577	0.497577	0	1	0	0	CorrectCommission	1.457663	0.624119	1	1
286.518707	0.792255	city	8	1	0.645764	0.645764	0	1	0	0	CorrectCommission	0.167435	0.639258	1	1
287.310974	0.792266	city	2	1	0.745003	0.745003	0	1	0	0	CorrectCommission	0.696618	0.656626	1	1
288.103363	0.792483	city	9	1	0.805359	0.805359	0	1	0	0	CorrectCommission	1.222127	0.677165	0	1
288.895691	0.792155	city	1	1	0.663942	0.663942	0	1	0	0	CorrectCommission	0.009159	0.701658	0	1
289.687836	0.792154	mountain	6	0	0.000000	0.677887	1	0	0	0	CorrectOmission	0.112257	0.730521	0	1
290.480042	0.792267	city	3	1	0.695307	0.695307	0	1	0	0	CorrectCommission	0.263932	0.763493	0	1
291.272400	0.792481	city	5	1	0.564316	0.564316	0	1	0	0	CorrectCommission	0.876583	0.799577	0	1
292.064667	0.792050	city	7	1	0.548109	0.548109	0	1	0	0	CorrectCommission	1.017691	0.837056	0	1
292.856842	0.792262	city	1	1	0.596213	0.596213	0	1	0	0	CorrectCommission	0.598861	0.873655	0	1
293.649200	0.792484	city	4	1	0.596258	0.596258	0	1	0	0	CorrectCommission	0.598469	0.906896	0	1
294.441589	0.792263	city	6	1	0.548977	0.548977	0	1	0	0	CorrectCommission	1.010135	0.934426	0	1
295.233765	0.792118	city	2	1	0.414026	0.414026	0	1	0	0	CorrectCommission	2.185121	0.954416	0	1
296.025940	0.792200	city	1	1	0.447919	0.447919	0	1	0	0	CorrectCommission	1.890021	0.965874	0	1
296.818176	0.792261	city	2	1	0.413146	0.413146	0	1	0	0	CorrectCommission	2.192781	0.968790	0	1
297.610443	0.792276	city	9	1	0.612207	0.612207	0	1	0	0	CorrectCommission	0.459600	0.964065	0	1
298.402740	0.792360	mountain	5	0	0.000000	0.675213	1	0	0	0	CorrectOmission	0.088970	0.953383	0	1
299.195129	0.792375	city	10	1	0.652965	0.652965	0	1	0	0	CorrectCommission	0.104736	0.938855	0	1
299.987335	0.792050	city	8	1	0.596267	0.596267	0	1	0	0	CorrectCommission	0.598386	0.922683	0	1
300.779602	0.792478	city	3	1	0.515384	0.515384	0	1	0	0	CorrectCommission	1.302618	0.906975	0	1
301.571869	0.792050	city	4	1	0.498872	0.498872	0	1	0	0	CorrectCommission	1.446386	0.893544	0	1
302.364014	0.792265	city	2	1	0.596211	0.596211	0	1	0	0	CorrectCommission	0.598879	0.883881	0	1
303.156281	0.792264	city	6	1	0.547106	0.547106	0	1	0	0	CorrectCommission	1.026422	0.879183	0	1
303.948608	0.792371	city	7	1	0.596242	0.596242	0	1	0	0	CorrectCommission	0.598603	0.880349	0	1
304.740875	0.792175	city	9	1	0.562872	0.562872	0	1	0	0	CorrectCommission	0.889151	0.888060	0	1
305.533081	0.792245	mountain	4	0	0.000000	0.590684	1	0	0	0	CorrectOmission	0.646996	0.902706	0	0
306.325378	0.792336	city	9	1	0.596516	0.596516	0	1	0	0	CorrectCommission	0.596226	0.924380	0	0
307.117737	0.792413	city	10	1	0.497201	0.497201	0	1	0	0	CorrectCommission	1.460930	0.952743	0	0
307.909973	0.792048	city	3	1	0.596006	0.596006	0	1	0	0	CorrectCommission	0.600659	0.986880	0	0
308.702179	0.792373	city	7	1	0.510479	0.510479	0	1	0	0	CorrectCommission	1.345326	1.025226	0	0
309.494446	0.792157	city	4	1	0.649378	0.649378	0	1	0	0	CorrectCommission	0.135968	1.065497	0	0
310.286713	0.792370	city	5	1	0.608079	0.608079	0	1	0	0	CorrectCommission	0.495547	1.104862	0	0
311.079102	0.792374	city	10	1	0.546588	0.546588	0	1	0	0	CorrectCommission	1.030937	1.140084	0	0
311.871399	0.792266	city	4	1	0.503914	0.503914	0	1	0	0	CorrectCommission	1.402484	1.167877	0	0
312.663574	0.792049	city	10	1	0.460707	0.460707	0	1	0	0	CorrectCommission	1.778677	1.185340	0	0
313.455750	0.792318	city	8	1	0.352559	0.352559	0	1	0	0	CorrectCommission	2.720296	1.190383	0	0
314.248108	0.792427	mountain	4	1	0.304269	0.304269	0	0	1	0	CommissionError	3.140745	1.182030	0	0
315.040344	0.792049	city	1	1	0.695077	0.695077	0	1	0	0	CorrectCommission	0.261923	1.160614	0	0
315.832520	0.792261	city	10	1	0.598017	0.598017	0	1	0	0	CorrectCommission	0.583149	1.127804	0	0
316.624878	0.792484	city	8	1	0.604198	0.604198	0	1	0	0	CorrectCommission	0.529338	1.086305	0	0
317.417267	0.792266	city	2	1	0.546840	0.546840	0	1	0	0	CorrectCommission	1.028735	1.039587	0	0
318.209412	0.792046	mountain	2	1	0.447615	0.447615	0	0	1	0	CommissionError	1.892670	0.991484	0	0
319.001678	0.792487	city	1	1	0.749483	0.749483	0	1	0	0	CorrectCommission	0.735626	0.945780	0	0
319.793945	0.792046	city	8	1	0.744550	0.744550	0	1	0	0	CorrectCommission	0.692673	0.905909	0	0
320.586151	0.792370	city	7	1	0.652588	0.652588	0	1	0	0	CorrectCommission	0.108017	0.874577	0	0
321.378418	0.792155	city	6	1	0.645925	0.645925	0	1	0	0	CorrectCommission	0.166032	0.853577	0	0
322.170685	0.792374	city	10	1	0.556176	0.556176	0	1	0	0	CorrectCommission	0.947456	0.843625	0	0
322.963043	0.792375	city	5	1	0.498120	0.498120	0	1	0	0	CorrectCommission	1.452930	0.844316	0	0
323.755280	0.792045	city	7	1	0.645567	0.645567	0	1	0	0	CorrectCommission	0.169147	0.854185	0	0
324.547424	0.792268	city	10	1	0.695270	0.695270	0	1	0	0	CorrectCommission	0.263605	0.870842	0	0
325.339752	0.792370	city	5	1	0.546747	0.546747	0	1	0	0	CorrectCommission	1.029545	0.891187	0	0
326.132050	0.792265	city	3	1	0.504769	0.504769	0	1	0	0	CorrectCommission	1.395042	0.911658	0	0
326.924286	0.792158	city	8	1	0.695153	0.695153	0	1	0	0	CorrectCommission	0.262591	0.928669	0	0
327.716553	0.792373	city	9	1	0.546861	0.546861	0	1	0	0	CorrectCommission	1.028554	0.939000	0	0
328.508850	0.792264	city	6	1	0.497113	0.497113	0	1	0	0	CorrectCommission	1.461704	0.940125	0	0
329.301178	0.792375	city	5	1	0.409483	0.409483	0	1	0	0	CorrectCommission	2.224674	0.930590	0	0
330.093384	0.792048	city	8	1	0.496991	0.496991	0	1	0	0	CorrectCommission	1.462765	0.910219	0	0
330.885529	0.792263	city	10	1	0.565273	0.565273	0	1	0	0	CorrectCommission	0.868245	0.880197	0	0
331.677826	0.792322	city	6	1	0.795769	0.795769	0	1	0	0	CorrectCommission	1.138630	0.842912	0	0
332.470093	0.792211	city	5	1	0.609854	0.609854	0	1	0	0	CorrectCommission	0.480086	0.801687	0	0
333.262360	0.792302	city	8	1	0.596662	0.596662	0	1	0	0	CorrectCommission	0.594953	0.760336	0	0
334.054688	0.792331	mountain	10	0	0.000000	0.626615	1	0	0	0	CorrectOmission	0.334159	0.722668	0	0
334.846924	0.792160	city	8	1	0.645619	0.645619	0	1	0	0	CorrectCommission	0.168691	0.692016	0	0
335.639160	0.792343	city	5	1	0.599581	0.599581	0	1	0	0	CorrectCommission	0.569534	0.670840	1	0
336.431549	0.792402	city	7	1	0.695232	0.695232	0	1	0	0	CorrectCommission	0.263273	0.660564	1	0
337.223755	0.792046	city	5	1	0.707855	0.707855	0	1	0	0	CorrectCommission	0.373182	0.661505	1	0
338.015930	0.792266	city	9	1	0.695696	0.695696	0	1	0	0	CorrectCommission	0.267316	0.673031	1	0
338.808197	0.792264	city	6	1	0.600504	0.600504	0	1	0	0	CorrectCommission	0.561497	0.693862	0	0
339.600464	0.792311	city	7	1	0.614522	0.614522	0	1	0	0	CorrectCommission	0.439444	0.722467	0	0
340.392731	0.792220	city	5	1	0.843797	0.843797	0	1	0	0	CorrectCommission	1.556800	0.757495	0	0
341.184998	0.792265	city	3	1	0.758759	0.758759	0	1	0	0	CorrectCommission	0.816394	0.798056	0	0
341.977295	0.792373	city	4	1	0.805949	0.805949	0	1	0	0	CorrectCommission	1.227261	0.844053	0	0
342.769562	0.792154	city	3	1	0.794157	0.794157	0	1	0	0	CorrectCommission	1.124589	0.896093	0	0
343.561798	0.792293	city	8	1	0.796811	0.796811	0	1	0	0	CorrectCommission	1.147696	0.955341	0	0
344.354156	0.792455	city	4	1	0.751440	0.751440	0	1	0	0	CorrectCommission	0.752665	1.023157	0	0
345.146423	0.792055	city	10	1	0.702003	0.702003	0	1	0	0	CorrectCommission	0.322231	1.100609	0	0
345.938721	0.792529	city	9	1	0.645720	0.645720	0	1	0	0	CorrectCommission	0.167810	1.187951	0	0
346.730988	0.791994	city	2	1	0.595938	0.595938	0	1	0	0	CorrectCommission	0.601252	1.284226	0	0
347.523102	0.792262	city	8	1	0.556578	0.556578	0	1	0	0	CorrectCommission	0.943952	1.387046	0	0
348.315430	0.792375	city	7	1	0.508614	0.508614	0	1	0	0	CorrectCommission	1.361560	1.492584	0	0
349.107727	0.792265	city	10	1	0.348522	0.348522	0	1	0	0	CorrectCommission	2.755449	1.595802	0	0
349.899963	0.792158	city	7	1	0.398170	0.398170	0	1	0	0	CorrectCommission	2.323172	1.690867	0	0
350.692169	0.792269	city	10	1	0.497250	0.497250	0	1	0	0	CorrectCommission	1.460505	1.771724	0	0
351.484528	0.792475	city	3	1	0.994839	0.994839	0	1	0	0	CorrectCommission	2.871881	1.832674	0	0
352.276855	0.792157	city	10	1	0.893124	0.893124	0	1	0	0	CorrectCommission	1.986274	1.868894	0	0
353.069122	0.792372	city	8	1	0.897733	0.897733	0	1	0	0	CorrectCommission	2.026405	1.876999	0	0
353.861328	0.792076	city	1	1	0.893256	0.893256	0	1	0	0	CorrectCommission	1.987428	1.855358	0	0
354.653503	0.792277	city	2	1	1.042068	1.042068	0	1	0	0	CorrectCommission	3.283093	1.804291	0	0
355.445770	0.792224	city	9	1	1.140849	1.140849	0	1	0	0	CorrectCommission	4.143162	1.726055	0	0
356.238007	0.792266	city	1	0	0.000000	0.764286	0	0	0	1	OmissionError	0.864515	1.624666	0	0
357.030396	0.792481	city	10	1	0.464628	0.464628	0	1	0	0	CorrectCommission	1.744536	1.505595	0	0
357.822662	0.792049	city	7	1	0.794126	0.794126	0	1	0	0	CorrectCommission	1.124319	1.375040	0	0
358.614807	0.792266	city	8	1	0.758941	0.758941	0	1	0	0	CorrectCommission	0.817977	1.239471	0	0
359.407135	0.792369	mountain	9	0	0.000000	0.639622	1	0	0	0	CorrectOmission	0.220908	1.104978	0	0
360.199402	0.792162	city	4	1	0.560455	0.560455	0	1	0	0	CorrectCommission	0.910193	0.976797	0	0
360.991608	0.792260	city	10	1	0.645729	0.645729	0	1	0	0	CorrectCommission	0.167735	0.858946	0	0
361.783875	0.792266	mountain	7	0	0.000000	0.596520	1	0	0	0	CorrectOmission	0.596188	0.754144	0	0
362.576233	0.792481	city	8	1	0.550554	0.550554	0	1	0	0	CorrectCommission	0.996404	0.663776	1	0
363.368500	0.792049	city	1	1	0.645556	0.645556	0	1	0	0	CorrectCommission	0.169238	0.588093	1	0
364.160675	0.792266	mountain	5	0	0.000000	0.633054	1	0	0	0	CorrectOmission	0.278091	0.526472	1	0
364.952942	0.792273	city	6	1	0.604036	0.604036	0	1	0	0	CorrectCommission	0.530746	0.477666	1	1
365.745209	0.792256	city	9	1	0.649490	0.649490	0	1	0	0	CorrectCommission	0.134986	0.440101	1	1
366.537445	0.792262	city	3	1	0.645775	0.645775	0	1	0	0	CorrectCommission	0.167332	0.412125	1	1
367.329712	0.792265	city	9	1	0.613007	0.613007	0	1	0	0	CorrectCommission	0.452639	0.392189	1	1
368.122040	0.792373	city	10	1	0.614714	0.614714	0	1	0	0	CorrectCommission	0.437773	0.378990	1	1
368.914307	0.792187	city	4	1	0.596134	0.596134	0	1	0	0	CorrectCommission	0.599551	0.371482	1	1
369.706543	0.792237	city	9	1	0.645689	0.645689	0	1	0	0	CorrectCommission	0.168087	0.368918	1	1
370.498779	0.792264	city	1	1	0.646381	0.646381	0	1	0	0	CorrectCommission	0.162058	0.370780	1	1
371.291046	0.792265	city	2	1	0.695758	0.695758	0	1	0	0	CorrectCommission	0.267856	0.376690	1	1
372.083374	0.792370	city	1	1	0.744771	0.744771	0	1	0	0	CorrectCommission	0.694597	0.386285	1	1
372.875671	0.792240	city	3	1	0.695197	0.695197	0	1	0	0	CorrectCommission	0.262970	0.399086	1	1
373.667999	0.792400	city	9	1	0.695300	0.695300	0	1	0	0	CorrectCommission	0.263868	0.414502	1	1
374.460205	0.792048	city	10	1	0.646002	0.646002	0	1	0	0	CorrectCommission	0.165356	0.431681	1	1
375.252380	0.792265	city	4	1	0.696675	0.696675	0	1	0	0	CorrectCommission	0.275839	0.449551	1	1
376.044678	0.792373	city	7	1	0.695254	0.695254	0	1	0	0	CorrectCommission	0.263470	0.466866	1	1
376.836945	0.792161	city	5	1	0.562968	0.562968	0	1	0	0	CorrectCommission	0.888315	0.482326	1	1
377.629150	0.792264	city	1	1	0.744795	0.744795	0	1	0	0	CorrectCommission	0.694813	0.494672	1	1
378.421448	0.792299	mountain	8	0	0.000000	0.780398	1	0	0	0	CorrectOmission	1.004793	0.502892	1	1
379.213806	0.792445	city	2	1	0.744868	0.744868	0	1	0	0	CorrectCommission	0.695448	0.506305	1	1
380.006104	0.792155	city	9	1	0.713301	0.713301	0	1	0	0	CorrectCommission	0.420600	0.504665	1	1
380.798279	0.792155	city	3	1	0.645679	0.645679	0	1	0	0	CorrectCommission	0.168167	0.498208	1	1
381.590485	0.792265	city	1	1	0.596241	0.596241	0	1	0	0	CorrectCommission	0.598618	0.487616	1	1
382.382751	0.792268	city	5	1	0.596341	0.596341	0	1	0	0	CorrectCommission	0.597749	0.473920	1	1
383.175018	0.792284	city	3	1	0.550563	0.550563	0	1	0	0	CorrectCommission	0.996321	0.458419	1	1
383.967407	0.792461	city	9	1	0.645716	0.645716	0	1	0	0	CorrectCommission	0.167847	0.442518	1	1
384.759674	0.792077	city	5	1	0.612555	0.612555	0	1	0	0	CorrectCommission	0.456574	0.427605	1	1
385.551819	0.792238	city	10	1	0.664144	0.664144	0	1	0	0	CorrectCommission	0.007397	0.414848	1	1
386.344086	0.792264	mountain	8	0	0.000000	0.705885	1	0	0	0	CorrectOmission	0.356031	0.405111	1	1
387.136322	0.792262	city	2	1	0.711581	0.711581	0	1	0	0	CorrectCommission	0.405619	0.398876	1	1
387.928589	0.792266	city	7	1	0.655033	0.655033	0	1	0	0	CorrectCommission	0.086724	0.396246	1	1
388.720856	0.792264	city	4	1	0.646514	0.646514	0	1	0	0	CorrectCommission	0.160897	0.397013	1	1
389.513153	0.792331	city	5	1	0.645913	0.645913	0	1	0	0	CorrectCommission	0.166131	0.400757	1	1
390.305420	0.792200	city	6	1	0.604437	0.604437	0	1	0	0	CorrectCommission	0.527259	0.407018	1	1
391.097656	0.792264	city	10	1	0.563300	0.563300	0	1	0	0	CorrectCommission	0.885429	0.415419	1	1
391.889923	0.792284	city	3	1	0.558729	0.558729	0	1	0	0	CorrectCommission	0.925225	0.425795	1	1
392.682190	0.792256	city	2	1	0.606093	0.606093	0	1	0	0	CorrectCommission	0.512838	0.438201	1	1
393.474518	0.792361	city	6	1	0.695654	0.695654	0	1	0	0	CorrectCommission	0.266951	0.452866	1	1
394.266876	0.792375	city	1	1	0.645758	0.645758	0	1	0	0	CorrectCommission	0.167484	0.470030	1	1
395.059082	0.792048	city	9	1	0.645892	0.645892	0	1	0	0	CorrectCommission	0.166315	0.489798	1	1
395.851257	0.792262	city	7	1	0.645863	0.645863	0	1	0	0	CorrectCommission	0.166566	0.511948	1	1
396.643524	0.792267	city	4	1	0.612622	0.612622	0	1	0	0	CorrectCommission	0.455992	0.535847	1	1
397.435791	0.792265	city	10	1	0.645755	0.645755	0	1	0	0	CorrectCommission	0.167513	0.560438	1	1
398.228027	0.792263	city	9	1	0.596418	0.596418	0	1	0	0	CorrectCommission	0.597078	0.584336	1	1
399.020294	0.792266	city	5	1	0.546900	0.546900	0	1	0	0	CorrectCommission	1.028217	0.605978	1	1
399.812683	0.792483	city	4	1	0.466080	0.466080	0	1	0	0	CorrectCommission	1.731901	0.623865	1	1
400.604950	0.792049	mountain	2	0	0.000000	0.556166	1	0	0	0	CorrectOmission	0.947536	0.636727	1	1
401.397095	0.792260	city	9	1	0.657506	0.657506	0	1	0	0	CorrectCommission	0.065193	0.643746	1	1
402.189362	0.792269	city	4	1	0.610445	0.610445	0	1	0	0	CorrectCommission	0.474945	0.644591	1	1
402.981689	0.792373	city	7	1	0.596293	0.596293	0	1	0	0	CorrectCommission	0.598159	0.639422	1	1
403.773956	0.792157	city	9	1	0.561348	0.561348	0	1	0	0	CorrectCommission	0.902419	0.628858	1	1
404.566162	0.792262	city	7	1	0.547473	0.547473	0	1	0	0	CorrectCommission	1.023231	0.613872	1	1
405.358490	0.792373	city	9	1	0.760821	0.760821	0	1	0	0	CorrectCommission	0.834346	0.595695	1	1
406.150848	0.792374	city	10	1	0.645798	0.645798	0	1	0	0	CorrectCommission	0.167136	0.575679	1	1
406.943085	0.792068	city	2	1	0.744606	0.744606	0	1	0	0	CorrectCommission	0.693159	0.555198	1	1
407.735229	0.792242	city	8	1	0.704780	0.704780	0	1	0	0	CorrectCommission	0.346411	0.535501	1	1
408.527496	0.792265	city	10	1	0.645695	0.645695	0	1	0	0	CorrectCommission	0.168029	0.517700	1	1
409.319733	0.792265	city	2	1	0.646317	0.646317	0	1	0	0	CorrectCommission	0.162613	0.502691	1	1
410.112030	0.792283	city	5	1	0.553563	0.553563	0	1	0	0	CorrectCommission	0.970204	0.491175	1	1
410.904388	0.792464	city	6	1	0.711575	0.711575	0	1	0	0	CorrectCommission	0.405569	0.483643	1	1
411.696686	0.792099	city	3	1	0.596504	0.596504	0	1	0	0	CorrectCommission	0.596324	0.480438	1	1
412.488831	0.792215	city	2	1	0.596203	0.596203	0	1	0	0	CorrectCommission	0.598950	0.481740	1	1
413.281128	0.792371	city	1	1	0.645854	0.645854	0	1	0	0	CorrectCommission	0.166650	0.487575	1	1
414.073395	0.792196	city	9	1	0.655637	0.655637	0	1	0	0	CorrectCommission	0.081467	0.497824	1	1
414.865662	0.792306	city	5	1	0.596135	0.596135	0	1	0	0	CorrectCommission	0.599535	0.512251	1	1
415.657928	0.792235	city	9	1	0.704070	0.704070	0	1	0	0	CorrectCommission	0.340229	0.530483	1	1
416.450256	0.792431	city	7	1	0.709278	0.709278	0	1	0	0	CorrectCommission	0.385574	0.552105	1	1
417.242493	0.792047	city	10	1	0.596105	0.596105	0	1	0	0	CorrectCommission	0.599798	0.576687	1	1
418.034668	0.792265	city	5	1	0.562054	0.562054	0	1	0	0	CorrectCommission	0.896276	0.603836	1	1
418.826935	0.792266	city	9	1	0.748300	0.748300	0	1	0	0	CorrectCommission	0.725322	0.633225	1	1
419.619202	0.792268	city	6	1	0.744930	0.744930	0	1	0	0	CorrectCommission	0.695988	0.664566	1	1
420.411469	0.792258	city	1	1	0.563320	0.563320	0	1	0	0	CorrectCommission	0.885252	0.697550	0	1
421.203735	0.792273	city	8	1	0.603246	0.603246	0	1	0	0	CorrectCommission	0.537622	0.731722	0	1
421.996033	0.792339	city	5	1	0.557205	0.557205	0	1	0	0	CorrectCommission	0.938494	0.766383	0	1
422.788300	0.792185	city	10	1	0.648792	0.648792	0	1	0	0	CorrectCommission	0.141064	0.800460	0	1
423.580505	0.792263	city	1	1	0.754843	0.754843	0	1	0	0	CorrectCommission	0.782297	0.832512	0	1
424.372772	0.792274	city	8	1	0.649894	0.649894	0	1	0	0	CorrectCommission	0.131468	0.860733	0	0
425.165039	0.792257	city	5	1	0.546748	0.546748	0	1	0	0	CorrectCommission	1.029542	0.883184	0	0
425.957336	0.792300	city	10	1	0.497176	0.497176	0	1	0	0	CorrectCommission	1.461148	0.897984	0	0
426.749603	0.792228	city	7	1	0.456538	0.456538	0	1	0	0	CorrectCommission	1.814978	0.903630	0	0
427.541870	0.792324	city	1	1	0.398191	0.398191	0	1	0	0	CorrectCommission	2.322988	0.899246	0	0
428.334229	0.792422	mountain	2	0	0.000000	0.553823	1	0	0	0	CorrectOmission	0.967940	0.884781	0	0
429.126465	0.792049	city	9	1	0.695736	0.695736	0	1	0	0	CorrectCommission	0.267661	0.861109	0	0
429.918671	0.792338	city	10	1	0.596232	0.596232	0	1	0	0	CorrectCommission	0.598694	0.829974	0	0
430.710938	0.792189	city	6	1	0.648075	0.648075	0	1	0	0	CorrectCommission	0.147306	0.793859	0	0
431.503204	0.792373	city	4	1	0.599756	0.599756	0	1	0	0	CorrectCommission	0.568014	0.755881	0	0
432.295471	0.792158	city	5	1	0.497464	0.497464	0	1	0	0	CorrectCommission	1.458645	0.719553	0	0
433.087708	0.792283	mountain	3	0	0.000000	0.520380	1	0	0	0	CorrectOmission	1.259118	0.688598	0	0
433.880005	0.792310	mountain	9	1	0.600487	0.600487	0	0	1	0	CommissionError	0.561643	0.666723	1	0
434.672241	0.792199	mountain	10	0	0.000000	0.669768	1	0	0	0	CorrectOmission	0.041569	0.657330	1	0
435.464478	0.792268	city	5	1	0.695690	0.695690	0	1	0	0	CorrectCommission	0.267259	0.663166	1	0
436.256744	0.792268	city	10	1	0.645718	0.645718	0	1	0	0	CorrectCommission	0.167833	0.685962	0	0
437.049011	0.792263	city	7	1	0.695859	0.695859	0	1	0	0	CorrectCommission	0.268736	0.726171	0	0
437.841278	0.792261	city	5	1	0.695312	0.695312	0	1	0	0	CorrectCommission	0.263971	0.782736	0	0
438.633636	0.792481	city	6	1	0.661751	0.661751	0	1	0	0	CorrectCommission	0.028239	0.853058	0	0
439.425903	0.792048	city	4	1	0.596525	0.596525	0	1	0	0	CorrectCommission	0.596143	0.933147	0	0
440.218079	0.792265	city	2	1	0.546940	0.546940	0	1	0	0	CorrectCommission	1.027865	1.018026	0	0
441.010345	0.792305	city	4	1	0.498821	0.498821	0	1	0	0	CorrectCommission	1.446833	1.102288	0	0
441.802612	0.792223	city	10	1	0.500085	0.500085	0	1	0	0	CorrectCommission	1.435828	1.180803	0	0
442.594879	0.792269	city	4	1	0.451789	0.451789	0	1	0	0	CorrectCommission	1.856327	1.249409	0	0
443.387146	0.792264	city	7	1	0.404921	0.404921	0	1	0	0	CorrectCommission	2.264391	1.305459	0	0
444.179504	0.792480	city	8	1	0.402263	0.402263	0	1	0	0	CorrectCommission	2.287535	1.348153	0	0
444.971863	0.792264	mountain	9	1	0.397950	0.397950	0	0	1	0	CommissionError	2.325088	1.378558	0	0
445.764038	0.792047	city	1	1	0.814725	0.814725	0	1	0	0	CorrectCommission	1.303674	1.399305	0	0
446.556183	0.792266	city	7	1	0.794585	0.794585	0	1	0	0	CorrectCommission	1.128320	1.413982	0	0
447.348572	0.792481	city	5	1	0.745338	0.745338	0	1	0	0	CorrectCommission	0.699541	1.426313	0	0
448.140839	0.792048	city	9	1	0.562546	0.562546	0	1	0	0	CorrectCommission	0.891994	1.439358	0	0
448.933014	0.792314	city	7	1	0.560812	0.560812	0	1	0	0	CorrectCommission	0.907088	1.454820	0	0
449.725281	0.792219	city	9	1	0.547057	0.547057	0	1	0	0	CorrectCommission	1.026851	1.472639	0	0
450.517517	0.792264	city	7	1	0.546866	0.546866	0	1	0	0	CorrectCommission	1.028509	1.490963	0	0
451.309784	0.792265	city	3	1	0.596681	0.596681	0	1	0	0	CorrectCommission	0.594788	1.506466	0	0
452.102051	0.792262	city	1	1	0.456892	0.456892	0	1	0	0	CorrectCommission	1.811895	1.515063	0	0
452.894318	0.792266	city	10	1	0.314428	0.314428	0	1	0	0	CorrectCommission	3.052298	1.512720	0	0
453.686584	0.792278	city	7	1	1.041880	1.041880	0	1	0	0	CorrectCommission	3.281459	1.496409	0	0
454.478851	0.792255	city	5	1	0.952009	0.952009	0	1	0	0	CorrectCommission	2.498975	1.464823	0	0
455.271088	0.792260	city	6	1	0.907751	0.907751	0	1	0	0	CorrectCommission	2.113631	1.418794	0	0
456.063416	0.792374	city	8	1	0.805327	0.805327	0	1	0	0	CorrectCommission	1.221848	1.361277	0	0
456.855682	0.792156	city	10	1	0.695126	0.695126	0	1	0	0	CorrectCommission	0.262350	1.296982	0	0
457.647888	0.792279	city	1	1	0.546717	0.546717	0	1	0	0	CorrectCommission	1.029807	1.231666	0	0
458.440216	0.792361	city	9	1	0.546684	0.546684	0	1	0	0	CorrectCommission	1.030097	1.171204	0	0
459.232483	0.792154	city	5	1	0.596170	0.596170	0	1	0	0	CorrectCommission	0.599232	1.120775	0	0
460.024689	0.792265	city	8	1	0.598347	0.598347	0	1	0	0	CorrectCommission	0.580282	1.084065	0	0
460.816956	0.792265	city	6	1	0.744763	0.744763	0	1	0	0	CorrectCommission	0.694534	1.062741	0	0
461.609253	0.792319	city	5	1	0.645756	0.645756	0	1	0	0	CorrectCommission	0.167503	1.056277	0	0
462.401520	0.792213	city	8	1	0.614850	0.614850	0	1	0	0	CorrectCommission	0.436590	1.062112	0	0
463.193756	0.792260	city	1	1	0.645933	0.645933	0	1	0	0	CorrectCommission	0.165955	1.076100	0	0
463.986023	0.792267	city	2	1	0.794308	0.794308	0	1	0	0	CorrectCommission	1.125905	1.093208	0	0
464.778290	0.792267	city	8	1	0.398583	0.398583	0	1	0	0	CorrectCommission	2.319579	1.108274	0	0
465.570557	0.792262	city	3	1	1.060159	1.060159	0	1	0	0	CorrectCommission	3.440606	1.116764	0	0
466.362823	0.792310	city	2	1	0.859730	0.859730	0	1	0	0	CorrectCommission	1.695518	1.115353	0	0
467.155090	0.792220	city	5	1	0.803084	0.803084	0	1	0	0	CorrectCommission	1.202315	1.102283	0	0
467.947327	0.792264	city	7	1	0.707156	0.707156	0	1	0	0	CorrectCommission	0.367096	1.077291	0	0
468.739594	0.792267	city	5	1	0.795382	0.795382	0	1	0	0	CorrectCommission	1.135262	1.041421	0	0
469.531860	0.792266	city	4	1	0.744941	0.744941	0	1	0	0	CorrectCommission	0.696077	0.996567	0	0
470.324127	0.792263	city	10	1	0.597243	0.597243	0	1	0	0	CorrectCommission	0.589889	0.945096	0	0
471.116394	0.792264	city	9	1	0.602858	0.602858	0	1	0	0	CorrectCommission	0.541004	0.889435	0	0
471.908661	0.792267	city	10	1	0.546877	0.546877	0	1	0	0	CorrectCommission	1.028419	0.831835	0	0
472.700928	0.792264	city	2	1	0.503385	0.503385	0	1	0	0	CorrectCommission	1.407089	0.774222	0	0
473.493256	0.792370	city	5	1	0.603557	0.603557	0	1	0	0	CorrectCommission	0.534920	0.718191	0	0
474.285522	0.792161	mountain	6	1	0.546581	0.546581	0	0	1	0	CommissionError	1.030998	0.665081	1	0
475.077759	0.792310	city	3	1	0.745737	0.745737	0	1	0	0	CorrectCommission	0.703008	0.615924	1	0
475.870117	0.792434	city	8	1	0.645780	0.645780	0	1	0	0	CorrectCommission	0.167289	0.571506	1	0
476.662354	0.792051	mountain	5	0	0.000000	0.649447	1	0	0	0	CorrectOmission	0.135367	0.532320	1	0
477.454498	0.792258	mountain	4	0	0.000000	0.688640	1	0	0	0	CorrectOmission	0.205876	0.498491	1	0
478.246765	0.792268	city	1	1	0.695263	0.695263	0	1	0	0	CorrectCommission	0.263543	0.469712	1	0
479.039154	0.792482	city	5	1	0.601220	0.601220	0	1	0	0	CorrectCommission	0.555265	0.445234	1	0
479.831451	0.792112	city	6	1	0.645663	0.645663	0	1	0	0	CorrectCommission	0.168308	0.423871	1	0
480.623596	0.792198	city	8	1	0.695403	0.695403	0	1	0	0	CorrectCommission	0.264767	0.404152	1	0
481.415894	0.792374	mountain	8	0	0.000000	0.732935	1	0	0	0	CorrectOmission	0.591546	0.384443	1	0
482.208160	0.792156	city	2	1	0.751621	0.751621	0	1	0	0	CorrectCommission	0.754241	0.363164	1	0
483.000366	0.792285	city	4	1	0.744824	0.744824	0	1	0	0	CorrectCommission	0.695063	0.338998	1	0
483.792633	0.792246	city	9	1	0.695250	0.695250	0	1	0	0	CorrectCommission	0.263432	0.311098	1	0
484.584900	0.792262	city	3	1	0.645788	0.645788	0	1	0	0	CorrectCommission	0.167225	0.279190	1	0
485.377197	0.792374	city	6	1	0.597611	0.597611	0	1	0	0	CorrectCommission	0.586689	0.243614	1	0
486.169464	0.792156	city	5	1	0.702343	0.702343	0	1	0	0	CorrectCommission	0.325193	0.205221	1	0
486.961731	0.792373	city	7	1	0.646008	0.646008	0	1	0	0	CorrectCommission	0.165306	0.165306	1	0
