onset	duration	trial_type	image_type	Press	ReactionTime	ReactionTime_Interpolated	CorrectOmission	CorrectCommission	CommissionError	OmissionError	response_type	nonsmoothVarianceTimeCourse	VarianceTimeCourse	In_the_Zone	Reward_trial
8.433830	0.792363	city	5	1	0.561852	0.561852	0	1	0	0	CorrectCommission	1.547093	1.547093	0	1
9.226090	0.792157	city	2	1	0.348520	0.348520	0	1	0	0	CorrectCommission	3.139242	1.756477	0	1
10.018300	0.792263	city	1	1	0.348716	0.348716	0	1	0	0	CorrectCommission	3.137782	1.957211	0	1
10.810565	0.792268	city	9	1	0.362070	0.362070	0	1	0	0	CorrectCommission	3.038118	2.141564	0	1
11.602884	0.792371	city	2	1	0.449056	0.449056	0	1	0	0	CorrectCommission	2.388915	2.303441	0	1
12.395202	0.792263	city	8	1	0.315419	0.315419	0	1	0	0	CorrectCommission	3.386283	2.438902	0	1
13.187466	0.792265	city	6	1	0.314819	0.314819	0	1	0	0	CorrectCommission	3.390760	2.546313	0	1
13.979785	0.792373	city	2	1	0.349002	0.349002	0	1	0	0	CorrectCommission	3.135644	2.626313	0	1
14.771998	0.792054	city	10	1	0.348871	0.348871	0	1	0	0	CorrectCommission	3.136625	2.681418	0	1
15.564264	0.792478	city	7	1	0.398273	0.398273	0	1	0	0	CorrectCommission	2.767923	2.715402	0	1
16.356548	0.792092	city	3	1	0.496993	0.496993	0	1	0	0	CorrectCommission	2.031152	2.732656	0	1
17.148758	0.792327	city	2	1	0.414690	0.414690	0	1	0	0	CorrectCommission	2.645397	2.737526	0	1
17.941111	0.792376	city	9	1	0.398161	0.398161	0	1	0	0	CorrectCommission	2.768757	2.733708	0	1
18.733376	0.792154	city	6	1	0.397936	0.397936	0	1	0	0	CorrectCommission	2.770442	2.723908	0	1
19.525545	0.792186	city	4	1	0.357976	0.357976	0	1	0	0	CorrectCommission	3.068674	2.709610	0	1
20.317757	0.792239	city	6	1	0.497212	0.497212	0	1	0	0	CorrectCommission	2.029519	2.691074	0	1
21.110008	0.792261	city	7	1	0.453280	0.453280	0	1	0	0	CorrectCommission	2.357395	2.667550	0	1
21.902269	0.792263	city	3	1	0.398782	0.398782	0	1	0	0	CorrectCommission	2.764125	2.637525	0	1
22.694534	0.792266	city	5	1	0.352465	0.352465	0	1	0	0	CorrectCommission	3.109799	2.599140	0	1
23.486895	0.792454	city	3	1	0.348624	0.348624	0	1	0	0	CorrectCommission	3.138468	2.550611	0	1
24.279160	0.792076	mountain	7	1	0.348971	0.348971	0	0	1	0	CommissionError	3.135877	2.490587	0	1
25.071383	0.792372	city	2	1	0.448161	0.448161	0	1	0	0	CorrectCommission	2.395595	2.418390	0	1
25.863676	0.792215	city	1	1	0.398073	0.398073	0	1	0	0	CorrectCommission	2.769419	2.334129	0	1
26.655996	0.792425	city	5	1	0.398253	0.398253	0	1	0	0	CorrectCommission	2.768071	2.238680	0	1
27.448231	0.792044	city	9	1	0.507256	0.507256	0	1	0	0	CorrectCommission	1.954557	2.133580	0	1
28.240421	0.792337	city	5	1	0.614600	0.614600	0	1	0	0	CorrectCommission	1.153420	2.020878	0	1
29.032688	0.792197	city	9	1	0.497139	0.497139	0	1	0	0	CorrectCommission	2.030065	1.902910	0	1
29.824944	0.792315	city	8	1	0.461193	0.461193	0	1	0	0	CorrectCommission	2.298337	1.782064	0	1
30.617315	0.792429	city	1	1	0.546632	0.546632	0	1	0	0	CorrectCommission	1.660683	1.660698	0	1
31.409662	0.792266	mountain	2	0	0.000000	0.577285	1	0	0	0	CorrectOmission	1.431912	1.541065	0	1
32.201874	0.792156	city	3	1	0.596044	0.596044	0	1	0	0	CorrectCommission	1.291912	1.425240	0	1
32.994030	0.792159	city	9	1	0.645800	0.645800	0	1	0	0	CorrectCommission	0.920567	1.315087	0	1
33.786240	0.792261	city	8	1	0.596998	0.596998	0	1	0	0	CorrectCommission	1.284792	1.212290	0	1
34.578503	0.792266	city	7	1	0.645787	0.645787	0	1	0	0	CorrectCommission	0.920663	1.118277	0	1
35.370823	0.792374	city	3	1	0.608565	0.608565	0	1	0	0	CorrectCommission	1.198462	1.034222	0	1
36.163090	0.792158	city	6	1	0.610945	0.610945	0	1	0	0	CorrectCommission	1.180701	0.960963	0	1
36.955299	0.792262	city	4	1	0.794310	0.794310	0	1	0	0	CorrectCommission	0.187804	0.898929	0	1
37.747566	0.792267	city	1	1	0.794334	0.794334	0	1	0	0	CorrectCommission	0.187980	0.848106	0	1
38.539940	0.792479	city	10	1	0.744812	0.744812	0	1	0	0	CorrectCommission	0.181612	0.807956	0	1
39.332256	0.792157	city	8	1	0.893154	0.893154	0	1	0	0	CorrectCommission	0.925497	0.777439	0	1
40.124413	0.792156	city	9	1	0.907207	0.907207	0	1	0	0	CorrectCommission	1.030381	0.755066	0	1
40.916729	0.792481	city	10	1	0.850831	0.850831	0	1	0	0	CorrectCommission	0.609629	0.739038	0	1
41.709106	0.792267	city	7	1	0.954416	0.954416	0	1	0	0	CorrectCommission	1.382710	0.727384	0	1
42.501263	0.792046	city	6	1	0.794142	0.794142	0	1	0	0	CorrectCommission	0.186549	0.718085	0	1
43.293472	0.792373	city	1	1	0.645829	0.645829	0	1	0	0	CorrectCommission	0.920347	0.709259	0	1
44.085754	0.792194	city	5	1	0.704300	0.704300	0	1	0	0	CorrectCommission	0.483966	0.699206	0	1
44.877968	0.792230	city	3	1	0.695631	0.695631	0	1	0	0	CorrectCommission	0.548666	0.686597	0	1
45.670219	0.792273	mountain	2	0	0.000000	0.685131	1	0	0	0	CorrectOmission	0.627031	0.670507	0	1
46.462536	0.792361	city	8	1	0.645756	0.645756	0	1	0	0	CorrectCommission	0.920898	0.650480	0	1
47.254795	0.792159	city	10	1	0.550461	0.550461	0	1	0	0	CorrectCommission	1.632109	0.626559	0	1
48.047035	0.792325	city	7	1	0.695244	0.695244	0	1	0	0	CorrectCommission	0.551552	0.599260	1	1
48.839310	0.792220	city	5	1	0.695217	0.695217	0	1	0	0	CorrectCommission	0.551752	0.569553	1	1
49.631546	0.792250	city	4	1	0.744921	0.744921	0	1	0	0	CorrectCommission	0.180803	0.538703	1	1
50.423855	0.792370	city	9	1	0.751752	0.751752	0	1	0	0	CorrectCommission	0.129819	0.508123	1	1
51.216225	0.792374	city	1	1	0.695371	0.695371	0	1	0	0	CorrectCommission	0.550605	0.479212	1	1
52.008438	0.792050	city	9	1	0.695365	0.695365	0	1	0	0	CorrectCommission	0.550651	0.453215	1	1
52.800648	0.792371	city	4	1	0.747313	0.747313	0	1	0	0	CorrectCommission	0.162949	0.431131	1	1
53.592915	0.792158	city	2	1	0.695622	0.695622	0	1	0	0	CorrectCommission	0.548733	0.413637	1	1
54.385178	0.792370	city	1	1	0.744798	0.744798	0	1	0	0	CorrectCommission	0.181722	0.401078	1	1
55.177444	0.792162	city	4	1	0.794197	0.794197	0	1	0	0	CorrectCommission	0.186956	0.393494	1	1
55.969685	0.792323	city	9	1	0.744912	0.744912	0	1	0	0	CorrectCommission	0.180867	0.390702	1	1
56.761959	0.792224	city	1	1	0.695216	0.695216	0	1	0	0	CorrectCommission	0.551762	0.392365	1	1
57.554192	0.792242	city	6	1	0.700540	0.700540	0	1	0	0	CorrectCommission	0.512027	0.398078	1	1
58.346451	0.792277	city	7	1	0.713077	0.713077	0	1	0	0	CorrectCommission	0.418461	0.407473	1	1
59.138744	0.792309	city	2	1	0.745125	0.745125	0	1	0	0	CorrectCommission	0.179279	0.420244	1	1
59.931023	0.792249	city	7	1	0.855863	0.855863	0	1	0	0	CorrectCommission	0.647186	0.436199	1	1
60.723312	0.792335	city	9	1	0.794255	0.794255	0	1	0	0	CorrectCommission	0.187392	0.455159	1	1
61.515560	0.792158	mountain	1	0	0.000000	0.703553	1	0	0	0	CorrectOmission	0.489543	0.476974	1	1
62.307823	0.792370	city	5	1	0.662922	0.662922	0	1	0	0	CorrectCommission	0.792780	0.501373	1	1
63.100143	0.792267	city	8	1	0.751530	0.751530	0	1	0	0	CorrectCommission	0.131478	0.527898	1	1
63.892353	0.792157	city	1	1	0.744659	0.744659	0	1	0	0	CorrectCommission	0.182760	0.555843	1	1
64.684616	0.792373	city	7	1	0.943348	0.943348	0	1	0	0	CorrectCommission	1.300112	0.584171	1	1
65.476883	0.792157	city	5	1	0.744968	0.744968	0	1	0	0	CorrectCommission	0.180449	0.611567	0	1
66.269096	0.792261	city	1	1	0.794301	0.794301	0	1	0	0	CorrectCommission	0.187730	0.636540	0	1
67.061356	0.792266	city	5	1	0.844194	0.844194	0	1	0	0	CorrectCommission	0.560096	0.657527	0	1
67.853729	0.792482	city	10	1	0.943010	0.943010	0	1	0	0	CorrectCommission	1.297591	0.673097	0	0
68.645996	0.792055	city	4	1	0.942986	0.942986	0	1	0	0	CorrectCommission	1.297411	0.682144	0	0
69.438263	0.792474	city	9	1	0.945025	0.945025	0	1	0	0	CorrectCommission	1.312625	0.684091	0	0
70.230637	0.792265	city	6	1	0.744881	0.744881	0	1	0	0	CorrectCommission	0.181104	0.679027	0	0
71.022804	0.792084	city	1	1	0.645568	0.645568	0	1	0	0	CorrectCommission	0.922301	0.667748	0	0
71.815071	0.792446	city	10	1	0.645726	0.645726	0	1	0	0	CorrectCommission	0.921120	0.651656	0	0
72.607376	0.792157	city	6	1	0.843647	0.843647	0	1	0	0	CorrectCommission	0.556018	0.632665	0	0
73.399529	0.792156	city	5	1	0.763790	0.763790	0	1	0	0	CorrectCommission	0.039979	0.612984	0	0
74.191742	0.792268	mountain	3	0	0.000000	0.675099	1	0	0	0	CorrectOmission	0.701902	0.594860	1	0
74.984009	0.792264	city	10	1	0.645965	0.645965	0	1	0	0	CorrectCommission	0.919335	0.580291	1	0
75.776268	0.792264	city	7	1	0.744779	0.744779	0	1	0	0	CorrectCommission	0.181862	0.570825	1	0
76.568642	0.792480	city	5	1	0.695249	0.695249	0	1	0	0	CorrectCommission	0.551518	0.567376	1	0
77.360909	0.792047	city	6	1	0.796280	0.796280	0	1	0	0	CorrectCommission	0.202505	0.570066	1	0
78.153175	0.792484	city	2	1	0.746828	0.746828	0	1	0	0	CorrectCommission	0.166571	0.578267	1	0
78.945450	0.792068	city	4	1	0.801181	0.801181	0	1	0	0	CorrectCommission	0.239081	0.590678	1	0
79.737610	0.792250	city	5	1	0.746361	0.746361	0	1	0	0	CorrectCommission	0.170056	0.605512	1	0
80.529861	0.792265	city	6	1	0.943339	0.943339	0	1	0	0	CorrectCommission	1.300042	0.620819	0	0
81.322128	0.792257	city	2	1	0.893383	0.893383	0	1	0	0	CorrectCommission	0.927212	0.634741	0	0
82.114388	0.792267	city	8	1	0.900052	0.900052	0	1	0	0	CorrectCommission	0.976977	0.645839	0	0
82.906677	0.792317	city	4	1	0.942878	0.942878	0	1	0	0	CorrectCommission	1.296605	0.653265	0	0
83.698997	0.792319	mountain	5	0	0.000000	0.897601	1	0	0	0	CorrectOmission	0.958686	0.656819	0	0
84.491234	0.792158	city	7	1	0.794609	0.794609	0	1	0	0	CorrectCommission	0.190030	0.656882	0	0
85.283478	0.792330	city	3	1	0.664292	0.664292	0	1	0	0	CorrectCommission	0.782554	0.654229	0	0
86.075745	0.792201	city	5	1	0.695216	0.695216	0	1	0	0	CorrectCommission	0.551766	0.649735	0	0
86.868088	0.792481	city	9	1	0.745072	0.745072	0	1	0	0	CorrectCommission	0.179674	0.644153	0	0
87.660355	0.792050	city	6	1	0.744588	0.744588	0	1	0	0	CorrectCommission	0.183284	0.637945	0	0
88.452507	0.792266	city	1	1	0.810305	0.810305	0	1	0	0	CorrectCommission	0.307173	0.631174	0	0
89.244774	0.792261	city	2	1	0.893396	0.893396	0	1	0	0	CorrectCommission	0.927308	0.623580	0	0
90.037033	0.792262	city	7	1	0.893345	0.893345	0	1	0	0	CorrectCommission	0.926927	0.614741	0	0
90.829353	0.792376	mountain	5	0	0.000000	0.925819	1	0	0	0	CorrectOmission	1.169286	0.604337	1	0
91.621727	0.792372	city	6	1	0.893202	0.893202	0	1	0	0	CorrectCommission	0.925859	0.592312	1	0
92.413940	0.792060	city	10	1	0.697879	0.697879	0	1	0	0	CorrectCommission	0.531885	0.579041	1	0
93.206207	0.792470	city	5	1	0.696105	0.696105	0	1	0	0	CorrectCommission	0.545131	0.565367	1	0
93.998474	0.792059	city	4	1	0.843648	0.843648	0	1	0	0	CorrectCommission	0.556024	0.552461	1	0
94.790627	0.792256	mountain	5	0	0.000000	0.792028	1	0	0	0	CorrectOmission	0.170772	0.541643	1	0
95.582893	0.792265	city	1	1	0.704706	0.704706	0	1	0	0	CorrectCommission	0.480935	0.534129	1	0
96.375153	0.792264	city	2	1	0.745143	0.745143	0	1	0	0	CorrectCommission	0.179145	0.530740	1	0
97.167419	0.792262	city	9	1	0.843789	0.843789	0	1	0	0	CorrectCommission	0.557072	0.531744	1	0
97.959732	0.792373	city	7	1	0.799043	0.799043	0	1	0	0	CorrectCommission	0.223125	0.536701	1	0
98.751999	0.792162	city	10	1	0.794210	0.794210	0	1	0	0	CorrectCommission	0.187057	0.544578	1	0
99.544319	0.792477	city	8	1	0.795650	0.795650	0	1	0	0	CorrectCommission	0.197800	0.553893	1	0
100.336586	0.792047	city	1	1	0.893338	0.893338	0	1	0	0	CorrectCommission	0.926874	0.562983	1	0
101.128738	0.792267	city	8	1	0.914097	0.914097	0	1	0	0	CorrectCommission	1.081799	0.570342	1	0
101.921021	0.792290	city	1	1	0.893471	0.893471	0	1	0	0	CorrectCommission	0.927868	0.574955	1	0
102.713303	0.792272	mountain	4	0	0.000000	0.906121	1	0	0	0	CorrectOmission	1.022276	0.576476	1	0
103.505554	0.792230	city	2	1	0.905185	0.905185	0	1	0	0	CorrectCommission	1.015286	0.575333	1	0
104.297821	0.792317	city	6	1	0.843801	0.843801	0	1	0	0	CorrectCommission	0.557166	0.572613	1	0
105.090118	0.792271	city	2	1	0.760713	0.760713	0	1	0	0	CorrectCommission	0.062945	0.569857	1	0
105.882355	0.792208	city	9	1	0.809378	0.809378	0	1	0	0	CorrectCommission	0.300254	0.568744	1	0
106.674591	0.792261	city	2	1	0.794232	0.794232	0	1	0	0	CorrectCommission	0.187216	0.570722	1	0
107.466858	0.792270	city	10	1	0.794915	0.794915	0	1	0	0	CorrectCommission	0.192315	0.576774	1	0
108.259178	0.792371	city	6	1	0.856355	0.856355	0	1	0	0	CorrectCommission	0.650858	0.587240	1	0
109.051445	0.792157	city	1	1	0.816112	0.816112	0	1	0	0	CorrectCommission	0.350516	0.601783	1	0
109.843674	0.792310	city	10	1	0.810720	0.810720	0	1	0	0	CorrectCommission	0.310269	0.619529	0	0
110.635941	0.792222	city	1	1	0.893268	0.893268	0	1	0	0	CorrectCommission	0.926347	0.639238	0	0
111.428185	0.792264	city	10	1	0.906800	0.906800	0	1	0	0	CorrectCommission	1.027343	0.659544	0	0
112.220444	0.792260	city	6	1	0.943326	0.943326	0	1	0	0	CorrectCommission	1.299943	0.679182	0	0
113.012711	0.792270	city	7	1	0.850364	0.850364	0	1	0	0	CorrectCommission	0.606145	0.697108	0	0
113.805084	0.792477	city	10	1	0.893402	0.893402	0	1	0	0	CorrectCommission	0.927351	0.712588	0	0
114.597351	0.792050	city	6	1	0.893441	0.893441	0	1	0	0	CorrectCommission	0.927644	0.725084	0	0
115.389503	0.792263	city	4	1	0.794675	0.794675	0	1	0	0	CorrectCommission	0.190523	0.734185	0	0
116.181877	0.792481	city	10	1	0.794820	0.794820	0	1	0	0	CorrectCommission	0.191607	0.739510	0	0
116.974251	0.792265	city	7	1	0.847364	0.847364	0	1	0	0	CorrectCommission	0.583756	0.740610	0	0
117.766403	0.792046	city	1	1	0.843637	0.843637	0	1	0	0	CorrectCommission	0.555944	0.736976	0	0
118.558670	0.792483	city	4	1	1.004146	1.004146	0	1	0	0	CorrectCommission	1.753857	0.728159	0	0
119.350945	0.792063	city	6	1	0.893140	0.893140	0	1	0	0	CorrectCommission	0.925392	0.713897	0	0
120.143105	0.792253	city	10	1	0.893391	0.893391	0	1	0	0	CorrectCommission	0.927266	0.694313	0	0
120.935356	0.792261	city	6	1	0.942948	0.942948	0	1	0	0	CorrectCommission	1.297124	0.669971	0	0
121.727631	0.792284	city	1	1	0.844328	0.844328	0	1	0	0	CorrectCommission	0.561097	0.641912	0	0
122.520004	0.792463	city	3	1	0.810732	0.810732	0	1	0	0	CorrectCommission	0.310361	0.611600	0	0
123.312317	0.792157	city	1	1	0.855086	0.855086	0	1	0	0	CorrectCommission	0.641390	0.580726	1	0
124.104469	0.792155	city	9	1	0.758289	0.758289	0	1	0	0	CorrectCommission	0.081035	0.551012	1	0
124.896713	0.792328	city	1	1	0.745150	0.745150	0	1	0	0	CorrectCommission	0.179094	0.524013	1	0
125.688980	0.792202	city	7	1	0.744761	0.744761	0	1	0	0	CorrectCommission	0.181993	0.500938	1	0
126.481209	0.792266	city	10	1	0.645899	0.645899	0	1	0	0	CorrectCommission	0.919826	0.482581	1	0
127.273529	0.792371	city	1	1	0.794404	0.794404	0	1	0	0	CorrectCommission	0.188501	0.469283	1	1
128.065842	0.792266	mountain	9	0	0.000000	0.737058	1	0	0	0	CorrectOmission	0.239487	0.461029	1	1
128.858063	0.792159	city	7	1	0.646494	0.646494	0	1	0	0	CorrectCommission	0.915390	0.457504	1	1
129.650284	0.792293	city	4	1	0.695344	0.695344	0	1	0	0	CorrectCommission	0.550806	0.458199	1	1
130.442581	0.792286	city	2	1	0.744775	0.744775	0	1	0	0	CorrectCommission	0.181889	0.462533	1	1
131.234833	0.792212	city	6	1	0.844041	0.844041	0	1	0	0	CorrectCommission	0.558955	0.469881	1	1
132.027069	0.792273	city	3	1	0.801607	0.801607	0	1	0	0	CorrectCommission	0.242257	0.479628	1	1
132.819443	0.792473	city	8	1	0.794304	0.794304	0	1	0	0	CorrectCommission	0.187756	0.491216	1	1
133.611710	0.792049	city	3	1	0.794109	0.794109	0	1	0	0	CorrectCommission	0.186303	0.504164	1	1
134.403854	0.792262	city	2	1	0.893473	0.893473	0	1	0	0	CorrectCommission	0.927880	0.518081	1	1
135.196228	0.792484	city	6	1	0.893675	0.893675	0	1	0	0	CorrectCommission	0.929385	0.532676	1	1
135.988495	0.792047	city	3	1	0.862238	0.862238	0	1	0	0	CorrectCommission	0.694765	0.547769	1	1
136.780655	0.792264	city	8	1	0.844476	0.844476	0	1	0	0	CorrectCommission	0.562202	0.563290	1	1
137.572922	0.792263	city	1	1	0.801334	0.801334	0	1	0	0	CorrectCommission	0.240225	0.579223	1	1
138.365173	0.792267	mountain	6	0	0.000000	0.701018	1	0	0	0	CorrectOmission	0.508459	0.595519	1	1
139.157501	0.792374	city	2	1	0.645821	0.645821	0	1	0	0	CorrectCommission	0.920410	0.612030	0	1
139.949814	0.792264	mountain	4	0	0.000000	0.738036	1	0	0	0	CorrectOmission	0.232186	0.628432	0	1
140.742035	0.792155	city	4	1	0.850594	0.850594	0	1	0	0	CorrectCommission	0.607863	0.644245	0	1
141.534241	0.792267	city	7	1	0.856426	0.856426	0	1	0	0	CorrectCommission	0.651392	0.658815	0	1
142.326508	0.792265	city	2	1	0.808700	0.808700	0	1	0	0	CorrectCommission	0.295195	0.671450	0	1
143.118774	0.792262	city	9	1	0.893511	0.893511	0	1	0	0	CorrectCommission	0.928167	0.681581	0	1
143.911087	0.792375	city	5	1	0.895902	0.895902	0	1	0	0	CorrectCommission	0.946005	0.688848	0	1
144.703354	0.792157	city	2	1	0.992625	0.992625	0	1	0	0	CorrectCommission	1.667874	0.693323	0	1
145.495590	0.792327	city	10	1	0.907850	0.907850	0	1	0	0	CorrectCommission	1.035181	0.695489	0	1
146.287857	0.792202	mountain	6	0	0.000000	0.771316	1	0	0	0	CorrectOmission	0.016191	0.696274	0	1
147.080124	0.792337	city	2	1	0.695835	0.695835	0	1	0	0	CorrectCommission	0.547144	0.696907	0	1
147.872498	0.792408	city	10	1	0.794220	0.794220	0	1	0	0	CorrectCommission	0.187129	0.698693	0	1
148.664734	0.792055	city	3	1	0.893686	0.893686	0	1	0	0	CorrectCommission	0.929466	0.702808	0	1
149.456894	0.792258	city	2	1	0.909214	0.909214	0	1	0	0	CorrectCommission	1.045359	0.710038	0	1
150.249161	0.792269	city	4	1	0.844142	0.844142	0	1	0	0	CorrectCommission	0.559712	0.720600	0	1
151.041428	0.792264	city	2	1	0.794328	0.794328	0	1	0	0	CorrectCommission	0.187935	0.734038	0	1
151.833740	0.792369	city	1	1	0.756815	0.756815	0	1	0	0	CorrectCommission	0.092035	0.749194	0	1
152.626114	0.792374	city	7	1	0.893996	0.893996	0	1	0	0	CorrectCommission	0.931786	0.764316	0	1
153.418320	0.792048	city	6	1	0.893096	0.893096	0	1	0	0	CorrectCommission	0.925065	0.777255	0	1
154.210480	0.792264	city	3	1	0.942907	0.942907	0	1	0	0	CorrectCommission	1.296819	0.785767	0	1
155.002747	0.792269	city	5	1	0.893386	0.893386	0	1	0	0	CorrectCommission	0.927230	0.787798	0	1
155.795013	0.792261	city	7	1	0.992449	0.992449	0	1	0	0	CorrectCommission	1.666565	0.781760	0	1
156.587326	0.792371	city	9	1	0.860403	0.860403	0	1	0	0	CorrectCommission	0.681070	0.766713	0	1
157.379593	0.792160	city	7	1	0.855389	0.855389	0	1	0	0	CorrectCommission	0.643646	0.742536	0	1
158.171814	0.792284	city	4	1	0.942861	0.942861	0	1	0	0	CorrectCommission	1.296474	0.709872	0	1
158.964081	0.792245	mountain	9	0	0.000000	0.751797	1	0	0	0	CorrectOmission	0.129487	0.670046	0	1
159.756363	0.792322	city	10	1	0.600379	0.600379	0	1	0	0	CorrectCommission	1.259553	0.624960	0	1
160.548630	0.792222	city	6	1	0.806792	0.806792	0	1	0	0	CorrectCommission	0.280959	0.576804	1	1
161.340927	0.792354	city	3	1	0.851301	0.851301	0	1	0	0	CorrectCommission	0.613138	0.527960	1	1
162.133224	0.792265	city	10	1	0.794199	0.794199	0	1	0	0	CorrectCommission	0.186973	0.480727	1	1
162.925446	0.792158	city	2	1	0.744700	0.744700	0	1	0	0	CorrectCommission	0.182454	0.437254	1	1
163.717651	0.792265	mountain	4	0	0.000000	0.794503	1	0	0	0	CorrectOmission	0.189239	0.399418	1	1
164.509949	0.792319	city	5	1	0.844175	0.844175	0	1	0	0	CorrectCommission	0.559954	0.368747	1	1
165.302216	0.792210	city	3	1	0.794282	0.794282	0	1	0	0	CorrectCommission	0.187592	0.346393	1	1
166.094482	0.792326	city	4	1	0.800978	0.800978	0	1	0	0	CorrectCommission	0.237565	0.333110	1	1
166.886734	0.792202	city	3	1	0.794352	0.794352	0	1	0	0	CorrectCommission	0.188114	0.329199	1	1
167.678986	0.792287	mountain	1	0	0.000000	0.772078	1	0	0	0	CorrectOmission	0.021876	0.334500	1	1
168.471252	0.792247	city	7	1	0.751865	0.751865	0	1	0	0	CorrectCommission	0.128975	0.348348	1	1
169.263504	0.792264	city	1	1	0.751425	0.751425	0	1	0	0	CorrectCommission	0.132264	0.369545	1	1
170.055771	0.792264	city	4	1	0.844682	0.844682	0	1	0	0	CorrectCommission	0.563737	0.396357	1	1
170.848038	0.792261	city	3	1	0.794343	0.794343	0	1	0	0	CorrectCommission	0.188048	0.426596	1	1
171.640305	0.792269	city	7	1	0.844441	0.844441	0	1	0	0	CorrectCommission	0.561945	0.457750	1	1
172.432571	0.792260	city	10	1	0.794295	0.794295	0	1	0	0	CorrectCommission	0.187686	0.487164	1	1
173.224854	0.792322	mountain	3	0	0.000000	0.833433	1	0	0	0	CorrectOmission	0.479783	0.512290	1	1
174.017120	0.792211	city	6	1	0.893298	0.893298	0	1	0	0	CorrectCommission	0.926574	0.530963	1	1
174.809387	0.792308	city	7	1	0.905334	0.905334	0	1	0	0	CorrectCommission	1.016403	0.541631	1	1
175.601639	0.792217	city	1	1	0.913078	0.913078	0	1	0	0	CorrectCommission	1.074200	0.543566	1	1
176.393906	0.792307	city	9	1	0.946564	0.946564	0	1	0	0	CorrectCommission	1.324108	0.536962	1	1
177.186172	0.792230	mountain	4	0	0.000000	0.827717	1	0	0	0	CorrectOmission	0.437126	0.522857	1	1
177.978455	0.792343	city	3	1	0.709455	0.709455	0	1	0	0	CorrectCommission	0.445497	0.503050	1	1
178.770721	0.792184	city	8	1	0.744692	0.744692	0	1	0	0	CorrectCommission	0.182515	0.479759	1	1
179.562943	0.792266	city	2	1	0.745472	0.745472	0	1	0	0	CorrectCommission	0.176689	0.455354	1	1
180.355270	0.792368	city	1	1	0.794280	0.794280	0	1	0	0	CorrectCommission	0.187574	0.432034	1	1
181.147552	0.792217	city	8	1	0.745118	0.745118	0	1	0	0	CorrectCommission	0.179332	0.411598	1	1
181.939819	0.792313	city	4	1	0.794269	0.794269	0	1	0	0	CorrectCommission	0.187494	0.395286	1	1
182.732056	0.792157	mountain	2	0	0.000000	0.827312	1	0	0	0	CorrectOmission	0.434106	0.383737	1	1
183.524323	0.792374	city	2	1	0.843898	0.843898	0	1	0	0	CorrectCommission	0.557891	0.377030	1	1
184.316589	0.792154	city	3	1	0.843676	0.843676	0	1	0	0	CorrectCommission	0.556233	0.374789	1	1
185.108795	0.792266	city	10	1	0.761359	0.761359	0	1	0	0	CorrectCommission	0.058123	0.376322	1	1
185.901062	0.792266	mountain	1	0	0.000000	0.728779	1	0	0	0	CorrectOmission	0.301274	0.380764	1	1
186.693329	0.792266	mountain	2	0	0.000000	0.723439	1	0	0	0	CorrectOmission	0.341125	0.387182	1	0
187.485703	0.792480	mountain	3	0	0.000000	0.722842	1	0	0	0	CorrectOmission	0.345584	0.394698	1	0
188.277969	0.792067	city	10	1	0.704489	0.704489	0	1	0	0	CorrectCommission	0.482554	0.402592	1	0
189.070190	0.792353	city	2	1	0.645884	0.645884	0	1	0	0	CorrectCommission	0.919943	0.410306	1	0
189.862488	0.792265	city	6	1	0.761734	0.761734	0	1	0	0	CorrectCommission	0.055325	0.417512	1	0
190.654709	0.792155	city	1	1	0.704521	0.704521	0	1	0	0	CorrectCommission	0.482320	0.424142	1	0
191.446915	0.792276	city	8	1	0.794388	0.794388	0	1	0	0	CorrectCommission	0.188383	0.430313	1	0
192.239197	0.792291	mountain	5	0	0.000000	0.733569	1	0	0	0	CorrectOmission	0.265525	0.436346	1	0
193.031464	0.792230	city	2	1	0.645837	0.645837	0	1	0	0	CorrectCommission	0.920289	0.442694	1	0
193.823715	0.792268	city	8	1	0.654967	0.654967	0	1	0	0	CorrectCommission	0.852149	0.449846	1	0
194.616089	0.792479	mountain	2	0	0.000000	0.704965	1	0	0	0	CorrectOmission	0.479003	0.458253	1	0
195.408356	0.792057	city	8	1	0.762512	0.762512	0	1	0	0	CorrectCommission	0.049514	0.468189	1	0
196.200562	0.792363	city	9	1	0.794290	0.794290	0	1	0	0	CorrectCommission	0.187653	0.479667	1	0
196.992859	0.792213	city	10	1	0.744664	0.744664	0	1	0	0	CorrectCommission	0.182717	0.492341	1	0
197.785080	0.792233	city	8	1	0.745144	0.745144	0	1	0	0	CorrectCommission	0.179137	0.505529	1	0
198.577316	0.792243	city	10	1	0.844042	0.844042	0	1	0	0	CorrectCommission	0.558961	0.518277	1	0
199.369568	0.792267	city	6	1	0.893387	0.893387	0	1	0	0	CorrectCommission	0.927235	0.529489	1	0
200.161835	0.792263	city	4	1	0.893466	0.893466	0	1	0	0	CorrectCommission	0.927826	0.538102	1	0
200.954102	0.792261	city	2	1	0.900132	0.900132	0	1	0	0	CorrectCommission	0.977577	0.543266	1	0
201.746353	0.792263	mountain	9	0	0.000000	0.813268	1	0	0	0	CorrectOmission	0.329288	0.544469	1	0
202.538727	0.792484	city	7	1	0.695289	0.695289	0	1	0	0	CorrectCommission	0.551220	0.541613	1	0
203.330994	0.792055	city	8	1	0.608610	0.608610	0	1	0	0	CorrectCommission	1.198125	0.534952	1	0
204.123184	0.792312	city	4	1	0.744862	0.744862	0	1	0	0	CorrectCommission	0.181243	0.525015	1	0
204.915558	0.792428	city	3	1	0.745422	0.745422	0	1	0	0	CorrectCommission	0.177065	0.512508	1	0
205.707794	0.792051	city	4	1	0.859720	0.859720	0	1	0	0	CorrectCommission	0.675972	0.498124	1	0
206.499954	0.792262	city	9	1	0.751363	0.751363	0	1	0	0	CorrectCommission	0.132727	0.482457	1	0
207.292267	0.792372	city	5	1	0.744814	0.744814	0	1	0	0	CorrectCommission	0.181599	0.466003	1	0
208.084534	0.792160	city	4	1	0.843804	0.843804	0	1	0	0	CorrectCommission	0.557190	0.449114	1	0
208.876740	0.792263	city	9	1	0.898113	0.898113	0	1	0	0	CorrectCommission	0.962510	0.432091	1	0
209.669006	0.792260	city	8	1	0.857301	0.857301	0	1	0	0	CorrectCommission	0.657918	0.415284	1	0
210.461273	0.792266	city	10	1	0.794436	0.794436	0	1	0	0	CorrectCommission	0.188741	0.399157	1	0
211.253586	0.792374	city	7	1	0.846642	0.846642	0	1	0	0	CorrectCommission	0.578369	0.384340	1	0
212.045959	0.792373	mountain	3	0	0.000000	0.812148	1	0	0	0	CorrectOmission	0.320933	0.371572	1	0
212.838226	0.792157	city	1	1	0.756466	0.756466	0	1	0	0	CorrectCommission	0.094638	0.361672	1	0
213.630402	0.792188	city	2	1	0.745107	0.745107	0	1	0	0	CorrectCommission	0.179417	0.355406	1	0
214.422638	0.792280	city	3	1	0.745608	0.745608	0	1	0	0	CorrectCommission	0.175673	0.353370	1	0
215.214890	0.792226	city	4	1	0.744744	0.744744	0	1	0	0	CorrectCommission	0.182121	0.355888	1	0
216.007187	0.792364	city	3	1	0.744790	0.744790	0	1	0	0	CorrectCommission	0.181778	0.362975	1	0
216.799438	0.792158	city	2	1	0.695188	0.695188	0	1	0	0	CorrectCommission	0.551974	0.374322	1	0
217.591705	0.792371	city	6	1	0.794712	0.794712	0	1	0	0	CorrectCommission	0.190802	0.389343	1	0
218.383972	0.792162	city	1	1	0.710815	0.710815	0	1	0	0	CorrectCommission	0.435346	0.407274	1	0
219.176178	0.792262	city	5	1	0.695276	0.695276	0	1	0	0	CorrectCommission	0.551317	0.427247	1	0
219.968460	0.792297	city	10	1	0.695274	0.695274	0	1	0	0	CorrectCommission	0.551329	0.448387	1	0
220.760727	0.792229	city	6	1	0.794292	0.794292	0	1	0	0	CorrectCommission	0.187666	0.469857	1	0
221.552979	0.792267	mountain	4	0	0.000000	0.876904	1	0	0	0	CorrectOmission	0.804223	0.490919	1	0
222.345245	0.792281	city	10	1	0.893469	0.893469	0	1	0	0	CorrectCommission	0.927851	0.510898	1	0
223.137527	0.792287	city	9	1	0.794344	0.794344	0	1	0	0	CorrectCommission	0.188056	0.529173	1	0
223.929794	0.792227	city	1	1	0.794430	0.794430	0	1	0	0	CorrectCommission	0.188699	0.545191	1	0
224.722061	0.792320	city	5	1	0.695422	0.695422	0	1	0	0	CorrectCommission	0.550225	0.558431	1	0
225.514328	0.792204	city	6	1	0.853390	0.853390	0	1	0	0	CorrectCommission	0.628734	0.568424	1	0
226.306564	0.792270	city	2	1	0.893463	0.893463	0	1	0	0	CorrectCommission	0.927805	0.574833	1	0
227.098846	0.792300	city	8	1	0.844374	0.844374	0	1	0	0	CorrectCommission	0.561440	0.577540	1	0
227.891113	0.792230	city	9	1	0.855710	0.855710	0	1	0	0	CorrectCommission	0.646043	0.576742	1	0
228.683365	0.792263	mountain	8	0	0.000000	0.905511	1	0	0	0	CorrectOmission	1.017719	0.572958	1	0
229.475632	0.792268	city	9	1	0.900043	0.900043	0	1	0	0	CorrectCommission	0.976911	0.567037	1	0
230.267990	0.792478	city	8	1	0.745573	0.745573	0	1	0	0	CorrectCommission	0.175935	0.560087	1	0
231.060287	0.792090	city	7	1	0.701439	0.701439	0	1	0	0	CorrectCommission	0.505322	0.553335	1	0
231.852432	0.792224	mountain	10	0	0.000000	0.721036	1	0	0	0	CorrectOmission	0.359064	0.547904	1	0
232.644684	0.792280	city	5	1	0.744834	0.744834	0	1	0	0	CorrectCommission	0.181450	0.544651	1	0
233.436951	0.792252	city	1	1	0.713304	0.713304	0	1	0	0	CorrectCommission	0.416771	0.544000	1	0
234.229218	0.792263	city	5	1	0.705007	0.705007	0	1	0	0	CorrectCommission	0.478688	0.545843	1	0
235.021469	0.792263	city	9	1	0.843946	0.843946	0	1	0	0	CorrectCommission	0.558244	0.549549	1	0
235.813736	0.792268	city	7	1	0.843861	0.843861	0	1	0	0	CorrectCommission	0.557612	0.554037	1	0
236.606064	0.792367	city	10	1	0.844245	0.844245	0	1	0	0	CorrectCommission	0.560482	0.557944	1	0
237.398331	0.792162	city	3	1	0.843805	0.843805	0	1	0	0	CorrectCommission	0.557197	0.559851	1	0
238.190552	0.792302	city	2	1	0.843959	0.843959	0	1	0	0	CorrectCommission	0.558345	0.558543	1	0
238.982880	0.792332	city	3	1	0.893615	0.893615	0	1	0	0	CorrectCommission	0.928942	0.553218	1	0
239.775116	0.792161	city	6	1	0.943229	0.943229	0	1	0	0	CorrectCommission	1.299223	0.543659	1	0
240.567444	0.792476	city	9	1	0.843973	0.843973	0	1	0	0	CorrectCommission	0.558448	0.530357	1	0
241.359756	0.792156	city	4	1	0.744885	0.744885	0	1	0	0	CorrectCommission	0.181072	0.514500	1	0
242.151947	0.792220	city	1	1	0.844260	0.844260	0	1	0	0	CorrectCommission	0.560587	0.497860	1	0
242.944260	0.792417	city	6	1	0.846173	0.846173	0	1	0	0	CorrectCommission	0.574871	0.482587	1	0
243.736542	0.792156	city	9	1	0.795363	0.795363	0	1	0	0	CorrectCommission	0.195661	0.470958	1	0
244.528702	0.792159	city	2	1	0.794225	0.794225	0	1	0	0	CorrectCommission	0.187168	0.465108	1	0
245.320969	0.792369	city	7	1	0.795069	0.795069	0	1	0	0	CorrectCommission	0.193467	0.466744	1	0
246.113342	0.792374	city	3	1	0.843749	0.843749	0	1	0	0	CorrectCommission	0.556774	0.476899	1	1
246.905548	0.792049	city	4	1	0.797980	0.797980	0	1	0	0	CorrectCommission	0.215194	0.495760	1	1
247.697769	0.792371	city	3	1	0.746106	0.746106	0	1	0	0	CorrectCommission	0.171958	0.522629	1	1
248.490036	0.792158	city	6	1	0.761581	0.761581	0	1	0	0	CorrectCommission	0.056465	0.555905	1	1
249.282349	0.792483	city	9	1	0.695304	0.695304	0	1	0	0	CorrectCommission	0.551106	0.593223	1	1
250.074615	0.792046	city	1	1	0.653540	0.653540	0	1	0	0	CorrectCommission	0.862801	0.631676	0	1
250.866821	0.792374	city	4	1	0.660199	0.660199	0	1	0	0	CorrectCommission	0.813107	0.668116	0	1
251.659195	0.792372	mountain	4	0	0.000000	0.667872	1	0	0	0	CorrectOmission	0.755839	0.699496	0	1
252.451508	0.792264	city	6	1	0.645661	0.645661	0	1	0	0	CorrectCommission	0.921606	0.723190	0	1
253.243668	0.792047	city	7	1	0.562666	0.562666	0	1	0	0	CorrectCommission	1.541015	0.737289	0	1
254.035934	0.792483	city	6	1	0.596783	0.596783	0	1	0	0	CorrectCommission	1.286391	0.740781	0	1
254.828201	0.792053	city	4	1	0.659971	0.659971	0	1	0	0	CorrectCommission	0.814809	0.733687	0	1
255.620361	0.792259	city	2	1	0.645753	0.645753	0	1	0	0	CorrectCommission	0.920919	0.717030	0	1
256.412628	0.792286	city	4	1	0.752264	0.752264	0	1	0	0	CorrectCommission	0.125997	0.692670	0	1
257.204895	0.792244	mountain	7	1	0.650452	0.650452	0	0	1	0	CommissionError	0.885849	0.663146	0	1
257.997162	0.792304	city	9	1	0.893361	0.893361	0	1	0	0	CorrectCommission	0.927044	0.631347	0	1
258.789551	0.792443	city	10	1	0.709288	0.709288	0	1	0	0	CorrectCommission	0.446744	0.600272	1	1
259.581787	0.792052	city	4	1	0.744677	0.744677	0	1	0	0	CorrectCommission	0.182624	0.572717	1	1
260.373962	0.792261	city	10	1	0.695627	0.695627	0	1	0	0	CorrectCommission	0.548696	0.550990	1	1
261.166229	0.792283	city	8	1	0.695294	0.695294	0	1	0	0	CorrectCommission	0.551179	0.536686	1	1
261.958496	0.792257	mountain	1	0	0.000000	0.753256	1	0	0	0	CorrectOmission	0.118594	0.530526	1	1
262.750793	0.792330	city	6	1	0.794821	0.794821	0	1	0	0	CorrectCommission	0.191612	0.532279	1	1
263.543030	0.792191	city	2	1	0.745295	0.745295	0	1	0	0	CorrectCommission	0.178010	0.540755	1	1
264.335266	0.792264	mountain	6	0	0.000000	0.778396	1	0	0	0	CorrectOmission	0.069034	0.553946	1	1
265.127563	0.792322	city	6	1	0.844300	0.844300	0	1	0	0	CorrectCommission	0.560889	0.569257	1	1
265.919922	0.792421	city	7	1	0.893181	0.893181	0	1	0	0	CorrectCommission	0.925699	0.583805	1	1
266.712189	0.792056	city	8	1	0.943491	0.943491	0	1	0	0	CorrectCommission	1.301181	0.594771	1	1
267.504456	0.792475	city	10	1	0.898464	0.898464	0	1	0	0	CorrectCommission	0.965130	0.599737	1	1
268.296692	0.792050	city	1	1	0.912300	0.912300	0	1	0	0	CorrectCommission	1.068390	0.596979	1	1
269.088867	0.792262	city	3	1	0.805617	0.805617	0	1	0	0	CorrectCommission	0.272185	0.585635	1	1
269.881134	0.792288	city	9	1	0.862054	0.862054	0	1	0	0	CorrectCommission	0.693392	0.565792	1	1
270.673431	0.792291	city	4	1	0.893312	0.893312	0	1	0	0	CorrectCommission	0.926680	0.538425	1	1
271.465790	0.792433	city	3	1	0.809724	0.809724	0	1	0	0	CorrectCommission	0.302841	0.505304	1	1
272.258026	0.792050	city	6	1	0.893201	0.893201	0	1	0	0	CorrectCommission	0.925846	0.468824	1	1
273.050171	0.792264	city	7	1	0.794331	0.794331	0	1	0	0	CorrectCommission	0.187958	0.431748	1	1
273.842499	0.792370	city	2	1	0.794390	0.794390	0	1	0	0	CorrectCommission	0.188400	0.397064	1	1
274.634766	0.792161	city	8	1	0.746667	0.746667	0	1	0	0	CorrectCommission	0.167769	0.367689	1	1
275.427094	0.792477	city	7	1	0.757325	0.757325	0	1	0	0	CorrectCommission	0.088230	0.346319	1	1
276.219360	0.792051	city	5	1	0.794219	0.794219	0	1	0	0	CorrectCommission	0.187125	0.335245	1	1
277.011536	0.792302	city	6	1	0.765644	0.765644	0	1	0	0	CorrectCommission	0.026140	0.336203	1	1
277.803894	0.792441	city	3	1	0.747416	0.747416	0	1	0	0	CorrectCommission	0.162179	0.350254	1	1
278.596130	0.792052	city	4	1	0.706325	0.706325	0	1	0	0	CorrectCommission	0.468856	0.377676	1	1
279.388306	0.792266	city	1	1	0.763045	0.763045	0	1	0	0	CorrectCommission	0.045535	0.417877	1	1
280.180573	0.792261	city	6	1	0.750220	0.750220	0	1	0	0	CorrectCommission	0.141253	0.469386	1	1
280.972870	0.792333	city	5	1	0.744883	0.744883	0	1	0	0	CorrectCommission	0.181088	0.529832	1	1
281.765167	0.792304	city	8	1	0.744713	0.744713	0	1	0	0	CorrectCommission	0.182352	0.596073	1	1
282.557404	0.792158	city	6	1	0.695137	0.695137	0	1	0	0	CorrectCommission	0.552351	0.664368	0	1
283.349609	0.792263	city	5	1	0.647951	0.647951	0	1	0	0	CorrectCommission	0.904516	0.730649	0	1
284.141937	0.792371	city	4	1	0.612779	0.612779	0	1	0	0	CorrectCommission	1.167008	0.790885	0	1
284.934204	0.792162	city	9	1	0.602966	0.602966	0	1	0	0	CorrectCommission	1.240248	0.841468	0	1
285.726410	0.792261	city	6	1	0.550054	0.550054	0	1	0	0	CorrectCommission	1.635145	0.879551	0	1
286.518738	0.792372	city	10	1	0.546727	0.546727	0	1	0	0	CorrectCommission	1.659976	0.903330	0	1
287.311005	0.792157	city	7	1	0.645675	0.645675	0	1	0	0	CorrectCommission	0.921496	0.912173	0	1
288.103241	0.792312	city	1	1	0.660409	0.660409	0	1	0	0	CorrectCommission	0.811534	0.906637	0	1
288.895599	0.792433	city	3	1	0.600025	0.600025	0	1	0	0	CorrectCommission	1.262199	0.888331	0	1
289.687866	0.792091	city	4	1	0.646116	0.646116	0	1	0	0	CorrectCommission	0.918209	0.859634	0	1
290.480011	0.792222	city	10	1	0.596511	0.596511	0	1	0	0	CorrectCommission	1.288425	0.823452	0	1
291.272278	0.792269	city	7	1	0.696193	0.696193	0	1	0	0	CorrectCommission	0.544472	0.782812	0	1
292.064545	0.792262	city	3	1	0.745448	0.745448	0	1	0	0	CorrectCommission	0.176872	0.740610	0	1
292.856812	0.792267	city	2	1	0.701775	0.701775	0	1	0	0	CorrectCommission	0.502811	0.699348	0	1
293.649109	0.792337	city	7	1	0.665760	0.665760	0	1	0	0	CorrectCommission	0.771603	0.660976	0	1
294.441406	0.792242	mountain	7	1	0.755352	0.755352	0	0	1	0	CommissionError	0.102951	0.626855	0	1
295.233612	0.792214	city	7	1	0.844338	0.844338	0	1	0	0	CorrectCommission	0.561176	0.597819	1	1
296.025909	0.792371	city	8	1	0.844586	0.844586	0	1	0	0	CorrectCommission	0.563023	0.574228	1	1
296.818176	0.792156	city	10	1	0.893257	0.893257	0	1	0	0	CorrectCommission	0.926271	0.556136	1	1
297.610443	0.792374	city	6	1	0.893408	0.893408	0	1	0	0	CorrectCommission	0.927398	0.543377	1	1
298.402802	0.792373	city	10	1	0.812591	0.812591	0	1	0	0	CorrectCommission	0.324237	0.535656	1	1
299.195129	0.792265	city	8	1	0.794022	0.794022	0	1	0	0	CorrectCommission	0.185654	0.532562	1	1
299.987305	0.792051	city	4	1	0.796892	0.796892	0	1	0	0	CorrectCommission	0.207070	0.533528	1	1
300.779572	0.792484	city	8	1	0.749263	0.749263	0	1	0	0	CorrectCommission	0.148397	0.537806	1	1
301.571930	0.792260	city	1	1	0.850509	0.850509	0	1	0	0	CorrectCommission	0.607231	0.544436	1	1
302.364197	0.792266	city	4	1	0.849850	0.849850	0	1	0	0	CorrectCommission	0.602311	0.552265	1	1
303.156342	0.792055	city	9	1	0.843584	0.843584	0	1	0	0	CorrectCommission	0.555542	0.560016	1	1
303.948578	0.792365	city	2	1	0.895625	0.895625	0	1	0	0	CorrectCommission	0.943942	0.566384	1	1
304.740936	0.792372	city	6	1	0.851055	0.851055	0	1	0	0	CorrectCommission	0.611304	0.570152	1	1
305.533142	0.792050	city	3	1	0.943390	0.943390	0	1	0	0	CorrectCommission	1.300421	0.570313	1	0
306.325287	0.792261	city	9	1	0.813178	0.813178	0	1	0	0	CorrectCommission	0.328620	0.566106	1	0
307.117615	0.792375	city	10	1	0.760930	0.760930	0	1	0	0	CorrectCommission	0.061323	0.557134	1	0
307.909943	0.792265	city	2	1	0.704898	0.704898	0	1	0	0	CorrectCommission	0.479502	0.543329	1	0
308.702148	0.792159	city	3	1	0.657322	0.657322	0	1	0	0	CorrectCommission	0.834578	0.524957	1	0
309.494415	0.792371	city	7	1	0.657891	0.657891	0	1	0	0	CorrectCommission	0.830329	0.502598	1	0
310.286682	0.792156	city	9	1	0.663769	0.663769	0	1	0	0	CorrectCommission	0.786457	0.477100	1	0
311.078918	0.792343	city	2	1	0.695851	0.695851	0	1	0	0	CorrectCommission	0.547021	0.449507	1	0
311.871307	0.792403	city	6	1	0.796860	0.796860	0	1	0	0	CorrectCommission	0.206832	0.420994	1	0
312.663513	0.792053	city	5	1	0.751238	0.751238	0	1	0	0	CorrectCommission	0.133658	0.392762	1	0
313.455719	0.792315	city	4	1	0.798974	0.798974	0	1	0	0	CorrectCommission	0.222610	0.365953	1	0
314.248077	0.792427	city	7	1	0.744747	0.744747	0	1	0	0	CorrectCommission	0.182097	0.341577	1	0
315.040314	0.792050	mountain	8	0	0.000000	0.795732	1	0	0	0	CorrectOmission	0.198413	0.320476	1	0
315.832489	0.792317	city	2	1	0.847790	0.847790	0	1	0	0	CorrectCommission	0.586937	0.303305	1	0
316.624756	0.792209	city	7	1	0.796784	0.796784	0	1	0	0	CorrectCommission	0.206267	0.290539	1	0
317.417023	0.792298	city	9	1	0.794486	0.794486	0	1	0	0	CorrectCommission	0.189113	0.282511	1	0
318.209290	0.792267	city	3	1	0.744771	0.744771	0	1	0	0	CorrectCommission	0.181921	0.279401	1	0
319.001556	0.792227	city	8	1	0.794497	0.794497	0	1	0	0	CorrectCommission	0.189194	0.281270	1	0
319.793793	0.792268	city	7	1	0.745167	0.745167	0	1	0	0	CorrectCommission	0.178969	0.288060	1	0
320.586060	0.792266	city	4	1	0.812480	0.812480	0	1	0	0	CorrectCommission	0.323405	0.299619	1	0
321.378326	0.792262	city	10	1	0.756075	0.756075	0	1	0	0	CorrectCommission	0.097557	0.315684	1	0
322.170593	0.792268	city	9	1	0.794326	0.794326	0	1	0	0	CorrectCommission	0.187921	0.335945	1	0
322.962860	0.792261	mountain	9	0	0.000000	0.825542	1	0	0	0	CorrectOmission	0.420895	0.360020	1	0
323.755127	0.792264	mountain	4	0	0.000000	0.831648	1	0	0	0	CorrectOmission	0.466461	0.387549	1	0
324.547485	0.792482	city	7	1	0.794566	0.794566	0	1	0	0	CorrectCommission	0.189711	0.418232	1	0
325.339783	0.792085	city	4	1	0.696221	0.696221	0	1	0	0	CorrectCommission	0.544261	0.451870	1	0
326.131927	0.792229	city	9	1	0.695391	0.695391	0	1	0	0	CorrectCommission	0.550457	0.488378	1	0
326.924194	0.792262	city	3	1	0.697260	0.697260	0	1	0	0	CorrectCommission	0.536511	0.527783	1	0
327.716492	0.792373	city	8	1	0.844437	0.844437	0	1	0	0	CorrectCommission	0.561909	0.570163	1	0
328.508820	0.792266	city	3	1	0.850290	0.850290	0	1	0	0	CorrectCommission	0.605595	0.615533	0	0
329.301147	0.792374	city	7	1	0.843716	0.843716	0	1	0	0	CorrectCommission	0.556531	0.663715	0	0
330.093384	0.792088	mountain	3	0	0.000000	0.854571	1	0	0	0	CorrectOmission	0.637548	0.714193	0	0
330.885529	0.792226	city	8	1	0.812278	0.812278	0	1	0	0	CorrectCommission	0.321901	0.765977	0	0
331.677887	0.792479	city	2	1	0.646257	0.646257	0	1	0	0	CorrectCommission	0.917157	0.817566	0	0
332.470184	0.792155	city	10	1	0.611578	0.611578	0	1	0	0	CorrectCommission	1.175977	0.866917	0	0
333.262360	0.792160	city	8	1	0.695324	0.695324	0	1	0	0	CorrectCommission	0.550957	0.911588	0	0
334.054565	0.792261	city	3	1	0.645942	0.645942	0	1	0	0	CorrectCommission	0.919507	0.948954	0	0
334.846863	0.792319	city	1	1	0.660023	0.660023	0	1	0	0	CorrectCommission	0.814420	0.976490	0	0
335.639221	0.792427	city	3	1	0.564717	0.564717	0	1	0	0	CorrectCommission	1.525707	0.992106	0	0
336.431458	0.792048	city	4	1	0.546857	0.546857	0	1	0	0	CorrectCommission	1.659006	0.994474	0	0
337.223663	0.792374	city	6	1	0.447955	0.447955	0	1	0	0	CorrectCommission	2.397135	0.983289	0	0
338.015930	0.792157	city	2	1	0.953829	0.953829	0	1	0	0	CorrectCommission	1.378331	0.959357	0	0
338.808197	0.792373	city	8	1	0.893508	0.893508	0	1	0	0	CorrectCommission	0.928143	0.924614	0	0
339.600494	0.792179	city	4	1	0.844968	0.844968	0	1	0	0	CorrectCommission	0.565873	0.881919	0	0
340.392731	0.792297	city	2	1	0.754908	0.754908	0	1	0	0	CorrectCommission	0.106267	0.834730	0	0
341.184967	0.792218	city	8	1	0.695498	0.695498	0	1	0	0	CorrectCommission	0.549656	0.786788	0	0
341.977203	0.792256	city	4	1	0.702640	0.702640	0	1	0	0	CorrectCommission	0.496357	0.741755	0	0
342.769470	0.792266	city	9	1	0.652778	0.652778	0	1	0	0	CorrectCommission	0.868488	0.702918	0	0
343.561798	0.792371	city	4	1	0.662477	0.662477	0	1	0	0	CorrectCommission	0.796105	0.672937	0	0
344.354095	0.792226	city	2	1	0.695314	0.695314	0	1	0	0	CorrectCommission	0.551029	0.653694	0	0
345.146423	0.792414	city	8	1	0.702309	0.702309	0	1	0	0	CorrectCommission	0.498824	0.646191	0	0
345.938690	0.792156	city	6	1	0.757723	0.757723	0	1	0	0	CorrectCommission	0.085259	0.650477	0	0
346.730957	0.792373	city	9	1	0.709307	0.709307	0	1	0	0	CorrectCommission	0.446596	0.665660	0	0
347.523193	0.792087	city	4	1	0.746422	0.746422	0	1	0	0	CorrectCommission	0.169602	0.689933	0	0
348.315338	0.792229	city	9	1	0.843933	0.843933	0	1	0	0	CorrectCommission	0.558148	0.720744	0	0
349.107605	0.792258	city	8	1	0.800014	0.800014	0	1	0	0	CorrectCommission	0.230372	0.754966	0	0
349.899872	0.792269	city	7	1	0.942870	0.942870	0	1	0	0	CorrectCommission	1.296543	0.789212	0	0
350.692108	0.792262	city	4	1	0.893364	0.893364	0	1	0	0	CorrectCommission	0.927066	0.820125	0	0
351.484436	0.792374	city	10	1	0.992370	0.992370	0	1	0	0	CorrectCommission	1.665973	0.844728	0	0
352.276764	0.792264	city	1	1	1.001651	1.001651	0	1	0	0	CorrectCommission	1.735242	0.860642	0	0
353.068970	0.792155	mountain	3	0	0.000000	0.907776	1	0	0	0	CorrectOmission	1.034628	0.866279	0	0
353.861176	0.792269	city	3	1	0.843827	0.843827	0	1	0	0	CorrectCommission	0.557357	0.860923	0	0
354.653442	0.792264	city	4	1	0.942885	0.942885	0	1	0	0	CorrectCommission	1.296655	0.844638	0	0
355.445740	0.792325	city	6	1	0.745768	0.745768	0	1	0	0	CorrectCommission	0.174477	0.818201	0	0
356.238007	0.792201	city	5	1	0.704360	0.704360	0	1	0	0	CorrectCommission	0.483521	0.783010	0	0
357.030243	0.792268	city	10	1	0.598006	0.598006	0	1	0	0	CorrectCommission	1.277263	0.740912	0	0
357.822571	0.792370	mountain	9	1	0.597804	0.597804	0	0	1	0	CommissionError	1.278774	0.694130	0	0
358.614929	0.792375	city	2	1	0.893368	0.893368	0	1	0	0	CorrectCommission	0.927096	0.645181	0	0
359.407166	0.792080	city	5	1	0.745056	0.745056	0	1	0	0	CorrectCommission	0.179795	0.596785	1	0
360.199432	0.792450	city	10	1	0.695237	0.695237	0	1	0	0	CorrectCommission	0.551603	0.551726	1	0
360.991730	0.792155	city	2	1	0.715537	0.715537	0	1	0	0	CorrectCommission	0.400105	0.512667	1	0
361.783875	0.792166	city	8	1	0.745397	0.745397	0	1	0	0	CorrectCommission	0.177251	0.481971	1	0
362.576111	0.792254	city	9	1	0.794409	0.794409	0	1	0	0	CorrectCommission	0.188543	0.461452	1	0
363.368347	0.792275	city	5	1	0.754391	0.754391	0	1	0	0	CorrectCommission	0.110126	0.452174	1	0
364.160614	0.792255	city	4	1	0.794425	0.794425	0	1	0	0	CorrectCommission	0.188661	0.454274	1	0
364.952942	0.792373	city	3	1	0.744913	0.744913	0	1	0	0	CorrectCommission	0.180859	0.466893	1	1
365.745270	0.792265	city	9	1	0.748384	0.748384	0	1	0	0	CorrectCommission	0.154955	0.488210	1	1
366.537476	0.792186	city	6	1	0.744810	0.744810	0	1	0	0	CorrectCommission	0.181629	0.515625	1	1
367.329681	0.792236	city	4	1	0.744795	0.744795	0	1	0	0	CorrectCommission	0.181743	0.546006	1	1
368.122040	0.792482	mountain	8	0	0.000000	0.885982	1	0	0	0	CorrectOmission	0.871975	0.576096	1	1
368.914307	0.792050	city	9	1	0.993827	0.993827	0	1	0	0	CorrectCommission	1.676849	0.602883	1	1
369.706482	0.792264	city	2	1	0.893785	0.893785	0	1	0	0	CorrectCommission	0.930206	0.623997	0	1
370.498749	0.792267	city	9	1	0.942858	0.942858	0	1	0	0	CorrectCommission	1.296452	0.637992	0	1
371.291046	0.792369	city	6	1	0.844075	0.844075	0	1	0	0	CorrectCommission	0.559208	0.644452	0	1
372.083313	0.792163	city	4	1	0.843715	0.843715	0	1	0	0	CorrectCommission	0.556526	0.643998	0	1
372.875549	0.792257	city	3	1	0.844209	0.844209	0	1	0	0	CorrectCommission	0.560206	0.638147	0	1
373.667786	0.792269	city	6	1	0.843835	0.843835	0	1	0	0	CorrectCommission	0.557422	0.629041	0	1
374.460052	0.792260	city	8	1	0.696191	0.696191	0	1	0	0	CorrectCommission	0.544485	0.619148	0	1
375.252441	0.792483	city	1	1	0.695275	0.695275	0	1	0	0	CorrectCommission	0.551322	0.610962	0	1
376.044739	0.792121	city	9	1	0.844191	0.844191	0	1	0	0	CorrectCommission	0.560079	0.606736	0	1
376.836884	0.792189	city	1	1	0.843853	0.843853	0	1	0	0	CorrectCommission	0.557550	0.608270	0	1
377.629150	0.792320	city	2	1	0.753947	0.753947	0	1	0	0	CorrectCommission	0.113438	0.616738	0	1
378.421509	0.792428	city	5	1	0.713330	0.713330	0	1	0	0	CorrectCommission	0.416570	0.632634	0	1
379.213776	0.792087	city	3	1	0.697483	0.697483	0	1	0	0	CorrectCommission	0.534847	0.655716	0	1
380.005920	0.792226	city	5	1	0.695745	0.695745	0	1	0	0	CorrectCommission	0.547813	0.685095	0	1
380.798187	0.792268	city	3	1	0.645791	0.645791	0	1	0	0	CorrectCommission	0.920634	0.719309	0	1
381.590454	0.792259	city	7	1	0.650200	0.650200	0	1	0	0	CorrectCommission	0.887727	0.756473	0	1
382.382812	0.792484	city	1	1	0.704622	0.704622	0	1	0	0	CorrectCommission	0.481565	0.794460	0	1
383.175079	0.792053	city	9	1	0.704525	0.704525	0	1	0	0	CorrectCommission	0.482288	0.831125	0	1
383.967255	0.792308	mountain	3	0	0.000000	0.897946	1	0	0	0	CorrectOmission	0.961263	0.864522	0	1
384.759521	0.792217	city	7	1	1.041885	1.041885	0	1	0	0	CorrectCommission	2.035513	0.893102	0	1
385.551758	0.792267	city	2	1	0.893341	0.893341	0	1	0	0	CorrectCommission	0.926891	0.915906	0	1
386.344055	0.792294	city	9	1	0.847985	0.847985	0	1	0	0	CorrectCommission	0.588391	0.932721	0	1
387.136322	0.792233	city	3	1	0.893306	0.893306	0	1	0	0	CorrectCommission	0.926630	0.944115	0	1
387.928558	0.792264	city	8	1	0.992726	0.992726	0	1	0	0	CorrectCommission	1.668634	0.951313	0	1
388.720947	0.792481	city	4	1	0.944114	0.944114	0	1	0	0	CorrectCommission	1.305827	0.956041	0	1
389.513306	0.792266	city	7	1	0.893132	0.893132	0	1	0	0	CorrectCommission	0.925334	0.960261	0	1
390.305450	0.792046	city	2	1	0.861853	0.861853	0	1	0	0	CorrectCommission	0.691893	0.965811	0	1
391.097626	0.792271	city	1	1	0.844147	0.844147	0	1	0	0	CorrectCommission	0.559745	0.974039	0	1
391.889984	0.792477	mountain	2	0	0.000000	0.839771	1	0	0	0	CorrectOmission	0.527089	0.985514	0	1
392.682251	0.792047	city	1	1	0.844331	0.844331	0	1	0	0	CorrectCommission	0.561120	0.999859	0	1
393.474518	0.792483	city	10	1	0.853431	0.853431	0	1	0	0	CorrectCommission	0.629034	1.015735	0	1
394.266785	0.792049	city	8	0	0.000000	0.701960	0	0	0	1	OmissionError	0.501431	1.031031	0	1
395.058990	0.792350	city	4	1	0.547287	0.547287	0	1	0	0	CorrectCommission	1.655795	1.043206	0	1
395.851257	0.792212	city	7	1	0.546780	0.546780	0	1	0	0	CorrectCommission	1.659579	1.049670	0	1
396.643494	0.792234	mountain	1	1	0.447631	0.447631	0	0	1	0	CommissionError	2.399555	1.048249	0	1
397.435852	0.792478	city	5	1	0.596549	0.596549	0	1	0	0	CorrectCommission	1.288139	1.037532	0	1
398.228119	0.792082	city	6	1	0.596040	0.596040	0	1	0	0	CorrectCommission	1.291940	1.017101	0	1
399.020294	0.792228	city	10	1	0.596309	0.596309	0	1	0	0	CorrectCommission	1.289930	0.987472	0	1
399.812531	0.792265	city	9	1	0.794371	0.794371	0	1	0	0	CorrectCommission	0.188258	0.950035	0	1
400.604797	0.792269	city	8	1	0.713271	0.713271	0	1	0	0	CorrectCommission	0.417016	0.906862	0	1
401.397064	0.792262	city	5	1	0.794312	0.794312	0	1	0	0	CorrectCommission	0.187820	0.860435	0	1
402.189331	0.792269	city	7	1	0.992363	0.992363	0	1	0	0	CorrectCommission	1.665917	0.813448	0	1
402.981598	0.792261	city	3	1	0.944443	0.944443	0	1	0	0	CorrectCommission	1.308285	0.768649	0	1
403.773895	0.792314	city	8	1	0.846507	0.846507	0	1	0	0	CorrectCommission	0.577361	0.728733	0	1
404.566162	0.792227	city	1	1	0.714143	0.714143	0	1	0	0	CorrectCommission	0.410508	0.696178	0	1
405.358398	0.792255	city	8	1	0.695741	0.695741	0	1	0	0	CorrectCommission	0.547844	0.673162	0	1
406.150665	0.792303	city	10	1	0.700346	0.700346	0	1	0	0	CorrectCommission	0.513473	0.661427	0	1
406.943054	0.792469	city	4	1	0.794284	0.794284	0	1	0	0	CorrectCommission	0.187607	0.662093	0	1
407.735321	0.792035	city	3	1	0.710838	0.710838	0	1	0	0	CorrectCommission	0.435172	0.675566	0	1
408.527557	0.792467	city	6	1	0.751792	0.751792	0	1	0	0	CorrectCommission	0.129523	0.701440	0	1
409.319885	0.792155	city	5	1	0.706873	0.706873	0	1	0	0	CorrectCommission	0.464766	0.738485	0	1
410.112030	0.792155	city	3	1	0.695184	0.695184	0	1	0	0	CorrectCommission	0.552000	0.784743	0	1
410.904358	0.792484	city	7	1	0.702294	0.702294	0	1	0	0	CorrectCommission	0.498941	0.837726	0	1
411.696625	0.792048	city	4	1	0.758801	0.758801	0	1	0	0	CorrectCommission	0.077209	0.894677	0	1
412.488770	0.792264	mountain	7	0	0.000000	1.029934	1	0	0	0	CorrectOmission	1.946325	0.952845	0	1
413.281097	0.792374	city	2	1	1.197356	1.197356	0	1	0	0	CorrectCommission	3.195840	1.009683	0	1
414.073395	0.792264	city	4	1	0.942732	0.942732	0	1	0	0	CorrectCommission	1.295510	1.063032	0	1
414.865631	0.792158	city	5	1	0.843724	0.843724	0	1	0	0	CorrectCommission	0.556589	1.111220	0	1
415.657837	0.792262	city	4	1	0.794292	0.794292	0	1	0	0	CorrectCommission	0.187665	1.152883	0	1
416.450104	0.792271	city	1	1	0.698117	0.698117	0	1	0	0	CorrectCommission	0.530114	1.186857	0	1
417.242371	0.792280	mountain	8	0	0.000000	0.886565	1	0	0	0	CorrectOmission	0.876323	1.212064	0	1
418.034637	0.792275	city	7	1	1.091383	1.091383	0	1	0	0	CorrectCommission	2.404935	1.227446	0	1
418.826904	0.792237	city	8	1	1.044319	1.044319	0	1	0	0	CorrectCommission	2.053685	1.231994	0	1
419.619141	0.792262	city	4	0	0.000000	0.752373	0	0	0	1	OmissionError	0.125188	1.224892	0	1
420.411407	0.792268	city	10	1	0.447717	0.447717	0	1	0	0	CorrectCommission	2.398915	1.205693	0	1
421.203705	0.792293	mountain	2	1	0.362524	0.362524	0	0	1	0	CommissionError	3.034729	1.174346	0	1
421.995972	0.792236	city	7	1	0.696239	0.696239	0	1	0	0	CorrectCommission	0.544130	1.131384	0	1
422.788330	0.792480	city	2	1	0.751654	0.751654	0	1	0	0	CorrectCommission	0.130550	1.077957	0	1
423.580597	0.792049	city	4	1	0.910330	0.910330	0	1	0	0	CorrectCommission	1.053691	1.015666	0	1
424.372803	0.792371	city	3	1	0.854811	0.854811	0	1	0	0	CorrectCommission	0.639337	0.946503	0	0
425.165100	0.792266	city	2	1	0.943173	0.943173	0	1	0	0	CorrectCommission	1.298806	0.872782	0	0
425.957336	0.792154	city	7	1	0.942869	0.942869	0	1	0	0	CorrectCommission	1.296538	0.796972	0	0
426.749573	0.792373	city	10	1	0.893951	0.893951	0	1	0	0	CorrectCommission	0.931446	0.721648	0	0
427.541840	0.792157	city	5	1	0.843992	0.843992	0	1	0	0	CorrectCommission	0.558589	0.649351	0	0
428.334167	0.792482	city	9	1	0.794307	0.794307	0	1	0	0	CorrectCommission	0.187782	0.582471	1	0
429.126465	0.792084	city	1	1	0.744580	0.744580	0	1	0	0	CorrectCommission	0.183348	0.523140	1	0
429.918610	0.792234	city	5	1	0.745055	0.745055	0	1	0	0	CorrectCommission	0.179801	0.473049	1	0
430.710907	0.792367	city	4	1	0.794310	0.794310	0	1	0	0	CorrectCommission	0.187803	0.433341	1	0
431.503174	0.792156	city	8	1	0.794212	0.794212	0	1	0	0	CorrectCommission	0.187067	0.404588	1	0
432.295441	0.792373	city	2	1	0.794619	0.794619	0	1	0	0	CorrectCommission	0.190106	0.386725	1	0
433.087799	0.792374	city	1	1	0.744651	0.744651	0	1	0	0	CorrectCommission	0.182814	0.379069	1	0
433.880066	0.792156	city	8	1	0.794194	0.794194	0	1	0	0	CorrectCommission	0.186933	0.380412	1	0
434.672241	0.792158	city	4	1	0.711209	0.711209	0	1	0	0	CorrectCommission	0.432407	0.389184	1	0
435.464447	0.792262	city	7	1	0.695395	0.695395	0	1	0	0	CorrectCommission	0.550430	0.403567	1	0
436.256805	0.792485	city	4	1	0.744842	0.744842	0	1	0	0	CorrectCommission	0.181394	0.421713	1	0
437.049103	0.792062	city	9	1	0.709239	0.709239	0	1	0	0	CorrectCommission	0.447107	0.441942	1	0
437.841248	0.792252	mountain	9	1	0.645744	0.645744	0	0	1	0	CommissionError	0.920986	0.462805	1	0
438.633514	0.792262	city	8	1	0.746707	0.746707	0	1	0	0	CorrectCommission	0.167473	0.483166	1	0
439.425781	0.792266	mountain	9	0	0.000000	0.686596	1	0	0	0	CorrectOmission	0.616095	0.502311	1	0
440.218048	0.792291	city	1	1	0.645745	0.645745	0	1	0	0	CorrectCommission	0.920975	0.519859	1	0
441.010406	0.792454	mountain	4	0	0.000000	0.804488	1	0	0	0	CorrectOmission	0.263764	0.535681	1	0
441.802673	0.792049	city	4	1	0.908886	0.908886	0	1	0	0	CorrectCommission	1.042911	0.549802	1	0
442.594818	0.792264	city	6	1	0.705000	0.705000	0	1	0	0	CorrectCommission	0.478743	0.562248	1	0
443.387146	0.792371	city	5	1	0.794302	0.794302	0	1	0	0	CorrectCommission	0.187741	0.573003	1	0
444.179413	0.792162	city	1	1	0.807873	0.807873	0	1	0	0	CorrectCommission	0.289026	0.581946	1	0
444.971619	0.792263	city	6	1	0.803726	0.803726	0	1	0	0	CorrectCommission	0.258076	0.588892	1	0
445.763885	0.792265	city	5	1	0.815007	0.815007	0	1	0	0	CorrectCommission	0.342265	0.593678	1	0
446.556152	0.792267	city	7	1	0.954366	0.954366	0	1	0	0	CorrectCommission	1.382340	0.596303	1	0
447.348450	0.792318	city	4	1	0.992993	0.992993	0	1	0	0	CorrectCommission	1.670619	0.597048	1	0
448.140808	0.792423	city	2	1	0.858280	0.858280	0	1	0	0	CorrectCommission	0.665224	0.596587	1	0
448.933044	0.792051	city	9	1	0.794114	0.794114	0	1	0	0	CorrectCommission	0.186337	0.596036	1	0
449.725220	0.792262	city	10	1	0.667024	0.667024	0	1	0	0	CorrectCommission	0.762165	0.596791	1	0
450.517517	0.792372	city	7	1	0.754213	0.754213	0	1	0	0	CorrectCommission	0.111450	0.600393	1	0
451.309906	0.792374	city	9	1	0.744890	0.744890	0	1	0	0	CorrectCommission	0.181033	0.608306	0	0
452.102112	0.792048	city	1	1	0.794067	0.794067	0	1	0	0	CorrectCommission	0.185986	0.621687	0	0
452.894257	0.792268	city	4	1	0.893478	0.893478	0	1	0	0	CorrectCommission	0.927921	0.641214	0	0
453.686584	0.792348	city	2	1	0.809202	0.809202	0	1	0	0	CorrectCommission	0.298942	0.667020	0	0
454.478882	0.792286	city	5	1	0.760766	0.760766	0	1	0	0	CorrectCommission	0.062544	0.698729	0	0
455.271118	0.792166	mountain	8	0	0.000000	0.934530	1	0	0	0	CorrectOmission	1.234298	0.735493	0	0
456.063354	0.792315	city	6	1	1.041894	1.041894	0	1	0	0	CorrectCommission	2.035584	0.776107	0	0
456.855743	0.792424	city	7	1	0.794260	0.794260	0	1	0	0	CorrectCommission	0.187428	0.819128	0	0
457.647980	0.792049	mountain	3	0	0.000000	0.702849	1	0	0	0	CorrectOmission	0.494797	0.863043	0	0
458.440125	0.792274	mountain	4	0	0.000000	0.735241	1	0	0	0	CorrectOmission	0.253048	0.906258	0	0
459.232452	0.792361	city	5	1	0.859016	0.859016	0	1	0	0	CorrectCommission	0.670720	0.947204	0	0
460.024719	0.792158	city	3	1	1.041755	1.041755	0	1	0	0	CorrectCommission	2.034549	0.984396	0	0
460.816925	0.792264	city	6	1	0.992498	0.992498	0	1	0	0	CorrectCommission	1.666928	1.016474	0	0
461.609222	0.792371	city	10	1	0.942809	0.942809	0	1	0	0	CorrectCommission	1.296086	1.042318	0	0
462.401489	0.792159	city	6	1	0.893432	0.893432	0	1	0	0	CorrectCommission	0.927573	1.061070	0	0
463.193726	0.792272	city	7	1	0.798316	0.798316	0	1	0	0	CorrectCommission	0.217697	1.072250	0	0
463.986023	0.792363	city	4	1	0.942843	0.942843	0	1	0	0	CorrectCommission	1.296343	1.075847	0	0
464.778290	0.792160	city	3	1	0.843960	0.843960	0	1	0	0	CorrectCommission	0.558354	1.072366	0	0
465.570496	0.792263	city	4	1	1.091380	1.091380	0	1	0	0	CorrectCommission	2.404913	1.063048	0	0
466.362823	0.792372	city	3	1	0.992431	0.992431	0	1	0	0	CorrectCommission	1.666425	1.049812	0	0
467.155090	0.792160	city	2	1	0.999625	0.999625	0	1	0	0	CorrectCommission	1.720117	1.035301	0	0
467.947296	0.792261	city	1	1	0.844142	0.844142	0	1	0	0	CorrectCommission	0.559708	1.022649	0	0
468.739532	0.792215	city	3	1	0.797726	0.797726	0	1	0	0	CorrectCommission	0.213295	1.015207	0	0
469.531799	0.792313	city	10	1	0.695317	0.695317	0	1	0	0	CorrectCommission	0.551009	1.016117	0	0
470.324127	0.792309	city	3	1	0.695268	0.695268	0	1	0	0	CorrectCommission	0.551375	1.027845	0	0
471.116425	0.792332	city	6	1	0.663397	0.663397	0	1	0	0	CorrectCommission	0.789233	1.051784	0	0
471.908691	0.792156	city	3	1	0.695770	0.695770	0	1	0	0	CorrectCommission	0.547631	1.087920	0	0
472.700897	0.792262	city	9	1	0.562683	0.562683	0	1	0	0	CorrectCommission	1.540890	1.134659	0	0
473.493195	0.792375	city	7	1	0.645780	0.645780	0	1	0	0	CorrectCommission	0.920715	1.188815	0	0
474.285522	0.792265	mountain	9	0	0.000000	0.672021	1	0	0	0	CorrectOmission	0.724870	1.245957	0	0
475.077759	0.792189	city	4	1	0.653152	0.653152	0	1	0	0	CorrectCommission	0.865696	1.300746	0	0
475.870087	0.792476	city	3	1	0.600918	0.600918	0	1	0	0	CorrectCommission	1.255535	1.347527	0	0
476.662445	0.792238	city	7	1	1.048488	1.048488	0	1	0	0	CorrectCommission	2.084799	1.380987	0	0
477.454590	0.792046	city	1	1	1.041812	1.041812	0	1	0	0	CorrectCommission	2.034968	1.396816	0	0
478.246735	0.792266	city	4	1	1.190489	1.190489	0	1	0	0	CorrectCommission	3.144588	1.392279	0	0
479.039001	0.792268	city	2	1	1.208876	1.208876	0	1	0	0	CorrectCommission	3.281816	1.366502	0	0
479.831390	0.792477	city	6	0	0.000000	0.934003	0	0	0	1	OmissionError	1.230364	1.320520	0	0
480.623688	0.792158	city	5	1	0.663783	0.663783	0	1	0	0	CorrectCommission	0.786359	1.257097	0	0
481.415894	0.792211	city	2	1	0.696129	0.696129	0	1	0	0	CorrectCommission	0.544946	1.180118	0	0
482.208099	0.792210	city	3	1	0.596157	0.596157	0	1	0	0	CorrectCommission	1.291068	1.094000	0	0
483.000336	0.792289	city	2	1	0.695278	0.695278	0	1	0	0	CorrectCommission	0.551299	1.002966	0	0
483.792603	0.792242	city	3	1	0.751675	0.751675	0	1	0	0	CorrectCommission	0.130393	0.910564	0	0
484.584900	0.792321	city	2	1	0.844169	0.844169	0	1	0	0	CorrectCommission	0.559908	0.819224	0	0
485.377167	0.792254	city	5	1	0.942992	0.942992	0	1	0	0	CorrectCommission	1.297451	0.730123	0	0
486.169403	0.792216	city	9	1	0.904501	0.904501	0	1	0	0	CorrectCommission	1.010183	0.643254	0	0
486.961670	0.792288	city	2	1	0.843878	0.843878	0	1	0	0	CorrectCommission	0.557743	0.557743	1	0
