onset	duration	trial_type	image_type	Press	ReactionTime	ReactionTime_Interpolated	CorrectOmission	CorrectCommission	CommissionError	OmissionError	response_type	nonsmoothVarianceTimeCourse	VarianceTimeCourse	In_the_Zone	Reward_trial
8.417305	0.792293	city	5	1	1.151261	1.151261	0	1	0	0	CorrectCommission	5.684821	5.684821	0	0
9.209571	0.792240	city	10	1	0.744807	0.744807	0	1	0	0	CorrectCommission	0.500109	4.922779	0	0
10.001842	0.792302	city	5	1	0.753838	0.753838	0	1	0	0	CorrectCommission	0.615306	4.186317	0	0
10.794107	0.792229	city	9	1	0.713099	0.713099	0	1	0	0	CorrectCommission	0.095640	3.498315	0	0
11.586406	0.792368	city	8	1	0.761078	0.761078	0	1	0	0	CorrectCommission	0.707664	2.876945	0	0
12.378670	0.792161	city	5	1	0.701012	0.701012	0	1	0	0	CorrectCommission	0.058538	2.334242	0	0
13.170991	0.792480	city	2	1	0.794374	0.794374	0	1	0	0	CorrectCommission	1.132387	1.875774	0	0
13.963307	0.792153	city	8	1	0.794176	0.794176	0	1	0	0	CorrectCommission	1.129861	1.501073	0	0
14.755495	0.792223	city	7	1	0.748483	0.748483	0	1	0	0	CorrectCommission	0.547001	1.204839	0	0
15.547707	0.792199	city	9	1	0.662926	0.662926	0	1	0	0	CorrectCommission	0.544363	0.978507	0	0
16.339993	0.792372	city	1	1	0.645745	0.645745	0	1	0	0	CorrectCommission	0.763522	0.811852	0	0
17.132364	0.792375	city	6	1	0.747697	0.747697	0	1	0	0	CorrectCommission	0.536968	0.694417	1	0
17.924576	0.792047	city	8	1	0.744718	0.744718	0	1	0	0	CorrectCommission	0.498978	0.616541	1	0
18.716772	0.792345	city	5	1	0.695476	0.695476	0	1	0	0	CorrectCommission	0.129154	0.569923	1	0
19.509092	0.792293	city	1	1	0.744677	0.744677	0	1	0	0	CorrectCommission	0.498454	0.547808	1	0
20.301317	0.792157	city	6	1	0.711169	0.711169	0	1	0	0	CorrectCommission	0.071020	0.544813	1	0
21.093529	0.792267	city	4	1	0.698560	0.698560	0	1	0	0	CorrectCommission	0.089822	0.556605	1	0
21.885796	0.792267	mountain	9	0	0.000000	0.677164	1	0	0	0	CorrectOmission	0.362741	0.579471	1	0
22.678062	0.792265	city	3	1	0.668796	0.668796	0	1	0	0	CorrectCommission	0.469486	0.610013	1	0
23.470324	0.792260	city	10	1	0.695268	0.695268	0	1	0	0	CorrectCommission	0.131808	0.644956	1	0
24.262587	0.792264	city	6	1	0.801817	0.801817	0	1	0	0	CorrectCommission	1.227328	0.681142	1	0
25.054852	0.792268	city	2	1	0.798707	0.798707	0	1	0	0	CorrectCommission	1.187655	0.715554	1	0
25.847116	0.792261	city	1	1	0.798786	0.798786	0	1	0	0	CorrectCommission	1.188667	0.745609	1	0
26.639488	0.792485	city	2	1	0.794317	0.794317	0	1	0	0	CorrectCommission	1.131651	0.769345	0	0
27.431767	0.792069	city	1	1	0.704946	0.704946	0	1	0	0	CorrectCommission	0.008355	0.785482	0	0
28.223921	0.792240	city	3	1	0.794241	0.794241	0	1	0	0	CorrectCommission	1.130689	0.793535	0	0
29.016228	0.792374	city	6	1	0.893412	0.893412	0	1	0	0	CorrectCommission	2.395716	0.793719	0	0
29.808495	0.792159	city	3	1	0.672262	0.672262	0	1	0	0	CorrectCommission	0.425275	0.786907	0	0
30.600706	0.792266	city	5	1	0.706637	0.706637	0	1	0	0	CorrectCommission	0.013208	0.774501	0	0
31.392969	0.792260	city	10	1	0.695249	0.695249	0	1	0	0	CorrectCommission	0.132054	0.758169	1	0
32.185238	0.792276	city	4	1	0.794778	0.794778	0	1	0	0	CorrectCommission	1.137540	0.739724	1	0
32.977501	0.792254	city	3	1	0.798170	0.798170	0	1	0	0	CorrectCommission	1.180805	0.720952	1	0
33.769775	0.792295	city	1	1	0.744918	0.744918	0	1	0	0	CorrectCommission	0.501521	0.703522	1	0
34.562042	0.792238	city	9	1	0.645720	0.645720	0	1	0	0	CorrectCommission	0.763847	0.688906	1	0
35.354294	0.792261	city	6	1	0.645898	0.645898	0	1	0	0	CorrectCommission	0.761575	0.678233	1	0
36.146557	0.792265	city	5	1	0.657268	0.657268	0	1	0	0	CorrectCommission	0.616542	0.672225	1	0
36.938831	0.792288	city	6	1	0.754304	0.754304	0	1	0	0	CorrectCommission	0.621252	0.671109	1	0
37.731098	0.792241	city	3	1	0.695224	0.695224	0	1	0	0	CorrectCommission	0.132378	0.674557	1	0
38.523350	0.792267	city	5	1	0.695320	0.695320	0	1	0	0	CorrectCommission	0.131145	0.681674	1	0
39.315628	0.792288	city	4	1	0.744831	0.744831	0	1	0	0	CorrectCommission	0.500411	0.691071	1	0
40.107895	0.792245	city	8	1	0.744888	0.744888	0	1	0	0	CorrectCommission	0.501136	0.701027	1	0
40.900154	0.792273	city	3	1	0.648975	0.648975	0	1	0	0	CorrectCommission	0.722324	0.709776	1	0
41.692471	0.792359	city	5	1	0.843798	0.843798	0	1	0	0	CorrectCommission	1.762840	0.715745	1	0
42.484783	0.792264	city	8	1	0.843806	0.843806	0	1	0	0	CorrectCommission	1.762931	0.717806	1	0
43.276993	0.792159	city	2	1	0.750298	0.750298	0	1	0	0	CorrectCommission	0.570157	0.715492	1	0
44.069206	0.792264	city	1	1	0.662313	0.662313	0	1	0	0	CorrectCommission	0.552185	0.709005	1	0
44.861500	0.792322	city	10	1	0.647594	0.647594	0	1	0	0	CorrectCommission	0.739933	0.699122	1	0
45.653770	0.792220	city	3	1	0.662320	0.662320	0	1	0	0	CorrectCommission	0.552093	0.686980	1	0
46.446007	0.792251	city	4	1	0.695261	0.695261	0	1	0	0	CorrectCommission	0.131900	0.673814	1	0
47.238266	0.792266	city	2	1	0.744773	0.744773	0	1	0	0	CorrectCommission	0.499677	0.660745	1	0
48.030529	0.792260	city	10	1	0.750677	0.750677	0	1	0	0	CorrectCommission	0.574991	0.648552	1	0
48.822807	0.792300	city	7	1	0.748506	0.748506	0	1	0	0	CorrectCommission	0.547293	0.637589	1	0
49.615074	0.792230	city	4	1	0.794245	0.794245	0	1	0	0	CorrectCommission	1.130739	0.627760	1	0
50.407429	0.792483	city	1	1	0.652039	0.652039	0	1	0	0	CorrectCommission	0.683236	0.618620	1	0
51.199730	0.792119	city	5	1	0.708707	0.708707	0	1	0	0	CorrectCommission	0.039617	0.609566	1	0
51.991886	0.792191	city	7	1	0.762996	0.762996	0	1	0	0	CorrectCommission	0.732123	0.599982	1	0
52.784225	0.792485	city	4	1	0.794300	0.794300	0	1	0	0	CorrectCommission	1.131436	0.589356	1	0
53.576492	0.792048	city	9	1	0.744570	0.744570	0	1	0	0	CorrectCommission	0.497082	0.577479	1	0
54.368698	0.792369	city	7	1	0.762512	0.762512	0	1	0	0	CorrectCommission	0.725956	0.564506	1	0
55.161018	0.792267	city	3	1	0.744677	0.744677	0	1	0	0	CorrectCommission	0.498454	0.550966	1	0
55.953243	0.792184	city	10	1	0.747729	0.747729	0	1	0	0	CorrectCommission	0.537386	0.537736	1	0
56.745453	0.792240	city	2	1	0.750496	0.750496	0	1	0	0	CorrectCommission	0.572670	0.525921	1	0
57.537758	0.792370	city	9	1	0.700006	0.700006	0	1	0	0	CorrectCommission	0.071370	0.516761	1	0
58.330025	0.792157	mountain	8	1	0.649660	0.649660	0	0	1	0	CommissionError	0.713580	0.511496	1	0
59.122288	0.792370	mountain	7	1	0.695239	0.695239	0	0	1	0	CommissionError	0.132185	0.511201	1	0
59.914551	0.792160	mountain	1	0	0.000000	0.680465	1	0	0	0	CorrectOmission	0.320642	0.516717	1	0
60.706764	0.792266	city	10	1	0.649909	0.649909	0	1	0	0	CorrectCommission	0.710415	0.528515	1	0
61.499081	0.792369	city	8	1	0.648141	0.648141	0	1	0	0	CorrectCommission	0.732966	0.546645	1	0
62.291348	0.792158	city	2	1	0.695134	0.695134	0	1	0	0	CorrectCommission	0.133519	0.570663	1	0
63.083611	0.792372	city	1	1	0.744941	0.744941	0	1	0	0	CorrectCommission	0.501813	0.599663	1	0
63.875874	0.792154	city	5	1	0.748411	0.748411	0	1	0	0	CorrectCommission	0.546074	0.632244	1	0
64.668091	0.792275	city	6	1	0.711631	0.711631	0	1	0	0	CorrectCommission	0.076916	0.666672	1	0
65.460365	0.792282	city	4	1	0.747486	0.747486	0	1	0	0	CorrectCommission	0.534285	0.700961	1	0
66.252632	0.792240	city	3	1	0.794274	0.794274	0	1	0	0	CorrectCommission	1.131110	0.733095	1	0
67.044907	0.792314	city	1	1	0.843948	0.843948	0	1	0	0	CorrectCommission	1.764752	0.761229	0	0
67.837280	0.792431	city	10	1	0.752701	0.752701	0	1	0	0	CorrectCommission	0.600804	0.783920	0	1
68.629623	0.792263	city	3	1	0.794431	0.794431	0	1	0	0	CorrectCommission	1.133111	0.800315	0	1
69.421783	0.792049	city	2	1	0.758911	0.758911	0	1	0	0	CorrectCommission	0.680021	0.810155	0	1
70.213989	0.792373	city	9	1	0.794426	0.794426	0	1	0	0	CorrectCommission	1.133040	0.813809	0	1
71.006271	0.792184	city	5	1	0.794243	0.794243	0	1	0	0	CorrectCommission	1.130716	0.812151	0	1
71.798485	0.792239	city	1	1	0.745863	0.745863	0	1	0	0	CorrectCommission	0.513573	0.806406	0	1
72.590736	0.792265	city	2	1	0.749681	0.749681	0	1	0	0	CorrectCommission	0.562279	0.797935	0	1
73.382996	0.792262	city	5	1	0.745200	0.745200	0	1	0	0	CorrectCommission	0.505118	0.788041	0	1
74.175316	0.792373	city	3	1	0.794311	0.794311	0	1	0	0	CorrectCommission	1.131576	0.777831	0	1
74.967583	0.792155	city	7	1	0.796939	0.796939	0	1	0	0	CorrectCommission	1.165102	0.768095	0	1
75.759903	0.792484	city	6	1	0.707468	0.707468	0	1	0	0	CorrectCommission	0.023812	0.759325	1	1
76.552162	0.792045	city	2	1	0.645705	0.645705	0	1	0	0	CorrectCommission	0.764034	0.751792	1	1
77.344337	0.792296	mountain	7	0	0.000000	0.718056	1	0	0	0	CorrectOmission	0.158874	0.745601	1	1
78.136711	0.792454	city	3	1	0.794423	0.794423	0	1	0	0	CorrectCommission	1.133007	0.740880	1	1
78.929016	0.792156	city	5	1	0.744707	0.744707	0	1	0	0	CorrectCommission	0.498838	0.737833	1	1
79.721169	0.792155	city	3	1	0.893297	0.893297	0	1	0	0	CorrectCommission	2.394245	0.736880	1	1
80.513382	0.792264	city	1	1	0.744894	0.744894	0	1	0	0	CorrectCommission	0.501221	0.738520	1	1
81.305756	0.792483	city	5	1	0.745264	0.745264	0	1	0	0	CorrectCommission	0.505943	0.743315	1	1
82.098045	0.792110	city	10	1	0.695033	0.695033	0	1	0	0	CorrectCommission	0.134814	0.751621	1	1
82.890236	0.792258	city	8	1	0.746853	0.746853	0	1	0	0	CorrectCommission	0.526206	0.763404	0	1
83.682465	0.792209	city	5	1	0.706265	0.706265	0	1	0	0	CorrectCommission	0.008464	0.778100	0	1
84.474701	0.792264	city	8	1	0.744780	0.744780	0	1	0	0	CorrectCommission	0.499760	0.794566	0	1
85.266968	0.792267	city	5	1	0.759935	0.759935	0	1	0	0	CorrectCommission	0.693077	0.811217	0	1
86.059288	0.792371	city	7	1	0.794286	0.794286	0	1	0	0	CorrectCommission	1.131255	0.826244	0	1
86.851570	0.792189	city	2	1	0.849544	0.849544	0	1	0	0	CorrectCommission	1.836126	0.837959	0	1
87.643890	0.792451	city	10	1	0.794293	0.794293	0	1	0	0	CorrectCommission	1.131348	0.845123	0	1
88.436134	0.792050	city	8	1	0.803263	0.803263	0	1	0	0	CorrectCommission	1.245775	0.847267	0	1
89.228294	0.792260	city	4	1	0.856319	0.856319	0	1	0	0	CorrectCommission	1.922552	0.844757	0	1
90.020554	0.792267	city	2	1	0.699573	0.699573	0	1	0	0	CorrectCommission	0.076900	0.838729	0	1
90.812820	0.792265	city	6	1	0.744816	0.744816	0	1	0	0	CorrectCommission	0.500223	0.830976	0	1
91.605087	0.792262	mountain	1	0	0.000000	0.706135	1	0	0	0	CorrectOmission	0.006811	0.823547	0	1
92.397362	0.792286	city	9	1	0.650405	0.650405	0	1	0	0	CorrectCommission	0.704080	0.818486	0	1
93.189629	0.792247	mountain	3	0	0.000000	0.644501	1	0	0	0	CorrectOmission	0.779391	0.817544	0	1
93.981880	0.792262	city	3	1	0.645744	0.645744	0	1	0	0	CorrectCommission	0.763544	0.821918	0	1
94.774147	0.792268	mountain	7	0	0.000000	0.611453	1	0	0	0	CorrectOmission	1.200958	0.832194	0	1
95.566521	0.792479	city	5	1	0.606303	0.606303	0	1	0	0	CorrectCommission	1.266648	0.848263	0	1
96.358833	0.792155	city	3	1	0.694969	0.694969	0	1	0	0	CorrectCommission	0.135627	0.869412	0	1
97.151047	0.792264	city	7	1	0.662097	0.662097	0	1	0	0	CorrectCommission	0.554938	0.894369	0	1
97.943291	0.792229	city	2	1	0.699716	0.699716	0	1	0	0	CorrectCommission	0.075076	0.921455	0	1
98.735558	0.792304	city	9	1	0.843760	0.843760	0	1	0	0	CorrectCommission	1.762346	0.948730	0	1
99.527786	0.792153	city	6	1	0.794164	0.794164	0	1	0	0	CorrectCommission	1.129710	0.974104	0	1
100.320000	0.792271	city	2	1	0.843801	0.843801	0	1	0	0	CorrectCommission	1.762870	0.995563	0	1
101.112267	0.792264	mountain	9	0	0.000000	0.802518	1	0	0	0	CorrectOmission	1.236270	1.011259	0	1
101.904526	0.792262	city	6	1	0.744739	0.744739	0	1	0	0	CorrectCommission	0.499242	1.019656	0	1
102.696793	0.792263	city	8	1	0.744886	0.744886	0	1	0	0	CorrectCommission	0.501117	1.019641	0	1
103.489052	0.792263	city	3	1	0.844164	0.844164	0	1	0	0	CorrectCommission	1.767497	1.010563	0	1
104.281319	0.792267	city	9	1	0.844003	0.844003	0	1	0	0	CorrectCommission	1.765452	0.992321	0	1
105.073692	0.792482	city	10	1	0.763664	0.763664	0	1	0	0	CorrectCommission	0.740649	0.965484	0	1
105.866013	0.792154	city	8	1	0.761325	0.761325	0	1	0	0	CorrectCommission	0.710816	0.931325	0	1
106.658165	0.792155	city	4	1	0.794161	0.794161	0	1	0	0	CorrectCommission	1.129672	0.891747	0	1
107.450378	0.792265	city	2	1	0.794406	0.794406	0	1	0	0	CorrectCommission	1.132792	0.849255	0	1
108.242645	0.792267	city	7	1	0.845756	0.845756	0	1	0	0	CorrectCommission	1.787817	0.806788	0	1
109.034966	0.792372	city	3	1	0.704370	0.704370	0	1	0	0	CorrectCommission	0.015704	0.767432	0	1
109.827286	0.792265	city	1	1	0.695136	0.695136	0	1	0	0	CorrectCommission	0.133493	0.734142	1	1
110.619492	0.792158	city	10	1	0.744726	0.744726	0	1	0	0	CorrectCommission	0.499073	0.709336	1	1
111.411736	0.792326	city	3	1	0.748253	0.748253	0	1	0	0	CorrectCommission	0.544067	0.694595	1	1
112.204002	0.792202	city	1	1	0.704200	0.704200	0	1	0	0	CorrectCommission	0.017869	0.690415	1	1
112.996231	0.792268	city	7	1	0.747879	0.747879	0	1	0	0	CorrectCommission	0.539290	0.696125	1	1
113.788582	0.792424	city	5	1	0.695257	0.695257	0	1	0	0	CorrectCommission	0.131955	0.709923	1	1
114.580841	0.792106	mountain	6	0	0.000000	0.670001	1	0	0	0	CorrectOmission	0.454119	0.729100	1	1
115.373047	0.792299	city	6	1	0.645770	0.645770	0	1	0	0	CorrectCommission	0.763206	0.750401	1	1
116.165306	0.792215	city	9	1	0.596223	0.596223	0	1	0	0	CorrectCommission	1.395224	0.770458	0	1
116.957603	0.792384	city	10	1	0.596419	0.596419	0	1	0	0	CorrectCommission	1.392724	0.786305	0	1
117.749893	0.792200	city	4	1	0.548969	0.548969	0	1	0	0	CorrectCommission	1.997996	0.795715	0	1
118.542107	0.792227	city	8	1	0.661482	0.661482	0	1	0	0	CorrectCommission	0.562779	0.797458	0	1
119.334358	0.792263	city	5	1	0.645712	0.645712	0	1	0	0	CorrectCommission	0.763947	0.791511	0	1
120.126648	0.792331	city	2	1	0.744811	0.744811	0	1	0	0	CorrectCommission	0.500162	0.778843	0	1
120.919022	0.792412	mountain	8	0	0.000000	0.779208	1	0	0	0	CorrectOmission	0.938925	0.761294	0	1
121.711250	0.792050	mountain	5	0	0.000000	0.759253	1	0	0	0	CorrectOmission	0.684379	0.741262	1	1
122.503410	0.792266	city	6	1	0.695297	0.695297	0	1	0	0	CorrectCommission	0.131436	0.721415	1	1
123.295784	0.792479	city	10	1	0.597692	0.597692	0	1	0	0	CorrectCommission	1.376484	0.704350	1	1
124.088081	0.792112	city	5	1	0.649746	0.649746	0	1	0	0	CorrectCommission	0.712493	0.692248	1	1
124.880234	0.792201	city	1	1	0.703895	0.703895	0	1	0	0	CorrectCommission	0.021771	0.686735	1	1
125.672523	0.792373	city	9	1	0.668765	0.668765	0	1	0	0	CorrectCommission	0.469885	0.688670	1	1
126.464790	0.792157	city	3	1	0.660003	0.660003	0	1	0	0	CorrectCommission	0.581648	0.698070	1	1
127.256996	0.792266	city	8	1	0.702821	0.702821	0	1	0	0	CorrectCommission	0.035468	0.714155	1	0
128.049271	0.792263	city	7	1	0.762884	0.762884	0	1	0	0	CorrectCommission	0.730696	0.735501	1	0
128.841629	0.792482	city	6	1	0.811215	0.811215	0	1	0	0	CorrectCommission	1.347206	0.760209	1	0
129.634003	0.792266	mountain	9	0	0.000000	0.768760	1	0	0	0	CorrectOmission	0.805656	0.786250	0	0
130.426163	0.792048	city	3	1	0.695069	0.695069	0	1	0	0	CorrectCommission	0.134355	0.811788	0	0
131.218323	0.792263	city	10	1	0.649688	0.649688	0	1	0	0	CorrectCommission	0.713224	0.835469	0	0
132.010590	0.792265	city	2	1	0.893488	0.893488	0	1	0	0	CorrectCommission	2.396685	0.856601	0	0
132.802856	0.792265	city	9	1	0.794887	0.794887	0	1	0	0	CorrectCommission	1.138926	0.875229	0	0
133.595154	0.792347	city	10	1	0.714104	0.714104	0	1	0	0	CorrectCommission	0.108458	0.892148	0	0
134.387527	0.792401	city	2	1	0.897394	0.897394	0	1	0	0	CorrectCommission	2.446504	0.908608	0	0
135.179764	0.792054	city	3	1	0.695128	0.695128	0	1	0	0	CorrectCommission	0.133601	0.925869	0	0
135.971924	0.792276	city	7	1	0.662820	0.662820	0	1	0	0	CorrectCommission	0.545715	0.945000	0	0
136.764236	0.792355	mountain	6	0	0.000000	0.680260	1	0	0	0	CorrectOmission	0.323253	0.966318	0	0
137.556595	0.792373	city	1	1	0.695285	0.695285	0	1	0	0	CorrectCommission	0.131598	0.989219	0	0
138.348816	0.792049	city	2	1	0.655732	0.655732	0	1	0	0	CorrectCommission	0.636133	1.012141	0	0
139.140976	0.792267	city	5	1	0.757759	0.757759	0	1	0	0	CorrectCommission	0.665322	1.032776	0	0
139.933273	0.792331	city	1	1	0.847343	0.847343	0	1	0	0	CorrectCommission	1.808059	1.048515	0	0
140.725647	0.792414	city	7	1	0.902646	0.902646	0	1	0	0	CorrectCommission	2.513493	1.056945	0	0
141.517883	0.792072	city	9	1	0.849900	0.849900	0	1	0	0	CorrectCommission	1.840674	1.056430	0	0
142.310150	0.792455	city	1	1	0.796691	0.796691	0	1	0	0	CorrectCommission	1.161939	1.046543	0	0
143.102402	0.792048	city	3	1	0.843669	0.843669	0	1	0	0	CorrectCommission	1.761192	1.028182	0	0
143.894669	0.792481	city	4	1	0.764408	0.764408	0	1	0	0	CorrectCommission	0.750139	1.003470	0	0
144.687057	0.792320	city	5	1	0.744699	0.744699	0	1	0	0	CorrectCommission	0.498736	0.975458	0	0
145.479218	0.791996	city	3	1	0.752599	0.752599	0	1	0	0	CorrectCommission	0.599500	0.947532	0	0
146.271347	0.792259	city	8	1	0.645979	0.645979	0	1	0	0	CorrectCommission	0.760544	0.922829	0	0
147.063614	0.792267	city	7	1	0.645662	0.645662	0	1	0	0	CorrectCommission	0.764589	0.903669	0	0
147.855942	0.792374	city	5	1	0.695267	0.695267	0	1	0	0	CorrectCommission	0.131826	0.891182	0	0
148.648193	0.792156	city	10	1	0.751531	0.751531	0	1	0	0	CorrectCommission	0.585878	0.885076	0	0
149.440414	0.792266	city	9	1	0.744805	0.744805	0	1	0	0	CorrectCommission	0.500086	0.883683	0	0
150.232712	0.792333	mountain	10	0	0.000000	0.677606	1	0	0	0	CorrectOmission	0.357113	0.884319	0	0
151.024979	0.792196	city	7	1	0.596180	0.596180	0	1	0	0	CorrectCommission	1.395773	0.883761	0	0
151.817230	0.792332	city	6	1	0.546778	0.546778	0	1	0	0	CorrectCommission	2.025948	0.878775	0	0
152.609497	0.792197	city	8	1	0.596171	0.596171	0	1	0	0	CorrectCommission	1.395887	0.866750	0	0
153.401733	0.792263	city	6	1	0.604156	0.604156	0	1	0	0	CorrectCommission	1.294038	0.846129	0	0
154.194000	0.792268	city	3	1	0.604277	0.604277	0	1	0	0	CorrectCommission	1.292493	0.816644	0	0
154.986282	0.792309	city	5	1	0.744828	0.744828	0	1	0	0	CorrectCommission	0.500373	0.779331	0	0
155.778549	0.792216	city	10	1	0.761019	0.761019	0	1	0	0	CorrectCommission	0.706908	0.736345	1	0
156.570831	0.792335	city	6	1	0.744812	0.744812	0	1	0	0	CorrectCommission	0.500166	0.690569	1	0
157.363098	0.792200	city	10	1	0.648148	0.648148	0	1	0	0	CorrectCommission	0.732871	0.645165	1	0
158.155426	0.792477	city	3	1	0.695336	0.695336	0	1	0	0	CorrectCommission	0.130945	0.603109	1	0
158.947693	0.792047	city	7	1	0.744702	0.744702	0	1	0	0	CorrectCommission	0.498766	0.566833	1	0
159.739868	0.792311	city	8	1	0.704963	0.704963	0	1	0	0	CorrectCommission	0.008147	0.537933	1	0
160.532135	0.792221	city	7	1	0.710943	0.710943	0	1	0	0	CorrectCommission	0.068144	0.517088	1	0
161.324387	0.792264	city	9	1	0.744908	0.744908	0	1	0	0	CorrectCommission	0.501400	0.504108	1	0
162.116760	0.792481	city	4	1	0.711127	0.711127	0	1	0	0	CorrectCommission	0.070490	0.498139	1	0
162.909012	0.792046	city	5	1	0.799990	0.799990	0	1	0	0	CorrectCommission	1.204018	0.497939	1	0
163.701172	0.792266	city	8	1	0.695440	0.695440	0	1	0	0	CorrectCommission	0.129623	0.502176	1	0
164.493439	0.792264	city	4	1	0.614646	0.614646	0	1	0	0	CorrectCommission	1.160218	0.509787	1	0
165.285706	0.792268	city	10	1	0.645797	0.645797	0	1	0	0	CorrectCommission	0.762859	0.520102	1	0
166.077972	0.792262	city	2	1	0.701819	0.701819	0	1	0	0	CorrectCommission	0.048246	0.532981	1	0
166.870285	0.792372	city	9	1	0.794282	0.794282	0	1	0	0	CorrectCommission	1.131206	0.548764	1	0
167.662552	0.792158	city	5	1	0.701918	0.701918	0	1	0	0	CorrectCommission	0.046985	0.568071	1	0
168.454803	0.792350	city	10	1	0.695421	0.695421	0	1	0	0	CorrectCommission	0.129862	0.591647	1	0
169.247070	0.792178	city	2	1	0.744986	0.744986	0	1	0	0	CorrectCommission	0.502397	0.620073	1	0
170.039291	0.792266	city	1	1	0.745398	0.745398	0	1	0	0	CorrectCommission	0.507641	0.653595	1	0
170.831558	0.792267	city	5	1	0.653659	0.653659	0	1	0	0	CorrectCommission	0.662573	0.691964	1	0
171.623932	0.792479	city	1	1	0.646407	0.646407	0	1	0	0	CorrectCommission	0.755087	0.734382	1	0
172.416199	0.792048	mountain	8	0	0.000000	0.743109	1	0	0	0	CorrectOmission	0.478453	0.779572	0	0
173.208344	0.792262	city	3	1	0.794264	0.794264	0	1	0	0	CorrectCommission	1.130979	0.825858	0	0
174.000610	0.792267	city	1	1	0.650367	0.650367	0	1	0	0	CorrectCommission	0.704572	0.871383	0	0
174.792969	0.792455	city	4	1	0.645927	0.645927	0	1	0	0	CorrectCommission	0.761200	0.914354	0	0
175.585342	0.792291	city	3	1	0.599171	0.599171	0	1	0	0	CorrectCommission	1.357627	0.953306	0	0
176.377548	0.792114	city	8	1	0.611682	0.611682	0	1	0	0	CorrectCommission	1.198026	0.987249	0	0
177.169708	0.792197	city	4	1	0.553117	0.553117	0	1	0	0	CorrectCommission	1.945085	1.015874	0	0
177.961960	0.792298	city	6	1	0.651186	0.651186	0	1	0	0	CorrectCommission	0.694126	1.039515	0	0
178.754227	0.792238	city	5	1	0.645736	0.645736	0	1	0	0	CorrectCommission	0.763637	1.059114	0	0
179.546478	0.792262	city	7	1	0.608873	0.608873	0	1	0	0	CorrectCommission	1.233861	1.075974	0	0
180.338730	0.792262	city	3	1	0.601079	0.601079	0	1	0	0	CorrectCommission	1.333290	1.091447	0	0
181.130997	0.792266	city	8	1	0.616022	0.616022	0	1	0	0	CorrectCommission	1.142665	1.106644	0	0
181.923370	0.792482	city	10	1	0.597275	0.597275	0	1	0	0	CorrectCommission	1.381808	1.122062	0	0
182.715744	0.792262	mountain	9	0	0.000000	0.656091	1	0	0	0	CorrectOmission	0.631548	1.137348	0	0
183.507919	0.792083	city	4	1	0.704594	0.704594	0	1	0	0	CorrectCommission	0.012849	1.151222	0	0
184.300186	0.792447	city	7	1	0.654905	0.654905	0	1	0	0	CorrectCommission	0.646675	1.161534	0	0
185.092438	0.792051	city	9	1	0.596065	0.596065	0	1	0	0	CorrectCommission	1.397241	1.165550	0	0
185.884583	0.792260	city	1	1	0.596265	0.596265	0	1	0	0	CorrectCommission	1.394686	1.160498	0	0
186.676880	0.792328	city	3	1	0.547663	0.547663	0	1	0	0	CorrectCommission	2.014654	1.144125	0	1
187.469147	0.792204	mountain	6	1	0.453914	0.453914	0	0	1	0	CommissionError	3.210521	1.115230	0	1
188.261383	0.792267	city	8	1	0.596240	0.596240	0	1	0	0	CorrectCommission	1.395016	1.074090	0	1
189.053665	0.792306	city	1	1	0.599629	0.599629	0	1	0	0	CorrectCommission	1.351783	1.022698	0	1
189.845947	0.792245	city	10	1	0.695478	0.695478	0	1	0	0	CorrectCommission	0.129138	0.964553	0	1
190.638184	0.792240	city	7	1	0.806150	0.806150	0	1	0	0	CorrectCommission	1.282593	0.904320	0	1
191.430466	0.792330	city	3	1	0.697555	0.697555	0	1	0	0	CorrectCommission	0.102638	0.847156	0	1
192.222763	0.792255	city	5	1	0.649390	0.649390	0	1	0	0	CorrectCommission	0.717031	0.798075	0	1
193.014999	0.792206	city	8	1	0.697069	0.697069	0	1	0	0	CorrectCommission	0.108839	0.761158	1	1
193.807358	0.792512	city	7	1	0.695145	0.695145	0	1	0	0	CorrectCommission	0.133384	0.739083	1	1
194.599625	0.792020	city	8	1	0.710264	0.710264	0	1	0	0	CorrectCommission	0.059482	0.732670	1	1
195.391769	0.792267	city	7	1	0.695294	0.695294	0	1	0	0	CorrectCommission	0.131474	0.740867	1	1
196.184052	0.792302	city	4	1	0.747473	0.747473	0	1	0	0	CorrectCommission	0.534110	0.760894	1	1
196.976349	0.792293	city	6	1	0.659643	0.659643	0	1	0	0	CorrectCommission	0.586241	0.788657	0	1
197.768646	0.792306	city	9	1	0.596420	0.596420	0	1	0	0	CorrectCommission	1.392718	0.819365	0	1
198.560989	0.792373	city	3	1	0.596202	0.596202	0	1	0	0	CorrectCommission	1.395493	0.848166	0	1
199.353226	0.792122	city	5	1	0.563357	0.563357	0	1	0	0	CorrectCommission	1.814467	0.870815	0	1
200.145416	0.792254	city	1	1	0.702209	0.702209	0	1	0	0	CorrectCommission	0.043265	0.884156	0	1
200.937653	0.792224	city	3	1	0.850164	0.850164	0	1	0	0	CorrectCommission	1.844044	0.886476	0	1
201.729919	0.792301	city	9	1	0.553191	0.553191	0	1	0	0	CorrectCommission	1.944136	0.877500	0	1
202.522278	0.792424	city	2	1	0.645696	0.645696	0	1	0	0	CorrectCommission	0.764145	0.858318	0	1
203.314514	0.792051	city	6	1	0.650561	0.650561	0	1	0	0	CorrectCommission	0.702098	0.831066	0	1
204.106674	0.792261	city	1	1	0.645758	0.645758	0	1	0	0	CorrectCommission	0.763354	0.798466	0	1
204.899048	0.792483	city	2	1	0.695398	0.695398	0	1	0	0	CorrectCommission	0.130149	0.763362	0	1
205.691422	0.792264	city	10	1	0.657845	0.657845	0	1	0	0	CorrectCommission	0.609172	0.728405	1	1
206.483627	0.792155	city	9	1	0.745247	0.745247	0	1	0	0	CorrectCommission	0.505722	0.695693	1	1
207.275787	0.792162	mountain	6	0	0.000000	0.716617	1	0	0	0	CorrectOmission	0.140513	0.666700	1	1
208.067993	0.792259	city	1	1	0.705094	0.705094	0	1	0	0	CorrectCommission	0.006467	0.642264	1	1
208.860260	0.792270	city	6	1	0.843820	0.843820	0	1	0	0	CorrectCommission	1.763116	0.622751	1	1
209.652527	0.792261	city	9	1	0.654855	0.654855	0	1	0	0	CorrectCommission	0.647321	0.608178	1	1
210.444794	0.792265	mountain	3	0	0.000000	0.616793	1	0	0	0	CorrectOmission	1.132833	0.598488	1	1
211.237106	0.792373	city	8	1	0.655112	0.655112	0	1	0	0	CorrectCommission	0.644036	0.593561	1	1
212.029373	0.792158	city	7	1	0.695289	0.695289	0	1	0	0	CorrectCommission	0.131543	0.593260	1	1
212.821640	0.792370	city	6	1	0.695286	0.695286	0	1	0	0	CorrectCommission	0.131583	0.597388	1	1
213.613907	0.792165	city	5	1	0.704824	0.704824	0	1	0	0	CorrectCommission	0.009914	0.605548	1	1
214.406143	0.792320	city	7	1	0.746228	0.746228	0	1	0	0	CorrectCommission	0.518238	0.617109	1	1
215.198425	0.792228	city	3	1	0.652347	0.652347	0	1	0	0	CorrectCommission	0.679313	0.631177	1	1
215.990662	0.792254	city	10	1	0.702717	0.702717	0	1	0	0	CorrectCommission	0.036793	0.646706	1	1
216.782928	0.792264	city	1	1	0.843778	0.843778	0	1	0	0	CorrectCommission	1.762574	0.662615	1	1
217.575180	0.792253	mountain	9	0	0.000000	0.817104	1	0	0	0	CorrectOmission	1.422321	0.677962	1	1
218.367447	0.792262	city	1	1	0.744905	0.744905	0	1	0	0	CorrectCommission	0.501352	0.692105	1	1
219.159698	0.792270	city	4	1	0.749390	0.749390	0	1	0	0	CorrectCommission	0.558572	0.704766	1	1
219.951981	0.792267	city	10	1	0.695276	0.695276	0	1	0	0	CorrectCommission	0.131715	0.716025	1	1
220.744293	0.792365	city	1	1	0.794405	0.794405	0	1	0	0	CorrectCommission	1.132773	0.726232	1	1
221.536560	0.792164	city	6	1	0.794351	0.794351	0	1	0	0	CorrectCommission	1.132094	0.735817	1	1
222.328796	0.792322	city	2	1	0.745347	0.745347	0	1	0	0	CorrectCommission	0.506992	0.745153	1	1
223.121063	0.792202	city	7	1	0.744718	0.744718	0	1	0	0	CorrectCommission	0.498967	0.754386	1	1
223.913300	0.792263	city	2	1	0.744833	0.744833	0	1	0	0	CorrectCommission	0.500436	0.763280	0	1
224.705551	0.792266	city	10	1	0.745285	0.745285	0	1	0	0	CorrectCommission	0.506201	0.771220	0	1
225.497818	0.792264	city	3	1	0.753906	0.753906	0	1	0	0	CorrectCommission	0.616179	0.777280	0	1
226.290085	0.792264	city	4	1	0.794429	0.794429	0	1	0	0	CorrectCommission	1.133087	0.780343	0	1
227.082352	0.792265	city	9	1	0.761376	0.761376	0	1	0	0	CorrectCommission	0.711467	0.779374	0	1
227.874664	0.792372	city	8	1	0.853504	0.853504	0	1	0	0	CorrectCommission	1.886650	0.773635	0	1
228.667038	0.792373	city	2	1	0.794114	0.794114	0	1	0	0	CorrectCommission	1.129066	0.762805	0	1
229.459259	0.792049	city	7	1	0.762409	0.762409	0	1	0	0	CorrectCommission	0.724635	0.747189	1	1
230.251404	0.792262	city	1	1	0.663783	0.663783	0	1	0	0	CorrectCommission	0.533434	0.727645	1	1
231.043686	0.792303	city	7	1	0.751719	0.751719	0	1	0	0	CorrectCommission	0.588272	0.705530	1	1
231.835953	0.792229	city	3	1	0.712605	0.712605	0	1	0	0	CorrectCommission	0.089337	0.682533	1	1
232.628311	0.792482	mountain	4	0	0.000000	0.756198	1	0	0	0	CorrectOmission	0.645412	0.660513	1	1
233.420624	0.792154	city	7	1	0.795791	0.795791	0	1	0	0	CorrectCommission	1.150458	0.641307	1	1
234.212784	0.792167	city	4	1	0.744676	0.744676	0	1	0	0	CorrectCommission	0.498439	0.626528	1	1
235.005005	0.792257	city	1	1	0.663285	0.663285	0	1	0	0	CorrectCommission	0.539786	0.617483	1	1
235.797256	0.792263	city	4	1	0.695238	0.695238	0	1	0	0	CorrectCommission	0.132197	0.615038	1	1
236.589630	0.792483	city	9	1	0.753683	0.753683	0	1	0	0	CorrectCommission	0.613335	0.619515	1	1
237.381912	0.792059	city	7	1	0.709067	0.709067	0	1	0	0	CorrectCommission	0.044211	0.630644	1	1
238.174164	0.792471	city	10	1	0.605571	0.605571	0	1	0	0	CorrectCommission	1.275983	0.647543	1	1
238.966431	0.792050	city	5	1	0.744665	0.744665	0	1	0	0	CorrectCommission	0.498301	0.668697	1	1
239.758636	0.792371	city	6	1	0.749437	0.749437	0	1	0	0	CorrectCommission	0.559172	0.692128	1	1
240.551010	0.792380	city	4	1	0.695120	0.695120	0	1	0	0	CorrectCommission	0.133697	0.715495	1	1
241.343231	0.792043	city	7	1	0.695055	0.695055	0	1	0	0	CorrectCommission	0.134527	0.736327	1	1
242.135376	0.792261	mountain	8	0	0.000000	0.818083	1	0	0	0	CorrectOmission	1.434815	0.752295	1	1
242.927643	0.792269	city	2	1	0.867341	0.867341	0	1	0	0	CorrectCommission	2.063153	0.761497	0	1
243.719910	0.792263	city	3	1	0.645967	0.645967	0	1	0	0	CorrectCommission	0.760688	0.762727	0	1
244.512222	0.792373	city	8	1	0.603140	0.603140	0	1	0	0	CorrectCommission	1.307000	0.755706	1	1
245.304489	0.792155	city	9	1	0.654803	0.654803	0	1	0	0	CorrectCommission	0.647976	0.741051	1	1
246.096710	0.792270	mountain	2	0	0.000000	0.659141	1	0	0	0	CorrectOmission	0.592642	0.720304	1	0
246.888977	0.792260	city	1	1	0.646135	0.646135	0	1	0	0	CorrectCommission	0.758554	0.695702	1	0
247.681274	0.792340	city	2	1	0.645765	0.645765	0	1	0	0	CorrectCommission	0.763266	0.669900	1	0
248.473572	0.792276	city	7	1	0.645667	0.645667	0	1	0	0	CorrectCommission	0.764522	0.645659	1	0
249.265823	0.792204	city	2	1	0.708302	0.708302	0	1	0	0	CorrectCommission	0.034455	0.625591	1	0
250.058044	0.792242	city	10	1	0.715088	0.715088	0	1	0	0	CorrectCommission	0.121010	0.611885	1	0
250.850296	0.792263	city	9	1	0.744925	0.744925	0	1	0	0	CorrectCommission	0.501609	0.606137	1	0
251.642609	0.792374	city	10	1	0.708305	0.708305	0	1	0	0	CorrectCommission	0.034495	0.609336	1	0
252.434875	0.792170	city	6	1	0.760703	0.760703	0	1	0	0	CorrectCommission	0.702876	0.621902	1	0
253.227097	0.792252	city	10	1	0.647223	0.647223	0	1	0	0	CorrectCommission	0.744669	0.643765	1	0
254.019363	0.792304	city	9	1	0.648112	0.648112	0	1	0	0	CorrectCommission	0.733337	0.674520	1	0
254.811676	0.792293	city	4	1	0.645711	0.645711	0	1	0	0	CorrectCommission	0.763957	0.713497	1	0
255.603912	0.792194	city	7	1	0.607503	0.607503	0	1	0	0	CorrectCommission	1.251341	0.759807	1	0
256.396210	0.792376	city	5	1	0.664746	0.664746	0	1	0	0	CorrectCommission	0.521147	0.812332	0	0
257.188477	0.792178	city	6	1	0.704748	0.704748	0	1	0	0	CorrectCommission	0.010879	0.869654	0	0
257.980804	0.792460	city	10	1	0.645736	0.645736	0	1	0	0	CorrectCommission	0.763637	0.929973	0	0
258.773163	0.792264	mountain	6	0	0.000000	0.642518	1	0	0	0	CorrectOmission	0.804692	0.991049	0	0
259.565308	0.792050	city	5	1	0.645569	0.645569	0	1	0	0	CorrectCommission	0.765771	1.050263	0	0
260.357483	0.792287	city	7	1	0.605366	0.605366	0	1	0	0	CorrectCommission	1.278601	1.104769	0	0
261.149750	0.792244	city	1	1	0.546822	0.546822	0	1	0	0	CorrectCommission	2.025380	1.151736	0	0
261.942047	0.792370	city	4	1	0.546755	0.546755	0	1	0	0	CorrectCommission	2.026235	1.188585	0	0
262.734314	0.792171	city	7	1	0.596150	0.596150	0	1	0	0	CorrectCommission	1.396160	1.213353	0	0
263.526642	0.792467	city	8	1	0.668414	0.668414	0	1	0	0	CorrectCommission	0.474360	1.224852	0	0
264.318909	0.792047	city	5	1	0.549104	0.549104	0	1	0	0	CorrectCommission	1.996273	1.222870	0	0
265.111053	0.792280	city	2	1	0.564484	0.564484	0	1	0	0	CorrectCommission	1.800085	1.208155	0	0
265.903442	0.792467	city	10	1	0.600712	0.600712	0	1	0	0	CorrectCommission	1.337966	1.182431	0	0
266.695770	0.792210	city	8	1	0.597012	0.597012	0	1	0	0	CorrectCommission	1.385168	1.148193	0	0
267.488068	0.792401	mountain	5	0	0.000000	0.628934	1	0	0	0	CorrectOmission	0.977964	1.108425	0	0
268.280365	0.792183	city	4	1	0.645588	0.645588	0	1	0	0	CorrectCommission	0.765531	1.066341	0	0
269.072510	0.792094	city	3	1	0.596080	0.596080	0	1	0	0	CorrectCommission	1.397046	1.025025	0	0
269.864655	0.792217	city	8	1	0.706539	0.706539	0	1	0	0	CorrectCommission	0.011958	0.987125	0	0
270.656921	0.792298	mountain	5	0	0.000000	0.661693	1	0	0	0	CorrectOmission	0.560096	0.954702	0	0
271.449249	0.792342	city	10	1	0.596460	0.596460	0	1	0	0	CorrectCommission	1.392201	0.929053	0	0
272.241486	0.792159	city	9	1	0.645759	0.645759	0	1	0	0	CorrectCommission	0.763350	0.910751	0	0
273.033691	0.792260	city	2	1	0.650658	0.650658	0	1	0	0	CorrectCommission	0.700860	0.899721	0	0
273.826080	0.792483	city	3	1	0.649520	0.649520	0	1	0	0	CorrectCommission	0.715376	0.895383	0	0
274.618439	0.792265	city	5	1	0.698875	0.698875	0	1	0	0	CorrectCommission	0.085794	0.896864	0	0
275.410614	0.792052	city	6	1	0.794224	0.794224	0	1	0	0	CorrectCommission	1.130475	0.903156	0	0
276.202759	0.792279	city	3	1	0.596243	0.596243	0	1	0	0	CorrectCommission	1.394970	0.913245	0	0
276.995026	0.792245	city	7	1	0.794818	0.794818	0	1	0	0	CorrectCommission	1.138049	0.926192	0	0
277.787292	0.792264	city	5	1	0.504222	0.504222	0	1	0	0	CorrectCommission	2.568789	0.941130	0	0
278.579651	0.792484	city	10	1	0.695400	0.695400	0	1	0	0	CorrectCommission	0.130128	0.957081	0	0
279.371918	0.792049	city	7	1	0.711190	0.711190	0	1	0	0	CorrectCommission	0.071291	0.972935	0	0
280.164154	0.792371	city	1	1	0.695280	0.695280	0	1	0	0	CorrectCommission	0.131655	0.987233	0	0
280.956421	0.792168	city	10	1	0.645778	0.645778	0	1	0	0	CorrectCommission	0.763108	0.998232	0	0
281.748627	0.792251	city	9	1	0.758413	0.758413	0	1	0	0	CorrectCommission	0.673665	1.003995	0	0
282.540894	0.792269	city	8	1	0.645790	0.645790	0	1	0	0	CorrectCommission	0.762956	1.002722	0	0
283.333252	0.792479	city	6	1	0.447683	0.447683	0	1	0	0	CorrectCommission	3.290006	0.993102	0	0
284.125519	0.792047	city	10	1	0.510708	0.510708	0	1	0	0	CorrectCommission	2.486055	0.974589	0	0
284.917664	0.792268	city	2	1	0.596368	0.596368	0	1	0	0	CorrectCommission	1.393378	0.947740	0	0
285.709991	0.792369	city	6	1	0.695267	0.695267	0	1	0	0	CorrectCommission	0.131820	0.914192	0	0
286.502258	0.792181	city	7	1	0.710205	0.710205	0	1	0	0	CorrectCommission	0.058725	0.876426	0	0
287.294525	0.792350	city	2	1	0.794280	0.794280	0	1	0	0	CorrectCommission	1.131178	0.837413	0	0
288.086792	0.792169	city	10	1	0.744742	0.744742	0	1	0	0	CorrectCommission	0.499274	0.800123	0	0
288.879028	0.792296	city	1	1	0.710119	0.710119	0	1	0	0	CorrectCommission	0.057626	0.767102	0	0
289.671326	0.792329	city	8	1	0.645851	0.645851	0	1	0	0	CorrectCommission	0.762168	0.740104	1	0
290.463623	0.792263	city	10	1	0.695272	0.695272	0	1	0	0	CorrectCommission	0.131755	0.719858	1	0
291.255890	0.792265	city	2	1	0.649909	0.649909	0	1	0	0	CorrectCommission	0.710414	0.706128	1	0
292.048157	0.792264	city	7	1	0.695142	0.695142	0	1	0	0	CorrectCommission	0.133420	0.697807	1	0
292.840363	0.792156	city	1	1	0.597015	0.597015	0	1	0	0	CorrectCommission	1.385121	0.693235	1	0
293.632629	0.792374	city	2	1	0.596256	0.596256	0	1	0	0	CorrectCommission	1.394806	0.690495	1	0
294.424896	0.792158	city	8	1	0.645580	0.645580	0	1	0	0	CorrectCommission	0.765635	0.687811	1	0
295.217102	0.792266	city	3	1	0.748200	0.748200	0	1	0	0	CorrectCommission	0.543385	0.683744	1	0
296.009369	0.792264	city	9	1	0.649677	0.649677	0	1	0	0	CorrectCommission	0.713366	0.677379	1	0
296.801636	0.792265	city	7	1	0.650596	0.650596	0	1	0	0	CorrectCommission	0.701651	0.668337	1	0
297.594025	0.792479	city	8	1	0.744974	0.744974	0	1	0	0	CorrectCommission	0.502244	0.656755	1	0
298.386322	0.792158	city	7	1	0.746908	0.746908	0	1	0	0	CorrectCommission	0.526911	0.643156	1	0
299.178497	0.792155	city	2	1	0.744671	0.744671	0	1	0	0	CorrectCommission	0.498378	0.628307	1	0
299.970734	0.792324	city	3	1	0.652021	0.652021	0	1	0	0	CorrectCommission	0.683466	0.613136	1	0
300.763000	0.792240	city	10	1	0.596909	0.596909	0	1	0	0	CorrectCommission	1.386479	0.598537	1	0
301.555237	0.792234	city	7	1	0.657845	0.657845	0	1	0	0	CorrectCommission	0.609180	0.585342	1	0
302.347534	0.792325	city	3	1	0.711757	0.711757	0	1	0	0	CorrectCommission	0.078520	0.574252	1	0
303.139801	0.792201	city	8	1	0.695349	0.695349	0	1	0	0	CorrectCommission	0.130778	0.565760	1	0
303.932037	0.792266	city	4	1	0.696147	0.696147	0	1	0	0	CorrectCommission	0.120602	0.560104	1	0
304.724396	0.792482	city	1	1	0.745887	0.745887	0	1	0	0	CorrectCommission	0.513889	0.557280	1	0
305.516663	0.792045	city	10	1	0.744988	0.744988	0	1	0	0	CorrectCommission	0.502412	0.557111	1	1
306.308807	0.792265	city	1	1	0.843841	0.843841	0	1	0	0	CorrectCommission	1.763385	0.559326	1	1
307.101105	0.792308	city	5	1	0.750312	0.750312	0	1	0	0	CorrectCommission	0.570326	0.563545	1	1
307.893433	0.792331	city	4	1	0.709692	0.709692	0	1	0	0	CorrectCommission	0.052186	0.569459	1	1
308.685791	0.792373	city	5	1	0.695575	0.695575	0	1	0	0	CorrectCommission	0.127893	0.576815	1	1
309.478027	0.792157	city	8	1	0.649871	0.649871	0	1	0	0	CorrectCommission	0.710900	0.585465	1	1
310.270203	0.792158	city	1	1	0.645632	0.645632	0	1	0	0	CorrectCommission	0.764962	0.595365	1	1
311.062408	0.792266	city	2	1	0.710688	0.710688	0	1	0	0	CorrectCommission	0.064881	0.606626	1	1
311.854675	0.792253	city	6	1	0.744770	0.744770	0	1	0	0	CorrectCommission	0.499633	0.619549	1	1
312.646942	0.792273	city	8	1	0.598499	0.598499	0	1	0	0	CorrectCommission	1.366189	0.634504	1	1
313.439209	0.792268	city	3	1	0.596236	0.596236	0	1	0	0	CorrectCommission	1.395061	0.651928	1	1
314.231476	0.792261	city	8	1	0.696902	0.696902	0	1	0	0	CorrectCommission	0.110968	0.672200	1	1
315.023743	0.792268	city	9	1	0.749256	0.749256	0	1	0	0	CorrectCommission	0.556856	0.695528	1	1
315.816010	0.792259	city	10	1	0.701482	0.701482	0	1	0	0	CorrectCommission	0.052541	0.721712	1	1
316.608307	0.792374	city	4	1	0.763285	0.763285	0	1	0	0	CorrectCommission	0.735816	0.750069	1	1
317.400574	0.792157	city	6	1	0.645629	0.645629	0	1	0	0	CorrectCommission	0.765007	0.779339	0	1
318.192841	0.792373	city	2	1	0.744788	0.744788	0	1	0	0	CorrectCommission	0.499864	0.807762	0	1
318.985107	0.792158	mountain	9	0	0.000000	0.728201	1	0	0	0	CorrectOmission	0.288285	0.833283	0	1
319.777344	0.792308	city	7	1	0.645786	0.645786	0	1	0	0	CorrectCommission	0.763005	0.853820	0	1
320.569702	0.792437	city	6	1	0.547458	0.547458	0	1	0	0	CorrectCommission	2.017267	0.867581	0	1
321.362000	0.792156	city	5	1	0.497039	0.497039	0	1	0	0	CorrectCommission	2.660419	0.873362	0	1
322.154266	0.792373	city	7	1	0.609676	0.609676	0	1	0	0	CorrectCommission	1.223626	0.870771	0	1
322.946472	0.792046	city	10	1	0.713088	0.713088	0	1	0	0	CorrectCommission	0.095499	0.860325	0	1
323.738678	0.792307	city	2	1	0.656841	0.656841	0	1	0	0	CorrectCommission	0.621985	0.843292	0	1
324.530914	0.792222	city	7	1	0.745241	0.745241	0	1	0	0	CorrectCommission	0.505646	0.821483	0	1
325.323212	0.792352	city	6	1	0.744885	0.744885	0	1	0	0	CorrectCommission	0.501099	0.797001	0	1
326.115479	0.792182	city	3	1	0.745240	0.745240	0	1	0	0	CorrectCommission	0.505626	0.771942	0	1
326.907715	0.792261	city	6	1	0.858550	0.858550	0	1	0	0	CorrectCommission	1.951008	0.748137	1	1
327.699982	0.792269	city	1	1	0.711151	0.711151	0	1	0	0	CorrectCommission	0.070795	0.726910	1	1
328.492249	0.792263	city	3	1	0.645878	0.645878	0	1	0	0	CorrectCommission	0.761826	0.709154	1	1
329.284546	0.792372	city	2	1	0.710383	0.710383	0	1	0	0	CorrectCommission	0.060994	0.695183	1	1
330.076813	0.792180	city	3	1	0.651256	0.651256	0	1	0	0	CorrectCommission	0.693230	0.684856	1	1
330.869049	0.792242	city	2	1	0.654936	0.654936	0	1	0	0	CorrectCommission	0.646281	0.677695	1	1
331.661316	0.792324	city	5	1	0.646589	0.646589	0	1	0	0	CorrectCommission	0.752765	0.673099	1	1
332.453644	0.792313	city	2	1	0.645685	0.645685	0	1	0	0	CorrectCommission	0.764289	0.670481	1	1
333.245911	0.792225	city	7	1	0.645611	0.645611	0	1	0	0	CorrectCommission	0.765230	0.669441	1	1
334.038177	0.792307	mountain	7	0	0.000000	0.643986	1	0	0	0	CorrectOmission	0.785966	0.669853	1	1
334.830444	0.792262	city	1	1	0.645628	0.645628	0	1	0	0	CorrectCommission	0.765016	0.671903	1	1
335.622772	0.792373	mountain	6	0	0.000000	0.655359	1	0	0	0	CorrectOmission	0.640894	0.676030	1	1
336.414978	0.792047	city	8	1	0.659897	0.659897	0	1	0	0	CorrectCommission	0.583003	0.682796	1	1
337.207245	0.792483	city	3	1	0.645963	0.645963	0	1	0	0	CorrectCommission	0.760743	0.692698	1	1
337.999512	0.792048	city	6	1	0.744577	0.744577	0	1	0	0	CorrectCommission	0.497172	0.705953	1	1
338.791779	0.792481	city	4	1	0.756352	0.756352	0	1	0	0	CorrectCommission	0.647381	0.722344	1	1
339.584045	0.792048	city	10	1	0.695179	0.695179	0	1	0	0	CorrectCommission	0.132952	0.741127	1	1
340.376221	0.792319	city	7	1	0.703665	0.703665	0	1	0	0	CorrectCommission	0.024696	0.761058	1	1
341.168549	0.792317	mountain	3	0	0.000000	0.800216	1	0	0	0	CorrectOmission	1.206903	0.780488	0	1
341.960846	0.792266	city	10	1	0.844265	0.844265	0	1	0	0	CorrectCommission	1.768795	0.797539	0	1
342.753052	0.792156	city	9	1	0.695248	0.695248	0	1	0	0	CorrectCommission	0.132069	0.810405	0	1
343.545258	0.792264	city	7	1	0.596149	0.596149	0	1	0	0	CorrectCommission	1.396167	0.817672	0	1
344.337524	0.792272	city	4	1	0.553687	0.553687	0	1	0	0	CorrectCommission	1.937813	0.818406	0	1
345.129913	0.792477	city	7	1	0.656993	0.656993	0	1	0	0	CorrectCommission	0.620044	0.812413	0	1
345.922211	0.792156	city	10	1	0.653956	0.653956	0	1	0	0	CorrectCommission	0.658791	0.800215	0	1
346.714386	0.792157	city	1	1	0.646019	0.646019	0	1	0	0	CorrectCommission	0.760024	0.782922	0	1
347.506592	0.792266	city	4	1	0.648252	0.648252	0	1	0	0	CorrectCommission	0.731544	0.762068	0	1
348.298859	0.792265	mountain	8	0	0.000000	0.655957	1	0	0	0	CorrectOmission	0.633265	0.739393	1	1
349.091125	0.792259	mountain	2	0	0.000000	0.663135	1	0	0	0	CorrectOmission	0.541695	0.716630	1	1
349.883392	0.792266	city	5	1	0.663790	0.663790	0	1	0	0	CorrectCommission	0.533341	0.695363	1	1
350.675629	0.792266	city	3	1	0.651924	0.651924	0	1	0	0	CorrectCommission	0.684711	0.676915	1	1
351.467957	0.792371	city	9	1	0.657113	0.657113	0	1	0	0	CorrectCommission	0.618516	0.662310	1	1
352.260223	0.792158	city	8	1	0.645829	0.645829	0	1	0	0	CorrectCommission	0.762459	0.652258	1	1
353.052460	0.792297	city	6	1	0.648950	0.648950	0	1	0	0	CorrectCommission	0.722647	0.647212	1	1
353.844727	0.792263	mountain	1	0	0.000000	0.672641	1	0	0	0	CorrectOmission	0.420446	0.647380	1	1
354.636993	0.792231	city	10	1	0.695286	0.695286	0	1	0	0	CorrectCommission	0.131582	0.652768	1	1
355.429352	0.792484	city	8	1	0.695270	0.695270	0	1	0	0	CorrectCommission	0.131783	0.663199	1	1
356.221619	0.792050	city	2	1	0.843624	0.843624	0	1	0	0	CorrectCommission	1.760617	0.678312	1	1
357.013763	0.792264	city	9	1	0.806656	0.806656	0	1	0	0	CorrectCommission	1.289046	0.697507	1	1
357.806030	0.792276	city	6	1	0.702093	0.702093	0	1	0	0	CorrectCommission	0.044752	0.720010	1	1
358.598297	0.792253	city	5	1	0.702243	0.702243	0	1	0	0	CorrectCommission	0.042837	0.744865	1	1
359.390564	0.792262	city	9	1	0.695245	0.695245	0	1	0	0	CorrectCommission	0.132099	0.770951	0	1
360.182831	0.792305	city	3	1	0.645854	0.645854	0	1	0	0	CorrectCommission	0.762134	0.797161	0	1
360.975098	0.792227	city	6	1	0.606370	0.606370	0	1	0	0	CorrectCommission	1.265789	0.822498	0	1
361.767365	0.792261	city	3	1	0.596212	0.596212	0	1	0	0	CorrectCommission	1.395366	0.846253	0	1
362.559601	0.792270	city	9	1	0.546850	0.546850	0	1	0	0	CorrectCommission	2.025030	0.868134	0	1
363.351868	0.792261	mountain	7	0	0.000000	0.610331	1	0	0	0	CorrectOmission	1.215268	0.888227	0	1
364.144135	0.792265	mountain	4	0	0.000000	0.703903	1	0	0	0	CorrectOmission	0.021662	0.906965	0	1
364.936401	0.792266	city	3	1	0.744815	0.744815	0	1	0	0	CorrectCommission	0.500207	0.924921	0	0
365.728668	0.792277	city	7	1	0.650314	0.650314	0	1	0	0	CorrectCommission	0.705244	0.942560	0	0
366.520935	0.792254	city	1	1	0.602584	0.602584	0	1	0	0	CorrectCommission	1.314091	0.960028	0	0
367.313202	0.792263	mountain	2	0	0.000000	0.723914	1	0	0	0	CorrectOmission	0.233602	0.976986	0	0
368.105469	0.792281	city	3	1	0.809507	0.809507	0	1	0	0	CorrectCommission	1.325414	0.992623	0	0
368.897797	0.792356	city	9	1	0.654560	0.654560	0	1	0	0	CorrectCommission	0.651076	1.005676	0	0
369.690063	0.792156	city	7	1	0.645762	0.645762	0	1	0	0	CorrectCommission	0.763310	1.014758	0	0
370.482269	0.792274	city	2	1	0.596324	0.596324	0	1	0	0	CorrectCommission	1.393937	1.018551	0	0
371.274567	0.792317	city	10	1	0.513742	0.513742	0	1	0	0	CorrectCommission	2.447353	1.016111	0	0
372.066864	0.792309	city	8	1	0.560234	0.560234	0	1	0	0	CorrectCommission	1.854297	1.007059	0	0
372.859100	0.792159	city	7	1	0.645644	0.645644	0	1	0	0	CorrectCommission	0.764809	0.991682	0	0
373.651428	0.792482	city	10	1	0.645752	0.645752	0	1	0	0	CorrectCommission	0.763438	0.970829	0	0
374.443695	0.792051	city	3	1	0.744532	0.744532	0	1	0	0	CorrectCommission	0.496596	0.945740	0	0
375.235840	0.792259	city	10	1	0.697517	0.697517	0	1	0	0	CorrectCommission	0.103117	0.917825	0	0
376.028229	0.792489	city	1	1	0.744766	0.744766	0	1	0	0	CorrectCommission	0.499579	0.888424	0	0
376.820587	0.792258	mountain	4	0	0.000000	0.820110	1	0	0	0	CorrectOmission	1.460669	0.858609	0	0
377.612762	0.792051	city	7	1	0.845973	0.845973	0	1	0	0	CorrectCommission	1.790584	0.829079	0	0
378.404907	0.792263	city	3	1	0.744779	0.744779	0	1	0	0	CorrectCommission	0.499756	0.800204	0	0
379.197174	0.792265	city	2	1	0.744760	0.744760	0	1	0	0	CorrectCommission	0.499514	0.772102	0	0
379.989441	0.792266	city	10	1	0.696701	0.696701	0	1	0	0	CorrectCommission	0.113537	0.744696	1	0
380.781708	0.792264	city	3	1	0.794315	0.794315	0	1	0	0	CorrectCommission	1.131630	0.717904	1	0
381.573975	0.792262	city	5	1	0.794403	0.794403	0	1	0	0	CorrectCommission	1.132758	0.691748	1	0
382.366241	0.792310	city	7	1	0.744776	0.744776	0	1	0	0	CorrectCommission	0.499713	0.666483	1	0
383.158508	0.792225	city	8	1	0.748321	0.748321	0	1	0	0	CorrectCommission	0.544937	0.642637	1	0
383.950775	0.792264	city	5	1	0.699942	0.699942	0	1	0	0	CorrectCommission	0.072190	0.621000	1	0
384.743042	0.792290	city	3	1	0.809613	0.809613	0	1	0	0	CorrectCommission	1.326767	0.602630	1	0
385.535400	0.792453	city	1	1	0.744753	0.744753	0	1	0	0	CorrectCommission	0.499418	0.588641	1	0
386.327667	0.792049	city	7	1	0.757780	0.757780	0	1	0	0	CorrectCommission	0.665587	0.580141	1	0
387.119934	0.792482	city	8	1	0.744818	0.744818	0	1	0	0	CorrectCommission	0.500248	0.577952	1	0
387.912262	0.792155	city	4	1	0.706895	0.706895	0	1	0	0	CorrectCommission	0.016499	0.582457	1	0
388.704407	0.792160	city	9	1	0.706336	0.706336	0	1	0	0	CorrectCommission	0.009376	0.593419	1	0
389.496674	0.792376	city	2	1	0.656805	0.656805	0	1	0	0	CorrectCommission	0.622449	0.609931	1	0
390.289032	0.792367	city	10	1	0.703060	0.703060	0	1	0	0	CorrectCommission	0.032417	0.630503	1	0
391.081268	0.792067	city	9	1	0.753641	0.753641	0	1	0	0	CorrectCommission	0.612796	0.653258	1	0
391.873535	0.792463	city	2	1	0.794962	0.794962	0	1	0	0	CorrectCommission	1.139878	0.676143	1	0
392.665771	0.792052	city	5	1	0.763246	0.763246	0	1	0	0	CorrectCommission	0.735314	0.697336	1	0
393.457947	0.792258	city	4	1	0.850425	0.850425	0	1	0	0	CorrectCommission	1.847375	0.715542	1	0
394.250214	0.792265	city	9	1	0.801143	0.801143	0	1	0	0	CorrectCommission	1.218729	0.730186	1	0
395.042480	0.792266	city	10	1	0.657192	0.657192	0	1	0	0	CorrectCommission	0.617513	0.741561	1	0
395.834747	0.792293	city	9	1	0.695300	0.695300	0	1	0	0	CorrectCommission	0.131400	0.750750	1	0
396.627045	0.792320	city	6	1	0.664820	0.664820	0	1	0	0	CorrectCommission	0.520199	0.759402	1	0
397.419312	0.792179	city	9	1	0.601856	0.601856	0	1	0	0	CorrectCommission	1.323367	0.769396	0	0
398.211517	0.792267	city	4	1	0.663940	0.663940	0	1	0	0	CorrectCommission	0.531432	0.782471	0	0
399.003784	0.792267	mountain	2	0	0.000000	0.725964	1	0	0	0	CorrectOmission	0.259751	0.799906	0	0
399.796051	0.792260	mountain	6	0	0.000000	0.761912	1	0	0	0	CorrectOmission	0.718299	0.822205	0	0
400.588318	0.792273	city	1	1	0.745765	0.745765	0	1	0	0	CorrectCommission	0.512331	0.848936	0	0
401.380585	0.792261	city	10	1	0.651506	0.651506	0	1	0	0	CorrectCommission	0.690032	0.878729	0	0
402.172852	0.792266	city	8	1	0.655040	0.655040	0	1	0	0	CorrectCommission	0.644952	0.909370	0	0
402.965118	0.792264	city	2	1	0.596225	0.596225	0	1	0	0	CorrectCommission	1.395206	0.938122	0	0
403.757477	0.792478	city	3	1	0.797638	0.797638	0	1	0	0	CorrectCommission	1.174024	0.962037	0	0
404.549866	0.792264	city	9	1	0.744679	0.744679	0	1	0	0	CorrectCommission	0.498473	0.978431	0	0
405.342041	0.792099	mountain	7	0	0.000000	0.851413	1	0	0	0	CorrectOmission	1.859966	0.985243	0	0
406.134186	0.792215	city	6	1	0.893292	0.893292	0	1	0	0	CorrectCommission	2.394174	0.981289	0	0
406.926483	0.792325	city	10	1	0.645768	0.645768	0	1	0	0	CorrectCommission	0.763233	0.966447	0	0
407.718750	0.792211	mountain	9	0	0.000000	0.606896	1	0	0	0	CorrectOmission	1.259087	0.941691	0	0
408.510986	0.792275	city	1	1	0.649440	0.649440	0	1	0	0	CorrectCommission	0.716386	0.908832	0	0
409.303253	0.792250	city	10	1	0.646168	0.646168	0	1	0	0	CorrectCommission	0.758126	0.870244	0	0
410.095490	0.792260	city	6	1	0.756676	0.756676	0	1	0	0	CorrectCommission	0.651513	0.828538	0	0
410.887756	0.792270	city	4	1	0.745481	0.745481	0	1	0	0	CorrectCommission	0.508711	0.786162	0	0
411.680145	0.792479	mountain	4	0	0.000000	0.758087	1	0	0	0	CorrectOmission	0.669502	0.745151	1	0
412.472504	0.792265	city	10	1	0.744550	0.744550	0	1	0	0	CorrectCommission	0.496832	0.706925	1	0
413.264679	0.792050	city	9	1	0.654931	0.654931	0	1	0	0	CorrectCommission	0.646350	0.672299	1	0
414.056824	0.792261	city	2	1	0.744899	0.744899	0	1	0	0	CorrectCommission	0.501276	0.641508	1	0
414.849091	0.792263	city	10	1	0.695241	0.695241	0	1	0	0	CorrectCommission	0.132156	0.614382	1	0
415.641388	0.792374	city	2	1	0.794305	0.794305	0	1	0	0	CorrectCommission	1.131507	0.590622	1	0
416.433655	0.792156	city	9	1	0.645851	0.645851	0	1	0	0	CorrectCommission	0.762177	0.569978	1	0
417.225922	0.792332	city	2	1	0.646665	0.646665	0	1	0	0	CorrectCommission	0.751788	0.552463	1	0
418.018188	0.792197	city	4	1	0.651061	0.651061	0	1	0	0	CorrectCommission	0.695712	0.538401	1	0
418.810425	0.792272	city	6	1	0.695322	0.695322	0	1	0	0	CorrectCommission	0.131119	0.528438	1	0
419.602661	0.792260	city	4	1	0.645846	0.645846	0	1	0	0	CorrectCommission	0.762241	0.523421	1	0
420.395050	0.792481	city	3	1	0.714434	0.714434	0	1	0	0	CorrectCommission	0.112666	0.524204	1	0
421.187378	0.792157	mountain	5	0	0.000000	0.722733	1	0	0	0	CorrectOmission	0.218527	0.531482	1	0
421.979523	0.792157	city	7	1	0.704951	0.704951	0	1	0	0	CorrectCommission	0.008297	0.545609	1	0
422.771729	0.792270	city	2	1	0.695297	0.695297	0	1	0	0	CorrectCommission	0.131444	0.566509	1	0
423.563995	0.792260	city	10	1	0.604234	0.604234	0	1	0	0	CorrectCommission	1.293037	0.593680	1	0
424.356323	0.792372	mountain	4	0	0.000000	0.708878	1	0	0	0	CorrectOmission	0.041798	0.626301	1	1
425.148590	0.792159	city	10	1	0.794345	0.794345	0	1	0	0	CorrectCommission	1.132017	0.663403	1	1
425.940887	0.792478	city	1	1	0.645753	0.645753	0	1	0	0	CorrectCommission	0.763424	0.703991	1	1
426.733185	0.792073	city	5	1	0.645547	0.645547	0	1	0	0	CorrectCommission	0.766052	0.747254	1	1
427.525330	0.792240	city	4	1	0.699000	0.699000	0	1	0	0	CorrectCommission	0.084208	0.792625	0	1
428.317627	0.792319	city	10	1	0.559658	0.559658	0	1	0	0	CorrectCommission	1.861651	0.839811	0	1
429.109985	0.792427	city	5	1	0.606391	0.606391	0	1	0	0	CorrectCommission	1.265519	0.888664	0	1
429.902222	0.792048	city	2	1	0.695256	0.695256	0	1	0	0	CorrectCommission	0.131967	0.939107	0	1
430.694366	0.792269	city	9	1	0.757184	0.757184	0	1	0	0	CorrectCommission	0.657982	0.990907	0	1
431.486755	0.792477	mountain	8	0	0.000000	0.794827	1	0	0	0	CorrectOmission	1.138158	1.043449	0	1
432.279114	0.792265	city	1	1	0.796917	0.796917	0	1	0	0	CorrectCommission	1.164818	1.095618	0	1
433.071381	0.792266	city	7	1	0.752185	0.752185	0	1	0	0	CorrectCommission	0.594221	1.145752	0	1
433.863647	0.792263	city	9	1	0.794073	0.794073	0	1	0	0	CorrectCommission	1.128543	1.191746	0	1
434.655823	0.792047	city	3	1	0.794076	0.794076	0	1	0	0	CorrectCommission	1.128581	1.231151	0	1
435.447968	0.792271	city	4	1	0.896287	0.896287	0	1	0	0	CorrectCommission	2.432385	1.261537	0	1
436.240265	0.792339	city	2	1	0.855314	0.855314	0	1	0	0	CorrectCommission	1.909734	1.280793	0	1
437.032654	0.792402	city	5	1	0.794326	0.794326	0	1	0	0	CorrectCommission	1.131777	1.287456	0	1
437.824860	0.792048	city	10	1	0.803122	0.803122	0	1	0	0	CorrectCommission	1.243972	1.281009	0	1
438.617065	0.792322	mountain	3	0	0.000000	0.841243	1	0	0	0	CorrectOmission	1.730239	1.261985	0	1
439.409332	0.792205	mountain	2	0	0.000000	0.855899	1	0	0	0	CorrectOmission	1.917189	1.232030	0	1
440.201599	0.792374	city	4	1	0.794299	0.794299	0	1	0	0	CorrectCommission	1.131432	1.193783	0	1
440.993988	0.792376	city	8	1	0.603655	0.603655	0	1	0	0	CorrectCommission	1.300422	1.150613	0	1
441.786255	0.792155	city	1	1	0.598209	0.598209	0	1	0	0	CorrectCommission	1.369895	1.106280	0	1
442.578400	0.792158	city	8	1	0.645633	0.645633	0	1	0	0	CorrectCommission	0.764948	1.064450	0	1
443.370636	0.792282	city	5	1	0.695232	0.695232	0	1	0	0	CorrectCommission	0.132273	1.028317	0	1
444.162903	0.792245	city	9	1	0.761134	0.761134	0	1	0	0	CorrectCommission	0.708368	1.000215	0	1
444.955139	0.792267	city	4	1	0.745623	0.745623	0	1	0	0	CorrectCommission	0.510514	0.981310	0	1
445.747406	0.792265	city	2	1	0.745280	0.745280	0	1	0	0	CorrectCommission	0.506145	0.971551	0	1
446.539673	0.792262	city	6	1	0.794288	0.794288	0	1	0	0	CorrectCommission	1.131288	0.969716	0	1
447.331940	0.792267	city	9	1	0.744758	0.744758	0	1	0	0	CorrectCommission	0.499482	0.973639	0	1
448.124298	0.792480	city	8	1	0.801368	0.801368	0	1	0	0	CorrectCommission	1.221602	0.980605	0	1
448.916595	0.792058	city	3	1	0.893141	0.893141	0	1	0	0	CorrectCommission	2.392258	0.987684	0	1
449.708832	0.792470	city	4	1	0.695299	0.695299	0	1	0	0	CorrectCommission	0.131421	0.992153	0	1
450.501099	0.792052	city	2	1	0.613865	0.613865	0	1	0	0	CorrectCommission	1.170184	0.991912	0	1
451.293274	0.792263	city	9	1	0.848043	0.848043	0	1	0	0	CorrectCommission	1.816979	0.985543	0	1
452.085541	0.792266	mountain	9	0	0.000000	0.759485	1	0	0	0	CorrectOmission	0.687340	0.972471	0	1
452.877899	0.792480	city	4	1	0.606040	0.606040	0	1	0	0	CorrectCommission	1.269996	0.952953	0	1
453.670288	0.792264	city	8	1	0.645557	0.645557	0	1	0	0	CorrectCommission	0.765926	0.927871	0	1
454.462524	0.792265	city	3	1	0.605677	0.605677	0	1	0	0	CorrectCommission	1.274634	0.898569	0	1
455.254700	0.792046	city	2	1	0.645906	0.645906	0	1	0	0	CorrectCommission	0.761475	0.866593	0	1
456.046844	0.792264	city	9	1	0.748540	0.748540	0	1	0	0	CorrectCommission	0.547727	0.833468	0	1
456.839233	0.792483	city	6	1	0.794261	0.794261	0	1	0	0	CorrectCommission	1.130942	0.800553	0	1
457.631500	0.792047	city	8	1	0.708904	0.708904	0	1	0	0	CorrectCommission	0.042131	0.768913	0	1
458.423645	0.792301	city	4	1	0.695273	0.695273	0	1	0	0	CorrectCommission	0.131750	0.739387	1	1
459.215973	0.792338	city	10	1	0.603263	0.603263	0	1	0	0	CorrectCommission	1.305426	0.712642	1	1
460.008240	0.792160	city	7	1	0.706461	0.706461	0	1	0	0	CorrectCommission	0.010968	0.689269	1	1
460.800446	0.792261	city	1	1	0.850635	0.850635	0	1	0	0	CorrectCommission	1.850050	0.670028	1	1
461.592712	0.792264	city	7	1	0.810038	0.810038	0	1	0	0	CorrectCommission	1.332198	0.655772	1	1
462.384979	0.792269	city	5	1	0.703068	0.703068	0	1	0	0	CorrectCommission	0.032309	0.647555	1	1
463.177277	0.792318	city	4	1	0.744766	0.744766	0	1	0	0	CorrectCommission	0.499582	0.646459	1	1
463.969513	0.792210	city	8	1	0.702473	0.702473	0	1	0	0	CorrectCommission	0.039899	0.653297	1	1
464.761749	0.792263	city	6	1	0.695254	0.695254	0	1	0	0	CorrectCommission	0.131987	0.668430	1	1
465.554047	0.792281	city	10	1	0.660066	0.660066	0	1	0	0	CorrectCommission	0.580841	0.691476	1	1
466.346313	0.792289	city	1	1	0.744758	0.744758	0	1	0	0	CorrectCommission	0.499481	0.721138	1	1
467.138580	0.792227	city	6	1	0.706440	0.706440	0	1	0	0	CorrectCommission	0.010694	0.755262	1	1
467.930939	0.792479	city	10	1	0.611227	0.611227	0	1	0	0	CorrectCommission	1.203833	0.790939	0	1
468.723236	0.792155	city	2	1	0.602040	0.602040	0	1	0	0	CorrectCommission	1.321025	0.824731	0	1
469.515411	0.792181	mountain	7	0	0.000000	0.754021	1	0	0	0	CorrectOmission	0.617637	0.853139	0	1
470.307739	0.792459	city	4	1	0.843806	0.843806	0	1	0	0	CorrectCommission	1.762936	0.872972	0	1
471.099976	0.792048	city	3	1	0.648033	0.648033	0	1	0	0	CorrectCommission	0.734345	0.881703	0	1
471.892242	0.792482	city	9	1	0.546862	0.546862	0	1	0	0	CorrectCommission	2.024874	0.877827	0	1
472.684570	0.792154	city	1	1	0.645511	0.645511	0	1	0	0	CorrectCommission	0.766513	0.860953	0	1
473.476715	0.792159	city	7	1	0.645654	0.645654	0	1	0	0	CorrectCommission	0.764686	0.831911	0	1
474.268982	0.792370	city	8	1	0.552277	0.552277	0	1	0	0	CorrectCommission	1.955797	0.792517	0	1
475.061249	0.792161	city	4	1	0.698979	0.698979	0	1	0	0	CorrectCommission	0.084477	0.745345	1	1
475.853455	0.792262	city	3	1	0.752002	0.752002	0	1	0	0	CorrectCommission	0.591886	0.693443	1	1
476.645752	0.792290	city	8	1	0.695838	0.695838	0	1	0	0	CorrectCommission	0.124544	0.639835	1	1
477.438049	0.792347	city	4	1	0.646536	0.646536	0	1	0	0	CorrectCommission	0.753433	0.587263	1	1
478.230316	0.792156	city	10	1	0.645673	0.645673	0	1	0	0	CorrectCommission	0.764442	0.537797	1	1
479.022522	0.792265	city	3	1	0.695248	0.695248	0	1	0	0	CorrectCommission	0.132064	0.492707	1	1
479.814789	0.792267	city	4	1	0.702762	0.702762	0	1	0	0	CorrectCommission	0.036224	0.452388	1	1
480.607056	0.792262	mountain	2	0	0.000000	0.718717	1	0	0	0	CorrectOmission	0.167303	0.416358	1	1
481.399323	0.792270	mountain	3	0	0.000000	0.725951	1	0	0	0	CorrectOmission	0.259586	0.383459	1	1
482.191620	0.792317	city	3	1	0.707302	0.707302	0	1	0	0	CorrectCommission	0.021699	0.352136	1	1
482.983887	0.792208	city	10	1	0.645607	0.645607	0	1	0	0	CorrectCommission	0.765288	0.320737	1	1
483.776154	0.792377	city	2	1	0.648309	0.648309	0	1	0	0	CorrectCommission	0.730813	0.287838	1	1
484.568420	0.792154	city	9	1	0.762834	0.762834	0	1	0	0	CorrectCommission	0.730055	0.252516	1	1
485.360748	0.792483	city	1	1	0.744978	0.744978	0	1	0	0	CorrectCommission	0.502287	0.214513	1	1
486.153137	0.792265	city	3	1	0.699093	0.699093	0	1	0	0	CorrectCommission	0.083018	0.174251	1	1
486.945282	0.792056	city	2	1	0.695198	0.695198	0	1	0	0	CorrectCommission	0.132706	0.132706	1	1
