onset	duration	trial_type	image_type	Press	ReactionTime	ReactionTime_Interpolated	CorrectOmission	CorrectCommission	CommissionError	OmissionError	response_type	nonsmoothVarianceTimeCourse	VarianceTimeCourse	In_the_Zone	Reward_trial
8.433790	0.792246	city	4	1	0.949314	0.949314	0	1	0	0	CorrectCommission	1.305633	1.305633	0	0
9.226154	0.792482	mountain	2	0	0.000000	0.737416	1	0	0	0	CorrectOmission	0.183968	1.193189	0	0
10.018473	0.792156	city	8	1	0.596155	0.596155	0	1	0	0	CorrectCommission	1.177008	1.082062	0	0
10.810628	0.792155	city	5	1	0.596167	0.596167	0	1	0	0	CorrectCommission	1.176925	0.973610	0	0
11.602839	0.792265	city	9	1	0.596348	0.596348	0	1	0	0	CorrectCommission	1.175653	0.869361	0	0
12.395103	0.792264	city	10	1	0.596703	0.596703	0	1	0	0	CorrectCommission	1.173153	0.770998	0	0
13.187372	0.792275	city	1	1	0.745339	0.745339	0	1	0	0	CorrectCommission	0.128274	0.680293	0	0
13.979692	0.792367	city	10	1	0.744989	0.744989	0	1	0	0	CorrectCommission	0.130733	0.599029	1	0
14.771977	0.792202	city	3	1	0.710917	0.710917	0	1	0	0	CorrectCommission	0.370255	0.528798	1	0
15.564189	0.792222	city	5	1	0.758849	0.758849	0	1	0	0	CorrectCommission	0.033303	0.470828	1	0
16.356432	0.792263	city	4	1	0.810005	0.810005	0	1	0	0	CorrectCommission	0.326316	0.425837	1	0
17.148693	0.792262	city	2	1	0.794972	0.794972	0	1	0	0	CorrectCommission	0.220637	0.393869	1	0
17.941065	0.792483	city	10	1	0.753818	0.753818	0	1	0	0	CorrectCommission	0.068668	0.374254	1	0
18.733332	0.792048	city	7	1	0.749580	0.749580	0	1	0	0	CorrectCommission	0.098457	0.365600	1	0
19.525488	0.792266	city	5	1	0.745090	0.745090	0	1	0	0	CorrectCommission	0.130023	0.365905	1	0
20.317753	0.792264	city	1	1	0.710121	0.710121	0	1	0	0	CorrectCommission	0.375848	0.372731	1	0
21.110031	0.792293	city	3	1	0.761216	0.761216	0	1	0	0	CorrectCommission	0.016659	0.383431	1	0
21.902296	0.792238	mountain	3	0	0.000000	0.675737	1	0	0	0	CorrectOmission	0.617561	0.395449	1	0
22.694656	0.792480	city	10	1	0.603692	0.603692	0	1	0	0	CorrectCommission	1.124023	0.406537	1	0
23.486919	0.792048	city	6	1	0.695090	0.695090	0	1	0	0	CorrectCommission	0.481516	0.414995	1	0
24.279184	0.792480	city	3	1	0.646446	0.646446	0	1	0	0	CorrectCommission	0.823472	0.419841	1	0
25.071449	0.792049	city	2	1	0.695102	0.695102	0	1	0	0	CorrectCommission	0.481430	0.420788	1	0
25.863605	0.792263	city	5	1	0.707201	0.707201	0	1	0	0	CorrectCommission	0.396377	0.418262	1	0
26.655876	0.792278	city	6	1	0.751720	0.751720	0	1	0	0	CorrectCommission	0.083412	0.413251	1	0
27.448175	0.792322	city	7	1	0.695277	0.695277	0	1	0	0	CorrectCommission	0.480202	0.407104	1	0
28.240541	0.792411	city	2	1	0.706504	0.706504	0	1	0	0	CorrectCommission	0.401273	0.401350	1	0
29.032770	0.792047	city	8	1	0.794083	0.794083	0	1	0	0	CorrectCommission	0.214386	0.397528	1	0
29.824949	0.792310	city	4	1	0.711719	0.711719	0	1	0	0	CorrectCommission	0.364611	0.397026	1	0
30.617216	0.792225	city	9	1	0.744729	0.744729	0	1	0	0	CorrectCommission	0.132559	0.400984	1	0
31.409460	0.792263	city	6	1	0.695733	0.695733	0	1	0	0	CorrectCommission	0.476996	0.410219	1	0
32.201725	0.792264	city	9	1	0.708920	0.708920	0	1	0	0	CorrectCommission	0.384292	0.425172	1	0
32.994041	0.792371	city	10	1	0.704394	0.704394	0	1	0	0	CorrectCommission	0.416106	0.445924	1	0
33.786415	0.792373	city	7	1	0.794153	0.794153	0	1	0	0	CorrectCommission	0.214880	0.472163	1	0
34.578625	0.792051	city	8	1	0.696659	0.696659	0	1	0	0	CorrectCommission	0.470483	0.503236	1	0
35.370785	0.792264	city	9	1	0.697807	0.697807	0	1	0	0	CorrectCommission	0.462414	0.538155	1	0
36.163048	0.792265	city	4	1	0.695405	0.695405	0	1	0	0	CorrectCommission	0.479299	0.575677	1	0
36.955364	0.792371	city	10	1	0.695258	0.695258	0	1	0	0	CorrectCommission	0.480335	0.614373	1	0
37.747627	0.792157	city	5	1	0.695269	0.695269	0	1	0	0	CorrectCommission	0.480255	0.652743	0	0
38.539894	0.792374	city	7	1	0.645769	0.645769	0	1	0	0	CorrectCommission	0.828233	0.689342	0	0
39.332161	0.792157	city	9	1	0.612384	0.612384	0	1	0	0	CorrectCommission	1.062923	0.722887	0	0
40.124401	0.792328	city	10	1	0.596366	0.596366	0	1	0	0	CorrectCommission	1.175521	0.752355	0	0
40.916775	0.792417	city	1	1	0.603156	0.603156	0	1	0	0	CorrectCommission	1.127792	0.777063	0	0
41.709061	0.792157	city	7	1	0.645598	0.645598	0	1	0	0	CorrectCommission	0.829434	0.796644	0	0
42.501217	0.792154	city	6	1	0.697714	0.697714	0	1	0	0	CorrectCommission	0.463068	0.810991	0	0
43.293484	0.792376	city	3	1	0.645729	0.645729	0	1	0	0	CorrectCommission	0.828510	0.820182	0	0
44.085747	0.792154	city	7	1	0.645765	0.645765	0	1	0	0	CorrectCommission	0.828261	0.824368	0	0
44.877960	0.792270	city	1	1	0.645899	0.645899	0	1	0	0	CorrectCommission	0.827316	0.823731	0	0
45.670223	0.792261	city	9	1	0.646258	0.646258	0	1	0	0	CorrectCommission	0.824791	0.818452	0	0
46.462494	0.792278	city	1	1	0.645771	0.645771	0	1	0	0	CorrectCommission	0.828218	0.808748	0	0
47.254757	0.792251	city	7	1	0.612155	0.612155	0	1	0	0	CorrectCommission	1.064529	0.794902	0	0
48.047123	0.792482	city	1	1	0.607435	0.607435	0	1	0	0	CorrectCommission	1.097714	0.777360	0	0
48.839390	0.792051	city	9	1	0.695217	0.695217	0	1	0	0	CorrectCommission	0.480621	0.756775	0	0
49.631561	0.792290	city	4	1	0.607634	0.607634	0	1	0	0	CorrectCommission	1.096308	0.734039	0	0
50.423824	0.792239	city	8	1	0.645730	0.645730	0	1	0	0	CorrectCommission	0.828502	0.710204	0	0
51.216076	0.792263	city	9	1	0.654731	0.654731	0	1	0	0	CorrectCommission	0.765231	0.686438	0	0
52.008339	0.792263	city	1	1	0.695434	0.695434	0	1	0	0	CorrectCommission	0.479093	0.663879	0	0
52.800602	0.792265	city	8	1	0.695277	0.695277	0	1	0	0	CorrectCommission	0.480200	0.643511	1	0
53.592869	0.792266	city	7	1	0.794586	0.794586	0	1	0	0	CorrectCommission	0.217926	0.626022	1	0
54.385242	0.792482	city	4	1	0.746347	0.746347	0	1	0	0	CorrectCommission	0.121184	0.611762	1	0
55.177509	0.792050	city	1	1	0.745027	0.745027	0	1	0	0	CorrectCommission	0.130463	0.600747	1	0
55.969772	0.792479	mountain	10	0	0.000000	0.625827	1	0	0	0	CorrectOmission	0.968418	0.592707	1	0
56.762051	0.792074	city	1	1	0.546531	0.546531	0	1	0	0	CorrectCommission	1.525855	0.587192	1	0
57.554203	0.792237	city	4	1	0.664923	0.664923	0	1	0	0	CorrectCommission	0.693579	0.583691	1	0
58.346565	0.792483	city	3	1	0.663899	0.663899	0	1	0	0	CorrectCommission	0.700782	0.581731	1	0
59.138828	0.792047	city	6	1	0.794096	0.794096	0	1	0	0	CorrectCommission	0.214481	0.580861	1	0
59.930984	0.792264	mountain	1	0	0.000000	0.804887	1	0	0	0	CorrectOmission	0.290342	0.580659	1	0
60.723251	0.792265	city	1	1	0.794330	0.794330	0	1	0	0	CorrectCommission	0.216122	0.580698	1	0
61.515514	0.792265	city	9	1	0.860480	0.860480	0	1	0	0	CorrectCommission	0.681145	0.580511	1	0
62.307785	0.792278	city	2	1	0.744803	0.744803	0	1	0	0	CorrectCommission	0.132041	0.579621	1	0
63.100052	0.792254	city	8	1	0.647429	0.647429	0	1	0	0	CorrectCommission	0.816558	0.577647	1	0
63.892330	0.792299	city	6	1	0.596617	0.596617	0	1	0	0	CorrectCommission	1.173757	0.574374	1	0
64.684608	0.792256	city	10	1	0.596354	0.596354	0	1	0	0	CorrectCommission	1.175606	0.569886	1	0
65.476883	0.792296	city	8	1	0.695730	0.695730	0	1	0	0	CorrectCommission	0.477016	0.564630	1	0
66.269188	0.792316	mountain	4	1	0.749256	0.749256	0	0	1	0	CommissionError	0.100734	0.559444	1	0
67.061455	0.792225	mountain	10	0	0.000000	0.846644	1	0	0	0	CorrectOmission	0.583885	0.555480	1	0
67.853668	0.792201	city	9	1	0.893251	0.893251	0	1	0	0	CorrectCommission	0.911519	0.553999	1	1
68.645958	0.792367	city	8	1	0.794433	0.794433	0	1	0	0	CorrectCommission	0.216849	0.556267	1	1
69.438324	0.792375	city	9	1	0.744753	0.744753	0	1	0	0	CorrectCommission	0.132391	0.563347	1	1
70.230644	0.792265	city	1	1	0.695220	0.695220	0	1	0	0	CorrectCommission	0.480602	0.575935	1	1
71.022858	0.792154	mountain	1	0	0.000000	0.759101	1	0	0	0	CorrectOmission	0.031527	0.594280	1	1
71.815010	0.792157	city	7	1	0.843762	0.843762	0	1	0	0	CorrectCommission	0.563622	0.618198	1	1
72.607330	0.792482	city	6	1	0.856566	0.856566	0	1	0	0	CorrectCommission	0.653631	0.647102	1	1
73.399597	0.792045	city	7	1	0.893224	0.893224	0	1	0	0	CorrectCommission	0.911333	0.680124	0	1
74.191750	0.792268	city	8	1	0.893570	0.893570	0	1	0	0	CorrectCommission	0.913763	0.716225	0	1
74.984123	0.792480	city	1	1	0.855133	0.855133	0	1	0	0	CorrectCommission	0.643561	0.754309	0	1
75.776443	0.792157	city	4	1	0.998456	0.998456	0	1	0	0	CorrectCommission	1.651089	0.793237	0	1
76.568604	0.792156	city	2	1	0.843703	0.843703	0	1	0	0	CorrectCommission	0.563209	0.831770	0	1
77.360832	0.792313	city	4	1	0.794797	0.794797	0	1	0	0	CorrectCommission	0.219411	0.868567	0	1
78.153099	0.792216	city	2	1	0.843921	0.843921	0	1	0	0	CorrectCommission	0.564739	0.902059	0	1
78.945358	0.792303	city	10	1	0.893528	0.893528	0	1	0	0	CorrectCommission	0.913465	0.930417	0	1
79.737663	0.792300	city	4	1	0.943309	0.943309	0	1	0	0	CorrectCommission	1.263419	0.951647	0	1
80.530014	0.792409	city	7	1	0.893281	0.893281	0	1	0	0	CorrectCommission	0.911733	0.963724	0	1
81.322350	0.792263	city	6	1	0.904650	0.904650	0	1	0	0	CorrectCommission	0.991652	0.964844	0	1
82.114563	0.792158	city	1	1	1.140727	1.140727	0	1	0	0	CorrectCommission	2.651230	0.953670	0	1
82.906723	0.792159	city	5	0	0.000000	0.864281	0	0	0	1	OmissionError	0.707867	0.929575	0	1
83.698982	0.792369	city	7	1	0.546704	0.546704	0	1	0	0	CorrectCommission	1.524641	0.892893	0	1
84.491302	0.792264	city	5	1	0.659387	0.659387	0	1	0	0	CorrectCommission	0.732502	0.844860	0	1
85.283623	0.792374	city	10	1	0.645678	0.645678	0	1	0	0	CorrectCommission	0.828873	0.787614	0	1
86.075829	0.792048	city	9	1	0.645580	0.645580	0	1	0	0	CorrectCommission	0.829557	0.723967	0	1
86.867989	0.792264	city	1	1	0.647451	0.647451	0	1	0	0	CorrectCommission	0.816403	0.657148	0	1
87.660248	0.792264	city	8	1	0.698825	0.698825	0	1	0	0	CorrectCommission	0.455254	0.590454	1	1
88.452515	0.792269	city	1	1	0.758432	0.758432	0	1	0	0	CorrectCommission	0.036228	0.526968	1	1
89.244835	0.792370	mountain	6	0	0.000000	0.767406	1	0	0	0	CorrectOmission	0.026854	0.469258	1	1
90.037155	0.792266	city	1	1	0.744687	0.744687	0	1	0	0	CorrectCommission	0.132854	0.419218	1	1
90.829369	0.792158	city	4	1	0.709218	0.709218	0	1	0	0	CorrectCommission	0.382196	0.377986	1	1
91.621597	0.792300	city	1	1	0.744818	0.744818	0	1	0	0	CorrectCommission	0.131937	0.345973	1	1
92.413857	0.792230	city	7	1	0.811746	0.811746	0	1	0	0	CorrectCommission	0.338560	0.322984	1	1
93.206139	0.792335	mountain	1	0	0.000000	0.817988	1	0	0	0	CorrectOmission	0.382437	0.308323	1	1
93.998405	0.792193	mountain	6	0	0.000000	0.787649	1	0	0	0	CorrectOmission	0.169157	0.301020	1	1
94.790634	0.792261	city	4	1	0.744835	0.744835	0	1	0	0	CorrectCommission	0.131816	0.299977	1	1
95.582954	0.792375	city	10	1	0.713653	0.713653	0	1	0	0	CorrectCommission	0.351022	0.304086	1	1
96.375275	0.792265	city	1	1	0.744852	0.744852	0	1	0	0	CorrectCommission	0.131695	0.312310	1	1
97.167534	0.792265	city	2	1	0.808414	0.808414	0	1	0	0	CorrectCommission	0.315133	0.323755	1	1
97.959755	0.792174	city	7	1	0.844300	0.844300	0	1	0	0	CorrectCommission	0.567407	0.337667	1	1
98.751968	0.792248	city	1	1	0.794266	0.794266	0	1	0	0	CorrectCommission	0.215672	0.353425	1	1
99.544273	0.792373	city	8	1	0.843906	0.843906	0	1	0	0	CorrectCommission	0.564635	0.370486	1	1
100.336647	0.792374	city	2	1	0.794332	0.794332	0	1	0	0	CorrectCommission	0.216139	0.388372	1	1
101.128914	0.792156	city	8	1	0.751711	0.751711	0	1	0	0	CorrectCommission	0.083477	0.406611	1	1
101.921104	0.792216	city	7	1	0.844439	0.844439	0	1	0	0	CorrectCommission	0.568384	0.424714	1	1
102.713310	0.792207	city	10	1	0.695187	0.695187	0	1	0	0	CorrectCommission	0.480833	0.442145	1	1
103.505554	0.792276	city	8	1	0.646068	0.646068	0	1	0	0	CorrectCommission	0.826125	0.458344	1	1
104.297844	0.792304	city	3	1	0.794263	0.794263	0	1	0	0	CorrectCommission	0.215656	0.472760	1	1
105.090103	0.792213	city	10	1	0.695200	0.695200	0	1	0	0	CorrectCommission	0.480743	0.484917	1	1
105.882339	0.792264	city	8	1	0.695290	0.695290	0	1	0	0	CorrectCommission	0.480105	0.494441	1	1
106.674622	0.792299	city	10	1	0.646697	0.646697	0	1	0	0	CorrectCommission	0.821704	0.501119	1	1
107.466888	0.792231	mountain	9	0	0.000000	0.668460	1	0	0	0	CorrectOmission	0.668718	0.504945	1	1
108.259132	0.792262	city	10	1	0.744768	0.744768	0	1	0	0	CorrectCommission	0.132286	0.506145	1	1
109.051407	0.792284	city	8	1	0.859812	0.859812	0	1	0	0	CorrectCommission	0.676450	0.505184	1	1
109.843674	0.792251	city	3	1	0.860198	0.860198	0	1	0	0	CorrectCommission	0.679164	0.502682	1	1
110.635986	0.792369	city	6	1	0.893348	0.893348	0	1	0	0	CorrectCommission	0.912204	0.499382	1	1
111.428299	0.792264	city	5	1	0.794217	0.794217	0	1	0	0	CorrectCommission	0.215328	0.496029	1	1
112.220551	0.792238	city	2	1	0.702432	0.702432	0	1	0	0	CorrectCommission	0.429900	0.493288	1	1
113.012871	0.792401	city	7	1	0.794442	0.794442	0	1	0	0	CorrectCommission	0.216909	0.491569	1	1
113.805092	0.792047	city	1	1	0.744877	0.744877	0	1	0	0	CorrectCommission	0.131522	0.490996	1	1
114.597260	0.792283	city	8	1	0.695196	0.695196	0	1	0	0	CorrectCommission	0.480771	0.491366	1	1
115.389526	0.792248	city	9	1	0.713744	0.713744	0	1	0	0	CorrectCommission	0.350376	0.492155	1	1
116.181786	0.792268	city	2	1	0.645893	0.645893	0	1	0	0	CorrectCommission	0.827361	0.492652	1	1
116.974052	0.792265	city	5	1	0.645779	0.645779	0	1	0	0	CorrectCommission	0.828157	0.492025	1	1
117.766312	0.792264	city	3	1	0.657286	0.657286	0	1	0	0	CorrectCommission	0.747271	0.489505	1	1
118.558578	0.792261	city	2	1	0.755943	0.755943	0	1	0	0	CorrectCommission	0.053728	0.484501	1	1
119.350838	0.792262	city	4	1	0.843818	0.843818	0	1	0	0	CorrectCommission	0.564018	0.476685	1	1
120.143105	0.792268	mountain	4	0	0.000000	0.869570	1	0	0	0	CorrectOmission	0.745050	0.466036	1	1
120.935371	0.792265	city	10	1	0.848489	0.848489	0	1	0	0	CorrectCommission	0.596850	0.452850	1	1
121.727638	0.792279	city	7	1	0.795863	0.795863	0	1	0	0	CorrectCommission	0.226902	0.437735	1	1
122.519905	0.792250	city	9	1	0.695289	0.695289	0	1	0	0	CorrectCommission	0.480111	0.421524	1	1
123.312271	0.792483	city	4	1	0.695409	0.695409	0	1	0	0	CorrectCommission	0.479267	0.405192	1	1
124.104591	0.792154	city	5	1	0.695145	0.695145	0	1	0	0	CorrectCommission	0.481125	0.389765	1	1
124.896744	0.792160	city	6	1	0.747226	0.747226	0	1	0	0	CorrectCommission	0.115004	0.376230	1	1
125.689011	0.792372	city	1	1	0.745068	0.745068	0	1	0	0	CorrectCommission	0.130178	0.365449	1	1
126.481285	0.792173	city	7	1	0.744816	0.744816	0	1	0	0	CorrectCommission	0.131946	0.358060	1	1
127.273499	0.792246	city	8	1	0.645876	0.645876	0	1	0	0	CorrectCommission	0.827481	0.354430	1	0
128.065796	0.792342	city	9	1	0.744764	0.744764	0	1	0	0	CorrectCommission	0.132314	0.354621	1	0
128.858170	0.792406	city	3	1	0.744685	0.744685	0	1	0	0	CorrectCommission	0.132867	0.358405	1	0
129.650497	0.792265	city	5	1	0.708835	0.708835	0	1	0	0	CorrectCommission	0.384885	0.365243	1	0
130.442657	0.792051	mountain	1	0	0.000000	0.786207	1	0	0	0	CorrectOmission	0.159023	0.374340	1	0
131.234863	0.792369	city	7	1	0.843833	0.843833	0	1	0	0	CorrectCommission	0.564123	0.384744	1	0
132.027237	0.792374	city	2	1	0.748746	0.748746	0	1	0	0	CorrectCommission	0.104321	0.395420	1	0
132.819458	0.792054	city	8	1	0.700025	0.700025	0	1	0	0	CorrectCommission	0.446823	0.405408	1	0
133.611603	0.792261	city	7	1	0.660717	0.660717	0	1	0	0	CorrectCommission	0.723152	0.413935	1	0
134.403870	0.792266	city	9	1	0.695353	0.695353	0	1	0	0	CorrectCommission	0.479661	0.420509	1	0
135.196198	0.792370	city	3	1	0.645858	0.645858	0	1	0	0	CorrectCommission	0.827606	0.425034	1	0
135.988556	0.792372	city	4	1	0.695139	0.695139	0	1	0	0	CorrectCommission	0.481166	0.427805	1	0
136.780777	0.792052	city	1	1	0.695483	0.695483	0	1	0	0	CorrectCommission	0.478751	0.429479	1	0
137.572983	0.792370	city	5	1	0.794611	0.794611	0	1	0	0	CorrectCommission	0.218101	0.430937	1	0
138.365265	0.792190	city	8	1	0.709479	0.709479	0	1	0	0	CorrectCommission	0.380359	0.433178	1	0
139.157486	0.792242	city	4	1	0.794596	0.794596	0	1	0	0	CorrectCommission	0.217992	0.437102	1	0
139.949722	0.792257	city	6	1	0.695427	0.695427	0	1	0	0	CorrectCommission	0.479146	0.443388	1	0
140.741989	0.792259	city	1	1	0.744898	0.744898	0	1	0	0	CorrectCommission	0.131375	0.452356	1	0
141.534256	0.792265	mountain	9	0	0.000000	0.720251	1	0	0	0	CorrectOmission	0.304633	0.463928	1	0
142.326569	0.792374	city	5	1	0.745062	0.745062	0	1	0	0	CorrectCommission	0.130221	0.477620	1	0
143.118881	0.792264	city	7	1	0.942902	0.942902	0	1	0	0	CorrectCommission	1.260560	0.492622	1	0
143.911118	0.792201	city	10	1	0.845455	0.845455	0	1	0	0	CorrectCommission	0.575523	0.507880	1	0
144.703339	0.792219	city	2	1	0.843825	0.843825	0	1	0	0	CorrectCommission	0.564065	0.522258	1	0
145.495575	0.792267	city	3	1	0.744895	0.744895	0	1	0	0	CorrectCommission	0.131393	0.534660	1	0
146.287857	0.792306	city	5	1	0.705168	0.705168	0	1	0	0	CorrectCommission	0.410667	0.544150	1	0
147.080231	0.792440	city	1	1	0.645697	0.645697	0	1	0	0	CorrectCommission	0.828738	0.550010	1	0
147.872482	0.792052	mountain	8	0	0.000000	0.846913	1	0	0	0	CorrectOmission	0.585770	0.551837	1	0
148.664642	0.792260	city	9	1	0.999918	0.999918	0	1	0	0	CorrectCommission	1.661366	0.549547	1	0
149.456909	0.792286	city	5	1	0.795814	0.795814	0	1	0	0	CorrectCommission	0.226560	0.543346	1	0
150.249191	0.792283	city	2	1	0.695352	0.695352	0	1	0	0	CorrectCommission	0.479671	0.533731	1	0
151.041443	0.792223	city	8	1	0.795237	0.795237	0	1	0	0	CorrectCommission	0.222499	0.521313	1	0
151.833694	0.792271	city	5	1	0.702860	0.702860	0	1	0	0	CorrectCommission	0.426889	0.506815	1	0
152.625961	0.792270	city	10	1	0.749554	0.749554	0	1	0	0	CorrectCommission	0.098642	0.490976	1	0
153.418228	0.792256	city	6	1	0.900342	0.900342	0	1	0	0	CorrectCommission	0.961367	0.474552	1	0
154.210480	0.792263	city	7	1	0.794428	0.794428	0	1	0	0	CorrectCommission	0.216816	0.458290	1	0
155.002808	0.792375	city	4	1	0.664173	0.664173	0	1	0	0	CorrectCommission	0.698851	0.443001	1	0
155.795074	0.792154	city	3	1	0.652698	0.652698	0	1	0	0	CorrectCommission	0.779520	0.429500	1	0
156.587280	0.792279	city	5	1	0.695326	0.695326	0	1	0	0	CorrectCommission	0.479854	0.418629	1	0
157.379547	0.792254	city	2	1	0.745232	0.745232	0	1	0	0	CorrectCommission	0.129022	0.411199	1	0
158.171829	0.792305	city	3	1	0.744776	0.744776	0	1	0	0	CorrectCommission	0.132230	0.407914	1	0
158.964096	0.792225	city	5	1	0.744751	0.744751	0	1	0	0	CorrectCommission	0.132404	0.409259	1	0
159.756348	0.792264	city	4	1	0.762731	0.762731	0	1	0	0	CorrectCommission	0.006007	0.415438	1	0
160.548615	0.792265	city	5	1	0.843838	0.843838	0	1	0	0	CorrectCommission	0.564154	0.426297	1	0
161.340897	0.792314	city	6	1	0.844297	0.844297	0	1	0	0	CorrectCommission	0.567381	0.441345	1	0
162.133270	0.792428	city	7	1	0.794246	0.794246	0	1	0	0	CorrectCommission	0.215535	0.459821	1	0
162.925507	0.792048	city	1	1	0.697427	0.697427	0	1	0	0	CorrectCommission	0.465082	0.480786	1	0
163.717667	0.792265	city	5	1	0.794275	0.794275	0	1	0	0	CorrectCommission	0.215738	0.503213	1	0
164.510040	0.792482	mountain	8	0	0.000000	0.920188	1	0	0	0	CorrectOmission	1.100884	0.526116	1	0
165.302307	0.792045	city	5	1	0.960583	0.960583	0	1	0	0	CorrectCommission	1.384855	0.548614	1	0
166.094467	0.792302	city	10	1	0.800878	0.800878	0	1	0	0	CorrectCommission	0.262153	0.569965	1	0
166.886734	0.792229	city	1	1	0.746967	0.746967	0	1	0	0	CorrectCommission	0.116824	0.589620	1	0
167.679092	0.792482	city	10	1	0.794312	0.794312	0	1	0	0	CorrectCommission	0.215997	0.607129	1	0
168.471420	0.792155	city	2	1	0.794164	0.794164	0	1	0	0	CorrectCommission	0.214959	0.622144	1	0
169.263565	0.792157	mountain	8	0	0.000000	0.908275	1	0	0	0	CorrectOmission	1.017137	0.634409	1	0
170.055832	0.792372	city	10	1	0.992474	0.992474	0	1	0	0	CorrectCommission	1.609042	0.643753	1	0
170.848099	0.792158	city	5	1	0.902592	0.902592	0	1	0	0	CorrectCommission	0.977187	0.650094	1	0
171.640305	0.792265	city	7	1	0.844258	0.844258	0	1	0	0	CorrectCommission	0.567109	0.653484	0	0
172.432571	0.792263	city	3	1	0.747738	0.747738	0	1	0	0	CorrectCommission	0.111409	0.654044	0	0
173.224854	0.792282	city	1	1	0.711840	0.711840	0	1	0	0	CorrectCommission	0.363766	0.651946	0	0
174.017105	0.792249	city	2	1	0.661404	0.661404	0	1	0	0	CorrectCommission	0.718321	0.647370	1	0
174.809372	0.792269	city	5	1	0.645845	0.645845	0	1	0	0	CorrectCommission	0.827693	0.640475	1	0
175.601639	0.792275	city	8	1	0.645733	0.645733	0	1	0	0	CorrectCommission	0.828482	0.631388	1	0
176.393906	0.792255	city	9	1	0.862643	0.862643	0	1	0	0	CorrectCommission	0.696350	0.620186	1	0
177.186279	0.792478	city	7	1	0.893416	0.893416	0	1	0	0	CorrectCommission	0.912680	0.606915	1	0
177.978577	0.792121	city	8	1	0.843607	0.843607	0	1	0	0	CorrectCommission	0.562532	0.591589	1	0
178.770737	0.792194	city	6	1	0.794282	0.794282	0	1	0	0	CorrectCommission	0.215786	0.574254	1	0
179.563019	0.792369	city	2	1	0.794301	0.794301	0	1	0	0	CorrectCommission	0.215924	0.555007	1	0
180.355331	0.792266	city	7	1	0.843745	0.843745	0	1	0	0	CorrectCommission	0.563505	0.534046	1	0
181.147598	0.792264	city	5	1	0.900450	0.900450	0	1	0	0	CorrectCommission	0.962130	0.511723	1	0
181.939865	0.792266	city	6	1	0.893295	0.893295	0	1	0	0	CorrectCommission	0.911833	0.488591	1	0
182.732086	0.792194	city	5	1	0.844607	0.844607	0	1	0	0	CorrectCommission	0.569563	0.465445	1	0
183.524414	0.792442	city	8	1	0.794241	0.794241	0	1	0	0	CorrectCommission	0.215499	0.443334	1	0
184.316757	0.792265	city	9	1	0.794108	0.794108	0	1	0	0	CorrectCommission	0.214568	0.423475	1	0
185.108917	0.792053	city	4	1	0.744581	0.744581	0	1	0	0	CorrectCommission	0.133600	0.407186	1	0
185.901138	0.792367	city	1	1	0.707078	0.707078	0	1	0	0	CorrectCommission	0.397238	0.395779	1	0
186.693405	0.792181	mountain	9	0	0.000000	0.707120	1	0	0	0	CorrectOmission	0.396944	0.390421	1	1
187.485641	0.792294	mountain	1	0	0.000000	0.725942	1	0	0	0	CorrectOmission	0.264630	0.392033	1	1
188.277893	0.792211	city	1	1	0.744779	0.744779	0	1	0	0	CorrectCommission	0.132208	0.401180	1	1
189.070236	0.792483	city	10	1	0.744867	0.744867	0	1	0	0	CorrectCommission	0.131590	0.417986	1	1
189.862610	0.792264	city	1	1	0.801133	0.801133	0	1	0	0	CorrectCommission	0.263949	0.442087	1	1
190.654831	0.792157	mountain	7	0	0.000000	0.854373	1	0	0	0	CorrectOmission	0.638219	0.472575	1	1
191.447006	0.792205	city	3	1	0.845612	0.845612	0	1	0	0	CorrectCommission	0.576627	0.508021	1	1
192.239212	0.792216	city	1	1	0.715873	0.715873	0	1	0	0	CorrectCommission	0.335415	0.546523	1	1
193.031464	0.792266	mountain	10	0	0.000000	0.797444	1	0	0	0	CorrectOmission	0.238016	0.585816	1	1
193.823776	0.792371	city	7	1	0.893323	0.893323	0	1	0	0	CorrectCommission	0.912028	0.623409	1	1
194.616058	0.792184	city	6	1	0.806507	0.806507	0	1	0	0	CorrectCommission	0.301727	0.656765	0	1
195.408264	0.792236	city	8	1	0.599964	0.599964	0	1	0	0	CorrectCommission	1.150233	0.683585	0	1
196.200516	0.792271	city	4	1	0.645788	0.645788	0	1	0	0	CorrectCommission	0.828098	0.702022	0	1
196.992783	0.792262	city	6	1	0.614475	0.614475	0	1	0	0	CorrectCommission	1.048221	0.710936	0	1
197.785156	0.792479	city	1	1	0.546838	0.546838	0	1	0	0	CorrectCommission	1.523696	0.710033	0	1
198.577423	0.792047	city	3	1	0.546490	0.546490	0	1	0	0	CorrectCommission	1.526146	0.699909	0	1
199.369690	0.792483	city	1	1	0.794438	0.794438	0	1	0	0	CorrectCommission	0.216885	0.682001	0	1
200.162003	0.792155	city	8	1	0.701594	0.701594	0	1	0	0	CorrectCommission	0.435788	0.658435	0	1
200.954178	0.792210	city	3	1	0.695143	0.695143	0	1	0	0	CorrectCommission	0.481144	0.631672	1	1
201.746399	0.792209	mountain	4	0	0.000000	0.818232	1	0	0	0	CorrectOmission	0.384148	0.604235	1	1
202.538635	0.792267	city	1	1	0.894098	0.894098	0	1	0	0	CorrectCommission	0.917474	0.578393	1	1
203.331009	0.792482	city	5	1	0.745978	0.745978	0	1	0	0	CorrectCommission	0.123781	0.555881	1	1
204.123322	0.792155	city	8	1	0.744674	0.744674	0	1	0	0	CorrectCommission	0.132946	0.537814	1	1
204.915527	0.792263	city	4	1	0.696122	0.696122	0	1	0	0	CorrectCommission	0.474261	0.524551	1	1
205.707779	0.792218	mountain	5	0	0.000000	0.784825	1	0	0	0	CorrectOmission	0.149308	0.515828	1	1
206.499985	0.792207	city	6	1	0.843982	0.843982	0	1	0	0	CorrectCommission	0.565171	0.510937	1	1
207.292236	0.792296	city	7	1	0.706790	0.706790	0	1	0	0	CorrectCommission	0.399267	0.508938	1	1
208.084610	0.792448	city	5	1	0.596382	0.596382	0	1	0	0	CorrectCommission	1.175415	0.508913	1	1
208.876892	0.792103	city	7	1	0.893236	0.893236	0	1	0	0	CorrectCommission	0.911417	0.510209	1	1
209.669037	0.792211	city	8	1	0.845984	0.845984	0	1	0	0	CorrectCommission	0.579241	0.512597	1	1
210.461288	0.792266	city	6	1	0.754191	0.754191	0	1	0	0	CorrectCommission	0.066048	0.516312	1	1
211.253662	0.792479	city	9	1	0.695440	0.695440	0	1	0	0	CorrectCommission	0.479052	0.521991	1	1
212.045914	0.792052	city	10	1	0.744573	0.744573	0	1	0	0	CorrectCommission	0.133655	0.530543	1	1
212.838181	0.792477	city	7	1	0.645660	0.645660	0	1	0	0	CorrectCommission	0.828998	0.542979	1	1
213.630508	0.792156	city	2	1	0.704054	0.704054	0	1	0	0	CorrectCommission	0.418501	0.560157	1	1
214.422714	0.792265	city	1	1	0.712861	0.712861	0	1	0	0	CorrectCommission	0.356589	0.582630	1	1
215.214920	0.792157	city	10	1	0.645909	0.645909	0	1	0	0	CorrectCommission	0.827246	0.610434	1	1
216.007126	0.792263	city	8	1	0.715486	0.715486	0	1	0	0	CorrectCommission	0.338134	0.642992	1	1
216.799393	0.792266	city	9	1	0.794311	0.794311	0	1	0	0	CorrectCommission	0.215993	0.679116	0	1
217.591660	0.792268	city	1	1	0.695463	0.695463	0	1	0	0	CorrectCommission	0.478889	0.717039	0	1
218.384033	0.792481	city	5	1	0.711285	0.711285	0	1	0	0	CorrectCommission	0.367669	0.754561	0	1
219.176300	0.792051	city	6	1	1.044359	1.044359	0	1	0	0	CorrectCommission	1.973778	0.789308	0	1
219.968460	0.792262	city	8	1	0.695368	0.695368	0	1	0	0	CorrectCommission	0.479559	0.818942	0	1
220.760773	0.792372	city	3	1	0.598634	0.598634	0	1	0	0	CorrectCommission	1.159582	0.841561	0	1
221.553040	0.792157	city	8	1	0.547419	0.547419	0	1	0	0	CorrectCommission	1.519611	0.855830	0	1
222.345261	0.792267	city	2	1	0.553820	0.553820	0	1	0	0	CorrectCommission	1.474612	0.861216	0	1
223.137512	0.792262	city	8	1	0.753787	0.753787	0	1	0	0	CorrectCommission	0.068881	0.858086	0	1
223.929779	0.792264	mountain	5	0	0.000000	0.934769	1	0	0	0	CorrectOmission	1.203381	0.847648	0	1
224.722107	0.792372	city	6	1	0.950024	0.950024	0	1	0	0	CorrectCommission	1.310626	0.831786	0	1
225.514359	0.792160	city	8	1	0.652815	0.652815	0	1	0	0	CorrectCommission	0.778695	0.812915	0	1
226.306580	0.792260	mountain	2	0	0.000000	0.674009	1	0	0	0	CorrectOmission	0.629709	0.793700	0	1
227.098831	0.792264	city	7	1	0.744770	0.744770	0	1	0	0	CorrectCommission	0.132275	0.776791	0	1
227.891159	0.792375	city	8	1	0.596263	0.596263	0	1	0	0	CorrectCommission	1.176251	0.764549	0	1
228.683426	0.792154	mountain	7	0	0.000000	0.719340	1	0	0	0	CorrectOmission	0.311038	0.758787	0	1
229.475693	0.792376	city	3	1	0.843966	0.843966	0	1	0	0	CorrectCommission	0.565054	0.760692	0	1
230.267944	0.792154	city	5	1	0.700101	0.700101	0	1	0	0	CorrectCommission	0.446287	0.770644	0	1
231.060272	0.792485	city	3	1	0.648751	0.648751	0	1	0	0	CorrectCommission	0.807264	0.788286	0	1
231.852539	0.792045	mountain	10	0	0.000000	0.803758	1	0	0	0	CorrectOmission	0.282404	0.812561	0	1
232.644730	0.792331	city	6	1	0.893349	0.893349	0	1	0	0	CorrectCommission	0.912209	0.841891	0	1
233.437103	0.792418	city	9	1	0.645751	0.645751	0	1	0	0	CorrectCommission	0.828355	0.874360	0	1
234.229324	0.792045	city	7	1	0.561303	0.561303	0	1	0	0	CorrectCommission	1.422008	0.907931	0	1
235.021484	0.792270	mountain	9	0	0.000000	0.581223	1	0	0	0	CorrectOmission	1.281976	0.940600	0	1
235.813812	0.792371	city	2	1	0.645752	0.645752	0	1	0	0	CorrectCommission	0.828347	0.970636	0	1
236.606064	0.792157	city	6	1	0.695134	0.695134	0	1	0	0	CorrectCommission	0.481206	0.996603	0	1
237.398285	0.792275	city	1	1	0.596230	0.596230	0	1	0	0	CorrectCommission	1.176481	1.017494	0	1
238.190659	0.792470	city	9	1	1.091919	1.091919	0	1	0	0	CorrectCommission	2.308118	1.032660	0	1
238.983032	0.792264	city	2	1	0.647907	0.647907	0	1	0	0	CorrectCommission	0.813200	1.041782	0	1
239.775238	0.792155	city	4	1	0.699807	0.699807	0	1	0	0	CorrectCommission	0.448355	1.044868	0	1
240.567398	0.792161	city	10	1	0.560546	0.560546	0	1	0	0	CorrectCommission	1.427335	1.042102	0	1
241.359665	0.792369	city	9	1	0.664113	0.664113	0	1	0	0	CorrectCommission	0.699273	1.033750	0	1
242.151932	0.792182	city	3	1	0.556076	0.556076	0	1	0	0	CorrectCommission	1.458757	1.020167	0	1
242.944199	0.792348	city	7	1	0.645846	0.645846	0	1	0	0	CorrectCommission	0.827691	1.001718	0	1
243.736450	0.792157	mountain	9	0	0.000000	0.602321	1	0	0	0	CorrectOmission	1.133663	0.978820	0	1
244.528656	0.792267	city	3	1	0.558217	0.558217	0	1	0	0	CorrectCommission	1.443701	0.951933	0	1
245.321030	0.792480	city	4	1	0.646252	0.646252	0	1	0	0	CorrectCommission	0.824837	0.921545	0	1
246.113297	0.792051	city	10	1	0.596780	0.596780	0	1	0	0	CorrectCommission	1.172615	0.888266	0	0
246.905487	0.792306	city	6	1	0.794386	0.794386	0	1	0	0	CorrectCommission	0.216520	0.852789	0	0
247.697769	0.792279	mountain	5	0	0.000000	0.702901	1	0	0	0	CorrectOmission	0.426606	0.815963	0	0
248.490036	0.792232	city	6	1	0.560601	0.560601	0	1	0	0	CorrectCommission	1.426945	0.778751	0	0
249.282272	0.792241	city	9	1	0.605765	0.605765	0	1	0	0	CorrectCommission	1.109449	0.742269	0	0
250.074539	0.792290	mountain	5	1	0.748396	0.748396	0	0	1	0	CommissionError	0.106784	0.707803	0	0
250.866898	0.792452	city	9	1	0.942819	0.942819	0	1	0	0	CorrectCommission	1.259974	0.676889	0	0
251.659134	0.791995	city	5	1	0.744575	0.744575	0	1	0	0	CorrectCommission	0.133640	0.651079	1	0
252.451279	0.792317	city	7	1	0.843861	0.843861	0	1	0	0	CorrectCommission	0.564319	0.632079	1	0
253.243683	0.792481	city	8	1	0.697061	0.697061	0	1	0	0	CorrectCommission	0.467659	0.621499	1	0
254.035950	0.792050	city	1	1	0.794099	0.794099	0	1	0	0	CorrectCommission	0.214502	0.620810	1	0
254.828110	0.792263	city	6	1	0.895848	0.895848	0	1	0	0	CorrectCommission	0.929775	0.631122	1	0
255.620422	0.792371	city	5	1	0.758738	0.758738	0	1	0	0	CorrectCommission	0.034082	0.653020	0	0
256.412689	0.792160	city	4	1	0.850179	0.850179	0	1	0	0	CorrectCommission	0.608735	0.686481	0	0
257.205017	0.792479	city	9	1	0.810037	0.810037	0	1	0	0	CorrectCommission	0.326542	0.730693	0	0
257.997314	0.792155	city	4	1	0.844040	0.844040	0	1	0	0	CorrectCommission	0.565574	0.784004	0	0
258.789490	0.792186	city	5	1	0.843710	0.843710	0	1	0	0	CorrectCommission	0.563259	0.843955	0	0
259.581757	0.792343	city	4	1	0.956961	0.956961	0	1	0	0	CorrectCommission	1.359393	0.907395	0	0
260.374054	0.792267	city	3	1	0.695162	0.695162	0	1	0	0	CorrectCommission	0.481004	0.970695	0	0
261.166290	0.792170	city	2	1	0.645741	0.645741	0	1	0	0	CorrectCommission	0.828429	1.030072	0	0
261.958588	0.792468	city	10	1	0.547014	0.547014	0	1	0	0	CorrectCommission	1.522462	1.081964	0	0
262.750854	0.792045	city	2	0	0.000000	0.487042	0	0	0	1	OmissionError	1.944052	1.123443	0	0
263.543060	0.792373	city	8	1	0.497196	0.497196	0	1	0	0	CorrectCommission	1.872670	1.152595	0	0
264.335327	0.792156	city	4	1	0.608847	0.608847	0	1	0	0	CorrectCommission	1.087785	1.168823	0	0
265.127533	0.792266	city	1	1	0.808145	0.808145	0	1	0	0	CorrectCommission	0.313243	1.172979	0	0
265.919800	0.792264	mountain	10	1	1.338996	1.338996	0	0	1	0	CommissionError	4.045020	1.167213	0	0
266.712067	0.792266	mountain	6	1	0.794280	0.794280	0	0	1	0	CommissionError	0.215777	1.154633	0	0
267.504364	0.792296	city	7	1	0.992781	0.992781	0	1	0	0	CorrectCommission	1.611198	1.139084	0	0
268.296631	0.792233	city	9	1	0.746458	0.746458	0	1	0	0	CorrectCommission	0.120403	1.124254	0	0
269.088867	0.792266	city	2	1	0.600141	0.600141	0	1	0	0	CorrectCommission	1.148986	1.113246	0	0
269.881195	0.792372	city	9	1	0.751649	0.751649	0	1	0	0	CorrectCommission	0.083913	1.107921	0	0
270.673492	0.792210	city	5	1	0.695170	0.695170	0	1	0	0	CorrectCommission	0.480951	1.108631	0	0
271.465698	0.792214	city	4	1	0.702856	0.702856	0	1	0	0	CorrectCommission	0.426917	1.114080	0	0
272.257935	0.792261	city	8	1	0.601205	0.601205	0	1	0	0	CorrectCommission	1.141503	1.121541	0	0
273.050201	0.792266	city	4	1	0.893448	0.893448	0	1	0	0	CorrectCommission	0.912909	1.127345	0	0
273.842468	0.792267	city	7	1	0.992796	0.992796	0	1	0	0	CorrectCommission	1.611305	1.127525	0	0
274.634735	0.792261	city	4	1	1.153434	1.153434	0	1	0	0	CorrectCommission	2.740555	1.118491	0	0
275.426971	0.792269	city	9	1	1.199535	1.199535	0	1	0	0	CorrectCommission	3.064638	1.097650	0	0
276.219238	0.792261	city	6	0	0.000000	0.880415	0	0	0	1	OmissionError	0.821284	1.063777	0	0
277.011505	0.792265	city	5	1	0.596248	0.596248	0	1	0	0	CorrectCommission	1.176352	1.017206	0	0
277.803772	0.792272	city	10	1	0.747211	0.747211	0	1	0	0	CorrectCommission	0.115111	0.959645	0	0
278.596039	0.792260	mountain	6	0	0.000000	0.788068	1	0	0	0	CorrectOmission	0.172106	0.893965	0	0
279.388428	0.792480	city	10	1	0.844369	0.844369	0	1	0	0	CorrectCommission	0.567890	0.823726	0	0
280.180695	0.792048	city	7	1	1.041663	1.041663	0	1	0	0	CorrectCommission	1.954831	0.752799	0	0
280.972839	0.792272	city	3	1	0.695285	0.695285	0	1	0	0	CorrectCommission	0.480144	0.685041	0	0
281.765106	0.792273	city	6	1	0.744920	0.744920	0	1	0	0	CorrectCommission	0.131215	0.624069	1	0
282.557434	0.792358	city	5	1	0.699228	0.699228	0	1	0	0	CorrectCommission	0.452421	0.573034	1	0
283.349792	0.792374	city	10	1	0.695187	0.695187	0	1	0	0	CorrectCommission	0.480832	0.534417	1	0
284.142059	0.792156	city	1	1	0.760323	0.760323	0	1	0	0	CorrectCommission	0.022937	0.510055	1	0
284.934204	0.792156	city	3	1	0.794170	0.794170	0	1	0	0	CorrectCommission	0.214997	0.500969	1	0
285.726471	0.792326	city	1	1	0.744773	0.744773	0	1	0	0	CorrectCommission	0.132255	0.507338	1	0
286.518829	0.792422	city	2	1	0.695186	0.695186	0	1	0	0	CorrectCommission	0.480838	0.528442	1	0
287.311066	0.792049	city	4	1	0.760603	0.760603	0	1	0	0	CorrectCommission	0.020967	0.562697	1	0
288.103271	0.792371	city	3	1	0.695479	0.695479	0	1	0	0	CorrectCommission	0.478780	0.607751	1	0
288.895538	0.792156	city	10	1	0.744675	0.744675	0	1	0	0	CorrectCommission	0.132941	0.660629	0	0
289.687744	0.792270	mountain	9	1	0.697189	0.697189	0	0	1	0	CommissionError	0.466759	0.717974	0	0
290.480042	0.792303	city	6	1	1.041878	1.041878	0	1	0	0	CorrectCommission	1.956341	0.776329	0	0
291.272308	0.792221	city	10	1	0.846160	0.846160	0	1	0	0	CorrectCommission	0.580478	0.832403	0	0
292.064575	0.792327	city	8	1	0.663408	0.663408	0	1	0	0	CorrectCommission	0.704232	0.883410	0	0
292.856903	0.792313	city	3	1	0.596214	0.596214	0	1	0	0	CorrectCommission	1.176590	0.927214	0	0
293.649170	0.792264	city	7	1	1.140941	1.140941	0	1	0	0	CorrectCommission	2.652732	0.962449	0	0
294.441498	0.792375	city	4	1	0.957777	0.957777	0	1	0	0	CorrectCommission	1.365129	0.988483	0	0
295.233704	0.792046	city	9	1	0.744551	0.744551	0	1	0	0	CorrectCommission	0.133810	1.005393	0	0
296.025879	0.792268	city	10	1	0.596266	0.596266	0	1	0	0	CorrectCommission	1.176225	1.013725	0	0
296.818176	0.792370	city	1	1	0.794282	0.794282	0	1	0	0	CorrectCommission	0.215784	1.014277	0	0
297.610443	0.792157	city	6	1	0.695231	0.695231	0	1	0	0	CorrectCommission	0.480519	1.008082	0	0
298.402679	0.792269	city	8	1	0.549336	0.549336	0	1	0	0	CorrectCommission	1.506132	0.996329	0	0
299.194946	0.792321	city	4	1	0.553227	0.553227	0	1	0	0	CorrectCommission	1.478783	0.980426	0	0
299.987335	0.792422	city	3	1	0.556121	0.556121	0	1	0	0	CorrectCommission	1.458438	0.962073	0	0
300.779572	0.792059	city	4	1	0.551478	0.551478	0	1	0	0	CorrectCommission	1.491075	0.943273	0	0
301.571838	0.792470	city	2	1	0.546742	0.546742	0	1	0	0	CorrectCommission	1.524368	0.926285	0	0
302.364105	0.792046	city	4	1	0.803244	0.803244	0	1	0	0	CorrectCommission	0.278786	0.913399	0	0
303.156250	0.792272	city	10	1	0.744898	0.744898	0	1	0	0	CorrectCommission	0.131374	0.906669	0	0
303.948639	0.792476	mountain	1	0	0.000000	0.710181	1	0	0	0	CorrectOmission	0.375427	0.907507	0	0
304.740875	0.792048	city	8	1	0.744548	0.744548	0	1	0	0	CorrectCommission	0.133831	0.916395	0	0
305.533051	0.792265	city	4	1	0.893455	0.893455	0	1	0	0	CorrectCommission	0.912958	0.932684	0	1
306.325317	0.792262	city	6	1	0.893691	0.893691	0	1	0	0	CorrectCommission	0.914616	0.954571	0	1
307.117584	0.792292	city	5	1	0.843780	0.843780	0	1	0	0	CorrectCommission	0.563748	0.979311	0	1
307.909851	0.792237	city	10	1	0.997279	0.997279	0	1	0	0	CorrectCommission	1.642819	1.003567	0	1
308.702118	0.792320	mountain	3	0	0.000000	0.822306	1	0	0	0	CorrectOmission	0.412790	1.023898	0	1
309.494446	0.792318	city	5	1	0.546641	0.546641	0	1	0	0	CorrectCommission	1.525079	1.037315	0	1
310.286682	0.792156	city	1	1	0.398067	0.398067	0	1	0	0	CorrectCommission	2.569528	1.041628	0	1
311.078888	0.792273	mountain	8	1	0.447753	0.447753	0	0	1	0	CommissionError	2.220248	1.035772	0	1
311.871216	0.792366	city	4	1	0.893324	0.893324	0	1	0	0	CorrectCommission	0.912032	1.019911	0	1
312.663483	0.792157	city	8	1	0.907267	0.907267	0	1	0	0	CorrectCommission	1.010049	0.995335	0	1
313.455811	0.792480	city	10	1	0.762277	0.762277	0	1	0	0	CorrectCommission	0.009198	0.964087	0	1
314.248077	0.792047	city	5	1	0.843656	0.843656	0	1	0	0	CorrectCommission	0.562877	0.928639	0	1
315.040222	0.792266	city	7	1	0.853670	0.853670	0	1	0	0	CorrectCommission	0.633277	0.891495	0	1
315.832489	0.792266	city	10	1	0.806286	0.806286	0	1	0	0	CorrectCommission	0.300174	0.854956	0	1
316.624756	0.792264	city	9	1	0.958857	0.958857	0	1	0	0	CorrectCommission	1.372719	0.821022	0	1
317.417023	0.792261	city	1	1	0.943448	0.943448	0	1	0	0	CorrectCommission	1.264396	0.791300	0	1
318.209320	0.792326	city	8	1	0.893864	0.893864	0	1	0	0	CorrectCommission	0.915832	0.767155	0	1
319.001587	0.792205	mountain	10	0	0.000000	0.883007	1	0	0	0	CorrectOmission	0.839505	0.749735	0	1
319.793915	0.792481	city	4	1	0.852845	0.852845	0	1	0	0	CorrectCommission	0.627476	0.740027	0	1
320.586182	0.792052	city	7	1	0.745350	0.745350	0	1	0	0	CorrectCommission	0.128195	0.738823	0	1
321.378357	0.792265	city	8	1	0.794906	0.794906	0	1	0	0	CorrectCommission	0.220171	0.746598	0	1
322.170593	0.792260	city	2	1	0.794544	0.794544	0	1	0	0	CorrectCommission	0.217633	0.763389	0	1
322.962982	0.792484	city	5	1	0.900398	0.900398	0	1	0	0	CorrectCommission	0.961759	0.788640	0	1
323.755280	0.792121	city	7	1	0.942658	0.942658	0	1	0	0	CorrectCommission	1.258842	0.821092	0	1
324.547455	0.792219	city	3	1	0.893269	0.893269	0	1	0	0	CorrectCommission	0.911648	0.858774	0	1
325.339722	0.792345	mountain	10	0	0.000000	0.744742	1	0	0	0	CorrectOmission	0.132467	0.899050	0	1
326.132050	0.792265	city	4	1	0.645674	0.645674	0	1	0	0	CorrectCommission	0.828901	0.938822	0	1
326.924255	0.792157	city	8	1	0.744659	0.744659	0	1	0	0	CorrectCommission	0.133052	0.974718	0	1
327.716461	0.792261	city	4	1	0.992806	0.992806	0	1	0	0	CorrectCommission	1.611370	1.003498	0	1
328.508820	0.792483	city	7	1	1.190459	1.190459	0	1	0	0	CorrectCommission	3.000836	1.022356	0	1
329.301086	0.792056	city	3	0	0.000000	0.949137	0	0	0	1	OmissionError	1.304391	1.029319	0	1
330.093262	0.792256	city	5	1	0.645929	0.645929	0	1	0	0	CorrectCommission	0.827106	1.023526	0	1
330.885529	0.792268	city	1	1	0.657922	0.657922	0	1	0	0	CorrectCommission	0.742799	1.005306	0	1
331.677795	0.792292	city	4	1	1.041984	1.041984	0	1	0	0	CorrectCommission	1.957084	0.976125	0	1
332.470062	0.792236	city	2	1	0.657419	0.657419	0	1	0	0	CorrectCommission	0.746332	0.938389	0	1
333.262329	0.792295	city	1	1	0.596237	0.596237	0	1	0	0	CorrectCommission	1.176429	0.895226	0	1
334.054596	0.792232	city	6	1	0.695468	0.695468	0	1	0	0	CorrectCommission	0.478854	0.850014	0	1
334.846954	0.792483	city	1	1	0.695293	0.695293	0	1	0	0	CorrectCommission	0.480084	0.806013	0	1
335.639221	0.792047	city	10	1	0.893039	0.893039	0	1	0	0	CorrectCommission	0.910029	0.765989	0	1
336.431366	0.792272	city	5	1	0.744761	0.744761	0	1	0	0	CorrectCommission	0.132336	0.731932	0	1
337.223633	0.792261	city	2	1	0.704465	0.704465	0	1	0	0	CorrectCommission	0.415611	0.704913	0	1
338.016022	0.792479	city	10	1	0.695373	0.695373	0	1	0	0	CorrectCommission	0.479526	0.685003	0	1
338.808289	0.792075	city	9	1	0.710877	0.710877	0	1	0	0	CorrectCommission	0.370533	0.671417	0	1
339.600433	0.792242	city	2	1	0.810029	0.810029	0	1	0	0	CorrectCommission	0.326486	0.662758	0	1
340.392700	0.792261	city	3	1	0.902594	0.902594	0	1	0	0	CorrectCommission	0.977200	0.657301	0	1
341.184967	0.792298	mountain	6	0	0.000000	0.954649	1	0	0	0	CorrectOmission	1.343136	0.653320	0	1
341.977234	0.792231	city	6	1	0.893332	0.893332	0	1	0	0	CorrectCommission	0.912091	0.649399	1	1
342.769501	0.792267	mountain	10	1	0.645782	0.645782	0	0	1	0	CommissionError	0.828137	0.644644	1	1
343.561768	0.792264	city	1	1	0.843822	0.843822	0	1	0	0	CorrectCommission	0.564044	0.638711	1	1
344.354004	0.792264	city	9	1	0.812601	0.812601	0	1	0	0	CorrectCommission	0.344569	0.631795	1	1
345.146332	0.792369	city	10	1	0.695276	0.695276	0	1	0	0	CorrectCommission	0.480208	0.624441	1	1
345.938690	0.792320	city	2	1	0.893418	0.893418	0	1	0	0	CorrectCommission	0.912694	0.617314	1	1
346.730896	0.792104	city	9	1	0.843958	0.843958	0	1	0	0	CorrectCommission	0.565000	0.610997	1	1
347.523071	0.792265	city	8	1	0.752055	0.752055	0	1	0	0	CorrectCommission	0.081059	0.605801	1	1
348.315369	0.792294	city	7	1	0.797287	0.797287	0	1	0	0	CorrectCommission	0.236912	0.601622	1	1
349.107635	0.792296	city	3	1	0.942849	0.942849	0	1	0	0	CorrectCommission	1.260183	0.597866	1	1
349.899933	0.792247	city	5	1	0.795068	0.795068	0	1	0	0	CorrectCommission	0.221315	0.593560	1	1
350.692169	0.792221	city	7	1	0.794300	0.794300	0	1	0	0	CorrectCommission	0.215916	0.587527	1	1
351.484467	0.792371	mountain	6	0	0.000000	0.910778	1	0	0	0	CorrectOmission	1.034729	0.578556	1	1
352.276703	0.792157	city	6	1	0.944485	0.944485	0	1	0	0	CorrectCommission	1.271685	0.565624	1	1
353.069031	0.792482	city	10	1	0.695406	0.695406	0	1	0	0	CorrectCommission	0.479289	0.548113	1	1
353.861298	0.792051	city	8	1	0.695089	0.695089	0	1	0	0	CorrectCommission	0.481523	0.525997	1	1
354.653473	0.792264	city	5	1	0.645762	0.645762	0	1	0	0	CorrectCommission	0.828283	0.499836	1	1
355.445740	0.792265	city	9	1	0.657093	0.657093	0	1	0	0	CorrectCommission	0.748624	0.470756	1	1
356.237976	0.792263	city	8	1	0.709381	0.709381	0	1	0	0	CorrectCommission	0.381051	0.440335	1	1
357.030304	0.792345	city	10	1	0.745357	0.745357	0	1	0	0	CorrectCommission	0.128145	0.410418	1	1
357.822571	0.792189	city	9	1	0.744697	0.744697	0	1	0	0	CorrectCommission	0.132784	0.382900	1	1
358.614777	0.792258	mountain	5	0	0.000000	0.776551	1	0	0	0	CorrectOmission	0.091141	0.359505	1	1
359.407104	0.792374	city	1	1	0.794310	0.794310	0	1	0	0	CorrectCommission	0.215988	0.341645	1	1
360.199463	0.792372	city	3	1	0.751369	0.751369	0	1	0	0	CorrectCommission	0.085885	0.330280	1	1
360.991699	0.792109	city	5	1	0.695191	0.695191	0	1	0	0	CorrectCommission	0.480805	0.325898	1	1
361.783875	0.792245	city	10	1	0.744969	0.744969	0	1	0	0	CorrectCommission	0.130871	0.328481	1	1
362.576111	0.792227	mountain	10	0	0.000000	0.718742	1	0	0	0	CorrectOmission	0.315247	0.337578	1	1
363.368378	0.792265	city	2	1	0.695459	0.695459	0	1	0	0	CorrectCommission	0.478918	0.352328	1	1
364.160736	0.792477	city	10	1	0.754073	0.754073	0	1	0	0	CorrectCommission	0.066871	0.371594	1	1
364.953003	0.792051	city	2	1	0.794099	0.794099	0	1	0	0	CorrectCommission	0.214504	0.394019	1	0
365.745178	0.792290	city	1	1	0.695269	0.695269	0	1	0	0	CorrectCommission	0.480252	0.418135	1	0
366.537445	0.792241	city	9	1	0.695303	0.695303	0	1	0	0	CorrectCommission	0.480017	0.442453	1	0
367.329681	0.792264	city	10	1	0.696025	0.696025	0	1	0	0	CorrectCommission	0.474943	0.465627	1	0
368.121979	0.792327	city	8	1	0.810080	0.810080	0	1	0	0	CorrectCommission	0.326845	0.486563	1	0
368.914246	0.792199	city	7	1	0.893305	0.893305	0	1	0	0	CorrectCommission	0.911902	0.504515	1	0
369.706482	0.792283	city	5	1	0.893766	0.893766	0	1	0	0	CorrectCommission	0.915138	0.519128	1	0
370.498749	0.792246	city	10	1	0.893948	0.893948	0	1	0	0	CorrectCommission	0.916420	0.530516	1	0
371.291016	0.792268	city	9	1	0.803506	0.803506	0	1	0	0	CorrectCommission	0.280634	0.539200	1	0
372.083282	0.792260	city	3	1	0.794240	0.794240	0	1	0	0	CorrectCommission	0.215491	0.546001	1	0
372.875580	0.792350	city	8	1	0.645886	0.645886	0	1	0	0	CorrectCommission	0.827407	0.551887	1	0
373.667908	0.792289	city	4	1	0.695189	0.695189	0	1	0	0	CorrectCommission	0.480819	0.557799	1	0
374.460175	0.792224	mountain	10	1	0.695187	0.695187	0	0	1	0	CommissionError	0.480834	0.564508	1	0
375.252441	0.792308	city	6	1	0.758850	0.758850	0	1	0	0	CorrectCommission	0.033296	0.572450	1	0
376.044708	0.792263	city	9	1	0.660152	0.660152	0	1	0	0	CorrectCommission	0.727124	0.581681	1	0
376.836914	0.792158	city	1	1	0.699130	0.699130	0	1	0	0	CorrectCommission	0.453113	0.591846	1	0
377.629242	0.792481	city	5	1	0.658214	0.658214	0	1	0	0	CorrectCommission	0.740742	0.602290	1	0
378.421509	0.792045	city	10	1	0.713085	0.713085	0	1	0	0	CorrectCommission	0.355013	0.612138	1	0
379.213715	0.792374	city	6	1	1.001879	1.001879	0	1	0	0	CorrectCommission	1.675155	0.620500	1	0
380.006012	0.792198	city	1	1	0.800651	0.800651	0	1	0	0	CorrectCommission	0.260559	0.626605	1	0
380.798218	0.792222	mountain	5	0	0.000000	0.691640	1	0	0	0	CorrectOmission	0.505765	0.630047	1	0
381.590576	0.792482	city	5	1	0.698174	0.698174	0	1	0	0	CorrectCommission	0.459833	0.630867	1	0
382.382843	0.792050	city	3	1	0.843579	0.843579	0	1	0	0	CorrectCommission	0.562337	0.629712	1	0
383.175049	0.792371	mountain	1	0	0.000000	0.940060	1	0	0	0	CorrectOmission	1.240578	0.627863	1	0
383.967316	0.792201	city	6	1	0.942726	0.942726	0	1	0	0	CorrectCommission	1.259320	0.627244	1	0
384.759552	0.792220	city	4	1	0.806687	0.806687	0	1	0	0	CorrectCommission	0.302992	0.630319	1	0
385.551788	0.792268	city	2	1	0.751964	0.751964	0	1	0	0	CorrectCommission	0.081701	0.639920	1	0
386.344086	0.792371	city	6	1	0.843839	0.843839	0	1	0	0	CorrectCommission	0.564164	0.658959	0	0
387.136475	0.792374	city	4	1	0.794304	0.794304	0	1	0	0	CorrectCommission	0.215942	0.690139	0	0
387.928711	0.792075	city	8	1	0.843525	0.843525	0	1	0	0	CorrectCommission	0.561953	0.735621	0	0
388.720856	0.792241	mountain	9	0	0.000000	0.868443	1	0	0	0	CorrectOmission	0.737127	0.796780	0	0
389.513153	0.792367	city	3	1	0.843882	0.843882	0	1	0	0	CorrectCommission	0.564467	0.873982	0	0
390.305542	0.792375	city	2	1	0.744663	0.744663	0	1	0	0	CorrectCommission	0.133023	0.966452	0	0
391.097809	0.792156	city	4	1	0.794106	0.794106	0	1	0	0	CorrectCommission	0.214549	1.072327	0	0
391.889954	0.792154	city	3	1	0.909194	0.909194	0	1	0	0	CorrectCommission	1.023598	1.188751	0	0
392.682159	0.792281	city	2	1	0.992492	0.992492	0	1	0	0	CorrectCommission	1.609168	1.312179	0	0
393.474487	0.792359	city	8	1	0.992363	0.992363	0	1	0	0	CorrectCommission	1.608259	1.438713	0	0
394.266846	0.792372	city	4	1	1.041763	1.041763	0	1	0	0	CorrectCommission	1.955531	1.564473	0	0
395.059052	0.792052	city	8	1	1.141075	1.141075	0	1	0	0	CorrectCommission	2.653677	1.685900	0	0
395.851227	0.792262	city	4	1	1.092237	1.092237	0	1	0	0	CorrectCommission	2.310357	1.800030	0	0
396.643494	0.792268	city	7	1	1.000271	1.000271	0	1	0	0	CorrectCommission	1.663850	1.904587	0	0
397.435760	0.792259	city	6	1	1.004027	1.004027	0	1	0	0	CorrectCommission	1.690254	1.998029	0	0
398.228027	0.792265	city	9	1	0.943261	0.943261	0	1	0	0	CorrectCommission	1.263079	2.079478	0	0
399.020264	0.792263	city	2	1	1.140891	1.140891	0	1	0	0	CorrectCommission	2.652384	2.148621	0	0
399.812531	0.792270	city	8	1	1.190556	1.190556	0	1	0	0	CorrectCommission	3.001521	2.205526	0	0
400.604828	0.792265	city	9	1	1.150392	1.150392	0	1	0	0	CorrectCommission	2.719174	2.250560	0	0
401.397064	0.792266	city	6	1	1.190911	1.190911	0	1	0	0	CorrectCommission	3.004013	2.284243	0	0
402.189392	0.792369	city	2	1	1.190482	1.190482	0	1	0	0	CorrectCommission	3.000995	2.307079	0	0
402.981781	0.792373	city	7	0	0.000000	0.868362	0	0	0	1	OmissionError	0.736559	2.319448	0	0
403.773987	0.792080	city	9	1	0.496963	0.496963	0	1	0	0	CorrectCommission	1.874307	2.321523	0	0
404.566193	0.792288	city	10	1	0.348693	0.348693	0	1	0	0	CorrectCommission	2.916617	2.313190	0	0
405.358429	0.792207	city	8	1	0.398115	0.398115	0	1	0	0	CorrectCommission	2.569191	2.294181	0	0
406.150726	0.792375	city	4	1	0.361303	0.361303	0	1	0	0	CorrectCommission	2.827974	2.264285	0	0
406.942993	0.792177	city	5	1	1.008024	1.008024	0	1	0	0	CorrectCommission	1.718350	2.223558	0	0
407.735321	0.792461	city	6	1	1.096052	1.096052	0	1	0	0	CorrectCommission	2.337171	2.172659	0	0
408.527588	0.792082	city	2	1	1.190317	1.190317	0	1	0	0	CorrectCommission	2.999840	2.113024	0	0
409.319733	0.792230	city	9	1	1.140953	1.140953	0	1	0	0	CorrectCommission	2.652820	2.046991	0	0
410.112000	0.792263	city	2	1	1.056734	1.056734	0	1	0	0	CorrectCommission	2.060775	1.977746	0	0
410.904236	0.792267	city	5	1	1.140946	1.140946	0	1	0	0	CorrectCommission	2.652766	1.909048	0	0
411.696503	0.792264	city	7	0	0.000000	1.002742	0	0	0	1	OmissionError	1.681220	1.844745	0	0
412.488831	0.792372	mountain	6	0	0.000000	0.776389	1	0	0	0	CorrectOmission	0.090005	1.788271	0	0
413.281097	0.792174	city	3	1	0.596155	0.596155	0	1	0	0	CorrectCommission	1.177010	1.742082	0	0
414.073303	0.792247	city	7	1	0.596304	0.596304	0	1	0	0	CorrectCommission	1.175956	1.707173	0	0
414.865631	0.792374	city	10	1	0.645772	0.645772	0	1	0	0	CorrectCommission	0.828206	1.682916	0	0
415.657928	0.792226	city	9	1	0.596129	0.596129	0	1	0	0	CorrectCommission	1.177190	1.667130	0	0
416.450134	0.792196	city	5	1	0.449610	0.449610	0	1	0	0	CorrectCommission	2.207192	1.656375	0	0
417.242371	0.792272	city	4	1	0.448003	0.448003	0	1	0	0	CorrectCommission	2.218486	1.646492	0	0
418.034698	0.792365	city	10	1	0.398517	0.398517	0	1	0	0	CorrectCommission	2.566363	1.633347	0	0
418.826965	0.792156	city	1	1	0.546583	0.546583	0	1	0	0	CorrectCommission	1.525487	1.613395	0	0
419.619171	0.792263	city	3	1	0.497242	0.497242	0	1	0	0	CorrectCommission	1.872345	1.584284	0	0
420.411438	0.792278	city	4	1	0.447688	0.447688	0	1	0	0	CorrectCommission	2.220700	1.545173	0	0
421.203705	0.792251	city	5	1	0.459032	0.459032	0	1	0	0	CorrectCommission	2.140955	1.496786	0	0
421.996063	0.792483	city	8	1	0.547049	0.547049	0	1	0	0	CorrectCommission	1.522211	1.441250	0	0
422.788330	0.792051	city	1	1	0.645606	0.645606	0	1	0	0	CorrectCommission	0.829378	1.381845	0	0
423.580475	0.792265	city	9	1	0.603187	0.603187	0	1	0	0	CorrectCommission	1.127575	1.322443	0	0
424.372864	0.792477	city	8	1	0.646213	0.646213	0	1	0	0	CorrectCommission	0.825107	1.267016	0	1
425.165192	0.792158	city	7	1	0.646641	0.646641	0	1	0	0	CorrectCommission	0.822100	1.219180	0	1
425.957336	0.792159	city	2	1	0.645660	0.645660	0	1	0	0	CorrectCommission	0.828995	1.181790	0	1
426.749542	0.792260	city	3	1	0.596235	0.596235	0	1	0	0	CorrectCommission	1.176446	1.156691	0	1
427.541809	0.792267	city	10	1	0.596252	0.596252	0	1	0	0	CorrectCommission	1.176324	1.144590	0	1
428.334106	0.792298	city	1	1	0.645804	0.645804	0	1	0	0	CorrectCommission	0.827987	1.145012	0	1
429.126373	0.792280	city	4	1	0.645754	0.645754	0	1	0	0	CorrectCommission	0.828333	1.156453	0	1
429.918671	0.792322	city	10	1	0.699997	0.699997	0	1	0	0	CorrectCommission	0.447021	1.176557	0	1
430.710938	0.792160	mountain	6	0	0.000000	0.600700	1	0	0	0	CorrectOmission	1.145053	1.202349	0	1
431.503143	0.792291	city	4	1	0.511530	0.511530	0	1	0	0	CorrectCommission	1.771906	1.230513	0	1
432.295410	0.792240	city	9	1	0.596149	0.596149	0	1	0	0	CorrectCommission	1.177052	1.257703	0	1
433.087677	0.792261	city	5	1	0.447668	0.447668	0	1	0	0	CorrectCommission	2.220840	1.280835	0	1
433.879944	0.792269	city	9	1	0.646475	0.646475	0	1	0	0	CorrectCommission	0.823268	1.297243	0	1
434.672180	0.792262	city	2	1	0.562472	0.562472	0	1	0	0	CorrectCommission	1.413795	1.304929	0	1
435.464447	0.792261	city	5	1	0.464102	0.464102	0	1	0	0	CorrectCommission	2.105315	1.302523	0	1
436.256714	0.792267	mountain	3	1	0.497186	0.497186	0	0	1	0	CommissionError	1.872739	1.289326	0	1
437.048981	0.792264	mountain	10	1	0.794291	0.794291	0	0	1	0	CommissionError	0.215852	1.265221	0	1
437.841248	0.792266	city	5	1	1.109987	1.109987	0	1	0	0	CorrectCommission	2.435134	1.230565	0	1
438.633636	0.792480	city	10	0	0.000000	0.963373	0	0	0	1	OmissionError	1.404464	1.185957	0	1
439.425934	0.792158	city	6	1	0.744567	0.744567	0	1	0	0	CorrectCommission	0.133701	1.132305	0	1
440.218109	0.792161	city	3	1	0.843686	0.843686	0	1	0	0	CorrectCommission	0.563089	1.070733	0	1
441.010315	0.792262	city	6	1	0.943702	0.943702	0	1	0	0	CorrectCommission	1.266185	1.002561	0	1
441.802673	0.792480	mountain	8	0	0.000000	1.047499	1	0	0	0	CorrectOmission	1.995853	0.929418	0	1
442.595001	0.792156	city	5	1	1.041585	1.041585	0	1	0	0	CorrectCommission	1.954283	0.853344	0	1
443.387207	0.792264	city	7	1	0.812472	0.812472	0	1	0	0	CorrectCommission	0.343661	0.776851	0	1
444.179413	0.792157	city	6	1	0.794198	0.794198	0	1	0	0	CorrectCommission	0.215201	0.702927	0	1
444.971619	0.792265	city	4	1	0.744808	0.744808	0	1	0	0	CorrectCommission	0.132004	0.634864	1	1
445.763916	0.792297	city	10	1	0.697080	0.697080	0	1	0	0	CorrectCommission	0.467523	0.576100	1	1
446.556183	0.792215	city	8	1	0.695228	0.695228	0	1	0	0	CorrectCommission	0.480540	0.529910	1	1
447.348541	0.792500	city	1	1	0.744865	0.744865	0	1	0	0	CorrectCommission	0.131608	0.499116	1	1
448.140839	0.792127	city	8	1	0.754393	0.754393	0	1	0	0	CorrectCommission	0.064624	0.485738	1	1
448.933105	0.792402	mountain	3	0	0.000000	0.775815	1	0	0	0	CorrectOmission	0.085966	0.490712	1	1
449.725342	0.792075	city	5	1	0.794141	0.794141	0	1	0	0	CorrectCommission	0.214794	0.513681	1	1
450.517487	0.792236	city	7	1	0.794382	0.794382	0	1	0	0	CorrectCommission	0.216493	0.552864	1	1
451.309753	0.792298	city	8	1	0.744753	0.744753	0	1	0	0	CorrectCommission	0.132394	0.605156	1	1
452.102081	0.792340	city	3	1	0.744810	0.744810	0	1	0	0	CorrectCommission	0.131991	0.666242	0	1
452.894348	0.792159	city	7	1	0.845493	0.845493	0	1	0	0	CorrectCommission	0.575790	0.731034	0	1
453.686554	0.792265	city	6	1	0.850928	0.850928	0	1	0	0	CorrectCommission	0.613996	0.794111	0	1
454.478851	0.792371	city	2	1	0.992759	0.992759	0	1	0	0	CorrectCommission	1.611042	0.850389	0	1
455.271118	0.792160	city	5	1	1.060237	1.060237	0	1	0	0	CorrectCommission	2.085400	0.895611	0	1
456.063354	0.792259	mountain	2	0	0.000000	1.012770	1	0	0	0	CorrectOmission	1.751715	0.926913	0	1
456.855621	0.792302	city	8	1	0.942918	0.942918	0	1	0	0	CorrectCommission	1.260667	0.943152	0	1
457.647888	0.792229	city	7	1	0.943241	0.943241	0	1	0	0	CorrectCommission	1.262938	0.944959	0	1
458.440125	0.792275	city	5	1	0.907153	0.907153	0	1	0	0	CorrectCommission	1.009249	0.934547	0	1
459.232513	0.792471	city	8	1	0.942837	0.942837	0	1	0	0	CorrectCommission	1.260100	0.915308	0	1
460.024780	0.792049	city	2	1	0.845982	0.845982	0	1	0	0	CorrectCommission	0.579227	0.891229	0	1
460.816925	0.792265	city	3	1	0.843819	0.843819	0	1	0	0	CorrectCommission	0.564020	0.866286	0	1
461.609192	0.792266	mountain	4	0	0.000000	0.826968	1	0	0	0	CorrectOmission	0.445562	0.843768	0	1
462.401550	0.792480	city	8	1	0.794349	0.794349	0	1	0	0	CorrectCommission	0.216256	0.825813	0	1
463.193848	0.792061	city	6	1	0.744880	0.744880	0	1	0	0	CorrectCommission	0.131496	0.813126	0	1
463.985992	0.792256	city	1	1	0.645754	0.645754	0	1	0	0	CorrectCommission	0.828336	0.804950	0	1
464.778259	0.792267	city	9	1	0.861032	0.861032	0	1	0	0	CorrectCommission	0.685027	0.799271	0	1
465.570526	0.792261	city	5	1	0.862154	0.862154	0	1	0	0	CorrectCommission	0.692911	0.793263	0	1
466.362793	0.792288	city	4	1	1.042550	1.042550	0	1	0	0	CorrectCommission	1.961061	0.783823	0	1
467.155121	0.792346	city	10	0	0.000000	0.750858	0	0	0	1	OmissionError	0.089477	0.768127	0	1
467.947357	0.792156	city	7	1	0.452324	0.452324	0	1	0	0	CorrectCommission	2.188114	0.744215	0	1
468.739563	0.792268	city	3	1	0.612193	0.612193	0	1	0	0	CorrectCommission	1.064261	0.711202	0	1
469.531891	0.792372	city	9	1	0.612447	0.612447	0	1	0	0	CorrectCommission	1.062477	0.669553	0	1
470.324219	0.792264	city	5	1	0.648265	0.648265	0	1	0	0	CorrectCommission	0.810685	0.620930	1	1
471.116425	0.792156	city	4	1	0.744680	0.744680	0	1	0	0	CorrectCommission	0.132905	0.567968	1	1
471.908630	0.792264	city	10	1	0.763322	0.763322	0	1	0	0	CorrectCommission	0.001854	0.513888	1	1
472.701019	0.792482	city	9	1	0.794409	0.794409	0	1	0	0	CorrectCommission	0.216679	0.462079	1	1
473.493286	0.792102	city	5	1	0.805733	0.805733	0	1	0	0	CorrectCommission	0.296283	0.415758	1	1
474.285461	0.792214	city	8	1	0.744737	0.744737	0	1	0	0	CorrectCommission	0.132506	0.377701	1	1
475.077698	0.792298	city	10	1	0.744985	0.744985	0	1	0	0	CorrectCommission	0.130759	0.350080	1	1
475.869965	0.792232	mountain	6	0	0.000000	0.736708	1	0	0	0	CorrectOmission	0.188948	0.334415	1	1
476.662292	0.792370	city	1	1	0.744883	0.744883	0	1	0	0	CorrectCommission	0.131480	0.331611	1	1
477.454559	0.792179	city	8	1	0.794488	0.794488	0	1	0	0	CorrectCommission	0.217239	0.342084	1	1
478.246796	0.792293	city	10	1	0.794761	0.794761	0	1	0	0	CorrectCommission	0.219153	0.365838	1	1
479.039032	0.792212	city	7	1	0.843769	0.843769	0	1	0	0	CorrectCommission	0.563675	0.402566	1	1
479.831268	0.792267	city	1	1	0.809334	0.809334	0	1	0	0	CorrectCommission	0.321601	0.451701	1	1
480.623535	0.792262	city	2	1	0.751718	0.751718	0	1	0	0	CorrectCommission	0.083427	0.512465	1	1
481.415924	0.792483	city	7	1	0.762911	0.762911	0	1	0	0	CorrectCommission	0.004744	0.583853	1	1
482.208191	0.792049	city	10	1	0.851818	0.851818	0	1	0	0	CorrectCommission	0.620256	0.664663	0	1
483.000336	0.792280	city	2	1	0.843799	0.843799	0	1	0	0	CorrectCommission	0.563886	0.753518	0	1
483.792603	0.792247	mountain	6	0	0.000000	0.850642	1	0	0	0	CorrectOmission	0.611987	0.848930	0	1
484.584869	0.792267	city	9	1	0.893865	0.893865	0	1	0	0	CorrectCommission	0.915839	0.949431	0	1
485.377136	0.792265	mountain	3	0	0.000000	0.994989	1	0	0	0	CorrectOmission	1.626716	1.053571	0	1
486.169403	0.792260	city	6	1	1.047254	1.047254	0	1	0	0	CorrectCommission	1.994130	1.160025	0	1
486.961670	0.792268	city	5	1	0.943902	0.943902	0	1	0	0	CorrectCommission	1.267590	1.267590	0	1
