onset	duration	trial_type	image_type	Press	ReactionTime	ReactionTime_Interpolated	CorrectOmission	CorrectCommission	CommissionError	OmissionError	response_type	nonsmoothVarianceTimeCourse	VarianceTimeCourse	In_the_Zone	Reward_trial
8.433761	0.792269	city	10	1	0.560692	0.560692	0	1	0	0	CorrectCommission	0.509884	0.509884	1	1
9.226027	0.792264	city	5	1	0.398180	0.398180	0	1	0	0	CorrectCommission	1.916454	0.657893	1	1
10.018291	0.792265	city	8	1	0.360817	0.360817	0	1	0	0	CorrectCommission	2.239833	0.800341	0	1
10.810664	0.792480	city	10	1	0.448040	0.448040	0	1	0	0	CorrectCommission	1.484907	0.932358	0	1
11.602928	0.792048	city	6	1	0.497023	0.497023	0	1	0	0	CorrectCommission	1.060947	1.050313	0	1
12.395193	0.792482	city	2	1	0.448080	0.448080	0	1	0	0	CorrectCommission	1.484557	1.152102	0	1
13.187566	0.792264	city	3	1	0.447525	0.447525	0	1	0	0	CorrectCommission	1.489359	1.237202	0	1
13.979831	0.792266	city	6	1	0.367141	0.367141	0	1	0	0	CorrectCommission	2.185096	1.306503	0	1
14.771988	0.792047	city	7	1	0.448604	0.448604	0	1	0	0	CorrectCommission	1.480024	1.361874	0	1
15.564145	0.792267	city	9	1	0.497204	0.497204	0	1	0	0	CorrectCommission	1.059380	1.405663	0	1
16.356462	0.792369	city	4	1	0.497227	0.497227	0	1	0	0	CorrectCommission	1.059186	1.440145	0	1
17.148726	0.792155	city	7	1	0.497107	0.497107	0	1	0	0	CorrectCommission	1.060223	1.467117	0	1
17.940935	0.792267	city	2	1	0.509081	0.509081	0	1	0	0	CorrectCommission	0.956583	1.487629	0	1
18.733311	0.792482	city	10	1	0.447732	0.447732	0	1	0	0	CorrectCommission	1.487573	1.501937	0	1
19.525578	0.792051	city	9	1	0.358529	0.358529	0	1	0	0	CorrectCommission	2.259635	1.509640	0	1
20.317734	0.792261	city	8	1	0.365904	0.365904	0	1	0	0	CorrectCommission	2.195805	1.509956	0	1
21.109997	0.792265	city	4	1	0.447689	0.447689	0	1	0	0	CorrectCommission	1.487944	1.502072	0	1
21.902260	0.792263	city	8	1	0.398291	0.398291	0	1	0	0	CorrectCommission	1.915492	1.485485	0	1
22.694536	0.792290	city	9	1	0.398745	0.398745	0	1	0	0	CorrectCommission	1.911558	1.460196	0	1
23.486855	0.792348	city	7	1	0.447724	0.447724	0	1	0	0	CorrectCommission	1.487641	1.426866	0	1
24.279110	0.792163	city	8	1	0.501228	0.501228	0	1	0	0	CorrectCommission	1.024558	1.386797	0	1
25.071321	0.792260	city	9	1	0.459709	0.459709	0	1	0	0	CorrectCommission	1.383905	1.341773	0	1
25.863598	0.792293	city	8	1	0.460538	0.460538	0	1	0	0	CorrectCommission	1.376735	1.293849	0	1
26.655972	0.792452	city	1	1	0.457373	0.457373	0	1	0	0	CorrectCommission	1.404127	1.245121	0	1
27.448330	0.792266	city	7	1	0.546918	0.546918	0	1	0	0	CorrectCommission	0.629098	1.197512	0	1
28.240597	0.792264	city	1	1	0.513001	0.513001	0	1	0	0	CorrectCommission	0.922659	1.152620	0	1
29.032860	0.792264	city	9	1	0.497159	0.497159	0	1	0	0	CorrectCommission	1.059772	1.111550	0	1
29.825071	0.792157	city	3	1	0.451022	0.451022	0	1	0	0	CorrectCommission	1.459091	1.074854	0	1
30.617229	0.792163	city	6	1	0.497098	0.497098	0	1	0	0	CorrectCommission	1.060301	1.042522	0	1
31.409441	0.792258	city	5	1	0.546874	0.546874	0	1	0	0	CorrectCommission	0.629482	1.014013	0	1
32.201702	0.792267	city	10	1	0.504397	0.504397	0	1	0	0	CorrectCommission	0.997126	0.988339	0	1
32.994022	0.792369	city	7	1	0.554988	0.554988	0	1	0	0	CorrectCommission	0.559257	0.964144	0	1
33.786285	0.792158	city	9	1	0.546618	0.546618	0	1	0	0	CorrectCommission	0.631698	0.939900	0	1
34.578548	0.792371	city	7	1	0.447852	0.447852	0	1	0	0	CorrectCommission	1.486533	0.914058	0	1
35.370869	0.792266	mountain	9	1	0.497136	0.497136	0	0	1	0	CommissionError	1.059970	0.885241	0	1
36.163082	0.792158	city	8	1	0.497122	0.497122	0	1	0	0	CorrectCommission	1.060093	0.852500	0	1
36.955345	0.792371	city	9	1	0.497319	0.497319	0	1	0	0	CorrectCommission	1.058383	0.815437	0	1
37.747719	0.792373	city	7	1	0.511441	0.511441	0	1	0	0	CorrectCommission	0.936159	0.774327	0	1
38.539928	0.792048	city	1	1	0.501636	0.501636	0	1	0	0	CorrectCommission	1.021023	0.730150	0	1
39.332191	0.792481	city	2	1	0.546703	0.546703	0	1	0	0	CorrectCommission	0.630958	0.684483	1	1
40.124454	0.792046	city	6	1	0.652209	0.652209	0	1	0	0	CorrectCommission	0.282211	0.639341	1	1
40.916611	0.792267	city	10	1	0.695342	0.695342	0	1	0	0	CorrectCommission	0.655532	0.596930	1	1
41.708878	0.792268	mountain	4	0	0.000000	0.676588	1	0	0	0	CorrectOmission	0.493215	0.559364	1	1
42.501144	0.792263	city	7	1	0.645804	0.645804	0	1	0	0	CorrectCommission	0.226776	0.528404	1	1
43.293411	0.792266	city	2	1	0.652847	0.652847	0	1	0	0	CorrectCommission	0.287728	0.505237	1	1
44.085693	0.792302	city	5	1	0.646081	0.646081	0	1	0	0	CorrectCommission	0.229170	0.490327	1	1
44.877956	0.792224	city	4	1	0.613133	0.613133	0	1	0	0	CorrectCommission	0.055999	0.483398	1	1
45.670200	0.792263	city	3	1	0.596351	0.596351	0	1	0	0	CorrectCommission	0.201252	0.483513	1	1
46.462467	0.792271	city	1	1	0.646072	0.646072	0	1	0	0	CorrectCommission	0.229090	0.489251	1	1
47.254734	0.792258	city	9	1	0.701517	0.701517	0	1	0	0	CorrectCommission	0.708974	0.498974	1	1
48.046997	0.792271	mountain	1	0	0.000000	0.544734	1	0	0	0	CorrectOmission	0.648005	0.511163	1	1
48.839279	0.792296	city	1	1	0.465870	0.465870	0	1	0	0	CorrectCommission	1.330587	0.524666	1	1
49.631542	0.792227	city	10	1	0.755070	0.755070	0	1	0	0	CorrectCommission	1.172488	0.538837	1	1
50.423790	0.792270	city	9	1	0.596240	0.596240	0	1	0	0	CorrectCommission	0.202209	0.553669	1	1
51.216057	0.792259	city	10	1	0.652079	0.652079	0	1	0	0	CorrectCommission	0.281080	0.569755	1	1
52.008320	0.792268	city	7	1	0.645763	0.645763	0	1	0	0	CorrectCommission	0.226418	0.588072	1	1
52.800587	0.792269	city	10	1	0.645872	0.645872	0	1	0	0	CorrectCommission	0.227357	0.609808	1	1
53.592850	0.792257	city	2	1	0.562302	0.562302	0	1	0	0	CorrectCommission	0.495950	0.636137	1	1
54.385113	0.792271	city	6	1	0.546762	0.546762	0	1	0	0	CorrectCommission	0.630449	0.667944	1	1
55.177380	0.792263	mountain	1	1	0.514692	0.514692	0	0	1	0	CommissionError	0.908019	0.705669	1	1
55.969700	0.792372	city	1	1	0.546792	0.546792	0	1	0	0	CorrectCommission	0.630195	0.749164	0	1
56.761963	0.792159	city	6	1	0.514108	0.514108	0	1	0	0	CorrectCommission	0.913073	0.797615	0	1
57.554176	0.792268	city	8	1	0.547209	0.547209	0	1	0	0	CorrectCommission	0.626582	0.849486	0	1
58.346493	0.792367	city	4	1	0.706336	0.706336	0	1	0	0	CorrectCommission	0.750685	0.902551	0	1
59.138756	0.792158	city	8	1	0.711590	0.711590	0	1	0	0	CorrectCommission	0.796159	0.953982	0	1
59.930969	0.792264	city	6	1	0.711447	0.711447	0	1	0	0	CorrectCommission	0.794922	1.000554	0	1
60.723232	0.792262	city	4	1	0.744889	0.744889	0	1	0	0	CorrectCommission	1.084370	1.038909	0	1
61.515495	0.792269	city	9	1	0.744792	0.744792	0	1	0	0	CorrectCommission	1.083531	1.065921	0	1
62.307869	0.792478	city	3	1	0.709019	0.709019	0	1	0	0	CorrectCommission	0.773904	1.079085	0	1
63.100132	0.792048	city	2	1	0.992282	0.992282	0	1	0	0	CorrectCommission	3.225588	1.076902	0	1
63.892292	0.792267	mountain	2	0	0.000000	0.932368	1	0	0	0	CorrectOmission	2.707030	1.059072	0	1
64.684586	0.792323	city	3	1	0.744953	0.744953	0	1	0	0	CorrectCommission	1.084918	1.026687	0	1
65.476959	0.792421	city	9	1	0.645708	0.645708	0	1	0	0	CorrectCommission	0.225943	0.982115	0	1
66.269302	0.792265	city	8	1	0.546567	0.546567	0	1	0	0	CorrectCommission	0.632141	0.928701	0	1
67.061569	0.792264	city	10	1	0.546484	0.546484	0	1	0	0	CorrectCommission	0.632861	0.870392	0	1
67.853722	0.792047	city	8	1	0.596055	0.596055	0	1	0	0	CorrectCommission	0.203813	0.811291	0	0
68.645897	0.792308	city	2	1	0.794918	0.794918	0	1	0	0	CorrectCommission	1.517374	0.755289	0	0
69.438164	0.792226	city	6	1	0.653876	0.653876	0	1	0	0	CorrectCommission	0.296640	0.705680	1	0
70.230408	0.792260	city	3	1	0.603330	0.603330	0	1	0	0	CorrectCommission	0.140848	0.665032	1	0
71.022728	0.792376	mountain	9	0	0.000000	0.561904	1	0	0	0	CorrectOmission	0.499394	0.635045	1	0
71.814995	0.792158	city	5	1	0.546932	0.546932	0	1	0	0	CorrectCommission	0.628976	0.616566	1	0
72.607315	0.792480	mountain	1	0	0.000000	0.575748	1	0	0	0	CorrectOmission	0.379577	0.609690	1	0
73.399628	0.792155	mountain	6	0	0.000000	0.606577	1	0	0	0	CorrectOmission	0.112745	0.613872	1	0
74.191788	0.792157	city	10	1	0.597647	0.597647	0	1	0	0	CorrectCommission	0.190032	0.628069	1	0
74.984024	0.792318	mountain	4	1	0.507186	0.507186	0	0	1	0	CommissionError	0.972988	0.650885	1	0
75.776314	0.792269	city	6	1	0.745218	0.745218	0	1	0	0	CorrectCommission	1.087214	0.680664	1	0
76.568558	0.792209	city	8	1	0.744849	0.744849	0	1	0	0	CorrectCommission	1.084026	0.715589	1	0
77.360794	0.792266	city	7	1	0.604010	0.604010	0	1	0	0	CorrectCommission	0.134964	0.753716	0	0
78.153061	0.792265	city	5	1	0.547727	0.547727	0	1	0	0	CorrectCommission	0.622103	0.793028	0	0
78.945320	0.792259	city	2	1	0.546750	0.546750	0	1	0	0	CorrectCommission	0.630558	0.831427	0	0
79.737694	0.792484	city	4	1	0.548016	0.548016	0	1	0	0	CorrectCommission	0.619594	0.866888	0	0
80.529961	0.792049	city	5	1	0.551127	0.551127	0	1	0	0	CorrectCommission	0.592675	0.897543	0	0
81.322121	0.792269	city	1	1	0.447705	0.447705	0	1	0	0	CorrectCommission	1.487803	0.921884	0	0
82.114380	0.792257	city	3	1	0.299061	0.299061	0	1	0	0	CorrectCommission	2.774338	0.938935	0	0
82.906693	0.792375	city	6	1	0.546699	0.546699	0	1	0	0	CorrectCommission	0.630998	0.948359	0	0
83.699013	0.792267	city	7	1	0.497165	0.497165	0	1	0	0	CorrectCommission	1.059724	0.950550	0	0
84.491226	0.792154	city	4	1	0.497546	0.497546	0	1	0	0	CorrectCommission	1.056427	0.946444	0	0
85.283440	0.792273	city	7	1	0.645774	0.645774	0	1	0	0	CorrectCommission	0.226511	0.937409	0	0
86.075813	0.792475	mountain	8	0	0.000000	0.714634	1	0	0	0	CorrectOmission	0.822505	0.924962	0	0
86.868073	0.792046	city	2	1	0.749287	0.749287	0	1	0	0	CorrectCommission	1.122431	0.910502	0	0
87.660233	0.792267	city	4	1	0.794893	0.794893	0	1	0	0	CorrectCommission	1.517164	0.895094	0	0
88.452499	0.792263	city	10	1	0.661804	0.661804	0	1	0	0	CorrectCommission	0.365256	0.879295	0	0
89.244873	0.792487	city	6	1	0.596754	0.596754	0	1	0	0	CorrectCommission	0.197760	0.863149	0	0
90.037132	0.792041	city	8	1	0.546632	0.546632	0	1	0	0	CorrectCommission	0.631575	0.846203	0	0
90.829346	0.792376	city	3	1	0.497217	0.497217	0	1	0	0	CorrectCommission	1.059273	0.827694	0	0
91.621719	0.792372	city	10	1	0.497095	0.497095	0	1	0	0	CorrectCommission	1.060329	0.806809	0	0
92.413979	0.792156	city	2	1	0.497030	0.497030	0	1	0	0	CorrectCommission	1.060892	0.782958	0	0
93.206161	0.792201	city	5	1	0.451666	0.451666	0	1	0	0	CorrectCommission	1.453523	0.756001	0	0
93.998390	0.792256	city	8	1	0.502693	0.502693	0	1	0	0	CorrectCommission	1.011879	0.726376	0	0
94.790665	0.792303	mountain	9	1	0.546753	0.546753	0	0	1	0	CommissionError	0.630529	0.695145	1	0
95.582916	0.792191	city	5	1	0.546816	0.546816	0	1	0	0	CorrectCommission	0.629979	0.663821	1	0
96.375145	0.792269	city	6	1	0.646025	0.646025	0	1	0	0	CorrectCommission	0.228685	0.634140	1	0
97.167412	0.792260	city	8	1	0.597552	0.597552	0	1	0	0	CorrectCommission	0.190852	0.607773	1	0
97.959671	0.792264	city	6	1	0.596725	0.596725	0	1	0	0	CorrectCommission	0.198016	0.586017	1	0
98.751991	0.792375	city	10	1	0.556660	0.556660	0	1	0	0	CorrectCommission	0.544786	0.569575	1	0
99.544312	0.792264	city	1	1	0.546621	0.546621	0	1	0	0	CorrectCommission	0.631672	0.558388	1	0
100.336517	0.792156	city	8	1	0.560316	0.560316	0	1	0	0	CorrectCommission	0.513137	0.551726	1	0
101.128731	0.792264	city	2	1	0.645683	0.645683	0	1	0	0	CorrectCommission	0.225723	0.548256	1	0
101.921051	0.792375	city	7	1	0.645732	0.645732	0	1	0	0	CorrectCommission	0.226150	0.546276	1	0
102.713310	0.792154	city	2	1	0.695217	0.695217	0	1	0	0	CorrectCommission	0.654451	0.544010	1	0
103.505524	0.792268	city	9	1	0.511548	0.511548	0	1	0	0	CorrectCommission	0.935232	0.539875	1	0
104.297791	0.792265	city	3	1	0.448147	0.448147	0	1	0	0	CorrectCommission	1.483976	0.532756	1	0
105.090111	0.792372	city	5	1	0.513977	0.513977	0	1	0	0	CorrectCommission	0.914209	0.522126	1	0
105.882370	0.792155	city	2	1	0.596147	0.596147	0	1	0	0	CorrectCommission	0.203018	0.508154	1	0
106.674583	0.792267	city	6	1	0.614442	0.614442	0	1	0	0	CorrectCommission	0.044671	0.491591	1	0
107.466850	0.792265	city	1	1	0.665183	0.665183	0	1	0	0	CorrectCommission	0.394499	0.473593	1	0
108.259117	0.792265	city	6	1	0.665071	0.665071	0	1	0	0	CorrectCommission	0.393534	0.455503	1	0
109.051384	0.792267	city	8	1	0.695258	0.695258	0	1	0	0	CorrectCommission	0.654805	0.438646	1	0
109.843643	0.792264	city	3	1	0.645775	0.645775	0	1	0	0	CorrectCommission	0.226522	0.424109	1	0
110.635910	0.792262	city	5	1	0.645792	0.645792	0	1	0	0	CorrectCommission	0.226667	0.412621	1	0
111.428185	0.792293	city	10	1	0.645762	0.645762	0	1	0	0	CorrectCommission	0.226408	0.404456	1	0
112.220505	0.792344	city	1	1	0.661957	0.661957	0	1	0	0	CorrectCommission	0.366577	0.399452	1	0
113.012756	0.792161	city	7	1	0.647306	0.647306	0	1	0	0	CorrectCommission	0.239771	0.397066	1	0
113.805077	0.792477	city	10	1	0.546805	0.546805	0	1	0	0	CorrectCommission	0.630078	0.396544	1	0
114.597389	0.792156	city	8	1	0.596858	0.596858	0	1	0	0	CorrectCommission	0.196862	0.396971	1	0
115.389549	0.792157	mountain	2	1	0.546594	0.546594	0	0	1	0	CommissionError	0.631906	0.397506	1	0
116.181763	0.792269	city	4	1	0.547316	0.547316	0	1	0	0	CorrectCommission	0.625655	0.397491	1	0
116.974083	0.792369	city	9	1	0.562985	0.562985	0	1	0	0	CorrectCommission	0.490034	0.396567	1	0
117.766342	0.792155	mountain	10	0	0.000000	0.596598	1	0	0	0	CorrectOmission	0.199116	0.394756	1	0
118.558556	0.792265	city	6	1	0.645906	0.645906	0	1	0	0	CorrectCommission	0.227653	0.392497	1	0
119.350822	0.792279	city	7	1	0.708663	0.708663	0	1	0	0	CorrectCommission	0.770824	0.390581	1	0
120.143196	0.792469	city	10	1	0.596378	0.596378	0	1	0	0	CorrectCommission	0.201013	0.390088	1	0
120.935509	0.792156	city	9	1	0.546572	0.546572	0	1	0	0	CorrectCommission	0.632096	0.392306	1	0
121.727676	0.792173	city	4	1	0.596950	0.596950	0	1	0	0	CorrectCommission	0.196068	0.398509	1	0
122.519890	0.792250	city	9	1	0.596236	0.596236	0	1	0	0	CorrectCommission	0.202248	0.409836	1	0
123.312149	0.792266	city	3	1	0.652027	0.652027	0	1	0	0	CorrectCommission	0.280633	0.427104	1	0
124.104408	0.792262	city	4	1	0.645844	0.645844	0	1	0	0	CorrectCommission	0.227116	0.450656	1	0
124.896782	0.792481	city	3	1	0.645731	0.645731	0	1	0	0	CorrectCommission	0.226139	0.480254	1	0
125.689049	0.792049	city	6	1	0.695116	0.695116	0	1	0	0	CorrectCommission	0.653571	0.515054	1	0
126.481216	0.792287	city	9	1	0.611552	0.611552	0	1	0	0	CorrectCommission	0.069684	0.553629	1	0
127.273521	0.792324	city	6	1	0.599848	0.599848	0	1	0	0	CorrectCommission	0.170981	0.594136	1	1
128.065811	0.792246	city	7	1	0.645739	0.645739	0	1	0	0	CorrectCommission	0.226210	0.634480	1	1
128.858139	0.792418	city	8	1	0.942815	0.942815	0	1	0	0	CorrectCommission	2.797449	0.672563	1	1
129.650375	0.792047	city	3	1	0.596182	0.596182	0	1	0	0	CorrectCommission	0.202709	0.706449	1	1
130.442627	0.792483	city	2	1	0.546777	0.546777	0	1	0	0	CorrectCommission	0.630324	0.734701	0	1
131.234894	0.792046	mountain	4	1	0.454415	0.454415	0	0	1	0	CommissionError	1.429726	0.756326	0	1
132.027054	0.792268	city	1	1	0.547179	0.547179	0	1	0	0	CorrectCommission	0.626845	0.770896	0	1
132.819382	0.792370	city	8	1	0.546761	0.546761	0	1	0	0	CorrectCommission	0.630463	0.778512	0	1
133.611633	0.792155	city	2	1	0.497183	0.497183	0	1	0	0	CorrectCommission	1.059567	0.779707	0	1
134.403854	0.792265	city	7	1	0.645746	0.645746	0	1	0	0	CorrectCommission	0.226273	0.775341	0	1
135.196106	0.792266	city	2	1	0.709570	0.709570	0	1	0	0	CorrectCommission	0.778677	0.766527	0	1
135.988480	0.792481	city	7	1	0.805866	0.805866	0	1	0	0	CorrectCommission	1.612133	0.754493	0	1
136.780746	0.792049	city	2	1	0.744622	0.744622	0	1	0	0	CorrectCommission	1.082056	0.740506	0	1
137.572906	0.792264	city	4	1	0.652310	0.652310	0	1	0	0	CorrectCommission	0.283079	0.725876	0	1
138.365280	0.792482	city	2	1	0.652412	0.652412	0	1	0	0	CorrectCommission	0.283970	0.711847	1	1
139.157547	0.792052	mountain	2	0	0.000000	0.679534	1	0	0	0	CorrectOmission	0.518710	0.699553	1	1
139.949738	0.792320	mountain	7	0	0.000000	0.710903	1	0	0	0	CorrectOmission	0.790213	0.689966	1	1
140.741989	0.792208	mountain	2	0	0.000000	0.723748	1	0	0	0	CorrectOmission	0.901391	0.683852	1	1
141.534286	0.792371	city	1	1	0.695299	0.695299	0	1	0	0	CorrectCommission	0.655156	0.681741	1	1
142.326569	0.792184	city	10	1	0.602783	0.602783	0	1	0	0	CorrectCommission	0.145578	0.683875	1	1
143.118774	0.792239	mountain	10	1	0.557369	0.557369	0	0	1	0	CommissionError	0.538643	0.690175	1	1
143.911026	0.792261	city	5	1	0.506606	0.506606	0	1	0	0	CorrectCommission	0.978009	0.700228	1	1
144.703339	0.792374	city	2	1	0.497243	0.497243	0	1	0	0	CorrectCommission	1.059043	0.713273	1	1
145.495605	0.792157	city	7	1	0.553709	0.553709	0	1	0	0	CorrectCommission	0.570322	0.728258	0	1
146.287827	0.792282	city	2	1	0.645860	0.645860	0	1	0	0	CorrectCommission	0.227260	0.743847	0	1
147.080093	0.792250	city	4	1	0.708365	0.708365	0	1	0	0	CorrectCommission	0.768248	0.758601	0	1
147.872360	0.792291	city	3	1	0.596516	0.596516	0	1	0	0	CorrectCommission	0.199827	0.771067	0	1
148.664627	0.792234	mountain	9	0	0.000000	0.503444	1	0	0	0	CorrectOmission	1.005377	0.779993	0	1
149.456879	0.792268	city	1	1	0.447663	0.447663	0	1	0	0	CorrectCommission	1.488165	0.784479	0	1
150.249146	0.792266	city	8	1	0.447688	0.447688	0	1	0	0	CorrectCommission	1.487952	0.784128	0	1
151.041458	0.792370	city	10	1	0.447727	0.447727	0	1	0	0	CorrectCommission	1.487616	0.779101	0	1
151.833832	0.792375	city	8	1	0.547528	0.547528	0	1	0	0	CorrectCommission	0.623821	0.770041	0	1
152.626099	0.792156	city	1	1	0.554159	0.554159	0	1	0	0	CorrectCommission	0.566427	0.757913	0	1
153.418304	0.792265	city	6	1	0.596137	0.596137	0	1	0	0	CorrectCommission	0.203100	0.743748	0	1
154.210526	0.792157	city	7	1	0.649594	0.649594	0	1	0	0	CorrectCommission	0.259571	0.728463	0	1
155.002731	0.792266	city	9	1	0.596279	0.596279	0	1	0	0	CorrectCommission	0.201874	0.712687	1	1
155.794998	0.792269	city	5	1	0.558286	0.558286	0	1	0	0	CorrectCommission	0.530705	0.696705	1	1
156.587372	0.792476	city	10	1	0.447687	0.447687	0	1	0	0	CorrectCommission	1.487959	0.680508	1	1
157.379684	0.792154	city	5	1	0.512558	0.512558	0	1	0	0	CorrectCommission	0.926493	0.663951	1	1
158.171844	0.792168	city	7	1	0.546874	0.546874	0	1	0	0	CorrectCommission	0.629478	0.646993	1	1
158.964066	0.792255	city	8	1	0.497540	0.497540	0	1	0	0	CorrectCommission	1.056475	0.629855	1	1
159.756332	0.792284	city	5	1	0.546934	0.546934	0	1	0	0	CorrectCommission	0.628964	0.613118	1	1
160.548630	0.792302	city	10	1	0.546769	0.546769	0	1	0	0	CorrectCommission	0.630390	0.597721	1	1
161.340881	0.792208	city	5	1	0.556866	0.556866	0	1	0	0	CorrectCommission	0.543000	0.584841	1	1
162.133118	0.792264	city	8	1	0.596371	0.596371	0	1	0	0	CorrectCommission	0.201082	0.575707	1	1
162.925385	0.792273	city	7	1	0.596243	0.596243	0	1	0	0	CorrectCommission	0.202188	0.571366	1	1
163.717667	0.792295	city	3	1	0.645916	0.645916	0	1	0	0	CorrectCommission	0.227741	0.572472	1	1
164.509933	0.792227	city	1	1	0.603304	0.603304	0	1	0	0	CorrectCommission	0.141070	0.579156	1	1
165.302277	0.792482	city	4	1	0.646545	0.646545	0	1	0	0	CorrectCommission	0.233188	0.591013	1	1
166.094543	0.792049	city	1	1	0.794221	0.794221	0	1	0	0	CorrectCommission	1.511342	0.607182	1	1
166.886810	0.792481	city	6	1	0.744797	0.744797	0	1	0	0	CorrectCommission	1.083567	0.626407	1	1
167.679123	0.792156	city	7	1	0.646168	0.646168	0	1	0	0	CorrectCommission	0.229923	0.647345	1	1
168.471283	0.792159	city	8	1	0.596521	0.596521	0	1	0	0	CorrectCommission	0.199784	0.668694	1	1
169.263504	0.792261	city	4	1	0.546744	0.546744	0	1	0	0	CorrectCommission	0.630610	0.689377	1	1
170.055817	0.792372	city	3	1	0.497425	0.497425	0	1	0	0	CorrectCommission	1.057473	0.708628	1	1
170.848083	0.792155	city	10	1	0.452845	0.452845	0	1	0	0	CorrectCommission	1.443321	0.726073	0	1
171.640289	0.792267	city	2	1	0.513280	0.513280	0	1	0	0	CorrectCommission	0.920239	0.741660	0	1
172.432556	0.792262	city	7	1	0.546702	0.546702	0	1	0	0	CorrectCommission	0.630969	0.755597	0	1
173.224823	0.792267	city	3	1	0.597451	0.597451	0	1	0	0	CorrectCommission	0.191730	0.768175	0	1
174.017136	0.792373	city	4	1	0.546761	0.546761	0	1	0	0	CorrectCommission	0.630460	0.779623	0	1
174.809509	0.792373	city	3	1	0.714807	0.714807	0	1	0	0	CorrectCommission	0.824002	0.789978	0	1
175.601746	0.792100	city	8	1	0.645524	0.645524	0	1	0	0	CorrectCommission	0.224345	0.799026	0	1
176.394012	0.792430	city	6	1	0.744719	0.744719	0	1	0	0	CorrectCommission	1.082897	0.806320	0	1
177.186356	0.792264	city	8	1	0.843612	0.843612	0	1	0	0	CorrectCommission	1.938832	0.811242	0	1
177.978516	0.792047	city	10	1	0.744715	0.744715	0	1	0	0	CorrectCommission	1.082862	0.813104	0	1
178.770691	0.792301	city	8	1	0.646509	0.646509	0	1	0	0	CorrectCommission	0.232876	0.811379	0	1
179.562973	0.792259	city	9	1	0.645856	0.645856	0	1	0	0	CorrectCommission	0.227219	0.805866	0	1
180.355225	0.792235	city	10	1	0.646179	0.646179	0	1	0	0	CorrectCommission	0.230020	0.796830	0	1
181.147491	0.792316	city	2	1	0.893423	0.893423	0	1	0	0	CorrectCommission	2.369949	0.785135	0	1
181.939865	0.792429	city	3	1	0.546786	0.546786	0	1	0	0	CorrectCommission	0.630247	0.772244	0	1
182.732101	0.792052	mountain	2	1	0.460341	0.460341	0	0	1	0	CommissionError	1.378438	0.760295	0	1
183.524277	0.792286	city	10	1	0.560261	0.560261	0	1	0	0	CorrectCommission	0.513617	0.751730	0	1
184.316650	0.792457	city	8	1	0.546704	0.546704	0	1	0	0	CorrectCommission	0.630950	0.749079	0	1
185.108917	0.792086	city	2	1	0.596032	0.596032	0	1	0	0	CorrectCommission	0.204014	0.754524	0	1
185.901077	0.792227	city	3	1	0.546863	0.546863	0	1	0	0	CorrectCommission	0.629574	0.769470	0	1
186.693420	0.792480	city	7	1	0.604952	0.604952	0	1	0	0	CorrectCommission	0.126807	0.794133	0	0
187.485748	0.792156	mountain	1	0	0.000000	0.593182	1	0	0	0	CorrectOmission	0.228678	0.827353	0	0
188.277908	0.792161	city	1	1	0.596594	0.596594	0	1	0	0	CorrectCommission	0.199144	0.866519	0	0
189.070114	0.792262	city	4	1	0.700230	0.700230	0	1	0	0	CorrectCommission	0.697840	0.907833	0	0
189.862381	0.792266	city	8	1	0.497324	0.497324	0	1	0	0	CorrectCommission	1.058345	0.946769	0	0
190.654694	0.792371	city	9	1	0.497210	0.497210	0	1	0	0	CorrectCommission	1.059333	0.978674	0	0
191.447021	0.792263	city	6	1	0.398089	0.398089	0	1	0	0	CorrectCommission	1.917236	0.999442	0	0
192.239227	0.792160	city	8	1	1.041808	1.041808	0	1	0	0	CorrectCommission	3.654247	1.006095	0	0
193.031433	0.792262	city	9	1	0.794660	0.794660	0	1	0	0	CorrectCommission	1.515146	0.997182	0	0
193.823761	0.792372	city	5	1	0.546741	0.546741	0	1	0	0	CorrectCommission	0.630631	0.972994	0	0
194.616074	0.792264	city	7	1	0.547582	0.547582	0	1	0	0	CorrectCommission	0.623355	0.935330	0	0
195.408295	0.792183	city	3	1	0.546757	0.546757	0	1	0	0	CorrectCommission	0.630495	0.887173	0	0
196.200500	0.792240	city	1	1	0.596804	0.596804	0	1	0	0	CorrectCommission	0.197326	0.832225	0	0
196.992874	0.792482	city	10	1	0.596724	0.596724	0	1	0	0	CorrectCommission	0.198022	0.774390	0	0
197.785141	0.792073	city	6	1	0.794710	0.794710	0	1	0	0	CorrectCommission	1.515572	0.717323	1	0
198.577301	0.792239	city	5	1	0.744793	0.744793	0	1	0	0	CorrectCommission	1.083537	0.664063	1	0
199.369553	0.792263	city	8	1	0.601073	0.601073	0	1	0	0	CorrectCommission	0.160381	0.616967	1	0
200.161819	0.792269	city	1	1	0.645793	0.645793	0	1	0	0	CorrectCommission	0.226676	0.577595	1	0
200.954193	0.792480	city	7	1	0.596414	0.596414	0	1	0	0	CorrectCommission	0.200704	0.546781	1	0
201.746460	0.792048	city	6	1	0.645479	0.645479	0	1	0	0	CorrectCommission	0.223958	0.524775	1	0
202.538666	0.792374	city	3	1	0.558685	0.558685	0	1	0	0	CorrectCommission	0.527256	0.511401	1	0
203.330948	0.792199	city	9	1	0.596135	0.596135	0	1	0	0	CorrectCommission	0.203121	0.506228	1	0
204.123169	0.792225	mountain	7	1	0.596165	0.596165	0	0	1	0	CommissionError	0.202856	0.508727	1	0
204.915405	0.792258	city	2	1	0.794342	0.794342	0	1	0	0	CorrectCommission	1.512390	0.518330	1	0
205.707672	0.792265	city	7	1	0.546941	0.546941	0	1	0	0	CorrectCommission	0.628902	0.534427	1	0
206.499985	0.792375	city	9	1	0.645742	0.645742	0	1	0	0	CorrectCommission	0.226232	0.556338	1	0
207.292252	0.792155	city	8	1	0.560062	0.560062	0	1	0	0	CorrectCommission	0.515336	0.583146	1	0
208.084473	0.792267	mountain	7	1	0.596222	0.596222	0	0	1	0	CommissionError	0.202366	0.613557	1	0
208.876785	0.792372	city	2	1	0.596237	0.596237	0	1	0	0	CorrectCommission	0.202234	0.645816	1	0
209.669052	0.792158	city	9	1	0.596188	0.596188	0	1	0	0	CorrectCommission	0.202660	0.677687	1	0
210.461258	0.792265	city	5	1	0.552449	0.552449	0	1	0	0	CorrectCommission	0.581229	0.706658	1	0
211.253525	0.792266	city	4	1	0.508952	0.508952	0	1	0	0	CorrectCommission	0.957705	0.730156	0	0
212.045792	0.792266	city	8	1	0.794796	0.794796	0	1	0	0	CorrectCommission	1.516322	0.745908	0	0
212.838104	0.792368	city	10	1	0.451250	0.451250	0	1	0	0	CorrectCommission	1.457118	0.752298	0	0
213.630371	0.792159	city	5	1	0.413761	0.413761	0	1	0	0	CorrectCommission	1.781594	0.748686	0	0
214.422592	0.792266	city	7	1	0.497216	0.497216	0	1	0	0	CorrectCommission	1.059276	0.735519	0	0
215.214859	0.792296	city	5	1	0.561819	0.561819	0	1	0	0	CorrectCommission	0.500126	0.714300	1	0
216.007126	0.792232	city	1	1	0.597567	0.597567	0	1	0	0	CorrectCommission	0.190728	0.687377	1	0
216.799377	0.792266	city	6	1	0.695307	0.695307	0	1	0	0	CorrectCommission	0.655227	0.657606	1	0
217.591644	0.792263	city	4	1	0.597046	0.597046	0	1	0	0	CorrectCommission	0.195231	0.627939	1	0
218.383957	0.792373	mountain	4	1	0.695308	0.695308	0	0	1	0	CommissionError	0.655240	0.601022	1	0
219.176239	0.792183	city	10	1	0.645644	0.645644	0	1	0	0	CorrectCommission	0.225384	0.578914	1	0
219.968445	0.792240	city	4	1	0.645710	0.645710	0	1	0	0	CorrectCommission	0.225959	0.562937	1	0
220.760696	0.792261	city	3	1	0.695249	0.695249	0	1	0	0	CorrectCommission	0.654730	0.553651	1	0
221.552963	0.792267	city	7	1	0.596220	0.596220	0	1	0	0	CorrectCommission	0.202388	0.550938	1	0
222.345291	0.792370	mountain	9	0	0.000000	0.537317	1	0	0	0	CorrectOmission	0.712202	0.554229	1	0
223.137543	0.792156	city	10	1	0.548211	0.548211	0	1	0	0	CorrectCommission	0.617910	0.562721	1	0
223.929764	0.792268	city	6	1	0.658573	0.658573	0	1	0	0	CorrectCommission	0.337290	0.575602	1	0
224.722031	0.792268	mountain	6	0	0.000000	0.537307	1	0	0	0	CorrectOmission	0.712288	0.592215	1	0
225.514297	0.792259	city	1	1	0.458385	0.458385	0	1	0	0	CorrectCommission	1.395364	0.612093	1	0
226.306610	0.792373	city	2	1	0.695783	0.695783	0	1	0	0	CorrectCommission	0.659346	0.634922	1	0
227.098877	0.792167	city	6	1	0.596137	0.596137	0	1	0	0	CorrectCommission	0.203100	0.660436	1	0
227.891190	0.792470	city	3	1	0.646494	0.646494	0	1	0	0	CorrectCommission	0.232747	0.688200	1	0
228.683472	0.792067	city	8	1	0.695089	0.695089	0	1	0	0	CorrectCommission	0.653337	0.717433	1	0
229.475616	0.792245	city	10	1	0.664588	0.664588	0	1	0	0	CorrectCommission	0.389350	0.746907	0	0
230.267929	0.792374	city	5	1	0.656234	0.656234	0	1	0	0	CorrectCommission	0.317044	0.774974	0	0
231.060196	0.792161	city	6	1	0.702298	0.702298	0	1	0	0	CorrectCommission	0.715735	0.799670	0	0
231.852463	0.792368	mountain	2	0	0.000000	0.470114	1	0	0	0	CorrectOmission	1.293851	0.818977	0	0
232.644775	0.792266	city	1	1	0.304240	0.304240	0	1	0	0	CorrectCommission	2.729519	0.831100	0	0
233.437103	0.792374	city	2	1	0.549232	0.549232	0	1	0	0	CorrectCommission	0.609073	0.834724	0	0
234.229309	0.792046	city	4	1	0.695980	0.695980	0	1	0	0	CorrectCommission	0.661050	0.829321	0	0
235.021469	0.792269	city	7	1	0.710789	0.710789	0	1	0	0	CorrectCommission	0.789229	0.815121	0	0
235.813751	0.792306	city	5	1	0.759042	0.759042	0	1	0	0	CorrectCommission	1.206862	0.793138	0	0
236.606064	0.792328	city	8	1	0.645795	0.645795	0	1	0	0	CorrectCommission	0.226692	0.765030	0	0
237.398315	0.792155	city	9	1	0.744713	0.744713	0	1	0	0	CorrectCommission	1.082841	0.732914	0	0
238.190521	0.792270	city	6	1	0.754552	0.754552	0	1	0	0	CorrectCommission	1.168005	0.699033	1	0
238.982788	0.792266	city	10	1	0.603652	0.603652	0	1	0	0	CorrectCommission	0.138057	0.665555	1	0
239.775162	0.792477	city	4	1	0.546696	0.546696	0	1	0	0	CorrectCommission	0.631023	0.634340	1	0
240.567444	0.792076	city	8	1	0.596029	0.596029	0	1	0	0	CorrectCommission	0.204038	0.606692	1	0
241.359619	0.792280	city	4	1	0.657506	0.657506	0	1	0	0	CorrectCommission	0.328056	0.583322	1	0
242.151871	0.792219	mountain	3	1	0.645722	0.645722	0	0	1	0	CommissionError	0.226059	0.564306	1	0
242.944244	0.792538	mountain	5	1	0.546888	0.546888	0	0	1	0	CommissionError	0.629357	0.549160	1	0
243.736511	0.791998	city	8	1	0.547076	0.547076	0	1	0	0	CorrectCommission	0.627734	0.537007	1	0
244.528702	0.792369	city	1	1	0.515546	0.515546	0	1	0	0	CorrectCommission	0.900632	0.526790	1	0
245.320969	0.792159	city	5	1	0.546612	0.546612	0	1	0	0	CorrectCommission	0.631750	0.517449	1	0
246.113190	0.792284	city	7	1	0.597473	0.597473	0	1	0	0	CorrectCommission	0.191540	0.508146	1	1
246.905563	0.792460	city	2	1	0.695426	0.695426	0	1	0	0	CorrectCommission	0.656254	0.498414	1	1
247.697922	0.792265	city	3	1	0.547413	0.547413	0	1	0	0	CorrectCommission	0.624817	0.488207	1	1
248.490082	0.792049	city	6	1	0.645549	0.645549	0	1	0	0	CorrectCommission	0.224568	0.477939	1	1
249.282333	0.792481	city	1	1	0.746039	0.746039	0	1	0	0	CorrectCommission	1.094322	0.468427	1	1
250.074600	0.792047	city	2	1	0.645559	0.645559	0	1	0	0	CorrectCommission	0.224655	0.460709	1	1
250.866821	0.792373	city	9	1	0.665839	0.665839	0	1	0	0	CorrectCommission	0.400181	0.455967	1	1
251.659210	0.792428	city	5	1	0.596108	0.596108	0	1	0	0	CorrectCommission	0.203352	0.455235	1	1
252.451431	0.792003	city	1	1	0.596137	0.596137	0	1	0	0	CorrectCommission	0.203104	0.459260	1	1
253.243561	0.792254	city	7	1	0.596243	0.596243	0	1	0	0	CorrectCommission	0.202183	0.468313	1	1
254.035843	0.792307	city	4	1	0.605563	0.605563	0	1	0	0	CorrectCommission	0.121517	0.482140	1	1
254.828110	0.792226	city	7	1	0.744748	0.744748	0	1	0	0	CorrectCommission	1.083152	0.499908	1	1
255.620346	0.792248	city	2	1	0.605816	0.605816	0	1	0	0	CorrectCommission	0.119329	0.520280	1	1
256.412720	0.792495	city	8	1	0.646208	0.646208	0	1	0	0	CorrectCommission	0.230265	0.541649	1	1
257.204987	0.792048	city	3	1	0.695231	0.695231	0	1	0	0	CorrectCommission	0.654568	0.562279	1	1
257.997192	0.792372	city	10	1	0.695301	0.695301	0	1	0	0	CorrectCommission	0.655177	0.580557	1	1
258.789581	0.792375	city	3	1	0.751900	0.751900	0	1	0	0	CorrectCommission	1.145052	0.595227	1	1
259.581879	0.792264	city	10	1	0.796770	0.796770	0	1	0	0	CorrectCommission	1.533402	0.605527	1	1
260.374054	0.792052	city	3	1	0.654006	0.654006	0	1	0	0	CorrectCommission	0.297761	0.611270	1	1
261.166321	0.792477	city	1	1	0.695416	0.695416	0	1	0	0	CorrectCommission	0.656168	0.612858	1	1
261.958679	0.792266	city	10	1	0.700545	0.700545	0	1	0	0	CorrectCommission	0.700563	0.611097	1	1
262.750854	0.792087	mountain	3	0	0.000000	0.634657	1	0	0	0	CorrectOmission	0.130290	0.607078	1	1
263.543060	0.792332	city	1	1	0.596183	0.596183	0	1	0	0	CorrectCommission	0.202709	0.602013	1	1
264.335358	0.792265	mountain	7	0	0.000000	0.683555	1	0	0	0	CorrectOmission	0.553510	0.597042	1	1
265.127563	0.792156	city	7	1	0.761663	0.761663	0	1	0	0	CorrectCommission	1.229550	0.593087	1	1
265.919830	0.792374	city	3	1	0.695397	0.695397	0	1	0	0	CorrectCommission	0.656010	0.590825	1	1
266.712158	0.792263	city	6	1	0.610749	0.610749	0	1	0	0	CorrectCommission	0.076635	0.590685	1	1
267.504364	0.792156	city	3	1	0.561407	0.561407	0	1	0	0	CorrectCommission	0.503698	0.592897	1	1
268.296631	0.792376	city	9	1	0.695634	0.695634	0	1	0	0	CorrectCommission	0.658059	0.597510	1	1
269.088959	0.792263	city	2	1	0.513254	0.513254	0	1	0	0	CorrectCommission	0.920464	0.604488	1	1
269.881226	0.792265	city	8	1	0.560469	0.560469	0	1	0	0	CorrectCommission	0.511818	0.613756	1	1
270.673553	0.792373	city	5	1	0.645704	0.645704	0	1	0	0	CorrectCommission	0.225906	0.625250	1	1
271.465790	0.792154	city	4	1	0.663653	0.663653	0	1	0	0	CorrectCommission	0.381258	0.638941	1	1
272.257965	0.792197	city	8	1	0.751672	0.751672	0	1	0	0	CorrectCommission	1.143075	0.654783	1	1
273.050201	0.792227	city	4	1	0.546662	0.546662	0	1	0	0	CorrectCommission	0.631318	0.672694	1	1
273.842468	0.792309	city	8	1	0.511202	0.511202	0	1	0	0	CorrectCommission	0.938227	0.692508	1	1
274.634735	0.792238	city	9	1	0.551414	0.551414	0	1	0	0	CorrectCommission	0.590188	0.713849	1	1
275.427094	0.792461	city	7	1	0.546849	0.546849	0	1	0	0	CorrectCommission	0.629699	0.736079	0	1
276.219391	0.792158	city	3	1	0.695068	0.695068	0	1	0	0	CorrectCommission	0.653161	0.758238	0	1
277.011566	0.792214	city	2	1	0.596110	0.596110	0	1	0	0	CorrectCommission	0.203334	0.779054	0	1
277.803802	0.792204	city	6	1	0.646121	0.646121	0	1	0	0	CorrectCommission	0.229516	0.797062	0	1
278.596039	0.792268	city	4	1	0.744906	0.744906	0	1	0	0	CorrectCommission	1.084517	0.810743	0	1
279.388275	0.792260	city	5	1	0.893456	0.893456	0	1	0	0	CorrectCommission	2.370239	0.818704	0	1
280.180542	0.792265	city	3	1	0.744742	0.744742	0	1	0	0	CorrectCommission	1.083100	0.819951	0	1
280.972870	0.792376	city	1	1	0.695348	0.695348	0	1	0	0	CorrectCommission	0.655581	0.814132	0	1
281.765259	0.792373	city	2	1	0.695308	0.695308	0	1	0	0	CorrectCommission	0.655237	0.801573	0	1
282.557465	0.792048	city	6	1	0.744539	0.744539	0	1	0	0	CorrectCommission	1.081339	0.783306	0	1
283.349609	0.792264	city	7	1	0.745427	0.745427	0	1	0	0	CorrectCommission	1.089028	0.761013	0	1
284.141876	0.792266	city	9	1	0.698886	0.698886	0	1	0	0	CorrectCommission	0.686203	0.736855	0	1
284.934143	0.792262	city	2	1	0.654049	0.654049	0	1	0	0	CorrectCommission	0.298131	0.713230	1	1
285.726501	0.792484	mountain	10	1	0.596224	0.596224	0	0	1	0	CommissionError	0.202348	0.692580	1	1
286.518768	0.792047	city	8	1	0.546517	0.546517	0	1	0	0	CorrectCommission	0.632568	0.677044	1	1
287.310944	0.792266	city	4	1	0.506769	0.506769	0	1	0	0	CorrectCommission	0.976596	0.668300	1	1
288.103210	0.792288	city	3	1	0.557278	0.557278	0	1	0	0	CorrectCommission	0.539436	0.667433	1	1
288.895508	0.792278	city	4	1	0.596223	0.596223	0	1	0	0	CorrectCommission	0.202363	0.674849	1	1
289.687744	0.792227	city	1	1	0.546768	0.546768	0	1	0	0	CorrectCommission	0.630399	0.690232	1	1
290.480042	0.792372	city	7	1	0.645787	0.645787	0	1	0	0	CorrectCommission	0.226627	0.712616	1	1
291.272339	0.792238	city	6	1	0.695670	0.695670	0	1	0	0	CorrectCommission	0.658370	0.740493	0	1
292.064575	0.792199	city	5	1	0.704164	0.704164	0	1	0	0	CorrectCommission	0.731889	0.771966	0	1
292.856842	0.792358	city	7	1	0.695998	0.695998	0	1	0	0	CorrectCommission	0.661211	0.804942	0	1
293.649170	0.792265	city	5	1	0.794312	0.794312	0	1	0	0	CorrectCommission	1.512133	0.837329	0	1
294.441406	0.792241	city	2	1	0.695312	0.695312	0	1	0	0	CorrectCommission	0.655275	0.867170	0	1
295.233612	0.792181	city	1	1	0.761294	0.761294	0	1	0	0	CorrectCommission	1.226355	0.892831	0	1
296.025848	0.792264	city	10	1	0.844295	0.844295	0	1	0	0	CorrectCommission	1.944738	0.912996	0	1
296.818207	0.792480	city	6	1	0.752042	0.752042	0	1	0	0	CorrectCommission	1.146278	0.926670	0	1
297.610504	0.792114	city	8	1	0.646007	0.646007	0	1	0	0	CorrectCommission	0.228530	0.933238	0	1
298.402740	0.792307	city	3	1	0.596177	0.596177	0	1	0	0	CorrectCommission	0.202754	0.932390	0	1
299.194946	0.792157	city	1	1	0.598788	0.598788	0	1	0	0	CorrectCommission	0.180161	0.924142	0	1
299.987183	0.792272	city	8	1	0.665155	0.665155	0	1	0	0	CorrectCommission	0.394255	0.908943	0	1
300.779449	0.792269	city	1	1	1.103690	1.103690	0	1	0	0	CorrectCommission	4.189844	0.887760	0	1
301.571808	0.792469	city	9	1	0.794348	0.794348	0	1	0	0	CorrectCommission	1.512444	0.862070	0	1
302.364075	0.792048	city	3	1	0.645914	0.645914	0	1	0	0	CorrectCommission	0.227722	0.834041	0	1
303.156342	0.792482	city	2	1	0.565092	0.565092	0	1	0	0	CorrectCommission	0.471805	0.806232	0	1
303.948608	0.792048	city	9	1	0.599526	0.599526	0	1	0	0	CorrectCommission	0.173772	0.781320	0	1
304.740875	0.792482	city	8	1	0.645759	0.645759	0	1	0	0	CorrectCommission	0.226380	0.761797	0	1
305.533203	0.792156	city	5	1	0.546507	0.546507	0	1	0	0	CorrectCommission	0.632662	0.749589	0	0
306.325409	0.792263	city	2	1	0.596575	0.596575	0	1	0	0	CorrectCommission	0.199309	0.745738	0	0
307.117615	0.792155	mountain	1	1	0.695234	0.695234	0	0	1	0	CommissionError	0.654597	0.750257	0	0
307.909821	0.792268	city	9	1	0.546881	0.546881	0	1	0	0	CorrectCommission	0.629424	0.762074	0	0
308.702179	0.792480	city	2	1	0.497372	0.497372	0	1	0	0	CorrectCommission	1.057930	0.779221	0	0
309.494476	0.792100	city	6	1	0.645552	0.645552	0	1	0	0	CorrectCommission	0.224589	0.799084	0	0
310.286652	0.792214	city	8	1	0.546987	0.546987	0	1	0	0	CorrectCommission	0.628505	0.818831	0	0
311.078888	0.792264	city	2	1	0.447714	0.447714	0	1	0	0	CorrectCommission	1.487730	0.835750	0	0
311.871155	0.792263	city	10	1	0.447681	0.447681	0	1	0	0	CorrectCommission	1.488011	0.847646	0	0
312.663422	0.792266	city	1	1	0.412980	0.412980	0	1	0	0	CorrectCommission	1.788350	0.853106	0	0
313.455780	0.792482	city	4	1	0.516612	0.516612	0	1	0	0	CorrectCommission	0.891401	0.851585	0	0
314.248047	0.792051	city	8	1	0.596042	0.596042	0	1	0	0	CorrectCommission	0.203922	0.843409	0	0
315.040192	0.792264	city	9	1	0.514074	0.514074	0	1	0	0	CorrectCommission	0.913369	0.829587	0	0
315.832520	0.792371	city	6	1	0.507704	0.507704	0	1	0	0	CorrectCommission	0.968501	0.811502	0	0
316.624786	0.792181	city	3	1	0.546652	0.546652	0	1	0	0	CorrectCommission	0.631403	0.790659	0	0
317.417023	0.792269	city	9	1	0.547701	0.547701	0	1	0	0	CorrectCommission	0.622323	0.768432	0	0
318.209290	0.792238	city	10	1	0.547558	0.547558	0	1	0	0	CorrectCommission	0.623564	0.745796	0	0
319.001526	0.792266	city	4	1	0.546704	0.546704	0	1	0	0	CorrectCommission	0.630954	0.723352	0	0
319.793823	0.792323	city	2	1	0.547172	0.547172	0	1	0	0	CorrectCommission	0.626907	0.701336	1	0
320.586151	0.792311	city	7	1	0.511598	0.511598	0	1	0	0	CorrectCommission	0.934800	0.679725	1	0
321.378479	0.792373	city	6	1	0.596171	0.596171	0	1	0	0	CorrectCommission	0.202809	0.658450	1	0
322.170685	0.792051	city	4	1	0.505371	0.505371	0	1	0	0	CorrectCommission	0.988696	0.637568	1	0
322.962891	0.792326	city	2	1	0.547522	0.547522	0	1	0	0	CorrectCommission	0.623876	0.617384	1	0
323.755249	0.792418	city	1	1	0.794266	0.794266	0	1	0	0	CorrectCommission	1.511732	0.598577	1	0
324.547485	0.792050	city	4	1	0.559780	0.559780	0	1	0	0	CorrectCommission	0.517777	0.582080	1	0
325.339752	0.792478	city	10	1	0.646071	0.646071	0	1	0	0	CorrectCommission	0.229082	0.569013	1	0
326.132080	0.792155	city	8	1	0.645654	0.645654	0	1	0	0	CorrectCommission	0.225474	0.560385	1	0
326.924225	0.792161	city	9	1	0.600030	0.600030	0	1	0	0	CorrectCommission	0.169411	0.556854	1	0
327.716431	0.792261	city	10	1	0.596353	0.596353	0	1	0	0	CorrectCommission	0.201236	0.558516	1	0
328.508698	0.792264	city	7	1	0.655928	0.655928	0	1	0	0	CorrectCommission	0.314400	0.564747	1	0
329.300964	0.792275	city	6	1	0.606199	0.606199	0	1	0	0	CorrectCommission	0.116016	0.574240	1	0
330.093262	0.792288	city	1	1	0.546782	0.546782	0	1	0	0	CorrectCommission	0.630281	0.585165	1	0
330.885498	0.792236	city	8	1	0.497156	0.497156	0	1	0	0	CorrectCommission	1.059803	0.595421	1	0
331.677765	0.792262	city	2	1	0.497188	0.497188	0	1	0	0	CorrectCommission	1.059518	0.603009	1	0
332.470032	0.792294	city	9	1	0.497209	0.497209	0	1	0	0	CorrectCommission	1.059338	0.606336	1	0
333.262299	0.792254	city	7	1	0.497153	0.497153	0	1	0	0	CorrectCommission	1.059822	0.604481	1	0
334.054657	0.792462	city	10	1	0.546821	0.546821	0	1	0	0	CorrectCommission	0.629939	0.597339	1	0
334.846924	0.792055	city	1	1	0.596050	0.596050	0	1	0	0	CorrectCommission	0.203853	0.585616	1	0
335.639099	0.792256	city	2	1	0.645851	0.645851	0	1	0	0	CorrectCommission	0.227180	0.570709	1	0
336.431335	0.792268	city	6	1	0.794548	0.794548	0	1	0	0	CorrectCommission	1.514170	0.554425	1	0
337.223633	0.792310	city	3	1	0.604665	0.604665	0	1	0	0	CorrectCommission	0.129290	0.538682	1	0
338.015900	0.792221	city	2	1	0.645735	0.645735	0	1	0	0	CorrectCommission	0.226175	0.525281	1	0
338.808258	0.792478	city	7	1	0.657233	0.657233	0	1	0	0	CorrectCommission	0.325693	0.515581	1	0
339.600555	0.792156	city	8	1	0.611126	0.611126	0	1	0	0	CorrectCommission	0.073375	0.510364	1	0
340.392822	0.792374	city	4	1	0.649088	0.649088	0	1	0	0	CorrectCommission	0.255193	0.509807	1	0
341.185150	0.792264	city	5	1	0.695213	0.695213	0	1	0	0	CorrectCommission	0.654414	0.513503	1	0
341.977325	0.792087	mountain	7	1	0.596039	0.596039	0	0	1	0	CommissionError	0.203947	0.520639	1	0
342.769470	0.792226	city	9	1	0.503792	0.503792	0	1	0	0	CorrectCommission	1.002360	0.530269	1	0
343.561798	0.792375	city	6	1	0.554759	0.554759	0	1	0	0	CorrectCommission	0.561237	0.541512	1	0
344.354156	0.792371	city	3	1	0.546689	0.546689	0	1	0	0	CorrectCommission	0.631082	0.553829	1	0
345.146362	0.792052	mountain	3	1	0.497286	0.497286	0	0	1	0	CommissionError	1.058677	0.567114	1	0
345.938568	0.792314	city	5	1	0.555218	0.555218	0	1	0	0	CorrectCommission	0.557263	0.581699	1	0
346.730804	0.792210	city	6	1	0.546802	0.546802	0	1	0	0	CorrectCommission	0.630103	0.598284	1	0
347.523041	0.792264	city	4	1	0.662572	0.662572	0	1	0	0	CorrectCommission	0.371898	0.617688	1	0
348.315308	0.792269	city	8	1	0.596253	0.596253	0	1	0	0	CorrectCommission	0.202103	0.640595	1	0
349.107605	0.792274	city	5	1	0.645841	0.645841	0	1	0	0	CorrectCommission	0.227092	0.667285	1	0
349.899841	0.792251	city	4	1	0.656581	0.656581	0	1	0	0	CorrectCommission	0.320046	0.697411	1	0
350.692108	0.792265	mountain	10	1	0.794241	0.794241	0	0	1	0	CommissionError	1.511516	0.729902	0	0
351.484375	0.792266	mountain	1	0	0.000000	0.703497	1	0	0	0	CorrectOmission	0.726111	0.762929	0	0
352.276642	0.792266	city	3	1	0.564991	0.564991	0	1	0	0	CorrectCommission	0.472680	0.794118	0	0
353.069031	0.792480	city	5	1	0.559365	0.559365	0	1	0	0	CorrectCommission	0.521368	0.820779	0	0
353.861267	0.792053	city	6	1	0.645526	0.645526	0	1	0	0	CorrectCommission	0.224363	0.840261	0	0
354.653442	0.792258	city	2	1	0.794334	0.794334	0	1	0	0	CorrectCommission	1.512325	0.850403	0	0
355.445740	0.792374	city	7	1	0.893353	0.893353	0	1	0	0	CorrectCommission	2.369350	0.849832	0	0
356.238129	0.792375	city	3	1	0.893301	0.893301	0	1	0	0	CorrectCommission	2.368899	0.838272	0	0
357.030334	0.792047	city	8	1	0.661572	0.661572	0	1	0	0	CorrectCommission	0.363243	0.816666	0	0
357.822540	0.792373	city	3	1	0.562664	0.562664	0	1	0	0	CorrectCommission	0.492815	0.787106	0	0
358.614807	0.792161	city	2	1	0.654042	0.654042	0	1	0	0	CorrectCommission	0.298071	0.752497	0	0
359.407013	0.792260	city	5	1	0.695692	0.695692	0	1	0	0	CorrectCommission	0.658560	0.716237	1	0
360.199310	0.792292	city	7	1	0.697703	0.697703	0	1	0	0	CorrectCommission	0.675965	0.681718	1	0
360.991577	0.792241	city	4	1	0.645750	0.645750	0	1	0	0	CorrectCommission	0.226307	0.651916	1	0
361.783936	0.792479	mountain	1	1	0.645667	0.645667	0	0	1	0	CommissionError	0.225589	0.629043	1	0
362.576233	0.792104	city	10	1	0.560681	0.560681	0	1	0	0	CorrectCommission	0.509982	0.614293	1	0
363.368378	0.792210	city	1	1	0.695226	0.695226	0	1	0	0	CorrectCommission	0.654529	0.607784	1	0
364.160614	0.792266	city	2	1	0.646452	0.646452	0	1	0	0	CorrectCommission	0.232378	0.608610	1	0
364.952881	0.792284	city	9	1	0.645730	0.645730	0	1	0	0	CorrectCommission	0.226132	0.615032	1	1
365.745178	0.792287	mountain	2	1	0.745203	0.745203	0	0	1	0	CommissionError	1.087089	0.624723	1	1
366.537445	0.792222	city	1	1	0.695215	0.695215	0	1	0	0	CorrectCommission	0.654429	0.635103	1	1
367.329681	0.792270	mountain	7	1	0.658550	0.658550	0	0	1	0	CommissionError	0.337089	0.643695	1	1
368.121948	0.792258	city	1	1	0.695286	0.695286	0	1	0	0	CorrectCommission	0.655050	0.648416	1	1
368.914307	0.792479	city	7	1	0.795225	0.795225	0	1	0	0	CorrectCommission	1.520031	0.647834	1	1
369.706635	0.792157	city	8	1	0.799033	0.799033	0	1	0	0	CorrectCommission	1.552989	0.641311	1	1
370.498779	0.792157	city	6	1	0.711385	0.711385	0	1	0	0	CorrectCommission	0.794385	0.629057	1	1
371.291016	0.792316	city	4	1	0.645764	0.645764	0	1	0	0	CorrectCommission	0.226430	0.612049	1	1
372.083344	0.792322	city	2	1	0.645700	0.645700	0	1	0	0	CorrectCommission	0.225874	0.591841	1	1
372.875610	0.792190	city	7	1	0.601565	0.601565	0	1	0	0	CorrectCommission	0.156119	0.570320	1	1
373.667816	0.792249	city	10	1	0.645943	0.645943	0	1	0	0	CorrectCommission	0.227976	0.549528	1	1
374.460052	0.792254	mountain	8	0	0.000000	0.716457	1	0	0	0	CorrectOmission	0.838283	0.531433	1	1
375.252319	0.792261	city	4	1	0.744767	0.744767	0	1	0	0	CorrectCommission	1.083313	0.517729	1	1
376.044617	0.792333	city	6	1	0.662535	0.662535	0	1	0	0	CorrectCommission	0.371578	0.509787	1	1
376.836884	0.792190	city	4	1	0.597118	0.597118	0	1	0	0	CorrectCommission	0.194610	0.508629	1	1
377.629211	0.792483	city	8	1	0.596270	0.596270	0	1	0	0	CorrectCommission	0.201952	0.514833	1	1
378.421478	0.792046	city	9	1	0.645639	0.645639	0	1	0	0	CorrectCommission	0.225342	0.528589	1	1
379.213654	0.792295	city	5	1	0.596382	0.596382	0	1	0	0	CorrectCommission	0.200979	0.549776	1	1
380.006042	0.792453	city	2	1	0.647635	0.647635	0	1	0	0	CorrectCommission	0.242622	0.578008	1	1
380.798279	0.792047	city	8	1	0.652393	0.652393	0	1	0	0	CorrectCommission	0.283801	0.612742	1	1
381.590485	0.792373	city	10	1	0.794291	0.794291	0	1	0	0	CorrectCommission	1.511952	0.653370	1	1
382.382751	0.792160	city	2	1	0.744655	0.744655	0	1	0	0	CorrectCommission	1.082342	0.699202	1	1
383.175018	0.792371	city	1	1	0.745244	0.745244	0	1	0	0	CorrectCommission	1.087444	0.749486	0	1
383.967407	0.792372	city	8	1	0.695161	0.695161	0	1	0	0	CorrectCommission	0.653961	0.803242	0	1
384.759613	0.792049	city	4	1	0.657077	0.657077	0	1	0	0	CorrectCommission	0.324342	0.859140	0	1
385.551880	0.792481	city	2	1	0.645716	0.645716	0	1	0	0	CorrectCommission	0.226012	0.915342	0	1
386.344238	0.792267	city	1	1	0.609953	0.609953	0	1	0	0	CorrectCommission	0.083524	0.969440	0	1
387.136383	0.792046	city	3	1	0.745236	0.745236	0	1	0	0	CorrectCommission	1.087375	1.018544	0	1
387.928558	0.792264	city	6	1	0.744828	0.744828	0	1	0	0	CorrectCommission	1.083843	1.059491	0	1
388.720917	0.792483	city	3	1	0.992496	0.992496	0	1	0	0	CorrectCommission	3.227441	1.089254	0	1
389.513245	0.792155	city	2	1	0.843592	0.843592	0	1	0	0	CorrectCommission	1.938656	1.105255	0	1
390.305389	0.792156	city	7	1	0.645777	0.645777	0	1	0	0	CorrectCommission	0.226541	1.105888	0	1
391.097626	0.792268	city	8	1	0.695773	0.695773	0	1	0	0	CorrectCommission	0.659262	1.090731	0	1
391.889984	0.792479	city	9	1	0.992375	0.992375	0	1	0	0	CorrectCommission	3.226395	1.060635	0	1
392.682251	0.792046	city	10	1	0.795121	0.795121	0	1	0	0	CorrectCommission	1.519131	1.017673	0	1
393.474396	0.792267	city	8	1	0.648878	0.648878	0	1	0	0	CorrectCommission	0.253379	0.964999	0	1
394.266693	0.792279	mountain	5	1	0.498190	0.498190	0	0	1	0	CommissionError	1.050851	0.906381	0	1
395.058929	0.792251	city	8	1	0.646323	0.646323	0	1	0	0	CorrectCommission	0.231267	0.845725	0	1
395.851227	0.792335	city	9	1	0.645765	0.645765	0	1	0	0	CorrectCommission	0.226437	0.786714	0	1
396.643494	0.792197	city	10	1	0.546669	0.546669	0	1	0	0	CorrectCommission	0.631252	0.732375	0	1
397.435730	0.792262	mountain	7	0	0.000000	0.644701	1	0	0	0	CorrectOmission	0.217228	0.684851	1	1
398.228119	0.792480	city	10	1	0.744927	0.744927	0	1	0	0	CorrectCommission	1.084698	0.645328	1	1
399.020477	0.792264	city	1	1	0.652414	0.652414	0	1	0	0	CorrectCommission	0.283981	0.614021	1	1
399.812622	0.792050	city	5	1	0.567892	0.567892	0	1	0	0	CorrectCommission	0.447565	0.590402	1	1
400.604797	0.792268	city	2	1	0.552165	0.552165	0	1	0	0	CorrectCommission	0.583688	0.573371	1	1
401.397095	0.792312	mountain	6	1	0.546829	0.546829	0	0	1	0	CommissionError	0.629873	0.561528	1	1
402.189362	0.792218	city	7	1	0.564301	0.564301	0	1	0	0	CorrectCommission	0.478649	0.553409	1	1
402.981598	0.792259	city	1	1	0.596239	0.596239	0	1	0	0	CorrectCommission	0.202223	0.547660	1	1
403.773865	0.792269	city	7	1	0.501853	0.501853	0	1	0	0	CorrectCommission	1.019145	0.543176	1	1
404.566101	0.792261	city	3	1	0.546738	0.546738	0	1	0	0	CorrectCommission	0.630662	0.539145	1	1
405.358368	0.792266	city	7	1	0.515858	0.515858	0	1	0	0	CorrectCommission	0.897933	0.535120	1	1
406.150635	0.792262	city	8	1	0.603638	0.603638	0	1	0	0	CorrectCommission	0.138177	0.530880	1	1
406.942902	0.792267	city	9	1	0.602916	0.602916	0	1	0	0	CorrectCommission	0.144428	0.526458	1	1
407.735199	0.792340	city	3	1	0.497227	0.497227	0	1	0	0	CorrectCommission	1.059187	0.522045	1	1
408.527466	0.792188	city	9	1	0.561835	0.561835	0	1	0	0	CorrectCommission	0.499996	0.517889	1	1
409.319794	0.792481	mountain	2	0	0.000000	0.611079	1	0	0	0	CorrectOmission	0.073776	0.514284	1	1
410.112091	0.792113	city	7	1	0.603551	0.603551	0	1	0	0	CorrectCommission	0.138934	0.511626	1	1
410.904266	0.792201	city	5	1	0.497840	0.497840	0	1	0	0	CorrectCommission	1.053876	0.510399	1	1
411.696533	0.792319	mountain	10	1	0.561180	0.561180	0	0	1	0	CommissionError	0.505663	0.511173	1	1
412.488831	0.792318	city	10	1	0.546941	0.546941	0	1	0	0	CorrectCommission	0.628899	0.514714	1	1
413.281067	0.792161	city	9	1	0.695372	0.695372	0	1	0	0	CorrectCommission	0.655791	0.521979	1	1
414.073303	0.792263	city	8	1	0.546734	0.546734	0	1	0	0	CorrectCommission	0.630695	0.534093	1	1
414.865570	0.792267	city	9	1	0.645749	0.645749	0	1	0	0	CorrectCommission	0.226296	0.552290	1	1
415.657837	0.792286	city	10	1	0.602578	0.602578	0	1	0	0	CorrectCommission	0.147353	0.577767	1	1
416.450134	0.792303	city	5	1	0.596367	0.596367	0	1	0	0	CorrectCommission	0.201117	0.611529	1	1
417.242432	0.792310	city	4	1	0.695729	0.695729	0	1	0	0	CorrectCommission	0.658880	0.654209	1	1
418.034698	0.792217	city	2	1	0.655820	0.655820	0	1	0	0	CorrectCommission	0.313465	0.705889	1	1
418.826904	0.792205	city	5	1	0.646003	0.646003	0	1	0	0	CorrectCommission	0.228497	0.765982	0	1
419.619141	0.792265	city	3	1	0.794365	0.794365	0	1	0	0	CorrectCommission	1.512588	0.833108	0	1
420.411438	0.792301	city	5	1	0.844077	0.844077	0	1	0	0	CorrectCommission	1.942851	0.905023	0	1
421.203705	0.792231	city	9	1	0.696481	0.696481	0	1	0	0	CorrectCommission	0.665391	0.978669	0	1
421.995972	0.792339	mountain	3	0	0.000000	0.613770	1	0	0	0	CorrectOmission	0.050484	1.050314	0	1
422.788239	0.792187	city	10	1	0.596727	0.596727	0	1	0	0	CorrectCommission	0.197993	1.115826	0	1
423.580475	0.792265	city	4	1	0.646137	0.646137	0	1	0	0	CorrectCommission	0.229651	1.171003	0	1
424.372772	0.792371	city	7	1	0.744776	0.744776	0	1	0	0	CorrectCommission	1.083393	1.212189	0	0
425.165161	0.792375	city	9	1	1.091283	1.091283	0	1	0	0	CorrectCommission	4.082460	1.236841	0	0
425.957458	0.792210	mountain	8	0	0.000000	1.091686	1	0	0	0	CorrectOmission	4.085949	1.243947	0	0
426.749603	0.792101	city	8	1	0.894367	0.894367	0	1	0	0	CorrectCommission	2.378123	1.234410	0	0
427.541809	0.792297	city	2	1	0.647708	0.647708	0	1	0	0	CorrectCommission	0.243248	1.211036	0	0
428.334137	0.792342	city	3	1	0.659893	0.659893	0	1	0	0	CorrectCommission	0.348715	1.178147	0	0
429.126404	0.792208	mountain	10	1	0.647243	0.647243	0	0	1	0	CommissionError	0.239229	1.140962	0	0
429.918610	0.792218	city	3	1	0.701782	0.701782	0	1	0	0	CorrectCommission	0.711274	1.104903	0	0
430.710846	0.792261	city	4	1	0.546702	0.546702	0	1	0	0	CorrectCommission	0.630966	1.074846	0	0
431.503143	0.792336	city	8	1	0.546787	0.546787	0	1	0	0	CorrectCommission	0.630238	1.054545	0	0
432.295532	0.792411	city	5	1	0.506655	0.506655	0	1	0	0	CorrectCommission	0.977580	1.046253	0	0
433.087738	0.792049	city	6	1	0.496971	0.496971	0	1	0	0	CorrectCommission	1.061401	1.050572	0	0
433.879974	0.792371	mountain	6	1	0.497820	0.497820	0	0	1	0	CommissionError	1.054048	1.066529	0	0
434.672241	0.792167	city	10	1	0.512777	0.512777	0	1	0	0	CorrectCommission	0.924598	1.091831	0	0
435.464447	0.792254	city	6	1	0.695241	0.695241	0	1	0	0	CorrectCommission	0.654656	1.123217	0	0
436.256744	0.792374	city	5	1	0.755813	0.755813	0	1	0	0	CorrectCommission	1.178921	1.156878	0	0
437.049042	0.792172	city	2	1	0.695779	0.695779	0	1	0	0	CorrectCommission	0.659317	1.188842	0	0
437.841248	0.792257	city	6	1	1.011178	1.011178	0	1	0	0	CorrectCommission	3.389137	1.215444	0	0
438.633545	0.792365	city	8	1	0.651516	0.651516	0	1	0	0	CorrectCommission	0.276208	1.233565	0	0
439.425873	0.792264	city	2	1	0.546615	0.546615	0	1	0	0	CorrectCommission	0.631726	1.241061	0	0
440.218079	0.792154	city	5	1	0.992403	0.992403	0	1	0	0	CorrectCommission	3.226638	1.236734	0	0
441.010406	0.792485	city	6	1	0.843991	0.843991	0	1	0	0	CorrectCommission	1.942107	1.220383	0	0
441.802673	0.792044	city	2	1	0.665447	0.665447	0	1	0	0	CorrectCommission	0.396789	1.192851	0	0
442.594940	0.792484	mountain	4	1	0.498884	0.498884	0	0	1	0	CommissionError	1.044839	1.155768	0	0
443.387207	0.792049	city	7	1	0.453877	0.453877	0	1	0	0	CorrectCommission	1.434384	1.111323	0	0
444.179352	0.792264	city	8	1	0.513150	0.513150	0	1	0	0	CorrectCommission	0.921364	1.062134	0	0
444.971619	0.792264	mountain	4	1	0.497809	0.497809	0	0	1	0	CommissionError	1.054147	1.010977	0	0
445.763947	0.792373	city	8	1	0.547144	0.547144	0	1	0	0	CorrectCommission	0.627148	0.960545	0	0
446.556183	0.792155	city	6	1	0.695279	0.695279	0	1	0	0	CorrectCommission	0.654990	0.913370	0	0
447.348419	0.792318	city	2	1	0.752708	0.752708	0	1	0	0	CorrectCommission	1.152043	0.871690	0	0
448.140808	0.792429	city	7	1	0.745180	0.745180	0	1	0	0	CorrectCommission	1.086883	0.837387	0	0
448.933167	0.792264	city	3	1	0.663096	0.663096	0	1	0	0	CorrectCommission	0.376441	0.811934	0	0
449.725311	0.792049	city	8	1	0.695106	0.695106	0	1	0	0	CorrectCommission	0.653486	0.796353	0	0
450.517487	0.792334	city	6	1	0.645907	0.645907	0	1	0	0	CorrectCommission	0.227667	0.791116	0	0
451.309784	0.792207	city	2	1	0.653185	0.653185	0	1	0	0	CorrectCommission	0.290654	0.796117	0	0
452.101990	0.792254	city	3	1	0.596298	0.596298	0	1	0	0	CorrectCommission	0.201710	0.810626	0	0
452.894257	0.792265	city	10	1	0.406768	0.406768	0	1	0	0	CorrectCommission	1.842119	0.833298	0	0
453.686584	0.792370	city	8	1	0.497233	0.497233	0	1	0	0	CorrectCommission	1.059135	0.862117	0	0
454.478851	0.792184	city	3	1	0.546629	0.546629	0	1	0	0	CorrectCommission	0.631601	0.894590	0	0
455.271118	0.792346	city	9	1	0.506461	0.506461	0	1	0	0	CorrectCommission	0.979262	0.927706	0	0
456.063385	0.792155	mountain	5	1	0.562667	0.562667	0	0	1	0	CommissionError	0.492795	0.958231	0	0
456.855591	0.792265	city	8	1	0.657458	0.657458	0	1	0	0	CorrectCommission	0.327641	0.982916	0	0
457.647858	0.792303	city	1	1	0.695425	0.695425	0	1	0	0	CorrectCommission	0.656251	0.998808	0	0
458.440186	0.792336	city	7	1	0.744728	0.744728	0	1	0	0	CorrectCommission	1.082972	1.003631	0	0
459.232422	0.792158	city	2	1	1.092442	1.092442	0	1	0	0	CorrectCommission	4.092489	0.996147	0	0
460.024628	0.792261	city	3	0	0.000000	0.902295	0	0	0	1	OmissionError	2.446737	0.976308	0	0
460.816956	0.792375	city	5	1	0.596253	0.596253	0	1	0	0	CorrectCommission	0.202096	0.945498	0	0
461.609222	0.792175	mountain	4	1	0.596285	0.596285	0	0	1	0	CommissionError	0.201821	0.906335	0	0
462.401550	0.792464	mountain	3	1	0.663882	0.663882	0	0	1	0	CommissionError	0.383244	0.862325	0	0
463.193817	0.792063	city	7	1	0.695055	0.695055	0	1	0	0	CorrectCommission	0.653048	0.817518	0	0
463.986084	0.792467	city	8	1	0.596235	0.596235	0	1	0	0	CorrectCommission	0.202252	0.776011	0	0
464.778351	0.792045	mountain	9	1	0.511122	0.511122	0	0	1	0	CommissionError	0.938923	0.741539	0	0
465.570496	0.792265	city	7	1	0.511660	0.511660	0	1	0	0	CorrectCommission	0.934261	0.717100	1	0
466.362762	0.792276	city	1	1	0.646316	0.646316	0	1	0	0	CorrectCommission	0.231202	0.704764	1	0
467.155029	0.792266	city	2	1	0.655506	0.655506	0	1	0	0	CorrectCommission	0.310746	0.705570	1	0
467.947296	0.792258	city	9	1	0.695251	0.695251	0	1	0	0	CorrectCommission	0.654741	0.719485	1	0
468.739563	0.792260	city	3	1	0.645748	0.645748	0	1	0	0	CorrectCommission	0.226284	0.745503	0	0
469.531830	0.792265	city	2	1	0.550830	0.550830	0	1	0	0	CorrectCommission	0.595238	0.781837	0	0
470.324097	0.792267	city	6	1	0.596261	0.596261	0	1	0	0	CorrectCommission	0.202032	0.826034	0	0
471.116455	0.792480	city	3	1	0.752650	0.752650	0	1	0	0	CorrectCommission	1.151536	0.875300	0	0
471.908722	0.792048	city	4	1	0.546623	0.546623	0	1	0	0	CorrectCommission	0.631651	0.926697	0	0
472.700897	0.792321	city	6	1	0.359598	0.359598	0	1	0	0	CorrectCommission	2.250382	0.977390	0	0
473.493164	0.792208	mountain	4	1	0.412130	0.412130	0	0	1	0	CommissionError	1.795714	1.024724	0	0
474.285461	0.792371	city	3	1	0.499642	0.499642	0	1	0	0	CorrectCommission	1.038279	1.066356	0	0
475.077728	0.792155	city	6	1	0.652482	0.652482	0	1	0	0	CorrectCommission	0.284573	1.100225	0	0
475.870056	0.792484	city	1	1	0.762956	0.762956	0	1	0	0	CorrectCommission	1.240743	1.124520	0	0
476.662323	0.792046	city	2	1	0.698789	0.698789	0	1	0	0	CorrectCommission	0.685363	1.137553	0	0
477.454559	0.792483	city	10	1	0.695336	0.695336	0	1	0	0	CorrectCommission	0.655482	1.137905	0	0
478.246887	0.792157	city	7	1	0.893130	0.893130	0	1	0	0	CorrectCommission	2.367414	1.124437	0	0
479.039093	0.792264	city	4	1	0.843713	0.843713	0	1	0	0	CorrectCommission	1.939704	1.096350	0	0
479.831329	0.792193	city	7	1	0.844213	0.844213	0	1	0	0	CorrectCommission	1.944028	1.053366	0	0
480.623535	0.792228	city	3	1	0.805312	0.805312	0	1	0	0	CorrectCommission	1.607337	0.995728	0	0
481.415802	0.792263	mountain	7	0	0.000000	0.657269	1	0	0	0	CorrectOmission	0.326001	0.924251	0	0
482.208038	0.792264	city	2	1	0.553086	0.553086	0	1	0	0	CorrectCommission	0.575715	0.840210	0	0
483.000366	0.792376	city	8	1	0.645767	0.645767	0	1	0	0	CorrectCommission	0.226451	0.745173	0	0
483.792633	0.792153	city	7	1	0.695305	0.695305	0	1	0	0	CorrectCommission	0.655215	0.640943	1	0
484.584839	0.792269	city	6	1	0.795365	0.795365	0	1	0	0	CorrectCommission	1.521245	0.529378	1	0
485.377106	0.792276	city	2	1	0.695768	0.695768	0	1	0	0	CorrectCommission	0.659216	0.412321	1	0
486.169495	0.792468	city	7	1	0.607652	0.607652	0	1	0	0	CorrectCommission	0.103441	0.291627	1	0
486.961761	0.792047	city	3	1	0.600062	0.600062	0	1	0	0	CorrectCommission	0.169131	0.169131	1	0
