onset	duration	trial_type	image_type	Press	ReactionTime	ReactionTime_Interpolated	CorrectOmission	CorrectCommission	CommissionError	OmissionError	response_type	nonsmoothVarianceTimeCourse	VarianceTimeCourse	In_the_Zone	Reward_trial
8.438329	0.795857	mountain	3	0	0.000000	0.598771	1	0	0	0	CorrectOmission	0.923931	0.923931	0	0
9.234132	0.795749	city	4	1	0.698360	0.698360	0	1	0	0	CorrectCommission	0.240634	0.893440	0	0
10.029908	0.795804	city	3	1	0.797950	0.797950	0	1	0	0	CorrectCommission	0.442663	0.863712	0	0
10.825708	0.795797	city	5	1	0.598887	0.598887	0	1	0	0	CorrectCommission	0.923131	0.835468	0	0
11.621510	0.795805	mountain	7	1	0.599020	0.599020	0	0	1	0	CommissionError	0.922221	0.809422	0	0
12.417420	0.796018	city	1	1	0.598870	0.598870	0	1	0	0	CorrectCommission	0.923248	0.786276	0	0
13.213330	0.795800	city	9	1	0.548937	0.548937	0	1	0	0	CorrectCommission	1.265847	0.766657	0	0
14.009024	0.795587	city	8	1	0.698272	0.698272	0	1	0	0	CorrectCommission	0.241242	0.751072	0	0
14.804740	0.795845	mountain	9	0	0.000000	0.651485	1	0	0	0	CorrectOmission	0.562251	0.739858	0	0
15.600595	0.795865	city	9	1	0.606204	0.606204	0	1	0	0	CorrectCommission	0.872934	0.733019	1	0
16.396427	0.795801	city	4	1	0.760052	0.760052	0	1	0	0	CorrectCommission	0.182643	0.730187	1	0
17.192177	0.795698	city	9	1	0.708451	0.708451	0	1	0	0	CorrectCommission	0.171403	0.730547	1	0
17.987925	0.795799	city	5	1	0.947184	0.947184	0	1	0	0	CorrectCommission	1.466577	0.732831	1	0
18.783724	0.795797	city	4	1	0.807632	0.807632	0	1	0	0	CorrectCommission	0.509095	0.735397	1	0
19.579578	0.795912	city	8	1	0.848342	0.848342	0	1	0	0	CorrectCommission	0.788413	0.736395	1	0
20.375435	0.795802	city	4	1	0.858779	0.858779	0	1	0	0	CorrectCommission	0.860021	0.733924	1	0
21.171291	0.795911	city	8	1	0.797719	0.797719	0	1	0	0	CorrectCommission	0.441077	0.726334	1	0
21.967075	0.795656	city	5	1	0.915295	0.915295	0	1	0	0	CorrectCommission	1.247785	0.712442	1	0
22.762768	0.795730	city	7	1	0.897313	0.897313	0	1	0	0	CorrectCommission	1.124405	0.691725	1	0
23.558641	0.796018	city	9	1	0.797820	0.797820	0	1	0	0	CorrectCommission	0.441776	0.664482	1	0
24.354454	0.795606	city	5	1	1.007940	1.007940	0	1	0	0	CorrectCommission	1.883438	0.631857	1	0
25.150146	0.795779	city	4	1	0.814161	0.814161	0	1	0	0	CorrectCommission	0.553893	0.595695	1	0
25.945992	0.795910	city	5	1	0.698334	0.698334	0	1	0	0	CorrectCommission	0.240817	0.558439	1	0
26.741901	0.795910	city	9	1	0.747985	0.747985	0	1	0	0	CorrectCommission	0.099849	0.522748	1	0
27.537649	0.795584	mountain	2	0	0.000000	0.736567	1	0	0	0	CorrectOmission	0.021509	0.491182	1	0
28.333450	0.796021	city	4	1	0.706103	0.706103	0	1	0	0	CorrectCommission	0.187513	0.465911	1	0
29.129261	0.795597	city	1	1	0.698615	0.698615	0	1	0	0	CorrectCommission	0.238890	0.448465	1	0
29.925062	0.796006	city	10	1	0.797828	0.797828	0	1	0	0	CorrectCommission	0.441825	0.439646	1	0
30.720858	0.795584	city	3	1	0.797663	0.797663	0	1	0	0	CorrectCommission	0.440699	0.439495	1	0
31.516548	0.795799	city	8	1	0.748052	0.748052	0	1	0	0	CorrectCommission	0.100311	0.447432	1	0
32.312405	0.795913	city	6	1	0.727327	0.727327	0	1	0	0	CorrectCommission	0.041893	0.462447	1	0
33.108261	0.795799	city	5	1	0.797727	0.797727	0	1	0	0	CorrectCommission	0.441135	0.483308	1	0
33.904007	0.795695	city	6	1	0.947714	0.947714	0	1	0	0	CorrectCommission	1.470214	0.508838	1	0
34.699757	0.795802	city	2	1	0.797856	0.797856	0	1	0	0	CorrectCommission	0.442022	0.538083	1	0
35.495613	0.795909	city	5	1	0.754974	0.754974	0	1	0	0	CorrectCommission	0.147801	0.570489	1	0
36.291416	0.795699	city	7	1	0.847463	0.847463	0	1	0	0	CorrectCommission	0.782382	0.605909	1	0
37.087193	0.795851	city	4	1	0.847667	0.847667	0	1	0	0	CorrectCommission	0.783780	0.644492	1	0
37.882988	0.795744	city	7	1	0.847561	0.847561	0	1	0	0	CorrectCommission	0.783056	0.686570	1	0
38.678761	0.795802	city	3	1	0.707467	0.707467	0	1	0	0	CorrectCommission	0.178151	0.732412	1	0
39.474617	0.795912	city	4	1	0.700763	0.700763	0	1	0	0	CorrectCommission	0.224148	0.781972	0	0
40.270420	0.795695	city	5	1	0.605245	0.605245	0	1	0	0	CorrectCommission	0.879514	0.834659	0	0
41.066200	0.795864	city	4	1	0.509271	0.509271	0	1	0	0	CorrectCommission	1.538004	0.889195	0	0
41.862034	0.795803	city	3	1	0.612696	0.612696	0	1	0	0	CorrectCommission	0.828388	0.943499	0	0
42.657913	0.795953	city	1	1	0.648947	0.648947	0	1	0	0	CorrectCommission	0.579666	0.994849	0	0
43.453682	0.795586	city	8	1	0.605809	0.605809	0	1	0	0	CorrectCommission	0.875639	1.039995	0	0
44.249401	0.795853	city	7	1	0.648744	0.648744	0	1	0	0	CorrectCommission	0.581057	1.075499	0	0
45.045204	0.795752	city	10	1	0.500255	0.500255	0	1	0	0	CorrectCommission	1.599861	1.098198	0	0
45.841022	0.795885	city	2	1	0.449667	0.449667	0	1	0	0	CorrectCommission	1.946950	1.105616	0	0
46.636826	0.795718	city	3	1	0.449607	0.449607	0	1	0	0	CorrectCommission	1.947366	1.096443	0	0
47.432583	0.795796	city	7	1	0.399968	0.399968	0	1	0	0	CorrectCommission	2.287948	1.070823	0	0
48.228401	0.795842	city	9	1	0.947660	0.947660	0	1	0	0	CorrectCommission	1.469847	1.030437	0	0
49.024258	0.795871	mountain	2	0	0.000000	0.929288	1	0	0	0	CorrectOmission	1.343796	0.978397	0	0
49.820038	0.795696	city	7	1	0.708418	0.708418	0	1	0	0	CorrectCommission	0.171624	0.918840	0	0
50.615788	0.795803	city	6	1	0.648615	0.648615	0	1	0	0	CorrectCommission	0.581940	0.856400	0	0
51.411591	0.795801	city	5	1	0.805123	0.805123	0	1	0	0	CorrectCommission	0.491879	0.795573	0	0
52.207500	0.796017	city	8	1	0.748107	0.748107	0	1	0	0	CorrectCommission	0.100684	0.740143	0	0
53.003353	0.795692	city	2	1	0.668011	0.668011	0	1	0	0	CorrectCommission	0.448868	0.692781	1	0
53.799046	0.795693	city	4	1	0.698273	0.698273	0	1	0	0	CorrectCommission	0.241233	0.654766	1	0
54.594849	0.795910	city	2	1	0.748230	0.748230	0	1	0	0	CorrectCommission	0.101528	0.626060	1	0
55.390759	0.795912	city	9	1	0.797741	0.797741	0	1	0	0	CorrectCommission	0.441233	0.605495	1	0
56.186615	0.795802	city	10	1	0.598892	0.598892	0	1	0	0	CorrectCommission	0.923098	0.591187	1	0
56.982418	0.795801	city	5	1	0.816383	0.816383	0	1	0	0	CorrectCommission	0.569135	0.581002	1	0
57.778217	0.795803	city	6	1	0.960425	0.960425	0	1	0	0	CorrectCommission	1.557427	0.572992	1	0
58.573967	0.795692	mountain	9	0	0.000000	0.839369	1	0	0	0	CorrectOmission	0.726846	0.565693	1	0
59.369659	0.795691	city	1	1	0.657846	0.657846	0	1	0	0	CorrectCommission	0.518610	0.558378	1	0
60.165405	0.795803	mountain	5	0	0.000000	0.620485	1	0	0	0	CorrectOmission	0.774945	0.550981	1	0
60.961208	0.795805	city	1	1	0.669743	0.669743	0	1	0	0	CorrectCommission	0.436979	0.543924	1	0
61.757019	0.795812	city	2	1	0.748076	0.748076	0	1	0	0	CorrectCommission	0.100470	0.537881	1	0
62.552834	0.795820	city	9	1	0.748080	0.748080	0	1	0	0	CorrectCommission	0.100497	0.533448	1	0
63.348629	0.795769	city	2	1	0.748063	0.748063	0	1	0	0	CorrectCommission	0.100383	0.530947	1	0
64.144417	0.795803	city	9	1	0.754918	0.754918	0	1	0	0	CorrectCommission	0.147415	0.530291	1	0
64.940216	0.795802	city	4	1	0.615197	0.615197	0	1	0	0	CorrectCommission	0.811232	0.531030	1	0
65.736023	0.795813	city	6	1	0.798274	0.798274	0	1	0	0	CorrectCommission	0.444891	0.532507	1	0
66.531937	0.796005	mountain	1	1	0.414724	0.414724	0	0	1	0	CommissionError	2.186699	0.534115	1	0
67.327782	0.795692	city	10	1	0.707275	0.707275	0	1	0	0	CorrectCommission	0.179469	0.535445	1	0
68.123528	0.795801	city	5	1	0.797710	0.797710	0	1	0	0	CorrectCommission	0.441017	0.536563	1	1
68.919281	0.795695	city	7	1	0.748417	0.748417	0	1	0	0	CorrectCommission	0.102811	0.537970	1	1
69.715050	0.795848	city	4	1	0.847545	0.847545	0	1	0	0	CorrectCommission	0.782945	0.540595	1	1
70.510849	0.795754	city	5	1	0.699026	0.699026	0	1	0	0	CorrectCommission	0.236067	0.545591	1	1
71.306625	0.795800	city	3	1	0.797754	0.797754	0	1	0	0	CorrectCommission	0.441323	0.554165	1	1
72.102486	0.795913	city	7	1	0.861394	0.861394	0	1	0	0	CorrectCommission	0.877961	0.567269	1	1
72.898285	0.795690	city	1	1	0.797727	0.797727	0	1	0	0	CorrectCommission	0.441136	0.585357	1	1
73.694031	0.795806	city	8	1	0.700944	0.700944	0	1	0	0	CorrectCommission	0.222904	0.608216	1	1
74.489944	0.796018	city	4	1	0.698374	0.698374	0	1	0	0	CorrectCommission	0.240542	0.634889	1	1
75.285744	0.795585	mountain	4	0	0.000000	0.780794	1	0	0	0	CorrectOmission	0.324954	0.663666	1	1
76.081436	0.795799	city	9	1	0.797854	0.797854	0	1	0	0	CorrectCommission	0.442006	0.692307	1	1
76.877243	0.795804	city	2	1	0.599203	0.599203	0	1	0	0	CorrectCommission	0.920965	0.718285	1	1
77.673149	0.796020	city	9	1	0.598892	0.598892	0	1	0	0	CorrectCommission	0.923098	0.739140	0	1
78.468971	0.795613	city	10	1	0.413642	0.413642	0	1	0	0	CorrectCommission	2.194126	0.752863	0	1
79.264656	0.795769	city	6	1	0.598961	0.598961	0	1	0	0	CorrectCommission	0.922624	0.758146	0	1
80.060448	0.795807	city	4	1	0.611009	0.611009	0	1	0	0	CorrectCommission	0.839965	0.754637	0	1
80.856308	0.795907	mountain	6	0	0.000000	0.822908	1	0	0	0	CorrectOmission	0.613902	0.742907	0	1
81.652161	0.795800	city	7	1	0.947678	0.947678	0	1	0	0	CorrectCommission	1.469969	0.724347	1	1
82.447960	0.795801	city	3	1	0.698340	0.698340	0	1	0	0	CorrectCommission	0.240771	0.700913	1	1
83.243706	0.795698	city	2	1	0.702911	0.702911	0	1	0	0	CorrectCommission	0.209413	0.674893	1	1
84.039459	0.795802	city	1	1	0.615455	0.615455	0	1	0	0	CorrectCommission	0.809462	0.648508	1	1
84.835289	0.795856	city	9	1	0.698346	0.698346	0	1	0	0	CorrectCommission	0.240732	0.623705	1	1
85.631088	0.795748	city	6	1	0.698344	0.698344	0	1	0	0	CorrectCommission	0.240743	0.601991	1	1
86.426857	0.795797	city	2	1	0.648737	0.648737	0	1	0	0	CorrectCommission	0.581105	0.584335	1	1
87.222679	0.795841	city	5	1	0.599008	0.599008	0	1	0	0	CorrectCommission	0.922302	0.571153	1	1
88.018494	0.795781	city	9	1	0.648549	0.648549	0	1	0	0	CorrectCommission	0.582396	0.562423	1	1
88.814384	0.796003	mountain	6	0	0.000000	0.781078	1	0	0	0	CorrectOmission	0.326907	0.557808	1	1
89.610283	0.795801	city	5	1	0.847363	0.847363	0	1	0	0	CorrectCommission	0.781695	0.556727	1	1
90.405998	0.795626	city	9	1	0.698170	0.698170	0	1	0	0	CorrectCommission	0.241941	0.558463	1	1
91.201691	0.795760	city	7	1	0.850627	0.850627	0	1	0	0	CorrectCommission	0.804090	0.562254	1	1
91.997482	0.795829	city	10	1	0.748113	0.748113	0	1	0	0	CorrectCommission	0.100725	0.567301	1	1
92.793320	0.795840	mountain	9	0	0.000000	0.669114	1	0	0	0	CorrectOmission	0.441296	0.572841	1	1
93.589134	0.795786	city	3	1	0.617929	0.617929	0	1	0	0	CorrectCommission	0.792482	0.578139	1	1
94.384911	0.795777	city	4	1	0.598857	0.598857	0	1	0	0	CorrectCommission	0.923341	0.582531	1	1
95.180801	0.795993	city	2	1	0.648720	0.648720	0	1	0	0	CorrectCommission	0.581225	0.585469	1	1
95.976700	0.795802	city	9	1	0.600521	0.600521	0	1	0	0	CorrectCommission	0.911925	0.586528	1	1
96.772430	0.795662	city	7	1	0.698246	0.698246	0	1	0	0	CorrectCommission	0.241420	0.585439	1	1
97.568153	0.795792	city	1	1	0.649034	0.649034	0	1	0	0	CorrectCommission	0.579069	0.582134	1	1
98.363922	0.795737	city	7	1	0.797754	0.797754	0	1	0	0	CorrectCommission	0.441322	0.576692	1	1
99.159798	0.796015	city	5	1	0.609126	0.609126	0	1	0	0	CorrectCommission	0.852881	0.569374	1	1
99.955650	0.795691	city	4	1	0.797594	0.797594	0	1	0	0	CorrectCommission	0.440222	0.560623	1	1
100.751366	0.795738	city	5	1	0.600708	0.600708	0	1	0	0	CorrectCommission	0.910641	0.551040	1	1
101.547112	0.795759	city	1	1	0.619809	0.619809	0	1	0	0	CorrectCommission	0.779582	0.541327	1	1
102.342903	0.795818	city	10	1	0.748174	0.748174	0	1	0	0	CorrectCommission	0.101145	0.532293	1	1
103.138702	0.795784	city	6	1	0.748133	0.748133	0	1	0	0	CorrectCommission	0.100860	0.524826	1	1
103.934494	0.795805	mountain	3	1	0.605590	0.605590	0	0	1	0	CommissionError	0.877144	0.519813	1	1
104.730408	0.796015	city	3	1	0.660675	0.660675	0	1	0	0	CorrectCommission	0.499197	0.518135	1	1
105.526230	0.795624	city	1	1	0.798712	0.798712	0	1	0	0	CorrectCommission	0.447891	0.520669	1	1
106.322029	0.795980	city	6	1	0.764392	0.764392	0	1	0	0	CorrectCommission	0.212420	0.528286	1	1
107.117867	0.795692	city	9	1	0.658714	0.658714	0	1	0	0	CorrectCommission	0.512652	0.541834	1	1
107.913559	0.795694	city	2	1	0.797728	0.797728	0	1	0	0	CorrectCommission	0.441138	0.562175	1	1
108.709305	0.795802	city	6	1	0.798285	0.798285	0	1	0	0	CorrectCommission	0.444966	0.590152	1	1
109.505104	0.795802	city	9	1	0.598880	0.598880	0	1	0	0	CorrectCommission	0.923185	0.626558	1	1
110.300903	0.795798	city	5	1	0.813627	0.813627	0	1	0	0	CorrectCommission	0.550228	0.672007	1	1
111.096718	0.795825	city	6	1	0.648616	0.648616	0	1	0	0	CorrectCommission	0.581940	0.726878	1	1
111.892525	0.795782	city	5	1	0.698371	0.698371	0	1	0	0	CorrectCommission	0.240563	0.791125	0	1
112.688316	0.795811	city	7	1	0.610550	0.610550	0	1	0	0	CorrectCommission	0.843115	0.864161	0	1
113.484123	0.795796	city	4	1	0.710332	0.710332	0	1	0	0	CorrectCommission	0.158495	0.944700	0	1
114.279968	0.795904	city	1	1	0.598861	0.598861	0	1	0	0	CorrectCommission	0.923313	1.030761	0	1
115.075775	0.795697	mountain	5	1	0.499312	0.499312	0	0	1	0	CommissionError	1.606333	1.119603	0	1
115.871536	0.795831	city	7	1	0.556366	0.556366	0	1	0	0	CorrectCommission	1.214877	1.207895	0	1
116.667336	0.795768	city	5	1	0.549077	0.549077	0	1	0	0	CorrectCommission	1.264885	1.291872	0	1
117.463120	0.795803	city	7	1	0.549585	0.549585	0	1	0	0	CorrectCommission	1.261405	1.367611	0	1
118.258919	0.795801	city	6	1	0.468651	0.468651	0	1	0	0	CorrectCommission	1.816698	1.431323	0	1
119.054749	0.795845	city	5	1	0.465317	0.465317	0	1	0	0	CorrectCommission	1.839578	1.479650	0	1
119.850548	0.795760	city	4	1	0.352835	0.352835	0	1	0	0	CorrectCommission	2.611330	1.509994	0	1
120.646385	0.795917	city	1	1	0.504589	0.504589	0	1	0	0	CorrectCommission	1.570125	1.520715	0	1
121.442192	0.795688	city	9	1	0.456529	0.456529	0	1	0	0	CorrectCommission	1.899873	1.511327	0	1
122.237946	0.795818	city	2	1	0.549134	0.549134	0	1	0	0	CorrectCommission	1.264497	1.482503	0	1
123.033852	0.796001	city	5	1	0.400170	0.400170	0	1	0	0	CorrectCommission	2.286557	1.436079	0	1
123.829643	0.795586	mountain	2	1	0.399684	0.399684	0	0	1	0	CommissionError	2.289895	1.374838	0	1
124.625443	0.796015	city	3	1	0.499693	0.499693	0	1	0	0	CorrectCommission	1.603719	1.302289	0	1
125.421257	0.795614	city	4	1	0.699847	0.699847	0	1	0	0	CorrectCommission	0.230436	1.222365	0	1
126.217064	0.795991	city	6	1	0.610500	0.610500	0	1	0	0	CorrectCommission	0.843456	1.139096	0	1
127.012848	0.795582	mountain	6	1	0.599089	0.599089	0	0	1	0	CommissionError	0.921745	1.056251	0	1
127.808540	0.795804	city	1	1	0.847512	0.847512	0	1	0	0	CorrectCommission	0.782714	0.977119	0	0
128.604370	0.795859	city	5	1	0.847903	0.847903	0	1	0	0	CorrectCommission	0.785398	0.904356	0	0
129.400223	0.795852	city	4	1	0.859011	0.859011	0	1	0	0	CorrectCommission	0.861612	0.839884	0	0
130.196060	0.795800	mountain	2	0	0.000000	0.672487	1	0	0	0	CorrectOmission	0.418156	0.784882	0	0
130.991821	0.795719	city	8	1	0.549584	0.549584	0	1	0	0	CorrectCommission	1.261410	0.739882	0	0
131.787567	0.795777	city	7	1	0.751555	0.751555	0	1	0	0	CorrectCommission	0.124345	0.704808	1	0
132.583359	0.795803	city	10	1	0.698357	0.698357	0	1	0	0	CorrectCommission	0.240658	0.679174	1	0
133.379150	0.795799	city	1	1	0.649061	0.649061	0	1	0	0	CorrectCommission	0.578884	0.662189	1	0
134.175064	0.796019	city	2	1	0.667416	0.667416	0	1	0	0	CorrectCommission	0.452946	0.652905	1	0
134.970871	0.795587	city	6	1	0.648690	0.648690	0	1	0	0	CorrectCommission	0.581431	0.650393	1	0
135.766556	0.795807	city	5	1	0.849565	0.849565	0	1	0	0	CorrectCommission	0.796800	0.653799	1	0
136.562393	0.795858	city	1	1	0.862407	0.862407	0	1	0	0	CorrectCommission	0.884914	0.662447	1	0
137.358246	0.795838	city	9	1	0.798023	0.798023	0	1	0	0	CorrectCommission	0.443166	0.675802	1	0
138.154022	0.795715	city	6	1	0.897508	0.897508	0	1	0	0	CorrectCommission	1.125745	0.693449	1	0
138.949875	0.796005	city	2	1	0.897537	0.897537	0	1	0	0	CorrectCommission	1.125948	0.714879	1	0
139.745697	0.795617	city	1	1	0.758217	0.758217	0	1	0	0	CorrectCommission	0.170054	0.739388	0	0
140.541443	0.795876	city	2	1	0.750950	0.750950	0	1	0	0	CorrectCommission	0.120194	0.765883	0	0
141.337250	0.795742	city	8	1	0.711114	0.711114	0	1	0	0	CorrectCommission	0.153128	0.792762	0	0
142.132996	0.795752	city	5	1	0.558290	0.558290	0	1	0	0	CorrectCommission	1.201678	0.817979	0	0
142.928879	0.796021	city	6	1	0.698416	0.698416	0	1	0	0	CorrectCommission	0.240250	0.839199	0	0
143.724731	0.795690	city	7	1	0.549397	0.549397	0	1	0	0	CorrectCommission	1.262691	0.854135	0	0
144.520462	0.795759	city	9	1	0.505873	0.505873	0	1	0	0	CorrectCommission	1.561317	0.860860	0	0
145.316315	0.795954	city	10	1	0.450028	0.450028	0	1	0	0	CorrectCommission	1.944477	0.858215	0	0
146.112091	0.795605	city	1	1	0.467116	0.467116	0	1	0	0	CorrectCommission	1.827235	0.846112	0	0
146.907806	0.795798	city	8	1	0.599033	0.599033	0	1	0	0	CorrectCommission	0.922133	0.825669	0	0
147.703598	0.795786	city	5	1	0.767274	0.767274	0	1	0	0	CorrectCommission	0.232191	0.799200	0	0
148.499390	0.795799	city	10	1	0.698368	0.698368	0	1	0	0	CorrectCommission	0.240581	0.769937	0	0
149.295197	0.795840	city	8	1	0.764491	0.764491	0	1	0	0	CorrectCommission	0.213098	0.741685	0	0
150.091110	0.795984	city	1	1	0.897375	0.897375	0	1	0	0	CorrectCommission	1.124834	0.718353	1	0
150.887009	0.795800	city	10	1	0.816642	0.816642	0	1	0	0	CorrectCommission	0.570915	0.703442	1	0
151.682693	0.795583	city	4	1	0.847491	0.847491	0	1	0	0	CorrectCommission	0.782571	0.699615	1	0
152.478394	0.795806	city	8	1	0.748675	0.748675	0	1	0	0	CorrectCommission	0.104583	0.708287	1	0
153.274200	0.795799	city	4	1	0.699280	0.699280	0	1	0	0	CorrectCommission	0.234325	0.729376	1	0
154.070099	0.796018	city	7	1	0.748735	0.748735	0	1	0	0	CorrectCommission	0.104995	0.761177	0	0
154.865906	0.795586	mountain	3	0	0.000000	0.831263	1	0	0	0	CorrectOmission	0.671228	0.800484	0	0
155.661606	0.795802	city	4	1	0.847601	0.847601	0	1	0	0	CorrectCommission	0.783328	0.842850	0	0
156.457428	0.795844	city	8	1	0.698489	0.698489	0	1	0	0	CorrectCommission	0.239753	0.883102	0	0
157.253220	0.795756	city	1	1	0.598854	0.598854	0	1	0	0	CorrectCommission	0.923359	0.916014	0	0
158.048996	0.795804	city	2	1	0.499483	0.499483	0	1	0	0	CorrectCommission	1.605162	0.936979	0	0
158.844910	0.796018	city	8	1	0.366118	0.366118	0	1	0	0	CorrectCommission	2.520193	0.942700	0	0
159.640778	0.795694	mountain	8	1	0.300283	0.300283	0	0	1	0	CommissionError	2.971897	0.931661	0	0
160.436462	0.795692	city	1	1	0.900859	0.900859	0	1	0	0	CorrectCommission	1.148739	0.904449	0	0
161.232208	0.795799	city	3	1	0.601186	0.601186	0	1	0	0	CorrectCommission	0.907360	0.863659	0	0
162.028030	0.795850	city	4	1	0.698369	0.698369	0	1	0	0	CorrectCommission	0.240573	0.813507	0	0
162.823853	0.795792	city	9	1	0.764583	0.764583	0	1	0	0	CorrectCommission	0.213728	0.759301	0	0
163.619629	0.795768	city	6	1	0.748381	0.748381	0	1	0	0	CorrectCommission	0.102567	0.706751	1	0
164.415421	0.795802	mountain	10	0	0.000000	0.697486	1	0	0	0	CorrectOmission	0.246635	0.661317	1	0
165.211273	0.795905	city	1	1	0.700855	0.700855	0	1	0	0	CorrectCommission	0.223516	0.627607	1	0
166.007065	0.795693	city	6	1	0.847449	0.847449	0	1	0	0	CorrectCommission	0.782287	0.608966	1	0
166.802826	0.795824	city	4	1	0.751373	0.751373	0	1	0	0	CorrectCommission	0.123097	0.607245	1	0
167.598633	0.795781	city	2	1	0.659938	0.659938	0	1	0	0	CorrectCommission	0.504258	0.622758	1	0
168.394531	0.796021	city	7	1	0.698361	0.698361	0	1	0	0	CorrectCommission	0.240631	0.654317	1	0
169.190445	0.795802	mountain	9	0	0.000000	0.686755	1	0	0	0	CorrectOmission	0.320259	0.699429	1	0
169.986130	0.795582	city	3	1	0.648388	0.648388	0	1	0	0	CorrectCommission	0.583502	0.754576	0	0
170.781830	0.795816	city	7	1	0.606526	0.606526	0	1	0	0	CorrectCommission	0.870719	0.815482	0	0
171.577637	0.795787	city	4	1	0.648664	0.648664	0	1	0	0	CorrectCommission	0.581606	0.877555	0	0
172.373428	0.795804	city	8	1	0.599530	0.599530	0	1	0	0	CorrectCommission	0.918722	0.936261	0	0
173.169235	0.795801	city	6	1	0.514418	0.514418	0	1	0	0	CorrectCommission	1.502685	0.987533	0	0
173.965042	0.795802	city	9	1	0.499325	0.499325	0	1	0	0	CorrectCommission	1.606243	1.028159	0	0
174.760895	0.795909	city	5	1	0.506058	0.506058	0	1	0	0	CorrectCommission	1.560048	1.056064	0	0
175.556686	0.795693	city	8	1	0.400287	0.400287	0	1	0	0	CorrectCommission	2.285757	1.070460	0	0
176.352448	0.795801	city	10	1	0.549133	0.549133	0	1	0	0	CorrectCommission	1.264503	1.071821	0	0
177.148239	0.795802	city	4	1	0.648795	0.648795	0	1	0	0	CorrectCommission	0.580707	1.061748	0	0
177.944077	0.795875	city	2	1	0.649237	0.649237	0	1	0	0	CorrectCommission	0.577674	1.042664	0	0
178.739883	0.795726	city	10	1	0.549711	0.549711	0	1	0	0	CorrectCommission	1.260541	1.017388	0	0
179.535645	0.795806	city	9	1	0.499420	0.499420	0	1	0	0	CorrectCommission	1.605590	0.988723	0	0
180.331451	0.795802	mountain	4	0	0.000000	0.615471	1	0	0	0	CorrectOmission	0.809350	0.959110	0	0
181.127304	0.795906	city	3	1	0.748330	0.748330	0	1	0	0	CorrectCommission	0.102218	0.930338	0	0
181.923218	0.795911	city	1	1	0.748467	0.748467	0	1	0	0	CorrectCommission	0.103155	0.903427	0	0
182.718964	0.795584	city	5	1	0.897029	0.897029	0	1	0	0	CorrectCommission	1.122459	0.878648	0	0
183.514709	0.795910	city	9	1	0.847662	0.847662	0	1	0	0	CorrectCommission	0.783744	0.855689	0	0
184.310516	0.795696	city	8	1	0.849621	0.849621	0	1	0	0	CorrectCommission	0.797190	0.834010	0	0
185.106262	0.795801	city	4	1	1.009564	1.009564	0	1	0	0	CorrectCommission	1.894580	0.813107	0	0
185.902054	0.795801	city	2	1	0.814283	0.814283	0	1	0	0	CorrectCommission	0.554726	0.792804	0	0
186.697861	0.795804	city	6	1	0.947205	0.947205	0	1	0	0	CorrectCommission	1.466728	0.773450	0	0
187.493713	0.795906	city	5	1	0.862822	0.862822	0	1	0	0	CorrectCommission	0.887761	0.755886	0	1
188.289520	0.795693	mountain	8	0	0.000000	0.790490	1	0	0	0	CorrectOmission	0.391480	0.741352	0	1
189.085266	0.795811	city	5	1	0.748547	0.748547	0	1	0	0	CorrectCommission	0.103702	0.731208	1	1
189.881073	0.795795	city	9	1	0.755330	0.755330	0	1	0	0	CorrectCommission	0.150246	0.726630	1	1
190.676865	0.795802	city	7	1	0.652464	0.652464	0	1	0	0	CorrectCommission	0.555532	0.728299	1	1
191.472702	0.795862	mountain	5	0	0.000000	0.635011	1	0	0	0	CorrectOmission	0.675286	0.736207	1	1
192.268616	0.795955	city	5	1	0.650987	0.650987	0	1	0	0	CorrectCommission	0.565666	0.749592	0	1
193.064392	0.795614	city	3	1	0.648413	0.648413	0	1	0	0	CorrectCommission	0.583327	0.766989	0	1
193.860138	0.795879	city	9	1	0.610192	0.610192	0	1	0	0	CorrectCommission	0.845567	0.786435	0	1
194.656036	0.795913	city	6	1	0.599287	0.599287	0	1	0	0	CorrectCommission	0.920390	0.805717	0	1
195.451828	0.795649	city	8	1	0.463117	0.463117	0	1	0	0	CorrectCommission	1.854672	0.822693	0	1
196.247513	0.795737	city	10	1	0.648543	0.648543	0	1	0	0	CorrectCommission	0.582438	0.835502	0	1
197.043396	0.796017	city	3	1	0.599421	0.599421	0	1	0	0	CorrectCommission	0.919467	0.842847	0	1
197.839249	0.795693	city	9	1	0.598652	0.598652	0	1	0	0	CorrectCommission	0.924744	0.844039	0	1
198.634933	0.795695	city	6	1	0.617421	0.617421	0	1	0	0	CorrectCommission	0.795968	0.839046	0	1
199.430695	0.795804	city	8	1	0.598950	0.598950	0	1	0	0	CorrectCommission	0.922702	0.828435	0	1
200.226486	0.795796	city	7	1	0.599638	0.599638	0	1	0	0	CorrectCommission	0.917985	0.813211	0	1
201.022308	0.795834	mountain	4	1	0.517435	0.517435	0	0	1	0	CommissionError	1.481987	0.794690	0	1
201.818161	0.795878	city	6	1	0.762244	0.762244	0	1	0	0	CorrectCommission	0.197678	0.774252	0	1
202.613953	0.795695	city	9	1	0.598795	0.598795	0	1	0	0	CorrectCommission	0.923767	0.753221	0	1
203.409714	0.795849	city	8	1	0.649379	0.649379	0	1	0	0	CorrectCommission	0.576700	0.732686	1	1
204.205627	0.795972	city	2	1	0.757765	0.757765	0	1	0	0	CorrectCommission	0.166947	0.713406	1	1
205.001419	0.795598	city	8	1	0.800061	0.800061	0	1	0	0	CorrectCommission	0.457151	0.695796	1	1
205.797104	0.795785	city	6	1	0.847784	0.847784	0	1	0	0	CorrectCommission	0.784585	0.679951	1	1
206.592896	0.795806	city	4	1	0.862878	0.862878	0	1	0	0	CorrectCommission	0.888143	0.665744	1	1
207.388702	0.795803	city	5	1	0.847889	0.847889	0	1	0	0	CorrectCommission	0.785301	0.652942	1	1
208.184616	0.796017	city	10	1	0.859956	0.859956	0	1	0	0	CorrectCommission	0.868097	0.641314	1	1
208.980469	0.795692	city	4	1	0.847919	0.847919	0	1	0	0	CorrectCommission	0.785511	0.630716	1	1
209.776154	0.795691	city	6	1	0.698286	0.698286	0	1	0	0	CorrectCommission	0.241140	0.621122	1	1
210.571930	0.795835	city	4	1	0.599224	0.599224	0	1	0	0	CorrectCommission	0.920821	0.612618	1	1
211.367737	0.795780	mountain	6	0	0.000000	0.682182	1	0	0	0	CorrectOmission	0.351638	0.605278	1	1
212.163574	0.795900	city	5	1	0.798055	0.798055	0	1	0	0	CorrectCommission	0.443384	0.599172	1	1
212.959366	0.795693	city	6	1	0.797739	0.797739	0	1	0	0	CorrectCommission	0.441217	0.594260	1	1
213.755112	0.795803	city	3	1	0.708614	0.708614	0	1	0	0	CorrectCommission	0.170279	0.590443	1	1
214.550949	0.795855	city	8	1	0.650807	0.650807	0	1	0	0	CorrectCommission	0.566903	0.587571	1	1
215.346802	0.795857	city	1	1	0.598957	0.598957	0	1	0	0	CorrectCommission	0.922656	0.585490	1	1
216.142578	0.795697	city	4	1	0.499665	0.499665	0	1	0	0	CorrectCommission	1.603912	0.584129	1	1
216.938339	0.795815	city	7	1	0.748196	0.748196	0	1	0	0	CorrectCommission	0.101298	0.583527	1	1
217.734238	0.796000	city	3	1	0.748498	0.748498	0	1	0	0	CorrectCommission	0.103370	0.583866	1	1
218.530136	0.795802	city	5	1	0.897613	0.897613	0	1	0	0	CorrectCommission	1.126466	0.585345	1	1
219.325836	0.795600	city	10	1	0.797663	0.797663	0	1	0	0	CorrectCommission	0.440696	0.588086	1	1
220.121536	0.795786	city	5	1	0.704667	0.704667	0	1	0	0	CorrectCommission	0.197366	0.592044	1	1
220.917328	0.795804	city	3	1	0.652146	0.652146	0	1	0	0	CorrectCommission	0.557720	0.596867	1	1
221.713242	0.796017	city	10	1	0.648727	0.648727	0	1	0	0	CorrectCommission	0.581172	0.601854	1	1
222.509079	0.795644	mountain	6	1	0.698157	0.698157	0	0	1	0	CommissionError	0.242027	0.606003	1	1
223.304764	0.795744	city	9	1	0.698713	0.698713	0	1	0	0	CorrectCommission	0.238212	0.608132	1	1
224.100540	0.795805	city	2	1	0.611539	0.611539	0	1	0	0	CorrectCommission	0.836325	0.607075	1	1
224.896347	0.795798	city	10	1	0.549452	0.549452	0	1	0	0	CorrectCommission	1.262314	0.601911	1	1
225.692139	0.795801	city	3	1	0.449694	0.449694	0	1	0	0	CorrectCommission	1.946771	0.592199	1	1
226.488052	0.796020	city	2	1	0.666747	0.666747	0	1	0	0	CorrectCommission	0.457534	0.578110	1	1
227.283859	0.795587	city	10	1	0.698177	0.698177	0	1	0	0	CorrectCommission	0.241893	0.560503	1	1
228.079605	0.795907	city	1	1	0.748124	0.748124	0	1	0	0	CorrectCommission	0.100800	0.540812	1	1
228.875412	0.795709	mountain	5	0	0.000000	0.682024	1	0	0	0	CorrectOmission	0.352721	0.520920	1	1
229.671204	0.795893	mountain	8	1	0.648901	0.648901	0	0	1	0	CommissionError	0.579979	0.502924	1	1
230.467010	0.795695	city	10	1	0.797781	0.797781	0	1	0	0	CorrectCommission	0.441502	0.488903	1	1
231.262756	0.795800	city	5	1	0.698372	0.698372	0	1	0	0	CorrectCommission	0.240553	0.480711	1	1
232.058655	0.796017	city	7	1	0.797760	0.797760	0	1	0	0	CorrectCommission	0.441359	0.479769	1	1
232.854523	0.795694	city	4	1	0.757606	0.757606	0	1	0	0	CorrectCommission	0.165862	0.486925	1	1
233.650269	0.795800	city	6	1	0.848081	0.848081	0	1	0	0	CorrectCommission	0.786619	0.502378	1	1
234.446060	0.795804	city	9	1	0.747985	0.747985	0	1	0	0	CorrectCommission	0.099846	0.525650	1	1
235.241821	0.795710	city	3	1	0.698243	0.698243	0	1	0	0	CorrectCommission	0.241437	0.555660	1	1
236.037567	0.795788	city	8	1	0.698575	0.698575	0	1	0	0	CorrectCommission	0.239158	0.590789	1	1
236.833420	0.795907	city	2	1	0.648649	0.648649	0	1	0	0	CorrectCommission	0.581710	0.629087	1	1
237.629242	0.795748	city	6	1	0.598843	0.598843	0	1	0	0	CorrectCommission	0.923439	0.668485	1	1
238.425095	0.795965	city	5	1	0.862838	0.862838	0	1	0	0	CorrectCommission	0.887869	0.707039	1	1
239.220901	0.795638	city	4	1	0.847691	0.847691	0	1	0	0	CorrectCommission	0.783943	0.743164	0	1
240.016708	0.795967	city	6	1	0.847492	0.847492	0	1	0	0	CorrectCommission	0.782577	0.775807	0	1
240.812485	0.795583	mountain	3	0	0.000000	0.968086	1	0	0	0	CorrectOmission	1.609992	0.804571	0	1
241.608170	0.795801	city	8	1	1.003686	1.003686	0	1	0	0	CorrectCommission	1.854248	0.829651	0	1
242.403976	0.795802	city	3	1	0.748504	0.748504	0	1	0	0	CorrectCommission	0.103407	0.851759	0	1
243.199890	0.796020	city	4	1	0.811648	0.811648	0	1	0	0	CorrectCommission	0.536646	0.871908	0	1
243.995743	0.795692	city	9	1	0.797744	0.797744	0	1	0	0	CorrectCommission	0.441255	0.891102	0	1
244.791519	0.795858	city	6	1	0.650080	0.650080	0	1	0	0	CorrectCommission	0.571890	0.910129	0	1
245.587296	0.795710	city	10	1	0.648470	0.648470	0	1	0	0	CorrectCommission	0.582939	0.929341	0	1
246.383133	0.795946	city	1	1	0.897216	0.897216	0	1	0	0	CorrectCommission	1.123745	0.948570	0	1
247.178894	0.795583	mountain	6	0	0.000000	0.963613	1	0	0	0	CorrectOmission	1.579300	0.967104	0	0
247.974579	0.795806	city	2	1	0.947086	0.947086	0	1	0	0	CorrectCommission	1.465906	0.983771	0	0
248.770401	0.795823	city	5	1	0.947062	0.947062	0	1	0	0	CorrectCommission	1.465745	0.997081	0	0
249.566315	0.795995	city	4	1	0.797843	0.797843	0	1	0	0	CorrectCommission	0.441930	1.005362	0	0
250.362091	0.795586	city	7	1	0.752601	0.752601	0	1	0	0	CorrectCommission	0.131517	1.006987	0	0
251.157822	0.795856	city	9	1	0.602056	0.602056	0	1	0	0	CorrectCommission	0.901394	1.000509	0	0
251.953613	0.795746	city	2	1	0.549134	0.549134	0	1	0	0	CorrectCommission	1.264495	0.984895	0	0
252.749390	0.795799	city	9	1	0.449830	0.449830	0	1	0	0	CorrectCommission	1.945838	0.959723	0	0
253.545242	0.795912	city	7	1	1.050215	1.050215	0	1	0	0	CorrectCommission	2.173488	0.925312	0	0
254.341064	0.795706	city	4	1	0.947532	0.947532	0	1	0	0	CorrectCommission	1.468971	0.882757	0	0
255.136810	0.795805	city	7	1	0.748069	0.748069	0	1	0	0	CorrectCommission	0.100422	0.833909	0	0
255.932602	0.795785	mountain	9	1	0.655391	0.655391	0	0	1	0	CommissionError	0.535451	0.781198	0	0
256.728394	0.795803	mountain	10	0	0.000000	0.744343	1	0	0	0	CorrectOmission	0.074860	0.727357	1	0
257.524200	0.795808	city	10	1	0.847599	0.847599	0	1	0	0	CorrectCommission	0.783315	0.675202	1	0
258.320129	0.796012	city	9	1	0.797835	0.797835	0	1	0	0	CorrectCommission	0.441873	0.627326	1	0
259.116028	0.795808	city	10	1	0.797629	0.797629	0	1	0	0	CorrectCommission	0.440463	0.585949	1	0
259.911835	0.795797	city	1	1	0.816157	0.816157	0	1	0	0	CorrectCommission	0.567588	0.552809	1	0
260.707581	0.795693	city	8	1	0.700602	0.700602	0	1	0	0	CorrectCommission	0.225251	0.529085	1	0
261.503265	0.795693	mountain	1	0	0.000000	0.646385	1	0	0	0	CorrectOmission	0.597242	0.515405	1	0
262.299011	0.795813	city	2	1	0.664412	0.664412	0	1	0	0	CorrectCommission	0.473555	0.511848	1	0
263.094818	0.795788	city	8	1	0.765589	0.765589	0	1	0	0	CorrectCommission	0.220634	0.517996	1	0
263.890656	0.795910	city	2	1	0.702038	0.702038	0	1	0	0	CorrectCommission	0.215399	0.532953	1	0
264.686584	0.795913	city	7	1	0.698246	0.698246	0	1	0	0	CorrectCommission	0.241421	0.555392	1	0
265.482391	0.795689	city	2	1	0.617200	0.617200	0	1	0	0	CorrectCommission	0.797488	0.583617	1	0
266.278076	0.795696	city	4	1	0.698175	0.698175	0	1	0	0	CorrectCommission	0.241907	0.615635	1	0
267.073822	0.795798	city	5	1	0.648654	0.648654	0	1	0	0	CorrectCommission	0.581678	0.649317	1	0
267.869690	0.795912	city	7	1	0.599366	0.599366	0	1	0	0	CorrectCommission	0.919845	0.682469	1	0
268.665466	0.795694	city	5	1	0.946938	0.946938	0	1	0	0	CorrectCommission	1.464895	0.712987	1	0
269.461273	0.795910	city	2	1	0.798146	0.798146	0	1	0	0	CorrectCommission	0.444012	0.738998	0	0
270.257202	0.795912	city	9	1	0.847447	0.847447	0	1	0	0	CorrectCommission	0.782271	0.759025	0	0
271.053040	0.795801	city	10	1	0.847814	0.847814	0	1	0	0	CorrectCommission	0.784790	0.772035	0	0
271.848755	0.795584	city	7	1	0.918799	0.918799	0	1	0	0	CorrectCommission	1.271828	0.777531	0	0
272.644440	0.795800	city	5	1	0.897344	0.897344	0	1	0	0	CorrectCommission	1.124618	0.775571	0	0
273.440247	0.795804	city	6	1	0.856156	0.856156	0	1	0	0	CorrectCommission	0.842021	0.766766	0	0
274.236053	0.795811	city	7	1	0.662530	0.662530	0	1	0	0	CorrectCommission	0.486469	0.752255	0	0
275.031891	0.795898	city	8	1	0.802574	0.802574	0	1	0	0	CorrectCommission	0.474388	0.733607	1	0
275.827698	0.795702	city	10	1	0.897183	0.897183	0	1	0	0	CorrectCommission	1.123515	0.712719	1	0
276.623566	0.796012	city	4	1	0.858897	0.858897	0	1	0	0	CorrectCommission	0.860831	0.691690	1	0
277.419464	0.795801	city	3	1	0.847369	0.847369	0	1	0	0	CorrectCommission	0.781735	0.672678	1	0
278.215210	0.795691	city	8	1	0.811234	0.811234	0	1	0	0	CorrectCommission	0.533809	0.657706	1	0
279.010895	0.795697	city	6	1	0.747995	0.747995	0	1	0	0	CorrectCommission	0.099918	0.648471	1	0
279.806702	0.795908	city	3	1	0.652478	0.652478	0	1	0	0	CorrectCommission	0.555437	0.646187	1	0
280.602509	0.795695	mountain	3	0	0.000000	0.696755	1	0	0	0	CorrectOmission	0.251649	0.651398	1	0
281.398315	0.795907	mountain	6	0	0.000000	0.793873	1	0	0	0	CorrectOmission	0.414691	0.664005	1	0
282.194122	0.795694	city	4	1	0.856879	0.856879	0	1	0	0	CorrectCommission	0.846988	0.683253	1	0
282.989868	0.795857	city	9	1	0.798822	0.798822	0	1	0	0	CorrectCommission	0.448650	0.707887	1	0
283.785706	0.795796	city	5	1	0.797826	0.797826	0	1	0	0	CorrectCommission	0.441812	0.736385	1	0
284.581482	0.795750	city	10	1	0.797787	0.797787	0	1	0	0	CorrectCommission	0.441547	0.767260	0	0
285.377319	0.795909	city	4	1	0.897320	0.897320	0	1	0	0	CorrectCommission	1.124455	0.799337	0	0
286.173157	0.795750	city	6	1	1.017886	1.017886	0	1	0	0	CorrectCommission	1.951675	0.831995	0	0
286.968903	0.795748	city	3	1	0.947158	0.947158	0	1	0	0	CorrectCommission	1.466402	0.865300	0	0
287.764709	0.795907	city	7	1	0.798036	0.798036	0	1	0	0	CorrectCommission	0.443255	0.899961	0	0
288.560547	0.795756	mountain	4	0	0.000000	0.812895	1	0	0	0	CorrectOmission	0.545208	0.937104	0	0
289.356354	0.795849	mountain	9	0	0.000000	0.882415	1	0	0	0	CorrectOmission	1.022193	0.977873	0	0
290.152130	0.795696	city	7	1	0.897275	0.897275	0	1	0	0	CorrectCommission	1.124144	1.023012	0	0
290.947876	0.795796	city	8	1	0.748152	0.748152	0	1	0	0	CorrectCommission	0.100995	1.072443	0	0
291.743774	0.796022	city	4	1	0.666780	0.666780	0	1	0	0	CorrectCommission	0.457310	1.124976	0	0
292.539581	0.795599	city	8	1	0.598677	0.598677	0	1	0	0	CorrectCommission	0.924574	1.178142	0	0
293.335297	0.795822	city	6	1	0.549175	0.549175	0	1	0	0	CorrectCommission	1.264217	1.228325	0	0
294.131104	0.795764	city	1	1	0.499530	0.499530	0	1	0	0	CorrectCommission	1.604838	1.271141	0	0
294.926880	0.795806	mountain	3	1	0.399988	0.399988	0	0	1	0	CommissionError	2.287807	1.301956	0	0
295.722778	0.796018	city	4	1	0.848175	0.848175	0	1	0	0	CorrectCommission	0.787266	1.316531	0	0
296.518585	0.795587	city	3	1	1.046676	1.046676	0	1	0	0	CorrectCommission	2.149209	1.311707	0	0
297.314270	0.795796	city	7	1	1.096240	1.096240	0	1	0	0	CorrectCommission	2.489273	1.285801	0	0
298.110199	0.796021	city	9	1	1.195736	1.195736	0	1	0	0	CorrectCommission	3.171929	1.238983	0	0
298.906036	0.795694	city	3	0	0.000000	0.875386	0	0	0	1	OmissionError	0.973967	1.173264	0	0
299.701782	0.795755	city	10	1	0.566069	0.566069	0	1	0	0	CorrectCommission	1.148303	1.092291	0	0
300.497528	0.795739	city	8	1	0.698661	0.698661	0	1	0	0	CorrectCommission	0.238569	1.000783	0	0
301.293304	0.795800	city	10	1	0.648647	0.648647	0	1	0	0	CorrectCommission	0.581725	0.904000	0	0
302.089081	0.795804	city	2	1	0.654027	0.654027	0	1	0	0	CorrectCommission	0.544810	0.807072	0	0
302.884888	0.795801	mountain	6	0	0.000000	0.682612	1	0	0	0	CorrectOmission	0.348685	0.714494	1	0
303.680817	0.796018	city	10	1	0.698728	0.698728	0	1	0	0	CorrectCommission	0.238108	0.629735	1	0
304.476715	0.795802	city	9	1	0.666703	0.666703	0	1	0	0	CorrectCommission	0.457837	0.555074	1	0
305.272400	0.795587	city	1	1	0.649121	0.649121	0	1	0	0	CorrectCommission	0.578471	0.491615	1	0
306.068115	0.795812	mountain	8	0	0.000000	0.704210	1	0	0	0	CorrectOmission	0.200500	0.439438	1	0
306.863953	0.795849	city	6	1	0.748449	0.748449	0	1	0	0	CorrectCommission	0.103029	0.397863	1	1
307.659851	0.795958	city	7	1	0.698317	0.698317	0	1	0	0	CorrectCommission	0.240931	0.365732	1	1
308.455719	0.795803	city	6	1	0.698144	0.698144	0	1	0	0	CorrectCommission	0.242121	0.341743	1	1
309.251434	0.795616	city	4	1	0.608438	0.608438	0	1	0	0	CorrectCommission	0.857607	0.324664	1	1
310.047119	0.795767	city	9	1	0.761483	0.761483	0	1	0	0	CorrectCommission	0.192461	0.313483	1	1
310.842926	0.795806	city	4	1	0.698438	0.698438	0	1	0	0	CorrectCommission	0.240099	0.307538	1	1
311.638702	0.795800	city	1	1	0.750647	0.750647	0	1	0	0	CorrectCommission	0.118113	0.306476	1	1
312.434540	0.795833	city	8	1	0.748111	0.748111	0	1	0	0	CorrectCommission	0.100713	0.310187	1	1
313.230316	0.795766	city	2	1	0.712726	0.712726	0	1	0	0	CorrectCommission	0.142071	0.318738	1	1
314.026154	0.795853	city	3	1	0.798461	0.798461	0	1	0	0	CorrectCommission	0.446171	0.332202	1	1
314.821960	0.795757	city	6	1	0.798231	0.798231	0	1	0	0	CorrectCommission	0.444593	0.350580	1	1
315.617706	0.795795	city	1	1	0.698562	0.698562	0	1	0	0	CorrectCommission	0.239248	0.373703	1	1
316.413513	0.795804	city	8	1	0.698379	0.698379	0	1	0	0	CorrectCommission	0.240506	0.401215	1	1
317.209320	0.795799	city	2	1	0.705218	0.705218	0	1	0	0	CorrectCommission	0.193585	0.432484	1	1
318.005127	0.795803	city	3	1	0.797825	0.797825	0	1	0	0	CorrectCommission	0.441809	0.466640	1	1
318.800934	0.795803	city	10	1	0.755408	0.755408	0	1	0	0	CorrectCommission	0.150781	0.502583	1	1
319.596741	0.795822	city	1	1	0.806844	0.806844	0	1	0	0	CorrectCommission	0.503687	0.539042	1	1
320.392609	0.795888	city	5	1	0.897281	0.897281	0	1	0	0	CorrectCommission	1.124187	0.574618	1	1
321.188385	0.795697	mountain	2	0	0.000000	0.910200	1	0	0	0	CorrectOmission	1.212829	0.607869	1	1
321.984131	0.795798	city	4	1	0.855978	0.855978	0	1	0	0	CorrectCommission	0.840800	0.637371	1	1
322.779938	0.795809	mountain	2	0	0.000000	0.744988	1	0	0	0	CorrectOmission	0.079288	0.661772	1	1
323.575745	0.795795	city	10	1	0.653046	0.653046	0	1	0	0	CorrectCommission	0.551539	0.679870	1	1
324.371582	0.795862	city	9	1	0.655966	0.655966	0	1	0	0	CorrectCommission	0.531510	0.690690	1	1
325.167358	0.795743	city	8	1	0.808343	0.808343	0	1	0	0	CorrectCommission	0.513976	0.693619	1	1
325.963135	0.795796	city	9	1	0.897528	0.897528	0	1	0	0	CorrectCommission	1.125881	0.688551	1	1
326.759003	0.795914	city	7	1	0.947055	0.947055	0	1	0	0	CorrectCommission	1.465694	0.675991	1	1
327.554840	0.795767	mountain	10	0	0.000000	0.955278	1	0	0	0	CorrectOmission	1.522114	0.657180	1	1
328.350586	0.795759	city	2	1	0.897366	0.897366	0	1	0	0	CorrectCommission	1.124770	0.634023	1	1
329.146393	0.795823	city	10	1	0.748487	0.748487	0	1	0	0	CorrectCommission	0.103291	0.608955	1	1
329.942169	0.795745	mountain	1	0	0.000000	0.734127	1	0	0	0	CorrectOmission	0.004769	0.584699	1	1
330.737946	0.795802	city	9	1	0.751658	0.751658	0	1	0	0	CorrectCommission	0.125052	0.563891	1	1
331.533752	0.795805	city	10	1	0.698451	0.698451	0	1	0	0	CorrectCommission	0.240010	0.548764	1	1
332.329559	0.795833	city	5	1	0.752894	0.752894	0	1	0	0	CorrectCommission	0.133527	0.540871	1	1
333.125366	0.795767	city	8	1	0.698380	0.698380	0	1	0	0	CorrectCommission	0.240499	0.540948	1	1
333.921143	0.795804	city	2	1	0.599093	0.599093	0	1	0	0	CorrectCommission	0.921718	0.548911	1	1
334.716949	0.795800	city	3	1	0.648634	0.648634	0	1	0	0	CorrectCommission	0.581814	0.563958	1	1
335.512756	0.795803	city	4	1	0.717560	0.717560	0	1	0	0	CorrectCommission	0.108903	0.584790	1	1
336.308563	0.795803	mountain	7	0	0.000000	0.816473	1	0	0	0	CorrectOmission	0.569755	0.609897	1	1
337.104370	0.795798	mountain	2	0	0.000000	0.881204	1	0	0	0	CorrectOmission	1.013883	0.637763	1	1
337.900177	0.795806	city	10	1	0.847583	0.847583	0	1	0	0	CorrectCommission	0.783202	0.667084	1	1
338.695984	0.795836	city	3	1	0.651439	0.651439	0	1	0	0	CorrectCommission	0.562568	0.696906	1	1
339.491791	0.795763	city	6	1	0.949794	0.949794	0	1	0	0	CorrectCommission	1.484488	0.726627	1	1
340.287598	0.795871	city	2	1	0.847552	0.847552	0	1	0	0	CorrectCommission	0.782988	0.755882	0	1
341.083405	0.795731	city	10	1	0.806889	0.806889	0	1	0	0	CorrectCommission	0.503996	0.784436	0	1
341.879181	0.795805	city	2	1	0.698483	0.698483	0	1	0	0	CorrectCommission	0.239794	0.811993	0	1
342.674988	0.795800	city	10	1	0.599005	0.599005	0	1	0	0	CorrectCommission	0.922327	0.838085	0	1
343.470825	0.795911	city	4	1	0.798140	0.798140	0	1	0	0	CorrectCommission	0.443969	0.862011	0	1
344.266693	0.795802	city	5	1	0.712001	0.712001	0	1	0	0	CorrectCommission	0.147044	0.883013	0	1
345.062439	0.795693	city	7	1	0.499955	0.499955	0	1	0	0	CorrectCommission	1.601917	0.900482	0	1
345.858276	0.796018	city	6	1	0.449681	0.449681	0	1	0	0	CorrectCommission	1.946860	0.914177	0	1
346.654083	0.795585	city	9	1	0.462321	0.462321	0	1	0	0	CorrectCommission	1.860135	0.924565	0	1
347.449829	0.795909	city	1	1	0.616963	0.616963	0	1	0	0	CorrectCommission	0.799114	0.933019	0	1
348.245697	0.795802	city	7	1	0.699960	0.699960	0	1	0	0	CorrectCommission	0.229658	0.941798	0	1
349.041504	0.795804	mountain	8	0	0.000000	0.878866	1	0	0	0	CorrectOmission	0.997840	0.953882	0	1
349.837280	0.795751	city	6	1	0.947261	0.947261	0	1	0	0	CorrectCommission	1.467111	0.972612	0	1
350.633026	0.795780	city	3	1	0.698728	0.698728	0	1	0	0	CorrectCommission	0.238113	1.001254	0	1
351.428925	0.795979	city	1	1	0.599024	0.599024	0	1	0	0	CorrectCommission	0.922197	1.042497	0	1
352.224762	0.795693	city	3	1	0.814331	0.814331	0	1	0	0	CorrectCommission	0.555060	1.097908	0	1
353.020508	0.795799	city	9	1	0.747999	0.747999	0	1	0	0	CorrectCommission	0.099942	1.167613	0	1
353.816345	0.795912	city	3	1	0.797724	0.797724	0	1	0	0	CorrectCommission	0.441114	1.250075	0	1
354.612091	0.795583	city	2	1	0.549436	0.549436	0	1	0	0	CorrectCommission	1.262425	1.342088	0	1
355.407837	0.795865	city	5	1	0.551706	0.551706	0	1	0	0	CorrectCommission	1.246848	1.439029	0	1
356.203644	0.795745	city	2	1	0.464402	0.464402	0	1	0	0	CorrectCommission	1.845858	1.535310	0	1
356.999390	0.795794	city	10	1	0.354892	0.354892	0	1	0	0	CorrectCommission	2.597217	1.624844	0	1
357.795197	0.795808	city	1	1	0.300430	0.300430	0	1	0	0	CorrectCommission	2.970891	1.701650	0	1
358.591003	0.795805	city	9	1	0.499413	0.499413	0	1	0	0	CorrectCommission	1.605640	1.760355	0	1
359.386810	0.795797	city	2	1	0.450076	0.450076	0	1	0	0	CorrectCommission	1.944149	1.796665	0	1
360.182617	0.795799	city	10	1	0.300428	0.300428	0	1	0	0	CorrectCommission	2.970901	1.807585	0	1
360.978424	0.795800	city	3	1	0.947168	0.947168	0	1	0	0	CorrectCommission	1.466471	1.791645	0	1
361.774200	0.795809	city	8	1	0.852213	0.852213	0	1	0	0	CorrectCommission	0.814973	1.749061	0	1
362.570129	0.796015	city	5	1	1.210522	1.210522	0	1	0	0	CorrectCommission	3.273377	1.681698	0	1
363.365936	0.795585	city	2	1	1.145752	1.145752	0	1	0	0	CorrectCommission	2.828985	1.592975	0	1
364.161682	0.795908	city	9	1	1.096230	1.096230	0	1	0	0	CorrectCommission	2.489205	1.487813	0	1
364.957458	0.795693	city	2	1	0.947244	0.947244	0	1	0	0	CorrectCommission	1.466990	1.372289	0	1
365.753326	0.796020	city	7	1	0.847537	0.847537	0	1	0	0	CorrectCommission	0.782887	1.253220	0	1
366.549133	0.795585	city	2	1	0.765790	0.765790	0	1	0	0	CorrectCommission	0.222008	1.137580	0	0
367.344940	0.796018	city	8	1	0.797875	0.797875	0	1	0	0	CorrectCommission	0.442149	1.031897	0	0
368.140747	0.795585	city	5	1	0.698146	0.698146	0	1	0	0	CorrectCommission	0.242104	0.941703	0	0
368.936493	0.795908	city	7	1	0.655724	0.655724	0	1	0	0	CorrectCommission	0.533170	0.871018	0	0
369.732330	0.795800	city	8	1	0.658867	0.658867	0	1	0	0	CorrectCommission	0.511606	0.822047	0	0
370.528137	0.795805	city	3	1	0.698390	0.698390	0	1	0	0	CorrectCommission	0.240429	0.795067	0	0
371.323883	0.795690	city	2	1	0.649201	0.649201	0	1	0	0	CorrectCommission	0.577926	0.788528	0	0
372.119659	0.795853	city	4	1	0.760867	0.760867	0	1	0	0	CorrectCommission	0.188234	0.799357	0	0
372.915558	0.795968	city	7	1	0.797816	0.797816	0	1	0	0	CorrectCommission	0.441748	0.823513	0	0
373.711395	0.795692	city	4	1	0.698272	0.698272	0	1	0	0	CorrectCommission	0.241238	0.856559	0	0
374.507141	0.795804	city	6	1	0.549046	0.549046	0	1	0	0	CorrectCommission	1.265101	0.894312	0	0
375.302887	0.795705	city	8	1	0.403274	0.403274	0	1	0	0	CorrectCommission	2.265260	0.933366	0	0
376.098633	0.795786	city	7	1	0.421178	0.421178	0	1	0	0	CorrectCommission	2.142419	0.971487	0	0
376.894562	0.796022	city	9	1	0.598869	0.598869	0	1	0	0	CorrectCommission	0.923256	1.007735	0	0
377.690399	0.795692	city	10	1	0.551259	0.551259	0	1	0	0	CorrectCommission	1.249915	1.042260	0	0
378.486115	0.795693	city	8	1	0.847486	0.847486	0	1	0	0	CorrectCommission	0.782539	1.075886	0	0
379.281860	0.795801	city	3	1	0.847564	0.847564	0	1	0	0	CorrectCommission	0.783076	1.109575	0	0
380.077759	0.796021	city	8	1	0.804833	0.804833	0	1	0	0	CorrectCommission	0.489889	1.143755	0	0
380.873566	0.795584	city	7	1	0.809776	0.809776	0	1	0	0	CorrectCommission	0.523804	1.177932	0	0
381.669250	0.795800	city	3	1	0.648925	0.648925	0	1	0	0	CorrectCommission	0.579815	1.210442	0	0
382.465057	0.795800	city	8	1	0.797848	0.797848	0	1	0	0	CorrectCommission	0.441963	1.238569	0	0
383.260864	0.795802	city	5	1	0.514539	0.514539	0	1	0	0	CorrectCommission	1.501858	1.258957	0	0
384.056671	0.795858	city	6	1	1.046506	1.046506	0	1	0	0	CorrectCommission	2.148046	1.268215	0	0
384.852539	0.795854	mountain	3	0	0.000000	1.231465	1	0	0	0	CorrectOmission	3.417071	1.263614	0	0
385.648315	0.795692	mountain	8	0	0.000000	1.178759	1	0	0	0	CorrectOmission	3.055451	1.243641	0	0
386.444122	0.795914	city	10	1	0.997735	0.997735	0	1	0	0	CorrectCommission	1.813416	1.208398	0	0
387.239960	0.795800	city	2	1	0.797736	0.797736	0	1	0	0	CorrectCommission	0.441197	1.159619	0	0
388.035706	0.795692	city	1	1	0.698252	0.698252	0	1	0	0	CorrectCommission	0.241378	1.100442	0	0
388.831543	0.795965	city	4	1	0.764151	0.764151	0	1	0	0	CorrectCommission	0.210764	1.034903	0	0
389.627380	0.795694	city	1	1	0.807082	0.807082	0	1	0	0	CorrectCommission	0.505318	0.967426	0	0
390.423096	0.795750	city	7	1	0.899618	0.899618	0	1	0	0	CorrectCommission	1.140222	0.902264	0	0
391.218903	0.795832	city	4	1	0.857841	0.857841	0	1	0	0	CorrectCommission	0.853589	0.843142	0	0
392.014679	0.795766	city	6	1	0.897621	0.897621	0	1	0	0	CorrectCommission	1.126524	0.792996	0	0
392.810516	0.795869	city	7	1	0.809851	0.809851	0	1	0	0	CorrectCommission	0.524317	0.753837	0	0
393.606323	0.795734	city	6	1	0.816660	0.816660	0	1	0	0	CorrectCommission	0.571038	0.726776	1	0
394.402069	0.795802	city	1	1	0.809296	0.809296	0	1	0	0	CorrectCommission	0.520513	0.712061	1	0
395.197998	0.796020	city	2	1	0.716426	0.716426	0	1	0	0	CorrectCommission	0.116680	0.709103	1	0
395.993805	0.795585	city	4	1	0.664501	0.664501	0	1	0	0	CorrectCommission	0.472949	0.716592	1	0
396.789490	0.795801	city	2	1	0.659596	0.659596	0	1	0	0	CorrectCommission	0.506600	0.732597	1	0
397.585297	0.795803	city	5	1	0.698373	0.698373	0	1	0	0	CorrectCommission	0.240548	0.754732	0	0
398.381104	0.795851	city	3	1	0.648648	0.648648	0	1	0	0	CorrectCommission	0.581716	0.780409	0	0
399.176910	0.795752	city	8	1	0.505937	0.505937	0	1	0	0	CorrectCommission	1.560880	0.807011	0	0
399.972717	0.795841	city	9	1	0.467141	0.467141	0	1	0	0	CorrectCommission	1.827064	0.832200	0	0
400.768524	0.795765	city	7	1	0.602249	0.602249	0	1	0	0	CorrectCommission	0.900065	0.854139	0	0
401.564301	0.795800	city	2	1	0.648763	0.648763	0	1	0	0	CorrectCommission	0.580926	0.871663	0	0
402.360107	0.795801	city	7	1	0.748137	0.748137	0	1	0	0	CorrectCommission	0.100889	0.884355	0	0
403.155914	0.795807	city	9	1	0.566706	0.566706	0	1	0	0	CorrectCommission	1.143936	0.892540	0	0
403.951721	0.795818	mountain	9	1	0.458828	0.458828	0	0	1	0	CommissionError	1.884101	0.897172	0	0
404.747498	0.795782	city	2	1	0.996832	0.996832	0	1	0	0	CorrectCommission	1.807222	0.899641	0	0
405.543335	0.795835	city	10	1	0.798398	0.798398	0	1	0	0	CorrectCommission	0.445737	0.901498	0	0
406.339233	0.795983	city	8	1	0.797920	0.797920	0	1	0	0	CorrectCommission	0.442462	0.904150	0	0
407.135010	0.795583	city	4	1	0.748031	0.748031	0	1	0	0	CorrectCommission	0.100164	0.908534	0	0
407.930756	0.795912	city	9	1	0.711902	0.711902	0	1	0	0	CorrectCommission	0.147723	0.914925	0	0
408.726685	0.795910	city	1	1	0.798497	0.798497	0	1	0	0	CorrectCommission	0.446418	0.922862	0	0
409.522430	0.795587	city	7	1	0.999350	0.999350	0	1	0	0	CorrectCommission	1.824501	0.931201	0	0
410.318207	0.796016	city	3	1	0.947072	0.947072	0	1	0	0	CorrectCommission	1.465812	0.938324	0	0
411.114044	0.795644	city	1	1	0.897991	0.897991	0	1	0	0	CorrectCommission	1.129059	0.942420	0	0
411.909760	0.795744	city	2	1	0.947862	0.947862	0	1	0	0	CorrectCommission	1.471232	0.941807	0	0
412.705566	0.795870	city	5	1	0.797908	0.797908	0	1	0	0	CorrectCommission	0.442378	0.935210	0	0
413.501343	0.795729	city	6	1	0.996763	0.996763	0	1	0	0	CorrectCommission	1.806748	0.922006	0	0
414.297119	0.795804	city	9	1	0.748142	0.748142	0	1	0	0	CorrectCommission	0.100922	0.902291	0	0
415.092926	0.795802	city	1	1	0.599174	0.599174	0	1	0	0	CorrectCommission	0.921166	0.876983	0	0
415.888733	0.795811	city	7	1	0.500135	0.500135	0	1	0	0	CorrectCommission	1.600683	0.847654	0	0
416.684540	0.795797	city	8	1	0.798590	0.798590	0	1	0	0	CorrectCommission	0.447058	0.816416	0	0
417.480347	0.795831	city	7	1	0.553323	0.553323	0	1	0	0	CorrectCommission	1.235758	0.785717	0	0
418.276184	0.795839	city	8	1	0.797880	0.797880	0	1	0	0	CorrectCommission	0.442185	0.758028	0	0
419.071991	0.795779	city	9	1	0.601567	0.601567	0	1	0	0	CorrectCommission	0.904749	0.735551	1	0
419.867859	0.795971	city	7	1	0.797766	0.797766	0	1	0	0	CorrectCommission	0.441406	0.719881	1	0
420.663696	0.795693	city	1	1	0.698916	0.698916	0	1	0	0	CorrectCommission	0.236823	0.711756	1	0
421.459442	0.795802	city	4	1	0.747993	0.747993	0	1	0	0	CorrectCommission	0.099903	0.710907	1	0
422.255249	0.795801	city	5	1	0.698232	0.698232	0	1	0	0	CorrectCommission	0.241513	0.716072	1	0
423.051056	0.795802	city	10	1	0.748060	0.748060	0	1	0	0	CorrectCommission	0.100361	0.725169	1	0
423.846802	0.795697	city	1	1	0.648619	0.648619	0	1	0	0	CorrectCommission	0.581914	0.735615	1	0
424.642578	0.795859	mountain	6	0	0.000000	0.930609	1	0	0	0	CorrectOmission	1.352860	0.744754	0	0
425.438385	0.795750	city	8	1	1.146263	1.146263	0	1	0	0	CorrectCommission	2.832490	0.750303	0	0
426.234161	0.795793	city	5	1	0.847813	0.847813	0	1	0	0	CorrectCommission	0.784783	0.750697	0	1
427.029999	0.795910	city	7	1	0.857051	0.857051	0	1	0	0	CorrectCommission	0.848164	0.745364	0	1
427.825836	0.795746	city	10	1	0.801515	0.801515	0	1	0	0	CorrectCommission	0.467128	0.734647	1	1
428.621582	0.795751	city	3	1	0.798613	0.798613	0	1	0	0	CorrectCommission	0.447216	0.719686	1	1
429.417358	0.795801	city	4	1	0.897324	0.897324	0	1	0	0	CorrectCommission	1.124486	0.702066	1	1
430.213196	0.795908	city	8	1	0.748097	0.748097	0	1	0	0	CorrectCommission	0.100619	0.683486	1	1
431.009125	0.795911	city	5	1	0.748396	0.748396	0	1	0	0	CorrectCommission	0.102669	0.665408	1	1
431.804962	0.795801	city	2	1	0.797702	0.797702	0	1	0	0	CorrectCommission	0.440960	0.648858	1	1
432.600677	0.795586	city	9	1	0.698169	0.698169	0	1	0	0	CorrectCommission	0.241944	0.634321	1	1
433.396393	0.795858	city	7	1	0.947077	0.947077	0	1	0	0	CorrectCommission	1.465848	0.621826	1	1
434.192291	0.795960	city	8	1	0.848075	0.848075	0	1	0	0	CorrectCommission	0.786578	0.611114	1	1
434.988068	0.795584	city	9	1	0.848309	0.848309	0	1	0	0	CorrectCommission	0.788188	0.601889	1	1
435.783813	0.795909	city	4	1	0.755005	0.755005	0	1	0	0	CorrectCommission	0.148014	0.594005	1	1
436.579651	0.795736	city	3	1	0.654838	0.654838	0	1	0	0	CorrectCommission	0.539246	0.587584	1	1
437.375397	0.795764	city	10	1	0.555724	0.555724	0	1	0	0	CorrectCommission	1.219281	0.583033	1	1
438.171173	0.795824	city	2	1	0.620072	0.620072	0	1	0	0	CorrectCommission	0.777780	0.580976	1	1
438.966980	0.795775	mountain	1	0	0.000000	0.712379	1	0	0	0	CorrectOmission	0.144450	0.582140	1	1
439.762878	0.796020	city	8	1	0.751577	0.751577	0	1	0	0	CorrectCommission	0.124495	0.587103	1	1
440.558685	0.795582	city	4	1	0.656600	0.656600	0	1	0	0	CorrectCommission	0.527159	0.596083	1	1
441.354492	0.796020	city	10	1	0.698673	0.698673	0	1	0	0	CorrectCommission	0.238486	0.608842	1	1
442.150269	0.795586	city	4	1	0.798065	0.798065	0	1	0	0	CorrectCommission	0.443455	0.624712	1	1
442.945984	0.795837	city	8	1	0.717741	0.717741	0	1	0	0	CorrectCommission	0.107661	0.642677	1	1
443.741821	0.795794	city	3	1	0.850382	0.850382	0	1	0	0	CorrectCommission	0.802407	0.661681	1	1
444.537659	0.795880	city	8	1	0.897265	0.897265	0	1	0	0	CorrectCommission	1.124077	0.680823	1	1
445.333435	0.795695	city	5	1	0.996731	0.996731	0	1	0	0	CorrectCommission	1.806532	0.699664	1	1
446.129181	0.795823	city	10	1	0.897438	0.897438	0	1	0	0	CorrectCommission	1.125267	0.718349	1	1
446.925049	0.795887	city	3	1	0.848408	0.848408	0	1	0	0	CorrectCommission	0.788861	0.737603	0	1
447.720825	0.795694	city	7	1	0.797810	0.797810	0	1	0	0	CorrectCommission	0.441705	0.758539	0	1
448.516632	0.795910	city	9	1	0.748086	0.748086	0	1	0	0	CorrectCommission	0.100544	0.782340	0	1
449.312469	0.795742	city	8	1	0.747992	0.747992	0	1	0	0	CorrectCommission	0.099898	0.809838	0	1
450.108276	0.795861	city	7	1	0.651567	0.651567	0	1	0	0	CorrectCommission	0.561687	0.841183	0	1
450.904053	0.795694	city	5	1	0.946961	0.946961	0	1	0	0	CorrectCommission	1.465050	0.875548	0	1
451.699799	0.795802	city	4	1	0.816665	0.816665	0	1	0	0	CorrectCommission	0.571071	0.911094	0	1
452.495605	0.795803	city	8	1	0.748142	0.748142	0	1	0	0	CorrectCommission	0.100925	0.945131	0	1
453.291412	0.795812	city	9	1	0.804954	0.804954	0	1	0	0	CorrectCommission	0.490720	0.974416	0	1
454.087311	0.796009	city	1	1	1.096228	1.096228	0	1	0	0	CorrectCommission	2.489192	0.995588	0	1
454.883209	0.795800	mountain	5	0	0.000000	1.091877	1	0	0	0	CorrectOmission	2.459342	1.005656	0	1
455.678925	0.795583	city	4	1	0.897100	0.897100	0	1	0	0	CorrectCommission	1.122947	1.002523	0	1
456.474670	0.795910	city	8	1	0.617093	0.617093	0	1	0	0	CorrectCommission	0.798223	0.985310	0	1
457.270447	0.795696	city	9	1	0.897208	0.897208	0	1	0	0	CorrectCommission	1.123689	0.954464	0	1
458.066193	0.795798	city	5	1	0.947059	0.947059	0	1	0	0	CorrectCommission	1.465723	0.911736	0	1
458.862122	0.796019	city	7	1	0.947037	0.947037	0	1	0	0	CorrectCommission	1.465573	0.859992	0	1
459.657928	0.795583	city	8	1	0.797592	0.797592	0	1	0	0	CorrectCommission	0.440207	0.802857	0	1
460.453674	0.795912	city	1	1	0.702136	0.702136	0	1	0	0	CorrectCommission	0.214729	0.744352	0	1
461.249512	0.795800	city	8	1	0.799384	0.799384	0	1	0	0	CorrectCommission	0.452504	0.688409	1	1
462.045380	0.795912	city	1	1	0.698271	0.698271	0	1	0	0	CorrectCommission	0.241246	0.638540	1	1
462.841125	0.795582	city	2	1	0.714348	0.714348	0	1	0	0	CorrectCommission	0.130938	0.597572	1	1
463.636810	0.795805	city	6	1	0.847738	0.847738	0	1	0	0	CorrectCommission	0.784267	0.567526	1	1
464.432678	0.795907	city	7	1	0.714211	0.714211	0	1	0	0	CorrectCommission	0.131883	0.549528	1	1
465.228516	0.795802	city	4	1	0.847964	0.847964	0	1	0	0	CorrectCommission	0.785821	0.543884	1	1
466.024292	0.795702	city	9	1	0.801520	0.801520	0	1	0	0	CorrectCommission	0.467157	0.550128	1	1
466.820038	0.795819	city	3	1	0.698458	0.698458	0	1	0	0	CorrectCommission	0.239967	0.567187	1	1
467.615845	0.795774	city	7	1	0.698330	0.698330	0	1	0	0	CorrectCommission	0.240842	0.593494	1	1
468.411621	0.795804	city	5	1	0.748128	0.748128	0	1	0	0	CorrectCommission	0.100832	0.627097	1	1
469.207458	0.795842	city	3	1	0.798302	0.798302	0	1	0	0	CorrectCommission	0.445082	0.665825	1	1
470.003265	0.795762	city	9	1	0.897316	0.897316	0	1	0	0	CorrectCommission	1.124426	0.707396	1	1
470.799042	0.795798	mountain	6	0	0.000000	0.921594	1	0	0	0	CorrectOmission	1.291001	0.749543	0	1
471.594849	0.795816	city	6	1	0.897455	0.897455	0	1	0	0	CorrectCommission	1.125386	0.790103	0	1
472.390656	0.795834	city	2	1	0.851220	0.851220	0	1	0	0	CorrectCommission	0.808158	0.827114	0	1
473.186523	0.795864	mountain	10	0	0.000000	0.849945	1	0	0	0	CorrectOmission	0.799412	0.858863	0	1
473.982330	0.795754	city	9	1	0.847517	0.847517	0	1	0	0	CorrectCommission	0.782750	0.883895	0	1
474.778076	0.795742	city	3	1	0.797820	0.797820	0	1	0	0	CorrectCommission	0.441774	0.901032	0	1
475.573853	0.795804	city	9	1	0.949910	0.949910	0	1	0	0	CorrectCommission	1.485283	0.909433	0	1
476.369690	0.795872	city	8	1	0.898037	0.898037	0	1	0	0	CorrectCommission	1.129373	0.908633	0	1
477.165466	0.795728	city	1	1	0.897253	0.897253	0	1	0	0	CorrectCommission	1.123994	0.898689	0	1
477.961243	0.795806	city	9	1	0.855084	0.855084	0	1	0	0	CorrectCommission	0.834670	0.880193	0	1
478.757111	0.795906	city	8	1	0.996782	0.996782	0	1	0	0	CorrectCommission	1.806881	0.854300	0	1
479.552917	0.795713	mountain	5	0	0.000000	0.930248	1	0	0	0	CorrectOmission	1.350381	0.822646	0	1
480.348663	0.795779	city	1	1	0.797788	0.797788	0	1	0	0	CorrectCommission	0.441554	0.787294	0	1
481.144440	0.795806	mountain	2	0	0.000000	0.741709	1	0	0	0	CorrectOmission	0.056786	0.750460	0	1
481.940247	0.795803	city	1	1	0.698413	0.698413	0	1	0	0	CorrectCommission	0.240275	0.714280	1	1
482.736053	0.795801	city	2	1	0.604302	0.604302	0	1	0	0	CorrectCommission	0.885983	0.680525	1	1
483.531982	0.796017	city	3	1	0.608495	0.608495	0	1	0	0	CorrectCommission	0.857214	0.650417	1	1
484.327820	0.795691	city	7	1	0.797602	0.797602	0	1	0	0	CorrectCommission	0.440277	0.624484	1	1
485.123505	0.795694	city	5	1	0.702259	0.702259	0	1	0	0	CorrectCommission	0.213887	0.602518	1	1
485.919250	0.795805	city	3	1	0.748148	0.748148	0	1	0	0	CorrectCommission	0.100970	0.583640	1	1
486.715057	0.795797	city	10	1	0.815992	0.815992	0	1	0	0	CorrectCommission	0.566451	0.566451	1	1
