onset	duration	trial_type	image_type	Press	ReactionTime	ReactionTime_Interpolated	CorrectOmission	CorrectCommission	CommissionError	OmissionError	response_type	nonsmoothVarianceTimeCourse	VarianceTimeCourse	In_the_Zone	Reward_trial
8.433918	0.792482	city	4	1	0.794436	0.794436	0	1	0	0	CorrectCommission	1.257189	1.257189	0	0
9.226292	0.792265	mountain	10	1	0.603122	0.603122	0	0	1	0	CommissionError	0.693570	1.172221	0	0
10.018447	0.792047	city	1	1	0.596382	0.596382	0	1	0	0	CorrectCommission	0.762300	1.090313	0	0
10.810658	0.792374	city	6	1	0.744799	0.744799	0	1	0	0	CorrectCommission	0.751055	1.014100	0	0
11.603031	0.792373	city	5	1	0.657448	0.657448	0	1	0	0	CorrectCommission	0.139632	0.945498	0	0
12.395253	0.792071	city	2	1	0.657932	0.657932	0	1	0	0	CorrectCommission	0.134698	0.885516	0	0
13.187409	0.792242	city	3	1	0.599400	0.599400	0	1	0	0	CorrectCommission	0.731523	0.834223	0	0
13.979772	0.792480	city	7	1	0.546769	0.546769	0	1	0	0	CorrectCommission	1.268183	0.790865	0	0
14.772052	0.792082	city	10	1	0.546668	0.546668	0	1	0	0	CorrectCommission	1.269211	0.754109	0	0
15.564211	0.792235	mountain	9	0	0.000000	0.579327	1	0	0	0	CorrectOmission	0.936205	0.722352	0	0
16.356461	0.792264	city	7	1	0.612634	0.612634	0	1	0	0	CorrectCommission	0.596588	0.693951	1	0
17.148737	0.792290	city	3	1	0.614478	0.614478	0	1	0	0	CorrectCommission	0.577786	0.667432	1	0
17.941002	0.792239	mountain	10	0	0.000000	0.697659	1	0	0	0	CorrectOmission	0.270382	0.641592	1	0
18.733360	0.792479	city	3	1	0.758972	0.758972	0	1	0	0	CorrectCommission	0.895570	0.615566	1	0
19.525732	0.792265	city	5	1	0.695212	0.695212	0	1	0	0	CorrectCommission	0.245435	0.588796	1	0
20.317997	0.792266	city	4	1	0.711501	0.711501	0	1	0	0	CorrectCommission	0.411523	0.561061	1	0
21.110153	0.792044	city	7	1	0.759215	0.759215	0	1	0	0	CorrectCommission	0.898051	0.532409	1	0
21.902308	0.792265	city	2	1	0.744812	0.744812	0	1	0	0	CorrectCommission	0.751186	0.503143	1	0
22.694628	0.792376	mountain	1	0	0.000000	0.732298	1	0	0	0	CorrectOmission	0.623589	0.473831	1	0
23.486893	0.792155	city	8	1	0.695178	0.695178	0	1	0	0	CorrectCommission	0.245090	0.445290	1	0
24.279102	0.792264	city	3	1	0.606956	0.606956	0	1	0	0	CorrectCommission	0.654482	0.418519	1	0
25.071367	0.792266	city	6	1	0.695315	0.695315	0	1	0	0	CorrectCommission	0.246485	0.394610	1	0
25.863743	0.792484	city	7	1	0.666598	0.666598	0	1	0	0	CorrectCommission	0.046333	0.374676	1	0
26.656116	0.792265	city	10	1	0.645753	0.645753	0	1	0	0	CorrectCommission	0.258880	0.359724	1	0
27.448380	0.792263	city	7	1	0.662865	0.662865	0	1	0	0	CorrectCommission	0.084393	0.350551	1	0
28.240644	0.792265	city	8	1	0.695096	0.695096	0	1	0	0	CorrectCommission	0.244251	0.347655	1	0
29.032801	0.792048	city	4	1	0.645906	0.645906	0	1	0	0	CorrectCommission	0.257321	0.351175	1	0
29.825012	0.792373	city	8	1	0.695561	0.695561	0	1	0	0	CorrectCommission	0.248994	0.360889	1	0
30.617329	0.792263	city	5	1	0.645997	0.645997	0	1	0	0	CorrectCommission	0.256389	0.376216	1	0
31.409594	0.792266	city	1	1	0.611676	0.611676	0	1	0	0	CorrectCommission	0.606349	0.396262	1	0
32.201805	0.792156	mountain	10	0	0.000000	0.617567	1	0	0	0	CorrectOmission	0.546285	0.419867	1	0
32.994015	0.792268	city	7	1	0.649992	0.649992	0	1	0	0	CorrectCommission	0.215654	0.445694	1	0
33.786282	0.792265	city	10	1	0.695276	0.695276	0	1	0	0	CorrectCommission	0.246085	0.472304	1	0
34.578598	0.792369	city	1	1	0.658311	0.658311	0	1	0	0	CorrectCommission	0.130829	0.498204	1	0
35.370972	0.792375	city	5	1	0.744698	0.744698	0	1	0	0	CorrectCommission	0.750027	0.521980	1	0
36.163208	0.792101	city	2	1	0.794882	0.794882	0	1	0	0	CorrectCommission	1.261733	0.542325	1	0
36.955421	0.792321	city	9	1	0.745317	0.745317	0	1	0	0	CorrectCommission	0.756339	0.558182	1	0
37.747658	0.792158	city	5	1	0.707340	0.707340	0	1	0	0	CorrectCommission	0.369099	0.568802	1	0
38.539978	0.792479	mountain	2	0	0.000000	0.742499	1	0	0	0	CorrectOmission	0.727598	0.573791	1	0
39.332352	0.792267	city	4	1	0.744934	0.744934	0	1	0	0	CorrectCommission	0.752430	0.573115	1	0
40.124512	0.792051	city	5	1	0.608787	0.608787	0	1	0	0	CorrectCommission	0.635809	0.567162	1	0
40.916664	0.792258	city	2	1	0.646824	0.646824	0	1	0	0	CorrectCommission	0.247956	0.556722	1	0
41.708927	0.792269	city	1	1	0.705398	0.705398	0	1	0	0	CorrectCommission	0.349295	0.542960	1	0
42.501247	0.792369	city	4	1	0.794321	0.794321	0	1	0	0	CorrectCommission	1.256011	0.527446	1	0
43.293564	0.792266	city	9	1	0.751897	0.751897	0	1	0	0	CorrectCommission	0.823427	0.512113	1	0
44.085831	0.792265	city	8	1	0.645578	0.645578	0	1	0	0	CorrectCommission	0.260663	0.499241	1	0
44.878044	0.792160	city	1	1	0.645616	0.645616	0	1	0	0	CorrectCommission	0.260283	0.491353	1	0
45.670254	0.792258	mountain	4	0	0.000000	0.680518	1	0	0	0	CorrectOmission	0.095602	0.491049	1	0
46.462540	0.792318	city	1	1	0.709161	0.709161	0	1	0	0	CorrectCommission	0.387663	0.500814	1	0
47.254818	0.792238	mountain	10	0	0.000000	0.690420	1	0	0	0	CorrectOmission	0.196575	0.522748	1	0
48.047058	0.792242	city	8	1	0.645699	0.645699	0	1	0	0	CorrectCommission	0.259430	0.558357	1	0
48.839317	0.792279	city	5	1	0.596400	0.596400	0	1	0	0	CorrectCommission	0.762116	0.608253	1	0
49.631588	0.792258	city	6	1	0.646775	0.646775	0	1	0	0	CorrectCommission	0.248456	0.672014	1	0
50.423847	0.792259	city	8	1	0.596215	0.596215	0	1	0	0	CorrectCommission	0.764002	0.748034	0	0
51.216106	0.792265	city	4	1	0.662444	0.662444	0	1	0	0	CorrectCommission	0.088691	0.833491	0	0
52.008392	0.792307	city	9	1	0.646784	0.646784	0	1	0	0	CorrectCommission	0.248364	0.924572	0	0
52.800766	0.792435	city	4	1	0.645866	0.645866	0	1	0	0	CorrectCommission	0.257730	1.016753	0	0
53.593060	0.792154	city	10	1	0.548077	0.548077	0	1	0	0	CorrectCommission	1.254847	1.105287	0	0
54.385216	0.792157	city	6	1	0.497099	0.497099	0	1	0	0	CorrectCommission	1.774648	1.185733	0	0
55.177437	0.792284	city	4	1	0.349372	0.349372	0	1	0	0	CorrectCommission	3.280975	1.254513	0	0
55.969700	0.792245	city	7	1	0.349597	0.349597	0	1	0	0	CorrectCommission	3.278680	1.309220	0	0
56.761959	0.792270	mountain	4	0	0.000000	0.580246	1	0	0	0	CorrectOmission	0.926831	1.348854	0	0
57.554333	0.792478	city	3	1	0.794458	0.794458	0	1	0	0	CorrectCommission	1.257412	1.373712	0	0
58.346611	0.792083	city	5	1	0.745371	0.745371	0	1	0	0	CorrectCommission	0.756890	1.385010	0	0
59.138767	0.792227	city	9	1	0.744778	0.744778	0	1	0	0	CorrectCommission	0.750839	1.384482	0	0
59.931015	0.792268	mountain	6	0	0.000000	0.801198	1	0	0	0	CorrectOmission	1.326138	1.373883	0	0
60.723282	0.792262	mountain	2	0	0.000000	0.854321	1	0	0	0	CorrectOmission	1.867809	1.354630	0	0
61.515545	0.792266	city	2	1	0.843834	0.843834	0	1	0	0	CorrectCommission	1.760876	1.327619	0	0
62.307812	0.792271	city	10	1	0.709425	0.709425	0	1	0	0	CorrectCommission	0.390363	1.293216	0	0
63.100132	0.792365	city	7	1	0.794305	0.794305	0	1	0	0	CorrectCommission	1.255846	1.251487	0	0
63.892391	0.792158	city	1	1	0.744645	0.744645	0	1	0	0	CorrectCommission	0.749485	1.202398	0	0
64.684654	0.792371	city	10	1	0.992395	0.992395	0	1	0	0	CorrectCommission	3.275699	1.146238	0	0
65.476952	0.792216	city	6	1	0.897532	0.897532	0	1	0	0	CorrectCommission	2.308416	1.083756	0	0
66.269272	0.792423	city	8	1	0.744697	0.744697	0	1	0	0	CorrectCommission	0.750015	1.016397	0	0
67.061539	0.792113	city	1	1	0.695086	0.695086	0	1	0	0	CorrectCommission	0.244152	0.946200	0	0
67.853706	0.792217	city	10	1	0.717361	0.717361	0	1	0	0	CorrectCommission	0.471282	0.875561	0	1
68.645958	0.792294	city	9	1	0.695307	0.695307	0	1	0	0	CorrectCommission	0.246401	0.806947	0	1
69.438271	0.792326	city	6	1	0.645887	0.645887	0	1	0	0	CorrectCommission	0.257512	0.742595	0	1
70.230515	0.792159	city	10	1	0.596629	0.596629	0	1	0	0	CorrectCommission	0.759786	0.684278	1	1
71.022720	0.792265	city	3	1	0.646516	0.646516	0	1	0	0	CorrectCommission	0.251106	0.633159	1	1
71.815041	0.792372	city	5	1	0.794331	0.794331	0	1	0	0	CorrectCommission	1.256116	0.589793	1	1
72.607307	0.792158	city	6	1	0.695818	0.695818	0	1	0	0	CorrectCommission	0.251610	0.554197	1	1
73.399521	0.792265	city	4	1	0.596208	0.596208	0	1	0	0	CorrectCommission	0.764077	0.526089	1	1
74.191833	0.792370	city	9	1	0.695390	0.695390	0	1	0	0	CorrectCommission	0.247251	0.505071	1	1
74.984116	0.792193	mountain	7	0	0.000000	0.693910	1	0	0	0	CorrectOmission	0.232153	0.490774	1	1
75.776329	0.792227	city	3	1	0.646062	0.646062	0	1	0	0	CorrectCommission	0.255736	0.482993	1	1
76.568581	0.792275	city	8	1	0.606142	0.606142	0	1	0	0	CorrectCommission	0.662782	0.481728	1	1
77.360847	0.792255	city	5	1	0.695273	0.695273	0	1	0	0	CorrectCommission	0.246051	0.487120	1	1
78.153214	0.792482	city	9	1	0.597243	0.597243	0	1	0	0	CorrectCommission	0.753519	0.499427	1	1
78.945534	0.792155	city	1	1	0.646094	0.646094	0	1	0	0	CorrectCommission	0.255410	0.518814	1	1
79.737694	0.792178	city	2	1	0.596561	0.596561	0	1	0	0	CorrectCommission	0.760479	0.545262	1	1
80.529961	0.792352	city	1	1	0.695249	0.695249	0	1	0	0	CorrectCommission	0.245812	0.578319	1	1
81.322212	0.792156	mountain	1	0	0.000000	0.698564	1	0	0	0	CorrectOmission	0.279609	0.617032	1	1
82.114426	0.792265	city	5	1	0.650797	0.650797	0	1	0	0	CorrectCommission	0.207446	0.659791	1	1
82.906693	0.792269	city	1	1	0.596244	0.596244	0	1	0	0	CorrectCommission	0.763711	0.704433	1	1
83.698959	0.792260	city	6	1	0.707190	0.707190	0	1	0	0	CorrectCommission	0.367564	0.748398	0	1
84.491325	0.792484	city	10	1	0.645727	0.645727	0	1	0	0	CorrectCommission	0.259147	0.788950	0	1
85.283646	0.792156	mountain	3	0	0.000000	0.815892	1	0	0	0	CorrectOmission	1.475964	0.823486	0	1
86.075806	0.792158	city	6	1	0.955319	0.955319	0	1	0	0	CorrectCommission	2.897651	0.849845	0	1
86.868019	0.792262	city	7	1	0.801642	0.801642	0	1	0	0	CorrectCommission	1.330666	0.866547	0	1
87.660332	0.792373	city	3	1	0.744754	0.744754	0	1	0	0	CorrectCommission	0.750597	0.872995	0	1
88.452599	0.792159	city	10	1	0.646929	0.646929	0	1	0	0	CorrectCommission	0.246892	0.869427	0	1
89.244919	0.792481	city	6	1	0.744801	0.744801	0	1	0	0	CorrectCommission	0.751071	0.856818	0	1
90.037186	0.792047	city	5	1	0.697579	0.697579	0	1	0	0	CorrectCommission	0.269571	0.836722	0	1
90.829338	0.792268	mountain	7	0	0.000000	0.788995	1	0	0	0	CorrectOmission	1.201705	0.811082	0	1
91.621605	0.792260	city	6	1	0.845934	0.845934	0	1	0	0	CorrectCommission	1.782290	0.782011	0	1
92.413925	0.792376	city	7	1	0.695281	0.695281	0	1	0	0	CorrectCommission	0.246141	0.751630	0	1
93.206200	0.792175	city	1	1	0.558098	0.558098	0	1	0	0	CorrectCommission	1.152666	0.721976	0	1
93.998405	0.792244	city	3	1	0.695493	0.695493	0	1	0	0	CorrectCommission	0.248299	0.694780	1	1
94.790665	0.792267	city	1	1	0.651662	0.651662	0	1	0	0	CorrectCommission	0.198632	0.671471	1	1
95.582985	0.792371	city	5	1	0.744805	0.744805	0	1	0	0	CorrectCommission	0.751111	0.653028	1	1
96.375244	0.792155	mountain	3	0	0.000000	0.719539	1	0	0	0	CorrectOmission	0.493484	0.639944	1	1
97.167465	0.792288	city	8	1	0.658976	0.658976	0	1	0	0	CorrectCommission	0.124048	0.632251	1	1
97.959732	0.792245	city	7	1	0.646230	0.646230	0	1	0	0	CorrectCommission	0.254018	0.629546	1	1
98.751984	0.792261	mountain	10	1	0.843718	0.843718	0	0	1	0	CommissionError	1.759699	0.631066	1	1
99.544250	0.792265	city	5	1	0.652856	0.652856	0	1	0	0	CorrectCommission	0.186456	0.635820	1	1
100.336548	0.792329	city	9	1	0.653216	0.653216	0	1	0	0	CorrectCommission	0.182785	0.642783	1	1
101.128845	0.792265	city	8	1	0.555759	0.555759	0	1	0	0	CorrectCommission	1.176520	0.650957	1	1
101.921074	0.792205	city	6	1	0.596821	0.596821	0	1	0	0	CorrectCommission	0.757828	0.659503	1	1
102.713310	0.792266	city	2	1	0.613059	0.613059	0	1	0	0	CorrectCommission	0.592247	0.667843	1	1
103.505592	0.792294	city	6	1	0.713521	0.713521	0	1	0	0	CorrectCommission	0.432119	0.675679	1	1
104.297852	0.792230	city	3	1	0.745384	0.745384	0	1	0	0	CorrectCommission	0.757017	0.683027	1	1
105.090103	0.792274	city	4	1	0.757145	0.757145	0	1	0	0	CorrectCommission	0.876940	0.690165	1	1
105.882370	0.792262	city	10	1	0.746934	0.746934	0	1	0	0	CorrectCommission	0.772823	0.697571	1	1
106.674690	0.792368	city	4	1	0.794305	0.794305	0	1	0	0	CorrectCommission	1.255846	0.705826	1	1
107.466949	0.792156	city	3	1	0.707258	0.707258	0	1	0	0	CorrectCommission	0.368260	0.715512	1	1
108.259186	0.792321	city	5	1	0.695290	0.695290	0	1	0	0	CorrectCommission	0.246232	0.727124	0	1
109.051567	0.792428	city	1	1	0.645855	0.645855	0	1	0	0	CorrectCommission	0.257839	0.740972	0	1
109.843910	0.792263	city	6	1	0.615330	0.615330	0	1	0	0	CorrectCommission	0.569093	0.757229	0	1
110.636177	0.792266	city	9	1	0.568045	0.568045	0	1	0	0	CorrectCommission	1.051247	0.775919	0	1
111.428329	0.792049	city	6	1	0.596400	0.596400	0	1	0	0	CorrectCommission	0.762115	0.797005	0	1
112.220543	0.792371	city	1	1	0.513592	0.513592	0	1	0	0	CorrectCommission	1.606478	0.820473	0	1
113.012802	0.792157	city	2	1	0.565492	0.565492	0	1	0	0	CorrectCommission	1.077270	0.846309	0	1
113.805054	0.792335	city	6	1	0.661323	0.661323	0	1	0	0	CorrectCommission	0.100116	0.874536	0	1
114.597427	0.792412	city	1	1	0.561279	0.561279	0	1	0	0	CorrectCommission	1.120231	0.905110	0	1
115.389763	0.792265	city	4	1	0.596071	0.596071	0	1	0	0	CorrectCommission	0.765466	0.937746	0	1
116.181923	0.792050	city	8	1	0.595988	0.595988	0	1	0	0	CorrectCommission	0.766313	0.971787	0	1
116.974075	0.792265	city	6	1	0.596374	0.596374	0	1	0	0	CorrectCommission	0.762377	1.006126	0	1
117.766396	0.792371	city	4	1	0.596258	0.596258	0	1	0	0	CorrectCommission	0.763562	1.039154	0	1
118.558655	0.792155	city	5	1	0.546613	0.546613	0	1	0	0	CorrectCommission	1.269778	1.068828	0	1
119.350868	0.792264	city	7	1	0.552195	0.552195	0	1	0	0	CorrectCommission	1.212856	1.092904	0	1
120.143150	0.792305	city	6	1	0.547251	0.547251	0	1	0	0	CorrectCommission	1.263266	1.109261	0	1
120.935448	0.792290	city	3	1	0.546714	0.546714	0	1	0	0	CorrectCommission	1.268749	1.116274	0	1
121.727699	0.792205	city	8	1	0.499906	0.499906	0	1	0	0	CorrectCommission	1.746027	1.113146	0	1
122.519981	0.792369	city	2	1	0.461764	0.461764	0	1	0	0	CorrectCommission	2.134947	1.100216	0	1
123.312355	0.792374	city	6	1	0.550869	0.550869	0	1	0	0	CorrectCommission	1.226384	1.079133	0	1
124.104622	0.792156	city	1	1	0.596025	0.596025	0	1	0	0	CorrectCommission	0.765939	1.052809	0	1
124.896774	0.792155	city	10	1	0.756964	0.756964	0	1	0	0	CorrectCommission	0.875101	1.025184	0	1
125.688988	0.792266	city	7	1	0.794308	0.794308	0	1	0	0	CorrectCommission	1.255879	1.000785	0	1
126.481255	0.792267	city	6	1	0.746444	0.746444	0	1	0	0	CorrectCommission	0.767829	0.984155	0	1
127.273514	0.792264	city	3	1	0.745224	0.745224	0	1	0	0	CorrectCommission	0.755386	0.979221	0	0
128.065842	0.792370	city	2	1	0.700599	0.700599	0	1	0	0	CorrectCommission	0.300361	0.988666	0	0
128.858093	0.792157	city	3	1	0.662706	0.662706	0	1	0	0	CorrectCommission	0.086014	1.013431	0	0
129.650421	0.792483	city	7	1	0.665009	0.665009	0	1	0	0	CorrectCommission	0.062534	1.052435	0	0
130.442688	0.792049	city	5	1	0.596365	0.596365	0	1	0	0	CorrectCommission	0.762470	1.102581	0	0
131.234833	0.792262	city	7	1	0.596796	0.596796	0	1	0	0	CorrectCommission	0.758074	1.159077	0	0
132.027206	0.792483	city	9	1	0.507557	0.507557	0	1	0	0	CorrectCommission	1.668022	1.215978	0	0
132.819580	0.792265	city	5	1	0.497121	0.497121	0	1	0	0	CorrectCommission	1.774430	1.266959	0	0
133.611801	0.792156	city	3	1	0.497848	0.497848	0	1	0	0	CorrectCommission	1.767017	1.306169	0	0
134.404053	0.792373	city	8	1	0.447558	0.447558	0	1	0	0	CorrectCommission	2.279809	1.328978	0	0
135.196381	0.792265	city	2	1	0.905244	0.905244	0	1	0	0	CorrectCommission	2.387053	1.332557	0	0
135.988541	0.792048	mountain	1	0	0.000000	0.959778	1	0	0	0	CorrectOmission	2.943116	1.316156	0	0
136.780685	0.792263	mountain	3	0	0.000000	0.795449	1	0	0	0	CorrectOmission	1.267512	1.281057	0	0
137.572968	0.792299	city	6	1	0.596546	0.596546	0	1	0	0	CorrectCommission	0.760627	1.230282	0	0
138.365234	0.792235	city	10	1	0.547359	0.547359	0	1	0	0	CorrectCommission	1.262169	1.168019	0	0
139.157501	0.792305	city	2	1	0.645743	0.645743	0	1	0	0	CorrectCommission	0.258989	1.099008	0	0
139.949783	0.792258	city	9	1	0.648304	0.648304	0	1	0	0	CorrectCommission	0.232867	1.027997	0	0
140.742035	0.792230	city	3	1	0.611594	0.611594	0	1	0	0	CorrectCommission	0.607189	0.959330	0	0
141.534393	0.792480	city	6	1	0.551835	0.551835	0	1	0	0	CorrectCommission	1.216533	0.896719	0	0
142.326675	0.792103	city	2	1	0.598497	0.598497	0	1	0	0	CorrectCommission	0.740729	0.843177	0	0
143.118942	0.792429	city	10	1	0.497662	0.497662	0	1	0	0	CorrectCommission	1.768914	0.801068	0	0
143.911209	0.792111	city	4	1	0.695575	0.695575	0	1	0	0	CorrectCommission	0.249134	0.772174	0	0
144.703430	0.792308	mountain	10	0	0.000000	0.718844	1	0	0	0	CorrectOmission	0.486398	0.757783	0	0
145.495697	0.792227	city	5	1	0.696940	0.696940	0	1	0	0	CorrectCommission	0.263050	0.758571	0	0
146.288010	0.792411	city	2	1	0.759334	0.759334	0	1	0	0	CorrectCommission	0.899261	0.774493	0	0
147.080246	0.792048	city	6	1	0.695083	0.695083	0	1	0	0	CorrectCommission	0.244120	0.804559	0	0
147.872437	0.792341	city	3	1	0.695555	0.695555	0	1	0	0	CorrectCommission	0.248931	0.846714	0	0
148.664703	0.792193	city	1	1	0.645706	0.645706	0	1	0	0	CorrectCommission	0.259358	0.897758	0	0
149.456940	0.792267	city	9	1	0.666215	0.666215	0	1	0	0	CorrectCommission	0.050237	0.953479	0	0
150.249207	0.792267	city	10	1	0.556144	0.556144	0	1	0	0	CorrectCommission	1.172595	1.008985	0	0
151.041565	0.792472	city	7	1	0.509244	0.509244	0	1	0	0	CorrectCommission	1.650817	1.059181	0	0
151.833832	0.792050	city	3	1	0.452778	0.452778	0	1	0	0	CorrectCommission	2.226574	1.099382	0	0
152.625992	0.792265	city	1	1	0.497201	0.497201	0	1	0	0	CorrectCommission	1.773608	1.125901	0	0
153.418243	0.792261	city	10	1	0.447762	0.447762	0	1	0	0	CorrectCommission	2.277720	1.136518	0	0
154.210571	0.792375	city	5	1	0.451935	0.451935	0	1	0	0	CorrectCommission	2.235172	1.130720	0	0
155.002945	0.792372	city	2	1	0.645627	0.645627	0	1	0	0	CorrectCommission	0.260165	1.109696	0	0
155.795151	0.792048	city	10	1	0.610078	0.610078	0	1	0	0	CorrectCommission	0.622645	1.076095	0	0
156.587311	0.792266	city	7	1	0.546940	0.546940	0	1	0	0	CorrectCommission	1.266440	1.033523	0	0
157.379593	0.792303	city	9	1	0.513827	0.513827	0	1	0	0	CorrectCommission	1.604081	0.986040	0	0
158.171860	0.792224	city	5	1	0.646157	0.646157	0	1	0	0	CorrectCommission	0.254759	0.937646	0	0
158.964157	0.792373	city	3	1	0.645893	0.645893	0	1	0	0	CorrectCommission	0.257457	0.891870	0	0
159.756454	0.792220	city	1	1	0.645684	0.645684	0	1	0	0	CorrectCommission	0.259583	0.851458	0	0
160.548660	0.792204	city	6	1	0.596311	0.596311	0	1	0	0	CorrectCommission	0.763019	0.818285	0	0
161.340897	0.792265	city	5	1	0.561185	0.561185	0	1	0	0	CorrectCommission	1.121189	0.793427	0	0
162.133179	0.792295	city	8	1	0.598526	0.598526	0	1	0	0	CorrectCommission	0.740439	0.777315	0	0
162.925491	0.792339	city	7	1	0.596171	0.596171	0	1	0	0	CorrectCommission	0.764447	0.769945	0	0
163.717804	0.792265	city	6	1	0.610086	0.610086	0	1	0	0	CorrectCommission	0.622564	0.771031	0	0
164.510010	0.792158	city	8	1	0.565027	0.565027	0	1	0	0	CorrectCommission	1.082013	0.780128	0	0
165.302277	0.792377	city	10	1	0.596234	0.596234	0	1	0	0	CorrectCommission	0.763813	0.796626	0	0
166.094543	0.792152	city	2	1	0.599939	0.599939	0	1	0	0	CorrectCommission	0.726031	0.819704	0	0
166.886749	0.792261	city	7	1	0.655413	0.655413	0	1	0	0	CorrectCommission	0.160386	0.848198	0	0
167.679077	0.792376	city	2	1	0.646157	0.646157	0	1	0	0	CorrectCommission	0.254761	0.880527	0	0
168.471329	0.792154	city	8	1	0.597886	0.597886	0	1	0	0	CorrectCommission	0.746962	0.914655	0	0
169.263550	0.792266	city	3	1	0.546872	0.546872	0	1	0	0	CorrectCommission	1.267137	0.948194	0	0
170.055862	0.792374	city	7	1	0.546690	0.546690	0	1	0	0	CorrectCommission	1.268996	0.978605	0	0
170.848160	0.792219	city	5	1	0.546587	0.546587	0	1	0	0	CorrectCommission	1.270043	1.003481	0	0
171.640366	0.792203	city	2	1	0.546654	0.546654	0	1	0	0	CorrectCommission	1.269360	1.020872	0	0
172.432617	0.792296	city	8	1	0.546689	0.546689	0	1	0	0	CorrectCommission	1.269003	1.029606	0	0
173.224991	0.792449	city	2	1	0.497229	0.497229	0	1	0	0	CorrectCommission	1.773325	1.029463	0	0
174.017242	0.792046	city	9	1	0.508963	0.508963	0	1	0	0	CorrectCommission	1.653684	1.021219	0	0
174.809402	0.792265	city	5	1	0.596378	0.596378	0	1	0	0	CorrectCommission	0.762342	1.006553	0	0
175.601654	0.792266	city	10	1	0.596272	0.596272	0	1	0	0	CorrectCommission	0.763425	0.987834	0	0
176.393936	0.792271	city	6	1	0.611329	0.611329	0	1	0	0	CorrectCommission	0.609894	0.967688	0	0
177.186249	0.792367	city	5	1	0.596254	0.596254	0	1	0	0	CorrectCommission	0.763606	0.948622	0	0
177.978546	0.792234	city	6	1	0.616784	0.616784	0	1	0	0	CorrectCommission	0.554273	0.932612	0	0
178.770752	0.792187	city	9	1	0.562933	0.562933	0	1	0	0	CorrectCommission	1.103365	0.920814	0	0
179.563019	0.792329	city	7	1	0.596243	0.596243	0	1	0	0	CorrectCommission	0.763720	0.913341	0	0
180.355331	0.792310	city	8	1	0.596221	0.596221	0	1	0	0	CorrectCommission	0.763942	0.909271	0	0
181.147629	0.792266	city	5	1	0.596130	0.596130	0	1	0	0	CorrectCommission	0.764868	0.906755	0	0
181.939896	0.792272	city	8	1	0.695157	0.695157	0	1	0	0	CorrectCommission	0.244876	0.903290	0	0
182.732101	0.792150	mountain	2	0	0.000000	0.745287	1	0	0	0	CorrectOmission	0.756027	0.896130	0	0
183.524307	0.792265	city	5	1	0.795280	0.795280	0	1	0	0	CorrectCommission	1.265786	0.882697	0	0
184.316574	0.792264	city	7	1	0.893897	0.893897	0	1	0	0	CorrectCommission	2.271353	0.861038	0	0
185.108856	0.792299	city	6	1	0.843822	0.843822	0	1	0	0	CorrectCommission	1.760759	0.830138	0	0
185.901169	0.792336	city	2	1	0.761465	0.761465	0	1	0	0	CorrectCommission	0.920994	0.790125	0	0
186.693451	0.792221	city	3	1	0.744891	0.744891	0	1	0	0	CorrectCommission	0.751988	0.742268	0	1
187.485779	0.792417	city	9	1	0.695204	0.695204	0	1	0	0	CorrectCommission	0.245348	0.688756	1	1
188.278061	0.792156	city	3	1	0.612314	0.612314	0	1	0	0	CorrectCommission	0.599848	0.632418	1	1
189.070282	0.792292	city	5	1	0.695800	0.695800	0	1	0	0	CorrectCommission	0.251425	0.576331	1	1
189.862488	0.792129	city	1	1	0.657531	0.657531	0	1	0	0	CorrectCommission	0.138782	0.523487	1	1
190.654694	0.792268	city	7	1	0.646132	0.646132	0	1	0	0	CorrectCommission	0.255015	0.476477	1	1
191.446991	0.792316	city	6	1	0.645887	0.645887	0	1	0	0	CorrectCommission	0.257511	0.437342	1	1
192.239243	0.792209	city	9	1	0.646047	0.646047	0	1	0	0	CorrectCommission	0.255885	0.407526	1	1
193.031479	0.792266	mountain	6	0	0.000000	0.708666	1	0	0	0	CorrectOmission	0.382624	0.387899	1	1
193.823746	0.792267	city	2	1	0.745239	0.745239	0	1	0	0	CorrectCommission	0.755541	0.378835	1	1
194.616119	0.792479	city	6	1	0.667257	0.667257	0	1	0	0	CorrectCommission	0.039612	0.380295	1	1
195.408493	0.792264	city	3	1	0.659929	0.659929	0	1	0	0	CorrectCommission	0.114332	0.391920	1	1
196.200668	0.792085	city	6	1	0.698248	0.698248	0	1	0	0	CorrectCommission	0.276390	0.413026	1	1
196.992828	0.792229	city	9	1	0.695237	0.695237	0	1	0	0	CorrectCommission	0.245690	0.442639	1	1
197.785080	0.792263	city	4	1	0.645825	0.645825	0	1	0	0	CorrectCommission	0.258146	0.479495	1	1
198.577362	0.792305	city	3	1	0.695280	0.695280	0	1	0	0	CorrectCommission	0.246123	0.522039	1	1
199.369629	0.792224	city	9	1	0.617552	0.617552	0	1	0	0	CorrectCommission	0.546435	0.568514	1	1
200.161865	0.792270	city	6	1	0.603042	0.603042	0	1	0	0	CorrectCommission	0.694393	0.617035	1	1
200.954208	0.792422	mountain	6	0	0.000000	0.715165	1	0	0	0	CorrectOmission	0.448883	0.665717	1	1
201.746475	0.792103	city	2	1	0.810338	0.810338	0	1	0	0	CorrectCommission	1.419331	0.712829	1	1
202.538666	0.792269	city	5	1	0.744979	0.744979	0	1	0	0	CorrectCommission	0.752888	0.756894	0	1
203.330933	0.792263	city	3	1	0.745191	0.745191	0	1	0	0	CorrectCommission	0.755052	0.796820	0	1
204.123199	0.792265	city	5	1	0.804035	0.804035	0	1	0	0	CorrectCommission	1.355065	0.831856	0	1
204.915466	0.792265	city	7	1	0.794987	0.794987	0	1	0	0	CorrectCommission	1.262804	0.861524	0	1
205.707779	0.792369	city	8	1	0.745105	0.745105	0	1	0	0	CorrectCommission	0.754173	0.885533	0	1
206.500076	0.792218	mountain	6	0	0.000000	0.724801	1	0	0	0	CorrectOmission	0.547147	0.903617	0	1
207.292282	0.792208	mountain	3	0	0.000000	0.727246	1	0	0	0	CorrectOmission	0.572069	0.915428	0	1
208.084549	0.792311	city	5	1	0.745606	0.745606	0	1	0	0	CorrectCommission	0.759286	0.920491	0	1
208.876801	0.792215	mountain	6	0	0.000000	0.773052	1	0	0	0	CorrectOmission	1.039142	0.918253	0	1
209.669159	0.792481	city	7	1	0.794329	0.794329	0	1	0	0	CorrectCommission	1.256091	0.908232	0	1
210.461426	0.792072	city	2	1	0.794181	0.794181	0	1	0	0	CorrectCommission	1.254588	0.890203	0	1
211.253586	0.792238	mountain	10	0	0.000000	0.805957	1	0	0	0	CorrectOmission	1.374658	0.864398	0	1
212.045853	0.792283	city	6	1	0.812778	0.812778	0	1	0	0	CorrectCommission	1.444211	0.831678	0	1
212.838120	0.792278	city	9	1	0.797768	0.797768	0	1	0	0	CorrectCommission	1.291158	0.793522	0	1
213.630402	0.792268	city	4	1	0.662959	0.662959	0	1	0	0	CorrectCommission	0.083437	0.751994	0	1
214.422699	0.792341	mountain	6	0	0.000000	0.703441	1	0	0	0	CorrectOmission	0.329347	0.709583	1	1
215.214951	0.792156	city	6	1	0.755525	0.755525	0	1	0	0	CorrectCommission	0.860428	0.668905	1	1
216.007217	0.792372	city	10	1	0.655522	0.655522	0	1	0	0	CorrectCommission	0.159275	0.632456	1	1
216.799515	0.792216	city	2	1	0.695431	0.695431	0	1	0	0	CorrectCommission	0.247665	0.602385	1	1
217.591721	0.792211	city	3	1	0.709364	0.709364	0	1	0	0	CorrectCommission	0.389738	0.580313	1	1
218.383957	0.792259	city	9	1	0.645763	0.645763	0	1	0	0	CorrectCommission	0.258781	0.567262	1	1
219.176224	0.792272	city	7	1	0.605660	0.605660	0	1	0	0	CorrectCommission	0.667695	0.563646	1	1
219.968536	0.792365	mountain	2	0	0.000000	0.709180	1	0	0	0	CorrectOmission	0.387865	0.569317	1	1
220.760864	0.792266	city	2	1	0.794228	0.794228	0	1	0	0	CorrectCommission	1.255063	0.583642	1	1
221.553070	0.792157	city	8	1	0.698706	0.698706	0	1	0	0	CorrectCommission	0.281065	0.605539	1	1
222.345276	0.792266	city	5	1	0.706319	0.706319	0	1	0	0	CorrectCommission	0.358690	0.633590	1	1
223.137543	0.792263	city	8	1	0.700003	0.700003	0	1	0	0	CorrectCommission	0.294288	0.666050	1	1
223.929810	0.792268	city	9	1	0.699574	0.699574	0	1	0	0	CorrectCommission	0.289909	0.700939	1	1
224.722137	0.792368	city	3	1	0.596245	0.596245	0	1	0	0	CorrectCommission	0.763702	0.736169	0	1
225.514389	0.792159	city	5	1	0.596304	0.596304	0	1	0	0	CorrectCommission	0.763099	0.769648	0	1
226.306610	0.792264	mountain	8	0	0.000000	0.775803	1	0	0	0	CorrectOmission	1.067194	0.799530	0	1
227.098984	0.792480	city	6	1	0.893340	0.893340	0	1	0	0	CorrectCommission	2.265675	0.824338	0	1
227.891235	0.792052	city	7	1	0.707511	0.707511	0	1	0	0	CorrectCommission	0.370843	0.843160	0	1
228.683395	0.792266	mountain	1	0	0.000000	0.714031	1	0	0	0	CorrectOmission	0.437326	0.855782	0	1
229.475723	0.792368	city	2	1	0.794512	0.794512	0	1	0	0	CorrectCommission	1.257958	0.862587	0	1
230.267975	0.792156	mountain	3	0	0.000000	0.830565	1	0	0	0	CorrectOmission	1.625575	0.864476	0	1
231.060242	0.792373	city	7	1	0.794308	0.794308	0	1	0	0	CorrectCommission	1.255880	0.862707	0	1
231.852539	0.792219	city	10	1	0.657861	0.657861	0	1	0	0	CorrectCommission	0.135426	0.858645	0	1
232.644775	0.792244	city	1	1	0.695219	0.695219	0	1	0	0	CorrectCommission	0.245505	0.853497	0	1
233.437012	0.792224	city	6	1	0.646749	0.646749	0	1	0	0	CorrectCommission	0.248728	0.848114	0	1
234.229248	0.792265	city	2	1	0.758530	0.758530	0	1	0	0	CorrectCommission	0.891064	0.842900	0	1
235.021576	0.792373	city	9	1	0.794455	0.794455	0	1	0	0	CorrectCommission	1.257382	0.837829	0	1
235.813950	0.792374	city	2	1	0.744816	0.744816	0	1	0	0	CorrectCommission	0.751227	0.832541	0	1
236.606155	0.792049	city	4	1	0.805227	0.805227	0	1	0	0	CorrectCommission	1.367217	0.826531	0	1
237.398315	0.792264	city	5	1	0.794621	0.794621	0	1	0	0	CorrectCommission	1.259068	0.819312	0	1
238.190689	0.792480	city	7	1	0.748051	0.748051	0	1	0	0	CorrectCommission	0.784215	0.810561	0	1
238.983002	0.792158	city	8	1	0.695031	0.695031	0	1	0	0	CorrectCommission	0.243585	0.800220	0	1
239.775162	0.792160	city	2	1	0.796614	0.796614	0	1	0	0	CorrectCommission	1.279388	0.788488	0	1
240.567368	0.792259	city	6	1	0.662329	0.662329	0	1	0	0	CorrectCommission	0.089861	0.775721	0	1
241.359634	0.792266	city	10	1	0.555814	0.555814	0	1	0	0	CorrectCommission	1.175956	0.762430	0	1
242.152008	0.792482	city	3	1	0.645744	0.645744	0	1	0	0	CorrectCommission	0.258975	0.749048	0	1
242.944275	0.792051	city	10	1	0.550696	0.550696	0	1	0	0	CorrectCommission	1.228148	0.735957	0	1
243.736420	0.792260	city	2	1	0.561934	0.561934	0	1	0	0	CorrectCommission	1.113555	0.723318	0	1
244.528717	0.792335	city	4	1	0.645889	0.645889	0	1	0	0	CorrectCommission	0.257500	0.711099	1	1
245.321014	0.792259	city	1	1	0.645720	0.645720	0	1	0	0	CorrectCommission	0.259215	0.699112	1	1
246.113358	0.792419	city	4	1	0.709904	0.709904	0	1	0	0	CorrectCommission	0.395246	0.687011	1	0
246.905594	0.792051	city	2	1	0.794660	0.794660	0	1	0	0	CorrectCommission	1.259473	0.674390	1	0
247.697754	0.792263	city	7	1	0.759728	0.759728	0	1	0	0	CorrectCommission	0.903278	0.660879	1	0
248.490021	0.792268	city	8	1	0.744762	0.744762	0	1	0	0	CorrectCommission	0.750674	0.646281	1	0
249.282333	0.792367	mountain	3	1	0.697402	0.697402	0	0	1	0	CommissionError	0.267762	0.630636	1	0
250.074600	0.792157	city	4	1	0.795057	0.795057	0	1	0	0	CorrectCommission	1.263516	0.614226	1	0
250.866821	0.792297	city	9	1	0.699013	0.699013	0	1	0	0	CorrectCommission	0.284193	0.597545	1	0
251.659088	0.792233	city	1	1	0.707349	0.707349	0	1	0	0	CorrectCommission	0.369188	0.581268	1	0
252.451447	0.792488	city	4	1	0.744771	0.744771	0	1	0	0	CorrectCommission	0.750769	0.566081	1	0
253.243713	0.792041	city	8	1	0.610612	0.610612	0	1	0	0	CorrectCommission	0.617202	0.552609	1	0
254.035873	0.792266	city	5	1	0.648060	0.648060	0	1	0	0	CorrectCommission	0.235353	0.541297	1	0
254.828247	0.792481	city	3	1	0.705162	0.705162	0	1	0	0	CorrectCommission	0.346891	0.532345	1	0
255.620529	0.792088	city	7	1	0.695051	0.695051	0	1	0	0	CorrectCommission	0.243795	0.525668	1	0
256.412781	0.792442	city	5	1	0.596241	0.596241	0	1	0	0	CorrectCommission	0.763742	0.520989	1	0
257.205048	0.792048	city	3	1	0.645603	0.645603	0	1	0	0	CorrectCommission	0.260415	0.517868	1	0
257.997253	0.792372	city	4	1	0.596210	0.596210	0	1	0	0	CorrectCommission	0.764052	0.515905	1	0
258.789520	0.792156	city	6	1	0.645662	0.645662	0	1	0	0	CorrectCommission	0.259808	0.514804	1	0
259.581787	0.792373	city	8	1	0.550005	0.550005	0	1	0	0	CorrectCommission	1.235188	0.514550	1	0
260.374054	0.792204	city	5	1	0.596107	0.596107	0	1	0	0	CorrectCommission	0.765099	0.515387	1	0
261.166382	0.792434	mountain	4	0	0.000000	0.634198	1	0	0	0	CorrectOmission	0.376704	0.517867	1	0
261.958618	0.792048	city	10	1	0.654113	0.654113	0	1	0	0	CorrectCommission	0.173636	0.522736	1	0
262.750793	0.792266	city	4	1	0.645690	0.645690	0	1	0	0	CorrectCommission	0.259528	0.530781	1	0
263.543091	0.792373	city	9	1	0.646440	0.646440	0	1	0	0	CorrectCommission	0.251878	0.542655	1	0
264.335388	0.792218	city	3	1	0.613945	0.613945	0	1	0	0	CorrectCommission	0.583214	0.558697	1	0
265.127594	0.792205	city	1	1	0.646433	0.646433	0	1	0	0	CorrectCommission	0.251947	0.578828	1	0
265.919891	0.792369	city	7	1	0.761522	0.761522	0	1	0	0	CorrectCommission	0.921572	0.602495	1	0
266.712158	0.792160	city	10	1	0.745030	0.745030	0	1	0	0	CorrectCommission	0.753410	0.628633	1	0
267.504364	0.792261	city	7	1	0.695412	0.695412	0	1	0	0	CorrectCommission	0.247470	0.655746	1	0
268.296631	0.792270	city	10	1	0.606209	0.606209	0	1	0	0	CorrectCommission	0.662098	0.682042	1	0
269.088928	0.792306	mountain	10	0	0.000000	0.568774	1	0	0	0	CorrectOmission	1.043809	0.705543	1	0
269.881195	0.792217	city	8	1	0.596247	0.596247	0	1	0	0	CorrectCommission	0.763672	0.724290	0	0
270.673523	0.792485	mountain	7	0	0.000000	0.701770	1	0	0	0	CorrectOmission	0.312302	0.736555	0	0
271.465851	0.792154	city	2	1	0.797194	0.797194	0	1	0	0	CorrectCommission	1.285306	0.741017	0	0
272.258026	0.792161	city	6	1	0.794372	0.794372	0	1	0	0	CorrectCommission	1.256534	0.736883	0	0
273.050323	0.792477	mountain	8	0	0.000000	0.785158	1	0	0	0	CorrectOmission	1.162586	0.724014	0	0
273.842590	0.792050	mountain	9	0	0.000000	0.769310	1	0	0	0	CorrectOmission	1.000981	0.702920	1	0
274.634766	0.792264	city	4	1	0.746582	0.746582	0	1	0	0	CorrectCommission	0.769237	0.674705	1	0
275.427002	0.792265	mountain	6	0	0.000000	0.716733	1	0	0	0	CorrectOmission	0.464874	0.640913	1	0
276.219299	0.792333	city	1	1	0.695290	0.695290	0	1	0	0	CorrectCommission	0.246232	0.603388	1	0
277.011566	0.792199	city	4	1	0.697783	0.697783	0	1	0	0	CorrectCommission	0.271650	0.564047	1	0
277.803925	0.792480	mountain	5	0	0.000000	0.736891	1	0	0	0	CorrectOmission	0.670416	0.524738	1	0
278.596222	0.792099	city	1	1	0.745141	0.745141	0	1	0	0	CorrectCommission	0.754537	0.487133	1	0
279.388367	0.792219	city	9	1	0.655060	0.655060	0	1	0	0	CorrectCommission	0.163977	0.452669	1	0
280.180634	0.792290	city	2	1	0.649647	0.649647	0	1	0	0	CorrectCommission	0.219173	0.422551	1	0
280.972900	0.792287	city	1	1	0.608729	0.608729	0	1	0	0	CorrectCommission	0.636398	0.397742	1	0
281.765167	0.792211	city	2	1	0.695166	0.695166	0	1	0	0	CorrectCommission	0.244963	0.378998	1	0
282.557404	0.792266	city	1	1	0.648082	0.648082	0	1	0	0	CorrectCommission	0.235132	0.366917	1	0
283.349670	0.792265	city	3	1	0.695453	0.695453	0	1	0	0	CorrectCommission	0.247892	0.361893	1	0
284.142029	0.792480	mountain	6	0	0.000000	0.668965	1	0	0	0	CorrectOmission	0.022202	0.364131	1	0
284.934418	0.792264	city	3	1	0.647186	0.647186	0	1	0	0	CorrectCommission	0.244266	0.373620	1	0
285.726562	0.792056	city	7	1	0.708688	0.708688	0	1	0	0	CorrectCommission	0.382846	0.390045	1	0
286.518738	0.792259	city	6	1	0.645904	0.645904	0	1	0	0	CorrectCommission	0.257346	0.412792	1	0
287.311035	0.792371	city	1	1	0.596293	0.596293	0	1	0	0	CorrectCommission	0.763204	0.440953	1	0
288.103302	0.792155	city	9	1	0.695139	0.695139	0	1	0	0	CorrectCommission	0.244687	0.473335	1	0
288.895508	0.792268	city	10	1	0.645729	0.645729	0	1	0	0	CorrectCommission	0.259131	0.508566	1	0
289.687775	0.792261	mountain	4	0	0.000000	0.654010	1	0	0	0	CorrectOmission	0.174690	0.545228	1	0
290.480042	0.792268	city	4	1	0.645743	0.645743	0	1	0	0	CorrectCommission	0.258981	0.582068	1	0
291.272339	0.792293	city	8	1	0.546690	0.546690	0	1	0	0	CorrectCommission	1.268996	0.618250	1	0
292.064606	0.792273	city	3	1	0.550901	0.550901	0	1	0	0	CorrectCommission	1.226049	0.653581	1	0
292.856873	0.792227	city	2	1	0.596341	0.596341	0	1	0	0	CorrectCommission	0.762715	0.688740	1	0
293.649109	0.792263	city	6	1	0.564040	0.564040	0	1	0	0	CorrectCommission	1.092075	0.725380	0	0
294.441376	0.792266	city	2	1	0.599301	0.599301	0	1	0	0	CorrectCommission	0.732532	0.766076	0	0
295.233673	0.792339	city	7	1	0.596660	0.596660	0	1	0	0	CorrectCommission	0.759469	0.814174	0	0
296.026001	0.792299	city	2	1	0.706905	0.706905	0	1	0	0	CorrectCommission	0.364664	0.873413	0	0
296.818207	0.792158	mountain	5	0	0.000000	0.730469	1	0	0	0	CorrectOmission	0.604937	0.947459	0	0
297.610413	0.792264	city	7	1	0.699415	0.699415	0	1	0	0	CorrectCommission	0.288288	1.039299	0	0
298.402679	0.792263	city	3	1	0.645805	0.645805	0	1	0	0	CorrectCommission	0.258350	1.150648	0	0
299.194977	0.792300	city	5	1	0.546857	0.546857	0	1	0	0	CorrectCommission	1.267286	1.281423	0	0
299.987244	0.792229	city	3	1	0.498263	0.498263	0	1	0	0	CorrectCommission	1.762787	1.429292	0	0
300.779480	0.792266	city	5	1	0.607830	0.607830	0	1	0	0	CorrectCommission	0.645567	1.589514	0	0
301.571869	0.792482	city	1	1	0.553448	0.553448	0	1	0	0	CorrectCommission	1.200083	1.755040	0	0
302.364136	0.792050	city	6	1	0.507207	0.507207	0	1	0	0	CorrectCommission	1.671583	1.916839	0	0
303.156281	0.792265	city	4	1	0.497356	0.497356	0	1	0	0	CorrectCommission	1.772034	2.064713	0	0
303.948578	0.792317	city	1	1	0.447615	0.447615	0	1	0	0	CorrectCommission	2.279227	2.188287	0	0
304.740845	0.792211	city	9	1	0.360371	0.360371	0	1	0	0	CorrectCommission	3.168823	2.278227	0	0
305.533112	0.792313	city	1	1	1.042439	1.042439	0	1	0	0	CorrectCommission	3.785982	2.327476	0	1
306.325409	0.792285	city	2	1	1.149782	1.149782	0	1	0	0	CorrectCommission	4.880517	2.332280	0	1
307.117645	0.792201	city	8	1	1.190811	1.190811	0	1	0	0	CorrectCommission	5.298874	2.292795	0	1
307.909882	0.792300	mountain	4	0	0.000000	1.073748	1	0	0	0	CorrectOmission	4.105229	2.213163	0	1
308.702148	0.792225	city	4	1	0.893447	0.893447	0	1	0	0	CorrectCommission	2.266765	2.100941	0	1
309.494507	0.792482	city	2	1	0.744761	0.744761	0	1	0	0	CorrectCommission	0.750663	1.966027	0	1
310.286774	0.792046	city	7	1	0.695098	0.695098	0	1	0	0	CorrectCommission	0.244271	1.819229	0	1
311.078918	0.792265	city	2	1	0.645682	0.645682	0	1	0	0	CorrectCommission	0.259609	1.670761	0	1
311.871185	0.792268	city	8	1	0.646326	0.646326	0	1	0	0	CorrectCommission	0.253036	1.529007	0	1
312.663452	0.792264	city	3	1	0.605667	0.605667	0	1	0	0	CorrectCommission	0.667623	1.399712	0	1
313.455841	0.792481	city	10	1	0.596260	0.596260	0	1	0	0	CorrectCommission	0.763539	1.285725	0	1
314.248108	0.792049	city	9	1	0.508770	0.508770	0	1	0	0	CorrectCommission	1.655653	1.187270	0	1
315.040283	0.792303	city	2	1	0.497342	0.497342	0	1	0	0	CorrectCommission	1.772179	1.102616	0	1
315.832550	0.792226	city	9	1	0.497439	0.497439	0	1	0	0	CorrectCommission	1.771182	1.028950	0	1
316.624786	0.792265	mountain	9	0	0.000000	0.539130	1	0	0	0	CorrectOmission	1.346076	0.963225	0	1
317.417114	0.792371	city	1	1	0.646519	0.646519	0	1	0	0	CorrectCommission	0.251070	0.902859	0	1
318.209351	0.792156	city	6	1	0.843711	0.843711	0	1	0	0	CorrectCommission	1.759625	0.846172	0	1
319.001587	0.792267	city	8	1	0.645813	0.645813	0	1	0	0	CorrectCommission	0.258265	0.792410	0	1
319.793854	0.792308	city	10	1	0.645952	0.645952	0	1	0	0	CorrectCommission	0.256854	0.741728	0	1
320.586182	0.792327	city	1	1	0.707103	0.707103	0	1	0	0	CorrectCommission	0.366683	0.694804	1	1
321.378448	0.792199	city	6	1	0.695172	0.695172	0	1	0	0	CorrectCommission	0.245028	0.652546	1	1
322.170654	0.792221	city	7	1	0.596472	0.596472	0	1	0	0	CorrectCommission	0.761387	0.615733	1	1
322.962921	0.792303	city	8	1	0.597315	0.597315	0	1	0	0	CorrectCommission	0.752787	0.584826	1	1
323.755219	0.792285	city	2	1	0.695215	0.695215	0	1	0	0	CorrectCommission	0.245460	0.559902	1	1
324.547577	0.792425	city	8	1	0.695188	0.695188	0	1	0	0	CorrectCommission	0.245185	0.540706	1	1
325.339813	0.792050	city	3	1	0.752535	0.752535	0	1	0	0	CorrectCommission	0.829935	0.526770	1	1
326.131989	0.792307	city	9	1	0.744950	0.744950	0	1	0	0	CorrectCommission	0.752593	0.517549	1	1
326.924286	0.792329	mountain	2	0	0.000000	0.718612	1	0	0	0	CorrectOmission	0.484032	0.512598	1	1
327.716553	0.792156	city	1	1	0.695326	0.695326	0	1	0	0	CorrectCommission	0.246596	0.511656	1	1
328.508759	0.792268	city	2	1	0.696898	0.696898	0	1	0	0	CorrectCommission	0.262626	0.514664	1	1
329.301025	0.792261	city	3	1	0.701349	0.701349	0	1	0	0	CorrectCommission	0.308007	0.521724	1	1
330.093384	0.792481	city	10	1	0.805051	0.805051	0	1	0	0	CorrectCommission	1.365419	0.532986	1	1
330.885712	0.792156	city	5	1	0.708495	0.708495	0	1	0	0	CorrectCommission	0.380871	0.548488	1	1
331.677856	0.792155	city	9	1	0.695169	0.695169	0	1	0	0	CorrectCommission	0.244996	0.568017	1	1
332.470123	0.792372	city	8	1	0.647564	0.647564	0	1	0	0	CorrectCommission	0.240413	0.590930	1	1
333.262390	0.792163	city	7	1	0.695198	0.695198	0	1	0	0	CorrectCommission	0.245288	0.616065	1	1
334.054657	0.792368	city	9	1	0.695339	0.695339	0	1	0	0	CorrectCommission	0.246724	0.641766	1	1
334.846924	0.792157	city	5	1	0.598722	0.598722	0	1	0	0	CorrectCommission	0.738435	0.665982	1	1
335.639130	0.792267	city	2	1	0.750139	0.750139	0	1	0	0	CorrectCommission	0.805504	0.686422	1	1
336.431396	0.792262	city	9	1	0.893489	0.893489	0	1	0	0	CorrectCommission	2.267192	0.700883	1	1
337.223663	0.792265	city	1	1	0.745222	0.745222	0	1	0	0	CorrectCommission	0.755370	0.707460	1	1
338.015930	0.792262	city	9	1	0.695921	0.695921	0	1	0	0	CorrectCommission	0.252663	0.704894	1	1
338.808289	0.792483	city	10	1	0.646025	0.646025	0	1	0	0	CorrectCommission	0.256110	0.692713	1	1
339.600555	0.792045	city	1	1	0.795049	0.795049	0	1	0	0	CorrectCommission	1.263434	0.671332	1	1
340.392822	0.792484	city	9	1	0.843802	0.843802	0	1	0	0	CorrectCommission	1.760557	0.642087	1	1
341.185089	0.792053	city	8	1	0.744561	0.744561	0	1	0	0	CorrectCommission	0.748624	0.607127	1	1
341.977295	0.792316	city	10	1	0.695234	0.695234	0	1	0	0	CorrectCommission	0.245659	0.569238	1	1
342.769531	0.792209	city	9	1	0.645670	0.645670	0	1	0	0	CorrectCommission	0.259729	0.531526	1	1
343.561768	0.792268	city	2	1	0.700094	0.700094	0	1	0	0	CorrectCommission	0.295210	0.497091	1	1
344.354126	0.792396	city	9	1	0.657574	0.657574	0	1	0	0	CorrectCommission	0.138348	0.468693	1	1
345.146393	0.792150	city	4	1	0.660645	0.660645	0	1	0	0	CorrectCommission	0.107038	0.448470	1	1
345.938629	0.792354	city	9	1	0.649589	0.649589	0	1	0	0	CorrectCommission	0.219762	0.437711	1	1
346.730988	0.792373	city	5	1	0.658039	0.658039	0	1	0	0	CorrectCommission	0.133609	0.436745	1	1
347.523254	0.792154	city	2	1	0.707080	0.707080	0	1	0	0	CorrectCommission	0.366443	0.444919	1	1
348.315460	0.792265	city	10	1	0.656899	0.656899	0	1	0	0	CorrectCommission	0.145231	0.460737	1	1
349.107697	0.792198	city	7	1	0.744689	0.744689	0	1	0	0	CorrectCommission	0.749931	0.482043	1	1
349.899933	0.792266	city	6	1	0.649871	0.649871	0	1	0	0	CorrectCommission	0.216897	0.506249	1	1
350.692200	0.792267	mountain	7	0	0.000000	0.714613	1	0	0	0	CorrectOmission	0.443260	0.530649	1	1
351.484497	0.792330	city	4	1	0.794396	0.794396	0	1	0	0	CorrectCommission	1.256777	0.552653	1	1
352.276855	0.792373	city	2	1	0.744698	0.744698	0	1	0	0	CorrectCommission	0.750028	0.570028	1	1
353.069061	0.792046	city	3	1	0.745253	0.745253	0	1	0	0	CorrectCommission	0.755682	0.581118	1	1
353.861237	0.792271	city	8	1	0.744807	0.744807	0	1	0	0	CorrectCommission	0.751133	0.584895	1	1
354.653595	0.792477	city	10	1	0.695400	0.695400	0	1	0	0	CorrectCommission	0.247347	0.581044	1	1
355.445862	0.792051	city	6	1	0.808395	0.808395	0	1	0	0	CorrectCommission	1.399524	0.569942	1	1
356.238037	0.792280	city	5	1	0.711814	0.711814	0	1	0	0	CorrectCommission	0.414720	0.552541	1	1
357.030304	0.792257	city	9	1	0.647403	0.647403	0	1	0	0	CorrectCommission	0.242055	0.530308	1	1
357.822540	0.792255	city	3	1	0.596398	0.596398	0	1	0	0	CorrectCommission	0.762138	0.505061	1	1
358.614929	0.792481	city	8	1	0.596258	0.596258	0	1	0	0	CorrectCommission	0.763567	0.478809	1	1
359.407196	0.792049	city	6	1	0.655462	0.655462	0	1	0	0	CorrectCommission	0.159882	0.453645	1	1
360.199341	0.792269	mountain	1	0	0.000000	0.687792	1	0	0	0	CorrectOmission	0.169772	0.431597	1	1
360.991608	0.792263	city	6	1	0.702670	0.702670	0	1	0	0	CorrectCommission	0.321483	0.414473	1	1
361.783875	0.792277	city	9	1	0.709521	0.709521	0	1	0	0	CorrectCommission	0.391341	0.403760	1	1
362.576141	0.792252	city	10	1	0.665157	0.665157	0	1	0	0	CorrectCommission	0.061028	0.400500	1	1
363.368408	0.792266	city	8	1	0.709397	0.709397	0	1	0	0	CorrectCommission	0.390076	0.405231	1	1
364.160706	0.792368	city	7	1	0.695260	0.695260	0	1	0	0	CorrectCommission	0.245921	0.417926	1	1
364.952972	0.792157	city	9	1	0.645800	0.645800	0	1	0	0	CorrectCommission	0.258401	0.438005	1	0
365.745178	0.792267	city	1	1	0.653249	0.653249	0	1	0	0	CorrectCommission	0.182444	0.464336	1	0
366.537445	0.792268	city	2	1	0.695383	0.695383	0	1	0	0	CorrectCommission	0.247177	0.495329	1	0
367.329712	0.792259	city	6	1	0.747688	0.747688	0	1	0	0	CorrectCommission	0.780517	0.529065	1	0
368.122009	0.792299	city	8	1	0.745873	0.745873	0	1	0	0	CorrectCommission	0.762003	0.563443	1	0
368.914368	0.792447	city	4	1	0.745232	0.745232	0	1	0	0	CorrectCommission	0.755468	0.596372	1	0
369.706635	0.792046	city	6	1	0.645538	0.645538	0	1	0	0	CorrectCommission	0.261078	0.625962	1	0
370.498901	0.792483	city	8	1	0.603692	0.603692	0	1	0	0	CorrectCommission	0.687767	0.650716	1	0
371.291168	0.792050	city	6	1	0.563097	0.563097	0	1	0	0	CorrectCommission	1.101695	0.669643	1	0
372.083405	0.792479	city	5	1	0.563732	0.563732	0	1	0	0	CorrectCommission	1.095224	0.682331	1	0
372.875671	0.792055	mountain	5	1	0.497865	0.497865	0	0	1	0	CommissionError	1.766841	0.688981	1	0
373.667847	0.792260	city	9	1	0.695265	0.695265	0	1	0	0	CorrectCommission	0.245973	0.690346	1	0
374.460114	0.792264	city	8	1	0.657710	0.657710	0	1	0	0	CorrectCommission	0.136956	0.687691	1	0
375.252380	0.792262	city	7	1	0.698092	0.698092	0	1	0	0	CorrectCommission	0.274802	0.682522	1	0
376.044647	0.792310	city	4	1	0.745369	0.745369	0	1	0	0	CorrectCommission	0.756871	0.676515	1	0
376.837036	0.792440	city	7	1	0.794259	0.794259	0	1	0	0	CorrectCommission	1.255375	0.671330	1	0
377.629272	0.792049	city	2	1	0.645540	0.645540	0	1	0	0	CorrectCommission	0.261057	0.668525	1	0
378.421448	0.792297	city	5	1	0.645817	0.645817	0	1	0	0	CorrectCommission	0.258229	0.669491	1	0
379.213745	0.792291	city	10	1	0.596255	0.596255	0	1	0	0	CorrectCommission	0.763600	0.675326	1	0
380.006012	0.792225	mountain	4	1	0.511177	0.511177	0	0	1	0	CommissionError	1.631102	0.686780	1	0
380.798218	0.792242	city	7	1	0.695609	0.695609	0	1	0	0	CorrectCommission	0.249478	0.704157	1	0
381.590485	0.792287	city	8	1	0.695269	0.695269	0	1	0	0	CorrectCommission	0.246016	0.727283	0	0
382.382751	0.792241	city	7	1	0.646421	0.646421	0	1	0	0	CorrectCommission	0.252072	0.755396	0	0
383.175018	0.792269	city	6	1	0.646584	0.646584	0	1	0	0	CorrectCommission	0.250404	0.787141	0	0
383.967346	0.792371	city	4	1	0.596217	0.596217	0	1	0	0	CorrectCommission	0.763984	0.820669	0	0
384.759705	0.792374	city	7	1	0.596879	0.596879	0	1	0	0	CorrectCommission	0.757232	0.853762	0	0
385.551910	0.792050	city	10	1	0.499888	0.499888	0	1	0	0	CorrectCommission	1.746211	0.884093	0	0
386.344086	0.792303	mountain	10	1	0.450983	0.450983	0	0	1	0	CommissionError	2.244878	0.909450	0	0
387.136353	0.792223	city	8	1	0.646078	0.646078	0	1	0	0	CorrectCommission	0.255566	0.928037	0	0
387.928711	0.792484	city	5	1	0.613179	0.613179	0	1	0	0	CorrectCommission	0.591024	0.938709	0	0
388.720978	0.792047	city	3	1	0.595949	0.595949	0	1	0	0	CorrectCommission	0.766712	0.941019	0	0
389.513123	0.792268	city	1	1	0.466382	0.466382	0	1	0	0	CorrectCommission	2.087860	0.935321	0	0
390.305389	0.792260	city	8	1	0.596699	0.596699	0	1	0	0	CorrectCommission	0.759069	0.922641	0	0
391.097778	0.792483	city	2	1	0.497321	0.497321	0	1	0	0	CorrectCommission	1.772388	0.904648	0	0
391.890045	0.792046	city	6	1	0.695042	0.695042	0	1	0	0	CorrectCommission	0.243699	0.883327	0	0
392.682312	0.792485	city	2	1	0.616322	0.616322	0	1	0	0	CorrectCommission	0.558982	0.860826	0	0
393.474579	0.792048	city	9	1	0.596023	0.596023	0	1	0	0	CorrectCommission	0.765956	0.839140	0	0
394.266724	0.792262	city	3	1	0.744931	0.744931	0	1	0	0	CorrectCommission	0.752397	0.819944	0	0
395.058990	0.792268	city	5	1	0.744790	0.744790	0	1	0	0	CorrectCommission	0.750966	0.804489	0	0
395.851257	0.792262	city	4	1	0.698480	0.698480	0	1	0	0	CorrectCommission	0.278756	0.793564	0	0
396.643524	0.792266	city	3	1	0.650264	0.650264	0	1	0	0	CorrectCommission	0.212886	0.787543	0	0
397.435791	0.792267	city	4	1	0.794292	0.794292	0	1	0	0	CorrectCommission	1.255714	0.786473	0	0
398.228149	0.792479	city	10	1	0.749343	0.749343	0	1	0	0	CorrectCommission	0.797384	0.790214	0	0
399.020538	0.792262	city	1	1	0.794068	0.794068	0	1	0	0	CorrectCommission	1.253434	0.798567	0	0
399.812683	0.792048	city	10	1	0.794076	0.794076	0	1	0	0	CorrectCommission	1.253519	0.811223	0	0
400.604889	0.792374	mountain	3	0	0.000000	0.759929	1	0	0	0	CorrectOmission	0.905331	0.827731	0	0
401.397186	0.792208	city	4	1	0.705843	0.705843	0	1	0	0	CorrectCommission	0.353837	0.847353	0	0
402.189392	0.792215	city	10	1	0.646036	0.646036	0	1	0	0	CorrectCommission	0.255996	0.868935	0	0
402.981628	0.792261	city	7	1	0.695274	0.695274	0	1	0	0	CorrectCommission	0.246065	0.890750	0	0
403.773895	0.792289	city	2	1	0.614979	0.614979	0	1	0	0	CorrectCommission	0.572669	0.910522	0	0
404.566162	0.792240	city	3	1	0.549727	0.549727	0	1	0	0	CorrectCommission	1.238024	0.925626	0	0
405.358490	0.792374	city	10	1	0.549583	0.549583	0	1	0	0	CorrectCommission	1.239492	0.933348	0	0
406.150757	0.792192	city	9	1	0.551723	0.551723	0	1	0	0	CorrectCommission	1.217669	0.931329	0	0
406.943085	0.792447	city	4	1	0.468520	0.468520	0	1	0	0	CorrectCommission	2.066068	0.917935	0	0
407.735321	0.792048	city	6	1	0.511343	0.511343	0	1	0	0	CorrectCommission	1.629414	0.892621	0	0
408.527527	0.792329	city	7	1	0.509407	0.509407	0	1	0	0	CorrectCommission	1.649156	0.856076	0	0
409.319885	0.792418	city	2	1	0.596143	0.596143	0	1	0	0	CorrectCommission	0.764741	0.810176	0	0
410.112183	0.792155	city	9	1	0.695037	0.695037	0	1	0	0	CorrectCommission	0.243654	0.757736	0	0
410.904327	0.792155	city	5	1	0.699962	0.699962	0	1	0	0	CorrectCommission	0.293867	0.702059	1	0
411.696533	0.792273	city	2	1	0.695401	0.695401	0	1	0	0	CorrectCommission	0.247357	0.646493	1	0
412.488800	0.792258	city	10	1	0.695298	0.695298	0	1	0	0	CorrectCommission	0.246309	0.593979	1	0
413.281067	0.792262	city	8	1	0.700204	0.700204	0	1	0	0	CorrectCommission	0.296333	0.546740	1	0
414.073334	0.792269	city	1	1	0.596219	0.596219	0	1	0	0	CorrectCommission	0.763962	0.506121	1	0
414.865601	0.792262	city	9	1	0.660791	0.660791	0	1	0	0	CorrectCommission	0.105543	0.472553	1	0
415.657867	0.792269	mountain	2	0	0.000000	0.680430	1	0	0	0	CorrectOmission	0.094703	0.445771	1	0
416.450134	0.792259	city	2	1	0.645753	0.645753	0	1	0	0	CorrectCommission	0.258885	0.425006	1	0
417.242401	0.792266	city	8	1	0.547378	0.547378	0	1	0	0	CorrectCommission	1.261971	0.409289	1	0
418.034698	0.792328	mountain	8	0	0.000000	0.612289	1	0	0	0	CorrectOmission	0.600107	0.397681	1	0
418.826996	0.792310	city	1	1	0.695183	0.695183	0	1	0	0	CorrectCommission	0.245135	0.389511	1	0
419.619232	0.792158	city	9	1	0.650761	0.650761	0	1	0	0	CorrectCommission	0.207819	0.384382	1	0
420.411499	0.792372	city	3	1	0.695269	0.695269	0	1	0	0	CorrectCommission	0.246020	0.382157	1	0
421.203888	0.792374	city	1	1	0.696096	0.696096	0	1	0	0	CorrectCommission	0.254450	0.382863	1	0
421.996124	0.792081	city	8	1	0.697522	0.697522	0	1	0	0	CorrectCommission	0.268989	0.386527	1	0
422.788269	0.792230	city	10	1	0.647562	0.647562	0	1	0	0	CorrectCommission	0.240440	0.393073	1	0
423.580566	0.792374	city	1	1	0.695447	0.695447	0	1	0	0	CorrectCommission	0.247831	0.402219	1	0
424.372864	0.792215	city	5	1	0.704592	0.704592	0	1	0	0	CorrectCommission	0.341082	0.413426	1	1
425.165131	0.792317	city	2	1	0.744895	0.744895	0	1	0	0	CorrectCommission	0.752029	0.425956	1	1
425.957367	0.792154	city	4	1	0.645666	0.645666	0	1	0	0	CorrectCommission	0.259765	0.438958	1	1
426.749634	0.792376	city	10	1	0.596271	0.596271	0	1	0	0	CorrectCommission	0.763427	0.451634	1	1
427.541901	0.792159	city	6	1	0.695385	0.695385	0	1	0	0	CorrectCommission	0.247194	0.463334	1	1
428.334167	0.792370	city	1	1	0.649022	0.649022	0	1	0	0	CorrectCommission	0.225544	0.473699	1	1
429.126434	0.792192	city	5	1	0.564993	0.564993	0	1	0	0	CorrectCommission	1.082358	0.482707	1	1
429.918701	0.792339	city	2	1	0.596277	0.596277	0	1	0	0	CorrectCommission	0.763375	0.490685	1	1
430.710938	0.792155	city	6	1	0.612625	0.612625	0	1	0	0	CorrectCommission	0.596680	0.498303	1	1
431.503174	0.792266	city	8	1	0.645889	0.645889	0	1	0	0	CorrectCommission	0.257491	0.506400	1	1
432.295471	0.792338	city	1	1	0.646321	0.646321	0	1	0	0	CorrectCommission	0.253087	0.515892	1	1
433.087769	0.792301	city	5	1	0.645959	0.645959	0	1	0	0	CorrectCommission	0.256779	0.527580	1	1
433.880035	0.792196	city	7	1	0.744696	0.744696	0	1	0	0	CorrectCommission	0.750002	0.542035	1	1
434.672272	0.792260	city	6	1	0.695389	0.695389	0	1	0	0	CorrectCommission	0.247236	0.559474	1	1
435.464508	0.792231	city	3	1	0.695555	0.695555	0	1	0	0	CorrectCommission	0.248927	0.579778	1	1
436.256866	0.792480	city	5	1	0.744775	0.744775	0	1	0	0	CorrectCommission	0.750808	0.602527	1	1
437.049225	0.792265	mountain	10	1	0.645550	0.645550	0	0	1	0	CommissionError	0.260955	0.627075	1	1
437.841431	0.792128	city	7	1	0.794075	0.794075	0	1	0	0	CorrectCommission	1.253502	0.652695	1	1
438.633575	0.792183	city	4	1	0.794366	0.794366	0	1	0	0	CorrectCommission	1.256471	0.678636	1	1
439.425812	0.792269	city	2	1	0.744825	0.744825	0	1	0	0	CorrectCommission	0.751321	0.704227	1	1
440.218170	0.792478	city	6	1	0.700429	0.700429	0	1	0	0	CorrectCommission	0.298634	0.728887	0	1
441.010468	0.792107	city	2	1	0.695163	0.695163	0	1	0	0	CorrectCommission	0.244937	0.752089	0	1
441.802734	0.792423	mountain	7	0	0.000000	0.750836	1	0	0	0	CorrectOmission	0.812608	0.773298	0	1
442.594971	0.792047	city	6	1	0.794822	0.794822	0	1	0	0	CorrectCommission	1.261116	0.791937	0	1
443.387177	0.792373	city	5	1	0.754496	0.754496	0	1	0	0	CorrectCommission	0.849931	0.807403	0	1
444.179443	0.792154	city	1	1	0.744650	0.744650	0	1	0	0	CorrectCommission	0.749533	0.819109	0	1
444.971649	0.792265	city	10	1	0.744872	0.744872	0	1	0	0	CorrectCommission	0.751804	0.826551	0	1
445.763916	0.792268	city	4	1	0.801062	0.801062	0	1	0	0	CorrectCommission	1.324753	0.829431	0	1
446.556305	0.792479	city	1	1	0.714163	0.714163	0	1	0	0	CorrectCommission	0.438672	0.827761	0	1
447.348572	0.792064	city	8	1	0.746169	0.746169	0	1	0	0	CorrectCommission	0.765020	0.822050	0	1
448.140717	0.792250	city	3	1	0.550415	0.550415	0	1	0	0	CorrectCommission	1.231013	0.813294	0	1
448.932983	0.792266	city	10	1	0.516801	0.516801	0	1	0	0	CorrectCommission	1.573755	0.802977	0	1
449.725250	0.792264	city	4	1	0.546758	0.546758	0	1	0	0	CorrectCommission	1.268294	0.792930	0	1
450.517517	0.792268	city	7	1	0.654201	0.654201	0	1	0	0	CorrectCommission	0.172741	0.785149	0	1
451.309784	0.792264	city	10	1	0.695891	0.695891	0	1	0	0	CorrectCommission	0.252357	0.781508	0	1
452.102051	0.792264	city	9	1	0.695425	0.695425	0	1	0	0	CorrectCommission	0.247604	0.783440	0	1
452.894409	0.792480	city	3	1	0.702593	0.702593	0	1	0	0	CorrectCommission	0.320696	0.791711	0	1
453.686737	0.792155	mountain	5	0	0.000000	0.717969	1	0	0	0	CorrectOmission	0.477477	0.806317	0	1
454.478882	0.792158	city	3	1	0.744655	0.744655	0	1	0	0	CorrectCommission	0.749591	0.826505	0	1
455.271118	0.792265	mountain	2	0	0.000000	0.785756	1	0	0	0	CorrectOmission	1.168678	0.850883	0	1
456.063416	0.792371	city	5	1	0.799721	0.799721	0	1	0	0	CorrectCommission	1.311073	0.877708	0	1
456.855743	0.792272	city	9	1	0.745001	0.745001	0	1	0	0	CorrectCommission	0.753112	0.905154	0	1
457.647980	0.792214	city	7	1	0.751033	0.751033	0	1	0	0	CorrectCommission	0.814620	0.931590	0	1
458.440216	0.792252	city	1	1	0.794190	0.794190	0	1	0	0	CorrectCommission	1.254681	0.955736	0	1
459.232483	0.792269	city	6	1	0.843790	0.843790	0	1	0	0	CorrectCommission	1.760428	0.976714	0	1
460.024719	0.792227	city	10	1	0.794276	0.794276	0	1	0	0	CorrectCommission	1.255549	0.994005	0	1
460.816956	0.792246	city	3	1	0.745088	0.745088	0	1	0	0	CorrectCommission	0.753999	1.007330	0	1
461.609222	0.792265	city	4	1	0.695308	0.695308	0	1	0	0	CorrectCommission	0.246414	1.016447	0	1
462.401489	0.792265	city	8	1	0.596296	0.596296	0	1	0	0	CorrectCommission	0.763172	1.021007	0	1
463.193787	0.792329	city	3	1	0.556594	0.556594	0	1	0	0	CorrectCommission	1.168001	1.020422	0	1
463.986053	0.792198	city	7	1	0.557421	0.557421	0	1	0	0	CorrectCommission	1.159571	1.013942	0	1
464.778290	0.792312	city	4	1	0.602877	0.602877	0	1	0	0	CorrectCommission	0.696068	1.000778	0	1
465.570557	0.792222	city	8	1	0.547325	0.547325	0	1	0	0	CorrectCommission	1.262514	0.980321	0	1
466.362854	0.792370	city	6	1	0.893633	0.893633	0	1	0	0	CorrectCommission	2.268660	0.952355	0	1
467.155121	0.792155	mountain	6	0	0.000000	0.845292	1	0	0	0	CorrectOmission	1.775749	0.917241	0	1
467.947327	0.792268	city	1	1	0.699521	0.699521	0	1	0	0	CorrectCommission	0.289373	0.876046	0	1
468.739655	0.792371	city	6	1	0.753537	0.753537	0	1	0	0	CorrectCommission	0.840151	0.830453	0	1
469.531982	0.792266	city	2	1	0.754163	0.754163	0	1	0	0	CorrectCommission	0.846534	0.782533	0	1
470.324188	0.792156	mountain	10	0	0.000000	0.666611	1	0	0	0	CorrectOmission	0.046199	0.734537	0	1
471.116425	0.792305	city	5	1	0.608031	0.608031	0	1	0	0	CorrectCommission	0.643521	0.688623	1	1
471.908691	0.792227	city	2	1	0.695571	0.695571	0	1	0	0	CorrectCommission	0.249095	0.646584	1	1
472.700928	0.792262	city	4	1	0.695257	0.695257	0	1	0	0	CorrectCommission	0.245893	0.609741	1	1
473.493195	0.792269	mountain	4	0	0.000000	0.744101	1	0	0	0	CorrectOmission	0.743941	0.578877	1	1
474.285461	0.792260	city	6	1	0.744749	0.744749	0	1	0	0	CorrectCommission	0.750543	0.554299	1	1
475.077728	0.792276	city	2	1	0.599844	0.599844	0	1	0	0	CorrectCommission	0.726996	0.535952	1	1
475.869995	0.792276	city	4	1	0.645768	0.645768	0	1	0	0	CorrectCommission	0.258732	0.523545	1	1
476.662384	0.792460	city	7	1	0.645739	0.645739	0	1	0	0	CorrectCommission	0.259024	0.516669	1	1
477.454681	0.792156	city	6	1	0.596017	0.596017	0	1	0	0	CorrectCommission	0.766022	0.514875	1	1
478.246826	0.792154	mountain	3	0	0.000000	0.610252	1	0	0	0	CorrectOmission	0.620872	0.517696	1	1
479.039093	0.792375	city	9	1	0.645688	0.645688	0	1	0	0	CorrectCommission	0.259540	0.524663	1	1
479.831360	0.792158	mountain	10	0	0.000000	0.659570	1	0	0	0	CorrectOmission	0.117992	0.535255	1	1
480.623566	0.792261	city	8	1	0.645735	0.645735	0	1	0	0	CorrectCommission	0.259070	0.548865	1	1
481.415833	0.792269	city	4	1	0.598018	0.598018	0	1	0	0	CorrectCommission	0.745617	0.564810	1	1
482.208099	0.792261	city	3	1	0.596694	0.596694	0	1	0	0	CorrectCommission	0.759121	0.582379	1	1
483.000397	0.792343	city	2	1	0.596208	0.596208	0	1	0	0	CorrectCommission	0.764075	0.600889	1	1
483.792786	0.792406	mountain	6	0	0.000000	0.605661	1	0	0	0	CorrectOmission	0.667688	0.619734	1	1
484.585022	0.792099	mountain	7	1	0.612558	0.612558	0	0	1	0	CommissionError	0.597358	0.638474	1	1
485.377289	0.792429	city	4	0	0.000000	0.604406	0	0	0	1	OmissionError	0.680487	0.656889	1	1
486.169525	0.792047	city	8	1	0.596265	0.596265	0	1	0	0	CorrectCommission	0.763490	0.674950	1	1
486.961700	0.792269	city	9	1	0.603200	0.603200	0	1	0	0	CorrectCommission	0.692783	0.692783	1	1
