onset	duration	trial_type	image_type	Press	ReactionTime	ReactionTime_Interpolated	CorrectOmission	CorrectCommission	CommissionError	OmissionError	response_type	nonsmoothVarianceTimeCourse	VarianceTimeCourse	In_the_Zone	Reward_trial
8.433840	0.792206	city	4	1	0.942810	0.942810	0	1	0	0	CorrectCommission	2.398271	2.398271	0	0
9.226130	0.792375	city	2	1	0.844419	0.844419	0	1	0	0	CorrectCommission	1.047912	2.193803	0	0
10.018450	0.792265	city	6	1	0.898465	0.898465	0	1	0	0	CorrectCommission	1.789661	1.993537	0	0
10.810661	0.792157	city	1	1	0.754446	0.754446	0	1	0	0	CorrectCommission	0.186928	1.801261	0	0
11.602873	0.792266	city	3	1	0.844641	0.844641	0	1	0	0	CorrectCommission	1.050958	1.620152	0	0
12.395136	0.792261	mountain	7	1	0.844413	0.844413	0	0	1	0	CommissionError	1.047825	1.452546	0	0
13.187404	0.792276	city	4	1	0.992431	0.992431	0	1	0	0	CorrectCommission	3.079299	1.299993	0	0
13.979779	0.792474	city	3	1	0.849108	0.849108	0	1	0	0	CorrectCommission	1.112258	1.163282	0	0
14.772093	0.792155	city	1	1	0.744514	0.744514	0	1	0	0	CorrectCommission	0.323234	1.042729	0	0
15.564358	0.792375	mountain	10	0	0.000000	0.727075	1	0	0	0	CorrectOmission	0.562585	0.938275	0	0
16.356569	0.792049	city	9	1	0.744570	0.744570	0	1	0	0	CorrectCommission	0.322464	0.849572	0	0
17.148727	0.792266	city	2	1	0.744783	0.744783	0	1	0	0	CorrectCommission	0.319541	0.776091	0	0
17.941046	0.792370	city	4	1	0.847357	0.847357	0	1	0	0	CorrectCommission	1.088235	0.717152	1	0
18.733309	0.792157	city	8	1	0.744696	0.744696	0	1	0	0	CorrectCommission	0.320736	0.671932	1	0
19.525518	0.792263	city	4	1	0.794326	0.794326	0	1	0	0	CorrectCommission	0.360407	0.639473	1	0
20.317783	0.792264	city	9	1	0.748924	0.748924	0	1	0	0	CorrectCommission	0.262711	0.618697	1	0
21.110054	0.792280	city	2	1	0.702458	0.702458	0	1	0	0	CorrectCommission	0.900439	0.608504	1	0
21.902336	0.792281	city	7	1	0.744961	0.744961	0	1	0	0	CorrectCommission	0.317111	0.607688	1	0
22.694593	0.792235	city	5	1	0.748143	0.748143	0	1	0	0	CorrectCommission	0.273436	0.615183	1	0
23.486843	0.792264	mountain	7	0	0.000000	0.819309	1	0	0	0	CorrectOmission	0.703285	0.630006	1	0
24.279106	0.792262	city	7	1	0.843788	0.843788	0	1	0	0	CorrectCommission	1.039244	0.651400	1	0
25.071381	0.792285	city	5	1	0.706908	0.706908	0	1	0	0	CorrectCommission	0.839362	0.678789	1	0
25.863646	0.792247	city	9	1	0.794464	0.794464	0	1	0	0	CorrectCommission	0.362302	0.711809	1	0
26.655954	0.792371	city	5	1	0.744791	0.744791	0	1	0	0	CorrectCommission	0.319430	0.750226	1	0
27.448219	0.792157	city	3	1	0.843736	0.843736	0	1	0	0	CorrectCommission	1.038528	0.793753	0	0
28.240431	0.792268	city	2	1	0.713127	0.713127	0	1	0	0	CorrectCommission	0.754005	0.841950	0	0
29.032804	0.792479	city	7	1	0.794294	0.794294	0	1	0	0	CorrectCommission	0.359964	0.894096	0	0
29.825069	0.792051	city	3	1	0.744593	0.744593	0	1	0	0	CorrectCommission	0.322149	0.949073	0	0
30.617334	0.792477	mountain	3	1	0.945361	0.945361	0	0	1	0	CommissionError	2.433286	1.005288	0	0
31.409599	0.792052	city	8	1	0.843593	0.843593	0	1	0	0	CorrectCommission	1.036574	1.060695	0	0
32.201759	0.792269	city	6	1	0.744939	0.744939	0	1	0	0	CorrectCommission	0.317401	1.112967	0	0
32.994076	0.792362	city	1	1	0.695256	0.695256	0	1	0	0	CorrectCommission	0.999279	1.159562	0	0
33.786339	0.792161	city	8	1	0.648338	0.648338	0	1	0	0	CorrectCommission	1.643206	1.197941	0	0
34.578548	0.792260	city	4	1	0.695264	0.695264	0	1	0	0	CorrectCommission	0.999167	1.225846	0	0
35.370811	0.792266	city	10	1	0.893585	0.893585	0	1	0	0	CorrectCommission	1.722687	1.241574	0	0
36.163132	0.792373	city	7	1	1.001953	1.001953	0	1	0	0	CorrectCommission	3.209986	1.244145	0	0
36.955399	0.792158	city	8	1	0.756509	0.756509	0	1	0	0	CorrectCommission	0.158620	1.233441	0	0
37.747604	0.792261	city	9	1	0.942853	0.942853	0	1	0	0	CorrectCommission	2.398869	1.210355	0	0
38.539894	0.792311	city	2	1	0.695277	0.695277	0	1	0	0	CorrectCommission	0.998989	1.176463	0	0
39.332161	0.792224	city	5	1	0.662017	0.662017	0	1	0	0	CorrectCommission	1.455469	1.134014	0	0
40.124401	0.792259	city	4	1	0.744788	0.744788	0	1	0	0	CorrectCommission	0.319476	1.085550	0	0
40.916679	0.792301	city	2	1	0.714215	0.714215	0	1	0	0	CorrectCommission	0.739083	1.033715	0	0
41.709000	0.792340	mountain	9	0	0.000000	0.690254	1	0	0	0	CorrectOmission	1.067934	0.980964	0	0
42.501251	0.792158	city	2	1	0.709959	0.709959	0	1	0	0	CorrectCommission	0.797484	0.929446	0	0
43.293461	0.792263	city	4	1	0.810385	0.810385	0	1	0	0	CorrectCommission	0.580813	0.880972	0	0
44.085754	0.792326	city	9	1	0.856148	0.856148	0	1	0	0	CorrectCommission	1.208879	0.837002	0	0
44.878021	0.792202	city	7	1	0.716083	0.716083	0	1	0	0	CorrectCommission	0.713435	0.798674	0	0
45.670284	0.792325	city	5	1	0.695300	0.695300	0	1	0	0	CorrectCommission	0.998681	0.766876	0	0
46.462551	0.792211	city	9	1	0.701913	0.701913	0	1	0	0	CorrectCommission	0.907917	0.742212	1	0
47.254799	0.792286	city	1	1	0.794318	0.794318	0	1	0	0	CorrectCommission	0.360296	0.724979	1	0
48.047119	0.792352	city	8	1	0.749468	0.749468	0	1	0	0	CorrectCommission	0.255250	0.715057	1	0
48.839371	0.792147	city	7	1	0.744674	0.744674	0	1	0	0	CorrectCommission	0.321038	0.711854	1	0
49.631577	0.792266	city	6	1	0.794344	0.794344	0	1	0	0	CorrectCommission	0.360651	0.714285	1	0
50.423843	0.792265	city	5	1	0.701017	0.701017	0	1	0	0	CorrectCommission	0.920213	0.720816	1	0
51.216106	0.792263	city	1	1	0.754207	0.754207	0	1	0	0	CorrectCommission	0.190210	0.729610	1	0
52.008423	0.792376	city	2	1	0.803566	0.803566	0	1	0	0	CorrectCommission	0.487221	0.738836	1	0
52.800694	0.792161	mountain	2	0	0.000000	0.889667	1	0	0	0	CorrectOmission	1.668916	0.746890	1	0
53.592915	0.792283	city	7	1	0.893337	0.893337	0	1	0	0	CorrectCommission	1.719276	0.752662	1	0
54.385231	0.792349	city	5	1	0.695401	0.695401	0	1	0	0	CorrectCommission	0.997295	0.755811	1	0
55.177483	0.792159	city	3	1	0.744684	0.744684	0	1	0	0	CorrectCommission	0.320907	0.756724	1	0
55.969696	0.792262	city	4	1	0.695306	0.695306	0	1	0	0	CorrectCommission	0.998588	0.756444	1	0
56.762070	0.792483	city	6	1	0.698789	0.698789	0	1	0	0	CorrectCommission	0.950795	0.756350	1	0
57.554333	0.792048	city	3	1	0.744707	0.744707	0	1	0	0	CorrectCommission	0.320595	0.757863	1	0
58.346489	0.792262	mountain	3	0	0.000000	0.763867	1	0	0	0	CorrectOmission	0.057625	0.762053	0	0
59.138767	0.792294	city	8	1	0.754206	0.754206	0	1	0	0	CorrectCommission	0.190221	0.769324	0	0
59.931087	0.792347	city	1	1	0.713658	0.713658	0	1	0	0	CorrectCommission	0.746721	0.779239	0	0
60.723335	0.792155	city	6	1	0.713091	0.713091	0	1	0	0	CorrectCommission	0.754506	0.790520	0	0
61.515602	0.792373	city	5	1	0.695304	0.695304	0	1	0	0	CorrectCommission	0.998627	0.801212	0	0
62.307896	0.792216	city	8	1	0.695162	0.695162	0	1	0	0	CorrectCommission	1.000563	0.808976	0	0
63.100109	0.792214	city	9	1	0.662248	0.662248	0	1	0	0	CorrectCommission	1.452292	0.811445	0	0
63.892345	0.792257	city	8	1	0.696065	0.696065	0	1	0	0	CorrectCommission	0.988176	0.806582	0	0
64.684715	0.792482	city	1	1	0.695980	0.695980	0	1	0	0	CorrectCommission	0.989338	0.793008	0	0
65.476982	0.792051	city	4	1	0.698008	0.698008	0	1	0	0	CorrectCommission	0.961510	0.770209	0	0
66.269249	0.792479	city	8	1	0.695332	0.695332	0	1	0	0	CorrectCommission	0.998231	0.738617	1	0
67.061508	0.792047	city	1	1	0.695007	0.695007	0	1	0	0	CorrectCommission	1.002696	0.699528	1	0
67.853722	0.792373	city	2	1	0.744848	0.744848	0	1	0	0	CorrectCommission	0.318655	0.654996	1	1
68.645981	0.792157	city	5	1	0.695156	0.695156	0	1	0	0	CorrectCommission	1.000646	0.607657	1	1
69.438194	0.792265	city	1	1	0.748552	0.748552	0	1	0	0	CorrectCommission	0.267824	0.560424	1	1
70.230461	0.792267	city	6	1	0.757184	0.757184	0	1	0	0	CorrectCommission	0.149354	0.516280	1	1
71.022758	0.792324	city	8	1	0.744753	0.744753	0	1	0	0	CorrectCommission	0.319956	0.478028	1	1
71.815018	0.792206	city	3	1	0.744704	0.744704	0	1	0	0	CorrectCommission	0.320631	0.448086	1	1
72.607254	0.792265	city	1	1	0.744952	0.744952	0	1	0	0	CorrectCommission	0.317221	0.428347	1	1
73.399521	0.792263	mountain	7	0	0.000000	0.777340	1	0	0	0	CorrectOmission	0.127287	0.420015	1	1
74.191803	0.792308	city	8	1	0.794352	0.794352	0	1	0	0	CorrectCommission	0.360761	0.423545	1	1
74.984070	0.792220	city	4	1	0.748471	0.748471	0	1	0	0	CorrectCommission	0.268930	0.438611	1	1
75.776421	0.792482	mountain	10	0	0.000000	0.758379	1	0	0	0	CorrectOmission	0.132951	0.464118	1	1
76.568687	0.792046	mountain	6	0	0.000000	0.786289	1	0	0	0	CorrectOmission	0.250108	0.498267	1	1
77.360840	0.792265	city	4	1	0.794418	0.794418	0	1	0	0	CorrectCommission	0.361661	0.538695	1	1
78.153107	0.792270	city	7	1	0.744977	0.744977	0	1	0	0	CorrectCommission	0.316880	0.582721	1	1
78.945374	0.792261	city	5	1	0.744924	0.744924	0	1	0	0	CorrectCommission	0.317610	0.627607	1	1
79.737640	0.792269	city	2	1	0.749305	0.749305	0	1	0	0	CorrectCommission	0.257483	0.670867	1	1
80.529900	0.792260	mountain	4	0	0.000000	0.912781	1	0	0	0	CorrectOmission	1.986143	0.710540	1	1
81.322166	0.792264	city	10	1	0.992477	0.992477	0	1	0	0	CorrectCommission	3.079922	0.745363	1	1
82.114433	0.792269	city	7	1	0.745515	0.745515	0	1	0	0	CorrectCommission	0.309494	0.774859	0	1
82.906754	0.792368	city	1	1	0.761418	0.761418	0	1	0	0	CorrectCommission	0.091234	0.799316	0	1
83.699013	0.792157	city	9	1	0.801499	0.801499	0	1	0	0	CorrectCommission	0.458849	0.819482	0	1
84.491226	0.792269	city	6	1	0.745646	0.745646	0	1	0	0	CorrectCommission	0.307705	0.836322	0	1
85.283600	0.792480	city	10	1	0.744770	0.744770	0	1	0	0	CorrectCommission	0.319729	0.850801	0	1
86.075867	0.792050	city	7	1	0.848677	0.848677	0	1	0	0	CorrectCommission	1.106347	0.863640	0	1
86.868019	0.792265	city	9	1	0.695449	0.695449	0	1	0	0	CorrectCommission	0.996633	0.875274	0	1
87.660286	0.792266	city	1	1	0.648262	0.648262	0	1	0	0	CorrectCommission	1.644250	0.885869	0	1
88.452553	0.792261	city	5	1	0.696220	0.696220	0	1	0	0	CorrectCommission	0.986050	0.895357	0	1
89.244812	0.792265	city	2	1	0.695298	0.695298	0	1	0	0	CorrectCommission	0.998698	0.903596	0	1
90.037186	0.792481	mountain	10	0	0.000000	0.689500	1	0	0	0	CorrectOmission	1.078275	0.910384	0	1
90.829460	0.792064	city	2	1	0.711595	0.711595	0	1	0	0	CorrectCommission	0.775030	0.915506	0	1
91.621628	0.792280	city	7	1	0.794354	0.794354	0	1	0	0	CorrectCommission	0.360784	0.918742	0	1
92.413994	0.792449	city	5	1	0.794743	0.794743	0	1	0	0	CorrectCommission	0.366134	0.919833	0	1
93.206299	0.792157	city	6	1	0.861614	0.861614	0	1	0	0	CorrectCommission	1.283895	0.918460	0	1
93.998451	0.792154	city	8	1	0.655620	0.655620	0	1	0	0	CorrectCommission	1.543258	0.914252	0	1
94.790680	0.792299	city	1	1	0.695280	0.695280	0	1	0	0	CorrectCommission	0.998949	0.906827	0	1
95.583054	0.792449	city	6	1	0.695618	0.695618	0	1	0	0	CorrectCommission	0.994310	0.895859	0	1
96.375328	0.792100	city	2	1	0.695249	0.695249	0	1	0	0	CorrectCommission	0.999375	0.881103	0	1
97.167542	0.792320	city	6	1	0.709606	0.709606	0	1	0	0	CorrectCommission	0.802327	0.862461	0	1
97.959831	0.792267	city	7	1	0.794179	0.794179	0	1	0	0	CorrectCommission	0.358390	0.840029	0	1
98.752098	0.792264	mountain	10	0	0.000000	0.857832	1	0	0	0	CorrectOmission	1.231987	0.814153	0	1
99.544319	0.792177	city	6	1	0.843793	0.843793	0	1	0	0	CorrectCommission	1.039311	0.785441	0	1
100.336586	0.792352	city	7	1	0.695292	0.695292	0	1	0	0	CorrectCommission	0.998789	0.754810	1	1
101.128891	0.792265	mountain	9	0	0.000000	0.768927	1	0	0	0	CorrectOmission	0.011812	0.723454	1	1
101.921158	0.792262	city	7	1	0.844178	0.844178	0	1	0	0	CorrectCommission	1.044604	0.692844	1	1
102.713387	0.792198	city	8	1	0.700528	0.700528	0	1	0	0	CorrectCommission	0.926919	0.664609	1	1
103.505600	0.792227	city	9	1	0.745449	0.745449	0	1	0	0	CorrectCommission	0.310400	0.640450	1	1
104.297844	0.792264	city	7	1	0.699532	0.699532	0	1	0	0	CorrectCommission	0.940600	0.621990	1	1
105.090111	0.792271	city	5	1	0.744821	0.744821	0	1	0	0	CorrectCommission	0.319025	0.610535	1	1
105.882378	0.792261	city	7	1	0.763474	0.763474	0	1	0	0	CorrectCommission	0.063025	0.606954	1	1
106.674667	0.792320	city	4	1	0.794370	0.794370	0	1	0	0	CorrectCommission	0.361007	0.611511	1	1
107.466934	0.792210	city	7	1	0.754899	0.754899	0	1	0	0	CorrectCommission	0.180710	0.623768	1	1
108.259163	0.792260	city	8	1	0.745167	0.745167	0	1	0	0	CorrectCommission	0.314279	0.642610	1	1
109.051430	0.792267	city	5	1	0.705035	0.705035	0	1	0	0	CorrectCommission	0.865074	0.666369	1	1
109.843697	0.792265	city	1	1	0.705855	0.705855	0	1	0	0	CorrectCommission	0.853808	0.693021	1	1
110.635956	0.792264	city	7	1	0.699377	0.699377	0	1	0	0	CorrectCommission	0.942724	0.720442	1	1
111.428276	0.792372	city	5	1	0.695695	0.695695	0	1	0	0	CorrectCommission	0.993251	0.746683	1	1
112.220543	0.792158	city	7	1	0.745470	0.745470	0	1	0	0	CorrectCommission	0.310120	0.770202	0	1
113.012756	0.792269	city	2	1	0.712155	0.712155	0	1	0	0	CorrectCommission	0.767355	0.790033	0	1
113.805023	0.792261	city	8	1	0.943422	0.943422	0	1	0	0	CorrectCommission	2.406675	0.805767	0	1
114.597282	0.792264	city	7	1	0.696000	0.696000	0	1	0	0	CorrectCommission	0.989074	0.817469	0	1
115.389549	0.792267	city	1	1	0.744858	0.744858	0	1	0	0	CorrectCommission	0.318523	0.825586	0	1
116.181831	0.792302	city	6	1	0.744834	0.744834	0	1	0	0	CorrectCommission	0.318844	0.830601	0	1
116.974205	0.792441	city	9	1	0.744802	0.744802	0	1	0	0	CorrectCommission	0.319290	0.832828	0	1
117.766449	0.792051	city	1	1	0.695798	0.695798	0	1	0	0	CorrectCommission	0.991840	0.832245	0	1
118.558640	0.792325	city	8	1	0.710231	0.710231	0	1	0	0	CorrectCommission	0.793759	0.828434	0	1
119.350906	0.792202	city	6	1	0.709533	0.709533	0	1	0	0	CorrectCommission	0.803340	0.820636	0	1
120.143135	0.792265	city	3	1	0.702333	0.702333	0	1	0	0	CorrectCommission	0.902153	0.807943	0	1
120.935402	0.792263	city	1	1	0.710080	0.710080	0	1	0	0	CorrectCommission	0.795833	0.789573	0	1
121.727676	0.792290	city	10	1	0.896431	0.896431	0	1	0	0	CorrectCommission	1.761740	0.765108	0	1
122.519997	0.792348	city	6	1	0.893303	0.893303	0	1	0	0	CorrectCommission	1.718816	0.734696	1	1
123.312271	0.792196	city	7	1	0.794237	0.794237	0	1	0	0	CorrectCommission	0.359184	0.699152	1	1
124.104530	0.792333	city	5	1	0.797398	0.797398	0	1	0	0	CorrectCommission	0.402574	0.659931	1	1
124.896782	0.792157	city	2	1	0.804088	0.804088	0	1	0	0	CorrectCommission	0.494384	0.618904	1	1
125.688988	0.792269	city	5	1	0.750661	0.750661	0	1	0	0	CorrectCommission	0.238878	0.578163	1	1
126.481361	0.792478	city	10	1	0.745404	0.745404	0	1	0	0	CorrectCommission	0.311030	0.539763	1	1
127.273651	0.792094	city	2	1	0.749775	0.749775	0	1	0	0	CorrectCommission	0.251036	0.505500	1	0
128.065842	0.792291	city	1	1	0.809845	0.809845	0	1	0	0	CorrectCommission	0.573392	0.476804	1	0
128.858109	0.792252	city	5	1	0.794375	0.794375	0	1	0	0	CorrectCommission	0.361081	0.454649	1	0
129.650391	0.792312	city	9	1	0.794379	0.794379	0	1	0	0	CorrectCommission	0.361133	0.439643	1	0
130.442688	0.792266	city	3	1	0.745112	0.745112	0	1	0	0	CorrectCommission	0.315038	0.432105	1	0
131.235001	0.792373	mountain	1	0	0.000000	0.750015	1	0	0	0	CorrectOmission	0.247745	0.432140	1	0
132.027328	0.792265	city	9	1	0.754614	0.754614	0	1	0	0	CorrectCommission	0.184617	0.439783	1	0
132.819489	0.792078	city	7	1	0.704437	0.704437	0	1	0	0	CorrectCommission	0.873281	0.455032	1	0
133.611649	0.792235	city	1	1	0.702713	0.702713	0	1	0	0	CorrectCommission	0.896931	0.477795	1	0
134.404007	0.792484	city	10	1	0.766323	0.766323	0	1	0	0	CorrectCommission	0.023916	0.507847	1	0
135.196289	0.792070	mountain	6	0	0.000000	0.765637	1	0	0	0	CorrectOmission	0.033337	0.544722	1	0
135.988480	0.792315	city	3	1	0.745868	0.745868	0	1	0	0	CorrectCommission	0.304660	0.587577	1	0
136.780731	0.792192	city	4	1	0.752229	0.752229	0	1	0	0	CorrectCommission	0.217350	0.635155	1	0
137.572968	0.792276	city	2	1	0.698451	0.698451	0	1	0	0	CorrectCommission	0.955427	0.685805	1	0
138.365234	0.792252	city	6	1	0.794296	0.794296	0	1	0	0	CorrectCommission	0.359993	0.737586	1	0
139.157547	0.792373	city	4	1	0.847837	0.847837	0	1	0	0	CorrectCommission	1.094819	0.788463	0	0
139.949860	0.792263	city	2	1	0.702297	0.702297	0	1	0	0	CorrectCommission	0.902644	0.836479	0	0
140.742126	0.792265	city	3	1	0.662193	0.662193	0	1	0	0	CorrectCommission	1.453046	0.880030	0	0
141.534332	0.792156	city	10	1	0.659975	0.659975	0	1	0	0	CorrectCommission	1.483493	0.917967	0	0
142.326553	0.792263	city	7	1	0.844005	0.844005	0	1	0	0	CorrectCommission	1.042231	0.949633	0	0
143.118927	0.792484	city	4	1	0.893342	0.893342	0	1	0	0	CorrectCommission	1.719351	0.974838	0	0
143.911179	0.792049	city	1	1	0.798486	0.798486	0	1	0	0	CorrectCommission	0.417497	0.993645	0	0
144.703339	0.792262	city	2	1	0.744947	0.744947	0	1	0	0	CorrectCommission	0.317300	1.006260	0	0
145.495605	0.792270	city	4	1	0.845079	0.845079	0	1	0	0	CorrectCommission	1.056968	1.012801	0	0
146.287979	0.792479	city	6	1	0.810565	0.810565	0	1	0	0	CorrectCommission	0.583278	1.013245	0	0
147.080246	0.792050	city	2	1	0.700033	0.700033	0	1	0	0	CorrectCommission	0.933711	1.007489	0	0
147.872406	0.792262	city	3	1	0.649191	0.649191	0	1	0	0	CorrectCommission	1.631501	0.995466	0	0
148.664673	0.792266	city	9	1	0.645747	0.645747	0	1	0	0	CorrectCommission	1.678760	0.977342	0	0
149.456924	0.792264	city	5	1	0.660179	0.660179	0	1	0	0	CorrectCommission	1.480691	0.953709	0	0
150.249298	0.792481	city	10	1	0.650678	0.650678	0	1	0	0	CorrectCommission	1.611086	0.925679	0	0
151.041565	0.792045	mountain	2	0	0.000000	0.727687	1	0	0	0	CorrectOmission	0.554185	0.894851	0	0
151.833725	0.792268	city	5	1	0.794524	0.794524	0	1	0	0	CorrectCommission	0.363126	0.863197	0	0
152.626022	0.792315	city	6	1	0.754511	0.754511	0	1	0	0	CorrectCommission	0.186036	0.832754	0	0
153.418381	0.792431	city	9	1	0.707612	0.707612	0	1	0	0	CorrectCommission	0.829697	0.805343	0	0
154.210632	0.792050	city	7	1	0.702143	0.702143	0	1	0	0	CorrectCommission	0.904765	0.782257	0	0
155.002823	0.792344	city	9	1	0.744985	0.744985	0	1	0	0	CorrectCommission	0.316773	0.764098	0	0
155.795135	0.792291	city	1	1	0.744749	0.744749	0	1	0	0	CorrectCommission	0.320016	0.750698	1	0
156.587372	0.792155	city	8	1	0.697341	0.697341	0	1	0	0	CorrectCommission	0.970659	0.741151	1	0
157.379593	0.792302	city	9	1	0.745665	0.745665	0	1	0	0	CorrectCommission	0.307443	0.734006	1	0
158.171890	0.792275	city	6	1	0.856281	0.856281	0	1	0	0	CorrectCommission	1.210708	0.727553	1	0
158.964127	0.792217	city	3	1	0.696628	0.696628	0	1	0	0	CorrectCommission	0.980455	0.720070	1	0
159.756378	0.792267	city	1	1	0.695284	0.695284	0	1	0	0	CorrectCommission	0.998893	0.710157	1	0
160.548660	0.792318	city	9	1	0.696131	0.696131	0	1	0	0	CorrectCommission	0.987265	0.696896	1	0
161.341034	0.792428	city	3	1	0.709432	0.709432	0	1	0	0	CorrectCommission	0.804722	0.679991	1	0
162.133270	0.792047	city	4	1	0.750791	0.750791	0	1	0	0	CorrectCommission	0.237094	0.659743	1	0
162.925461	0.792326	city	1	1	0.710402	0.710402	0	1	0	0	CorrectCommission	0.791412	0.636965	1	0
163.717728	0.792202	city	9	1	0.695900	0.695900	0	1	0	0	CorrectCommission	0.990445	0.612798	1	0
164.509979	0.792305	city	10	1	0.745326	0.745326	0	1	0	0	CorrectCommission	0.312089	0.588555	1	0
165.302246	0.792230	city	5	1	0.794281	0.794281	0	1	0	0	CorrectCommission	0.359787	0.565512	1	0
166.094482	0.792261	city	7	1	0.745482	0.745482	0	1	0	0	CorrectCommission	0.309947	0.544797	1	0
166.886749	0.792265	city	10	1	0.744962	0.744962	0	1	0	0	CorrectCommission	0.317090	0.527296	1	0
167.679016	0.792267	city	7	1	0.750048	0.750048	0	1	0	0	CorrectCommission	0.247292	0.513649	1	0
168.471283	0.792274	city	5	1	0.699571	0.699571	0	1	0	0	CorrectCommission	0.940057	0.504297	1	0
169.263657	0.792472	city	6	1	0.744950	0.744950	0	1	0	0	CorrectCommission	0.317257	0.499516	1	0
170.056030	0.792264	city	10	1	0.695209	0.695209	0	1	0	0	CorrectCommission	0.999930	0.499487	1	0
170.848297	0.792265	city	2	1	0.756931	0.756931	0	1	0	0	CorrectCommission	0.152824	0.504273	1	0
171.640472	0.792090	city	7	1	0.803308	0.803308	0	1	0	0	CorrectCommission	0.483680	0.513835	1	0
172.432632	0.792232	city	2	1	0.794416	0.794416	0	1	0	0	CorrectCommission	0.361643	0.527918	1	0
173.224915	0.792330	city	5	1	0.794939	0.794939	0	1	0	0	CorrectCommission	0.368815	0.546006	1	0
174.017166	0.792188	city	1	1	0.747465	0.747465	0	1	0	0	CorrectCommission	0.282739	0.567240	1	0
174.809402	0.792273	city	6	1	0.754446	0.754446	0	1	0	0	CorrectCommission	0.186922	0.590440	1	0
175.601669	0.792263	city	2	1	0.708556	0.708556	0	1	0	0	CorrectCommission	0.816739	0.614129	1	0
176.393982	0.792370	city	10	1	0.695262	0.695262	0	1	0	0	CorrectCommission	0.999191	0.636671	1	0
177.186310	0.792264	city	4	1	0.794237	0.794237	0	1	0	0	CorrectCommission	0.359190	0.656475	1	0
177.978561	0.792264	city	8	1	0.695193	0.695193	0	1	0	0	CorrectCommission	1.000151	0.672244	1	0
178.770813	0.792240	city	6	1	0.700299	0.700299	0	1	0	0	CorrectCommission	0.930062	0.683087	1	0
179.563034	0.792179	city	2	1	0.645729	0.645729	0	1	0	0	CorrectCommission	1.679008	0.688722	1	0
180.355255	0.792269	mountain	2	0	0.000000	0.747725	1	0	0	0	CorrectOmission	0.279174	0.689470	1	0
181.147629	0.792480	city	6	1	0.849557	0.849557	0	1	0	0	CorrectCommission	1.118429	0.686244	1	0
181.939926	0.792131	city	5	1	0.794499	0.794499	0	1	0	0	CorrectCommission	0.362785	0.680351	1	0
182.732101	0.792194	city	10	1	0.751859	0.751859	0	1	0	0	CorrectCommission	0.222436	0.673358	1	0
183.524338	0.792302	city	7	1	0.794341	0.794341	0	1	0	0	CorrectCommission	0.360607	0.666833	1	0
184.316605	0.792212	city	9	1	0.705286	0.705286	0	1	0	0	CorrectCommission	0.861623	0.662160	1	0
185.108841	0.792264	city	3	1	0.746548	0.746548	0	1	0	0	CorrectCommission	0.295323	0.660389	1	0
185.901154	0.792376	city	4	1	0.843970	0.843970	0	1	0	0	CorrectCommission	1.041743	0.662183	1	0
186.693527	0.792372	city	1	1	0.702226	0.702226	0	1	0	0	CorrectCommission	0.903616	0.667764	1	1
187.485855	0.792265	city	6	1	0.744931	0.744931	0	1	0	0	CorrectCommission	0.317520	0.676946	1	1
188.278122	0.792264	city	8	1	0.744586	0.744586	0	1	0	0	CorrectCommission	0.322255	0.689208	1	1
189.070267	0.792048	mountain	9	0	0.000000	0.720662	1	0	0	0	CorrectOmission	0.650589	0.703709	1	1
189.862457	0.792305	mountain	7	0	0.000000	0.696893	1	0	0	0	CorrectOmission	0.976817	0.719378	1	1
190.654755	0.792293	city	9	1	0.697008	0.697008	0	1	0	0	CorrectCommission	0.975234	0.734984	1	1
191.446991	0.792198	city	4	1	0.744740	0.744740	0	1	0	0	CorrectCommission	0.320134	0.749232	1	1
192.239365	0.792536	city	3	1	0.744756	0.744756	0	1	0	0	CorrectCommission	0.319919	0.760857	0	1
193.031647	0.792045	city	4	1	0.894033	0.894033	0	1	0	0	CorrectCommission	1.728831	0.768691	0	1
193.823883	0.792428	city	10	1	0.700015	0.700015	0	1	0	0	CorrectCommission	0.933964	0.771720	0	1
194.616135	0.792051	city	4	1	0.695040	0.695040	0	1	0	0	CorrectCommission	1.002242	0.769230	0	1
195.408279	0.792265	city	2	1	0.700180	0.700180	0	1	0	0	CorrectCommission	0.931700	0.760790	1	1
196.200562	0.792287	city	1	1	0.744792	0.744792	0	1	0	0	CorrectCommission	0.319419	0.746321	1	1
196.992935	0.792456	city	3	1	0.794257	0.794257	0	1	0	0	CorrectCommission	0.359454	0.726100	1	1
197.785187	0.792049	city	4	1	0.843761	0.843761	0	1	0	0	CorrectCommission	1.038872	0.700793	1	1
198.577393	0.792372	mountain	3	0	0.000000	0.861047	1	0	0	0	CorrectOmission	1.276114	0.671397	1	1
199.369766	0.792373	city	10	1	0.844891	0.844891	0	1	0	0	CorrectCommission	1.054391	0.639229	1	1
200.161987	0.792054	city	2	1	0.794072	0.794072	0	1	0	0	CorrectCommission	0.356913	0.605842	1	1
200.954193	0.792367	city	7	1	0.795058	0.795058	0	1	0	0	CorrectCommission	0.370447	0.572933	1	1
201.746460	0.792156	city	5	1	0.796951	0.796951	0	1	0	0	CorrectCommission	0.396432	0.542160	1	1
202.538666	0.792262	city	9	1	0.794229	0.794229	0	1	0	0	CorrectCommission	0.359079	0.515032	1	1
203.330963	0.792323	city	1	1	0.745636	0.745636	0	1	0	0	CorrectCommission	0.307835	0.492768	1	1
204.123276	0.792316	city	3	1	0.745367	0.745367	0	1	0	0	CorrectCommission	0.311536	0.476226	1	1
204.915512	0.792156	city	4	1	0.794817	0.794817	0	1	0	0	CorrectCommission	0.367141	0.465908	1	1
205.707825	0.792484	city	2	1	0.761517	0.761517	0	1	0	0	CorrectCommission	0.089876	0.461988	1	1
206.500122	0.792095	city	7	1	0.744571	0.744571	0	1	0	0	CorrectCommission	0.322453	0.464439	1	1
207.292389	0.792435	city	2	1	0.744911	0.744911	0	1	0	0	CorrectCommission	0.317784	0.473151	1	1
208.084625	0.792045	city	8	1	0.855387	0.855387	0	1	0	0	CorrectCommission	1.198433	0.488069	1	1
208.876785	0.792282	city	6	1	0.712042	0.712042	0	1	0	0	CorrectCommission	0.768901	0.509225	1	1
209.669052	0.792250	city	10	1	0.744806	0.744806	0	1	0	0	CorrectCommission	0.319225	0.536754	1	1
210.461334	0.792316	city	8	1	0.752158	0.752158	0	1	0	0	CorrectCommission	0.218323	0.570725	1	1
211.253708	0.792429	city	7	1	0.794309	0.794309	0	1	0	0	CorrectCommission	0.360177	0.610997	1	1
212.045944	0.792046	city	9	1	0.750486	0.750486	0	1	0	0	CorrectCommission	0.241270	0.656985	1	1
212.838104	0.792268	city	3	1	0.716120	0.716120	0	1	0	0	CorrectCommission	0.712926	0.707472	1	1
213.630371	0.792264	mountain	7	1	0.702118	0.702118	0	0	1	0	CommissionError	0.905101	0.760509	1	1
214.422653	0.792314	city	9	1	0.744760	0.744760	0	1	0	0	CorrectCommission	0.319866	0.813427	0	1
215.214981	0.792322	city	10	1	0.757519	0.757519	0	1	0	0	CorrectCommission	0.144751	0.863006	0	1
216.007248	0.792220	mountain	7	0	0.000000	0.867631	1	0	0	0	CorrectOmission	1.366474	0.905776	0	1
216.799576	0.792420	city	4	1	0.893275	0.893275	0	1	0	0	CorrectCommission	1.718431	0.938420	0	1
217.591797	0.792047	city	1	1	0.652633	0.652633	0	1	0	0	CorrectCommission	1.584263	0.958250	0	1
218.383957	0.792264	city	10	1	0.660053	0.660053	0	1	0	0	CorrectCommission	1.482418	0.963592	0	1
219.176224	0.792271	city	2	1	0.651011	0.651011	0	1	0	0	CorrectCommission	1.606523	0.954049	0	1
219.968597	0.792476	city	10	1	0.646684	0.646684	0	1	0	0	CorrectCommission	1.665908	0.930587	0	1
220.760864	0.792048	city	4	1	0.697792	0.697792	0	1	0	0	CorrectCommission	0.964480	0.895441	0	1
221.553131	0.792482	city	10	1	0.747470	0.747470	0	1	0	0	CorrectCommission	0.282669	0.851833	0	1
222.345505	0.792263	city	4	1	0.795148	0.795148	0	1	0	0	CorrectCommission	0.371691	0.803552	0	1
223.137772	0.792272	city	2	1	0.707578	0.707578	0	1	0	0	CorrectCommission	0.830166	0.754472	1	1
223.929932	0.792046	city	1	1	0.712489	0.712489	0	1	0	0	CorrectCommission	0.762769	0.708172	1	1
224.722137	0.792368	city	10	1	0.744800	0.744800	0	1	0	0	CorrectCommission	0.319311	0.667564	1	1
225.514511	0.792374	mountain	8	0	0.000000	0.775158	1	0	0	0	CorrectOmission	0.097329	0.634720	1	1
226.306717	0.792061	city	5	1	0.794861	0.794861	0	1	0	0	CorrectCommission	0.367752	0.610867	1	1
227.098877	0.792255	city	6	1	0.795212	0.795212	0	1	0	0	CorrectCommission	0.372560	0.596391	1	1
227.891144	0.792261	city	3	1	0.744832	0.744832	0	1	0	0	CorrectCommission	0.318871	0.591110	1	1
228.683411	0.792280	city	9	1	0.695275	0.695275	0	1	0	0	CorrectCommission	0.999016	0.594509	1	1
229.475708	0.792308	city	1	1	0.695234	0.695234	0	1	0	0	CorrectCommission	0.999585	0.605966	1	1
230.267960	0.792205	mountain	5	0	0.000000	0.737232	1	0	0	0	CorrectOmission	0.423178	0.624952	1	1
231.060303	0.792481	city	8	1	0.795336	0.795336	0	1	0	0	CorrectCommission	0.374271	0.651089	1	1
231.852570	0.792048	city	5	1	0.843612	0.843612	0	1	0	0	CorrectCommission	1.036831	0.684086	1	1
232.644775	0.792374	city	1	1	0.795001	0.795001	0	1	0	0	CorrectCommission	0.369664	0.723597	1	1
233.437042	0.792159	city	2	1	0.794307	0.794307	0	1	0	0	CorrectCommission	0.360146	0.769016	0	1
234.229294	0.792335	mountain	5	0	0.000000	0.733724	1	0	0	0	CorrectOmission	0.471320	0.819236	0	1
235.021561	0.792209	city	8	1	0.716691	0.716691	0	1	0	0	CorrectCommission	0.705102	0.872499	0	1
235.813797	0.792250	mountain	6	1	0.846643	0.846643	0	0	1	0	CommissionError	1.078431	0.926353	0	1
236.606155	0.792480	city	1	1	0.843822	0.843822	0	1	0	0	CorrectCommission	1.039708	0.977717	0	1
237.398422	0.792047	city	4	1	0.844521	0.844521	0	1	0	0	CorrectCommission	1.049307	1.023094	0	1
238.190582	0.792268	city	10	1	0.794574	0.794574	0	1	0	0	CorrectCommission	0.363806	1.058951	0	1
238.982849	0.792260	city	9	1	0.942855	0.942855	0	1	0	0	CorrectCommission	2.398890	1.082152	0	1
239.775208	0.792484	city	8	1	0.702978	0.702978	0	1	0	0	CorrectCommission	0.893293	1.090323	0	1
240.567474	0.792050	city	10	1	0.645543	0.645543	0	1	0	0	CorrectCommission	1.681568	1.082370	0	1
241.359695	0.792371	city	6	1	1.054625	1.054625	0	1	0	0	CorrectCommission	3.932880	1.058568	0	1
242.151947	0.792157	city	10	1	0.798423	0.798423	0	1	0	0	CorrectCommission	0.416634	1.020666	0	1
242.944199	0.792327	city	9	1	0.744795	0.744795	0	1	0	0	CorrectCommission	0.319381	0.971841	0	1
243.736511	0.792309	city	7	1	0.803793	0.803793	0	1	0	0	CorrectCommission	0.490341	0.916184	0	1
244.528748	0.792156	city	9	1	0.804089	0.804089	0	1	0	0	CorrectCommission	0.494396	0.858312	0	1
245.321060	0.792483	city	6	1	0.850910	0.850910	0	1	0	0	CorrectCommission	1.136987	0.802836	0	1
246.113327	0.792053	mountain	6	0	0.000000	0.813352	1	0	0	0	CorrectOmission	0.621521	0.753851	1	0
246.905548	0.792368	city	10	1	0.755801	0.755801	0	1	0	0	CorrectCommission	0.168328	0.714583	1	0
247.697815	0.792160	mountain	7	0	0.000000	0.742645	1	0	0	0	CorrectOmission	0.348883	0.687083	1	0
248.490067	0.792372	city	4	1	0.748049	0.748049	0	1	0	0	CorrectCommission	0.274719	0.672095	1	0
249.282364	0.792196	city	1	1	0.746177	0.746177	0	1	0	0	CorrectCommission	0.300410	0.669132	1	0
250.074570	0.792225	city	4	1	0.754769	0.754769	0	1	0	0	CorrectCommission	0.182494	0.676627	1	0
250.866867	0.792371	city	10	1	0.698078	0.698078	0	1	0	0	CorrectCommission	0.960544	0.692255	1	0
251.659164	0.792216	city	7	1	0.856464	0.856464	0	1	0	0	CorrectCommission	1.213217	0.713279	1	0
252.451477	0.792424	city	1	1	0.748222	0.748222	0	1	0	0	CorrectCommission	0.272344	0.736968	1	0
253.243820	0.792264	city	4	1	0.695556	0.695556	0	1	0	0	CorrectCommission	0.995166	0.760986	0	0
254.036011	0.792096	city	1	1	0.696690	0.696690	0	1	0	0	CorrectCommission	0.979592	0.783597	0	0
254.828262	0.792433	city	3	1	0.843776	0.843776	0	1	0	0	CorrectCommission	1.039075	0.803884	0	0
255.620544	0.792113	city	1	1	0.903263	0.903263	0	1	0	0	CorrectCommission	1.855514	0.821738	0	0
256.412811	0.792417	city	4	1	0.746656	0.746656	0	1	0	0	CorrectCommission	0.293842	0.837630	0	0
257.205078	0.792154	city	1	1	0.695097	0.695097	0	1	0	0	CorrectCommission	1.001461	0.852493	0	0
257.997284	0.792212	mountain	10	0	0.000000	0.741287	1	0	0	0	CorrectOmission	0.367534	0.867243	0	0
258.789551	0.792320	mountain	1	0	0.000000	0.814533	1	0	0	0	CorrectOmission	0.637737	0.882488	0	0
259.581787	0.792155	city	7	1	0.844145	0.844145	0	1	0	0	CorrectCommission	1.044147	0.898311	0	0
260.374054	0.792375	city	2	1	0.759431	0.759431	0	1	0	0	CorrectCommission	0.118507	0.914100	0	0
261.166321	0.792156	city	9	1	0.794443	0.794443	0	1	0	0	CorrectCommission	0.362007	0.928636	0	0
261.958527	0.792271	city	1	1	0.662351	0.662351	0	1	0	0	CorrectCommission	1.450890	0.940195	0	0
262.750793	0.792287	city	10	1	0.661196	0.661196	0	1	0	0	CorrectCommission	1.466730	0.946913	0	0
263.543060	0.792238	city	3	1	0.845295	0.845295	0	1	0	0	CorrectCommission	1.059931	0.947305	0	0
264.335327	0.792281	city	9	1	0.942864	0.942864	0	1	0	0	CorrectCommission	2.399015	0.940461	0	0
265.127594	0.792252	city	8	1	0.843803	0.843803	0	1	0	0	CorrectCommission	1.039458	0.926355	0	0
265.919861	0.792268	city	4	1	0.702595	0.702595	0	1	0	0	CorrectCommission	0.898556	0.906036	0	0
266.712128	0.792270	city	3	1	0.708572	0.708572	0	1	0	0	CorrectCommission	0.816528	0.881471	0	0
267.504364	0.792249	city	6	1	0.745347	0.745347	0	1	0	0	CorrectCommission	0.311809	0.855369	0	0
268.296661	0.792304	city	10	1	0.707148	0.707148	0	1	0	0	CorrectCommission	0.836072	0.830824	0	0
269.088928	0.792228	city	4	1	0.761705	0.761705	0	1	0	0	CorrectCommission	0.087308	0.810969	0	0
269.881195	0.792329	city	8	1	0.700760	0.700760	0	1	0	0	CorrectCommission	0.923737	0.798623	0	0
270.673462	0.792199	city	2	1	0.695233	0.695233	0	1	0	0	CorrectCommission	0.999602	0.795934	0	0
271.465759	0.792372	city	1	1	0.744932	0.744932	0	1	0	0	CorrectCommission	0.317497	0.804202	0	0
272.258118	0.792375	city	5	1	0.843868	0.843868	0	1	0	0	CorrectCommission	1.040341	0.823732	0	0
273.050354	0.792063	city	2	1	0.744570	0.744570	0	1	0	0	CorrectCommission	0.322469	0.853707	0	0
273.842529	0.792340	city	10	1	0.751883	0.751883	0	1	0	0	CorrectCommission	0.222108	0.892381	0	0
274.634796	0.792177	city	9	1	0.794215	0.794215	0	1	0	0	CorrectCommission	0.358889	0.937141	0	0
275.427124	0.792479	city	2	1	0.844668	0.844668	0	1	0	0	CorrectCommission	1.051323	0.984848	0	0
276.219421	0.792115	city	7	1	0.942684	0.942684	0	1	0	0	CorrectCommission	2.396546	1.032171	0	0
277.011597	0.792198	city	9	1	0.758750	0.758750	0	1	0	0	CorrectCommission	0.127851	1.075976	0	0
277.803925	0.792481	mountain	10	1	0.747702	0.747702	0	0	1	0	CommissionError	0.279485	1.113885	0	0
278.596191	0.792048	city	6	1	1.140710	1.140710	0	1	0	0	CorrectCommission	5.114344	1.144342	0	0
279.388336	0.792262	city	8	1	0.794274	0.794274	0	1	0	0	CorrectCommission	0.359693	1.166832	0	0
280.180634	0.792315	mountain	4	0	0.000000	0.794140	1	0	0	0	CorrectOmission	0.357849	1.182136	0	0
280.972900	0.792218	city	8	1	0.847444	0.847444	0	1	0	0	CorrectCommission	1.089419	1.191921	0	0
281.765198	0.792371	city	1	1	0.661323	0.661323	0	1	0	0	CorrectCommission	1.464989	1.198506	0	0
282.557556	0.792374	city	8	1	0.645661	0.645661	0	1	0	0	CorrectCommission	1.679943	1.204487	0	0
283.349884	0.792265	mountain	3	0	0.000000	0.789011	1	0	0	0	CorrectOmission	0.287457	1.212289	0	0
284.142029	0.792050	city	2	1	0.893119	0.893119	0	1	0	0	CorrectCommission	1.716285	1.223795	0	0
284.934204	0.792288	city	4	1	0.759731	0.759731	0	1	0	0	CorrectCommission	0.114387	1.239925	0	0
285.726471	0.792242	city	3	1	0.806461	0.806461	0	1	0	0	CorrectCommission	0.526951	1.260559	0	0
286.518738	0.792260	city	1	1	0.646143	0.646143	0	1	0	0	CorrectCommission	1.673327	1.284460	0	0
287.310974	0.792265	city	2	1	0.613199	0.613199	0	1	0	0	CorrectCommission	2.125463	1.309347	0	0
288.103302	0.792376	city	5	1	0.844527	0.844527	0	1	0	0	CorrectCommission	1.049382	1.332221	0	0
288.895569	0.792171	city	8	1	0.646686	0.646686	0	1	0	0	CorrectCommission	1.665879	1.349751	0	0
289.687836	0.792358	mountain	9	1	0.698180	0.698180	0	0	1	0	CommissionError	0.959150	1.358638	0	0
290.480103	0.792157	city	8	1	0.861789	0.861789	0	1	0	0	CorrectCommission	1.286295	1.356120	0	0
291.272308	0.792262	city	6	1	0.893253	0.893253	0	1	0	0	CorrectCommission	1.718131	1.340321	0	0
292.064606	0.792330	mountain	3	1	0.645743	0.645743	0	0	1	0	CommissionError	1.678814	1.310566	0	0
292.856873	0.792201	city	9	1	1.092253	1.092253	0	1	0	0	CorrectCommission	4.449299	1.267517	0	0
293.649200	0.792482	city	7	1	0.794316	0.794316	0	1	0	0	CorrectCommission	0.360268	1.213036	0	0
294.441467	0.792051	city	2	1	0.695360	0.695360	0	1	0	0	CorrectCommission	0.997846	1.150182	0	0
295.233643	0.792259	city	7	1	0.747219	0.747219	0	1	0	0	CorrectCommission	0.286120	1.082595	0	0
296.025909	0.792266	city	1	1	0.744801	0.744801	0	1	0	0	CorrectCommission	0.319304	1.014018	0	0
296.818207	0.792373	city	7	1	0.858292	0.858292	0	1	0	0	CorrectCommission	1.238301	0.947953	0	0
297.610474	0.792159	city	8	1	0.801407	0.801407	0	1	0	0	CorrectCommission	0.457592	0.887177	0	0
298.402679	0.792261	city	4	1	0.794329	0.794329	0	1	0	0	CorrectCommission	0.360441	0.833567	0	0
299.194946	0.792268	city	1	1	0.695310	0.695310	0	1	0	0	CorrectCommission	0.998540	0.788001	0	0
299.987335	0.792480	city	5	1	0.794357	0.794357	0	1	0	0	CorrectCommission	0.360831	0.750456	1	0
300.779602	0.792050	city	10	1	0.744638	0.744638	0	1	0	0	CorrectCommission	0.321543	0.720293	1	0
301.571747	0.792264	city	7	1	0.906527	0.906527	0	1	0	0	CorrectCommission	1.900302	0.696420	1	0
302.364014	0.792254	city	6	1	0.797650	0.797650	0	1	0	0	CorrectCommission	0.406026	0.677582	1	0
303.156281	0.792276	city	3	1	0.744941	0.744941	0	1	0	0	CorrectCommission	0.317385	0.662623	1	0
303.948608	0.792373	city	10	1	0.744758	0.744758	0	1	0	0	CorrectCommission	0.319888	0.650508	1	0
304.740906	0.792218	city	6	1	0.848018	0.848018	0	1	0	0	CorrectCommission	1.097299	0.640383	1	0
305.533112	0.792201	city	2	1	0.844130	0.844130	0	1	0	0	CorrectCommission	1.043937	0.631541	1	1
306.325378	0.792341	city	7	1	0.799545	0.799545	0	1	0	0	CorrectCommission	0.432037	0.623351	1	1
307.117645	0.792189	city	5	1	0.794268	0.794268	0	1	0	0	CorrectCommission	0.359605	0.615143	1	1
307.909882	0.792265	mountain	2	0	0.000000	0.763021	1	0	0	0	CorrectOmission	0.069238	0.606152	1	1
308.702179	0.792371	city	8	1	0.748737	0.748737	0	1	0	0	CorrectCommission	0.265275	0.595571	1	1
309.494446	0.792160	city	10	1	0.794348	0.794348	0	1	0	0	CorrectCommission	0.360714	0.582644	1	1
310.286652	0.792261	city	6	1	0.893366	0.893366	0	1	0	0	CorrectCommission	1.719683	0.566787	1	1
311.078918	0.792268	city	10	1	0.695250	0.695250	0	1	0	0	CorrectCommission	0.999367	0.547903	1	1
311.871185	0.792267	city	8	1	0.696415	0.696415	0	1	0	0	CorrectCommission	0.983366	0.526450	1	1
312.663452	0.792263	city	3	1	0.744973	0.744973	0	1	0	0	CorrectCommission	0.316936	0.503544	1	1
313.455719	0.792264	city	10	1	0.794623	0.794623	0	1	0	0	CorrectCommission	0.364488	0.480942	1	1
314.247986	0.792267	mountain	2	0	0.000000	0.777994	1	0	0	0	CorrectOmission	0.136262	0.460862	1	1
315.040253	0.792276	city	2	1	0.744812	0.744812	0	1	0	0	CorrectCommission	0.319149	0.445769	1	1
315.832550	0.792281	city	8	1	0.744802	0.744802	0	1	0	0	CorrectCommission	0.319283	0.438077	1	1
316.624786	0.792231	city	2	1	0.763257	0.763257	0	1	0	0	CorrectCommission	0.066004	0.439857	1	1
317.417114	0.792374	mountain	9	0	0.000000	0.763116	1	0	0	0	CorrectOmission	0.067934	0.452554	1	1
318.209473	0.792375	city	8	1	0.754494	0.754494	0	1	0	0	CorrectCommission	0.186272	0.476814	1	1
319.001678	0.792046	city	7	1	0.747503	0.747503	0	1	0	0	CorrectCommission	0.282219	0.512347	1	1
319.793945	0.792482	city	9	1	0.794332	0.794332	0	1	0	0	CorrectCommission	0.360490	0.557982	1	1
320.586212	0.792052	city	2	1	0.745204	0.745204	0	1	0	0	CorrectCommission	0.313768	0.611683	1	1
321.378387	0.792286	city	4	1	0.893450	0.893450	0	1	0	0	CorrectCommission	1.720838	0.670746	1	1
322.170654	0.792239	city	2	1	0.754559	0.754559	0	1	0	0	CorrectCommission	0.185380	0.731973	1	1
322.962891	0.792264	city	10	1	0.754974	0.754974	0	1	0	0	CorrectCommission	0.179683	0.792051	0	1
323.755280	0.792483	city	2	1	0.843793	0.843793	0	1	0	0	CorrectCommission	1.039309	0.847753	0	1
324.547546	0.792062	mountain	8	0	0.000000	0.834102	1	0	0	0	CorrectOmission	0.906313	0.896255	0	1
325.339691	0.792254	mountain	3	1	0.844232	0.844232	0	0	1	0	CommissionError	1.045338	0.935446	0	1
326.131958	0.792270	city	6	1	0.992511	0.992511	0	1	0	0	CorrectCommission	3.080394	0.964117	0	1
326.924225	0.792256	city	10	1	0.848612	0.848612	0	1	0	0	CorrectCommission	1.105456	0.981994	0	1
327.716553	0.792375	mountain	7	0	0.000000	0.822327	1	0	0	0	CorrectOmission	0.744707	0.989812	0	1
328.508850	0.792263	mountain	1	0	0.000000	0.843943	1	0	0	0	CorrectOmission	1.041376	0.989069	0	1
329.301056	0.792154	city	2	1	0.843748	0.843748	0	1	0	0	CorrectCommission	1.038694	0.981745	0	1
330.093292	0.792267	city	1	1	0.752028	0.752028	0	1	0	0	CorrectCommission	0.220112	0.970028	0	1
330.885559	0.792263	city	10	1	0.812941	0.812941	0	1	0	0	CorrectCommission	0.615886	0.955991	0	1
331.677826	0.792269	city	6	1	0.893346	0.893346	0	1	0	0	CorrectCommission	1.719404	0.941367	0	1
332.470123	0.792370	city	10	1	0.745054	0.745054	0	1	0	0	CorrectCommission	0.315823	0.927428	0	1
333.262390	0.792157	city	3	1	0.803911	0.803911	0	1	0	0	CorrectCommission	0.491953	0.915046	0	1
334.054596	0.792269	city	1	1	0.853399	0.853399	0	1	0	0	CorrectCommission	1.171151	0.904683	0	1
334.846924	0.792368	city	10	1	0.908453	0.908453	0	1	0	0	CorrectCommission	1.926745	0.896567	0	1
335.639191	0.792158	city	1	1	0.797603	0.797603	0	1	0	0	CorrectCommission	0.405387	0.890781	0	1
336.431396	0.792265	city	3	1	0.799880	0.799880	0	1	0	0	CorrectCommission	0.436636	0.887403	0	1
337.223663	0.792278	city	10	1	0.710260	0.710260	0	1	0	0	CorrectCommission	0.793352	0.886456	0	1
338.015930	0.792254	city	6	1	0.893972	0.893972	0	1	0	0	CorrectCommission	1.727992	0.887906	0	1
338.808197	0.792261	city	9	1	0.700231	0.700231	0	1	0	0	CorrectCommission	0.930998	0.891538	0	1
339.600464	0.792268	city	3	1	0.744769	0.744769	0	1	0	0	CorrectCommission	0.319743	0.896936	0	1
340.392731	0.792264	city	2	1	0.762166	0.762166	0	1	0	0	CorrectCommission	0.080972	0.903337	0	1
341.185089	0.792480	city	6	1	0.843815	0.843815	0	1	0	0	CorrectCommission	1.039622	0.909640	0	1
341.977356	0.792046	city	4	1	0.794233	0.794233	0	1	0	0	CorrectCommission	0.359129	0.914490	0	1
342.769623	0.792484	city	7	1	0.844001	0.844001	0	1	0	0	CorrectCommission	1.042168	0.916500	0	1
343.561890	0.792046	mountain	3	0	0.000000	0.919766	1	0	0	0	CorrectOmission	2.082006	0.914374	0	1
344.354034	0.792269	city	2	1	0.896843	0.896843	0	1	0	0	CorrectCommission	1.767398	0.907212	0	1
345.146362	0.792371	city	10	1	0.650546	0.650546	0	1	0	0	CorrectCommission	1.612901	0.894651	0	1
345.938629	0.792155	city	2	1	0.761199	0.761199	0	1	0	0	CorrectCommission	0.094240	0.876879	0	1
346.730835	0.792266	city	7	1	0.801686	0.801686	0	1	0	0	CorrectCommission	0.461418	0.854606	0	1
347.523163	0.792348	city	4	1	0.801520	0.801520	0	1	0	0	CorrectCommission	0.459135	0.828908	0	1
348.315460	0.792289	city	6	1	0.705402	0.705402	0	1	0	0	CorrectCommission	0.860037	0.801072	0	1
349.107697	0.792156	city	10	1	0.744647	0.744647	0	1	0	0	CorrectCommission	0.321412	0.772403	0	1
349.899994	0.792483	city	6	1	0.896912	0.896912	0	1	0	0	CorrectCommission	1.768346	0.744173	1	1
350.692291	0.792086	city	7	1	0.705037	0.705037	0	1	0	0	CorrectCommission	0.865044	0.717458	1	1
351.484436	0.792225	city	4	1	0.744753	0.744753	0	1	0	0	CorrectCommission	0.319961	0.693217	1	1
352.276733	0.792375	city	2	1	0.759708	0.759708	0	1	0	0	CorrectCommission	0.114708	0.672221	1	1
353.069000	0.792155	city	3	1	0.799046	0.799046	0	1	0	0	CorrectCommission	0.425181	0.655120	1	1
353.861267	0.792375	city	6	1	0.855700	0.855700	0	1	0	0	CorrectCommission	1.202739	0.642409	1	1
354.653564	0.792174	city	5	1	0.697924	0.697924	0	1	0	0	CorrectCommission	0.962669	0.634435	1	1
355.445770	0.792249	city	8	1	0.764781	0.764781	0	1	0	0	CorrectCommission	0.045086	0.631374	1	1
356.238068	0.792371	city	6	1	0.744781	0.744781	0	1	0	0	CorrectCommission	0.319569	0.633250	1	1
357.030334	0.792158	city	5	1	0.709992	0.709992	0	1	0	0	CorrectCommission	0.797038	0.639829	1	1
357.822601	0.792371	city	9	1	0.744864	0.744864	0	1	0	0	CorrectCommission	0.318430	0.650646	1	1
358.614868	0.792158	city	5	1	0.744900	0.744900	0	1	0	0	CorrectCommission	0.317937	0.664990	1	1
359.407104	0.792336	city	9	1	0.696567	0.696567	0	1	0	0	CorrectCommission	0.981288	0.681939	1	1
360.199371	0.792204	city	7	1	0.695250	0.695250	0	1	0	0	CorrectCommission	0.999358	0.700378	1	1
360.991638	0.792323	city	5	1	0.702743	0.702743	0	1	0	0	CorrectCommission	0.896528	0.719089	1	1
361.784027	0.792410	city	10	1	0.758785	0.758785	0	1	0	0	CorrectCommission	0.127382	0.736854	1	1
362.576355	0.792265	city	6	1	0.843660	0.843660	0	1	0	0	CorrectCommission	1.037492	0.752532	1	1
363.368500	0.792048	city	5	1	0.843639	0.843639	0	1	0	0	CorrectCommission	1.037195	0.765084	0	1
364.160675	0.792271	city	4	1	0.707143	0.707143	0	1	0	0	CorrectCommission	0.836132	0.773727	0	1
364.952942	0.792257	city	8	1	0.695283	0.695283	0	1	0	0	CorrectCommission	0.998912	0.777952	0	0
365.745178	0.792266	city	6	1	0.801400	0.801400	0	1	0	0	CorrectCommission	0.457498	0.777597	0	0
366.537476	0.792270	city	5	1	0.707253	0.707253	0	1	0	0	CorrectCommission	0.834632	0.772952	0	0
367.329712	0.792259	city	1	1	0.708359	0.708359	0	1	0	0	CorrectCommission	0.819444	0.764709	0	0
368.122101	0.792483	city	7	1	0.850959	0.850959	0	1	0	0	CorrectCommission	1.137668	0.754016	1	0
368.914368	0.792051	city	9	1	0.698461	0.698461	0	1	0	0	CorrectCommission	0.955289	0.742376	1	0
369.706573	0.792370	city	3	1	0.697842	0.697842	0	1	0	0	CorrectCommission	0.963789	0.731554	1	0
370.498932	0.792374	city	9	1	0.754498	0.754498	0	1	0	0	CorrectCommission	0.186216	0.723337	1	0
371.291168	0.792048	city	7	1	0.850055	0.850055	0	1	0	0	CorrectCommission	1.125261	0.719276	1	0
372.083313	0.792264	city	9	1	0.759793	0.759793	0	1	0	0	CorrectCommission	0.113546	0.720434	1	0
372.875580	0.792264	city	4	1	0.796769	0.796769	0	1	0	0	CorrectCommission	0.393936	0.727258	1	0
373.667938	0.792483	city	8	1	0.744868	0.744868	0	1	0	0	CorrectCommission	0.318386	0.739393	1	0
374.460327	0.792264	city	10	1	0.794227	0.794227	0	1	0	0	CorrectCommission	0.359041	0.755720	1	0
375.252594	0.792264	city	8	1	0.794059	0.794059	0	1	0	0	CorrectCommission	0.356737	0.774542	0	0
376.044769	0.792120	city	1	1	0.807255	0.807255	0	1	0	0	CorrectCommission	0.537846	0.793857	0	0
376.836975	0.792302	mountain	8	0	0.000000	0.900020	1	0	0	0	CorrectOmission	1.810998	0.811686	0	0
377.629333	0.792373	mountain	10	1	0.942772	0.942772	0	0	1	0	CommissionError	2.397748	0.826378	0	0
378.421539	0.792055	city	4	1	0.805929	0.805929	0	1	0	0	CorrectCommission	0.519646	0.836887	0	0
379.213684	0.792256	city	9	1	0.893473	0.893473	0	1	0	0	CorrectCommission	1.721143	0.842857	0	0
380.005951	0.792265	city	3	1	0.744820	0.744820	0	1	0	0	CorrectCommission	0.319035	0.844423	0	0
380.798279	0.792374	city	2	1	0.749583	0.749583	0	1	0	0	CorrectCommission	0.253665	0.842126	0	0
381.590546	0.792158	city	8	1	0.802281	0.802281	0	1	0	0	CorrectCommission	0.469590	0.836615	0	0
382.382782	0.792311	city	5	1	0.744790	0.744790	0	1	0	0	CorrectCommission	0.319453	0.828446	0	0
383.175110	0.792324	city	8	1	0.800678	0.800678	0	1	0	0	CorrectCommission	0.447578	0.818001	0	0
383.967438	0.792374	city	2	1	0.794202	0.794202	0	1	0	0	CorrectCommission	0.358705	0.805518	0	0
384.759644	0.792046	city	4	1	0.942610	0.942610	0	1	0	0	CorrectCommission	2.395534	0.791264	0	0
385.551819	0.792265	city	10	1	0.942890	0.942890	0	1	0	0	CorrectCommission	2.399370	0.775654	0	0
386.344086	0.792293	city	4	1	0.751803	0.751803	0	1	0	0	CorrectCommission	0.223204	0.759507	1	0
387.136414	0.792347	mountain	5	0	0.000000	0.759176	1	0	0	0	CorrectOmission	0.122011	0.744087	1	0
387.928772	0.792372	city	4	1	0.797331	0.797331	0	1	0	0	CorrectCommission	0.401652	0.730984	1	0
388.720978	0.792049	city	3	1	0.698591	0.698591	0	1	0	0	CorrectCommission	0.953510	0.721904	1	0
389.513245	0.792480	city	9	1	0.751153	0.751153	0	1	0	0	CorrectCommission	0.232123	0.718439	1	0
390.305511	0.792051	mountain	3	0	0.000000	0.788024	1	0	0	0	CorrectOmission	0.273918	0.721795	1	0
391.097656	0.792261	city	8	1	0.804386	0.804386	0	1	0	0	CorrectCommission	0.498470	0.732506	1	0
391.890045	0.792483	city	1	1	0.795418	0.795418	0	1	0	0	CorrectCommission	0.375390	0.750348	1	0
392.682343	0.792156	city	2	1	0.794099	0.794099	0	1	0	0	CorrectCommission	0.357292	0.774306	0	0
393.474518	0.792157	city	9	1	0.901224	0.901224	0	1	0	0	CorrectCommission	1.827521	0.802683	0	0
394.266724	0.792283	city	7	1	0.698716	0.698716	0	1	0	0	CorrectCommission	0.951793	0.833262	0	0
395.058990	0.792244	city	1	1	0.712794	0.712794	0	1	0	0	CorrectCommission	0.758580	0.863602	0	0
395.851257	0.792267	city	7	1	0.759770	0.759770	0	1	0	0	CorrectCommission	0.113851	0.891367	0	0
396.643524	0.792263	city	3	1	0.865410	0.865410	0	1	0	0	CorrectCommission	1.335997	0.914497	0	0
397.435822	0.792354	city	9	1	0.650594	0.650594	0	1	0	0	CorrectCommission	1.612238	0.931497	0	0
398.228088	0.792175	city	3	1	0.695219	0.695219	0	1	0	0	CorrectCommission	0.999790	0.941641	0	0
399.020325	0.792312	city	2	1	0.699743	0.699743	0	1	0	0	CorrectCommission	0.937700	0.945035	0	0
399.812592	0.792222	city	7	1	0.893310	0.893310	0	1	0	0	CorrectCommission	1.718912	0.942589	0	0
400.604950	0.792478	city	8	1	0.699568	0.699568	0	1	0	0	CorrectCommission	0.940096	0.935903	0	0
401.397308	0.792265	city	3	1	0.695849	0.695849	0	1	0	0	CorrectCommission	0.991144	0.927112	0	0
402.189484	0.792047	city	1	1	0.794587	0.794587	0	1	0	0	CorrectCommission	0.363983	0.918497	0	0
402.981689	0.792372	city	3	1	0.844050	0.844050	0	1	0	0	CorrectCommission	1.042838	0.912220	0	0
403.773956	0.792158	city	4	1	0.802138	0.802138	0	1	0	0	CorrectCommission	0.467627	0.910068	0	0
404.566162	0.792282	city	5	1	0.799707	0.799707	0	1	0	0	CorrectCommission	0.434261	0.913153	0	0
405.358429	0.792250	city	4	1	0.843902	0.843902	0	1	0	0	CorrectCommission	1.040814	0.921803	0	0
406.150696	0.792260	mountain	10	0	0.000000	0.755275	1	0	0	0	CorrectOmission	0.175546	0.935518	0	0
406.943024	0.792374	city	2	1	0.663651	0.663651	0	1	0	0	CorrectCommission	1.433039	0.953161	0	0
407.735291	0.792157	city	3	1	0.698855	0.698855	0	1	0	0	CorrectCommission	0.949888	0.973069	0	0
408.527588	0.792482	city	6	1	0.695167	0.695167	0	1	0	0	CorrectCommission	1.000502	0.993353	0	0
409.319885	0.792124	city	1	1	0.646390	0.646390	0	1	0	0	CorrectCommission	1.669947	1.012183	0	0
410.112091	0.792247	city	5	1	0.744847	0.744847	0	1	0	0	CorrectCommission	0.318663	1.027982	0	0
410.904327	0.792207	city	8	1	0.942843	0.942843	0	1	0	0	CorrectCommission	2.398727	1.039640	0	0
411.696533	0.792262	city	9	1	0.806533	0.806533	0	1	0	0	CorrectCommission	0.527944	1.046524	0	0
412.488800	0.792265	city	8	1	0.702475	0.702475	0	1	0	0	CorrectCommission	0.900209	1.048598	0	0
413.281189	0.792481	city	2	1	0.645677	0.645677	0	1	0	0	CorrectCommission	1.679731	1.046244	0	0
414.073486	0.792102	city	9	1	0.699666	0.699666	0	1	0	0	CorrectCommission	0.938750	1.040123	0	0
414.865631	0.792214	city	6	1	0.744847	0.744847	0	1	0	0	CorrectCommission	0.318663	1.031071	0	0
415.657928	0.792370	city	1	1	0.695436	0.695436	0	1	0	0	CorrectCommission	0.996812	1.019926	0	0
416.450195	0.792156	city	6	1	0.650694	0.650694	0	1	0	0	CorrectCommission	1.610867	1.007404	0	0
417.242401	0.792269	city	7	1	0.701511	0.701511	0	1	0	0	CorrectCommission	0.913440	0.994021	0	0
418.034668	0.792265	city	8	1	0.749610	0.749610	0	1	0	0	CorrectCommission	0.253303	0.980113	0	0
418.826935	0.792264	city	5	1	0.949589	0.949589	0	1	0	0	CorrectCommission	2.491310	0.965823	0	0
419.619232	0.792340	city	3	1	0.794963	0.794963	0	1	0	0	CorrectCommission	0.369150	0.951046	0	0
420.411499	0.792187	city	2	1	0.794218	0.794218	0	1	0	0	CorrectCommission	0.358919	0.935623	0	0
421.203766	0.792375	city	1	1	0.745686	0.745686	0	1	0	0	CorrectCommission	0.307152	0.919327	0	0
421.996155	0.792374	city	3	1	0.864758	0.864758	0	1	0	0	CorrectCommission	1.327048	0.901956	0	0
422.788422	0.792155	city	5	1	0.893139	0.893139	0	1	0	0	CorrectCommission	1.716562	0.883387	0	0
423.580566	0.792175	city	4	1	0.801470	0.801470	0	1	0	0	CorrectCommission	0.458457	0.863717	0	0
424.372833	0.792354	city	6	1	0.893403	0.893403	0	1	0	0	CorrectCommission	1.720194	0.843278	0	1
425.165100	0.792169	city	10	1	0.711854	0.711854	0	1	0	0	CorrectCommission	0.771477	0.822557	0	1
425.957367	0.792360	city	6	1	0.794337	0.794337	0	1	0	0	CorrectCommission	0.360555	0.802223	0	1
426.749725	0.792374	city	9	1	0.759208	0.759208	0	1	0	0	CorrectCommission	0.121565	0.782958	0	1
427.541962	0.792048	city	3	1	0.797602	0.797602	0	1	0	0	CorrectCommission	0.405363	0.765403	0	1
428.334167	0.792372	city	5	1	0.847821	0.847821	0	1	0	0	CorrectCommission	1.094601	0.749982	1	1
429.126434	0.792169	city	4	1	0.849072	0.849072	0	1	0	0	CorrectCommission	1.111769	0.736894	1	1
429.918762	0.792471	city	6	1	0.846733	0.846733	0	1	0	0	CorrectCommission	1.079667	0.726100	1	1
430.710999	0.792049	city	4	1	0.757085	0.757085	0	1	0	0	CorrectCommission	0.150715	0.717307	1	1
431.503174	0.792262	city	1	1	0.709543	0.709543	0	1	0	0	CorrectCommission	0.803195	0.710043	1	1
432.295441	0.792268	city	5	1	0.744901	0.744901	0	1	0	0	CorrectCommission	0.317927	0.703691	1	1
433.087738	0.792373	city	8	1	0.748840	0.748840	0	1	0	0	CorrectCommission	0.263866	0.697638	1	1
433.880127	0.792373	city	6	1	0.893276	0.893276	0	1	0	0	CorrectCommission	1.718447	0.691358	1	1
434.672455	0.792264	city	2	1	0.745057	0.745057	0	1	0	0	CorrectCommission	0.315788	0.684508	1	1
435.464691	0.792266	city	9	1	0.744706	0.744706	0	1	0	0	CorrectCommission	0.320598	0.677133	1	1
436.256958	0.792263	city	2	1	0.649459	0.649459	0	1	0	0	CorrectCommission	1.627814	0.669535	1	1
437.049133	0.792049	city	9	1	0.700841	0.700841	0	1	0	0	CorrectCommission	0.922625	0.662342	1	1
437.841278	0.792266	city	4	1	0.749511	0.749511	0	1	0	0	CorrectCommission	0.254654	0.656428	1	1
438.633545	0.792261	city	6	1	0.794267	0.794267	0	1	0	0	CorrectCommission	0.359602	0.652696	1	1
439.425812	0.792268	city	9	1	0.708228	0.708228	0	1	0	0	CorrectCommission	0.821248	0.651878	1	1
440.218079	0.792285	city	7	1	0.744774	0.744774	0	1	0	0	CorrectCommission	0.319672	0.654325	1	1
441.010345	0.792244	city	9	1	0.761227	0.761227	0	1	0	0	CorrectCommission	0.093866	0.659950	1	1
441.802612	0.792301	city	8	1	0.794718	0.794718	0	1	0	0	CorrectCommission	0.365779	0.668108	1	1
442.594879	0.792226	city	5	1	0.705314	0.705314	0	1	0	0	CorrectCommission	0.861235	0.677698	1	1
443.387238	0.792483	city	10	1	0.704551	0.704551	0	1	0	0	CorrectCommission	0.871707	0.687315	1	1
444.179565	0.792155	city	7	1	0.744581	0.744581	0	1	0	0	CorrectCommission	0.322316	0.695497	1	1
444.971710	0.792156	mountain	8	0	0.000000	0.866007	1	0	0	0	CorrectOmission	1.344184	0.700962	1	1
445.763916	0.792265	city	3	1	0.905582	0.905582	0	1	0	0	CorrectCommission	1.887338	0.702752	1	1
446.556213	0.792288	city	7	1	0.700063	0.700063	0	1	0	0	CorrectCommission	0.933310	0.700395	1	1
447.348480	0.792244	city	6	1	0.766574	0.766574	0	1	0	0	CorrectCommission	0.020475	0.693945	1	1
448.140717	0.792264	city	1	1	0.747865	0.747865	0	1	0	0	CorrectCommission	0.277249	0.683848	1	1
448.932983	0.792264	city	6	1	0.813913	0.813913	0	1	0	0	CorrectCommission	0.629226	0.670796	1	1
449.725372	0.792479	city	10	1	0.801493	0.801493	0	1	0	0	CorrectCommission	0.458771	0.655595	1	1
450.517639	0.792048	city	2	1	0.856223	0.856223	0	1	0	0	CorrectCommission	1.209914	0.639063	1	1
451.309814	0.792334	mountain	4	0	0.000000	0.793191	1	0	0	0	CorrectOmission	0.344822	0.621894	1	1
452.102203	0.792414	city	1	1	0.744854	0.744854	0	1	0	0	CorrectCommission	0.318569	0.604746	1	1
452.894531	0.792263	city	10	1	0.843674	0.843674	0	1	0	0	CorrectCommission	1.037678	0.588219	1	1
453.686676	0.792047	mountain	9	1	0.798436	0.798436	0	0	1	0	CommissionError	0.416807	0.572889	1	1
454.478851	0.792265	city	4	1	0.843843	0.843843	0	1	0	0	CorrectCommission	1.040004	0.559393	1	1
455.271118	0.792267	city	6	1	0.744791	0.744791	0	1	0	0	CorrectCommission	0.319438	0.548398	1	1
456.063385	0.792262	city	4	1	0.798052	0.798052	0	1	0	0	CorrectCommission	0.411543	0.540595	1	1
456.855621	0.792266	city	9	1	0.797030	0.797030	0	1	0	0	CorrectCommission	0.397514	0.536548	1	1
457.648010	0.792481	city	6	1	0.794277	0.794277	0	1	0	0	CorrectCommission	0.359736	0.536665	1	1
458.440338	0.792157	city	3	1	0.744713	0.744713	0	1	0	0	CorrectCommission	0.320508	0.541114	1	1
459.232605	0.792372	city	6	1	0.796964	0.796964	0	1	0	0	CorrectCommission	0.396616	0.549777	1	1
460.024811	0.792057	city	8	1	0.803708	0.803708	0	1	0	0	CorrectCommission	0.489171	0.562257	1	1
460.817078	0.792477	city	1	1	0.744769	0.744769	0	1	0	0	CorrectCommission	0.319736	0.577947	1	1
461.609375	0.792153	city	8	1	0.794134	0.794134	0	1	0	0	CorrectCommission	0.357767	0.596171	1	1
462.401611	0.792266	city	5	1	0.893215	0.893215	0	1	0	0	CorrectCommission	1.717612	0.616276	1	1
463.193817	0.792198	city	6	1	0.750165	0.750165	0	1	0	0	CorrectCommission	0.245684	0.637716	1	1
463.986053	0.792228	city	2	1	0.701168	0.701168	0	1	0	0	CorrectCommission	0.918146	0.660203	1	1
464.778381	0.792476	city	9	1	0.701620	0.701620	0	1	0	0	CorrectCommission	0.911932	0.683591	1	1
465.570770	0.792263	city	3	1	0.714497	0.714497	0	1	0	0	CorrectCommission	0.735205	0.707814	1	1
466.362946	0.792116	city	10	1	0.744558	0.744558	0	1	0	0	CorrectCommission	0.322629	0.732770	1	1
467.155121	0.792198	mountain	1	0	0.000000	0.769379	1	0	0	0	CorrectOmission	0.018022	0.758149	1	1
467.947357	0.792266	city	2	1	0.801218	0.801218	0	1	0	0	CorrectCommission	0.454999	0.783333	0	1
468.739594	0.792265	city	9	1	0.852335	0.852335	0	1	0	0	CorrectCommission	1.156555	0.807381	0	1
469.531921	0.792370	city	6	1	0.705032	0.705032	0	1	0	0	CorrectCommission	0.865111	0.829073	0	1
470.324188	0.792156	city	2	1	0.645643	0.645643	0	1	0	0	CorrectCommission	1.680193	0.847038	0	1
471.116516	0.792482	city	10	1	0.645821	0.645821	0	1	0	0	CorrectCommission	1.677746	0.859903	0	1
471.908783	0.792047	city	4	1	0.751202	0.751202	0	1	0	0	CorrectCommission	0.231456	0.866465	0	1
472.700928	0.792263	city	3	1	0.744695	0.744695	0	1	0	0	CorrectCommission	0.320754	0.865876	0	1
473.493195	0.792267	mountain	9	1	0.711770	0.711770	0	0	1	0	CommissionError	0.772640	0.857682	0	1
474.285461	0.792262	city	4	1	0.662457	0.662457	0	1	0	0	CorrectCommission	1.449431	0.841912	0	1
475.077820	0.792484	city	10	1	0.655121	0.655121	0	1	0	0	CorrectCommission	1.550109	0.819088	0	1
475.870087	0.792047	city	9	1	0.696122	0.696122	0	1	0	0	CorrectCommission	0.987388	0.790193	0	1
476.662262	0.792267	city	1	1	0.702794	0.702794	0	1	0	0	CorrectCommission	0.895819	0.756573	1	1
477.454529	0.792280	mountain	1	0	0.000000	0.722491	1	0	0	0	CorrectOmission	0.625490	0.719741	1	1
478.246796	0.792250	city	9	1	0.744805	0.744805	0	1	0	0	CorrectCommission	0.319244	0.681274	1	1
479.039062	0.792263	city	6	1	0.759328	0.759328	0	1	0	0	CorrectCommission	0.119924	0.642610	1	1
479.831299	0.792268	city	9	1	0.794310	0.794310	0	1	0	0	CorrectCommission	0.360187	0.604907	1	1
480.623627	0.792370	city	7	1	0.757513	0.757513	0	1	0	0	CorrectCommission	0.144833	0.569003	1	1
481.415924	0.792212	city	3	1	0.896284	0.896284	0	1	0	0	CorrectCommission	1.759727	0.535398	1	1
482.208130	0.792209	city	4	1	0.799904	0.799904	0	1	0	0	CorrectCommission	0.436965	0.504257	1	1
483.000366	0.792264	city	3	1	0.744810	0.744810	0	1	0	0	CorrectCommission	0.319183	0.475572	1	1
483.792694	0.792375	city	6	1	0.794483	0.794483	0	1	0	0	CorrectCommission	0.362557	0.449141	1	1
484.584961	0.792171	city	4	1	0.750726	0.750726	0	1	0	0	CorrectCommission	0.237976	0.424648	1	1
485.377197	0.792285	city	1	1	0.754383	0.754383	0	1	0	0	CorrectCommission	0.187793	0.401700	1	1
486.169495	0.792337	city	6	1	0.744829	0.744829	0	1	0	0	CorrectCommission	0.318918	0.379824	1	1
486.961792	0.792263	city	9	1	0.794188	0.794188	0	1	0	0	CorrectCommission	0.358513	0.358513	1	1
