onset	duration	trial_type	image_type	Press	ReactionTime	ReactionTime_Interpolated	CorrectOmission	CorrectCommission	CommissionError	OmissionError	response_type	nonsmoothVarianceTimeCourse	VarianceTimeCourse	In_the_Zone	Reward_trial
8.433867	0.792159	city	9	1	0.704230	0.704230	0	1	0	0	CorrectCommission	0.658954	0.658954	1	1
9.226080	0.792266	city	1	1	0.404693	0.404693	0	1	0	0	CorrectCommission	1.941012	0.777591	0	1
10.018397	0.792369	city	5	1	0.405463	0.405463	0	1	0	0	CorrectCommission	1.934332	0.889591	0	1
10.810769	0.792374	city	4	1	0.448060	0.448060	0	1	0	0	CorrectCommission	1.564586	0.988942	0	1
11.602980	0.792048	mountain	4	1	0.447509	0.447509	0	0	1	0	CommissionError	1.569375	1.070726	0	1
12.395136	0.792264	city	4	1	0.497203	0.497203	0	1	0	0	CorrectCommission	1.138026	1.131521	0	1
13.187509	0.792482	city	1	1	0.447845	0.447845	0	1	0	0	CorrectCommission	1.566458	1.169631	0	1
13.979828	0.792156	city	5	1	0.451122	0.451122	0	1	0	0	CorrectCommission	1.538014	1.185138	0	1
14.771984	0.792156	city	1	1	0.447589	0.447589	0	1	0	0	CorrectCommission	1.568681	1.179803	0	1
15.564195	0.792265	city	8	1	0.448406	0.448406	0	1	0	0	CorrectCommission	1.561582	1.156877	0	1
16.356514	0.792373	city	7	1	0.447722	0.447722	0	1	0	0	CorrectCommission	1.567523	1.120776	0	1
17.148779	0.792159	city	5	1	0.465961	0.465961	0	1	0	0	CorrectCommission	1.409212	1.076690	0	1
17.940990	0.792265	city	2	1	0.557699	0.557699	0	1	0	0	CorrectCommission	0.612925	1.030097	0	1
18.733269	0.792289	city	9	1	0.695325	0.695325	0	1	0	0	CorrectCommission	0.581654	0.986292	0	1
19.525639	0.792454	mountain	9	0	0.000000	0.602554	1	0	0	0	CorrectOmission	0.223588	0.949863	0	1
20.317892	0.792052	city	4	1	0.496998	0.496998	0	1	0	0	CorrectCommission	1.139806	0.924292	0	1
21.110048	0.792260	city	3	1	0.596267	0.596267	0	1	0	0	CorrectCommission	0.278158	0.911562	0	1
21.902365	0.792373	city	7	1	0.549135	0.549135	0	1	0	0	CorrectCommission	0.687260	0.912052	0	1
22.694632	0.792157	city	9	1	0.645659	0.645659	0	1	0	0	CorrectCommission	0.150556	0.924455	0	1
23.486895	0.792371	mountain	8	0	0.000000	0.579197	1	0	0	0	CorrectOmission	0.426327	0.945998	0	1
24.279213	0.792265	city	10	1	0.497076	0.497076	0	1	0	0	CorrectCommission	1.139135	0.972782	0	1
25.071426	0.792162	city	6	1	0.546620	0.546620	0	1	0	0	CorrectCommission	0.709093	1.000296	0	1
25.863640	0.792264	city	7	1	0.398801	0.398801	0	1	0	0	CorrectCommission	1.992151	1.024044	0	1
26.656012	0.792479	city	5	1	0.458921	0.458921	0	1	0	0	CorrectCommission	1.470319	1.040056	0	1
27.448277	0.792050	city	6	1	0.453937	0.453937	0	1	0	0	CorrectCommission	1.513575	1.045484	0	1
28.240431	0.792260	mountain	2	1	0.398238	0.398238	0	0	1	0	CommissionError	1.997038	1.038887	0	1
29.032700	0.792279	city	5	1	0.448101	0.448101	0	1	0	0	CorrectCommission	1.564235	1.020337	0	1
29.824966	0.792253	city	1	1	0.549485	0.549485	0	1	0	0	CorrectCommission	0.684222	0.991338	0	1
30.617226	0.792267	mountain	8	0	0.000000	0.704194	1	0	0	0	CorrectOmission	0.658642	0.954470	0	1
31.409544	0.792370	city	1	1	0.745966	0.745966	0	1	0	0	CorrectCommission	1.021215	0.912900	0	1
32.201824	0.792191	city	4	1	0.508538	0.508538	0	1	0	0	CorrectCommission	1.039642	0.869870	0	1
32.994049	0.792255	city	2	1	0.656430	0.656430	0	1	0	0	CorrectCommission	0.244048	0.828230	0	1
33.786312	0.792270	city	4	1	0.612575	0.612575	0	1	0	0	CorrectCommission	0.136605	0.790069	0	1
34.578617	0.792341	city	10	1	0.646156	0.646156	0	1	0	0	CorrectCommission	0.154870	0.756490	1	1
35.370975	0.792374	city	2	1	0.745296	0.745296	0	1	0	0	CorrectCommission	1.015407	0.727621	1	1
36.163239	0.792155	city	4	1	0.596041	0.596041	0	1	0	0	CorrectCommission	0.280121	0.702760	1	1
36.955421	0.792213	city	2	1	0.459122	0.459122	0	1	0	0	CorrectCommission	1.468569	0.680728	1	1
37.747688	0.792319	city	10	1	0.497169	0.497169	0	1	0	0	CorrectCommission	1.138328	0.660102	1	1
38.540035	0.792372	city	9	1	0.695149	0.695149	0	1	0	0	CorrectCommission	0.580132	0.639647	1	1
39.332272	0.792101	city	1	1	0.695981	0.695981	0	1	0	0	CorrectCommission	0.587349	0.618544	1	1
40.124481	0.792321	city	2	1	0.596238	0.596238	0	1	0	0	CorrectCommission	0.278416	0.596515	1	1
40.916775	0.792263	city	5	1	0.506368	0.506368	0	1	0	0	CorrectCommission	1.058475	0.573857	1	1
41.708984	0.792155	city	2	1	0.546906	0.546906	0	1	0	0	CorrectCommission	0.706613	0.551316	1	1
42.501194	0.792268	city	4	1	0.596694	0.596694	0	1	0	0	CorrectCommission	0.274457	0.530038	1	1
43.293461	0.792262	city	6	1	0.649755	0.649755	0	1	0	0	CorrectCommission	0.186115	0.511313	1	1
44.085724	0.792264	city	10	1	0.646208	0.646208	0	1	0	0	CorrectCommission	0.155325	0.496427	1	1
44.877995	0.792280	city	1	1	0.695249	0.695249	0	1	0	0	CorrectCommission	0.581001	0.486526	1	1
45.670258	0.792249	city	6	1	0.695771	0.695771	0	1	0	0	CorrectCommission	0.585525	0.482498	1	1
46.462521	0.792270	city	3	1	0.646273	0.646273	0	1	0	0	CorrectCommission	0.155886	0.484924	1	1
47.254784	0.792260	city	1	1	0.607711	0.607711	0	1	0	0	CorrectCommission	0.178830	0.494070	1	1
48.047047	0.792269	city	8	1	0.695723	0.695723	0	1	0	0	CorrectCommission	0.585111	0.509852	1	1
48.839314	0.792261	mountain	5	0	0.000000	0.723315	1	0	0	0	CorrectOmission	0.824609	0.531839	1	1
49.631683	0.792483	city	7	1	0.705262	0.705262	0	1	0	0	CorrectCommission	0.667913	0.559263	1	1
50.423950	0.792048	mountain	6	0	0.000000	0.656340	1	0	0	0	CorrectOmission	0.243274	0.591027	1	1
51.216133	0.792317	city	10	1	0.596767	0.596767	0	1	0	0	CorrectCommission	0.273824	0.625717	1	1
52.008396	0.792210	city	9	1	0.546758	0.546758	0	1	0	0	CorrectCommission	0.707897	0.661642	1	1
52.800690	0.792375	mountain	7	0	0.000000	0.600067	1	0	0	0	CorrectOmission	0.245175	0.696946	1	1
53.592953	0.792157	city	4	1	0.614470	0.614470	0	1	0	0	CorrectCommission	0.120156	0.729796	1	1
54.385166	0.792269	city	6	1	0.447744	0.447744	0	1	0	0	CorrectCommission	1.567334	0.758589	1	1
55.177433	0.792265	city	10	1	0.398826	0.398826	0	1	0	0	CorrectCommission	1.991935	0.782154	0	1
55.969696	0.792259	city	5	1	0.461706	0.461706	0	1	0	0	CorrectCommission	1.446146	0.799939	0	1
56.761959	0.792264	city	8	1	0.596246	0.596246	0	1	0	0	CorrectCommission	0.278344	0.812125	0	1
57.554333	0.792489	city	7	1	0.497216	0.497216	0	1	0	0	CorrectCommission	1.137915	0.819601	0	1
58.346600	0.792043	city	9	1	0.555682	0.555682	0	1	0	0	CorrectCommission	0.630440	0.823776	0	1
59.138752	0.792264	city	4	1	0.596204	0.596204	0	1	0	0	CorrectCommission	0.278703	0.826433	0	1
59.931019	0.792266	city	8	1	0.564650	0.564650	0	1	0	0	CorrectCommission	0.552596	0.829448	0	1
60.723282	0.792264	city	2	1	0.497107	0.497107	0	1	0	0	CorrectCommission	1.138865	0.834516	0	1
61.515549	0.792267	city	7	1	0.546726	0.546726	0	1	0	0	CorrectCommission	0.708169	0.842947	0	1
62.307816	0.792266	city	2	1	0.547308	0.547308	0	1	0	0	CorrectCommission	0.703124	0.855582	0	1
63.100079	0.792260	city	6	1	0.546711	0.546711	0	1	0	0	CorrectCommission	0.708302	0.872612	0	1
63.892342	0.792266	city	1	1	0.515737	0.515737	0	1	0	0	CorrectCommission	0.977153	0.893620	0	1
64.684715	0.792481	city	6	1	0.497242	0.497242	0	1	0	0	CorrectCommission	1.137694	0.917604	0	1
65.477036	0.792158	city	1	1	0.546499	0.546499	0	1	0	0	CorrectCommission	0.710142	0.943072	0	1
66.269196	0.792166	city	7	1	0.546730	0.546730	0	1	0	0	CorrectCommission	0.708141	0.968202	0	1
67.061409	0.792254	city	6	1	0.548044	0.548044	0	1	0	0	CorrectCommission	0.696735	0.991004	0	1
67.853661	0.792263	city	1	1	0.456990	0.456990	0	1	0	0	CorrectCommission	1.487074	1.009582	0	0
68.645981	0.792375	city	8	1	0.596299	0.596299	0	1	0	0	CorrectCommission	0.277883	1.022336	0	0
69.438248	0.792158	city	2	1	0.409904	0.409904	0	1	0	0	CorrectCommission	1.895777	1.028228	0	0
70.230568	0.792479	city	4	1	0.299563	0.299563	0	1	0	0	CorrectCommission	2.853529	1.026840	0	0
71.022888	0.792156	city	9	1	0.546643	0.546643	0	1	0	0	CorrectCommission	0.708895	1.018502	0	0
71.815041	0.792159	city	6	1	0.546939	0.546939	0	1	0	0	CorrectCommission	0.706327	1.004255	0	0
72.607361	0.792479	city	5	1	0.546740	0.546740	0	1	0	0	CorrectCommission	0.708052	0.985580	0	0
73.399643	0.792084	city	6	1	0.762258	0.762258	0	1	0	0	CorrectCommission	1.162630	0.964214	0	0
74.191833	0.792298	city	1	1	0.547186	0.547186	0	1	0	0	CorrectCommission	0.704183	0.941867	0	0
74.984192	0.792414	city	7	1	0.562161	0.562161	0	1	0	0	CorrectCommission	0.574197	0.920030	0	0
75.776527	0.792265	city	5	1	0.645975	0.645975	0	1	0	0	CorrectCommission	0.153298	0.899841	0	0
76.568687	0.792049	city	10	1	0.609669	0.609669	0	1	0	0	CorrectCommission	0.161830	0.882076	0	0
77.360847	0.792265	city	7	1	0.942845	0.942845	0	1	0	0	CorrectCommission	2.730113	0.867199	0	0
78.153130	0.792304	city	8	1	0.749491	0.749491	0	1	0	0	CorrectCommission	1.051817	0.855469	0	0
78.945389	0.792222	city	6	1	0.565131	0.565131	0	1	0	0	CorrectCommission	0.548416	0.847229	0	0
79.737633	0.792265	city	7	1	0.546684	0.546684	0	1	0	0	CorrectCommission	0.708537	0.842902	0	0
80.530006	0.792482	city	2	1	0.550999	0.550999	0	1	0	0	CorrectCommission	0.671083	0.843032	0	0
81.322273	0.792048	city	1	1	0.710254	0.710254	0	1	0	0	CorrectCommission	0.711236	0.848229	0	0
82.114433	0.792268	city	6	1	0.596437	0.596437	0	1	0	0	CorrectCommission	0.276683	0.859031	0	0
82.906700	0.792264	mountain	2	0	0.000000	0.527177	1	0	0	0	CorrectOmission	0.877854	0.875741	0	0
83.698959	0.792263	mountain	3	1	0.499660	0.499660	0	0	1	0	CommissionError	1.116705	0.898205	0	0
84.491280	0.792370	city	5	1	0.511070	0.511070	0	1	0	0	CorrectCommission	1.017664	0.925679	0	0
85.283546	0.792160	city	7	1	0.566640	0.566640	0	1	0	0	CorrectCommission	0.535323	0.956734	0	0
86.075768	0.792295	city	3	1	0.546793	0.546793	0	1	0	0	CorrectCommission	0.707595	0.989254	0	0
86.868034	0.792233	city	4	1	0.497186	0.497186	0	1	0	0	CorrectCommission	1.138179	1.020488	0	0
87.660393	0.792481	city	7	1	0.497186	0.497186	0	1	0	0	CorrectCommission	1.138175	1.047254	0	0
88.452660	0.792052	mountain	5	1	0.497930	0.497930	0	0	1	0	CommissionError	1.131721	1.066309	0	0
89.244865	0.792369	city	9	1	0.596238	0.596238	0	1	0	0	CorrectCommission	0.278409	1.074675	0	0
90.037239	0.792373	city	7	1	0.450425	0.450425	0	1	0	0	CorrectCommission	1.544057	1.070072	0	0
90.829453	0.792047	city	6	1	0.305760	0.305760	0	1	0	0	CorrectCommission	2.799742	1.051213	0	0
91.621605	0.792272	city	4	1	0.313076	0.313076	0	1	0	0	CorrectCommission	2.736237	1.018077	0	0
92.413910	0.792337	city	9	1	0.497170	0.497170	0	1	0	0	CorrectCommission	1.138320	0.971968	0	0
93.206284	0.792403	city	7	1	0.600920	0.600920	0	1	0	0	CorrectCommission	0.237771	0.915370	0	0
93.998619	0.792265	city	5	1	0.649496	0.649496	0	1	0	0	CorrectCommission	0.183864	0.851619	0	0
94.790771	0.792047	city	2	1	0.663959	0.663959	0	1	0	0	CorrectCommission	0.309403	0.784442	0	0
95.582932	0.792266	city	6	1	0.695279	0.695279	0	1	0	0	CorrectCommission	0.581261	0.717648	1	0
96.375198	0.792266	city	2	1	0.704644	0.704644	0	1	0	0	CorrectCommission	0.662547	0.654704	1	0
97.167572	0.792482	city	9	1	0.695266	0.695266	0	1	0	0	CorrectCommission	0.581147	0.598519	1	0
97.959831	0.792047	city	7	1	0.596151	0.596151	0	1	0	0	CorrectCommission	0.279164	0.551318	1	0
98.751991	0.792267	mountain	2	0	0.000000	0.587937	1	0	0	0	CorrectOmission	0.350461	0.514656	1	0
99.544258	0.792264	city	1	1	0.645767	0.645767	0	1	0	0	CorrectCommission	0.151494	0.489440	1	0
100.336517	0.792263	city	3	1	0.744782	0.744782	0	1	0	0	CorrectCommission	1.010944	0.476033	1	0
101.128822	0.792340	city	10	1	0.645898	0.645898	0	1	0	0	CorrectCommission	0.152632	0.474283	1	0
101.921196	0.792407	mountain	10	0	0.000000	0.604446	1	0	0	0	CorrectOmission	0.207168	0.483607	1	0
102.713425	0.792052	city	1	1	0.596025	0.596025	0	1	0	0	CorrectCommission	0.280258	0.502938	1	0
103.505630	0.792370	city	9	1	0.596234	0.596234	0	1	0	0	CorrectCommission	0.278444	0.530724	1	0
104.297920	0.792209	mountain	3	0	0.000000	0.617715	1	0	0	0	CorrectOmission	0.091995	0.564912	1	0
105.090187	0.792318	city	8	1	0.616049	0.616049	0	1	0	0	CorrectCommission	0.106454	0.603023	1	0
105.882446	0.792207	city	7	1	0.546819	0.546819	0	1	0	0	CorrectCommission	0.707364	0.642233	1	0
106.674660	0.792218	city	2	1	0.460038	0.460038	0	1	0	0	CorrectCommission	1.460622	0.679570	1	0
107.466957	0.792370	city	4	1	0.456329	0.456329	0	1	0	0	CorrectCommission	1.492813	0.712126	1	0
108.259239	0.792201	city	8	1	0.546597	0.546597	0	1	0	0	CorrectCommission	0.709296	0.737332	1	0
109.051453	0.792225	city	7	1	0.546749	0.546749	0	1	0	0	CorrectCommission	0.707974	0.753155	1	0
109.843689	0.792251	city	10	1	0.652353	0.652353	0	1	0	0	CorrectCommission	0.208660	0.758308	1	0
110.635956	0.792276	city	2	1	0.844320	0.844320	0	1	0	0	CorrectCommission	1.874925	0.752400	1	0
111.428276	0.792373	city	3	1	0.546750	0.546750	0	1	0	0	CorrectCommission	0.707961	0.735927	1	0
112.220573	0.792221	city	4	1	0.506528	0.506528	0	1	0	0	CorrectCommission	1.057089	0.710357	1	0
113.012894	0.792415	city	9	1	0.695542	0.695542	0	1	0	0	CorrectCommission	0.583542	0.677933	1	0
113.805183	0.792158	city	5	1	0.447495	0.447495	0	1	0	0	CorrectCommission	1.569491	0.641515	1	0
114.597336	0.792157	city	3	1	0.649071	0.649071	0	1	0	0	CorrectCommission	0.180180	0.604298	1	0
115.389549	0.792268	city	6	1	0.645726	0.645726	0	1	0	0	CorrectCommission	0.151143	0.569533	1	0
116.181816	0.792261	city	4	1	0.646703	0.646703	0	1	0	0	CorrectCommission	0.159625	0.540176	1	0
116.974075	0.792264	city	10	1	0.610491	0.610491	0	1	0	0	CorrectCommission	0.154695	0.518613	1	0
117.766342	0.792268	city	4	1	0.610057	0.610057	0	1	0	0	CorrectCommission	0.158460	0.506421	1	0
118.558662	0.792368	city	3	1	0.561356	0.561356	0	1	0	0	CorrectCommission	0.581188	0.504284	1	0
119.350922	0.792155	mountain	2	0	0.000000	0.628624	1	0	0	0	CorrectOmission	0.002697	0.511988	1	0
120.143135	0.792268	city	7	1	0.695534	0.695534	0	1	0	0	CorrectCommission	0.583473	0.528567	1	0
120.935455	0.792370	city	3	1	0.645758	0.645758	0	1	0	0	CorrectCommission	0.151415	0.552483	1	0
121.727737	0.792195	city	8	1	0.647079	0.647079	0	1	0	0	CorrectCommission	0.162885	0.581904	1	0
122.520058	0.792451	city	9	1	0.744752	0.744752	0	1	0	0	CorrectCommission	1.010682	0.614932	1	0
123.312317	0.792063	city	5	1	0.897740	0.897740	0	1	0	0	CorrectCommission	2.338611	0.649804	1	0
124.104469	0.792242	city	9	1	0.695261	0.695261	0	1	0	0	CorrectCommission	0.581101	0.685015	1	0
124.896721	0.792264	mountain	10	0	0.000000	0.629507	1	0	0	0	CorrectOmission	0.010362	0.719467	1	0
125.689011	0.792308	city	4	1	0.645849	0.645849	0	1	0	0	CorrectCommission	0.152206	0.752343	1	0
126.481300	0.792278	mountain	2	0	0.000000	0.689655	1	0	0	0	CorrectOmission	0.532444	0.783053	0	0
127.273544	0.792207	city	3	1	0.744712	0.744712	0	1	0	0	CorrectCommission	1.010332	0.811222	0	1
128.065796	0.792296	city	10	1	0.794804	0.794804	0	1	0	0	CorrectCommission	1.445128	0.836598	0	1
128.858063	0.792232	city	6	1	0.546915	0.546915	0	1	0	0	CorrectCommission	0.706531	0.859053	0	1
129.650314	0.792266	city	8	1	0.464151	0.464151	0	1	0	0	CorrectCommission	1.424916	0.878638	0	1
130.442581	0.792275	city	9	1	0.645844	0.645844	0	1	0	0	CorrectCommission	0.152164	0.895554	0	1
131.234894	0.792365	mountain	1	1	0.794524	0.794524	0	0	1	0	CommissionError	1.442697	0.910181	0	1
132.027161	0.792153	mountain	5	0	0.000000	0.817713	1	0	0	0	CorrectOmission	1.643981	0.922976	0	1
132.819366	0.792272	city	2	1	0.747157	0.747157	0	1	0	0	CorrectCommission	1.031555	0.934444	0	1
133.611664	0.792302	city	5	1	0.614599	0.614599	0	1	0	0	CorrectCommission	0.119041	0.944968	0	1
134.403915	0.792220	city	1	1	0.645833	0.645833	0	1	0	0	CorrectCommission	0.152067	0.954708	0	1
135.196167	0.792266	city	10	1	0.695571	0.695571	0	1	0	0	CorrectCommission	0.583792	0.963497	0	1
135.988434	0.792280	city	3	1	0.843821	0.843821	0	1	0	0	CorrectCommission	1.870594	0.970826	0	1
136.780762	0.792359	city	8	1	0.794456	0.794456	0	1	0	0	CorrectCommission	1.442107	0.975913	0	1
137.573013	0.792156	city	1	1	0.744676	0.744676	0	1	0	0	CorrectCommission	1.010023	0.977802	0	1
138.365326	0.792482	city	9	1	0.744833	0.744833	0	1	0	0	CorrectCommission	1.011380	0.975508	0	1
139.157593	0.792049	city	3	1	0.695084	0.695084	0	1	0	0	CorrectCommission	0.579564	0.968163	0	1
139.949753	0.792261	city	7	1	0.843819	0.843819	0	1	0	0	CorrectCommission	1.870578	0.955165	0	1
140.742126	0.792483	city	1	1	0.695604	0.695604	0	1	0	0	CorrectCommission	0.584076	0.936229	0	1
141.534393	0.792047	city	5	1	0.646008	0.646008	0	1	0	0	CorrectCommission	0.153590	0.911583	0	1
142.326553	0.792273	mountain	6	0	0.000000	0.802755	1	0	0	0	CorrectOmission	1.514141	0.881907	0	1
143.118820	0.792269	city	3	1	0.893613	0.893613	0	1	0	0	CorrectCommission	2.302785	0.848284	0	1
143.911102	0.792281	city	1	1	0.646352	0.646352	0	1	0	0	CorrectCommission	0.156576	0.812145	0	1
144.703415	0.792345	city	7	1	0.562932	0.562932	0	1	0	0	CorrectCommission	0.567508	0.775185	0	1
145.495667	0.792172	city	10	1	0.546777	0.546777	0	1	0	0	CorrectCommission	0.707727	0.739071	1	1
146.287979	0.792465	city	5	1	0.596179	0.596179	0	1	0	0	CorrectCommission	0.278928	0.705317	1	1
147.080353	0.792266	city	8	1	0.646205	0.646205	0	1	0	0	CorrectCommission	0.155301	0.675159	1	1
147.872513	0.792045	city	6	1	0.794062	0.794062	0	1	0	0	CorrectCommission	1.438690	0.649414	1	1
148.664688	0.792312	city	8	1	0.646048	0.646048	0	1	0	0	CorrectCommission	0.153939	0.628457	1	1
149.456955	0.792220	city	1	1	0.645846	0.645846	0	1	0	0	CorrectCommission	0.152179	0.612407	1	1
150.249252	0.792371	city	3	1	0.596384	0.596384	0	1	0	0	CorrectCommission	0.277140	0.601242	1	1
151.041565	0.792266	city	10	1	0.546731	0.546731	0	1	0	0	CorrectCommission	0.708127	0.595001	1	1
151.833801	0.792212	city	2	1	0.448010	0.448010	0	1	0	0	CorrectCommission	1.565020	0.593996	1	1
152.626068	0.792315	city	4	1	0.695230	0.695230	0	1	0	0	CorrectCommission	0.580830	0.598917	1	1
153.418365	0.792265	city	6	1	0.646730	0.646730	0	1	0	0	CorrectCommission	0.159857	0.610854	1	1
154.210602	0.792212	city	8	1	0.556121	0.556121	0	1	0	0	CorrectCommission	0.626622	0.631130	1	1
155.002808	0.792209	city	2	1	0.547003	0.547003	0	1	0	0	CorrectCommission	0.705765	0.660995	1	1
155.795105	0.792372	city	1	1	0.551090	0.551090	0	1	0	0	CorrectCommission	0.670291	0.701250	1	1
156.587372	0.792159	city	2	1	0.596938	0.596938	0	1	0	0	CorrectCommission	0.272339	0.751828	1	1
157.379578	0.792263	mountain	8	0	0.000000	0.636172	1	0	0	0	CorrectOmission	0.068211	0.811400	0	1
158.171890	0.792375	city	10	1	0.645733	0.645733	0	1	0	0	CorrectCommission	0.151204	0.877208	0	1
158.964264	0.792373	city	1	1	0.602562	0.602562	0	1	0	0	CorrectCommission	0.223517	0.945105	0	1
159.756485	0.792049	mountain	3	0	0.000000	0.509293	1	0	0	0	CorrectOmission	1.033093	1.009874	0	1
160.548630	0.792262	mountain	10	1	0.448126	0.448126	0	0	1	0	CommissionError	1.564017	1.065783	0	1
161.340897	0.792265	city	8	1	0.501263	0.501263	0	1	0	0	CorrectCommission	1.102786	1.107398	0	1
162.133163	0.792268	city	3	1	1.057953	1.057953	0	1	0	0	CorrectCommission	3.729247	1.130363	0	1
162.925430	0.792266	city	9	0	0.000000	0.845594	0	0	0	1	OmissionError	1.885986	1.132010	0	1
163.717697	0.792262	city	10	1	0.447676	0.447676	0	1	0	0	CorrectCommission	1.567922	1.111945	0	1
164.510071	0.792481	city	9	1	0.447686	0.447686	0	1	0	0	CorrectCommission	1.567831	1.072058	0	1
165.302444	0.792265	mountain	1	1	0.397958	0.397958	0	0	1	0	CommissionError	1.999472	1.016229	0	1
166.094604	0.792048	city	7	1	0.645526	0.645526	0	1	0	0	CorrectCommission	0.149407	0.949833	0	1
166.886780	0.792308	city	6	1	0.597874	0.597874	0	1	0	0	CorrectCommission	0.264211	0.878942	0	1
167.679047	0.792238	city	8	1	0.645951	0.645951	0	1	0	0	CorrectCommission	0.153097	0.809465	0	1
168.471298	0.792250	city	5	1	0.645748	0.645748	0	1	0	0	CorrectCommission	0.151334	0.746428	1	1
169.263565	0.792308	city	9	1	0.645900	0.645900	0	1	0	0	CorrectCommission	0.152647	0.693466	1	1
170.055832	0.792227	city	8	1	0.645681	0.645681	0	1	0	0	CorrectCommission	0.150750	0.652581	1	1
170.848190	0.792475	city	2	1	0.551940	0.551940	0	1	0	0	CorrectCommission	0.662912	0.624191	1	1
171.640442	0.792047	city	5	1	0.546619	0.546619	0	1	0	0	CorrectCommission	0.709103	0.607393	1	1
172.432602	0.792266	city	10	1	0.547366	0.547366	0	1	0	0	CorrectCommission	0.702620	0.600406	1	1
173.224976	0.792482	mountain	9	0	0.000000	0.563450	1	0	0	0	CorrectOmission	0.563008	0.601087	1	1
174.017242	0.792052	city	1	1	0.558764	0.558764	0	1	0	0	CorrectCommission	0.603680	0.607357	1	1
174.809464	0.792370	city	8	1	0.497201	0.497201	0	1	0	0	CorrectCommission	1.138049	0.617553	1	1
175.601822	0.792372	city	1	1	0.497488	0.497488	0	1	0	0	CorrectCommission	1.135560	0.630549	1	1
176.394089	0.792157	city	9	1	0.596747	0.596747	0	1	0	0	CorrectCommission	0.273995	0.645764	1	1
177.186264	0.792184	city	2	1	0.663838	0.663838	0	1	0	0	CorrectCommission	0.308351	0.663030	1	1
177.978577	0.792453	city	6	1	0.596224	0.596224	0	1	0	0	CorrectCommission	0.278537	0.682341	1	1
178.770828	0.792046	city	10	1	0.646652	0.646652	0	1	0	0	CorrectCommission	0.159175	0.703682	1	1
179.563004	0.792297	city	4	1	0.744807	0.744807	0	1	0	0	CorrectCommission	1.011154	0.726782	1	1
180.355270	0.792234	city	10	1	0.696014	0.696014	0	1	0	0	CorrectCommission	0.587637	0.751045	1	1
181.147522	0.792268	city	7	1	0.843841	0.843841	0	1	0	0	CorrectCommission	1.870766	0.775597	0	1
181.939789	0.792266	city	5	1	0.596350	0.596350	0	1	0	0	CorrectCommission	0.277443	0.799292	0	1
182.732162	0.792478	city	10	1	0.546728	0.546728	0	1	0	0	CorrectCommission	0.708155	0.820931	0	1
183.524429	0.792077	mountain	8	0	0.000000	0.671206	1	0	0	0	CorrectOmission	0.372303	0.839385	0	1
184.316620	0.792297	city	5	1	0.795358	0.795358	0	1	0	0	CorrectCommission	1.449935	0.853751	0	1
185.108978	0.792421	city	6	1	0.744759	0.744759	0	1	0	0	CorrectCommission	1.010745	0.863463	0	1
185.901291	0.792211	mountain	7	0	0.000000	0.790233	1	0	0	0	CorrectOmission	1.405456	0.868416	0	1
186.693451	0.792102	city	1	1	0.801163	0.801163	0	1	0	0	CorrectCommission	1.500324	0.868902	0	0
187.485748	0.792482	city	5	1	0.646931	0.646931	0	1	0	0	CorrectCommission	0.161603	0.865570	0	0
188.278015	0.792049	city	3	1	0.546827	0.546827	0	1	0	0	CorrectCommission	0.707300	0.859327	0	0
189.070160	0.792261	city	9	1	0.596214	0.596214	0	1	0	0	CorrectCommission	0.278617	0.851115	0	0
189.862427	0.792265	city	5	1	0.447705	0.447705	0	1	0	0	CorrectCommission	1.567668	0.841820	0	0
190.654694	0.792267	mountain	2	0	0.000000	0.488950	1	0	0	0	CorrectOmission	1.209668	0.832073	0	0
191.446976	0.792282	city	1	1	0.596260	0.596260	0	1	0	0	CorrectCommission	0.278225	0.822227	0	0
192.239227	0.792246	city	5	1	0.645947	0.645947	0	1	0	0	CorrectCommission	0.153056	0.812314	0	0
193.031540	0.792371	city	6	1	0.549034	0.549034	0	1	0	0	CorrectCommission	0.688137	0.802057	0	0
193.823807	0.792163	city	7	1	0.451373	0.451373	0	1	0	0	CorrectCommission	1.535834	0.790984	0	0
194.616074	0.792371	city	10	1	0.454616	0.454616	0	1	0	0	CorrectCommission	1.507681	0.778512	0	0
195.408340	0.792154	city	1	1	0.614448	0.614448	0	1	0	0	CorrectCommission	0.120353	0.764109	0	0
196.200653	0.792481	city	10	1	0.547200	0.547200	0	1	0	0	CorrectCommission	0.704063	0.747424	1	0
196.992920	0.792049	city	9	1	0.547280	0.547280	0	1	0	0	CorrectCommission	0.703367	0.728300	1	0
197.785187	0.792483	city	5	1	0.547140	0.547140	0	1	0	0	CorrectCommission	0.704581	0.706885	1	0
198.577454	0.792044	city	7	1	0.794119	0.794119	0	1	0	0	CorrectCommission	1.439186	0.683618	1	0
199.369614	0.792275	city	6	1	0.646133	0.646133	0	1	0	0	CorrectCommission	0.154676	0.659236	1	0
200.161880	0.792259	city	1	1	0.565276	0.565276	0	1	0	0	CorrectCommission	0.547159	0.634718	1	0
200.954178	0.792333	city	7	1	0.744797	0.744797	0	1	0	0	CorrectCommission	1.011072	0.611153	1	0
201.746429	0.792193	city	9	1	0.697107	0.697107	0	1	0	0	CorrectCommission	0.597125	0.589635	1	0
202.538666	0.792266	city	10	1	0.645791	0.645791	0	1	0	0	CorrectCommission	0.151704	0.571274	1	0
203.330933	0.792264	mountain	5	0	0.000000	0.662354	1	0	0	0	CorrectOmission	0.295469	0.556961	1	0
204.123245	0.792374	city	10	1	0.659679	0.659679	0	1	0	0	CorrectCommission	0.272250	0.547383	1	0
204.915619	0.792373	city	8	1	0.550649	0.550649	0	1	0	0	CorrectCommission	0.674124	0.543009	1	0
205.707840	0.792053	mountain	2	0	0.000000	0.561654	1	0	0	0	CorrectOmission	0.578602	0.544057	1	0
206.499985	0.792263	city	2	1	0.596228	0.596228	0	1	0	0	CorrectCommission	0.278499	0.550567	1	0
207.292252	0.792262	city	6	1	0.557906	0.557906	0	1	0	0	CorrectCommission	0.611133	0.562403	1	0
208.084625	0.792484	city	2	1	0.563416	0.563416	0	1	0	0	CorrectCommission	0.563305	0.579270	1	0
208.876953	0.792154	city	9	1	0.744633	0.744633	0	1	0	0	CorrectCommission	1.009647	0.600743	1	0
209.669205	0.792375	city	6	1	0.596281	0.596281	0	1	0	0	CorrectCommission	0.278042	0.626168	1	0
210.461426	0.792048	city	9	1	0.597030	0.597030	0	1	0	0	CorrectCommission	0.271539	0.654651	1	0
211.253616	0.792329	city	5	1	0.553190	0.553190	0	1	0	0	CorrectCommission	0.652064	0.684954	1	0
212.045929	0.792308	city	6	1	0.745047	0.745047	0	1	0	0	CorrectCommission	1.013241	0.715488	1	0
212.838181	0.792205	city	2	1	0.604617	0.604617	0	1	0	0	CorrectCommission	0.205684	0.744377	1	0
213.630417	0.792257	city	7	1	0.553731	0.553731	0	1	0	0	CorrectCommission	0.647372	0.769565	0	0
214.422760	0.792442	city	10	1	0.464034	0.464034	0	1	0	0	CorrectCommission	1.425935	0.788964	0	0
215.215042	0.792102	city	9	1	0.515034	0.515034	0	1	0	0	CorrectCommission	0.983262	0.800722	0	0
216.007248	0.792318	city	2	1	0.547197	0.547197	0	1	0	0	CorrectCommission	0.704087	0.803473	0	0
216.799484	0.792156	city	3	1	0.596192	0.596192	0	1	0	0	CorrectCommission	0.278814	0.796591	0	0
217.591690	0.792268	city	5	1	1.041916	1.041916	0	1	0	0	CorrectCommission	3.590048	0.780297	0	0
218.383957	0.792266	mountain	1	1	0.650316	0.650316	0	0	1	0	CommissionError	0.190985	0.755597	1	0
219.176254	0.792321	city	6	1	0.558808	0.558808	0	1	0	0	CorrectCommission	0.603304	0.724376	1	0
219.968536	0.792239	mountain	10	0	0.000000	0.554382	1	0	0	0	CorrectOmission	0.641718	0.688974	1	0
220.760788	0.792280	city	8	1	0.596912	0.596912	0	1	0	0	CorrectCommission	0.272558	0.651933	1	0
221.553040	0.792214	city	10	1	0.646271	0.646271	0	1	0	0	CorrectCommission	0.155875	0.615666	1	0
222.345383	0.792483	city	1	1	0.646086	0.646086	0	1	0	0	CorrectCommission	0.154269	0.582188	1	0
223.137650	0.792049	city	7	1	0.646523	0.646523	0	1	0	0	CorrectCommission	0.158055	0.552960	1	0
223.929810	0.792261	city	5	1	0.508566	0.508566	0	1	0	0	CorrectCommission	1.039401	0.528825	1	0
224.722107	0.792320	mountain	6	0	0.000000	0.578972	1	0	0	0	CorrectOmission	0.428283	0.510085	1	0
225.514374	0.792212	city	10	1	0.695343	0.695343	0	1	0	0	CorrectCommission	0.581813	0.496695	1	0
226.306610	0.792264	city	4	1	0.695283	0.695283	0	1	0	0	CorrectCommission	0.581289	0.488372	1	0
227.098877	0.792266	city	3	1	0.555901	0.555901	0	1	0	0	CorrectCommission	0.628536	0.484805	1	0
227.891251	0.792481	city	1	1	0.612359	0.612359	0	1	0	0	CorrectCommission	0.138481	0.485706	1	0
228.683517	0.792049	city	3	1	0.695102	0.695102	0	1	0	0	CorrectCommission	0.579720	0.490846	1	0
229.475769	0.792479	city	8	1	0.652835	0.652835	0	1	0	0	CorrectCommission	0.212851	0.499992	1	0
230.268143	0.792266	city	10	1	0.562602	0.562602	0	1	0	0	CorrectCommission	0.570370	0.512843	1	0
231.060364	0.792181	city	8	1	0.610102	0.610102	0	1	0	0	CorrectCommission	0.158077	0.528908	1	0
231.852600	0.792293	city	3	1	0.546587	0.546587	0	1	0	0	CorrectCommission	0.709380	0.547458	1	0
232.644806	0.792105	city	6	1	0.695188	0.695188	0	1	0	0	CorrectCommission	0.580465	0.567454	1	0
233.436996	0.792263	city	1	1	0.596419	0.596419	0	1	0	0	CorrectCommission	0.276838	0.587674	1	0
234.229309	0.792372	city	4	1	0.596247	0.596247	0	1	0	0	CorrectCommission	0.278336	0.606748	1	0
235.021576	0.792173	city	5	1	0.753985	0.753985	0	1	0	0	CorrectCommission	1.090825	0.623316	1	0
235.813797	0.792253	city	7	1	0.794602	0.794602	0	1	0	0	CorrectCommission	1.443374	0.636241	1	0
236.606155	0.792478	city	9	1	0.652165	0.652165	0	1	0	0	CorrectCommission	0.207035	0.644796	1	0
237.398438	0.792076	mountain	7	0	0.000000	0.725379	1	0	0	0	CorrectOmission	0.842520	0.648805	1	0
238.190598	0.792239	city	2	1	0.796147	0.796147	0	1	0	0	CorrectCommission	1.456786	0.648655	1	0
238.982956	0.792480	city	4	1	0.646377	0.646377	0	1	0	0	CorrectCommission	0.156789	0.645311	1	0
239.775208	0.792047	city	1	1	0.554857	0.554857	0	1	0	0	CorrectCommission	0.637596	0.640230	1	0
240.567368	0.792268	city	6	1	0.695285	0.695285	0	1	0	0	CorrectCommission	0.581313	0.635140	1	0
241.359665	0.792326	city	8	1	0.596327	0.596327	0	1	0	0	CorrectCommission	0.277644	0.631842	1	0
242.151932	0.792200	city	4	1	0.510882	0.510882	0	1	0	0	CorrectCommission	1.019299	0.631974	1	0
242.944168	0.792265	city	9	1	0.596451	0.596451	0	1	0	0	CorrectCommission	0.276567	0.636770	1	0
243.736450	0.792306	city	2	1	0.596243	0.596243	0	1	0	0	CorrectCommission	0.278370	0.646929	1	0
244.528824	0.792439	city	4	1	0.744880	0.744880	0	1	0	0	CorrectCommission	1.011793	0.662437	1	0
245.321060	0.792048	city	2	1	0.645510	0.645510	0	1	0	0	CorrectCommission	0.149263	0.682547	1	0
246.113281	0.792372	city	6	1	0.645834	0.645834	0	1	0	0	CorrectCommission	0.152078	0.705870	1	1
246.905548	0.792155	city	9	1	0.744823	0.744823	0	1	0	0	CorrectCommission	1.011296	0.730506	1	1
247.697754	0.792266	city	7	1	0.646060	0.646060	0	1	0	0	CorrectCommission	0.154044	0.754284	1	1
248.490021	0.792263	city	5	1	0.893351	0.893351	0	1	0	0	CorrectCommission	2.300510	0.775044	0	1
249.282288	0.792264	city	7	1	0.605788	0.605788	0	1	0	0	CorrectCommission	0.195518	0.790907	0	1
250.074600	0.792374	city	1	1	0.398320	0.398320	0	1	0	0	CorrectCommission	1.996330	0.800685	0	1
250.866867	0.792158	city	9	1	0.596124	0.596124	0	1	0	0	CorrectCommission	0.279400	0.803935	0	1
251.659180	0.792481	city	6	1	0.509160	0.509160	0	1	0	0	CorrectCommission	1.034244	0.801184	0	1
252.451447	0.792050	city	5	1	0.744946	0.744946	0	1	0	0	CorrectCommission	1.012367	0.793773	0	1
253.243607	0.792262	city	1	1	0.706725	0.706725	0	1	0	0	CorrectCommission	0.680613	0.783747	0	1
254.035873	0.792264	city	6	1	0.745000	0.745000	0	1	0	0	CorrectCommission	1.012834	0.773594	0	1
254.828140	0.792274	city	10	1	0.659805	0.659805	0	1	0	0	CorrectCommission	0.273344	0.765851	0	1
255.620407	0.792254	city	9	1	0.546711	0.546711	0	1	0	0	CorrectCommission	0.708305	0.762743	0	1
256.412659	0.792269	city	10	1	0.498007	0.498007	0	1	0	0	CorrectCommission	1.131051	0.765824	0	1
257.204987	0.792371	city	7	1	0.647496	0.647496	0	1	0	0	CorrectCommission	0.166506	0.775654	0	1
257.997253	0.792158	city	2	1	0.645667	0.645667	0	1	0	0	CorrectCommission	0.150628	0.791718	0	1
258.789520	0.792370	city	5	1	0.695287	0.695287	0	1	0	0	CorrectCommission	0.581326	0.812395	0	1
259.581787	0.792161	city	10	1	0.605122	0.605122	0	1	0	0	CorrectCommission	0.201299	0.835172	0	1
260.373993	0.792264	city	3	1	0.652312	0.652312	0	1	0	0	CorrectCommission	0.208309	0.857092	0	1
261.166260	0.792296	city	4	1	0.745218	0.745218	0	1	0	0	CorrectCommission	1.014725	0.875246	0	1
261.958527	0.792240	city	6	1	0.905208	0.905208	0	1	0	0	CorrectCommission	2.403430	0.887277	0	1
262.750854	0.792362	city	10	1	1.107600	1.107600	0	1	0	0	CorrectCommission	4.160182	0.891852	0	1
263.543213	0.792375	city	3	1	0.596326	0.596326	0	1	0	0	CorrectCommission	0.277647	0.888885	0	1
264.335449	0.792098	city	2	1	0.645957	0.645957	0	1	0	0	CorrectCommission	0.153143	0.879588	0	1
265.127594	0.792215	city	7	1	0.645705	0.645705	0	1	0	0	CorrectCommission	0.150963	0.866074	0	1
265.919952	0.792481	city	6	1	0.695306	0.695306	0	1	0	0	CorrectCommission	0.581489	0.850936	0	1
266.712219	0.792060	city	1	1	0.662039	0.662039	0	1	0	0	CorrectCommission	0.292740	0.836822	0	1
267.504486	0.792471	mountain	4	0	0.000000	0.698572	1	0	0	0	CorrectOmission	0.609841	0.825940	0	1
268.296753	0.792049	city	6	1	0.696304	0.696304	0	1	0	0	CorrectCommission	0.590151	0.819778	0	1
269.088898	0.792264	city	9	1	0.546634	0.546634	0	1	0	0	CorrectCommission	0.708973	0.818964	0	1
269.881165	0.792281	city	7	1	0.503106	0.503106	0	1	0	0	CorrectCommission	1.086792	0.823318	0	1
270.673431	0.792248	city	5	1	0.744824	0.744824	0	1	0	0	CorrectCommission	1.011309	0.832008	0	1
271.465790	0.792480	city	7	1	0.794934	0.794934	0	1	0	0	CorrectCommission	1.446255	0.843771	0	1
272.258057	0.792047	city	9	1	0.645512	0.645512	0	1	0	0	CorrectCommission	0.149279	0.857117	0	1
273.050323	0.792483	city	1	1	0.509028	0.509028	0	1	0	0	CorrectCommission	1.035389	0.870540	0	1
273.842590	0.792048	city	2	1	0.497056	0.497056	0	1	0	0	CorrectCommission	1.139306	0.882589	0	1
274.634857	0.792482	mountain	5	0	0.000000	0.517939	1	0	0	0	CorrectOmission	0.958044	0.892005	0	1
275.427246	0.792265	mountain	3	0	0.000000	0.550174	1	0	0	0	CorrectOmission	0.678245	0.897766	0	1
276.219452	0.792155	mountain	4	0	0.000000	0.572259	1	0	0	0	CorrectOmission	0.486552	0.899123	0	1
277.011597	0.792154	city	3	1	0.562690	0.562690	0	1	0	0	CorrectCommission	0.569609	0.895675	0	1
277.803802	0.792266	city	1	1	0.499965	0.499965	0	1	0	0	CorrectCommission	1.114058	0.887433	0	1
278.596069	0.792264	city	10	1	0.355610	0.355610	0	1	0	0	CorrectCommission	2.367048	0.874836	0	1
279.388397	0.792373	city	3	1	0.447893	0.447893	0	1	0	0	CorrectCommission	1.566035	0.858724	0	1
280.180664	0.792159	city	7	1	0.546814	0.546814	0	1	0	0	CorrectCommission	0.707410	0.840269	0	1
280.972870	0.792263	city	8	1	0.661479	0.661479	0	1	0	0	CorrectCommission	0.287877	0.820841	0	1
281.765198	0.792374	city	4	1	0.646191	0.646191	0	1	0	0	CorrectCommission	0.155173	0.801738	0	1
282.557495	0.792264	city	6	1	0.695333	0.695333	0	1	0	0	CorrectCommission	0.581725	0.783948	0	1
283.349731	0.792169	city	7	1	0.646363	0.646363	0	1	0	0	CorrectCommission	0.156671	0.767985	0	1
284.141937	0.792250	city	4	1	0.596676	0.596676	0	1	0	0	CorrectCommission	0.274609	0.753891	1	1
284.934204	0.792266	city	1	1	0.508535	0.508535	0	1	0	0	CorrectCommission	1.039672	0.741273	1	1
285.726471	0.792267	city	8	1	0.464397	0.464397	0	1	0	0	CorrectCommission	1.422788	0.729479	1	1
286.518738	0.792266	city	4	1	0.448261	0.448261	0	1	0	0	CorrectCommission	1.562847	0.717844	1	1
287.311005	0.792263	city	1	1	0.546746	0.546746	0	1	0	0	CorrectCommission	0.707997	0.705858	1	1
288.103363	0.792481	city	2	1	0.596828	0.596828	0	1	0	0	CorrectCommission	0.273288	0.693338	1	1
288.895630	0.792050	city	4	1	0.745317	0.745317	0	1	0	0	CorrectCommission	1.015581	0.680387	1	1
289.687775	0.792260	mountain	9	0	0.000000	0.687241	1	0	0	0	CorrectOmission	0.511487	0.667345	1	1
290.480072	0.792327	city	3	1	0.596241	0.596241	0	1	0	0	CorrectCommission	0.278387	0.654656	1	1
291.272400	0.792313	city	5	1	0.645956	0.645956	0	1	0	0	CorrectCommission	0.153140	0.642743	1	1
292.064636	0.792157	city	2	1	0.661754	0.661754	0	1	0	0	CorrectCommission	0.290267	0.631871	1	1
292.856903	0.792373	city	4	1	0.753506	0.753506	0	1	0	0	CorrectCommission	1.086667	0.622154	1	1
293.649170	0.792156	mountain	4	0	0.000000	0.739591	1	0	0	0	CorrectOmission	0.965880	0.613570	1	1
294.441376	0.792281	city	4	1	0.695248	0.695248	0	1	0	0	CorrectCommission	0.580988	0.606066	1	1
295.233643	0.792250	city	3	1	0.695718	0.695718	0	1	0	0	CorrectCommission	0.585072	0.599672	1	1
296.025940	0.792371	city	5	1	0.596250	0.596250	0	1	0	0	CorrectCommission	0.278312	0.594562	1	1
296.818207	0.792156	city	4	1	0.794186	0.794186	0	1	0	0	CorrectCommission	1.439768	0.591154	1	1
297.610443	0.792293	city	7	1	0.695334	0.695334	0	1	0	0	CorrectCommission	0.581737	0.590046	1	1
298.402710	0.792240	city	5	1	0.613830	0.613830	0	1	0	0	CorrectCommission	0.125712	0.591990	1	1
299.195007	0.792370	city	3	1	0.615363	0.615363	0	1	0	0	CorrectCommission	0.112411	0.597719	1	1
299.987335	0.792267	city	8	1	0.596245	0.596245	0	1	0	0	CorrectCommission	0.278348	0.607790	1	1
300.779541	0.792157	city	10	1	0.556470	0.556470	0	1	0	0	CorrectCommission	0.623597	0.622497	1	1
301.571747	0.792279	city	4	1	0.744797	0.744797	0	1	0	0	CorrectCommission	1.011070	0.641763	1	1
302.364136	0.792467	city	9	1	0.652898	0.652898	0	1	0	0	CorrectCommission	0.213396	0.665100	1	1
303.156403	0.792090	city	8	1	0.506228	0.506228	0	1	0	0	CorrectCommission	1.059692	0.691689	1	1
303.948578	0.792229	city	6	1	0.547248	0.547248	0	1	0	0	CorrectCommission	0.703640	0.720341	1	1
304.740936	0.792475	city	5	1	0.547189	0.547189	0	1	0	0	CorrectCommission	0.704152	0.749680	1	1
305.533173	0.792049	city	1	1	0.645573	0.645573	0	1	0	0	CorrectCommission	0.149809	0.778239	0	0
306.325409	0.792372	city	5	1	0.794773	0.794773	0	1	0	0	CorrectCommission	1.444859	0.804569	0	0
307.117676	0.792170	city	10	1	0.645642	0.645642	0	1	0	0	CorrectCommission	0.150408	0.827384	0	0
307.909882	0.792255	city	1	1	0.794316	0.794316	0	1	0	0	CorrectCommission	1.440897	0.845755	0	0
308.702179	0.792367	city	5	1	0.843810	0.843810	0	1	0	0	CorrectCommission	1.870498	0.859061	0	0
309.494446	0.792157	city	9	1	0.745381	0.745381	0	1	0	0	CorrectCommission	1.016141	0.867157	0	0
310.286652	0.792268	city	2	1	0.546763	0.546763	0	1	0	0	CorrectCommission	0.707855	0.870318	0	0
311.078918	0.792263	city	9	1	0.646204	0.646204	0	1	0	0	CorrectCommission	0.155288	0.869189	0	0
311.871216	0.792305	mountain	3	0	0.000000	0.721095	1	0	0	0	CorrectOmission	0.805341	0.864686	0	0
312.663574	0.792442	city	2	1	0.762718	0.762718	0	1	0	0	CorrectCommission	1.166626	0.857868	0	0
313.455841	0.792057	city	7	1	0.762354	0.762354	0	1	0	0	CorrectCommission	1.163461	0.849812	0	0
314.247986	0.792252	city	8	1	0.744868	0.744868	0	1	0	0	CorrectCommission	1.011686	0.841497	0	0
315.040253	0.792270	city	2	1	0.596212	0.596212	0	1	0	0	CorrectCommission	0.278637	0.833706	0	0
315.832520	0.792264	city	1	1	0.513807	0.513807	0	1	0	0	CorrectCommission	0.993906	0.826960	0	0
316.624786	0.792272	city	7	1	0.695808	0.695808	0	1	0	0	CorrectCommission	0.585850	0.821416	0	0
317.417053	0.792255	city	4	1	0.661779	0.661779	0	1	0	0	CorrectCommission	0.290483	0.816879	0	0
318.209320	0.792267	city	10	1	0.843813	0.843813	0	1	0	0	CorrectCommission	1.870525	0.812823	0	0
319.001587	0.792263	city	5	1	0.702274	0.702274	0	1	0	0	CorrectCommission	0.641976	0.808394	0	0
319.793854	0.792270	city	9	1	0.600582	0.600582	0	1	0	0	CorrectCommission	0.240705	0.802635	0	0
320.586121	0.792260	city	4	1	0.549388	0.549388	0	1	0	0	CorrectCommission	0.685065	0.794548	0	0
321.378479	0.792481	city	9	1	0.596264	0.596264	0	1	0	0	CorrectCommission	0.278188	0.783300	0	0
322.170837	0.792264	mountain	7	0	0.000000	0.802028	1	0	0	0	CorrectOmission	1.507833	0.768477	0	0
322.963104	0.792266	city	7	1	0.893140	0.893140	0	1	0	0	CorrectCommission	2.298680	0.750140	1	0
323.755280	0.792058	city	8	1	0.596059	0.596059	0	1	0	0	CorrectCommission	0.279964	0.728956	1	0
324.547424	0.792257	city	1	1	0.515787	0.515787	0	1	0	0	CorrectCommission	0.976720	0.706265	1	0
325.339691	0.792260	city	6	1	0.645781	0.645781	0	1	0	0	CorrectCommission	0.151622	0.683810	1	0
326.131989	0.792303	city	2	1	0.596367	0.596367	0	1	0	0	CorrectCommission	0.277292	0.663618	1	0
326.924255	0.792226	city	5	1	0.603236	0.603236	0	1	0	0	CorrectCommission	0.217667	0.647728	1	0
327.716492	0.792268	city	8	1	0.744847	0.744847	0	1	0	0	CorrectCommission	1.011508	0.637923	1	0
328.508759	0.792265	city	3	1	0.654303	0.654303	0	1	0	0	CorrectCommission	0.225587	0.635488	1	0
329.301117	0.792480	city	1	1	0.553668	0.553668	0	1	0	0	CorrectCommission	0.647916	0.641088	1	0
330.093506	0.792265	city	3	1	0.596167	0.596167	0	1	0	0	CorrectCommission	0.279026	0.654579	1	0
330.885712	0.792156	city	6	1	0.695278	0.695278	0	1	0	0	CorrectCommission	0.581245	0.675104	1	0
331.677917	0.792265	city	7	1	0.695534	0.695534	0	1	0	0	CorrectCommission	0.583467	0.701121	1	0
332.470123	0.792158	city	9	1	0.645571	0.645571	0	1	0	0	CorrectCommission	0.149798	0.730590	1	0
333.262360	0.792287	mountain	4	1	0.497288	0.497288	0	0	1	0	CommissionError	1.137291	0.761195	0	0
334.054626	0.792240	city	2	1	0.794310	0.794310	0	1	0	0	CorrectCommission	1.440837	0.790566	0	0
334.846863	0.792265	city	9	1	0.744775	0.744775	0	1	0	0	CorrectCommission	1.010884	0.816590	0	0
335.639160	0.792319	city	5	1	0.547786	0.547786	0	1	0	0	CorrectCommission	0.698973	0.837602	0	0
336.431427	0.792241	city	1	1	0.655317	0.655317	0	1	0	0	CorrectCommission	0.234391	0.852620	0	0
337.223694	0.792248	city	7	1	0.893460	0.893460	0	1	0	0	CorrectCommission	2.301454	0.861446	0	0
338.015991	0.792385	city	2	1	0.596247	0.596247	0	1	0	0	CorrectCommission	0.278333	0.864629	0	0
338.808258	0.792130	city	7	1	0.498464	0.498464	0	1	0	0	CorrectCommission	1.127083	0.863541	0	0
339.600555	0.792482	city	4	1	0.454794	0.454794	0	1	0	0	CorrectCommission	1.506141	0.860059	0	0
340.392883	0.792155	city	5	1	0.497102	0.497102	0	1	0	0	CorrectCommission	1.138907	0.856333	0	0
341.185028	0.792161	city	9	1	0.645781	0.645781	0	1	0	0	CorrectCommission	0.151620	0.854515	0	0
341.977356	0.792478	city	8	1	0.596247	0.596247	0	1	0	0	CorrectCommission	0.278335	0.856395	0	0
342.769623	0.792050	city	5	1	0.645673	0.645673	0	1	0	0	CorrectCommission	0.150681	0.863096	0	0
343.561798	0.792265	city	2	1	0.564996	0.564996	0	1	0	0	CorrectCommission	0.549595	0.874920	0	0
344.354156	0.792480	city	4	1	0.844248	0.844248	0	1	0	0	CorrectCommission	1.874297	0.891260	0	0
345.146454	0.792099	city	10	1	0.605616	0.605616	0	1	0	0	CorrectCommission	0.197008	0.910680	0	0
345.938721	0.792432	city	1	1	0.746075	0.746075	0	1	0	0	CorrectCommission	1.022165	0.931195	0	0
346.730957	0.792046	city	3	1	0.756411	0.756411	0	1	0	0	CorrectCommission	1.111878	0.950463	0	0
347.523224	0.792483	city	7	1	0.695261	0.695261	0	1	0	0	CorrectCommission	0.581105	0.966225	0	0
348.315491	0.792046	city	3	1	0.794130	0.794130	0	1	0	0	CorrectCommission	1.439282	0.976614	0	0
349.107635	0.792267	mountain	3	0	0.000000	0.847849	1	0	0	0	CorrectOmission	1.905560	0.980326	0	0
349.899933	0.792313	mountain	9	0	0.000000	0.838374	1	0	0	0	CorrectOmission	1.823313	0.976900	0	0
350.692291	0.792432	city	2	1	0.747659	0.747659	0	1	0	0	CorrectCommission	1.035912	0.966699	0	0
351.484650	0.792264	city	8	1	0.557659	0.557659	0	1	0	0	CorrectCommission	0.613272	0.950846	0	0
352.276825	0.792068	city	9	1	0.602765	0.602765	0	1	0	0	CorrectCommission	0.221759	0.931061	0	0
353.068970	0.792245	city	1	1	0.598644	0.598644	0	1	0	0	CorrectCommission	0.257529	0.909474	0	0
353.861237	0.792267	city	10	1	0.695284	0.695284	0	1	0	0	CorrectCommission	0.581299	0.888383	0	0
354.653503	0.792261	city	6	1	0.858324	0.858324	0	1	0	0	CorrectCommission	1.996477	0.870031	0	0
355.445740	0.792267	city	4	1	0.794277	0.794277	0	1	0	0	CorrectCommission	1.440553	0.856487	0	0
356.238129	0.792487	city	2	1	0.698040	0.698040	0	1	0	0	CorrectCommission	0.605221	0.849523	0	0
357.030457	0.792150	city	6	1	0.698020	0.698020	0	1	0	0	CorrectCommission	0.605051	0.850389	0	0
357.822601	0.792159	city	2	1	0.645757	0.645757	0	1	0	0	CorrectCommission	0.151406	0.859687	0	0
358.614838	0.792304	city	7	1	0.695331	0.695331	0	1	0	0	CorrectCommission	0.581707	0.877319	0	0
359.407166	0.792331	city	1	1	0.607961	0.607961	0	1	0	0	CorrectCommission	0.176656	0.902439	0	0
360.199463	0.792264	city	10	1	0.744654	0.744654	0	1	0	0	CorrectCommission	1.009828	0.933572	0	0
360.991669	0.792171	city	4	1	0.648381	0.648381	0	1	0	0	CorrectCommission	0.174186	0.968785	0	0
361.783997	0.792467	city	6	1	0.706965	0.706965	0	1	0	0	CorrectCommission	0.682695	1.006031	0	0
362.576233	0.792047	mountain	7	0	0.000000	0.921967	1	0	0	0	CorrectOmission	2.548893	1.043451	0	0
363.368408	0.792266	city	9	1	0.999642	0.999642	0	1	0	0	CorrectCommission	3.223114	1.079592	0	0
364.160675	0.792267	city	5	1	0.646251	0.646251	0	1	0	0	CorrectCommission	0.155695	1.113579	0	0
364.952972	0.792371	city	3	1	0.501897	0.501897	0	1	0	0	CorrectCommission	1.097288	1.145116	0	1
365.745270	0.792175	city	10	1	0.746086	0.746086	0	1	0	0	CorrectCommission	1.022262	1.174110	0	1
366.537506	0.792333	city	9	1	0.695771	0.695771	0	1	0	0	CorrectCommission	0.585525	1.200453	0	1
367.329803	0.792226	city	4	1	0.695235	0.695235	0	1	0	0	CorrectCommission	0.580873	1.223703	0	1
368.122009	0.792220	city	5	1	0.843737	0.843737	0	1	0	0	CorrectCommission	1.869867	1.242831	0	1
368.914246	0.792261	city	1	1	0.697549	0.697549	0	1	0	0	CorrectCommission	0.600961	1.256146	0	1
369.706573	0.792371	city	9	1	0.556148	0.556148	0	1	0	0	CorrectCommission	0.626391	1.261545	0	1
370.498840	0.792158	city	8	1	0.463365	0.463365	0	1	0	0	CorrectCommission	1.431741	1.256766	0	1
371.291046	0.792271	city	7	1	1.042114	1.042114	0	1	0	0	CorrectCommission	3.591763	1.239845	0	1
372.083374	0.792368	mountain	2	0	0.000000	0.866474	1	0	0	0	CorrectOmission	2.067219	1.209550	0	1
372.875671	0.792263	city	3	1	0.502369	0.502369	0	1	0	0	CorrectCommission	1.093189	1.165858	0	1
373.667908	0.792158	city	9	1	0.515723	0.515723	0	1	0	0	CorrectCommission	0.977281	1.110029	0	1
374.460205	0.792482	city	1	1	0.459241	0.459241	0	1	0	0	CorrectCommission	1.467539	1.044541	0	1
375.252472	0.792048	city	3	1	0.496971	0.496971	0	1	0	0	CorrectCommission	1.140048	0.972860	0	1
376.044647	0.792265	city	1	1	0.661743	0.661743	0	1	0	0	CorrectCommission	0.290169	0.899001	0	1
376.836914	0.792266	city	10	1	0.695295	0.695295	0	1	0	0	CorrectCommission	0.581396	0.827039	0	1
377.629211	0.792372	city	4	1	0.646539	0.646539	0	1	0	0	CorrectCommission	0.158196	0.760576	0	1
378.421478	0.792155	city	7	1	0.564710	0.564710	0	1	0	0	CorrectCommission	0.552072	0.702414	1	1
379.213684	0.792273	mountain	6	0	0.000000	0.566815	1	0	0	0	CorrectOmission	0.533800	0.654264	1	1
380.005951	0.792260	city	7	1	0.596208	0.596208	0	1	0	0	CorrectCommission	0.278670	0.616673	1	1
380.798279	0.792370	city	10	1	0.596244	0.596244	0	1	0	0	CorrectCommission	0.278362	0.589108	1	1
381.590546	0.792154	city	5	1	0.607758	0.607758	0	1	0	0	CorrectCommission	0.178420	0.570268	1	1
382.382751	0.792270	city	3	1	0.745585	0.745585	0	1	0	0	CorrectCommission	1.017914	0.558322	1	1
383.175079	0.792368	mountain	9	0	0.000000	0.709199	1	0	0	0	CorrectOmission	0.702083	0.551257	1	1
383.967346	0.792161	city	7	1	0.596200	0.596200	0	1	0	0	CorrectCommission	0.278740	0.547250	1	1
384.759552	0.792261	city	6	1	0.504190	0.504190	0	1	0	0	CorrectCommission	1.077384	0.544916	1	1
385.551819	0.792266	city	5	1	0.506496	0.506496	0	1	0	0	CorrectCommission	1.057368	0.543389	1	1
386.344177	0.792481	city	4	1	0.645754	0.645754	0	1	0	0	CorrectCommission	0.151387	0.542424	1	1
387.136505	0.792157	city	8	1	0.596009	0.596009	0	1	0	0	CorrectCommission	0.280403	0.542294	1	1
387.928650	0.792155	city	6	1	0.547847	0.547847	0	1	0	0	CorrectCommission	0.698441	0.543615	1	1
388.720856	0.792266	city	4	1	0.646197	0.646197	0	1	0	0	CorrectCommission	0.155227	0.547092	1	1
389.513123	0.792264	city	6	1	0.609262	0.609262	0	1	0	0	CorrectCommission	0.165365	0.553431	1	1
390.305389	0.792263	city	7	1	0.497922	0.497922	0	1	0	0	CorrectCommission	1.131786	0.563114	1	1
391.097717	0.792374	city	2	1	0.551758	0.551758	0	1	0	0	CorrectCommission	0.664499	0.576250	1	1
391.890076	0.792374	city	6	1	0.616260	0.616260	0	1	0	0	CorrectCommission	0.104619	0.592568	1	1
392.682312	0.792068	city	10	1	0.652781	0.652781	0	1	0	0	CorrectCommission	0.212378	0.611417	1	1
393.474579	0.792462	city	1	1	0.546950	0.546950	0	1	0	0	CorrectCommission	0.706226	0.631820	1	1
394.266846	0.792049	city	4	1	0.508937	0.508937	0	1	0	0	CorrectCommission	1.036181	0.652605	1	1
395.059021	0.792311	city	7	1	0.555963	0.555963	0	1	0	0	CorrectCommission	0.627994	0.672543	1	1
395.851288	0.792218	city	6	1	0.646247	0.646247	0	1	0	0	CorrectCommission	0.155666	0.690509	1	1
396.643585	0.792373	city	5	1	0.794988	0.794988	0	1	0	0	CorrectCommission	1.446728	0.705613	1	1
397.435852	0.792161	city	2	1	0.794353	0.794353	0	1	0	0	CorrectCommission	1.441214	0.717270	1	1
398.228058	0.792259	mountain	7	0	0.000000	0.711907	1	0	0	0	CorrectOmission	0.725585	0.725263	1	1
399.020325	0.792273	city	4	1	0.646076	0.646076	0	1	0	0	CorrectCommission	0.154181	0.729734	1	1
399.812592	0.792260	city	5	1	0.695289	0.695289	0	1	0	0	CorrectCommission	0.581344	0.731095	1	1
400.604858	0.792307	city	6	1	0.744911	0.744911	0	1	0	0	CorrectCommission	1.012058	0.729925	1	1
401.397125	0.792223	city	1	1	0.546659	0.546659	0	1	0	0	CorrectCommission	0.708757	0.726905	1	1
402.189453	0.792424	city	10	1	0.564270	0.564270	0	1	0	0	CorrectCommission	0.555893	0.722743	1	1
402.981720	0.792107	city	8	1	0.497338	0.497338	0	1	0	0	CorrectCommission	1.136856	0.718095	1	1
403.773926	0.792309	city	4	1	0.645893	0.645893	0	1	0	0	CorrectCommission	0.152590	0.713561	1	1
404.566193	0.792215	city	5	1	0.547807	0.547807	0	1	0	0	CorrectCommission	0.698787	0.709683	1	1
405.358459	0.792311	city	7	1	0.794407	0.794407	0	1	0	0	CorrectCommission	1.441684	0.706877	1	1
406.150726	0.792222	city	6	1	0.695203	0.695203	0	1	0	0	CorrectCommission	0.580596	0.705460	1	1
406.942963	0.792260	city	4	1	0.664124	0.664124	0	1	0	0	CorrectCommission	0.310832	0.705646	1	1
407.735321	0.792484	city	5	1	0.695695	0.695695	0	1	0	0	CorrectCommission	0.584865	0.707461	1	1
408.527588	0.792050	city	10	1	0.648342	0.648342	0	1	0	0	CorrectCommission	0.173851	0.710733	1	1
409.319855	0.792480	city	3	1	0.794316	0.794316	0	1	0	0	CorrectCommission	1.440897	0.715099	1	1
410.112122	0.792045	city	7	1	0.706185	0.706185	0	1	0	0	CorrectCommission	0.675921	0.719953	1	1
410.904266	0.792266	mountain	4	0	0.000000	0.669059	1	0	0	0	CorrectOmission	0.353669	0.724543	1	1
411.696564	0.792269	city	8	1	0.695456	0.695456	0	1	0	0	CorrectCommission	0.582795	0.727963	1	1
412.488861	0.792369	city	10	1	0.797894	0.797894	0	1	0	0	CorrectCommission	1.471952	0.729272	1	1
413.281281	0.792456	city	7	1	0.695913	0.695913	0	1	0	0	CorrectCommission	0.586760	0.727581	1	1
414.073547	0.792075	mountain	4	0	0.000000	0.570925	1	0	0	0	CorrectOmission	0.498128	0.722151	1	1
414.865692	0.792240	city	7	1	0.497853	0.497853	0	1	0	0	CorrectCommission	1.132390	0.712503	1	1
415.657959	0.792287	city	1	1	0.551619	0.551619	0	1	0	0	CorrectCommission	0.665704	0.698542	1	1
416.450287	0.792375	city	3	1	0.695311	0.695311	0	1	0	0	CorrectCommission	0.581539	0.680643	1	1
417.242523	0.792050	city	10	1	0.497896	0.497896	0	1	0	0	CorrectCommission	1.132018	0.659671	1	1
418.034668	0.792260	city	3	1	0.596232	0.596232	0	1	0	0	CorrectCommission	0.278468	0.637000	1	1
418.826935	0.792266	city	7	1	0.758936	0.758936	0	1	0	0	CorrectCommission	1.133799	0.614476	1	1
419.619293	0.792484	city	4	1	0.700161	0.700161	0	1	0	0	CorrectCommission	0.623637	0.594260	1	1
420.411560	0.792054	city	3	1	0.596023	0.596023	0	1	0	0	CorrectCommission	0.280276	0.578656	1	1
421.203735	0.792284	city	10	1	0.695326	0.695326	0	1	0	0	CorrectCommission	0.581662	0.569852	1	1
421.996063	0.792346	city	5	1	0.647671	0.647671	0	1	0	0	CorrectCommission	0.168026	0.569630	1	1
422.788300	0.792157	city	9	1	0.650711	0.650711	0	1	0	0	CorrectCommission	0.194412	0.579122	1	1
423.580505	0.792267	city	3	1	0.647240	0.647240	0	1	0	0	CorrectCommission	0.164282	0.598566	1	1
424.372772	0.792265	city	4	1	0.610031	0.610031	0	1	0	0	CorrectCommission	0.158689	0.627225	1	0
425.165161	0.792479	city	6	1	0.695585	0.695585	0	1	0	0	CorrectCommission	0.583912	0.663388	1	0
425.957428	0.792079	mountain	2	0	0.000000	0.716970	1	0	0	0	CorrectOmission	0.769531	0.704548	1	0
426.749634	0.792341	city	9	1	0.645723	0.645723	0	1	0	0	CorrectCommission	0.151112	0.747621	1	0
427.541992	0.792374	city	7	1	0.453381	0.453381	0	1	0	0	CorrectCommission	1.518405	0.789354	0	0
428.334320	0.792267	city	1	1	0.398076	0.398076	0	1	0	0	CorrectCommission	1.998446	0.826651	0	0
429.126495	0.792104	city	4	1	0.604443	0.604443	0	1	0	0	CorrectCommission	0.207197	0.856942	0	0
429.918671	0.792207	city	10	1	0.549052	0.549052	0	1	0	0	CorrectCommission	0.687988	0.878478	0	0
430.710907	0.792263	city	1	1	0.398307	0.398307	0	1	0	0	CorrectCommission	1.996439	0.890426	0	0
431.503204	0.792375	city	6	1	0.463621	0.463621	0	1	0	0	CorrectCommission	1.429515	0.892903	0	0
432.295502	0.792189	city	4	1	0.546588	0.546588	0	1	0	0	CorrectCommission	0.709374	0.886898	0	0
433.087769	0.792340	city	5	1	0.499064	0.499064	0	1	0	0	CorrectCommission	1.121876	0.874046	0	0
433.880035	0.792175	city	2	1	0.614494	0.614494	0	1	0	0	CorrectCommission	0.119949	0.856342	0	0
434.672241	0.792245	city	1	1	0.515011	0.515011	0	1	0	0	CorrectCommission	0.983455	0.835867	0	0
435.464478	0.792264	city	7	1	0.695280	0.695280	0	1	0	0	CorrectCommission	0.581268	0.814518	0	0
436.256897	0.792540	city	5	1	0.596302	0.596302	0	1	0	0	CorrectCommission	0.277853	0.793853	0	0
437.049194	0.792047	mountain	3	0	0.000000	0.734586	1	0	0	0	CorrectOmission	0.922439	0.774999	0	0
437.841309	0.792210	city	2	1	0.843781	0.843781	0	1	0	0	CorrectCommission	1.870249	0.758609	0	0
438.633575	0.792327	city	8	1	0.657539	0.657539	0	1	0	0	CorrectCommission	0.253681	0.744894	1	0
439.425842	0.792202	city	9	1	0.605591	0.605591	0	1	0	0	CorrectCommission	0.197231	0.733767	1	0
440.218170	0.792482	city	5	1	0.596728	0.596728	0	1	0	0	CorrectCommission	0.274162	0.724885	1	0
441.010498	0.792156	city	1	1	0.463174	0.463174	0	1	0	0	CorrectCommission	1.433396	0.717747	1	0
441.802765	0.792374	city	3	1	0.696230	0.696230	0	1	0	0	CorrectCommission	0.589512	0.711779	1	0
442.595093	0.792263	city	1	1	0.663183	0.663183	0	1	0	0	CorrectCommission	0.302667	0.706478	1	0
443.387238	0.792052	city	6	1	0.794232	0.794232	0	1	0	0	CorrectCommission	1.440167	0.701435	1	0
444.179443	0.792370	city	1	1	0.697134	0.697134	0	1	0	0	CorrectCommission	0.597359	0.696361	1	0
444.971832	0.792373	city	2	1	0.695179	0.695179	0	1	0	0	CorrectCommission	0.580393	0.691158	1	0
445.764038	0.792047	city	10	1	0.695061	0.695061	0	1	0	0	CorrectCommission	0.579365	0.685851	1	0
446.556305	0.792483	city	5	1	0.695260	0.695260	0	1	0	0	CorrectCommission	0.581097	0.680613	1	0
447.348663	0.792263	city	4	1	0.694961	0.694961	0	1	0	0	CorrectCommission	0.578494	0.675682	1	0
448.140839	0.792047	city	7	1	0.697472	0.697472	0	1	0	0	CorrectCommission	0.600294	0.671290	1	0
448.932983	0.792268	city	8	1	0.795337	0.795337	0	1	0	0	CorrectCommission	1.449754	0.667600	1	0
449.725372	0.792479	city	5	1	0.695209	0.695209	0	1	0	0	CorrectCommission	0.580652	0.664639	1	0
450.517639	0.792051	city	4	1	0.657156	0.657156	0	1	0	0	CorrectCommission	0.250352	0.662259	1	0
451.309784	0.792261	city	9	1	0.605229	0.605229	0	1	0	0	CorrectCommission	0.200373	0.660118	1	0
452.102051	0.792267	city	7	1	0.695254	0.695254	0	1	0	0	CorrectCommission	0.581040	0.657640	1	0
452.894318	0.792262	city	8	1	0.744797	0.744797	0	1	0	0	CorrectCommission	1.011067	0.654143	1	0
453.686584	0.792269	city	7	1	0.697127	0.697127	0	1	0	0	CorrectCommission	0.597301	0.648925	1	0
454.478882	0.792333	city	9	1	0.596381	0.596381	0	1	0	0	CorrectCommission	0.277170	0.641460	1	0
455.271240	0.792410	city	8	1	0.463647	0.463647	0	1	0	0	CorrectCommission	1.429291	0.631522	1	0
456.063477	0.792049	city	10	1	0.497008	0.497008	0	1	0	0	CorrectCommission	1.139722	0.619343	1	0
456.855743	0.792481	city	4	1	0.596207	0.596207	0	1	0	0	CorrectCommission	0.278683	0.605698	1	0
457.648010	0.792048	mountain	1	0	0.000000	0.703535	1	0	0	0	CorrectOmission	0.652922	0.591829	1	0
458.440186	0.792297	city	7	1	0.744782	0.744782	0	1	0	0	CorrectCommission	1.010945	0.579350	1	0
459.232544	0.792449	city	10	1	0.645737	0.645737	0	1	0	0	CorrectCommission	0.151239	0.570016	1	0
460.024811	0.792050	city	1	1	0.645525	0.645525	0	1	0	0	CorrectCommission	0.149399	0.565594	1	0
460.816986	0.792299	mountain	8	0	0.000000	0.637046	1	0	0	0	CorrectOmission	0.075803	0.567539	1	0
461.609344	0.792444	mountain	4	1	0.645779	0.645779	0	0	1	0	CommissionError	0.151604	0.576890	1	0
462.401611	0.792050	city	7	1	0.697202	0.697202	0	1	0	0	CorrectCommission	0.597953	0.594155	1	0
463.193756	0.792265	city	8	1	0.745226	0.745226	0	1	0	0	CorrectCommission	1.014793	0.619308	1	0
463.986023	0.792265	city	6	1	0.596254	0.596254	0	1	0	0	CorrectCommission	0.278270	0.651796	1	0
464.778290	0.792261	city	2	1	0.552948	0.552948	0	1	0	0	CorrectCommission	0.654164	0.690668	1	0
465.570557	0.792281	mountain	4	0	0.000000	0.682888	1	0	0	0	CorrectOmission	0.473704	0.734643	1	0
466.362823	0.792253	city	8	1	0.794285	0.794285	0	1	0	0	CorrectCommission	1.440620	0.782200	0	0
467.155090	0.792260	city	10	1	0.695349	0.695349	0	1	0	0	CorrectCommission	0.581867	0.831640	0	0
467.947327	0.792266	city	7	1	0.794413	0.794413	0	1	0	0	CorrectCommission	1.441735	0.881155	0	0
468.739594	0.792262	city	6	1	0.654530	0.654530	0	1	0	0	CorrectCommission	0.227559	0.928799	0	0
469.531921	0.792374	city	8	1	0.596358	0.596358	0	1	0	0	CorrectCommission	0.277370	0.972629	0	0
470.324188	0.792184	mountain	7	0	0.000000	0.707713	1	0	0	0	CorrectOmission	0.689188	1.010758	0	0
471.116425	0.792237	mountain	8	0	0.000000	0.852228	1	0	0	0	CorrectOmission	1.943569	1.041505	0	0
471.908661	0.792267	city	3	1	0.893536	0.893536	0	1	0	0	CorrectCommission	2.302113	1.063551	0	0
472.700928	0.792263	city	5	1	0.695267	0.695267	0	1	0	0	CorrectCommission	0.581156	1.076083	0	0
473.493195	0.792265	city	7	1	0.942857	0.942857	0	1	0	0	CorrectCommission	2.730224	1.078911	0	0
474.285522	0.792372	city	10	1	0.601178	0.601178	0	1	0	0	CorrectCommission	0.235534	1.072355	0	0
475.077789	0.792160	mountain	10	0	0.000000	0.492230	1	0	0	0	CorrectOmission	1.181192	1.057278	0	0
475.870026	0.792321	city	10	1	0.546900	0.546900	0	1	0	0	CorrectCommission	0.706665	1.034726	0	0
476.662384	0.792424	city	4	1	0.696071	0.696071	0	1	0	0	CorrectCommission	0.588135	1.005819	0	0
477.454681	0.792153	city	5	1	0.546508	0.546508	0	1	0	0	CorrectCommission	0.710062	0.971514	0	0
478.246887	0.792243	city	4	1	0.893243	0.893243	0	1	0	0	CorrectCommission	2.299577	0.932445	0	0
479.039093	0.792179	city	10	1	0.547782	0.547782	0	1	0	0	CorrectCommission	0.699011	0.888838	0	0
479.831299	0.792267	city	3	1	0.651936	0.651936	0	1	0	0	CorrectCommission	0.205044	0.840598	0	0
480.623566	0.792261	city	6	1	0.706674	0.706674	0	1	0	0	CorrectCommission	0.680162	0.787290	0	0
481.415894	0.792374	city	5	1	0.745124	0.745124	0	1	0	0	CorrectCommission	1.013907	0.728357	1	0
482.208160	0.792157	city	7	1	0.794221	0.794221	0	1	0	0	CorrectCommission	1.440069	0.663255	1	0
483.000366	0.792263	city	2	1	0.547124	0.547124	0	1	0	0	CorrectCommission	0.704716	0.591644	1	0
483.792694	0.792376	city	7	1	0.609776	0.609776	0	1	0	0	CorrectCommission	0.160901	0.513526	1	0
484.584961	0.792158	city	2	1	0.605588	0.605588	0	1	0	0	CorrectCommission	0.197257	0.429392	1	0
485.377167	0.792263	city	5	1	0.497212	0.497212	0	1	0	0	CorrectCommission	1.137949	0.340152	1	0
486.169434	0.792261	city	8	1	0.711325	0.711325	0	1	0	0	CorrectCommission	0.720533	0.247218	1	0
486.961761	0.792374	city	9	1	0.645864	0.645864	0	1	0	0	CorrectCommission	0.152337	0.152337	1	0
