onset	duration	trial_type	image_type	Press	ReactionTime	ReactionTime_Interpolated	CorrectOmission	CorrectCommission	CommissionError	OmissionError	response_type	nonsmoothVarianceTimeCourse	VarianceTimeCourse	In_the_Zone	Reward_trial
8.421756	0.795909	city	3	1	1.060079	1.060079	0	1	0	0	CorrectCommission	2.710597	2.710597	0	0
9.217666	0.795911	city	2	1	0.716317	0.716317	0	1	0	0	CorrectCommission	0.270607	2.543046	0	0
10.013412	0.795581	city	10	1	0.549883	0.549883	0	1	0	0	CorrectCommission	0.910729	2.383100	0	0
10.809105	0.795804	city	4	1	0.599040	0.599040	0	1	0	0	CorrectCommission	0.561815	2.237201	0	0
11.604910	0.795806	city	3	1	0.455990	0.455990	0	1	0	0	CorrectCommission	1.577170	2.109792	0	0
12.400712	0.795799	city	10	1	0.460931	0.460931	0	1	0	0	CorrectCommission	1.542105	2.002757	0	0
13.196538	0.795852	city	1	1	0.457091	0.457091	0	1	0	0	CorrectCommission	1.569361	1.915381	0	0
13.992376	0.795825	city	9	1	0.402185	0.402185	0	1	0	0	CorrectCommission	1.959080	1.844722	0	0
14.788190	0.795803	city	7	1	0.404046	0.404046	0	1	0	0	CorrectCommission	1.945866	1.786250	0	0
15.583971	0.795760	city	3	1	0.350475	0.350475	0	1	0	0	CorrectCommission	2.326107	1.734697	0	0
16.379843	0.795984	city	10	1	0.350439	0.350439	0	1	0	0	CorrectCommission	2.326363	1.684854	0	0
17.175640	0.795609	city	9	1	0.406680	0.406680	0	1	0	0	CorrectCommission	1.927173	1.632248	0	0
17.971350	0.795812	city	1	1	0.413290	0.413290	0	1	0	0	CorrectCommission	1.880256	1.573597	0	0
18.767139	0.795767	city	7	1	0.451415	0.451415	0	1	0	0	CorrectCommission	1.609648	1.506977	0	0
19.563032	0.796018	city	3	1	0.506500	0.506500	0	1	0	0	CorrectCommission	1.218656	1.431812	0	0
20.358835	0.795587	city	7	1	0.464755	0.464755	0	1	0	0	CorrectCommission	1.514958	1.348691	0	0
21.154541	0.795823	city	10	1	0.598894	0.598894	0	1	0	0	CorrectCommission	0.562850	1.259072	0	0
21.950373	0.795842	city	9	1	0.499395	0.499395	0	1	0	0	CorrectCommission	1.269092	1.165073	0	0
22.746195	0.795801	city	5	1	0.465345	0.465345	0	1	0	0	CorrectCommission	1.510771	1.069138	0	0
23.541967	0.795745	city	6	1	0.456567	0.456567	0	1	0	0	CorrectCommission	1.573078	0.973867	0	0
24.337770	0.795861	city	5	1	0.517960	0.517960	0	1	0	0	CorrectCommission	1.137318	0.881864	0	0
25.133568	0.795734	city	8	1	0.648629	0.648629	0	1	0	0	CorrectCommission	0.209842	0.795533	0	0
25.929344	0.795819	city	5	1	0.648630	0.648630	0	1	0	0	CorrectCommission	0.209832	0.716977	0	0
26.725145	0.795783	city	2	1	0.698425	0.698425	0	1	0	0	CorrectCommission	0.143607	0.647844	0	0
27.520939	0.795804	city	4	1	0.652733	0.652733	0	1	0	0	CorrectCommission	0.180708	0.589205	1	0
28.316797	0.795910	city	10	1	0.705145	0.705145	0	1	0	0	CorrectCommission	0.191306	0.541519	1	0
29.112598	0.795693	city	5	1	0.598923	0.598923	0	1	0	0	CorrectCommission	0.562651	0.504629	1	0
29.908400	0.795909	mountain	1	0	0.000000	0.574315	1	0	0	0	CorrectOmission	0.737314	0.477835	1	0
30.704309	0.795911	city	3	1	0.598826	0.598826	0	1	0	0	CorrectCommission	0.563333	0.460021	1	0
31.500057	0.795585	mountain	5	0	0.000000	0.639962	1	0	0	0	CorrectOmission	0.271360	0.449798	1	0
32.295750	0.795799	city	9	1	0.663482	0.663482	0	1	0	0	CorrectCommission	0.104417	0.445651	1	0
33.091549	0.795803	mountain	6	0	0.000000	0.635148	1	0	0	0	CorrectOmission	0.305527	0.446064	1	0
33.887405	0.795912	city	4	1	0.648656	0.648656	0	1	0	0	CorrectCommission	0.209647	0.449654	1	0
34.683208	0.795690	city	3	1	0.797701	0.797701	0	1	0	0	CorrectCommission	0.848263	0.455298	1	0
35.478958	0.795808	city	9	1	0.561307	0.561307	0	1	0	0	CorrectCommission	0.829644	0.462175	1	0
36.274761	0.795800	city	3	1	0.651634	0.651634	0	1	0	0	CorrectCommission	0.188510	0.469838	1	0
37.070564	0.795803	city	10	1	0.555811	0.555811	0	1	0	0	CorrectCommission	0.868654	0.478183	1	0
37.866364	0.795798	city	6	1	0.703934	0.703934	0	1	0	0	CorrectCommission	0.182708	0.487335	1	0
38.662273	0.796019	city	4	1	0.648603	0.648603	0	1	0	0	CorrectCommission	0.210023	0.497603	1	0
39.458073	0.795583	city	8	1	0.548930	0.548930	0	1	0	0	CorrectCommission	0.917496	0.509281	1	0
40.253769	0.795805	city	9	1	0.759331	0.759331	0	1	0	0	CorrectCommission	0.575915	0.522493	1	0
41.049568	0.795800	city	4	1	0.652050	0.652050	0	1	0	0	CorrectCommission	0.185559	0.537091	1	0
41.845478	0.796017	city	9	1	0.648623	0.648623	0	1	0	0	CorrectCommission	0.209880	0.552574	1	0
42.641388	0.795802	city	6	1	0.598814	0.598814	0	1	0	0	CorrectCommission	0.563420	0.568054	1	0
43.437103	0.795625	city	7	1	0.598716	0.598716	0	1	0	0	CorrectCommission	0.564115	0.582332	1	0
44.232796	0.795761	city	3	1	0.598827	0.598827	0	1	0	0	CorrectCommission	0.563331	0.594043	1	0
45.028576	0.795799	city	4	1	0.598861	0.598861	0	1	0	0	CorrectCommission	0.563091	0.601880	1	0
45.824375	0.795805	city	10	1	0.797869	0.797869	0	1	0	0	CorrectCommission	0.849454	0.604804	1	0
46.620182	0.795805	city	9	1	0.467489	0.467489	0	1	0	0	CorrectCommission	1.495555	0.602240	1	0
47.415981	0.795796	mountain	8	1	0.499451	0.499451	0	0	1	0	CommissionError	1.268688	0.594212	1	0
48.211781	0.795802	city	1	1	0.611019	0.611019	0	1	0	0	CorrectCommission	0.476794	0.581388	1	0
49.007614	0.795865	city	4	1	0.656101	0.656101	0	1	0	0	CorrectCommission	0.156802	0.564988	1	0
49.803417	0.795738	city	6	1	0.657160	0.657160	0	1	0	0	CorrectCommission	0.149287	0.546599	1	0
50.599186	0.795802	city	2	1	0.650139	0.650139	0	1	0	0	CorrectCommission	0.199121	0.527943	1	0
51.395096	0.796019	city	1	1	0.811564	0.811564	0	1	0	0	CorrectCommission	0.946658	0.510652	1	0
52.190899	0.795584	city	7	1	0.599110	0.599110	0	1	0	0	CorrectCommission	0.561322	0.496027	1	0
52.986591	0.795801	city	9	1	0.648743	0.648743	0	1	0	0	CorrectCommission	0.209027	0.484953	1	0
53.782501	0.796020	city	4	1	0.665334	0.665334	0	1	0	0	CorrectCommission	0.091267	0.477771	1	0
54.578358	0.795694	mountain	4	0	0.000000	0.731162	1	0	0	0	CorrectOmission	0.375975	0.474299	1	0
55.374069	0.795730	city	7	1	0.756011	0.756011	0	1	0	0	CorrectCommission	0.552349	0.473911	1	0
56.169815	0.795764	mountain	5	0	0.000000	0.649664	1	0	0	0	CorrectOmission	0.202496	0.475675	1	0
56.965706	0.796017	city	10	1	0.552784	0.552784	0	1	0	0	CorrectCommission	0.890140	0.478520	1	0
57.761509	0.795583	city	3	1	0.606035	0.606035	0	1	0	0	CorrectCommission	0.512164	0.481391	1	0
58.557201	0.795806	city	7	1	0.797855	0.797855	0	1	0	0	CorrectCommission	0.849355	0.483434	1	0
59.353004	0.795796	city	4	1	0.648636	0.648636	0	1	0	0	CorrectCommission	0.209789	0.484073	1	0
60.148804	0.795805	city	10	1	0.598895	0.598895	0	1	0	0	CorrectCommission	0.562843	0.483078	1	0
60.944607	0.795801	city	5	1	0.599542	0.599542	0	1	0	0	CorrectCommission	0.558251	0.480529	1	0
61.740410	0.795803	city	6	1	0.704820	0.704820	0	1	0	0	CorrectCommission	0.188999	0.476780	1	0
62.536213	0.795800	city	3	1	0.797994	0.797994	0	1	0	0	CorrectCommission	0.850342	0.472367	1	0
63.332012	0.795804	city	5	1	0.797834	0.797834	0	1	0	0	CorrectCommission	0.849201	0.467856	1	0
64.127815	0.795799	city	3	1	0.698398	0.698398	0	1	0	0	CorrectCommission	0.143416	0.463758	1	0
64.923615	0.795800	city	10	1	0.714289	0.714289	0	1	0	0	CorrectCommission	0.256211	0.460451	1	0
65.719421	0.795805	mountain	2	0	0.000000	0.674506	1	0	0	0	CorrectOmission	0.026165	0.458109	1	0
66.515327	0.796017	mountain	3	0	0.000000	0.646644	1	0	0	0	CorrectOmission	0.223930	0.456717	1	0
67.311241	0.795801	city	4	1	0.698297	0.698297	0	1	0	0	CorrectCommission	0.142702	0.456101	1	0
68.106964	0.795648	city	6	1	0.897062	0.897062	0	1	0	0	CorrectCommission	1.553515	0.456036	1	1
68.902664	0.795756	city	4	1	0.648780	0.648780	0	1	0	0	CorrectCommission	0.208766	0.456290	1	1
69.698433	0.795784	city	1	1	0.549217	0.549217	0	1	0	0	CorrectCommission	0.915459	0.456779	1	1
70.494232	0.795819	mountain	3	0	0.000000	0.581348	1	0	0	0	CorrectOmission	0.687394	0.457487	1	1
71.290039	0.795785	city	5	1	0.659647	0.659647	0	1	0	0	CorrectCommission	0.131635	0.458476	1	1
72.085884	0.795910	city	7	1	0.698586	0.698586	0	1	0	0	CorrectCommission	0.144755	0.459781	1	1
72.881683	0.795694	city	3	1	0.653864	0.653864	0	1	0	0	CorrectCommission	0.172678	0.461287	1	1
73.677490	0.795909	mountain	8	0	0.000000	0.696618	1	0	0	0	CorrectOmission	0.130779	0.462676	1	1
74.473343	0.795802	city	10	1	0.755692	0.755692	0	1	0	0	CorrectCommission	0.550087	0.463398	1	1
75.269089	0.795693	city	6	1	0.759935	0.759935	0	1	0	0	CorrectCommission	0.580202	0.462727	1	1
76.139488	0.945099	city	4	1	0.767416	0.767416	0	1	0	0	CorrectCommission	0.633301	0.459868	1	1
77.009895	0.795719	city	10	1	0.552438	0.552438	0	1	0	0	CorrectCommission	0.892593	0.454134	1	1
77.805656	0.795799	city	9	1	0.562192	0.562192	0	1	0	0	CorrectCommission	0.823359	0.445046	1	1
78.601456	0.795805	city	5	1	0.606228	0.606228	0	1	0	0	CorrectCommission	0.510798	0.432460	1	1
79.397255	0.795800	city	9	1	0.652994	0.652994	0	1	0	0	CorrectCommission	0.178858	0.416616	1	1
80.193062	0.795806	city	6	1	0.648678	0.648678	0	1	0	0	CorrectCommission	0.209488	0.398091	1	1
80.988876	0.795821	city	7	1	0.605399	0.605399	0	1	0	0	CorrectCommission	0.516680	0.377726	1	1
81.784676	0.795779	city	4	1	0.613106	0.613106	0	1	0	0	CorrectCommission	0.461976	0.356521	1	1
82.580574	0.796018	city	9	1	0.665856	0.665856	0	1	0	0	CorrectCommission	0.087560	0.335504	1	1
83.376373	0.795582	city	3	1	0.648563	0.648563	0	1	0	0	CorrectCommission	0.210307	0.315632	1	1
84.172081	0.795832	city	2	1	0.748745	0.748745	0	1	0	0	CorrectCommission	0.500776	0.297665	1	1
84.967888	0.795789	city	6	1	0.701709	0.701709	0	1	0	0	CorrectCommission	0.166921	0.282138	1	1
85.763680	0.795786	city	8	1	0.654518	0.654518	0	1	0	0	CorrectCommission	0.168039	0.269310	1	1
86.559509	0.795869	city	9	1	0.698357	0.698357	0	1	0	0	CorrectCommission	0.143126	0.259198	1	1
87.355309	0.795736	city	5	1	0.648992	0.648992	0	1	0	0	CorrectCommission	0.207261	0.251596	1	1
88.151131	0.795909	city	8	1	0.656494	0.656494	0	1	0	0	CorrectCommission	0.154015	0.246171	1	1
88.946930	0.795692	city	4	1	0.666766	0.666766	0	1	0	0	CorrectCommission	0.081106	0.242543	1	1
89.742783	0.796019	city	6	1	0.748108	0.748108	0	1	0	0	CorrectCommission	0.496257	0.240389	1	1
90.538589	0.795582	mountain	3	0	0.000000	0.729769	1	0	0	0	CorrectOmission	0.366084	0.239509	1	1
91.334282	0.795802	city	10	1	0.665310	0.665310	0	1	0	0	CorrectCommission	0.091440	0.239909	1	1
92.130089	0.795817	city	1	1	0.608295	0.608295	0	1	0	0	CorrectCommission	0.496127	0.241798	1	1
92.925896	0.795790	city	2	1	0.649157	0.649157	0	1	0	0	CorrectCommission	0.206094	0.245540	1	1
93.721703	0.795838	city	8	1	0.704497	0.704497	0	1	0	0	CorrectCommission	0.186706	0.251610	1	1
94.517509	0.795764	city	2	1	0.666702	0.666702	0	1	0	0	CorrectCommission	0.081560	0.260452	1	1
95.313339	0.795908	mountain	9	0	0.000000	0.698113	1	0	0	0	CorrectOmission	0.141393	0.272356	1	1
96.109146	0.795696	city	7	1	0.722260	0.722260	0	1	0	0	CorrectCommission	0.312790	0.287349	1	1
96.904892	0.795800	city	5	1	0.662675	0.662675	0	1	0	0	CorrectCommission	0.110144	0.305106	1	1
97.700714	0.795846	mountain	6	0	0.000000	0.685560	1	0	0	0	CorrectOmission	0.052297	0.324945	1	1
98.496513	0.795754	city	1	1	0.709759	0.709759	0	1	0	0	CorrectCommission	0.224059	0.345840	1	1
99.292297	0.795803	city	6	1	0.654114	0.654114	0	1	0	0	CorrectCommission	0.170909	0.366553	1	1
100.088120	0.795850	city	1	1	0.549163	0.549163	0	1	0	0	CorrectCommission	0.915841	0.385790	1	1
100.883934	0.795780	city	5	1	0.549088	0.549088	0	1	0	0	CorrectCommission	0.916373	0.402366	1	1
101.679718	0.795775	city	9	1	0.605867	0.605867	0	1	0	0	CorrectCommission	0.513362	0.415398	1	1
102.475555	0.795911	city	3	1	0.698332	0.698332	0	1	0	0	CorrectCommission	0.142948	0.424408	1	1
103.271362	0.795694	city	4	1	0.797725	0.797725	0	1	0	0	CorrectCommission	0.848430	0.429385	1	1
104.067108	0.795809	city	10	1	0.653025	0.653025	0	1	0	0	CorrectCommission	0.178637	0.430759	1	1
104.862915	0.795796	city	1	1	0.599704	0.599704	0	1	0	0	CorrectCommission	0.557107	0.429382	1	1
105.658714	0.795809	city	2	1	0.609739	0.609739	0	1	0	0	CorrectCommission	0.485876	0.426344	1	1
106.454567	0.795901	city	3	1	0.603796	0.603796	0	1	0	0	CorrectCommission	0.528056	0.422862	1	1
107.250366	0.795691	mountain	2	0	0.000000	0.624789	1	0	0	0	CorrectOmission	0.379056	0.420087	1	1
108.046219	0.796021	city	10	1	0.664569	0.664569	0	1	0	0	CorrectCommission	0.096696	0.418975	1	1
108.842026	0.795588	city	7	1	0.714993	0.714993	0	1	0	0	CorrectCommission	0.261205	0.420148	1	1
109.637718	0.795798	mountain	6	0	0.000000	0.730850	1	0	0	0	CorrectOmission	0.373756	0.423802	1	1
110.433571	0.795910	city	9	1	0.699393	0.699393	0	1	0	0	CorrectCommission	0.150478	0.429715	1	1
111.229485	0.795912	city	4	1	0.607875	0.607875	0	1	0	0	CorrectCommission	0.499108	0.437281	1	1
112.025230	0.795581	city	3	1	0.598669	0.598669	0	1	0	0	CorrectCommission	0.564451	0.445585	1	1
112.820923	0.795804	city	8	1	0.553280	0.553280	0	1	0	0	CorrectCommission	0.886617	0.453564	1	1
113.616730	0.795803	mountain	2	0	0.000000	0.651412	1	0	0	0	CorrectOmission	0.190086	0.460138	1	1
114.412529	0.795800	city	7	1	0.748096	0.748096	0	1	0	0	CorrectCommission	0.496172	0.464405	1	1
115.208351	0.795844	city	4	1	0.698366	0.698366	0	1	0	0	CorrectCommission	0.143188	0.465747	1	1
116.004166	0.795792	mountain	8	0	0.000000	0.784175	1	0	0	0	CorrectOmission	0.752252	0.463950	1	1
116.800003	0.795875	city	4	1	0.853553	0.853553	0	1	0	0	CorrectCommission	1.244696	0.459230	1	1
117.595787	0.795693	city	3	1	0.754532	0.754532	0	1	0	0	CorrectCommission	0.541853	0.452212	1	1
118.391640	0.796020	city	2	1	0.650840	0.650840	0	1	0	0	CorrectCommission	0.194146	0.443873	1	1
119.187500	0.795692	city	7	1	0.648424	0.648424	0	1	0	0	CorrectCommission	0.211296	0.435356	1	1
119.983192	0.795695	city	10	1	0.598826	0.598826	0	1	0	0	CorrectCommission	0.563339	0.427782	1	1
120.778938	0.795802	city	3	1	0.648501	0.648501	0	1	0	0	CorrectCommission	0.210745	0.422033	1	1
121.574745	0.795802	city	5	1	0.698398	0.698398	0	1	0	0	CorrectCommission	0.143416	0.418620	1	1
122.370651	0.796015	city	4	1	0.655893	0.655893	0	1	0	0	CorrectCommission	0.158281	0.417541	1	1
123.166451	0.795583	city	1	1	0.609134	0.609134	0	1	0	0	CorrectCommission	0.490168	0.418278	1	1
123.962143	0.795805	city	9	1	0.648819	0.648819	0	1	0	0	CorrectCommission	0.208490	0.419875	1	1
124.758003	0.795909	city	6	1	0.648651	0.648651	0	1	0	0	CorrectCommission	0.209683	0.421126	1	1
125.553856	0.795802	city	5	1	0.552704	0.552704	0	1	0	0	CorrectCommission	0.890704	0.420786	1	1
126.349609	0.795694	city	1	1	0.558628	0.558628	0	1	0	0	CorrectCommission	0.848659	0.417782	1	1
127.145355	0.795799	city	9	1	0.598904	0.598904	0	1	0	0	CorrectCommission	0.562780	0.411453	1	1
127.941261	0.796022	city	10	1	0.797980	0.797980	0	1	0	0	CorrectCommission	0.850244	0.401680	1	0
128.737061	0.795587	city	3	1	0.700657	0.700657	0	1	0	0	CorrectCommission	0.159452	0.388891	1	0
129.532806	0.795906	city	6	1	0.714846	0.714846	0	1	0	0	CorrectCommission	0.260166	0.374051	1	0
130.328613	0.795692	city	5	1	0.747970	0.747970	0	1	0	0	CorrectCommission	0.495276	0.358474	1	0
131.124466	0.796021	city	7	1	0.658939	0.658939	0	1	0	0	CorrectCommission	0.136661	0.343665	1	0
131.920273	0.795586	city	1	1	0.698279	0.698279	0	1	0	0	CorrectCommission	0.142569	0.331097	1	0
132.715958	0.795800	city	4	1	0.658463	0.658463	0	1	0	0	CorrectCommission	0.140038	0.322021	1	0
133.511795	0.795867	city	9	1	0.648628	0.648628	0	1	0	0	CorrectCommission	0.209847	0.317325	1	0
134.307602	0.795739	city	1	1	0.657745	0.657745	0	1	0	0	CorrectCommission	0.145133	0.317440	1	0
135.103394	0.795855	city	10	1	0.648583	0.648583	0	1	0	0	CorrectCommission	0.210165	0.322368	1	0
135.899200	0.795748	city	1	1	0.610553	0.610553	0	1	0	0	CorrectCommission	0.480100	0.331693	1	0
136.694977	0.795796	city	9	1	0.614666	0.614666	0	1	0	0	CorrectCommission	0.450908	0.344683	1	0
137.490768	0.795806	city	1	1	0.650037	0.650037	0	1	0	0	CorrectCommission	0.199844	0.360402	1	0
138.286575	0.795797	city	3	1	0.648804	0.648804	0	1	0	0	CorrectCommission	0.208597	0.377823	1	0
139.082382	0.795802	city	6	1	0.708867	0.708867	0	1	0	0	CorrectCommission	0.217724	0.395945	1	0
139.878281	0.796021	city	10	1	0.598884	0.598884	0	1	0	0	CorrectCommission	0.562928	0.413891	1	0
140.674103	0.795618	city	8	1	0.554949	0.554949	0	1	0	0	CorrectCommission	0.874770	0.430957	1	0
141.469833	0.795826	city	4	1	0.604607	0.604607	0	1	0	0	CorrectCommission	0.522304	0.446693	1	0
142.265717	0.795959	city	5	1	0.748056	0.748056	0	1	0	0	CorrectCommission	0.495885	0.460913	1	0
143.061493	0.795584	city	1	1	0.761991	0.761991	0	1	0	0	CorrectCommission	0.594792	0.473615	1	0
143.857239	0.795911	city	10	1	0.648629	0.648629	0	1	0	0	CorrectCommission	0.209839	0.484985	1	0
144.653046	0.795698	city	7	1	0.718345	0.718345	0	1	0	0	CorrectCommission	0.285000	0.495348	1	0
145.448792	0.795799	mountain	10	0	0.000000	0.636885	1	0	0	0	CorrectOmission	0.293194	0.505085	1	0
146.244705	0.796017	city	3	1	0.549131	0.549131	0	1	0	0	CorrectCommission	0.916066	0.514630	1	0
147.040512	0.795612	city	6	1	0.599964	0.599964	0	1	0	0	CorrectCommission	0.555262	0.524411	1	0
147.836212	0.795773	city	1	1	0.598730	0.598730	0	1	0	0	CorrectCommission	0.564020	0.534844	1	0
148.632034	0.795875	city	2	1	0.549155	0.549155	0	1	0	0	CorrectCommission	0.915898	0.546304	1	0
149.427841	0.795732	city	6	1	0.648591	0.648591	0	1	0	0	CorrectCommission	0.210110	0.559076	1	0
150.223602	0.795799	city	8	1	0.606567	0.606567	0	1	0	0	CorrectCommission	0.508392	0.573347	1	0
151.019409	0.795805	city	5	1	0.657707	0.657707	0	1	0	0	CorrectCommission	0.145402	0.589141	1	0
151.815201	0.795796	city	1	1	0.748111	0.748111	0	1	0	0	CorrectCommission	0.496277	0.606284	1	0
152.611008	0.795802	city	2	1	0.811703	0.811703	0	1	0	0	CorrectCommission	0.947644	0.624398	1	0
153.406799	0.795804	city	8	1	0.759781	0.759781	0	1	0	0	CorrectCommission	0.579108	0.642919	1	0
154.202713	0.796018	mountain	2	0	0.000000	0.786177	1	0	0	0	CorrectOmission	0.766464	0.661163	0	0
154.998520	0.795584	city	4	1	0.797774	0.797774	0	1	0	0	CorrectCommission	0.848777	0.678353	0	0
155.794205	0.795801	city	3	1	0.701455	0.701455	0	1	0	0	CorrectCommission	0.165113	0.693704	0	0
156.590012	0.795804	city	4	1	0.847576	0.847576	0	1	0	0	CorrectCommission	1.202269	0.706494	0	0
157.385818	0.795800	city	5	1	0.897184	0.897184	0	1	0	0	CorrectCommission	1.554380	0.716066	0	0
158.181625	0.795808	city	9	1	0.666097	0.666097	0	1	0	0	CorrectCommission	0.085856	0.721930	0	0
158.977417	0.795797	city	6	1	0.648799	0.648799	0	1	0	0	CorrectCommission	0.208635	0.723870	0	0
159.773224	0.795799	city	9	1	0.561140	0.561140	0	1	0	0	CorrectCommission	0.830825	0.721927	0	0
160.569046	0.795860	city	4	1	0.798509	0.798509	0	1	0	0	CorrectCommission	0.853993	0.716488	0	0
161.364899	0.795837	city	10	1	0.504392	0.504392	0	1	0	0	CorrectCommission	1.233624	0.708364	0	0
162.160721	0.795816	mountain	6	0	0.000000	0.485851	1	0	0	0	CorrectOmission	1.365225	0.698757	0	0
162.956482	0.795695	city	10	1	0.611031	0.611031	0	1	0	0	CorrectCommission	0.476704	0.689227	0	0
163.752228	0.795799	city	4	1	0.748079	0.748079	0	1	0	0	CorrectCommission	0.496045	0.681574	0	0
164.548050	0.795859	city	2	1	0.699057	0.699057	0	1	0	0	CorrectCommission	0.148092	0.677602	0	0
165.343964	0.795964	city	10	1	0.615762	0.615762	0	1	0	0	CorrectCommission	0.443127	0.678941	0	0
166.139740	0.795585	city	2	1	0.858183	0.858183	0	1	0	0	CorrectCommission	1.277558	0.686788	0	0
166.935425	0.795800	city	10	1	0.662871	0.662871	0	1	0	0	CorrectCommission	0.108751	0.701745	0	0
167.731262	0.795866	city	9	1	0.668519	0.668519	0	1	0	0	CorrectCommission	0.068665	0.723738	0	0
168.527100	0.795793	city	6	1	0.648562	0.648562	0	1	0	0	CorrectCommission	0.210314	0.751952	0	0
169.322922	0.795857	city	9	1	0.564860	0.564860	0	1	0	0	CorrectCommission	0.804421	0.784944	0	0
170.118729	0.795753	city	6	1	0.551830	0.551830	0	1	0	0	CorrectCommission	0.896913	0.820804	0	0
170.914474	0.795744	city	10	1	0.467835	0.467835	0	1	0	0	CorrectCommission	1.493100	0.857392	0	0
171.710236	0.795797	city	1	1	0.463196	0.463196	0	1	0	0	CorrectCommission	1.526025	0.892519	0	0
172.506042	0.795806	city	9	1	0.515589	0.515589	0	1	0	0	CorrectCommission	1.154143	0.924134	0	0
173.301880	0.795852	city	4	1	0.559547	0.559547	0	1	0	0	CorrectCommission	0.842132	0.950442	0	0
174.097687	0.795762	city	2	1	0.549111	0.549111	0	1	0	0	CorrectCommission	0.916208	0.969926	0	0
174.893448	0.795787	mountain	2	0	0.000000	0.580562	1	0	0	0	CorrectOmission	0.692975	0.981338	0	0
175.689270	0.795831	city	8	1	0.598895	0.598895	0	1	0	0	CorrectCommission	0.562845	0.983754	0	0
176.485123	0.795882	city	1	1	0.549108	0.549108	0	1	0	0	CorrectCommission	0.916230	0.976598	0	0
177.280914	0.795693	mountain	3	1	0.499404	0.499404	0	0	1	0	CommissionError	1.269023	0.959690	0	0
178.076767	0.796019	mountain	7	1	0.400092	0.400092	0	0	1	0	CommissionError	1.973932	0.933365	0	0
178.872681	0.795801	city	2	1	0.996543	0.996543	0	1	0	0	CorrectCommission	2.259624	0.898537	0	0
179.668365	0.795584	city	5	1	0.797622	0.797622	0	1	0	0	CorrectCommission	0.847704	0.856713	0	0
180.464066	0.795815	city	4	1	0.709827	0.709827	0	1	0	0	CorrectCommission	0.224537	0.809958	0	0
181.259872	0.795787	city	6	1	0.648545	0.648545	0	1	0	0	CorrectCommission	0.210438	0.760648	0	0
182.055679	0.795824	city	5	1	0.599849	0.599849	0	1	0	0	CorrectCommission	0.556074	0.711288	0	0
182.851471	0.795780	city	7	1	0.748142	0.748142	0	1	0	0	CorrectCommission	0.496498	0.664261	0	0
183.647293	0.795871	city	5	1	0.702542	0.702542	0	1	0	0	CorrectCommission	0.172830	0.621649	1	0
184.443100	0.795731	city	7	1	0.610465	0.610465	0	1	0	0	CorrectCommission	0.480722	0.585130	1	0
185.238861	0.795803	city	3	1	0.562813	0.562813	0	1	0	0	CorrectCommission	0.818955	0.555877	1	0
186.034729	0.795910	city	10	1	0.555213	0.555213	0	1	0	0	CorrectCommission	0.872899	0.534563	1	0
186.830643	0.795911	city	6	1	0.615262	0.615262	0	1	0	0	CorrectCommission	0.446678	0.521373	1	0
187.626389	0.795586	mountain	5	0	0.000000	0.660071	1	0	0	0	CorrectOmission	0.128626	0.516038	1	1
188.422073	0.795807	city	5	1	0.664516	0.664516	0	1	0	0	CorrectCommission	0.097078	0.517816	1	1
189.217880	0.795796	city	2	1	0.603471	0.603471	0	1	0	0	CorrectCommission	0.530366	0.525510	1	1
190.013687	0.795801	mountain	4	0	0.000000	0.639579	1	0	0	0	CorrectOmission	0.274074	0.537499	1	1
190.809479	0.795801	city	6	1	0.660313	0.660313	0	1	0	0	CorrectCommission	0.126904	0.551831	1	1
191.605286	0.795799	city	8	1	0.553147	0.553147	0	1	0	0	CorrectCommission	0.887562	0.566323	1	1
192.401138	0.795911	city	3	1	0.549360	0.549360	0	1	0	0	CorrectCommission	0.914442	0.578723	1	1
193.197052	0.795913	city	1	1	0.605412	0.605412	0	1	0	0	CorrectCommission	0.516590	0.586944	1	1
193.992905	0.795800	city	2	1	0.549238	0.549238	0	1	0	0	CorrectCommission	0.915306	0.589262	1	1
194.788605	0.795584	city	1	1	0.548922	0.548922	0	1	0	0	CorrectCommission	0.917549	0.584484	1	1
195.584396	0.796019	city	9	1	0.499288	0.499288	0	1	0	0	CorrectCommission	1.269845	0.572067	1	1
196.380234	0.795664	city	4	1	0.648460	0.648460	0	1	0	0	CorrectCommission	0.211037	0.552163	1	1
197.175934	0.795720	city	5	1	0.565350	0.565350	0	1	0	0	CorrectCommission	0.800945	0.525642	1	1
197.971741	0.795891	city	2	1	0.648648	0.648648	0	1	0	0	CorrectCommission	0.209706	0.493898	1	1
198.767563	0.795767	city	7	1	0.598797	0.598797	0	1	0	0	CorrectCommission	0.563545	0.458759	1	1
199.563324	0.795748	city	9	1	0.599376	0.599376	0	1	0	0	CorrectCommission	0.559430	0.422254	1	1
200.359100	0.795806	city	4	1	0.648777	0.648777	0	1	0	0	CorrectCommission	0.208787	0.386464	1	1
201.154953	0.795906	city	9	1	0.658881	0.658881	0	1	0	0	CorrectCommission	0.137074	0.353364	1	1
201.950760	0.795696	city	7	1	0.654753	0.654753	0	1	0	0	CorrectCommission	0.166370	0.324670	1	1
202.746552	0.795873	city	6	1	0.718781	0.718781	0	1	0	0	CorrectCommission	0.288097	0.301745	1	1
203.542343	0.795729	city	9	1	0.705753	0.705753	0	1	0	0	CorrectCommission	0.195619	0.285542	1	1
204.338104	0.795799	city	10	1	0.698642	0.698642	0	1	0	0	CorrectCommission	0.145148	0.276567	1	1
205.133911	0.795804	city	7	1	0.664427	0.664427	0	1	0	0	CorrectCommission	0.097709	0.274856	1	1
205.929733	0.795833	city	3	1	0.698609	0.698609	0	1	0	0	CorrectCommission	0.144915	0.279979	1	1
206.725632	0.795986	mountain	10	0	0.000000	0.711461	1	0	0	0	CorrectOmission	0.236137	0.291065	1	1
207.521423	0.795586	city	8	1	0.698028	0.698028	0	1	0	0	CorrectCommission	0.140791	0.306858	1	1
208.317230	0.796018	city	3	1	0.653356	0.653356	0	1	0	0	CorrectCommission	0.176290	0.325818	1	1
209.113022	0.795584	city	6	1	0.698048	0.698048	0	1	0	0	CorrectCommission	0.140933	0.346222	1	1
209.908722	0.795801	city	4	1	0.801578	0.801578	0	1	0	0	CorrectCommission	0.875780	0.366337	1	1
210.704544	0.795860	city	5	1	0.702067	0.702067	0	1	0	0	CorrectCommission	0.169458	0.384575	1	1
211.500351	0.795746	mountain	9	0	0.000000	0.600829	1	0	0	0	CorrectOmission	0.549118	0.399664	1	1
212.296127	0.795798	city	2	1	0.549327	0.549327	0	1	0	0	CorrectCommission	0.914676	0.410765	1	1
213.092041	0.796019	city	7	1	0.599022	0.599022	0	1	0	0	CorrectCommission	0.561946	0.417559	1	1
213.887833	0.795586	city	3	1	0.605317	0.605317	0	1	0	0	CorrectCommission	0.517262	0.420300	1	1
214.683533	0.795800	city	8	1	0.602553	0.602553	0	1	0	0	CorrectCommission	0.536885	0.419716	1	1
215.479324	0.795802	city	3	1	0.620219	0.620219	0	1	0	0	CorrectCommission	0.411488	0.416888	1	1
216.275192	0.795909	city	7	1	0.706192	0.706192	0	1	0	0	CorrectCommission	0.198740	0.413091	1	1
217.070984	0.795693	city	2	1	0.698398	0.698398	0	1	0	0	CorrectCommission	0.143417	0.409595	1	1
217.866730	0.795802	city	10	1	0.651626	0.651626	0	1	0	0	CorrectCommission	0.188570	0.407502	1	1
218.662643	0.796019	city	5	1	0.614858	0.614858	0	1	0	0	CorrectCommission	0.449545	0.407607	1	1
219.458466	0.795611	city	2	1	0.598829	0.598829	0	1	0	0	CorrectCommission	0.563318	0.410305	1	1
220.254166	0.795810	city	1	1	0.608982	0.608982	0	1	0	0	CorrectCommission	0.491253	0.415573	1	1
221.050064	0.795984	city	8	1	0.656428	0.656428	0	1	0	0	CorrectCommission	0.154485	0.423004	1	1
221.845886	0.795644	city	3	1	0.608219	0.608219	0	1	0	0	CorrectCommission	0.496669	0.431870	1	1
222.641617	0.795818	city	5	1	0.648581	0.648581	0	1	0	0	CorrectCommission	0.210177	0.441236	1	1
223.437424	0.795791	city	6	1	0.698408	0.698408	0	1	0	0	CorrectCommission	0.143488	0.450124	1	1
224.233185	0.795736	city	8	1	0.748398	0.748398	0	1	0	0	CorrectCommission	0.498313	0.457637	1	1
225.029007	0.795910	mountain	7	0	0.000000	0.840313	1	0	0	0	CorrectOmission	1.150717	0.463114	1	1
225.824814	0.795697	city	6	1	0.861268	0.861268	0	1	0	0	CorrectCommission	1.299457	0.466226	1	1
226.620667	0.796018	city	3	1	0.698381	0.698381	0	1	0	0	CorrectCommission	0.143294	0.467064	1	1
227.416458	0.795582	mountain	7	0	0.000000	0.690371	1	0	0	0	CorrectOmission	0.086441	0.466135	1	1
228.212204	0.795911	city	4	1	0.705863	0.705863	0	1	0	0	CorrectCommission	0.196404	0.464244	1	1
229.008072	0.795802	city	1	1	0.613481	0.613481	0	1	0	0	CorrectCommission	0.459313	0.462401	1	1
229.803925	0.795909	city	3	1	0.549046	0.549046	0	1	0	0	CorrectCommission	0.916669	0.461705	1	1
230.599670	0.795585	city	7	1	0.648522	0.648522	0	1	0	0	CorrectCommission	0.210596	0.463228	1	1
231.395370	0.795811	city	6	1	0.605768	0.605768	0	1	0	0	CorrectCommission	0.514063	0.467894	1	1
232.191223	0.795900	city	8	1	0.648644	0.648644	0	1	0	0	CorrectCommission	0.209735	0.476409	1	1
232.987015	0.795695	city	6	1	0.651276	0.651276	0	1	0	0	CorrectCommission	0.191054	0.489227	1	1
233.782883	0.796017	city	2	1	0.598872	0.598872	0	1	0	0	CorrectCommission	0.563009	0.506553	1	1
234.578674	0.795591	city	3	1	0.648313	0.648313	0	1	0	0	CorrectCommission	0.212082	0.528365	1	1
235.374390	0.795829	city	6	1	0.598887	0.598887	0	1	0	0	CorrectCommission	0.562906	0.554474	1	1
236.170242	0.795876	city	3	1	0.556044	0.556044	0	1	0	0	CorrectCommission	0.866996	0.584542	1	1
236.966034	0.795696	city	4	1	0.611984	0.611984	0	1	0	0	CorrectCommission	0.469942	0.618107	1	1
237.761780	0.795793	city	3	1	0.798413	0.798413	0	1	0	0	CorrectCommission	0.853316	0.654593	0	1
238.557571	0.795812	city	4	1	0.848061	0.848061	0	1	0	0	CorrectCommission	1.205709	0.693243	0	1
239.353378	0.795795	city	6	1	0.721259	0.721259	0	1	0	0	CorrectCommission	0.305684	0.733078	0	1
240.149185	0.795801	city	10	1	0.699501	0.699501	0	1	0	0	CorrectCommission	0.151249	0.772891	0	1
240.944977	0.795804	city	5	1	0.700093	0.700093	0	1	0	0	CorrectCommission	0.155450	0.811230	0	1
241.740891	0.796018	city	2	1	0.815754	0.815754	0	1	0	0	CorrectCommission	0.976397	0.846502	0	1
242.536697	0.795588	city	6	1	0.956188	0.956188	0	1	0	0	CorrectCommission	1.973191	0.877116	0	1
243.332443	0.795907	mountain	5	0	0.000000	0.817284	1	0	0	0	CorrectOmission	0.987261	0.901709	0	1
244.128357	0.795911	city	6	1	0.598784	0.598784	0	1	0	0	CorrectCommission	0.563636	0.919437	0	1
244.924103	0.795585	mountain	1	1	0.500430	0.500430	0	0	1	0	CommissionError	1.261744	0.930070	0	1
245.719788	0.795802	city	10	1	0.350260	0.350260	0	1	0	0	CorrectCommission	2.327637	0.934082	0	1
246.515625	0.795863	city	1	1	0.563073	0.563073	0	1	0	0	CorrectCommission	0.817108	0.932609	0	1
247.311539	0.795957	city	9	1	0.854568	0.854568	0	1	0	0	CorrectCommission	1.251897	0.927307	0	0
248.107300	0.795584	city	10	1	0.648384	0.648384	0	1	0	0	CorrectCommission	0.211580	0.920014	0	0
248.903030	0.795880	city	6	1	0.655234	0.655234	0	1	0	0	CorrectCommission	0.162957	0.912530	0	0
249.698837	0.795721	city	4	1	0.610627	0.610627	0	1	0	0	CorrectCommission	0.479573	0.906263	0	0
250.494598	0.795803	city	6	1	0.599017	0.599017	0	1	0	0	CorrectCommission	0.561981	0.902112	0	0
251.290466	0.795924	city	8	1	0.515175	0.515175	0	1	0	0	CorrectCommission	1.157084	0.900436	0	0
252.086380	0.795896	city	1	1	0.499460	0.499460	0	1	0	0	CorrectCommission	1.268625	0.901137	0	0
252.882111	0.795587	city	9	1	0.499210	0.499210	0	1	0	0	CorrectCommission	1.270404	0.903849	0	0
253.677856	0.795908	city	3	1	0.549158	0.549158	0	1	0	0	CorrectCommission	0.915875	0.908133	0	0
254.473724	0.795801	city	6	1	0.509049	0.509049	0	1	0	0	CorrectCommission	1.200564	0.913650	0	0
255.269516	0.795801	city	5	1	0.562428	0.562428	0	1	0	0	CorrectCommission	0.821687	0.920218	0	0
256.065277	0.795692	city	8	1	0.605475	0.605475	0	1	0	0	CorrectCommission	0.516144	0.927817	0	0
256.861023	0.795808	city	2	1	0.549792	0.549792	0	1	0	0	CorrectCommission	0.911378	0.936494	0	0
257.656830	0.795800	city	1	1	0.549191	0.549191	0	1	0	0	CorrectCommission	0.915643	0.946192	0	0
258.452606	0.795806	city	3	1	0.560629	0.560629	0	1	0	0	CorrectCommission	0.834453	0.956608	0	0
259.248413	0.795799	city	6	1	0.847617	0.847617	0	1	0	0	CorrectCommission	1.202562	0.967094	0	0
260.044220	0.795796	city	3	1	0.610490	0.610490	0	1	0	0	CorrectCommission	0.480544	0.976529	0	0
260.840057	0.795857	city	7	1	0.549166	0.549166	0	1	0	0	CorrectCommission	0.915822	0.983466	0	0
261.635864	0.795750	city	1	1	0.499367	0.499367	0	1	0	0	CorrectCommission	1.269286	0.986203	0	0
262.431732	0.796018	city	2	1	0.556343	0.556343	0	1	0	0	CorrectCommission	0.864878	0.983015	0	0
263.227539	0.795583	mountain	1	1	0.797653	0.797653	0	0	1	0	CommissionError	0.847917	0.972409	0	0
264.023224	0.795807	city	4	1	0.305100	0.305100	0	1	0	0	CorrectCommission	2.648179	0.953388	0	0
264.819031	0.795800	city	7	1	0.549822	0.549822	0	1	0	0	CorrectCommission	0.911166	0.925592	0	0
265.614838	0.795797	city	3	1	0.568539	0.568539	0	1	0	0	CorrectCommission	0.778312	0.889517	0	0
266.410645	0.795802	city	6	1	0.549321	0.549321	0	1	0	0	CorrectCommission	0.914722	0.846401	0	0
267.206482	0.795878	city	8	1	0.561379	0.561379	0	1	0	0	CorrectCommission	0.829134	0.798138	0	0
268.002289	0.795731	city	4	1	0.598827	0.598827	0	1	0	0	CorrectCommission	0.563328	0.747087	0	0
268.798035	0.795798	city	10	1	0.551606	0.551606	0	1	0	0	CorrectCommission	0.898500	0.695886	0	0
269.593842	0.795812	city	8	1	0.600770	0.600770	0	1	0	0	CorrectCommission	0.549538	0.647180	0	0
270.389709	0.795899	mountain	8	0	0.000000	0.630868	1	0	0	0	CorrectOmission	0.335908	0.603500	1	0
271.185547	0.795801	city	5	1	0.659762	0.659762	0	1	0	0	CorrectCommission	0.130822	0.567075	1	0
271.981293	0.795691	city	2	1	0.705314	0.705314	0	1	0	0	CorrectCommission	0.192507	0.539795	1	0
272.777039	0.795821	city	6	1	0.657567	0.657567	0	1	0	0	CorrectCommission	0.146397	0.523215	1	0
273.572845	0.795791	city	2	1	0.648618	0.648618	0	1	0	0	CorrectCommission	0.209920	0.518571	1	0
274.368774	0.796013	city	10	1	0.947017	0.947017	0	1	0	0	CorrectCommission	1.908094	0.526821	1	0
275.164551	0.795583	city	2	1	0.670894	0.670894	0	1	0	0	CorrectCommission	0.051802	0.548595	1	0
275.960297	0.795910	city	7	1	0.709983	0.709983	0	1	0	0	CorrectCommission	0.225646	0.584276	1	0
276.756104	0.795700	city	2	1	0.657841	0.657841	0	1	0	0	CorrectCommission	0.144454	0.633734	1	0
277.551849	0.795796	city	3	1	0.648624	0.648624	0	1	0	0	CorrectCommission	0.209878	0.696272	0	0
278.347717	0.795909	city	7	1	0.661710	0.661710	0	1	0	0	CorrectCommission	0.116990	0.770487	0	0
279.143555	0.795804	city	3	1	0.703303	0.703303	0	1	0	0	CorrectCommission	0.178231	0.854224	0	0
279.939362	0.795801	city	2	1	0.847445	0.847445	0	1	0	0	CorrectCommission	1.201339	0.944654	0	0
280.735138	0.795707	mountain	8	0	0.000000	0.906332	1	0	0	0	CorrectOmission	1.619315	1.038394	0	0
281.530975	0.796006	city	10	1	0.915824	0.915824	0	1	0	0	CorrectCommission	1.686685	1.131723	0	0
282.326782	0.795582	city	8	1	0.911779	0.911779	0	1	0	0	CorrectCommission	1.657980	1.220905	0	0
283.122589	0.796022	city	2	1	0.698545	0.698545	0	1	0	0	CorrectCommission	0.144458	1.302417	0	0
283.918427	0.795656	city	7	1	0.900110	0.900110	0	1	0	0	CorrectCommission	1.575149	1.373193	0	0
284.714111	0.795728	city	10	1	0.897376	0.897376	0	1	0	0	CorrectCommission	1.555747	1.430723	0	0
285.509857	0.795802	city	5	1	1.146132	1.146132	0	1	0	0	CorrectCommission	3.321394	1.473243	0	0
286.305664	0.795810	city	10	1	0.947375	0.947375	0	1	0	0	CorrectCommission	1.910633	1.499663	0	0
287.101501	0.795833	city	9	1	0.903716	0.903716	0	1	0	0	CorrectCommission	1.600749	1.509621	0	0
287.897308	0.795763	mountain	4	1	0.399886	0.399886	0	0	1	0	CommissionError	1.975392	1.503286	0	0
288.693085	0.795803	city	7	1	0.748120	0.748120	0	1	0	0	CorrectCommission	0.496341	1.481289	0	0
289.488892	0.795801	city	1	1	0.798406	0.798406	0	1	0	0	CorrectCommission	0.853265	1.444642	0	0
290.284729	0.795908	city	10	1	0.797958	0.797958	0	1	0	0	CorrectCommission	0.850086	1.394704	0	0
291.080536	0.795703	city	3	1	0.300851	0.300851	0	1	0	0	CorrectCommission	2.678337	1.333288	0	0
291.876404	0.796010	city	6	1	0.300453	0.300453	0	1	0	0	CorrectCommission	2.681165	1.262642	0	0
292.672180	0.795582	city	4	1	0.946695	0.946695	0	1	0	0	CorrectCommission	1.905805	1.185641	0	0
293.467896	0.795803	city	2	1	0.865763	0.865763	0	1	0	0	CorrectCommission	1.331358	1.105638	0	0
294.263733	0.795911	city	8	1	0.662802	0.662802	0	1	0	0	CorrectCommission	0.109238	1.026291	0	0
295.059601	0.795803	city	4	1	0.707970	0.707970	0	1	0	0	CorrectCommission	0.211361	0.951273	0	0
295.855347	0.795691	city	6	1	0.710733	0.710733	0	1	0	0	CorrectCommission	0.230967	0.883881	0	0
296.651093	0.795802	city	1	1	0.648664	0.648664	0	1	0	0	CorrectCommission	0.209587	0.826687	0	0
297.446930	0.795853	mountain	5	0	0.000000	0.760288	1	0	0	0	CorrectOmission	0.582706	0.781284	0	0
298.242737	0.795748	city	7	1	0.856576	0.856576	0	1	0	0	CorrectCommission	1.266151	0.748166	0	0
299.038544	0.795870	city	10	1	0.748502	0.748502	0	1	0	0	CorrectCommission	0.499053	0.726769	0	0
299.834381	0.795808	city	4	1	0.652043	0.652043	0	1	0	0	CorrectCommission	0.185609	0.715699	0	0
300.630127	0.795728	city	2	1	0.608198	0.608198	0	1	0	0	CorrectCommission	0.496817	0.713014	0	0
301.425903	0.795800	city	10	1	0.606286	0.606286	0	1	0	0	CorrectCommission	0.510385	0.716523	0	0
302.221710	0.795804	city	1	1	0.818754	0.818754	0	1	0	0	CorrectCommission	0.997691	0.724144	0	0
303.017517	0.795802	city	2	1	0.812496	0.812496	0	1	0	0	CorrectCommission	0.953274	0.734107	0	0
303.813293	0.795797	city	7	1	1.002265	1.002265	0	1	0	0	CorrectCommission	2.300239	0.745146	0	0
304.609161	0.795914	city	10	1	0.648717	0.648717	0	1	0	0	CorrectCommission	0.209214	0.756435	0	0
305.405029	0.795800	city	9	1	0.704751	0.704751	0	1	0	0	CorrectCommission	0.188510	0.767532	0	0
306.200775	0.795718	city	5	1	0.766956	0.766956	0	1	0	0	CorrectCommission	0.630035	0.778102	0	0
306.996521	0.795777	mountain	10	0	0.000000	0.623227	1	0	0	0	CorrectOmission	0.390144	0.787682	0	1
307.792328	0.795801	city	7	1	0.506223	0.506223	0	1	0	0	CorrectCommission	1.220621	0.795534	0	1
308.588104	0.795803	city	10	1	0.648607	0.648607	0	1	0	0	CorrectCommission	0.209993	0.800498	0	1
309.383942	0.795854	city	9	1	0.614696	0.614696	0	1	0	0	CorrectCommission	0.450696	0.801166	0	1
310.179749	0.795750	city	3	1	0.554087	0.554087	0	1	0	0	CorrectCommission	0.880886	0.796011	0	1
310.975616	0.796018	city	8	1	0.400590	0.400590	0	1	0	0	CorrectCommission	1.970399	0.783709	0	1
311.771545	0.795802	city	1	1	0.514396	0.514396	0	1	0	0	CorrectCommission	1.162613	0.763445	0	1
312.567261	0.795660	city	8	1	0.499331	0.499331	0	1	0	0	CorrectCommission	1.269543	0.735179	0	1
313.362976	0.795724	city	4	1	0.507119	0.507119	0	1	0	0	CorrectCommission	1.214263	0.699739	0	1
314.158722	0.795811	mountain	10	0	0.000000	0.615523	1	0	0	0	CorrectOmission	0.444820	0.658807	0	1
314.954529	0.795797	city	4	1	0.706879	0.706879	0	1	0	0	CorrectCommission	0.203617	0.614752	1	1
315.750336	0.795798	city	3	1	0.663523	0.663523	0	1	0	0	CorrectCommission	0.104120	0.570296	1	1
316.546173	0.795910	city	7	1	0.598938	0.598938	0	1	0	0	CorrectCommission	0.562545	0.528213	1	1
317.342102	0.795911	city	5	1	0.698300	0.698300	0	1	0	0	CorrectCommission	0.142722	0.490969	1	1
318.137848	0.795589	city	9	1	0.621731	0.621731	0	1	0	0	CorrectCommission	0.400760	0.460465	1	1
318.933594	0.795906	mountain	1	0	0.000000	0.616835	1	0	0	0	CorrectOmission	0.435509	0.437834	1	1
319.729401	0.795695	city	3	1	0.648617	0.648617	0	1	0	0	CorrectCommission	0.209921	0.423370	1	1
320.525177	0.795880	mountain	5	0	0.000000	0.682082	1	0	0	0	CorrectOmission	0.027606	0.416562	1	1
321.321014	0.795754	mountain	7	1	0.716882	0.716882	0	0	1	0	CommissionError	0.274613	0.416166	1	1
322.116760	0.795767	city	5	1	0.752671	0.752671	0	1	0	0	CorrectCommission	0.528640	0.420434	1	1
322.912537	0.795802	city	2	1	0.748232	0.748232	0	1	0	0	CorrectCommission	0.497132	0.427302	1	1
323.708344	0.795800	city	3	1	0.659153	0.659153	0	1	0	0	CorrectCommission	0.135141	0.434625	1	1
324.504272	0.796021	city	6	1	0.797877	0.797877	0	1	0	0	CorrectCommission	0.849508	0.440444	1	1
325.300049	0.795587	city	1	1	0.598666	0.598666	0	1	0	0	CorrectCommission	0.564469	0.443139	1	1
326.095764	0.795820	city	9	1	0.565516	0.565516	0	1	0	0	CorrectCommission	0.799768	0.441647	1	1
326.891571	0.795815	city	10	1	0.568667	0.568667	0	1	0	0	CorrectCommission	0.777400	0.435503	1	1
327.687378	0.795766	mountain	10	0	0.000000	0.658893	1	0	0	0	CorrectOmission	0.136988	0.424857	1	1
328.483154	0.795802	city	3	1	0.748080	0.748080	0	1	0	0	CorrectCommission	0.496052	0.410409	1	1
329.278961	0.795802	city	6	1	0.748115	0.748115	0	1	0	0	CorrectCommission	0.496305	0.393272	1	1
330.074768	0.795802	city	4	1	0.754520	0.754520	0	1	0	0	CorrectCommission	0.541764	0.374806	1	1
330.870575	0.795804	city	5	1	0.703040	0.703040	0	1	0	0	CorrectCommission	0.176368	0.356412	1	1
331.666412	0.795909	city	3	1	0.698320	0.698320	0	1	0	0	CorrectCommission	0.142860	0.339363	1	1
332.462219	0.795718	city	9	1	0.698272	0.698272	0	1	0	0	CorrectCommission	0.142522	0.324620	1	1
333.258026	0.795884	city	3	1	0.648607	0.648607	0	1	0	0	CorrectCommission	0.209993	0.312737	1	1
334.053833	0.795696	city	10	1	0.648505	0.648505	0	1	0	0	CorrectCommission	0.210722	0.303823	1	1
334.849579	0.795801	city	9	1	0.700928	0.700928	0	1	0	0	CorrectCommission	0.161374	0.297579	1	1
335.645386	0.795803	city	10	1	0.658266	0.658266	0	1	0	0	CorrectCommission	0.141436	0.293424	1	1
336.441162	0.795798	city	5	1	0.709012	0.709012	0	1	0	0	CorrectCommission	0.218756	0.290633	1	1
337.237030	0.795910	city	4	1	0.797836	0.797836	0	1	0	0	CorrectCommission	0.849219	0.288510	1	1
338.032928	0.795912	city	7	1	0.747962	0.747962	0	1	0	0	CorrectCommission	0.495215	0.286578	1	1
338.828674	0.795585	city	1	1	0.648476	0.648476	0	1	0	0	CorrectCommission	0.210925	0.284748	1	1
339.624390	0.795799	mountain	1	0	0.000000	0.697616	1	0	0	0	CorrectOmission	0.137869	0.283341	1	1
340.420166	0.795801	city	2	1	0.748243	0.748243	0	1	0	0	CorrectCommission	0.497212	0.283127	1	1
341.216003	0.795874	city	1	1	0.653216	0.653216	0	1	0	0	CorrectCommission	0.177281	0.285297	1	1
342.011810	0.795730	city	5	1	0.654008	0.654008	0	1	0	0	CorrectCommission	0.171662	0.291281	1	1
342.807709	0.796021	mountain	10	0	0.000000	0.685249	1	0	0	0	CorrectOmission	0.050085	0.302638	1	1
343.603546	0.795690	city	4	1	0.714003	0.714003	0	1	0	0	CorrectCommission	0.254178	0.320919	1	1
344.399261	0.795718	city	2	1	0.707332	0.707332	0	1	0	0	CorrectCommission	0.206831	0.347443	1	1
345.195099	0.795996	mountain	1	0	0.000000	0.718338	1	0	0	0	CorrectOmission	0.284947	0.383221	1	1
345.990906	0.795584	city	4	1	0.710836	0.710836	0	1	0	0	CorrectCommission	0.231698	0.428818	1	1
346.786591	0.795801	city	9	1	0.648642	0.648642	0	1	0	0	CorrectCommission	0.209744	0.484264	1	1
347.582489	0.796020	city	4	1	0.649576	0.649576	0	1	0	0	CorrectCommission	0.203116	0.549030	1	1
348.378296	0.795587	city	6	1	0.701267	0.701267	0	1	0	0	CorrectCommission	0.163778	0.622049	1	1
349.174103	0.796016	city	7	1	0.807832	0.807832	0	1	0	0	CorrectCommission	0.920171	0.701803	0	1
349.969910	0.795583	city	10	1	0.750744	0.750744	0	1	0	0	CorrectCommission	0.514962	0.786331	0	1
350.765656	0.795912	city	7	1	0.902602	0.902602	0	1	0	0	CorrectCommission	1.592838	0.873419	0	1
351.561462	0.795697	city	9	1	0.897274	0.897274	0	1	0	0	CorrectCommission	1.555023	0.960642	0	1
352.357208	0.795797	city	3	1	0.712014	0.712014	0	1	0	0	CorrectCommission	0.240059	1.045526	0	1
353.153015	0.795805	city	1	1	0.757360	0.757360	0	1	0	0	CorrectCommission	0.561926	1.125633	0	1
353.948822	0.795840	city	7	1	0.954723	0.954723	0	1	0	0	CorrectCommission	1.962786	1.198616	0	1
354.744629	0.795765	city	10	1	0.797804	0.797804	0	1	0	0	CorrectCommission	0.848992	1.262314	0	1
355.540436	0.795849	city	7	1	0.857276	0.857276	0	1	0	0	CorrectCommission	1.271117	1.314921	0	1
356.336243	0.795753	city	1	1	1.195654	1.195654	0	1	0	0	CorrectCommission	3.672894	1.354992	0	1
357.132050	0.795845	city	4	1	0.847597	0.847597	0	1	0	0	CorrectCommission	1.202418	1.381480	0	1
357.927948	0.795973	city	6	1	0.767531	0.767531	0	1	0	0	CorrectCommission	0.634113	1.393855	0	1
358.723724	0.795584	city	9	1	0.996745	0.996745	0	1	0	0	CorrectCommission	2.261057	1.391994	0	1
359.519440	0.795856	city	4	1	0.797953	0.797953	0	1	0	0	CorrectCommission	0.850050	1.376157	0	1
360.315308	0.795856	city	7	1	0.847582	0.847582	0	1	0	0	CorrectCommission	1.202312	1.347044	0	1
361.111145	0.795800	mountain	10	1	0.350698	0.350698	0	0	1	0	CommissionError	2.324525	1.305700	0	1
361.906921	0.795781	mountain	8	0	0.000000	0.490137	1	0	0	0	CorrectOmission	1.334804	1.253624	0	1
362.702667	0.795717	city	10	1	0.797700	0.797700	0	1	0	0	CorrectCommission	0.848251	1.192856	0	1
363.498413	0.795798	city	5	1	0.805189	0.805189	0	1	0	0	CorrectCommission	0.901413	1.126001	0	1
364.294220	0.795804	city	9	1	1.063330	1.063330	0	1	0	0	CorrectCommission	2.733669	1.056281	0	1
365.090057	0.795824	city	1	1	0.755757	0.755757	0	1	0	0	CorrectCommission	0.550543	0.987422	0	1
365.885895	0.795888	city	6	1	0.759422	0.759422	0	1	0	0	CorrectCommission	0.576557	0.923573	0	1
366.681702	0.795693	city	2	1	0.752833	0.752833	0	1	0	0	CorrectCommission	0.529789	0.868907	0	0
367.477448	0.795801	mountain	7	1	0.797837	0.797837	0	0	1	0	CommissionError	0.849225	0.827313	0	0
368.273254	0.795854	city	9	1	0.654376	0.654376	0	1	0	0	CorrectCommission	0.169047	0.801931	0	0
369.069061	0.795753	city	7	1	0.658154	0.658154	0	1	0	0	CorrectCommission	0.142233	0.794801	0	0
369.864960	0.796016	city	2	1	0.662970	0.662970	0	1	0	0	CorrectCommission	0.108049	0.806512	0	0
370.660767	0.795584	city	10	1	0.698229	0.698229	0	1	0	0	CorrectCommission	0.142215	0.836029	0	0
371.456451	0.795805	city	6	1	0.765380	0.765380	0	1	0	0	CorrectCommission	0.618850	0.880680	0	0
372.252350	0.796015	city	10	1	0.847519	0.847519	0	1	0	0	CorrectCommission	1.201866	0.936397	0	0
373.048279	0.795801	city	1	1	0.648495	0.648495	0	1	0	0	CorrectCommission	0.210788	0.998091	0	0
373.844055	0.795774	city	2	1	0.806542	0.806542	0	1	0	0	CorrectCommission	0.911016	1.060156	0	0
374.639740	0.795613	city	10	1	0.300265	0.300265	0	1	0	0	CorrectCommission	2.682498	1.117057	0	0
375.435486	0.795845	city	1	0	0.000000	0.365159	0	0	0	1	OmissionError	2.221881	1.163886	0	0
376.231293	0.795779	city	5	1	0.549102	0.549102	0	1	0	0	CorrectCommission	0.916272	1.196844	0	0
377.027069	0.795777	city	2	1	0.399968	0.399968	0	1	0	0	CorrectCommission	1.974810	1.213575	0	0
377.822845	0.795804	city	3	1	0.847552	0.847552	0	1	0	0	CorrectCommission	1.202102	1.213217	0	0
378.618774	0.796020	city	4	1	0.754999	0.754999	0	1	0	0	CorrectCommission	0.545165	1.196429	0	0
379.414581	0.795585	city	10	1	0.959182	0.959182	0	1	0	0	CorrectCommission	1.994437	1.165165	0	0
380.210419	0.796100	mountain	9	1	1.003892	1.003892	0	0	1	0	CommissionError	2.311788	1.122313	0	0
381.006256	0.795609	city	2	1	0.803604	0.803604	0	1	0	0	CorrectCommission	0.890163	1.071353	0	0
381.802032	0.795913	city	4	1	0.603792	0.603792	0	1	0	0	CorrectCommission	0.528086	1.015900	0	0
382.597778	0.795583	city	6	1	0.797634	0.797634	0	1	0	0	CorrectCommission	0.847787	0.959303	0	0
383.393524	0.795885	mountain	5	1	0.720825	0.720825	0	0	1	0	CommissionError	0.302599	0.904350	0	0
384.189301	0.795719	city	7	1	0.560620	0.560620	0	1	0	0	CorrectCommission	0.834518	0.853004	0	0
384.985077	0.795801	city	2	1	0.705785	0.705785	0	1	0	0	CorrectCommission	0.195852	0.806421	0	0
385.780914	0.795868	city	8	1	0.648588	0.648588	0	1	0	0	CorrectCommission	0.210130	0.765088	0	0
386.576721	0.795733	city	7	1	0.558935	0.558935	0	1	0	0	CorrectCommission	0.846477	0.729054	0	0
387.372467	0.795804	city	10	1	0.500193	0.500193	0	1	0	0	CorrectCommission	1.263427	0.698295	0	0
388.168304	0.795829	city	4	1	0.453117	0.453117	0	1	0	0	CorrectCommission	1.597565	0.673091	0	0
388.964081	0.795775	city	2	1	0.554249	0.554249	0	1	0	0	CorrectCommission	0.879740	0.654203	0	0
389.759888	0.795802	city	7	1	0.698537	0.698537	0	1	0	0	CorrectCommission	0.144403	0.642954	1	0
390.555786	0.796018	city	5	1	0.648655	0.648655	0	1	0	0	CorrectCommission	0.209655	0.641137	1	0
391.351593	0.795585	city	10	1	0.614602	0.614602	0	1	0	0	CorrectCommission	0.451357	0.650677	0	0
392.147400	0.796018	city	1	1	0.648711	0.648711	0	1	0	0	CorrectCommission	0.209254	0.673201	0	0
392.943207	0.795618	city	2	1	0.608834	0.608834	0	1	0	0	CorrectCommission	0.492300	0.709627	0	0
393.738892	0.795767	city	7	1	0.598860	0.598860	0	1	0	0	CorrectCommission	0.563098	0.759767	0	0
394.534729	0.795856	city	10	1	0.663092	0.663092	0	1	0	0	CorrectCommission	0.107183	0.822033	0	0
395.330536	0.795798	city	6	1	0.648658	0.648658	0	1	0	0	CorrectCommission	0.209637	0.893378	0	0
396.126312	0.795753	city	2	1	0.604352	0.604352	0	1	0	0	CorrectCommission	0.524116	0.969471	0	0
396.922089	0.795804	city	7	1	0.550471	0.550471	0	1	0	0	CorrectCommission	0.906556	1.045075	0	0
397.717957	0.795906	city	4	1	0.804650	0.804650	0	1	0	0	CorrectCommission	0.897585	1.114629	0	0
398.513794	0.795757	city	6	1	1.245367	1.245367	0	1	0	0	CorrectCommission	4.025755	1.172927	0	0
399.309570	0.795849	city	5	1	0.848171	0.848171	0	1	0	0	CorrectCommission	1.206494	1.215658	0	0
400.105347	0.795691	city	7	1	1.046425	1.046425	0	1	0	0	CorrectCommission	2.613682	1.240051	0	0
400.901093	0.795803	city	6	1	0.897340	0.897340	0	1	0	0	CorrectCommission	1.555493	1.244946	0	0
401.696930	0.795824	city	1	1	0.706796	0.706796	0	1	0	0	CorrectCommission	0.203022	1.230994	0	0
402.492737	0.795843	city	10	1	0.598861	0.598861	0	1	0	0	CorrectCommission	0.563090	1.200439	0	0
403.288635	0.795956	city	2	1	0.300432	0.300432	0	1	0	0	CorrectCommission	2.681314	1.156782	0	0
404.084473	0.795693	city	4	1	0.946836	0.946836	0	1	0	0	CorrectCommission	1.906808	1.104333	0	0
404.880188	0.795722	city	10	1	0.615324	0.615324	0	1	0	0	CorrectCommission	0.446236	1.047856	0	0
405.676025	0.795990	city	1	1	0.598887	0.598887	0	1	0	0	CorrectCommission	0.562905	0.992082	0	0
406.471832	0.795583	city	6	1	0.598832	0.598832	0	1	0	0	CorrectCommission	0.563293	0.941397	0	0
407.267639	0.796019	city	3	1	0.648730	0.648730	0	1	0	0	CorrectCommission	0.209120	0.899529	0	0
408.063416	0.795577	city	1	1	0.699283	0.699283	0	1	0	0	CorrectCommission	0.149700	0.869404	0	0
408.859222	0.796026	city	5	1	0.810476	0.810476	0	1	0	0	CorrectCommission	0.938937	0.853037	0	0
409.655029	0.795587	mountain	2	1	0.958412	0.958412	0	0	1	0	CommissionError	1.988977	0.851490	0	0
410.450714	0.795801	city	8	1	0.749218	0.749218	0	1	0	0	CorrectCommission	0.504133	0.864897	0	0
411.246521	0.795806	city	1	1	0.703076	0.703076	0	1	0	0	CorrectCommission	0.176623	0.892521	0	0
412.042328	0.795796	city	4	1	0.648645	0.648645	0	1	0	0	CorrectCommission	0.209729	0.932745	0	0
412.838135	0.795798	city	1	1	0.760451	0.760451	0	1	0	0	CorrectCommission	0.583863	0.983132	0	0
413.634033	0.796022	city	3	1	0.755625	0.755625	0	1	0	0	CorrectCommission	0.549610	1.040548	0	0
414.429840	0.795584	city	7	1	0.897435	0.897435	0	1	0	0	CorrectCommission	1.556164	1.101376	0	0
415.225525	0.795806	mountain	3	1	0.400014	0.400014	0	0	1	0	CommissionError	1.974484	1.161786	0	0
416.021454	0.796016	mountain	2	0	0.000000	0.572752	1	0	0	0	CorrectOmission	0.748408	1.218004	0	0
416.817230	0.795583	city	10	1	0.897619	0.897619	0	1	0	0	CorrectCommission	1.557472	1.266800	0	0
417.612946	0.795801	city	1	1	0.856588	0.856588	0	1	0	0	CorrectCommission	1.266233	1.305624	0	0
418.408752	0.795807	city	2	1	0.350207	0.350207	0	1	0	0	CorrectCommission	2.328009	1.332914	0	0
419.204559	0.795858	city	9	1	0.996812	0.996812	0	1	0	0	CorrectCommission	2.261534	1.348122	0	0
420.000366	0.795750	mountain	3	0	0.000000	0.905131	1	0	0	0	CorrectOmission	1.610793	1.351655	0	0
420.796204	0.795902	city	4	1	0.714363	0.714363	0	1	0	0	CorrectCommission	0.256737	1.344609	0	0
421.592010	0.795691	city	6	1	1.063705	1.063705	0	1	0	0	CorrectCommission	2.736334	1.328480	0	0
422.387787	0.795911	city	1	1	0.811871	0.811871	0	1	0	0	CorrectCommission	0.948841	1.304719	0	0
423.183594	0.795694	city	7	1	0.599556	0.599556	0	1	0	0	CorrectCommission	0.558152	1.274520	0	0
423.979401	0.795909	city	4	1	0.599523	0.599523	0	1	0	0	CorrectCommission	0.558387	1.238529	0	0
424.775238	0.795754	city	8	1	0.748448	0.748448	0	1	0	0	CorrectCommission	0.498667	1.196823	0	0
425.570984	0.795744	city	6	1	0.910311	0.910311	0	1	0	0	CorrectCommission	1.647558	1.149078	0	0
426.366760	0.795802	city	4	1	0.959026	0.959026	0	1	0	0	CorrectCommission	1.993330	1.094830	0	1
427.162567	0.795800	city	1	1	0.996650	0.996650	0	1	0	0	CorrectCommission	2.260381	1.033829	0	1
427.958466	0.796017	city	5	1	0.897990	0.897990	0	1	0	0	CorrectCommission	1.560106	0.966399	0	1
428.754272	0.795583	city	9	0	0.000000	0.744238	0	0	0	1	OmissionError	0.468783	0.893629	0	1
429.550018	0.795913	city	6	1	0.604791	0.604791	0	1	0	0	CorrectCommission	0.520994	0.817414	0	1
430.345825	0.795692	city	8	1	0.549052	0.549052	0	1	0	0	CorrectCommission	0.916629	0.740295	0	1
431.141571	0.795833	city	5	1	0.648671	0.648671	0	1	0	0	CorrectCommission	0.209544	0.665237	0	1
431.937439	0.795878	city	10	1	0.613147	0.613147	0	1	0	0	CorrectCommission	0.461687	0.595380	1	1
432.733337	0.795911	city	8	1	0.698246	0.698246	0	1	0	0	CorrectCommission	0.142336	0.533608	1	1
433.529144	0.795692	city	1	1	0.705457	0.705457	0	1	0	0	CorrectCommission	0.193524	0.482424	1	1
434.324829	0.795709	city	2	1	0.698254	0.698254	0	1	0	0	CorrectCommission	0.142398	0.443727	1	1
435.120575	0.795785	city	6	1	0.698482	0.698482	0	1	0	0	CorrectCommission	0.144013	0.418798	1	1
435.916443	0.795913	city	8	1	0.648650	0.648650	0	1	0	0	CorrectCommission	0.209690	0.408303	1	1
436.712219	0.795691	city	3	1	0.615296	0.615296	0	1	0	0	CorrectCommission	0.446437	0.412396	1	1
437.508026	0.795911	city	10	1	0.599019	0.599019	0	1	0	0	CorrectCommission	0.561968	0.430772	1	1
438.303833	0.795695	city	3	1	0.709731	0.709731	0	1	0	0	CorrectCommission	0.223859	0.462805	1	1
439.099701	0.796018	city	9	1	0.714974	0.714974	0	1	0	0	CorrectCommission	0.261072	0.507411	1	1
439.895477	0.795583	city	4	1	0.698144	0.698144	0	1	0	0	CorrectCommission	0.141617	0.563185	1	1
440.691193	0.795801	city	6	1	0.714322	0.714322	0	1	0	0	CorrectCommission	0.256442	0.628329	1	1
441.487091	0.796020	city	4	1	0.797884	0.797884	0	1	0	0	CorrectCommission	0.849563	0.700652	0	1
442.282928	0.795627	city	7	1	0.747876	0.747876	0	1	0	0	CorrectCommission	0.494608	0.777641	0	1
443.078613	0.795762	city	10	1	0.807097	0.807097	0	1	0	0	CorrectCommission	0.914955	0.856568	0	1
443.874512	0.796015	city	5	1	0.797809	0.797809	0	1	0	0	CorrectCommission	0.849029	0.934721	0	1
444.670319	0.795640	city	7	1	0.864596	0.864596	0	1	0	0	CorrectCommission	1.323076	1.009671	0	1
445.466034	0.795744	city	10	1	0.797766	0.797766	0	1	0	0	CorrectCommission	0.848725	1.079516	0	1
446.261810	0.795809	city	9	1	0.809749	0.809749	0	1	0	0	CorrectCommission	0.933774	1.143146	0	1
447.057587	0.795796	city	1	1	1.203430	1.203430	0	1	0	0	CorrectCommission	3.728088	1.200284	0	1
447.853394	0.795803	city	4	1	0.847629	0.847629	0	1	0	0	CorrectCommission	1.202647	1.251408	0	1
448.649200	0.795803	city	5	1	0.849458	0.849458	0	1	0	0	CorrectCommission	1.215624	1.297682	0	1
449.445007	0.795798	mountain	2	0	0.000000	0.805556	1	0	0	0	CorrectOmission	0.904016	1.340461	0	1
450.240814	0.795802	city	1	1	0.757834	0.757834	0	1	0	0	CorrectCommission	0.565292	1.380922	0	1
451.036621	0.795827	city	5	1	0.748202	0.748202	0	1	0	0	CorrectCommission	0.496922	1.419749	0	1
451.832428	0.795775	city	8	1	0.897277	0.897277	0	1	0	0	CorrectCommission	1.555042	1.456899	0	1
452.628326	0.796021	city	10	1	0.861690	0.861690	0	1	0	0	CorrectCommission	1.302452	1.491565	0	1
453.424225	0.795802	city	5	1	1.145815	1.145815	0	1	0	0	CorrectCommission	3.319140	1.522417	0	1
454.219910	0.795585	city	4	1	0.648838	0.648838	0	1	0	0	CorrectCommission	0.208356	1.547842	0	1
455.015656	0.795908	city	1	1	0.910812	0.910812	0	1	0	0	CorrectCommission	1.651112	1.566540	0	1
455.811462	0.795692	city	9	1	1.003412	1.003412	0	1	0	0	CorrectCommission	2.308383	1.577727	0	1
456.607208	0.795803	mountain	3	1	1.046862	1.046862	0	0	1	0	CommissionError	2.616780	1.581508	0	1
457.403046	0.795842	city	8	1	1.096203	1.096203	0	1	0	0	CorrectCommission	2.967000	1.578894	0	1
458.198944	0.795980	city	6	0	0.000000	0.806200	0	0	0	1	OmissionError	0.908586	1.571610	0	1
458.994781	0.795691	city	4	1	0.499324	0.499324	0	1	0	0	CorrectCommission	1.269594	1.561727	0	1
459.790466	0.795691	city	3	0	0.000000	0.498045	0	0	0	1	OmissionError	1.278672	1.551076	0	1
460.586212	0.795805	city	8	1	0.599034	0.599034	0	1	0	0	CorrectCommission	0.561860	1.540745	0	1
461.382050	0.795848	city	7	1	0.598962	0.598962	0	1	0	0	CorrectCommission	0.562370	1.530722	0	1
462.177856	0.795754	city	9	1	0.748155	0.748155	0	1	0	0	CorrectCommission	0.496587	1.519713	0	1
462.973633	0.795801	city	5	1	0.368199	0.368199	0	1	0	0	CorrectCommission	2.200307	1.505332	0	1
463.769440	0.795806	city	2	1	1.012683	1.012683	0	1	0	0	CorrectCommission	2.374184	1.484454	0	1
464.565247	0.795801	city	9	1	1.146079	1.146079	0	1	0	0	CorrectCommission	3.321016	1.453833	0	1
465.361084	0.795909	city	5	0	0.000000	0.818430	0	0	0	1	OmissionError	0.995396	1.410780	0	1
466.157013	0.795911	city	7	1	0.449902	0.449902	0	1	0	0	CorrectCommission	1.620389	1.353747	0	1
466.952759	0.795583	city	1	1	0.460657	0.460657	0	1	0	0	CorrectCommission	1.544049	1.282606	0	1
467.748444	0.795801	city	6	1	0.420617	0.420617	0	1	0	0	CorrectCommission	1.828250	1.198848	0	1
468.544250	0.795829	city	10	1	0.400118	0.400118	0	1	0	0	CorrectCommission	1.973745	1.105425	0	1
469.340118	0.795883	city	4	1	0.599017	0.599017	0	1	0	0	CorrectCommission	0.561980	1.006368	0	1
470.135895	0.795696	city	6	1	0.623514	0.623514	0	1	0	0	CorrectCommission	0.388103	0.906393	0	1
470.931641	0.795803	city	9	1	0.655850	0.655850	0	1	0	0	CorrectCommission	0.158584	0.810233	0	1
471.727448	0.795797	city	6	1	0.748230	0.748230	0	1	0	0	CorrectCommission	0.497119	0.722291	0	1
472.523254	0.795801	city	3	1	0.703572	0.703572	0	1	0	0	CorrectCommission	0.180139	0.646193	1	1
473.319061	0.795802	city	9	1	0.656391	0.656391	0	1	0	0	CorrectCommission	0.154746	0.584625	1	1
474.114838	0.795803	city	3	1	0.698934	0.698934	0	1	0	0	CorrectCommission	0.147224	0.539345	1	1
474.910645	0.795798	city	5	1	0.797843	0.797843	0	1	0	0	CorrectCommission	0.849270	0.511317	1	1
475.706482	0.795857	city	6	1	0.648735	0.648735	0	1	0	0	CorrectCommission	0.209087	0.501050	1	1
476.502289	0.795747	city	5	1	0.702782	0.702782	0	1	0	0	CorrectCommission	0.174534	0.508947	1	1
477.298157	0.796022	city	10	1	0.717713	0.717713	0	1	0	0	CorrectCommission	0.280513	0.535584	1	1
478.093964	0.795582	city	6	1	0.847431	0.847431	0	1	0	0	CorrectCommission	1.201240	0.581944	1	1
478.889679	0.795828	city	9	1	0.698413	0.698413	0	1	0	0	CorrectCommission	0.143522	0.649491	0	1
479.685516	0.795846	city	4	1	0.665445	0.665445	0	1	0	0	CorrectCommission	0.090483	0.740166	0	1
480.481415	0.795949	city	8	1	0.605422	0.605422	0	1	0	0	CorrectCommission	0.516518	0.856070	0	1
481.277161	0.795582	city	2	1	0.648520	0.648520	0	1	0	0	CorrectCommission	0.210612	0.999203	0	1
482.072906	0.795912	mountain	3	0	0.000000	0.789514	1	0	0	0	CorrectOmission	0.790148	1.171027	0	1
482.868774	0.795767	mountain	9	0	0.000000	0.914348	1	0	0	0	CorrectOmission	1.676208	1.372041	0	1
483.664520	0.795725	city	6	1	0.908966	0.908966	0	1	0	0	CorrectCommission	1.638013	1.601324	0	1
484.460266	0.795803	city	4	1	0.659315	0.659315	0	1	0	0	CorrectCommission	0.133993	1.856306	0	1
485.256073	0.795805	city	8	1	0.557876	0.557876	0	1	0	0	CorrectCommission	0.853996	2.132650	0	1
486.051971	0.796017	city	7	1	0.809921	0.809921	0	1	0	0	CorrectCommission	0.935000	2.424311	0	1
486.847900	0.795802	mountain	10	0	0.000000	1.061967	1	0	0	0	CorrectOmission	2.723995	2.723995	0	1
