onset	duration	trial_type	image_type	Press	ReactionTime	ReactionTime_Interpolated	CorrectOmission	CorrectCommission	CommissionError	OmissionError	response_type	nonsmoothVarianceTimeCourse	VarianceTimeCourse	In_the_Zone	Reward_trial
8.434023	0.792265	city	5	1	0.762624	0.762624	0	1	0	0	CorrectCommission	0.115283	0.115283	1	1
9.226289	0.792266	mountain	1	0	0.000000	0.721945	1	0	0	0	CorrectOmission	0.300262	0.184243	1	1
10.018446	0.792050	city	6	1	0.695054	0.695054	0	1	0	0	CorrectCommission	0.422542	0.250600	1	1
10.810631	0.792320	city	9	1	0.695740	0.695740	0	1	0	0	CorrectCommission	0.419423	0.311880	1	1
11.602895	0.792207	city	1	1	0.659711	0.659711	0	1	0	0	CorrectCommission	0.583256	0.365865	1	1
12.395135	0.792273	city	6	1	0.649482	0.649482	0	1	0	0	CorrectCommission	0.629774	0.410702	1	1
13.187433	0.792324	city	3	1	0.695270	0.695270	0	1	0	0	CorrectCommission	0.421560	0.445005	1	1
13.979697	0.792204	city	2	1	0.645803	0.645803	0	1	0	0	CorrectCommission	0.646502	0.467953	1	1
14.772037	0.792474	city	7	1	0.560409	0.560409	0	1	0	0	CorrectCommission	1.034811	0.479315	1	1
15.564297	0.792046	city	9	1	0.645587	0.645587	0	1	0	0	CorrectCommission	0.647485	0.479487	1	1
16.356453	0.792265	city	7	1	0.658534	0.658534	0	1	0	0	CorrectCommission	0.588610	0.469487	1	1
17.148771	0.792372	city	8	1	0.646183	0.646183	0	1	0	0	CorrectCommission	0.644772	0.450858	1	1
17.941034	0.792157	city	2	1	0.645656	0.645656	0	1	0	0	CorrectCommission	0.647169	0.425548	1	1
18.733248	0.792267	city	1	1	0.695817	0.695817	0	1	0	0	CorrectCommission	0.419071	0.395755	1	1
19.525513	0.792264	city	7	1	0.745106	0.745106	0	1	0	0	CorrectCommission	0.194942	0.363745	1	1
20.317781	0.792275	mountain	6	0	0.000000	0.769567	1	0	0	0	CorrectOmission	0.083712	0.331647	1	1
21.110044	0.792253	city	7	1	0.794311	0.794311	0	1	0	0	CorrectCommission	0.028804	0.301307	1	1
21.902359	0.792376	city	2	1	0.844448	0.844448	0	1	0	0	CorrectCommission	0.256794	0.274143	1	1
22.694628	0.792159	city	1	1	0.744700	0.744700	0	1	0	0	CorrectCommission	0.196790	0.251104	1	1
23.486853	0.792292	city	7	1	0.744805	0.744805	0	1	0	0	CorrectCommission	0.196310	0.232679	1	1
24.279114	0.792233	city	10	1	0.794427	0.794427	0	1	0	0	CorrectCommission	0.029332	0.218949	1	1
25.071474	0.792485	city	6	1	0.752952	0.752952	0	1	0	0	CorrectCommission	0.159267	0.209693	1	1
25.863737	0.792044	city	7	1	0.744595	0.744595	0	1	0	0	CorrectCommission	0.197267	0.204493	1	1
26.656002	0.792484	city	10	1	0.745465	0.745465	0	1	0	0	CorrectCommission	0.193309	0.202868	1	1
27.448269	0.792052	city	1	1	0.744571	0.744571	0	1	0	0	CorrectCommission	0.197376	0.204376	1	1
28.240479	0.792367	city	3	1	0.745673	0.745673	0	1	0	0	CorrectCommission	0.192365	0.208695	1	1
29.032778	0.792231	city	6	1	0.645683	0.645683	0	1	0	0	CorrectCommission	0.647045	0.215626	1	1
29.824989	0.792192	city	7	1	0.794272	0.794272	0	1	0	0	CorrectCommission	0.028630	0.225085	1	1
30.617218	0.792267	city	9	1	0.794523	0.794523	0	1	0	0	CorrectCommission	0.029771	0.237107	1	1
31.409594	0.792481	mountain	7	0	0.000000	0.777847	1	0	0	0	CorrectOmission	0.046060	0.251763	1	1
32.201862	0.792059	city	3	1	0.757006	0.757006	0	1	0	0	CorrectCommission	0.140830	0.269103	1	1
32.994072	0.792361	city	1	1	0.744762	0.744762	0	1	0	0	CorrectCommission	0.196506	0.289154	1	1
33.786385	0.792264	city	8	1	0.744687	0.744687	0	1	0	0	CorrectCommission	0.196849	0.311867	1	1
34.578648	0.792265	city	4	0	0.000000	0.674289	0	0	0	1	OmissionError	0.516969	0.337134	1	1
35.370861	0.792161	city	8	1	0.713551	0.713551	0	1	0	0	CorrectCommission	0.338431	0.364770	1	1
36.163181	0.792478	city	4	1	1.042459	1.042459	0	1	0	0	CorrectCommission	1.157202	0.394513	1	1
36.955444	0.792047	city	1	1	0.794429	0.794429	0	1	0	0	CorrectCommission	0.029343	0.425963	1	1
37.747654	0.792374	city	8	1	0.811475	0.811475	0	1	0	0	CorrectCommission	0.106856	0.458589	1	1
38.539921	0.792155	city	10	1	0.850940	0.850940	0	1	0	0	CorrectCommission	0.286313	0.491605	1	1
39.332130	0.792265	city	8	1	0.895642	0.895642	0	1	0	0	CorrectCommission	0.489588	0.523970	0	1
40.124393	0.792268	city	7	1	0.893789	0.893789	0	1	0	0	CorrectCommission	0.481162	0.554421	0	1
40.916660	0.792266	city	10	1	0.895707	0.895707	0	1	0	0	CorrectCommission	0.489880	0.581557	0	1
41.708923	0.792259	city	2	1	0.893410	0.893410	0	1	0	0	CorrectCommission	0.479437	0.603985	0	1
42.501186	0.792265	mountain	4	1	1.041894	1.041894	0	0	1	0	CommissionError	1.154634	0.620489	0	1
43.293468	0.792300	city	1	1	1.190818	1.190818	0	1	0	0	CorrectCommission	1.831833	0.630190	0	1
44.085842	0.792447	city	6	1	0.992679	0.992679	0	1	0	0	CorrectCommission	0.930840	0.632676	0	1
44.878105	0.792080	city	2	1	0.806785	0.806785	0	1	0	0	CorrectCommission	0.085528	0.628096	0	1
45.670288	0.792285	city	4	1	0.744768	0.744768	0	1	0	0	CorrectCommission	0.196479	0.617125	0	1
46.462540	0.792211	mountain	10	1	0.615233	0.615233	0	0	1	0	CommissionError	0.785511	0.600849	0	1
47.254776	0.792267	city	2	1	0.695288	0.695288	0	1	0	0	CorrectCommission	0.421481	0.580669	0	1
48.047096	0.792371	city	6	1	0.497300	0.497300	0	1	0	0	CorrectCommission	1.321785	0.558163	0	1
48.839371	0.792177	city	8	1	0.708706	0.708706	0	1	0	0	CorrectCommission	0.360464	0.534887	0	1
49.631634	0.792353	city	9	1	0.695932	0.695932	0	1	0	0	CorrectCommission	0.418551	0.512293	0	1
50.423943	0.792264	city	7	1	0.748145	0.748145	0	1	0	0	CorrectCommission	0.181126	0.491547	1	1
51.216209	0.792267	city	4	1	0.744816	0.744816	0	1	0	0	CorrectCommission	0.196263	0.473473	1	1
52.008530	0.792373	city	3	1	0.695580	0.695580	0	1	0	0	CorrectCommission	0.420152	0.458490	1	1
52.800793	0.792155	city	6	1	0.646663	0.646663	0	1	0	0	CorrectCommission	0.642591	0.446614	1	1
53.593002	0.792265	city	1	1	0.712228	0.712228	0	1	0	0	CorrectCommission	0.344449	0.437496	1	1
54.385269	0.792266	city	6	1	0.748608	0.748608	0	1	0	0	CorrectCommission	0.179018	0.430537	1	1
55.177479	0.792156	city	1	1	0.706478	0.706478	0	1	0	0	CorrectCommission	0.370596	0.424999	1	1
55.969688	0.792265	city	8	1	0.695271	0.695271	0	1	0	0	CorrectCommission	0.421556	0.420138	1	1
56.761951	0.792265	city	7	1	0.645734	0.645734	0	1	0	0	CorrectCommission	0.646813	0.415346	1	1
57.554218	0.792265	city	10	1	0.645782	0.645782	0	1	0	0	CorrectCommission	0.646597	0.410254	1	1
58.346592	0.792483	city	7	1	0.942871	0.942871	0	1	0	0	CorrectCommission	0.704349	0.404825	1	1
59.138912	0.792155	city	9	1	0.844607	0.844607	0	1	0	0	CorrectCommission	0.257518	0.399344	1	1
59.931122	0.792265	mountain	9	0	0.000000	0.750785	1	0	0	0	CorrectOmission	0.169118	0.394383	1	1
60.723331	0.792156	city	2	1	0.695175	0.695175	0	1	0	0	CorrectCommission	0.421993	0.390690	1	1
61.515541	0.792266	mountain	7	0	0.000000	0.711548	1	0	0	0	CorrectOmission	0.347540	0.389092	1	1
62.307835	0.792316	city	2	1	0.744793	0.744793	0	1	0	0	CorrectCommission	0.196367	0.390403	1	1
63.100113	0.792245	mountain	5	0	0.000000	0.739798	1	0	0	0	CorrectOmission	0.219081	0.395286	1	1
63.892353	0.792236	mountain	7	0	0.000000	0.716606	1	0	0	0	CorrectOmission	0.324542	0.404191	1	1
64.684708	0.792478	city	7	1	0.695259	0.695259	0	1	0	0	CorrectCommission	0.421609	0.417288	1	1
65.476974	0.792049	city	4	1	0.695802	0.695802	0	1	0	0	CorrectCommission	0.419140	0.434492	1	1
66.269127	0.792261	city	6	1	0.711066	0.711066	0	1	0	0	CorrectCommission	0.349734	0.455486	1	1
67.061394	0.792267	city	5	1	0.695307	0.695307	0	1	0	0	CorrectCommission	0.421394	0.479779	1	1
67.853714	0.792372	city	10	1	0.695734	0.695734	0	1	0	0	CorrectCommission	0.419451	0.506738	1	0
68.645981	0.792160	city	6	1	0.992285	0.992285	0	1	0	0	CorrectCommission	0.929050	0.535638	0	0
69.438187	0.792262	city	8	1	0.744807	0.744807	0	1	0	0	CorrectCommission	0.196302	0.565740	0	0
70.230453	0.792263	city	4	1	0.645879	0.645879	0	1	0	0	CorrectCommission	0.646155	0.596354	0	0
71.022720	0.792269	city	9	1	0.615284	0.615284	0	1	0	0	CorrectCommission	0.785278	0.626851	0	0
71.815041	0.792369	city	10	1	0.695318	0.695318	0	1	0	0	CorrectCommission	0.421345	0.656758	0	0
72.607300	0.792160	city	1	1	0.843731	0.843731	0	1	0	0	CorrectCommission	0.253532	0.685832	0	0
73.399513	0.792260	mountain	2	1	1.100546	1.100546	0	0	1	0	CommissionError	1.421344	0.714130	0	0
74.191772	0.792267	city	8	1	1.054365	1.054365	0	1	0	0	CorrectCommission	1.211345	0.742039	0	0
74.984039	0.792264	city	1	1	0.997230	0.997230	0	1	0	0	CorrectCommission	0.951537	0.770369	0	0
75.776413	0.792484	city	3	1	0.859668	0.859668	0	1	0	0	CorrectCommission	0.326001	0.800269	0	0
76.568680	0.792048	city	4	1	0.794364	0.794364	0	1	0	0	CorrectCommission	0.029046	0.833139	0	0
77.360878	0.792347	city	2	1	0.566369	0.566369	0	1	0	0	CorrectCommission	1.007710	0.870420	0	0
78.153198	0.792288	city	3	0	0.000000	0.978350	0	0	0	1	OmissionError	0.865684	0.913314	0	0
78.945435	0.792188	mountain	4	1	1.298325	1.298325	0	0	1	0	CommissionError	2.320700	0.962531	0	0
79.737648	0.792238	city	10	1	0.794312	0.794312	0	1	0	0	CorrectCommission	0.028809	1.017910	0	0
80.529915	0.792296	city	3	1	0.994711	0.994711	0	1	0	0	CorrectCommission	0.940083	1.078251	0	0
81.322174	0.792231	city	2	1	0.744735	0.744735	0	1	0	0	CorrectCommission	0.196628	1.141026	0	0
82.114426	0.792266	city	5	1	0.501141	0.501141	0	1	0	0	CorrectCommission	1.304322	1.202480	0	0
82.906693	0.792261	city	7	1	0.946689	0.946689	0	1	0	0	CorrectCommission	0.721712	1.257805	0	0
83.699005	0.792374	city	4	1	0.794444	0.794444	0	1	0	0	CorrectCommission	0.029409	1.301693	0	0
84.491272	0.792159	mountain	6	1	0.299482	0.299482	0	0	1	0	CommissionError	2.221319	1.328969	0	0
85.283485	0.792263	city	5	0	0.000000	0.073483	0	0	0	1	OmissionError	3.249000	1.335317	0	0
86.075752	0.792268	city	8	0	0.000000	0.053782	0	0	0	1	OmissionError	3.338588	1.318029	0	0
86.868011	0.792263	city	5	0	0.000000	0.177713	0	0	0	1	OmissionError	2.775038	1.276520	0	0
87.660385	0.792481	city	6	0	0.000000	0.382612	0	0	0	1	OmissionError	1.843306	1.212468	0	0
88.452759	0.792263	city	7	0	0.000000	0.605813	0	0	0	1	OmissionError	0.828346	1.129595	0	0
89.244919	0.792052	city	5	0	0.000000	0.784653	0	0	0	1	OmissionError	0.015112	1.033150	0	0
90.037071	0.792259	city	6	1	0.856465	0.856465	0	1	0	0	CorrectCommission	0.311440	0.929162	0	0
90.829338	0.792265	city	5	1	0.758586	0.758586	0	1	0	0	CorrectCommission	0.133646	0.823622	0	0
91.621651	0.792375	city	9	1	0.695291	0.695291	0	1	0	0	CorrectCommission	0.421464	0.721833	0	0
92.413918	0.792153	city	5	1	0.658116	0.658116	0	1	0	0	CorrectCommission	0.590509	0.627907	0	0
93.206131	0.792269	city	6	1	0.695745	0.695745	0	1	0	0	CorrectCommission	0.419401	0.544549	0	0
93.998505	0.792479	city	8	1	0.646566	0.646566	0	1	0	0	CorrectCommission	0.643030	0.473061	1	0
94.790779	0.792073	mountain	6	0	0.000000	0.722162	1	0	0	0	CorrectOmission	0.299278	0.413501	1	0
95.582939	0.792244	city	3	1	0.797044	0.797044	0	1	0	0	CorrectCommission	0.041234	0.365019	1	0
96.375198	0.792280	city	5	1	0.745727	0.745727	0	1	0	0	CorrectCommission	0.192119	0.326139	1	0
97.167480	0.792278	city	9	1	0.748482	0.748482	0	1	0	0	CorrectCommission	0.179591	0.295130	1	0
97.959732	0.792231	city	6	1	0.744751	0.744751	0	1	0	0	CorrectCommission	0.196559	0.270229	1	0
98.751991	0.792292	city	3	1	0.702501	0.702501	0	1	0	0	CorrectCommission	0.388677	0.249860	1	0
99.544258	0.792242	city	1	1	0.745030	0.745030	0	1	0	0	CorrectCommission	0.195289	0.232717	1	0
100.336517	0.792265	city	10	1	0.699875	0.699875	0	1	0	0	CorrectCommission	0.400620	0.217864	1	0
101.128830	0.792370	city	3	1	0.799626	0.799626	0	1	0	0	CorrectCommission	0.052974	0.204728	1	0
101.921097	0.792157	mountain	2	0	0.000000	0.845370	1	0	0	0	CorrectOmission	0.260984	0.193034	1	0
102.713364	0.792372	city	1	1	0.844309	0.844309	0	1	0	0	CorrectCommission	0.256160	0.182755	1	0
103.505661	0.792224	city	7	1	0.803645	0.803645	0	1	0	0	CorrectCommission	0.071250	0.174066	1	0
104.297867	0.792197	city	4	1	0.803759	0.803759	0	1	0	0	CorrectCommission	0.071767	0.167282	1	0
105.090103	0.792269	city	2	1	0.794316	0.794316	0	1	0	0	CorrectCommission	0.028829	0.162813	1	0
105.882423	0.792369	city	4	1	0.744765	0.744765	0	1	0	0	CorrectCommission	0.196492	0.161116	1	0
106.674683	0.792160	city	6	1	0.764167	0.764167	0	1	0	0	CorrectCommission	0.108266	0.162658	1	0
107.466904	0.792282	mountain	9	0	0.000000	0.762274	1	0	0	0	CorrectOmission	0.116875	0.167872	1	0
108.259193	0.792291	city	7	1	0.753980	0.753980	0	1	0	0	CorrectCommission	0.154591	0.177144	1	0
109.051445	0.792216	city	8	1	0.754179	0.754179	0	1	0	0	CorrectCommission	0.153684	0.190737	1	0
109.843689	0.792273	mountain	1	0	0.000000	0.748311	1	0	0	0	CorrectOmission	0.180367	0.208730	1	0
110.635979	0.792298	city	8	0	0.000000	0.747044	0	0	0	1	OmissionError	0.186130	0.230998	1	0
111.428238	0.792227	city	4	1	0.761046	0.761046	0	1	0	0	CorrectCommission	0.122461	0.257182	1	0
112.220490	0.792279	city	2	0	0.000000	0.800984	0	0	0	1	OmissionError	0.059151	0.286682	1	0
113.012756	0.792252	city	5	0	0.000000	0.839111	0	0	0	1	OmissionError	0.232523	0.318693	1	0
113.805016	0.792259	city	8	0	0.000000	0.847675	0	0	0	1	OmissionError	0.271468	0.352275	1	0
114.597275	0.792266	city	2	1	0.798928	0.798928	0	1	0	0	CorrectCommission	0.049803	0.386475	1	0
115.389565	0.792313	city	7	1	0.665121	0.665121	0	1	0	0	CorrectCommission	0.558658	0.420445	1	0
116.181839	0.792232	city	6	1	0.552150	0.552150	0	1	0	0	CorrectCommission	1.072368	0.453530	1	0
116.974190	0.792467	city	9	1	0.598669	0.598669	0	1	0	0	CorrectCommission	0.860831	0.485329	1	0
117.766472	0.792102	city	1	1	0.608743	0.608743	0	1	0	0	CorrectCommission	0.815024	0.515713	0	0
118.558632	0.792215	mountain	5	1	0.645678	0.645678	0	0	1	0	CommissionError	0.647071	0.544680	0	0
119.350868	0.792261	city	4	1	0.758426	0.758426	0	1	0	0	CorrectCommission	0.134373	0.572238	0	0
120.143242	0.792481	city	9	1	0.745360	0.745360	0	1	0	0	CorrectCommission	0.193789	0.598235	0	0
120.935501	0.792049	city	6	1	0.744524	0.744524	0	1	0	0	CorrectCommission	0.197590	0.622241	0	0
121.727661	0.792266	city	5	1	0.794463	0.794463	0	1	0	0	CorrectCommission	0.029497	0.643523	0	0
122.519928	0.792264	city	8	1	0.696190	0.696190	0	1	0	0	CorrectCommission	0.417379	0.661152	0	0
123.312187	0.792262	city	1	1	0.299652	0.299652	0	1	0	0	CorrectCommission	2.220547	0.674139	0	0
124.104462	0.792277	mountain	10	0	0.000000	0.397634	1	0	0	0	CorrectOmission	1.774995	0.681651	0	0
124.896721	0.792253	city	4	0	0.000000	0.684545	0	0	0	1	OmissionError	0.470330	0.683274	0	0
125.688980	0.792263	city	6	1	0.854795	0.854795	0	1	0	0	CorrectCommission	0.303844	0.679115	0	0
126.481255	0.792279	city	9	1	0.602793	0.602793	0	1	0	0	CorrectCommission	0.842082	0.669777	0	0
127.273666	0.792549	city	3	1	0.596547	0.596547	0	1	0	0	CorrectCommission	0.870484	0.656273	0	1
128.065933	0.791965	mountain	7	0	0.000000	0.702933	1	0	0	0	CorrectOmission	0.386714	0.639867	0	1
128.858047	0.792270	mountain	10	1	0.844259	0.844259	0	0	1	0	CommissionError	0.255933	0.621857	0	1
129.650360	0.792367	city	1	1	0.942830	0.942830	0	1	0	0	CorrectCommission	0.704163	0.603356	0	1
130.442673	0.792267	city	6	1	0.695118	0.695118	0	1	0	0	CorrectCommission	0.422251	0.585137	0	1
131.234894	0.792158	mountain	4	0	0.000000	0.664912	1	0	0	0	CorrectOmission	0.559605	0.567610	0	1
132.027100	0.792261	city	4	1	0.810821	0.810821	0	1	0	0	CorrectCommission	0.103881	0.550840	0	1
132.819412	0.792375	city	7	1	1.091452	1.091452	0	1	0	0	CorrectCommission	1.379987	0.534669	0	1
133.611679	0.792154	city	3	1	0.745132	0.745132	0	1	0	0	CorrectCommission	0.194825	0.518819	0	1
134.403900	0.792270	city	10	1	0.645783	0.645783	0	1	0	0	CorrectCommission	0.646591	0.503143	1	1
135.196213	0.792368	city	1	1	0.695413	0.695413	0	1	0	0	CorrectCommission	0.420913	0.487676	1	1
135.988480	0.792158	mountain	9	0	0.000000	0.660768	1	0	0	0	CorrectOmission	0.578451	0.472757	1	1
136.780685	0.792263	city	4	1	0.705277	0.705277	0	1	0	0	CorrectCommission	0.376055	0.459009	1	1
137.572952	0.792275	city	5	1	0.992367	0.992367	0	1	0	0	CorrectCommission	0.929423	0.447260	1	1
138.365326	0.792473	city	6	1	0.711396	0.711396	0	1	0	0	CorrectCommission	0.348233	0.438362	1	1
139.157593	0.792050	city	4	1	0.744710	0.744710	0	1	0	0	CorrectCommission	0.196744	0.433054	1	1
139.949753	0.792261	city	5	1	0.794462	0.794462	0	1	0	0	CorrectCommission	0.029495	0.431725	1	1
140.742065	0.792372	city	10	1	0.794316	0.794316	0	1	0	0	CorrectCommission	0.028827	0.434268	1	1
141.534378	0.792266	city	7	1	0.799252	0.799252	0	1	0	0	CorrectCommission	0.051273	0.440043	1	1
142.326599	0.792160	city	3	1	0.744682	0.744682	0	1	0	0	CorrectCommission	0.196872	0.447934	1	1
143.118805	0.792265	city	8	1	0.646068	0.646068	0	1	0	0	CorrectCommission	0.645295	0.456489	1	1
143.911072	0.792261	city	7	1	1.041868	1.041868	0	1	0	0	CorrectCommission	1.154519	0.464119	1	1
144.703445	0.792481	city	9	1	1.042087	1.042087	0	1	0	0	CorrectCommission	1.155515	0.469355	1	1
145.495712	0.792051	city	7	1	0.893136	0.893136	0	1	0	0	CorrectCommission	0.478190	0.471073	1	1
146.287979	0.792479	city	2	1	0.708832	0.708832	0	1	0	0	CorrectCommission	0.359889	0.468639	1	1
147.080246	0.792052	city	4	1	0.744705	0.744705	0	1	0	0	CorrectCommission	0.196767	0.461959	1	1
147.872498	0.792479	city	5	1	0.645730	0.645730	0	1	0	0	CorrectCommission	0.646834	0.451481	1	1
148.664764	0.792045	city	3	1	0.695205	0.695205	0	1	0	0	CorrectCommission	0.421859	0.438093	1	1
149.456924	0.792271	city	9	1	0.706863	0.706863	0	1	0	0	CorrectCommission	0.368845	0.423042	1	1
150.249237	0.792369	city	5	1	0.695426	0.695426	0	1	0	0	CorrectCommission	0.420854	0.407736	1	1
151.041504	0.792159	mountain	5	0	0.000000	0.692479	1	0	0	0	CorrectOmission	0.434255	0.393634	1	1
151.833832	0.792479	city	2	1	0.695213	0.695213	0	1	0	0	CorrectCommission	0.421820	0.382064	1	1
152.626099	0.792053	city	6	1	0.700820	0.700820	0	1	0	0	CorrectCommission	0.396323	0.374083	1	1
153.418243	0.792258	city	7	1	0.794305	0.794305	0	1	0	0	CorrectCommission	0.028780	0.370336	1	1
154.210510	0.792271	city	4	1	0.695492	0.695492	0	1	0	0	CorrectCommission	0.420552	0.370964	1	1
155.002777	0.792265	city	9	1	0.794326	0.794326	0	1	0	0	CorrectCommission	0.028876	0.375508	1	1
155.795044	0.792256	city	3	1	0.744799	0.744799	0	1	0	0	CorrectCommission	0.196338	0.382962	1	1
156.587357	0.792377	city	2	1	0.745243	0.745243	0	1	0	0	CorrectCommission	0.194322	0.391839	1	1
157.379730	0.792374	city	5	0	0.000000	0.811988	0	0	0	1	OmissionError	0.109189	0.400350	1	1
158.171951	0.792050	city	2	0	0.000000	0.907555	0	0	0	1	OmissionError	0.543760	0.406651	1	1
158.964096	0.792266	city	8	0	0.000000	0.994463	0	0	0	1	OmissionError	0.938951	0.409096	1	1
159.756424	0.792370	city	5	0	0.000000	1.035229	0	0	0	1	OmissionError	1.124328	0.406497	1	1
160.548798	0.792374	city	1	1	0.992374	0.992374	0	1	0	0	CorrectCommission	0.929452	0.398304	1	1
161.341003	0.792048	mountain	10	0	0.000000	0.828415	1	0	0	0	CorrectOmission	0.183887	0.384680	1	1
162.133163	0.792267	city	10	1	0.695256	0.695256	0	1	0	0	CorrectCommission	0.421625	0.366458	1	1
162.925430	0.792265	city	7	1	0.744798	0.744798	0	1	0	0	CorrectCommission	0.196341	0.344962	1	1
163.717697	0.792263	city	8	1	0.744776	0.744776	0	1	0	0	CorrectCommission	0.196442	0.321799	1	1
164.509949	0.792268	city	6	1	0.794333	0.794333	0	1	0	0	CorrectCommission	0.028905	0.298595	1	1
165.302216	0.792261	city	7	1	0.752226	0.752226	0	1	0	0	CorrectCommission	0.162565	0.276777	1	1
166.094589	0.792482	city	5	1	0.761541	0.761541	0	1	0	0	CorrectCommission	0.120209	0.257436	1	1
166.886963	0.792264	city	3	1	0.749180	0.749180	0	1	0	0	CorrectCommission	0.176418	0.241266	1	1
167.679123	0.792049	city	10	1	0.744610	0.744610	0	1	0	0	CorrectCommission	0.197200	0.228588	1	1
168.471283	0.792265	city	3	1	0.745276	0.745276	0	1	0	0	CorrectCommission	0.194171	0.219482	1	1
169.263550	0.792267	city	4	1	0.744766	0.744766	0	1	0	0	CorrectCommission	0.196488	0.213942	1	1
170.055832	0.792304	city	2	1	0.695398	0.695398	0	1	0	0	CorrectCommission	0.420978	0.212040	1	1
170.848206	0.792438	city	9	1	0.744718	0.744718	0	1	0	0	CorrectCommission	0.196708	0.214050	1	1
171.640442	0.792046	city	5	1	0.695682	0.695682	0	1	0	0	CorrectCommission	0.419685	0.220484	1	1
172.432602	0.792268	city	2	1	0.794617	0.794617	0	1	0	0	CorrectCommission	0.030196	0.232058	1	1
173.224869	0.792263	city	1	1	0.794436	0.794436	0	1	0	0	CorrectCommission	0.029377	0.249562	1	1
174.017136	0.792264	city	8	1	0.763314	0.763314	0	1	0	0	CorrectCommission	0.112145	0.273656	1	1
174.809387	0.792264	city	5	1	0.794318	0.794318	0	1	0	0	CorrectCommission	0.028837	0.304639	1	1
175.601654	0.792265	city	1	1	0.744767	0.744767	0	1	0	0	CorrectCommission	0.196484	0.342220	1	1
176.393936	0.792294	city	7	1	0.701609	0.701609	0	1	0	0	CorrectCommission	0.392736	0.385354	1	1
177.186218	0.792268	city	4	1	0.698997	0.698997	0	1	0	0	CorrectCommission	0.404613	0.432166	1	1
177.978485	0.792270	city	7	1	0.794294	0.794294	0	1	0	0	CorrectCommission	0.028730	0.480009	1	1
178.770737	0.792234	city	1	0	0.000000	0.744161	0	0	0	1	OmissionError	0.199238	0.525676	0	1
179.562988	0.792257	city	5	1	0.744790	0.744790	0	1	0	0	CorrectCommission	0.196380	0.565698	0	1
180.355286	0.792332	city	1	1	0.992371	0.992371	0	1	0	0	CorrectCommission	0.929442	0.596791	0	1
181.147537	0.792196	city	7	0	0.000000	1.196254	0	0	0	1	OmissionError	1.856555	0.616274	0	1
181.939774	0.792268	city	9	1	1.240274	1.240274	0	1	0	0	CorrectCommission	2.056726	0.622465	0	1
182.732071	0.792307	city	6	1	1.008266	1.008266	0	1	0	0	CorrectCommission	1.001719	0.614956	0	1
183.524323	0.792218	mountain	9	0	0.000000	0.909967	1	0	0	0	CorrectOmission	0.554726	0.594683	0	1
184.316574	0.792289	city	8	1	0.843981	0.843981	0	1	0	0	CorrectCommission	0.254671	0.563782	0	1
185.108948	0.792460	mountain	7	0	0.000000	0.708913	1	0	0	0	CorrectOmission	0.359523	0.525267	0	1
185.901260	0.792156	mountain	5	1	0.645532	0.645532	0	0	1	0	CommissionError	0.647732	0.482628	1	1
186.693436	0.792177	city	4	1	0.794611	0.794611	0	1	0	0	CorrectCommission	0.030170	0.439369	1	0
187.485641	0.792246	city	5	1	0.744766	0.744766	0	1	0	0	CorrectCommission	0.196490	0.398616	1	0
188.277969	0.792398	city	9	1	0.794260	0.794260	0	1	0	0	CorrectCommission	0.028575	0.362778	1	0
189.070221	0.792133	city	8	1	0.745348	0.745348	0	1	0	0	CorrectCommission	0.193843	0.333383	1	0
189.862427	0.792277	city	5	1	0.744961	0.744961	0	1	0	0	CorrectCommission	0.195602	0.311037	1	0
190.654694	0.792250	city	6	1	0.794882	0.794882	0	1	0	0	CorrectCommission	0.031405	0.295509	1	0
191.447006	0.792372	city	8	1	0.712627	0.712627	0	1	0	0	CorrectCommission	0.342633	0.285904	1	0
192.239319	0.792264	city	5	1	0.695261	0.695261	0	1	0	0	CorrectCommission	0.421601	0.280900	1	0
193.031540	0.792156	mountain	6	1	0.695180	0.695180	0	0	1	0	CommissionError	0.421970	0.279016	1	0
193.823746	0.792271	city	6	1	0.794462	0.794462	0	1	0	0	CorrectCommission	0.029495	0.278845	1	0
194.616013	0.792262	mountain	8	0	0.000000	0.863837	1	0	0	0	CorrectOmission	0.344958	0.279256	1	0
195.408279	0.792266	city	2	0	0.000000	0.898436	0	0	0	1	OmissionError	0.502291	0.279519	1	0
196.200546	0.792261	mountain	10	1	0.893394	0.893394	0	0	1	0	CommissionError	0.479365	0.279376	1	0
196.992859	0.792374	mountain	9	1	0.843845	0.843845	0	0	1	0	CommissionError	0.254050	0.279049	1	0
197.785126	0.792158	city	7	1	0.745188	0.745188	0	1	0	0	CorrectCommission	0.194569	0.279198	1	0
198.577332	0.792263	city	5	1	0.794425	0.794425	0	1	0	0	CorrectCommission	0.029325	0.280795	1	0
199.369598	0.792264	city	4	1	0.942911	0.942911	0	1	0	0	CorrectCommission	0.704534	0.284997	1	0
200.161865	0.792266	city	1	1	0.794822	0.794822	0	1	0	0	CorrectCommission	0.031130	0.292969	1	0
200.954132	0.792282	city	7	1	0.810149	0.810149	0	1	0	0	CorrectCommission	0.100828	0.305748	1	0
201.746506	0.792463	city	1	1	0.762899	0.762899	0	1	0	0	CorrectCommission	0.114033	0.324027	1	0
202.538773	0.792048	mountain	4	0	0.000000	0.756598	1	0	0	0	CorrectOmission	0.142687	0.348024	1	0
203.331039	0.792482	city	5	1	0.748305	0.748305	0	1	0	0	CorrectCommission	0.180394	0.377377	1	0
204.123352	0.792156	city	10	1	0.695082	0.695082	0	1	0	0	CorrectCommission	0.422416	0.411107	1	0
204.915512	0.792158	city	8	1	0.645760	0.645760	0	1	0	0	CorrectCommission	0.646697	0.447628	1	0
205.707748	0.792330	city	2	1	0.695332	0.695332	0	1	0	0	CorrectCommission	0.421279	0.484840	1	0
206.500015	0.792196	city	4	0	0.000000	0.778947	0	0	0	1	OmissionError	0.041058	0.520316	0	0
207.292252	0.792268	city	8	0	0.000000	0.877979	0	0	0	1	OmissionError	0.409268	0.551523	0	0
208.084564	0.792371	city	2	0	0.000000	0.973803	0	0	0	1	OmissionError	0.845005	0.576100	0	0
208.876831	0.792158	mountain	6	0	0.000000	1.047792	1	0	0	0	CorrectOmission	1.181455	0.592140	0	0
209.669052	0.792274	city	1	0	0.000000	1.081321	0	0	0	1	OmissionError	1.333922	0.598434	0	0
210.461319	0.792256	city	10	0	0.000000	1.055765	0	0	0	1	OmissionError	1.217709	0.594636	0	0
211.253571	0.792265	city	4	1	0.952497	0.952497	0	1	0	0	CorrectCommission	0.748120	0.581305	0	0
212.045898	0.792368	city	9	1	0.752891	0.752891	0	1	0	0	CorrectCommission	0.159542	0.559827	0	0
212.838150	0.792156	mountain	7	0	0.000000	0.667149	1	0	0	0	CorrectOmission	0.549433	0.532226	0	0
213.630356	0.792265	city	10	1	0.661429	0.661429	0	1	0	0	CorrectCommission	0.575443	0.500867	1	0
214.422684	0.792375	city	5	1	0.701888	0.701888	0	1	0	0	CorrectCommission	0.391465	0.468213	1	0
215.214951	0.792154	mountain	8	0	0.000000	0.795541	1	0	0	0	CorrectOmission	0.034401	0.436568	1	0
216.007187	0.792340	city	7	1	0.844144	0.844144	0	1	0	0	CorrectCommission	0.255412	0.407892	1	0
216.799484	0.792249	city	10	1	0.749453	0.749453	0	1	0	0	CorrectCommission	0.175176	0.383683	1	0
217.591751	0.792287	city	5	1	0.756166	0.756166	0	1	0	0	CorrectCommission	0.144650	0.365039	1	0
218.384094	0.792401	city	7	1	0.903414	0.903414	0	1	0	0	CorrectCommission	0.524927	0.352675	1	0
219.176331	0.792048	city	9	1	0.707576	0.707576	0	1	0	0	CorrectCommission	0.365601	0.347003	1	0
219.968475	0.792267	city	2	1	0.647459	0.647459	0	1	0	0	CorrectCommission	0.638970	0.348253	1	0
220.760757	0.792267	mountain	6	0	0.000000	0.743838	1	0	0	0	CorrectOmission	0.200710	0.356497	1	0
221.553009	0.792261	city	2	1	0.843884	0.843884	0	1	0	0	CorrectCommission	0.254230	0.371682	1	0
222.345276	0.792263	city	8	1	0.794771	0.794771	0	1	0	0	CorrectCommission	0.030897	0.393556	1	0
223.137543	0.792273	city	10	1	0.745329	0.745329	0	1	0	0	CorrectCommission	0.193927	0.421616	1	0
223.929810	0.792255	city	4	0	0.000000	0.727850	0	0	0	1	OmissionError	0.273412	0.455015	1	0
224.722183	0.792490	city	1	0	0.000000	0.723287	0	0	0	1	OmissionError	0.294160	0.492541	1	0
225.514450	0.792042	city	2	0	0.000000	0.712596	0	0	0	1	OmissionError	0.342776	0.532632	0	0
226.306595	0.792267	city	7	0	0.000000	0.676732	0	0	0	1	OmissionError	0.505859	0.573465	0	0
227.098923	0.792371	city	1	1	0.596650	0.596650	0	1	0	0	CorrectCommission	0.870014	0.613121	0	0
227.891296	0.792374	city	3	1	0.453305	0.453305	0	1	0	0	CorrectCommission	1.521842	0.649716	0	0
228.683502	0.792047	city	6	1	0.597690	0.597690	0	1	0	0	CorrectCommission	0.865287	0.681598	0	0
229.475662	0.792266	city	2	1	0.645997	0.645997	0	1	0	0	CorrectCommission	0.645618	0.707500	0	0
230.267929	0.792267	city	1	1	0.645775	0.645775	0	1	0	0	CorrectCommission	0.646628	0.726611	0	0
231.060303	0.792479	city	5	1	0.695298	0.695298	0	1	0	0	CorrectCommission	0.421433	0.738635	0	0
231.852570	0.792050	city	6	1	0.745471	0.745471	0	1	0	0	CorrectCommission	0.193281	0.743819	0	0
232.644714	0.792265	city	5	1	1.191211	1.191211	0	1	0	0	CorrectCommission	1.833621	0.742915	0	0
233.436996	0.792302	city	1	0	0.000000	1.166192	0	0	0	1	OmissionError	1.719854	0.737063	0	0
234.229324	0.792333	city	10	0	0.000000	0.918242	0	0	0	1	OmissionError	0.592354	0.727748	0	0
235.021561	0.792158	city	5	1	0.695186	0.695186	0	1	0	0	CorrectCommission	0.421943	0.716620	0	0
235.813828	0.792371	city	4	1	0.744852	0.744852	0	1	0	0	CorrectCommission	0.196099	0.705309	0	0
236.606201	0.792376	city	9	1	0.702025	0.702025	0	1	0	0	CorrectCommission	0.390846	0.695237	0	0
237.398422	0.792051	city	7	1	0.645591	0.645591	0	1	0	0	CorrectCommission	0.647467	0.687453	0	0
238.190582	0.792275	city	5	1	0.596599	0.596599	0	1	0	0	CorrectCommission	0.870246	0.682577	0	0
238.982849	0.792262	city	4	1	0.843943	0.843943	0	1	0	0	CorrectCommission	0.254496	0.680795	0	0
239.775208	0.792469	city	5	1	0.646597	0.646597	0	1	0	0	CorrectCommission	0.642890	0.681996	0	0
240.567474	0.792052	city	2	1	0.645517	0.645517	0	1	0	0	CorrectCommission	0.647802	0.685835	0	0
241.359634	0.792260	city	7	1	0.652172	0.652172	0	1	0	0	CorrectCommission	0.617538	0.691989	0	0
242.151901	0.792274	city	10	1	0.412750	0.412750	0	1	0	0	CorrectCommission	1.706259	0.700273	0	0
242.944168	0.792259	city	2	0	0.000000	0.670429	0	0	0	1	OmissionError	0.534520	0.710719	0	0
243.736420	0.792267	city	9	1	0.943135	0.943135	0	1	0	0	CorrectCommission	0.705549	0.723637	0	0
244.528702	0.792289	city	7	1	0.748792	0.748792	0	1	0	0	CorrectCommission	0.178180	0.739452	0	0
245.321014	0.792343	city	9	1	0.654061	0.654061	0	1	0	0	CorrectCommission	0.608948	0.758569	0	0
246.113297	0.792220	city	1	1	0.596854	0.596854	0	1	0	0	CorrectCommission	0.869086	0.781136	0	1
246.905563	0.792311	city	9	1	0.547189	0.547189	0	1	0	0	CorrectCommission	1.094928	0.806832	0	1
247.697937	0.792428	city	4	1	0.646173	0.646173	0	1	0	0	CorrectCommission	0.644818	0.834703	0	1
248.490143	0.791993	city	8	1	0.695222	0.695222	0	1	0	0	CorrectCommission	0.421781	0.863100	0	1
249.282272	0.792268	city	3	1	0.744950	0.744950	0	1	0	0	CorrectCommission	0.195654	0.889740	0	1
250.074570	0.792330	city	5	1	0.748561	0.748561	0	1	0	0	CorrectCommission	0.179231	0.911895	0	1
250.866837	0.792195	city	10	1	0.299084	0.299084	0	1	0	0	CorrectCommission	2.223131	0.926733	0	1
251.659073	0.792271	city	4	0	0.000000	0.317176	0	0	0	1	OmissionError	2.140860	0.931700	0	1
252.451447	0.792477	city	1	1	0.512926	0.512926	0	1	0	0	CorrectCommission	1.250730	0.924966	0	1
253.243713	0.792046	city	2	1	0.596421	0.596421	0	1	0	0	CorrectCommission	0.871054	0.905713	0	1
254.035919	0.792373	city	5	1	0.596245	0.596245	0	1	0	0	CorrectCommission	0.871855	0.874296	0	1
254.828186	0.792158	city	3	1	0.299529	0.299529	0	1	0	0	CorrectCommission	2.221105	0.832225	0	1
255.620392	0.792263	city	7	1	0.843824	0.843824	0	1	0	0	CorrectCommission	0.253957	0.781957	0	1
256.412659	0.792264	mountain	10	0	0.000000	0.953374	1	0	0	0	CorrectOmission	0.752111	0.726672	0	1
257.204926	0.792301	city	9	1	0.849087	0.849087	0	1	0	0	CorrectCommission	0.277888	0.669727	0	1
257.997192	0.792233	city	4	1	0.751870	0.751870	0	1	0	0	CorrectCommission	0.164184	0.614313	0	1
258.789459	0.792265	city	8	1	0.751198	0.751198	0	1	0	0	CorrectCommission	0.167242	0.563085	0	1
259.581726	0.792262	city	5	1	0.711368	0.711368	0	1	0	0	CorrectCommission	0.348360	0.517901	0	1
260.374023	0.792320	city	7	1	0.695274	0.695274	0	1	0	0	CorrectCommission	0.421544	0.479804	1	1
261.166260	0.792208	city	3	1	0.696496	0.696496	0	1	0	0	CorrectCommission	0.415988	0.449005	1	1
261.958527	0.792267	city	8	1	0.745400	0.745400	0	1	0	0	CorrectCommission	0.193605	0.425062	1	1
262.750793	0.792267	city	1	1	0.661979	0.661979	0	1	0	0	CorrectCommission	0.572946	0.407136	1	1
263.543152	0.792478	mountain	3	0	0.000000	0.669170	1	0	0	0	CorrectOmission	0.540247	0.394229	1	1
264.335419	0.792030	city	9	1	0.701988	0.701988	0	1	0	0	CorrectCommission	0.391012	0.385434	1	1
265.127594	0.792333	city	10	1	0.695450	0.695450	0	1	0	0	CorrectCommission	0.420744	0.380098	1	1
265.919861	0.792216	city	4	1	0.745368	0.745368	0	1	0	0	CorrectCommission	0.193752	0.377896	1	1
266.712097	0.792285	city	5	1	0.695251	0.695251	0	1	0	0	CorrectCommission	0.421649	0.378815	1	1
267.504364	0.792242	city	10	1	0.695257	0.695257	0	1	0	0	CorrectCommission	0.421618	0.383055	1	1
268.296753	0.792485	city	6	1	0.744998	0.744998	0	1	0	0	CorrectCommission	0.195433	0.390845	1	1
269.089050	0.792154	city	7	1	0.707485	0.707485	0	1	0	0	CorrectCommission	0.366015	0.402303	1	1
269.881226	0.792157	city	4	1	0.695117	0.695117	0	1	0	0	CorrectCommission	0.422256	0.417248	1	1
270.673523	0.792482	city	7	1	0.745405	0.745405	0	1	0	0	CorrectCommission	0.193583	0.435069	1	1
271.465790	0.792055	city	4	1	0.698957	0.698957	0	1	0	0	CorrectCommission	0.404795	0.454693	1	1
272.258057	0.792474	city	10	1	0.698762	0.698762	0	1	0	0	CorrectCommission	0.405681	0.474566	1	1
273.050385	0.792155	city	6	1	0.758128	0.758128	0	1	0	0	CorrectCommission	0.135726	0.492881	1	1
273.842529	0.792158	city	5	1	0.794196	0.794196	0	1	0	0	CorrectCommission	0.028284	0.507771	1	1
274.634766	0.792303	city	6	1	0.713328	0.713328	0	1	0	0	CorrectCommission	0.339446	0.517593	0	1
275.427032	0.792228	city	8	1	1.339425	1.339425	0	1	0	0	CorrectCommission	2.507593	0.521202	0	1
276.219269	0.792265	mountain	1	0	0.000000	1.163235	1	0	0	0	CorrectOmission	1.706408	0.518124	0	1
277.011566	0.792282	city	2	1	0.794785	0.794785	0	1	0	0	CorrectCommission	0.030963	0.508721	1	1
277.803864	0.792353	city	9	1	0.844102	0.844102	0	1	0	0	CorrectCommission	0.255218	0.494085	1	1
278.596130	0.792157	city	1	1	0.844974	0.844974	0	1	0	0	CorrectCommission	0.259183	0.475770	1	1
279.388336	0.792267	city	5	1	0.761073	0.761073	0	1	0	0	CorrectCommission	0.122335	0.455561	1	1
280.180603	0.792265	city	10	1	0.794307	0.794307	0	1	0	0	CorrectCommission	0.028788	0.435141	1	1
280.972870	0.792264	city	6	1	0.744815	0.744815	0	1	0	0	CorrectCommission	0.196268	0.415847	1	1
281.765137	0.792265	city	5	1	0.695756	0.695756	0	1	0	0	CorrectCommission	0.419349	0.398500	1	1
282.557434	0.792371	city	8	1	0.695667	0.695667	0	1	0	0	CorrectCommission	0.419756	0.383383	1	1
283.349762	0.792229	city	7	1	0.695221	0.695221	0	1	0	0	CorrectCommission	0.421783	0.370332	1	1
284.141968	0.792205	mountain	6	0	0.000000	0.645088	1	0	0	0	CorrectOmission	0.649752	0.358868	1	1
284.934296	0.792472	city	1	1	0.645755	0.645755	0	1	0	0	CorrectCommission	0.646720	0.348415	1	1
285.726562	0.792048	city	8	1	0.797708	0.797708	0	1	0	0	CorrectCommission	0.044252	0.338420	1	1
286.518829	0.792481	city	9	1	0.695322	0.695322	0	1	0	0	CorrectCommission	0.421325	0.328513	1	1
287.311096	0.792046	city	4	1	0.745035	0.745035	0	1	0	0	CorrectCommission	0.195267	0.318544	1	1
288.103241	0.792266	city	3	1	0.745161	0.745161	0	1	0	0	CorrectCommission	0.194691	0.308638	1	1
288.895630	0.792482	city	2	1	0.656664	0.656664	0	1	0	0	CorrectCommission	0.597113	0.299141	1	1
289.687897	0.792050	mountain	10	1	0.744838	0.744838	0	0	1	0	CommissionError	0.196160	0.290570	1	1
290.480042	0.792266	city	3	1	0.796935	0.796935	0	1	0	0	CorrectCommission	0.040738	0.283557	1	1
291.272369	0.792370	city	7	1	0.745240	0.745240	0	1	0	0	CorrectCommission	0.194333	0.278753	1	1
292.064636	0.792155	city	4	1	0.695211	0.695211	0	1	0	0	CorrectCommission	0.421831	0.276752	1	1
292.856873	0.792373	city	1	1	0.695275	0.695275	0	1	0	0	CorrectCommission	0.421538	0.277991	1	1
293.649139	0.792160	city	3	1	0.794239	0.794239	0	1	0	0	CorrectCommission	0.028478	0.282735	1	1
294.441376	0.792262	city	7	1	0.747172	0.747172	0	1	0	0	CorrectCommission	0.185546	0.291055	1	1
295.233643	0.792268	city	8	0	0.000000	0.828914	0	0	0	1	OmissionError	0.186157	0.302764	1	1
296.025909	0.792267	city	7	1	0.893378	0.893378	0	1	0	0	CorrectCommission	0.479291	0.317460	1	1
296.818146	0.792259	city	3	1	0.794476	0.794476	0	1	0	0	CorrectCommission	0.029555	0.334589	1	1
297.610413	0.792269	city	6	1	0.801360	0.801360	0	1	0	0	CorrectCommission	0.060858	0.353561	1	1
298.402679	0.792260	city	10	1	0.761091	0.761091	0	1	0	0	CorrectCommission	0.122254	0.373861	1	1
299.194946	0.792268	city	4	1	0.811029	0.811029	0	1	0	0	CorrectCommission	0.104827	0.395187	1	1
299.987335	0.792480	mountain	8	1	0.299475	0.299475	0	0	1	0	CommissionError	2.221351	0.417570	1	1
300.779694	0.792265	city	9	1	0.893158	0.893158	0	1	0	0	CorrectCommission	0.478289	0.441337	1	1
301.571869	0.792046	city	3	1	0.844352	0.844352	0	1	0	0	CorrectCommission	0.256354	0.467146	1	1
302.364014	0.792267	city	4	0	0.000000	0.819979	0	0	0	1	OmissionError	0.145528	0.495728	1	1
303.156281	0.792266	city	3	0	0.000000	0.816173	0	0	0	1	OmissionError	0.128220	0.527670	0	1
303.948608	0.792370	city	10	0	0.000000	0.829065	0	0	0	1	OmissionError	0.186841	0.563158	0	1
304.740875	0.792162	city	9	0	0.000000	0.854786	0	0	0	1	OmissionError	0.303801	0.601770	0	1
305.533081	0.792263	city	4	0	0.000000	0.889467	0	0	0	1	OmissionError	0.461509	0.642380	0	0
306.325439	0.792479	city	10	0	0.000000	0.929242	0	0	0	1	OmissionError	0.642375	0.683184	0	0
307.117706	0.792051	city	8	0	0.000000	0.970241	0	0	0	1	OmissionError	0.828809	0.721888	0	0
307.909882	0.792297	city	3	0	0.000000	1.008596	0	0	0	1	OmissionError	1.003222	0.756007	0	0
308.702148	0.792229	city	2	0	0.000000	1.040440	0	0	0	1	OmissionError	1.148022	0.783198	0	0
309.494385	0.792267	city	8	0	0.000000	1.061903	0	0	0	1	OmissionError	1.245620	0.801594	0	0
310.286682	0.792297	city	6	0	0.000000	1.069117	0	0	0	1	OmissionError	1.278426	0.810057	0	0
311.078949	0.792242	city	8	0	0.000000	1.058215	0	0	0	1	OmissionError	1.228850	0.808335	0	0
311.871216	0.792303	city	2	0	0.000000	1.025327	0	0	0	1	OmissionError	1.079301	0.797039	0	0
312.663483	0.792248	city	1	0	0.000000	0.966586	0	0	0	1	OmissionError	0.812190	0.777519	0	0
313.455750	0.792233	city	6	0	0.000000	0.878124	0	0	0	1	OmissionError	0.409926	0.751620	0	0
314.248047	0.792369	city	5	1	0.756071	0.756071	0	1	0	0	CorrectCommission	0.145081	0.721416	0	0
315.040314	0.792168	city	10	1	0.596561	0.596561	0	1	0	0	CorrectCommission	0.870421	0.688933	0	0
315.832520	0.792258	city	4	1	0.645777	0.645777	0	1	0	0	CorrectCommission	0.646618	0.655922	0	0
316.624786	0.792264	city	6	1	0.695312	0.695312	0	1	0	0	CorrectCommission	0.421368	0.623773	0	0
317.417084	0.792321	city	3	1	0.607349	0.607349	0	1	0	0	CorrectCommission	0.821361	0.593407	0	0
318.209320	0.792204	city	6	1	0.659239	0.659239	0	1	0	0	CorrectCommission	0.585405	0.565355	0	0
319.001678	0.792483	city	3	1	0.646636	0.646636	0	1	0	0	CorrectCommission	0.642715	0.539811	0	0
319.793945	0.792048	city	6	1	0.695049	0.695049	0	1	0	0	CorrectCommission	0.422568	0.516705	0	0
320.586151	0.792373	city	9	1	0.695769	0.695769	0	1	0	0	CorrectCommission	0.419290	0.495791	1	0
321.378418	0.792156	city	2	1	0.745184	0.745184	0	1	0	0	CorrectCommission	0.194589	0.476728	1	0
322.170624	0.792265	city	10	1	0.745296	0.745296	0	1	0	0	CorrectCommission	0.194079	0.459150	1	0
322.963013	0.792481	city	9	1	0.657134	0.657134	0	1	0	0	CorrectCommission	0.594976	0.442720	1	0
323.755280	0.792049	mountain	5	0	0.000000	0.618375	1	0	0	0	CorrectOmission	0.771226	0.427169	1	0
324.547424	0.792264	city	10	1	0.645691	0.645691	0	1	0	0	CorrectCommission	0.647009	0.412337	1	0
325.339722	0.792315	city	4	1	0.755759	0.755759	0	1	0	0	CorrectCommission	0.146502	0.398185	1	0
326.132080	0.792432	city	9	1	0.714126	0.714126	0	1	0	0	CorrectCommission	0.335819	0.384779	1	0
326.924347	0.792114	city	6	1	0.695190	0.695190	0	1	0	0	CorrectCommission	0.421923	0.372243	1	0
327.716553	0.792265	mountain	6	0	0.000000	0.707452	1	0	0	0	CorrectOmission	0.366164	0.360687	1	0
328.508789	0.792227	mountain	8	0	0.000000	0.732247	1	0	0	0	CorrectOmission	0.253415	0.350190	1	0
329.301086	0.792344	mountain	1	0	0.000000	0.750911	1	0	0	0	CorrectOmission	0.168546	0.340747	1	0
330.093445	0.792374	city	10	1	0.744779	0.744779	0	1	0	0	CorrectCommission	0.196428	0.332262	1	0
330.885712	0.792156	city	3	1	0.695188	0.695188	0	1	0	0	CorrectCommission	0.421934	0.324572	1	0
331.677856	0.792158	city	2	1	0.855135	0.855135	0	1	0	0	CorrectCommission	0.305391	0.317495	1	0
332.470062	0.792265	city	8	1	0.746153	0.746153	0	1	0	0	CorrectCommission	0.190180	0.310893	1	0
333.262329	0.792264	city	1	1	0.654951	0.654951	0	1	0	0	CorrectCommission	0.604903	0.304745	1	0
334.054596	0.792265	city	3	1	0.695589	0.695589	0	1	0	0	CorrectCommission	0.420111	0.299174	1	0
334.846863	0.792268	city	2	1	0.661514	0.661514	0	1	0	0	CorrectCommission	0.575059	0.294440	1	0
335.639130	0.792260	city	6	1	0.794343	0.794343	0	1	0	0	CorrectCommission	0.028951	0.290927	1	0
336.431488	0.792482	city	3	1	0.749765	0.749765	0	1	0	0	CorrectCommission	0.173756	0.289054	1	0
337.223785	0.792058	city	8	1	0.744719	0.744719	0	1	0	0	CorrectCommission	0.196702	0.289147	1	0
338.015930	0.792257	city	1	1	0.759819	0.759819	0	1	0	0	CorrectCommission	0.128038	0.291390	1	0
338.808289	0.792478	mountain	6	0	0.000000	0.793536	1	0	0	0	CorrectOmission	0.025282	0.295777	1	0
339.600616	0.792156	city	10	1	0.794239	0.794239	0	1	0	0	CorrectCommission	0.028478	0.302112	1	0
340.392792	0.792171	city	9	1	0.710297	0.710297	0	1	0	0	CorrectCommission	0.353229	0.310049	1	0
341.184998	0.792253	city	3	0	0.000000	0.903530	0	0	0	1	OmissionError	0.525455	0.319199	1	0
341.977234	0.792263	city	10	1	1.042330	1.042330	0	1	0	0	CorrectCommission	1.156616	0.329225	1	0
342.769501	0.792268	city	7	1	0.795089	0.795089	0	1	0	0	CorrectCommission	0.032343	0.339919	1	0
343.561768	0.792264	city	3	1	0.744760	0.744760	0	1	0	0	CorrectCommission	0.196516	0.351281	1	0
344.354034	0.792262	city	6	1	0.695423	0.695423	0	1	0	0	CorrectCommission	0.420867	0.363457	1	0
345.146301	0.792267	mountain	10	1	0.695279	0.695279	0	0	1	0	CommissionError	0.421522	0.376732	1	0
345.938599	0.792300	city	2	1	0.744834	0.744834	0	1	0	0	CorrectCommission	0.196182	0.391496	1	0
346.730865	0.792226	city	6	1	0.756054	0.756054	0	1	0	0	CorrectCommission	0.145160	0.408218	1	0
347.523102	0.792269	city	9	0	0.000000	0.827784	0	0	0	1	OmissionError	0.181019	0.427455	1	0
348.315369	0.792263	mountain	1	0	0.000000	0.898951	1	0	0	0	CorrectOmission	0.504635	0.449924	1	0
349.107666	0.792339	city	4	0	0.000000	0.908481	0	0	0	1	OmissionError	0.547970	0.476604	1	0
349.899933	0.792207	city	6	1	0.795300	0.795300	0	1	0	0	CorrectCommission	0.033306	0.508812	0	0
350.692169	0.792253	city	4	1	0.498336	0.498336	0	1	0	0	CorrectCommission	1.317076	0.548200	0	0
351.484436	0.792259	city	8	1	0.498663	0.498663	0	1	0	0	CorrectCommission	1.315589	0.596590	0	0
352.276733	0.792373	city	2	1	0.751790	0.751790	0	1	0	0	CorrectCommission	0.164550	0.655759	0	0
353.069000	0.792158	city	8	1	0.794298	0.794298	0	1	0	0	CorrectCommission	0.028746	0.727044	0	0
353.861267	0.792373	city	9	1	0.893357	0.893357	0	1	0	0	CorrectCommission	0.479194	0.810809	0	0
354.653534	0.792161	city	10	1	0.893215	0.893215	0	1	0	0	CorrectCommission	0.478548	0.906012	0	0
355.445740	0.792260	city	8	1	0.794299	0.794299	0	1	0	0	CorrectCommission	0.028749	1.009909	0	0
356.238007	0.792269	mountain	10	1	0.958866	0.958866	0	0	1	0	CommissionError	0.777083	1.117988	0	0
357.030273	0.792259	city	6	1	0.949475	0.949475	0	1	0	0	CorrectCommission	0.734379	1.224209	0	0
357.822540	0.792263	city	4	0	0.000000	1.046637	0	0	0	1	OmissionError	1.176203	1.321670	0	0
358.614807	0.792270	city	10	0	0.000000	1.201969	0	0	0	1	OmissionError	1.882541	1.403497	0	0
359.407074	0.792262	city	5	0	0.000000	1.367087	0	0	0	1	OmissionError	2.633379	1.463926	0	0
360.199341	0.792266	mountain	8	0	0.000000	1.493607	1	0	0	0	CorrectOmission	3.208702	1.499378	0	0
360.991608	0.792306	city	9	0	0.000000	1.533146	0	0	0	1	OmissionError	3.388495	1.509259	0	0
361.783997	0.792440	city	4	0	0.000000	1.437320	0	0	0	1	OmissionError	2.952746	1.496340	0	0
362.576355	0.792264	mountain	2	1	1.157744	1.157744	0	0	1	0	CommissionError	1.681438	1.466651	0	0
363.368500	0.792049	city	10	1	0.646036	0.646036	0	1	0	0	CorrectCommission	0.645441	1.428755	0	0
364.160675	0.792326	city	5	1	0.992557	0.992557	0	1	0	0	CorrectCommission	0.930287	1.392556	0	0
364.953064	0.792420	city	7	1	0.907113	0.907113	0	1	0	0	CorrectCommission	0.541749	1.367829	0	1
365.745300	0.792050	city	5	1	0.844169	0.844169	0	1	0	0	CorrectCommission	0.255523	1.362720	0	1
366.537476	0.792290	city	7	1	0.794907	0.794907	0	1	0	0	CorrectCommission	0.031516	1.382409	0	1
367.329742	0.792241	city	10	1	0.757394	0.757394	0	1	0	0	CorrectCommission	0.139067	1.428224	0	1
368.121979	0.792262	city	8	1	0.695481	0.695481	0	1	0	0	CorrectCommission	0.420603	1.497278	0	1
368.914246	0.792264	city	1	1	0.942858	0.942858	0	1	0	0	CorrectCommission	0.704291	1.582788	0	1
369.706512	0.792267	city	2	0	0.000000	1.156149	0	0	0	1	OmissionError	1.674186	1.674986	0	1
370.498871	0.792478	city	9	0	0.000000	1.330823	0	0	0	1	OmissionError	2.468477	1.762445	0	1
371.291260	0.792265	city	10	0	0.000000	1.462349	0	0	0	1	OmissionError	3.066561	1.833679	0	1
372.083405	0.792050	city	2	0	0.000000	1.546196	0	0	0	1	OmissionError	3.447836	1.878758	0	1
372.875580	0.792261	city	3	0	0.000000	1.577833	0	0	0	1	OmissionError	3.591698	1.890637	0	1
373.667847	0.792269	city	7	0	0.000000	1.552729	0	0	0	1	OmissionError	3.477544	1.866010	0	1
374.460114	0.792265	city	2	0	0.000000	1.466354	0	0	0	1	OmissionError	3.084772	1.805585	0	1
375.252380	0.792265	city	1	0	0.000000	1.314176	0	0	0	1	OmissionError	2.392776	1.713761	0	1
376.044617	0.792259	city	8	1	1.091665	1.091665	0	1	0	0	CorrectCommission	1.380956	1.597771	0	1
376.836945	0.792373	city	6	1	0.794289	0.794289	0	1	0	0	CorrectCommission	0.028707	1.466515	0	1
377.629211	0.792188	city	5	1	0.596152	0.596152	0	1	0	0	CorrectCommission	0.872277	1.329268	0	1
378.421539	0.792453	city	6	1	0.705529	0.705529	0	1	0	0	CorrectCommission	0.374912	1.194472	0	1
379.213898	0.792263	city	8	1	0.745669	0.745669	0	1	0	0	CorrectCommission	0.192381	1.068910	0	1
380.006073	0.792073	city	2	1	0.645862	0.645862	0	1	0	0	CorrectCommission	0.646232	0.957184	0	1
380.798248	0.792293	city	1	1	0.605796	0.605796	0	1	0	0	CorrectCommission	0.828424	0.861632	0	1
381.590576	0.792320	city	4	1	0.645738	0.645738	0	1	0	0	CorrectCommission	0.646797	0.782580	0	1
382.382843	0.792264	city	6	1	0.645699	0.645699	0	1	0	0	CorrectCommission	0.646975	0.718860	0	1
383.175079	0.792200	city	4	1	0.596896	0.596896	0	1	0	0	CorrectCommission	0.868896	0.668379	0	1
383.967285	0.792221	city	1	1	0.596223	0.596223	0	1	0	0	CorrectCommission	0.871956	0.628690	0	1
384.759583	0.792373	mountain	1	0	0.000000	0.629048	1	0	0	0	CorrectOmission	0.722691	0.597466	0	1
385.551849	0.792161	city	3	1	0.695142	0.695142	0	1	0	0	CorrectCommission	0.422142	0.572783	0	1
386.344116	0.792368	city	8	1	0.794277	0.794277	0	1	0	0	CorrectCommission	0.028652	0.553256	0	1
387.136444	0.792265	city	9	1	0.696776	0.696776	0	1	0	0	CorrectCommission	0.414714	0.538022	0	1
387.928711	0.792266	city	8	1	0.645684	0.645684	0	1	0	0	CorrectCommission	0.647044	0.526616	0	1
388.721069	0.792428	city	10	1	0.646016	0.646016	0	1	0	0	CorrectCommission	0.645530	0.518836	0	1
389.513367	0.792210	city	7	1	0.699874	0.699874	0	1	0	0	CorrectCommission	0.400624	0.514585	0	1
390.305511	0.792050	city	2	1	0.695055	0.695055	0	1	0	0	CorrectCommission	0.422539	0.513764	0	1
391.097717	0.792370	city	4	1	0.701465	0.701465	0	1	0	0	CorrectCommission	0.393391	0.516129	0	1
391.890015	0.792217	city	5	1	0.695137	0.695137	0	1	0	0	CorrectCommission	0.422167	0.521310	0	1
392.682251	0.792268	city	8	1	0.695626	0.695626	0	1	0	0	CorrectCommission	0.419944	0.528774	0	1
393.474487	0.792202	city	3	1	0.604654	0.604654	0	1	0	0	CorrectCommission	0.833616	0.537875	0	1
394.266724	0.792267	city	10	1	0.646465	0.646465	0	1	0	0	CorrectCommission	0.643490	0.547937	0	1
395.059082	0.792478	city	6	1	0.745330	0.745330	0	1	0	0	CorrectCommission	0.193925	0.558307	0	1
395.851410	0.792156	city	9	1	0.695160	0.695160	0	1	0	0	CorrectCommission	0.422062	0.568461	0	1
396.643616	0.792265	city	3	1	0.645906	0.645906	0	1	0	0	CorrectCommission	0.646031	0.578066	0	1
397.435822	0.792155	city	7	1	0.560111	0.560111	0	1	0	0	CorrectCommission	1.036167	0.587028	0	1
398.228058	0.792281	city	10	1	0.596234	0.596234	0	1	0	0	CorrectCommission	0.871904	0.595506	0	1
399.020355	0.792359	city	7	1	0.695758	0.695758	0	1	0	0	CorrectCommission	0.419342	0.603885	0	1
399.812622	0.792169	city	1	1	0.658480	0.658480	0	1	0	0	CorrectCommission	0.588853	0.612680	0	1
400.604858	0.792276	city	6	1	0.645734	0.645734	0	1	0	0	CorrectCommission	0.646814	0.622377	0	1
401.397125	0.792249	city	3	1	0.695325	0.695325	0	1	0	0	CorrectCommission	0.421312	0.633306	0	1
402.189362	0.792257	city	1	1	0.658635	0.658635	0	1	0	0	CorrectCommission	0.588149	0.645501	0	1
402.981628	0.792266	city	3	1	0.696104	0.696104	0	1	0	0	CorrectCommission	0.417768	0.658603	0	1
403.773895	0.792262	city	10	1	0.695391	0.695391	0	1	0	0	CorrectCommission	0.421011	0.671855	0	1
404.566193	0.792320	city	1	1	0.849117	0.849117	0	1	0	0	CorrectCommission	0.278026	0.684158	0	1
405.358459	0.792212	city	9	1	1.141227	1.141227	0	1	0	0	CorrectCommission	1.606332	0.694227	0	1
406.150696	0.792262	city	4	0	0.000000	0.751604	0	0	0	1	OmissionError	0.165395	0.700760	0	1
406.942993	0.792374	city	7	1	0.447677	0.447677	0	1	0	0	CorrectCommission	1.547434	0.702735	0	1
407.735260	0.792159	city	10	1	0.996878	0.996878	0	1	0	0	CorrectCommission	0.949934	0.699480	0	1
408.527496	0.792262	city	1	1	0.943319	0.943319	0	1	0	0	CorrectCommission	0.706387	0.690881	0	1
409.319733	0.792263	city	2	1	1.007413	1.007413	0	1	0	0	CorrectCommission	0.997843	0.677338	0	1
410.112122	0.792485	mountain	2	1	0.992352	0.992352	0	0	1	0	CommissionError	0.929352	0.659708	0	1
410.904388	0.792045	city	9	1	0.745094	0.745094	0	1	0	0	CorrectCommission	0.194996	0.639149	0	1
411.696533	0.792270	city	6	1	0.695702	0.695702	0	1	0	0	CorrectCommission	0.419594	0.616948	0	1
412.488861	0.792370	city	7	1	0.745034	0.745034	0	1	0	0	CorrectCommission	0.195271	0.594320	0	1
413.281128	0.792155	city	10	1	0.695145	0.695145	0	1	0	0	CorrectCommission	0.422129	0.572303	0	1
414.073334	0.792265	city	4	1	0.654433	0.654433	0	1	0	0	CorrectCommission	0.607260	0.551700	0	1
414.865662	0.792374	city	6	1	0.596361	0.596361	0	1	0	0	CorrectCommission	0.871329	0.533100	0	1
415.657928	0.792160	city	1	1	0.646129	0.646129	0	1	0	0	CorrectCommission	0.645018	0.516952	0	1
416.450134	0.792267	city	10	1	0.661460	0.661460	0	1	0	0	CorrectCommission	0.575303	0.503662	1	1
417.242432	0.792303	city	7	1	0.695482	0.695482	0	1	0	0	CorrectCommission	0.420598	0.493673	1	1
418.034729	0.792303	city	1	1	0.713910	0.713910	0	1	0	0	CorrectCommission	0.336799	0.487532	1	1
418.827026	0.792291	city	9	1	0.744711	0.744711	0	1	0	0	CorrectCommission	0.196737	0.485873	1	1
419.619354	0.792373	city	7	1	0.700591	0.700591	0	1	0	0	CorrectCommission	0.397364	0.489373	1	1
420.411560	0.792047	city	4	1	0.695060	0.695060	0	1	0	0	CorrectCommission	0.422516	0.498642	1	1
421.203766	0.792375	city	5	1	0.657362	0.657362	0	1	0	0	CorrectCommission	0.593939	0.514090	0	1
421.996033	0.792153	city	9	1	0.695177	0.695177	0	1	0	0	CorrectCommission	0.421984	0.535791	0	1
422.788300	0.792376	city	1	1	0.695685	0.695685	0	1	0	0	CorrectCommission	0.419672	0.563325	0	1
423.580566	0.792182	city	10	1	0.658464	0.658464	0	1	0	0	CorrectCommission	0.588929	0.595700	0	1
424.372833	0.792312	city	1	1	0.794934	0.794934	0	1	0	0	CorrectCommission	0.031639	0.631269	0	0
425.165070	0.792190	city	6	1	0.607425	0.607425	0	1	0	0	CorrectCommission	0.821016	0.667832	0	0
425.957306	0.792270	city	10	1	0.942839	0.942839	0	1	0	0	CorrectCommission	0.704205	0.702757	0	0
426.749573	0.792259	city	3	1	0.942981	0.942981	0	1	0	0	CorrectCommission	0.704852	0.733272	0	0
427.541840	0.792270	city	10	1	0.894113	0.894113	0	1	0	0	CorrectCommission	0.482636	0.756814	0	0
428.334106	0.792261	city	7	1	0.992386	0.992386	0	1	0	0	CorrectCommission	0.929507	0.771448	0	0
429.126373	0.792268	city	8	0	0.000000	1.140802	0	0	0	1	OmissionError	1.604396	0.776227	0	0
429.918640	0.792284	city	6	1	1.239955	1.239955	0	1	0	0	CorrectCommission	2.055273	0.771509	0	0
430.710938	0.792294	mountain	10	1	1.190439	1.190439	0	0	1	0	CommissionError	1.830110	0.759111	0	0
431.503235	0.792323	city	5	1	0.853544	0.853544	0	1	0	0	CorrectCommission	0.298155	0.742280	0	0
432.295471	0.792154	city	9	1	0.759620	0.759620	0	1	0	0	CorrectCommission	0.128942	0.725481	0	0
433.087738	0.792375	city	5	1	0.695311	0.695311	0	1	0	0	CorrectCommission	0.421375	0.713982	0	0
433.880005	0.792155	city	7	1	0.794184	0.794184	0	1	0	0	CorrectCommission	0.028227	0.713414	0	0
434.672211	0.792265	mountain	5	0	0.000000	0.767602	1	0	0	0	CorrectOmission	0.092646	0.729324	0	0
435.464478	0.792264	city	10	1	0.744770	0.744770	0	1	0	0	CorrectCommission	0.196470	0.766741	0	0
436.256866	0.792483	city	7	1	0.854891	0.854891	0	1	0	0	CorrectCommission	0.304279	0.829855	0	0
437.049225	0.792265	city	2	1	0.943004	0.943004	0	1	0	0	CorrectCommission	0.704957	0.921765	0	0
437.841400	0.792050	city	1	1	0.447650	0.447650	0	1	0	0	CorrectCommission	1.547556	1.044277	0	0
438.633545	0.792266	city	9	1	0.596216	0.596216	0	1	0	0	CorrectCommission	0.871987	1.197720	0	0
439.425812	0.792298	city	4	0	0.000000	0.743970	0	0	0	1	OmissionError	0.200109	1.380825	0	0
440.218079	0.792235	city	10	0	0.000000	0.889104	0	0	0	1	OmissionError	0.459857	1.590535	0	0
441.010345	0.792286	city	1	0	0.000000	1.029811	0	0	0	1	OmissionError	1.099691	1.821909	0	0
441.802673	0.792345	city	10	0	0.000000	1.164283	0	0	0	1	OmissionError	1.711171	2.068139	0	0
442.594910	0.792155	city	8	0	0.000000	1.290711	0	0	0	1	OmissionError	2.286077	2.320688	0	0
443.387238	0.792482	city	2	0	0.000000	1.407289	0	0	0	1	OmissionError	2.816190	2.569629	0	0
444.179504	0.792047	city	10	0	0.000000	1.512209	0	0	0	1	OmissionError	3.293288	2.804145	0	0
444.971771	0.792484	mountain	6	0	0.000000	1.603662	1	0	0	0	CorrectOmission	3.709150	3.013182	0	0
445.764130	0.792236	city	6	0	0.000000	1.679841	0	0	0	1	OmissionError	4.055557	3.186192	0	0
446.556274	0.792076	city	10	0	0.000000	1.738938	0	0	0	1	OmissionError	4.324287	3.313910	0	0
447.348511	0.792372	mountain	3	0	0.000000	1.779145	1	0	0	0	CorrectOmission	4.507121	3.389106	0	0
448.140778	0.792163	city	2	0	0.000000	1.798655	0	0	0	1	OmissionError	4.595837	3.407210	0	0
448.933014	0.792317	city	10	0	0.000000	1.795659	0	0	0	1	OmissionError	4.582215	3.366794	0	0
449.725372	0.792423	city	5	0	0.000000	1.768350	0	0	0	1	OmissionError	4.458035	3.269779	0	0
450.517609	0.792049	city	4	0	0.000000	1.714921	0	0	0	1	OmissionError	4.215076	3.121383	0	0
451.309875	0.792481	city	6	0	0.000000	1.633563	0	0	0	1	OmissionError	3.845118	2.929795	0	0
452.102142	0.792051	city	4	0	0.000000	1.522468	0	0	0	1	OmissionError	3.339940	2.705563	0	0
452.894409	0.792485	city	6	0	0.000000	1.379829	0	0	0	1	OmissionError	2.691321	2.460736	0	0
453.686676	0.792040	city	5	0	0.000000	1.203838	0	0	0	1	OmissionError	1.891041	2.207883	0	0
454.478943	0.792483	city	4	1	0.992687	0.992687	0	1	0	0	CorrectCommission	0.930879	1.959049	0	0
455.271210	0.792049	city	10	1	0.744569	0.744569	0	1	0	0	CorrectCommission	0.197385	1.724785	0	0
456.063354	0.792262	city	9	1	0.663575	0.663575	0	1	0	0	CorrectCommission	0.565689	1.513417	0	0
456.855621	0.792269	city	1	1	0.664143	0.664143	0	1	0	0	CorrectCommission	0.563104	1.330534	0	0
457.647949	0.792369	city	3	1	0.645769	0.645769	0	1	0	0	CorrectCommission	0.646654	1.178872	0	0
458.440277	0.792265	city	5	1	0.652601	0.652601	0	1	0	0	CorrectCommission	0.615588	1.058446	0	0
459.232483	0.792156	city	3	1	0.606823	0.606823	0	1	0	0	CorrectCommission	0.823752	0.966977	0	0
460.024689	0.792264	city	8	1	0.646922	0.646922	0	1	0	0	CorrectCommission	0.641411	0.900470	0	0
460.816956	0.792280	city	6	1	0.596398	0.596398	0	1	0	0	CorrectCommission	0.871159	0.853904	0	0
461.609283	0.792358	city	7	1	0.647281	0.647281	0	1	0	0	CorrectCommission	0.639778	0.821870	0	0
462.401550	0.792159	city	1	1	0.602537	0.602537	0	1	0	0	CorrectCommission	0.843243	0.799170	0	0
463.193787	0.792311	city	8	1	0.596686	0.596686	0	1	0	0	CorrectCommission	0.869851	0.781252	0	0
463.986023	0.792221	city	1	1	0.547508	0.547508	0	1	0	0	CorrectCommission	1.093476	0.764528	0	0
464.778320	0.792369	city	9	1	0.546761	0.546761	0	1	0	0	CorrectCommission	1.096871	0.746512	0	0
465.570618	0.792172	city	3	1	0.562634	0.562634	0	1	0	0	CorrectCommission	1.024694	0.725821	0	0
466.362823	0.792300	city	9	1	0.650630	0.650630	0	1	0	0	CorrectCommission	0.624553	0.702048	0	0
467.155121	0.792237	city	3	1	0.649238	0.649238	0	1	0	0	CorrectCommission	0.630880	0.675564	0	0
467.947357	0.792240	city	8	1	0.704417	0.704417	0	1	0	0	CorrectCommission	0.379968	0.647246	0	0
468.739716	0.792483	city	2	1	0.657893	0.657893	0	1	0	0	CorrectCommission	0.591523	0.618219	0	0
469.532013	0.792155	city	9	1	0.647978	0.647978	0	1	0	0	CorrectCommission	0.636611	0.589616	0	0
470.324188	0.792157	city	10	1	0.695597	0.695597	0	1	0	0	CorrectCommission	0.420075	0.562412	0	0
471.116394	0.792264	city	8	1	0.663804	0.663804	0	1	0	0	CorrectCommission	0.564646	0.537313	0	0
471.908661	0.792271	city	1	1	0.744819	0.744819	0	1	0	0	CorrectCommission	0.196247	0.514707	0	0
472.700989	0.792370	city	7	1	0.658333	0.658333	0	1	0	0	CorrectCommission	0.589523	0.494702	1	0
473.493256	0.792156	mountain	9	0	0.000000	0.654205	1	0	0	0	CorrectOmission	0.608294	0.477141	1	0
474.285553	0.792481	city	3	1	0.695329	0.695329	0	1	0	0	CorrectCommission	0.421293	0.461731	1	0
475.077820	0.792052	city	10	1	0.744598	0.744598	0	1	0	0	CorrectCommission	0.197254	0.448124	1	0
475.870087	0.792478	city	2	1	0.695257	0.695257	0	1	0	0	CorrectCommission	0.421622	0.436009	1	0
476.662415	0.792156	city	6	1	0.655274	0.655274	0	1	0	0	CorrectCommission	0.603436	0.425171	1	0
477.454559	0.792161	city	5	1	0.662814	0.662814	0	1	0	0	CorrectCommission	0.569147	0.415542	1	0
478.246765	0.792259	city	3	1	0.695276	0.695276	0	1	0	0	CorrectCommission	0.421532	0.407192	1	0
479.039032	0.792268	city	5	1	0.697394	0.697394	0	1	0	0	CorrectCommission	0.411905	0.400302	1	0
479.831299	0.792265	city	2	1	0.695286	0.695286	0	1	0	0	CorrectCommission	0.421489	0.395092	1	0
480.623566	0.792273	mountain	2	0	0.000000	0.752974	1	0	0	0	CorrectOmission	0.159166	0.391757	1	0
481.415955	0.792472	city	10	1	0.794743	0.794743	0	1	0	0	CorrectCommission	0.030772	0.390401	1	0
482.208221	0.792051	city	2	1	0.744880	0.744880	0	1	0	0	CorrectCommission	0.195970	0.391000	1	0
483.000488	0.792479	city	9	1	0.645839	0.645839	0	1	0	0	CorrectCommission	0.646337	0.393391	1	0
483.792786	0.792156	city	2	1	0.695217	0.695217	0	1	0	0	CorrectCommission	0.421803	0.397302	1	0
484.584961	0.792155	city	1	1	0.695455	0.695455	0	1	0	0	CorrectCommission	0.420719	0.402409	1	0
485.377167	0.792266	city	2	1	0.647343	0.647343	0	1	0	0	CorrectCommission	0.639497	0.408370	1	0
486.169434	0.792287	city	8	1	0.698763	0.698763	0	1	0	0	CorrectCommission	0.405679	0.414860	1	0
486.961700	0.792265	city	1	1	0.695260	0.695260	0	1	0	0	CorrectCommission	0.421606	0.421606	1	0
