onset	duration	trial_type	image_type	Press	ReactionTime	ReactionTime_Interpolated	CorrectOmission	CorrectCommission	CommissionError	OmissionError	response_type	nonsmoothVarianceTimeCourse	VarianceTimeCourse	In_the_Zone	Reward_trial
8.433797	0.792264	mountain	6	1	0.611371	0.611371	0	0	1	0	CommissionError	0.446517	0.446517	1	0
9.226116	0.792376	mountain	9	0	0.000000	0.774274	1	0	0	0	CorrectOmission	1.330669	0.492337	1	0
10.018383	0.792158	city	6	1	0.848381	0.848381	0	1	0	0	CorrectCommission	2.139135	0.535933	1	0
10.810593	0.792261	city	5	1	0.744896	0.744896	0	1	0	0	CorrectCommission	1.010164	0.575465	1	0
11.602964	0.792483	city	2	1	0.744874	0.744874	0	1	0	0	CorrectCommission	1.009929	0.609812	1	0
12.395285	0.792157	city	4	1	0.695211	0.695211	0	1	0	0	CorrectCommission	0.468127	0.638634	1	0
13.187443	0.792160	city	1	1	0.650425	0.650425	0	1	0	0	CorrectCommission	0.020457	0.662421	1	0
13.979652	0.792260	city	2	1	0.648906	0.648906	0	1	0	0	CorrectCommission	0.037029	0.682258	1	0
14.771914	0.792264	city	4	1	0.596245	0.596245	0	1	0	0	CorrectCommission	0.611539	0.699554	1	0
15.564198	0.792304	city	10	1	0.546690	0.546690	0	1	0	0	CorrectCommission	1.152159	0.715756	1	0
16.356504	0.792309	city	9	1	0.547071	0.547071	0	1	0	0	CorrectCommission	1.148003	0.732064	1	0
17.148752	0.792185	city	7	1	0.552356	0.552356	0	1	0	0	CorrectCommission	1.090341	0.749224	0	0
17.940977	0.792262	city	4	1	0.695600	0.695600	0	1	0	0	CorrectCommission	0.472374	0.767346	0	0
18.733238	0.792264	city	3	1	0.655906	0.655906	0	1	0	0	CorrectCommission	0.039336	0.785843	0	0
19.525560	0.792379	city	5	1	0.645840	0.645840	0	1	0	0	CorrectCommission	0.070480	0.803458	0	0
20.317825	0.792151	city	1	1	0.744741	0.744741	0	1	0	0	CorrectCommission	1.008475	0.818373	0	0
21.110142	0.792481	city	6	1	0.844346	0.844346	0	1	0	0	CorrectCommission	2.095107	0.828432	0	0
21.902428	0.792090	city	9	1	0.702811	0.702811	0	1	0	0	CorrectCommission	0.551044	0.831463	0	0
22.694601	0.792259	city	10	1	0.596306	0.596306	0	1	0	0	CorrectCommission	0.610872	0.825658	0	0
23.486900	0.792337	city	9	1	0.547110	0.547110	0	1	0	0	CorrectCommission	1.147571	0.809805	0	0
24.279146	0.792156	city	1	1	0.499508	0.499508	0	1	0	0	CorrectCommission	1.666881	0.783568	0	0
25.071356	0.792265	city	5	1	0.547197	0.547197	0	1	0	0	CorrectCommission	1.146625	0.747578	1	0
25.863621	0.792265	city	10	1	0.555929	0.555929	0	1	0	0	CorrectCommission	1.051359	0.703435	1	0
26.655888	0.792267	city	3	1	0.744949	0.744949	0	1	0	0	CorrectCommission	1.010747	0.653497	1	0
27.448206	0.792371	city	2	1	0.646025	0.646025	0	1	0	0	CorrectCommission	0.068467	0.600588	1	0
28.240471	0.792158	city	4	1	0.653795	0.653795	0	1	0	0	CorrectCommission	0.016299	0.547680	1	0
29.032681	0.792262	city	9	1	0.645894	0.645894	0	1	0	0	CorrectCommission	0.069893	0.497493	1	0
29.824944	0.792264	city	8	1	0.660780	0.660780	0	1	0	0	CorrectCommission	0.092507	0.452218	1	0
30.617214	0.792279	city	10	1	0.604431	0.604431	0	1	0	0	CorrectCommission	0.522234	0.413350	1	0
31.409513	0.792320	city	1	1	0.645805	0.645805	0	1	0	0	CorrectCommission	0.070866	0.381615	1	0
32.201771	0.792194	city	3	1	0.695276	0.695276	0	1	0	0	CorrectCommission	0.468841	0.357074	1	0
32.994041	0.792349	mountain	5	0	0.000000	0.688542	1	0	0	0	CorrectOmission	0.395376	0.339256	1	0
33.786362	0.792292	city	2	1	0.648011	0.648011	0	1	0	0	CorrectCommission	0.046796	0.327418	1	0
34.578697	0.792372	city	7	1	0.596092	0.596092	0	1	0	0	CorrectCommission	0.613209	0.320744	1	0
35.370907	0.792048	city	6	1	0.596043	0.596043	0	1	0	0	CorrectCommission	0.613742	0.318503	1	0
36.163116	0.792375	city	7	1	0.645778	0.645778	0	1	0	0	CorrectCommission	0.071154	0.320174	1	0
36.955383	0.792158	city	5	1	0.664138	0.664138	0	1	0	0	CorrectCommission	0.129135	0.325472	1	0
37.747593	0.792261	city	7	1	0.645723	0.645723	0	1	0	0	CorrectCommission	0.071755	0.334284	1	0
38.539871	0.792296	city	3	1	0.695345	0.695345	0	1	0	0	CorrectCommission	0.469592	0.346586	1	0
39.332138	0.792234	city	7	1	0.695209	0.695209	0	1	0	0	CorrectCommission	0.468110	0.362375	1	0
40.124386	0.792265	mountain	3	0	0.000000	0.651192	1	0	0	0	CorrectOmission	0.012090	0.381545	1	0
40.916706	0.792372	city	2	1	0.609050	0.609050	0	1	0	0	CorrectCommission	0.471842	0.403824	1	0
41.709023	0.792266	city	5	1	0.614537	0.614537	0	1	0	0	CorrectCommission	0.411985	0.428703	1	0
42.501343	0.792373	city	4	1	0.601176	0.601176	0	1	0	0	CorrectCommission	0.557743	0.455480	1	0
43.293583	0.792106	city	9	1	0.645508	0.645508	0	1	0	0	CorrectCommission	0.074100	0.483265	1	0
44.085739	0.792210	city	5	1	0.605580	0.605580	0	1	0	0	CorrectCommission	0.509697	0.511077	1	0
44.878029	0.792370	city	7	1	0.695269	0.695269	0	1	0	0	CorrectCommission	0.468766	0.537893	1	0
45.670296	0.792158	city	3	1	0.745132	0.745132	0	1	0	0	CorrectCommission	1.012736	0.562766	1	0
46.462517	0.792288	city	4	1	0.745086	0.745086	0	1	0	0	CorrectCommission	1.012235	0.584890	1	0
47.254780	0.792241	city	5	1	0.596234	0.596234	0	1	0	0	CorrectCommission	0.611652	0.603675	1	0
48.047035	0.792263	city	4	1	0.709018	0.709018	0	1	0	0	CorrectCommission	0.618761	0.618794	1	0
48.839298	0.792269	city	9	1	0.603247	0.603247	0	1	0	0	CorrectCommission	0.535149	0.630169	1	0
49.631573	0.792279	city	7	1	0.612080	0.612080	0	1	0	0	CorrectCommission	0.438788	0.637980	1	0
50.423836	0.792249	city	8	1	0.596200	0.596200	0	1	0	0	CorrectCommission	0.612024	0.642663	1	0
51.216148	0.792369	city	1	1	0.596208	0.596208	0	1	0	0	CorrectCommission	0.611936	0.644898	1	0
52.008427	0.792193	mountain	6	0	0.000000	0.580193	1	0	0	0	CorrectOmission	0.786649	0.645564	1	0
52.800640	0.792227	city	3	1	0.562568	0.562568	0	1	0	0	CorrectCommission	0.978938	0.645725	1	0
53.592911	0.792319	city	2	1	0.557742	0.557742	0	1	0	0	CorrectCommission	1.031578	0.646581	1	0
54.385193	0.792246	city	5	1	0.556975	0.556975	0	1	0	0	CorrectCommission	1.039955	0.649324	1	0
55.177433	0.792231	city	6	1	0.646383	0.646383	0	1	0	0	CorrectCommission	0.064558	0.654993	1	0
55.969681	0.792264	city	3	1	0.657066	0.657066	0	1	0	0	CorrectCommission	0.051992	0.664314	1	0
56.761967	0.792309	city	5	1	0.646065	0.646065	0	1	0	0	CorrectCommission	0.068022	0.677518	1	0
57.554340	0.792437	city	2	1	0.695240	0.695240	0	1	0	0	CorrectCommission	0.468446	0.694268	1	0
58.346607	0.792100	city	8	1	0.695042	0.695042	0	1	0	0	CorrectCommission	0.466287	0.713638	1	0
59.138767	0.792215	city	3	1	0.794261	0.794261	0	1	0	0	CorrectCommission	1.548716	0.734239	1	0
59.931046	0.792348	city	2	1	0.744802	0.744802	0	1	0	0	CorrectCommission	1.009141	0.754289	0	0
60.723419	0.792397	city	1	1	0.744795	0.744795	0	1	0	0	CorrectCommission	1.009059	0.771907	0	0
61.515644	0.792050	city	2	1	0.744745	0.744745	0	1	0	0	CorrectCommission	1.008519	0.785240	0	0
62.307800	0.792261	city	3	1	0.695798	0.695798	0	1	0	0	CorrectCommission	0.474530	0.792684	0	0
63.100170	0.792483	city	9	1	0.744816	0.744816	0	1	0	0	CorrectCommission	1.009293	0.792998	0	0
63.892433	0.792045	mountain	3	0	0.000000	0.695471	1	0	0	0	CorrectOmission	0.470965	0.785406	0	0
64.684647	0.792376	city	9	1	0.600073	0.600073	0	1	0	0	CorrectCommission	0.569772	0.769724	0	0
65.476913	0.792158	city	3	1	0.510934	0.510934	0	1	0	0	CorrectCommission	1.542232	0.746357	1	0
66.269127	0.792266	city	10	1	0.498452	0.498452	0	1	0	0	CorrectCommission	1.678404	0.716309	1	0
67.061386	0.792262	city	2	1	0.596548	0.596548	0	1	0	0	CorrectCommission	0.608229	0.681155	1	0
67.853653	0.792264	city	9	1	0.661210	0.661210	0	1	0	0	CorrectCommission	0.097203	0.642929	1	1
68.645950	0.792335	city	3	1	0.745478	0.745478	0	1	0	0	CorrectCommission	1.016510	0.603915	1	1
69.438232	0.792229	city	10	1	0.695204	0.695204	0	1	0	0	CorrectCommission	0.468052	0.566389	1	1
70.230499	0.792304	city	2	1	0.645779	0.645779	0	1	0	0	CorrectCommission	0.071149	0.532424	1	1
71.022751	0.792192	city	9	1	0.645676	0.645676	0	1	0	0	CorrectCommission	0.072271	0.503687	1	1
71.815086	0.792480	city	1	1	0.645775	0.645775	0	1	0	0	CorrectCommission	0.071190	0.481249	1	1
72.607346	0.792047	city	4	1	0.647478	0.647478	0	1	0	0	CorrectCommission	0.052606	0.465605	1	1
73.399521	0.792297	city	1	1	0.695232	0.695232	0	1	0	0	CorrectCommission	0.468356	0.456682	1	1
74.191841	0.792342	city	8	1	0.803764	0.803764	0	1	0	0	CorrectCommission	1.652389	0.453973	1	1
74.984200	0.792374	city	5	1	0.659620	0.659620	0	1	0	0	CorrectCommission	0.079848	0.456685	1	1
75.776405	0.792049	city	10	1	0.652757	0.652757	0	1	0	0	CorrectCommission	0.004985	0.464013	1	1
76.568565	0.792266	city	1	1	0.645735	0.645735	0	1	0	0	CorrectCommission	0.071622	0.475160	1	1
77.360832	0.792265	city	4	1	0.749493	0.749493	0	1	0	0	CorrectCommission	1.060313	0.489528	1	1
78.153206	0.792479	city	3	1	0.695773	0.695773	0	1	0	0	CorrectCommission	0.474257	0.506689	1	1
78.945465	0.792050	city	10	1	0.600844	0.600844	0	1	0	0	CorrectCommission	0.561366	0.526434	1	1
79.737648	0.792316	city	4	1	0.697971	0.697971	0	1	0	0	CorrectCommission	0.498241	0.548666	1	1
80.530022	0.792428	city	2	1	0.695390	0.695390	0	1	0	0	CorrectCommission	0.470086	0.573286	1	1
81.322365	0.792265	city	6	1	0.611259	0.611259	0	1	0	0	CorrectCommission	0.447737	0.600065	1	1
82.114578	0.792157	city	10	1	0.611057	0.611057	0	1	0	0	CorrectCommission	0.449944	0.628574	1	1
82.906738	0.792159	mountain	9	0	0.000000	0.702759	1	0	0	0	CorrectOmission	0.550476	0.658100	1	1
83.698990	0.792342	city	6	1	0.744954	0.744954	0	1	0	0	CorrectCommission	1.010800	0.687642	1	1
84.491249	0.792183	city	10	1	0.596231	0.596231	0	1	0	0	CorrectCommission	0.611690	0.715985	1	1
85.283485	0.792283	city	1	1	0.654999	0.654999	0	1	0	0	CorrectCommission	0.029437	0.741837	1	1
86.075844	0.792437	city	5	1	0.794428	0.794428	0	1	0	0	CorrectCommission	1.550536	0.763941	0	1
86.868095	0.792076	city	1	1	0.713101	0.713101	0	1	0	0	CorrectCommission	0.663298	0.781239	0	1
87.660271	0.792266	city	10	1	0.794319	0.794319	0	1	0	0	CorrectCommission	1.549345	0.793077	0	1
88.452560	0.792321	city	8	1	0.745704	0.745704	0	1	0	0	CorrectCommission	1.018983	0.799199	0	1
89.244827	0.792204	city	4	1	0.745331	0.745331	0	1	0	0	CorrectCommission	1.014911	0.799825	0	1
90.037064	0.792270	city	9	1	0.695693	0.695693	0	1	0	0	CorrectCommission	0.473391	0.795555	0	1
90.829346	0.792302	city	8	1	0.758688	0.758688	0	1	0	0	CorrectCommission	1.160626	0.787257	0	1
91.621719	0.792442	city	6	1	0.646324	0.646324	0	1	0	0	CorrectCommission	0.065197	0.775856	0	1
92.413963	0.792047	city	2	1	0.548916	0.548916	0	1	0	0	CorrectCommission	1.127868	0.762321	0	1
93.206230	0.792482	city	6	1	0.652641	0.652641	0	1	0	0	CorrectCommission	0.003711	0.747438	1	1
93.998497	0.792045	city	8	1	0.695195	0.695195	0	1	0	0	CorrectCommission	0.467954	0.731883	1	1
94.790649	0.792265	city	6	1	0.794307	0.794307	0	1	0	0	CorrectCommission	1.549211	0.716153	1	1
95.582916	0.792265	city	9	1	0.794317	0.794317	0	1	0	0	CorrectCommission	1.549328	0.700654	1	1
96.375183	0.792268	city	1	1	0.660394	0.660394	0	1	0	0	CorrectCommission	0.088293	0.685755	1	1
97.167442	0.792260	city	5	1	0.700404	0.700404	0	1	0	0	CorrectCommission	0.524780	0.671855	1	1
97.959709	0.792269	mountain	5	0	0.000000	0.719784	1	0	0	0	CorrectOmission	0.736211	0.659302	1	1
98.751999	0.792318	city	2	1	0.695213	0.695213	0	1	0	0	CorrectCommission	0.468150	0.648416	1	1
99.544319	0.792317	city	8	1	0.603367	0.603367	0	1	0	0	CorrectCommission	0.533838	0.639446	1	1
100.336555	0.792158	city	5	1	0.695203	0.695203	0	1	0	0	CorrectCommission	0.468045	0.632507	1	1
101.128822	0.792373	mountain	3	0	0.000000	0.645607	1	0	0	0	CorrectOmission	0.073019	0.627579	1	1
101.921089	0.792155	city	5	1	0.562534	0.562534	0	1	0	0	CorrectCommission	0.979308	0.624537	1	1
102.713295	0.792264	city	6	1	0.553937	0.553937	0	1	0	0	CorrectCommission	1.073098	0.623152	1	1
103.505615	0.792375	city	5	1	0.695308	0.695308	0	1	0	0	CorrectCommission	0.469184	0.623161	1	1
104.297905	0.792198	city	1	1	0.713417	0.713417	0	1	0	0	CorrectCommission	0.666750	0.624383	1	1
105.090126	0.792247	city	9	1	0.744736	0.744736	0	1	0	0	CorrectCommission	1.008420	0.626675	1	1
105.882393	0.792294	city	3	1	0.704346	0.704346	0	1	0	0	CorrectCommission	0.567786	0.630026	1	1
106.674652	0.792214	city	7	1	0.645720	0.645720	0	1	0	0	CorrectCommission	0.071793	0.634506	1	1
107.466888	0.792271	city	2	1	0.601153	0.601153	0	1	0	0	CorrectCommission	0.557989	0.640284	1	1
108.259178	0.792303	city	8	1	0.645740	0.645740	0	1	0	0	CorrectCommission	0.071569	0.647596	1	1
109.051437	0.792220	city	9	1	0.710932	0.710932	0	1	0	0	CorrectCommission	0.639642	0.656822	1	1
109.843689	0.792279	mountain	8	0	0.000000	0.778818	1	0	0	0	CorrectOmission	1.380234	0.668415	1	1
110.635956	0.792252	city	9	1	0.795086	0.795086	0	1	0	0	CorrectCommission	1.557711	0.682910	1	1
111.428207	0.792259	city	1	1	0.705426	0.705426	0	1	0	0	CorrectCommission	0.579574	0.700870	1	1
112.220581	0.792484	city	9	1	0.695315	0.695315	0	1	0	0	CorrectCommission	0.469265	0.722742	1	1
113.012848	0.792050	city	2	1	0.654884	0.654884	0	1	0	0	CorrectCommission	0.028180	0.748696	0	1
113.805061	0.792371	city	8	1	0.645747	0.645747	0	1	0	0	CorrectCommission	0.071496	0.778510	0	1
114.597328	0.792165	city	7	1	0.695163	0.695163	0	1	0	0	CorrectCommission	0.467605	0.811435	0	1
115.389572	0.792323	city	4	1	0.706557	0.706557	0	1	0	0	CorrectCommission	0.591912	0.846189	0	1
116.181938	0.792413	mountain	7	0	0.000000	0.793582	1	0	0	0	CorrectOmission	1.541301	0.881041	0	1
116.974167	0.792046	city	4	1	0.843817	0.843817	0	1	0	0	CorrectCommission	2.089340	0.913947	0	1
117.766327	0.792266	city	6	1	0.744844	0.744844	0	1	0	0	CorrectCommission	1.009596	0.942792	0	1
118.558594	0.792267	city	4	1	0.662988	0.662988	0	1	0	0	CorrectCommission	0.116590	0.965639	0	1
119.350853	0.792261	city	8	1	0.556271	0.556271	0	1	0	0	CorrectCommission	1.047635	0.980889	0	1
120.143120	0.792269	mountain	9	0	0.000000	0.731880	1	0	0	0	CorrectOmission	0.868170	0.987415	0	1
120.935417	0.792316	city	6	1	0.893479	0.893479	0	1	0	0	CorrectCommission	2.631131	0.984746	0	1
121.727730	0.792319	city	9	1	0.744732	0.744732	0	1	0	0	CorrectCommission	1.008377	0.973004	0	1
122.520004	0.792228	city	4	1	0.612638	0.612638	0	1	0	0	CorrectCommission	0.432693	0.952995	0	1
123.312218	0.792191	city	2	1	0.596350	0.596350	0	1	0	0	CorrectCommission	0.610386	0.926031	0	1
124.104446	0.792265	city	7	1	0.547031	0.547031	0	1	0	0	CorrectCommission	1.148436	0.893813	0	1
124.896706	0.792267	city	10	1	0.506354	0.506354	0	1	0	0	CorrectCommission	1.592201	0.858227	0	1
125.689003	0.792326	city	2	1	0.597051	0.597051	0	1	0	0	CorrectCommission	0.602746	0.821173	0	1
126.481377	0.792419	city	10	1	0.553568	0.553568	0	1	0	0	CorrectCommission	1.077123	0.784364	0	1
127.273720	0.792266	city	5	1	0.649009	0.649009	0	1	0	0	CorrectCommission	0.035913	0.749074	0	0
128.065872	0.792051	city	6	1	0.695140	0.695140	0	1	0	0	CorrectCommission	0.467360	0.716126	1	0
128.858047	0.792283	city	8	1	0.646028	0.646028	0	1	0	0	CorrectCommission	0.068432	0.685793	1	0
129.650314	0.792241	city	10	1	0.605101	0.605101	0	1	0	0	CorrectCommission	0.514924	0.657916	1	0
130.442581	0.792300	city	2	1	0.553836	0.553836	0	1	0	0	CorrectCommission	1.074198	0.632069	1	0
131.234894	0.792319	mountain	5	0	0.000000	0.574720	1	0	0	0	CorrectOmission	0.846361	0.607806	1	0
132.027130	0.792174	city	6	1	0.596453	0.596453	0	1	0	0	CorrectCommission	0.609270	0.584928	1	0
132.819351	0.792269	city	8	1	0.547732	0.547732	0	1	0	0	CorrectCommission	1.140785	0.563714	1	0
133.611649	0.792321	city	4	1	0.596790	0.596790	0	1	0	0	CorrectCommission	0.605589	0.544976	1	0
134.403915	0.792208	city	3	1	0.611032	0.611032	0	1	0	0	CorrectCommission	0.450219	0.530078	1	0
135.196167	0.792294	city	4	1	0.645751	0.645751	0	1	0	0	CorrectCommission	0.071448	0.520785	1	0
135.988434	0.792233	city	8	1	0.596193	0.596193	0	1	0	0	CorrectCommission	0.612104	0.518972	1	0
136.780731	0.792373	city	7	1	0.645766	0.645766	0	1	0	0	CorrectCommission	0.071290	0.526209	1	0
137.573059	0.792266	city	9	1	0.614762	0.614762	0	1	0	0	CorrectCommission	0.409521	0.543495	1	0
138.365265	0.792155	city	10	1	0.645688	0.645688	0	1	0	0	CorrectCommission	0.072138	0.570907	1	0
139.157471	0.792269	city	2	1	0.645813	0.645813	0	1	0	0	CorrectCommission	0.070777	0.607555	1	0
139.949844	0.792479	city	3	1	0.661859	0.661859	0	1	0	0	CorrectCommission	0.104274	0.651535	1	0
140.742111	0.792052	mountain	6	0	0.000000	0.714999	1	0	0	0	CorrectOmission	0.684001	0.700164	1	0
141.534271	0.792262	city	7	1	0.749584	0.749584	0	1	0	0	CorrectCommission	1.061305	0.750278	0	0
142.326538	0.792263	city	8	1	0.709964	0.709964	0	1	0	0	CorrectCommission	0.629082	0.798690	0	0
143.118805	0.792269	city	9	1	0.843923	0.843923	0	1	0	0	CorrectCommission	2.090502	0.842638	0	0
143.911102	0.792338	city	8	1	0.794522	0.794522	0	1	0	0	CorrectCommission	1.551564	0.880031	0	0
144.703415	0.792295	city	4	1	0.745279	0.745279	0	1	0	0	CorrectCommission	1.014341	0.909754	0	0
145.495651	0.792154	city	1	1	0.756696	0.756696	0	1	0	0	CorrectCommission	1.138900	0.931576	0	0
146.287903	0.792375	city	10	1	0.745044	0.745044	0	1	0	0	CorrectCommission	1.011785	0.945999	0	0
147.080231	0.792264	city	2	1	0.695198	0.695198	0	1	0	0	CorrectCommission	0.467991	0.953961	0	0
147.872498	0.792265	city	4	1	0.758001	0.758001	0	1	0	0	CorrectCommission	1.153130	0.956554	0	0
148.664703	0.792158	city	6	1	0.645668	0.645668	0	1	0	0	CorrectCommission	0.072356	0.954662	0	0
149.456909	0.792265	city	7	1	0.646411	0.646411	0	1	0	0	CorrectCommission	0.064256	0.948892	0	0
150.249176	0.792262	mountain	1	1	0.497230	0.497230	0	0	1	0	CommissionError	1.691732	0.939477	0	0
151.041458	0.792290	city	8	1	0.448235	0.448235	0	1	0	0	CorrectCommission	2.226241	0.926384	0	0
151.833771	0.792349	city	1	1	0.546736	0.546736	0	1	0	0	CorrectCommission	1.151654	0.909530	0	0
152.626022	0.792155	city	9	1	0.610492	0.610492	0	1	0	0	CorrectCommission	0.456105	0.888993	0	0
153.418259	0.792298	city	4	1	0.596233	0.596233	0	1	0	0	CorrectCommission	0.611666	0.865098	0	0
154.210526	0.792232	city	2	1	0.497226	0.497226	0	1	0	0	CorrectCommission	1.691780	0.838539	0	0
155.002777	0.792281	city	6	1	0.695275	0.695275	0	1	0	0	CorrectCommission	0.468832	0.810258	0	0
155.795044	0.792249	city	2	1	0.744742	0.744742	0	1	0	0	CorrectCommission	1.008485	0.781450	0	0
156.587311	0.792280	city	1	1	0.646016	0.646016	0	1	0	0	CorrectCommission	0.068560	0.753295	0	0
157.379578	0.792254	city	5	1	0.706982	0.706982	0	1	0	0	CorrectCommission	0.596544	0.726884	1	0
158.171844	0.792293	city	3	1	0.598621	0.598621	0	1	0	0	CorrectCommission	0.585618	0.703032	1	0
158.964218	0.792451	city	4	1	0.607727	0.607727	0	1	0	0	CorrectCommission	0.486276	0.682251	1	0
159.756516	0.792158	city	3	1	0.547447	0.547447	0	1	0	0	CorrectCommission	1.143891	0.664820	1	0
160.548737	0.792264	city	2	1	0.614187	0.614187	0	1	0	0	CorrectCommission	0.415796	0.650798	1	0
161.340942	0.792158	city	9	1	0.695196	0.695196	0	1	0	0	CorrectCommission	0.467962	0.640277	1	0
162.133255	0.792479	city	1	1	0.661593	0.661593	0	1	0	0	CorrectCommission	0.101376	0.633496	1	0
162.925537	0.792063	city	8	1	0.843596	0.843596	0	1	0	0	CorrectCommission	2.086930	0.630983	1	0
163.717682	0.792251	city	3	1	0.695590	0.695590	0	1	0	0	CorrectCommission	0.472268	0.633604	1	0
164.509949	0.792264	city	9	1	0.645739	0.645739	0	1	0	0	CorrectCommission	0.071579	0.642659	1	0
165.302322	0.792489	mountain	4	0	0.000000	0.679789	1	0	0	0	CorrectOmission	0.299883	0.659676	1	0
166.094620	0.792110	city	4	1	0.697109	0.697109	0	1	0	0	CorrectCommission	0.488841	0.686266	1	0
166.886795	0.792224	city	10	1	0.597072	0.597072	0	1	0	0	CorrectCommission	0.602519	0.723912	1	0
167.679016	0.792243	city	3	1	0.596320	0.596320	0	1	0	0	CorrectCommission	0.610720	0.773667	0	0
168.471268	0.792257	city	1	1	0.647546	0.647546	0	1	0	0	CorrectCommission	0.051868	0.835908	0	0
169.263550	0.792295	city	6	1	0.843799	0.843799	0	1	0	0	CorrectCommission	2.089140	0.910102	0	0
170.055817	0.792234	city	2	1	0.645738	0.645738	0	1	0	0	CorrectCommission	0.071590	0.994569	0	0
170.848068	0.792270	city	1	1	0.695235	0.695235	0	1	0	0	CorrectCommission	0.468394	1.086512	0	0
171.640442	0.792478	city	3	1	0.611067	0.611067	0	1	0	0	CorrectCommission	0.449832	1.181942	0	0
172.432816	0.792265	city	5	1	0.553593	0.553593	0	1	0	0	CorrectCommission	1.076845	1.275976	0	0
173.225021	0.792156	city	2	1	0.451761	0.451761	0	1	0	0	CorrectCommission	2.187783	1.363120	0	0
174.017227	0.792263	city	8	1	0.501361	0.501361	0	1	0	0	CorrectCommission	1.646670	1.437800	0	0
174.809540	0.792375	mountain	4	1	0.398029	0.398029	0	0	1	0	CommissionError	2.773963	1.494909	0	0
175.601761	0.792048	city	1	1	0.497215	0.497215	0	1	0	0	CorrectCommission	1.691896	1.530319	0	0
176.393921	0.792268	city	5	1	0.453446	0.453446	0	1	0	0	CorrectCommission	2.169395	1.541408	0	0
177.186218	0.792323	city	7	1	0.447677	0.447677	0	1	0	0	CorrectCommission	2.232332	1.527314	0	0
177.978470	0.792202	city	1	1	0.497300	0.497300	0	1	0	0	CorrectCommission	1.690967	1.489120	0	0
178.770737	0.792331	mountain	7	1	0.416234	0.416234	0	0	1	0	CommissionError	2.575357	1.429736	0	0
179.563034	0.792261	city	2	1	0.497137	0.497137	0	1	0	0	CorrectCommission	1.692755	1.353576	0	0
180.355377	0.792421	city	1	1	0.515184	0.515184	0	1	0	0	CorrectCommission	1.495872	1.266120	0	0
181.147614	0.792048	city	5	1	0.645637	0.645637	0	1	0	0	CorrectCommission	0.072696	1.173341	0	0
181.939819	0.792372	city	2	1	0.602727	0.602727	0	1	0	0	CorrectCommission	0.540819	1.081126	0	0
182.732193	0.792374	city	7	1	0.596269	0.596269	0	1	0	0	CorrectCommission	0.611271	0.994651	0	0
183.524414	0.792050	mountain	9	1	0.547001	0.547001	0	0	1	0	CommissionError	1.148755	0.917969	0	0
184.316559	0.792262	mountain	2	0	0.000000	0.621117	1	0	0	0	CorrectOmission	0.340198	0.853700	0	0
185.108826	0.792267	city	5	1	0.695267	0.695267	0	1	0	0	CorrectCommission	0.468744	0.802953	0	0
185.901199	0.792479	city	9	1	0.646105	0.646105	0	1	0	0	CorrectCommission	0.067591	0.765371	0	0
186.693466	0.792048	city	2	1	0.596106	0.596106	0	1	0	0	CorrectCommission	0.613051	0.739312	1	1
187.485733	0.792480	city	1	1	0.547051	0.547051	0	1	0	0	CorrectCommission	1.148221	0.722218	1	1
188.278107	0.792267	city	5	1	0.616161	0.616161	0	1	0	0	CorrectCommission	0.394266	0.711012	1	1
189.070267	0.792049	city	4	1	0.749239	0.749239	0	1	0	0	CorrectCommission	1.057542	0.702567	1	1
189.862411	0.792260	city	8	1	0.702157	0.702157	0	1	0	0	CorrectCommission	0.543905	0.694068	1	1
190.654709	0.792320	city	5	1	0.750993	0.750993	0	1	0	0	CorrectCommission	1.076682	0.683437	1	1
191.446976	0.792212	city	1	1	0.695358	0.695358	0	1	0	0	CorrectCommission	0.469737	0.669579	1	1
192.239258	0.792372	mountain	4	0	0.000000	0.743738	1	0	0	0	CorrectOmission	0.997528	0.652500	1	1
193.031525	0.792162	city	3	1	0.794228	0.794228	0	1	0	0	CorrectCommission	1.548351	0.633295	1	1
193.823792	0.792365	city	2	1	0.744926	0.744926	0	1	0	0	CorrectCommission	1.010497	0.613937	1	1
194.616058	0.792162	city	10	1	0.645774	0.645774	0	1	0	0	CorrectCommission	0.071204	0.596933	1	1
195.408264	0.792261	city	3	1	0.646849	0.646849	0	1	0	0	CorrectCommission	0.059471	0.584903	1	1
196.200531	0.792263	mountain	1	0	0.000000	0.655771	1	0	0	0	CorrectOmission	0.037866	0.580057	1	1
196.992813	0.792304	city	1	1	0.647299	0.647299	0	1	0	0	CorrectCommission	0.054560	0.583795	1	1
197.785080	0.792230	city	10	1	0.596192	0.596192	0	1	0	0	CorrectCommission	0.612116	0.596406	1	1
198.577332	0.792260	city	3	1	0.645786	0.645786	0	1	0	0	CorrectCommission	0.071070	0.616974	1	1
199.369629	0.792333	city	1	1	0.650902	0.650902	0	1	0	0	CorrectCommission	0.015263	0.643485	1	1
200.161896	0.792208	city	6	1	0.695378	0.695378	0	1	0	0	CorrectCommission	0.469950	0.673115	1	1
200.954132	0.792256	city	4	1	0.800885	0.800885	0	1	0	0	CorrectCommission	1.620977	0.702689	1	1
201.746445	0.792370	mountain	9	0	0.000000	0.788584	1	0	0	0	CorrectOmission	1.486779	0.729218	1	1
202.538818	0.792374	city	4	1	0.744844	0.744844	0	1	0	0	CorrectCommission	1.009604	0.750392	0	1
203.331131	0.792265	mountain	10	0	0.000000	0.756037	1	0	0	0	CorrectOmission	1.131705	0.764947	0	1
204.123337	0.792154	city	10	1	0.760141	0.760141	0	1	0	0	CorrectCommission	1.176484	0.772813	0	1
204.915497	0.792159	city	5	1	0.695139	0.695139	0	1	0	0	CorrectCommission	0.467341	0.775065	0	1
205.707718	0.792282	mountain	3	0	0.000000	0.726868	1	0	0	0	CorrectOmission	0.813488	0.773712	0	1
206.500015	0.792311	city	8	1	0.746654	0.746654	0	1	0	0	CorrectCommission	1.029346	0.771225	0	1
207.292282	0.792213	city	6	1	0.645823	0.645823	0	1	0	0	CorrectCommission	0.070665	0.770089	0	1
208.084518	0.792255	city	10	1	0.596485	0.596485	0	1	0	0	CorrectCommission	0.608919	0.772303	0	1
208.876770	0.792265	city	3	1	0.745275	0.745275	0	1	0	0	CorrectCommission	1.014296	0.778949	0	1
209.669037	0.792261	city	7	1	0.645823	0.645823	0	1	0	0	CorrectCommission	0.070666	0.789934	0	1
210.461349	0.792372	city	9	1	0.645752	0.645752	0	1	0	0	CorrectCommission	0.071436	0.803952	0	1
211.253616	0.792158	city	2	1	0.745182	0.745182	0	1	0	0	CorrectCommission	1.013287	0.818616	0	1
212.045853	0.792301	city	4	1	0.695250	0.695250	0	1	0	0	CorrectCommission	0.468551	0.830812	0	1
212.838150	0.792311	city	6	1	0.748562	0.748562	0	1	0	0	CorrectCommission	1.050155	0.837232	0	1
213.630447	0.792291	mountain	6	0	0.000000	0.819584	1	0	0	0	CorrectOmission	1.824972	0.834910	0	1
214.422684	0.792159	city	3	1	0.843678	0.843678	0	1	0	0	CorrectCommission	2.087823	0.821730	0	1
215.214890	0.792260	city	5	1	0.756204	0.756204	0	1	0	0	CorrectCommission	1.133531	0.796839	0	1
216.007156	0.792266	city	9	1	0.751578	0.751578	0	1	0	0	CorrectCommission	1.083060	0.760832	0	1
216.799530	0.792481	city	4	1	0.744789	0.744789	0	1	0	0	CorrectCommission	1.009004	0.715655	1	1
217.591782	0.792049	city	8	1	0.652247	0.652247	0	1	0	0	CorrectCommission	0.000588	0.664355	1	1
218.383942	0.792267	mountain	1	0	0.000000	0.666328	1	0	0	0	CorrectOmission	0.153034	0.610690	1	1
219.176315	0.792477	city	7	1	0.707275	0.707275	0	1	0	0	CorrectCommission	0.599737	0.558596	1	1
219.968689	0.792265	city	6	1	0.695326	0.695326	0	1	0	0	CorrectCommission	0.469385	0.511783	1	1
220.760849	0.792062	city	10	1	0.646063	0.646063	0	1	0	0	CorrectCommission	0.068044	0.473310	1	1
221.553009	0.792250	city	1	1	0.650451	0.650451	0	1	0	0	CorrectCommission	0.020181	0.445338	1	1
222.345261	0.792266	city	6	1	0.646292	0.646292	0	1	0	0	CorrectCommission	0.065550	0.429021	1	1
223.137527	0.792264	city	1	1	0.649688	0.649688	0	1	0	0	CorrectCommission	0.028505	0.424514	1	1
223.929810	0.792295	city	6	1	0.713687	0.713687	0	1	0	0	CorrectCommission	0.669689	0.431124	1	1
224.722076	0.792243	city	10	1	0.608747	0.608747	0	1	0	0	CorrectCommission	0.475148	0.447473	1	1
225.514435	0.792474	city	4	1	0.695242	0.695242	0	1	0	0	CorrectCommission	0.468465	0.471747	1	1
226.306702	0.792047	city	8	1	0.695128	0.695128	0	1	0	0	CorrectCommission	0.467220	0.501928	1	1
227.098862	0.792273	city	5	1	0.695238	0.695238	0	1	0	0	CorrectCommission	0.468429	0.536050	1	1
227.891129	0.792269	city	10	1	0.645756	0.645756	0	1	0	0	CorrectCommission	0.071394	0.572363	1	1
228.683395	0.792255	city	4	1	0.745209	0.745209	0	1	0	0	CorrectCommission	1.013578	0.609449	1	1
229.475662	0.792275	city	7	1	0.695255	0.695255	0	1	0	0	CorrectCommission	0.468612	0.646312	1	1
230.267929	0.792254	city	6	1	0.762609	0.762609	0	1	0	0	CorrectCommission	1.203405	0.682417	1	1
231.060181	0.792266	city	3	1	0.758448	0.758448	0	1	0	0	CorrectCommission	1.158016	0.717601	1	1
231.852493	0.792369	city	10	1	0.598758	0.598758	0	1	0	0	CorrectCommission	0.584115	0.751967	0	1
232.644760	0.792158	city	1	1	0.615341	0.615341	0	1	0	0	CorrectCommission	0.403207	0.785774	0	1
233.437027	0.792371	city	10	1	0.547296	0.547296	0	1	0	0	CorrectCommission	1.145547	0.819196	0	1
234.229294	0.792170	mountain	4	0	0.000000	0.676012	1	0	0	0	CorrectOmission	0.258683	0.852135	0	1
235.021622	0.792471	city	9	1	0.794314	0.794314	0	1	0	0	CorrectCommission	1.549291	0.884143	0	1
235.813873	0.792045	city	2	1	0.695023	0.695023	0	1	0	0	CorrectCommission	0.466081	0.914262	0	1
236.606049	0.792300	city	6	1	0.656994	0.656994	0	1	0	0	CorrectCommission	0.051198	0.941186	0	1
237.398422	0.792448	city	8	1	0.616199	0.616199	0	1	0	0	CorrectCommission	0.393846	0.963368	0	1
238.190674	0.792050	mountain	8	0	0.000000	0.789336	1	0	0	0	CorrectOmission	1.494987	0.979276	0	1
238.982834	0.792261	city	4	1	0.943009	0.943009	0	1	0	0	CorrectCommission	3.171470	0.987636	0	1
239.775101	0.792288	city	3	1	0.843820	0.843820	0	1	0	0	CorrectCommission	2.089377	0.987642	0	1
240.567368	0.792243	city	4	1	0.695331	0.695331	0	1	0	0	CorrectCommission	0.469434	0.979160	0	1
241.359619	0.792264	city	3	1	0.659263	0.659263	0	1	0	0	CorrectCommission	0.075958	0.962640	0	1
242.151886	0.792265	city	4	0	0.000000	0.721793	0	0	0	1	OmissionError	0.758126	0.939005	0	1
242.944260	0.792482	city	5	1	0.750767	0.750767	0	1	0	0	CorrectCommission	1.074211	0.909470	0	1
243.736572	0.792155	city	9	1	0.614029	0.614029	0	1	0	0	CorrectCommission	0.417516	0.875373	0	1
244.528793	0.792267	city	3	1	0.546861	0.546861	0	1	0	0	CorrectCommission	1.150284	0.838070	0	1
245.321106	0.792375	city	7	1	0.562736	0.562736	0	1	0	0	CorrectCommission	0.977101	0.798812	0	1
246.113312	0.792045	city	2	1	0.513290	0.513290	0	1	0	0	CorrectCommission	1.516528	0.758778	0	0
246.905579	0.792484	city	7	1	0.645884	0.645884	0	1	0	0	CorrectCommission	0.070005	0.719133	1	0
247.697845	0.792047	city	8	1	0.694987	0.694987	0	1	0	0	CorrectCommission	0.465682	0.681128	1	0
248.490005	0.792263	city	5	1	0.695308	0.695308	0	1	0	0	CorrectCommission	0.469191	0.646081	1	0
249.282410	0.792537	city	6	1	0.755823	0.755823	0	1	0	0	CorrectCommission	1.129370	0.615427	1	0
250.074692	0.792039	city	7	1	0.744481	0.744481	0	1	0	0	CorrectCommission	1.005638	0.590648	1	0
250.866821	0.792218	city	6	1	0.648118	0.648118	0	1	0	0	CorrectCommission	0.045629	0.573192	1	0
251.659058	0.792268	city	9	1	0.646227	0.646227	0	1	0	0	CorrectCommission	0.066261	0.564381	1	0
252.451355	0.792332	city	8	1	0.645966	0.645966	0	1	0	0	CorrectCommission	0.069108	0.565179	1	0
253.243729	0.792413	city	10	1	0.599663	0.599663	0	1	0	0	CorrectCommission	0.574251	0.576135	1	0
254.035965	0.792045	mountain	1	0	0.000000	0.630923	1	0	0	0	CorrectOmission	0.233212	0.597295	1	0
254.828171	0.792375	city	8	1	0.645764	0.645764	0	1	0	0	CorrectCommission	0.071313	0.628177	1	0
255.620438	0.792166	city	1	1	0.550199	0.550199	0	1	0	0	CorrectCommission	1.113874	0.667812	1	0
256.412689	0.792310	city	9	1	0.596242	0.596242	0	1	0	0	CorrectCommission	0.611568	0.714743	1	0
257.204956	0.792212	city	4	1	0.558748	0.558748	0	1	0	0	CorrectCommission	1.020606	0.767209	0	0
257.997223	0.792370	city	1	1	0.558374	0.558374	0	1	0	0	CorrectCommission	1.024689	0.823195	0	0
258.789490	0.792160	city	5	1	0.596485	0.596485	0	1	0	0	CorrectCommission	0.608913	0.880506	0	0
259.581726	0.792264	city	2	1	0.546851	0.546851	0	1	0	0	CorrectCommission	1.150402	0.936822	0	0
260.374023	0.792371	city	10	1	0.596739	0.596739	0	1	0	0	CorrectCommission	0.606151	0.989785	0	0
261.166290	0.792155	city	5	1	0.696761	0.696761	0	1	0	0	CorrectCommission	0.485042	1.037201	0	0
261.958527	0.792330	mountain	9	1	0.549313	0.549313	0	0	1	0	CommissionError	1.123539	1.077195	0	0
262.750916	0.792417	city	2	1	0.497252	0.497252	0	1	0	0	CorrectCommission	1.691497	1.108467	0	0
263.543152	0.792050	city	1	1	0.463355	0.463355	0	1	0	0	CorrectCommission	2.061295	1.130516	0	0
264.335297	0.792262	city	10	1	0.497202	0.497202	0	1	0	0	CorrectCommission	1.692044	1.143820	0	0
265.127686	0.792483	city	9	1	0.547157	0.547157	0	1	0	0	CorrectCommission	1.147061	1.149871	0	0
265.919922	0.792050	city	1	1	0.499716	0.499716	0	1	0	0	CorrectCommission	1.664612	1.151061	0	0
266.712189	0.792481	city	2	1	0.497192	0.497192	0	1	0	0	CorrectCommission	1.692147	1.150307	0	0
267.504456	0.792048	city	1	1	0.596812	0.596812	0	1	0	0	CorrectCommission	0.605350	1.150694	0	0
268.296631	0.792262	city	9	1	0.645759	0.645759	0	1	0	0	CorrectCommission	0.071365	1.155003	0	0
269.088898	0.792264	city	5	1	0.605234	0.605234	0	1	0	0	CorrectCommission	0.513471	1.165230	0	0
269.881165	0.792269	city	8	1	0.661507	0.661507	0	1	0	0	CorrectCommission	0.100443	1.182284	0	0
270.673401	0.792260	city	5	1	0.794293	0.794293	0	1	0	0	CorrectCommission	1.549058	1.205974	0	0
271.465668	0.792272	city	7	1	0.744770	0.744770	0	1	0	0	CorrectCommission	1.008788	1.235104	0	0
272.257965	0.792311	city	8	1	0.763564	0.763564	0	1	0	0	CorrectCommission	1.213827	1.267880	0	0
273.050232	0.792212	mountain	8	0	0.000000	0.855830	1	0	0	0	CorrectOmission	2.220401	1.302258	0	0
273.842590	0.792484	city	2	1	0.904947	0.904947	0	1	0	0	CorrectCommission	2.756238	1.336328	0	0
274.634857	0.792051	city	8	1	0.794294	0.794294	0	1	0	0	CorrectCommission	1.549067	1.368567	0	0
275.427124	0.792477	city	6	1	0.756279	0.756279	0	1	0	0	CorrectCommission	1.134349	1.397975	0	0
276.219391	0.792046	city	4	1	0.695317	0.695317	0	1	0	0	CorrectCommission	0.469291	1.423928	0	0
277.011627	0.792483	city	3	1	0.563157	0.563157	0	1	0	0	CorrectCommission	0.972506	1.445990	0	0
277.803894	0.792048	city	1	1	0.510616	0.510616	0	1	0	0	CorrectCommission	1.545700	1.463629	0	0
278.596069	0.792263	city	2	1	0.447691	0.447691	0	1	0	0	CorrectCommission	2.232179	1.476056	0	0
279.388428	0.792484	city	10	1	0.562262	0.562262	0	1	0	0	CorrectCommission	0.982271	1.482109	0	0
280.180725	0.792085	city	9	1	0.546522	0.546522	0	1	0	0	CorrectCommission	1.153984	1.480355	0	0
280.972870	0.792231	mountain	6	1	0.448127	0.448127	0	0	1	0	CommissionError	2.227422	1.469244	0	0
281.765228	0.792478	city	8	1	0.546725	0.546725	0	1	0	0	CorrectCommission	1.151769	1.447392	0	0
282.557495	0.792074	city	5	1	0.461199	0.461199	0	1	0	0	CorrectCommission	2.084812	1.413984	0	0
283.349670	0.792243	city	8	1	0.398121	0.398121	0	1	0	0	CorrectCommission	2.772956	1.368925	0	0
284.141907	0.792261	city	2	1	0.448040	0.448040	0	1	0	0	CorrectCommission	2.228371	1.313070	0	0
284.934235	0.792371	city	9	1	0.605975	0.605975	0	1	0	0	CorrectCommission	0.505388	1.248268	0	0
285.726532	0.792213	city	8	1	0.596233	0.596233	0	1	0	0	CorrectCommission	0.611666	1.177230	0	0
286.518738	0.792212	city	10	1	0.596381	0.596381	0	1	0	0	CorrectCommission	0.610053	1.103229	0	0
287.310974	0.792260	city	8	1	0.596272	0.596272	0	1	0	0	CorrectCommission	0.611239	1.029849	0	0
288.103302	0.792380	city	9	1	0.813284	0.813284	0	1	0	0	CorrectCommission	1.756237	0.960614	0	0
288.895630	0.792259	mountain	3	0	0.000000	0.771532	1	0	0	0	CorrectOmission	1.300747	0.898672	0	0
289.687866	0.792263	city	10	1	0.645654	0.645654	0	1	0	0	CorrectCommission	0.072515	0.846547	0	0
290.480072	0.792157	mountain	1	0	0.000000	0.610286	1	0	0	0	CorrectOmission	0.458355	0.805886	0	0
291.272308	0.792265	city	3	1	0.611715	0.611715	0	1	0	0	CorrectCommission	0.442770	0.777237	0	0
292.064575	0.792289	city	7	1	0.596225	0.596225	0	1	0	0	CorrectCommission	0.611759	0.760040	0	0
292.856842	0.792238	city	6	1	0.647193	0.647193	0	1	0	0	CorrectCommission	0.055723	0.752634	0	0
293.649078	0.792265	city	3	1	0.605474	0.605474	0	1	0	0	CorrectCommission	0.510848	0.752416	0	0
294.441345	0.792268	city	10	1	0.597834	0.597834	0	1	0	0	CorrectCommission	0.594201	0.756115	0	0
295.233734	0.792480	city	4	1	0.600872	0.600872	0	1	0	0	CorrectCommission	0.561059	0.760186	0	0
296.026093	0.792265	city	10	1	0.497174	0.497174	0	1	0	0	CorrectCommission	1.692348	0.761284	0	0
296.818298	0.792154	city	5	1	0.549099	0.549099	0	1	0	0	CorrectCommission	1.125877	0.756717	0	0
297.610535	0.792265	city	3	1	0.497415	0.497415	0	1	0	0	CorrectCommission	1.689717	0.744846	1	0
298.402740	0.792157	city	10	1	0.596123	0.596123	0	1	0	0	CorrectCommission	0.612868	0.725224	1	0
299.194946	0.792271	city	1	1	0.555749	0.555749	0	1	0	0	CorrectCommission	1.053330	0.698760	1	0
299.987213	0.792260	city	3	1	0.561370	0.561370	0	1	0	0	CorrectCommission	0.992006	0.667437	1	0
300.779572	0.792481	city	8	1	0.603206	0.603206	0	1	0	0	CorrectCommission	0.535596	0.634052	1	0
301.571869	0.792071	city	9	1	0.645547	0.645547	0	1	0	0	CorrectCommission	0.073674	0.601797	1	0
302.364014	0.792240	city	3	1	0.650095	0.650095	0	1	0	0	CorrectCommission	0.024060	0.573827	1	0
303.156281	0.792304	city	10	1	0.645759	0.645759	0	1	0	0	CorrectCommission	0.071369	0.552838	1	0
303.948547	0.792225	city	3	1	0.666119	0.666119	0	1	0	0	CorrectCommission	0.150749	0.540797	1	0
304.740845	0.792374	city	9	1	0.695411	0.695411	0	1	0	0	CorrectCommission	0.470307	0.538808	1	0
305.533234	0.792374	city	10	1	0.596145	0.596145	0	1	0	0	CorrectCommission	0.612623	0.547096	1	1
306.325531	0.792266	city	9	1	0.605280	0.605280	0	1	0	0	CorrectCommission	0.512974	0.565123	1	1
307.117798	0.792263	city	6	1	0.695090	0.695090	0	1	0	0	CorrectCommission	0.466813	0.591771	1	1
307.909973	0.792073	city	8	1	0.744586	0.744586	0	1	0	0	CorrectCommission	1.006788	0.625486	1	1
308.702148	0.792242	city	4	1	0.695392	0.695392	0	1	0	0	CorrectCommission	0.470110	0.664456	1	1
309.494385	0.792270	city	6	1	0.745070	0.745070	0	1	0	0	CorrectCommission	1.012062	0.706741	1	1
310.286774	0.792474	city	10	1	0.652864	0.652864	0	1	0	0	CorrectCommission	0.006147	0.750373	0	1
311.079010	0.792050	city	2	1	0.699733	0.699733	0	1	0	0	CorrectCommission	0.517461	0.793456	0	1
311.871307	0.792536	city	7	1	0.745136	0.745136	0	1	0	0	CorrectCommission	1.012788	0.834201	0	1
312.663574	0.791991	city	9	1	0.759487	0.759487	0	1	0	0	CorrectCommission	1.169347	0.871062	0	1
313.455719	0.792265	city	10	1	0.711094	0.711094	0	1	0	0	CorrectCommission	0.641407	0.902803	0	1
314.248016	0.792373	city	9	1	0.814665	0.814665	0	1	0	0	CorrectCommission	1.771308	0.928623	0	1
315.040283	0.792160	city	3	1	0.794208	0.794208	0	1	0	0	CorrectCommission	1.548134	0.948110	0	1
315.832550	0.792372	mountain	10	0	0.000000	0.772250	1	0	0	0	CorrectOmission	1.308581	0.961285	0	1
316.624817	0.792160	city	9	1	0.744709	0.744709	0	1	0	0	CorrectCommission	1.008123	0.968421	0	1
317.417023	0.792264	city	7	1	0.707503	0.707503	0	1	0	0	CorrectCommission	0.602234	0.969891	0	1
318.209351	0.792367	city	3	1	0.695287	0.695287	0	1	0	0	CorrectCommission	0.468964	0.965995	0	1
319.001617	0.792160	city	8	1	0.695307	0.695307	0	1	0	0	CorrectCommission	0.469173	0.956848	0	1
319.793823	0.792262	city	1	1	0.695367	0.695367	0	1	0	0	CorrectCommission	0.469831	0.942337	0	1
320.586090	0.792264	city	10	1	0.794482	0.794482	0	1	0	0	CorrectCommission	1.551127	0.922214	0	1
321.378479	0.792483	city	6	1	0.801547	0.801547	0	1	0	0	CorrectCommission	1.628195	0.896272	0	1
322.170776	0.792137	city	7	1	0.795970	0.795970	0	1	0	0	CorrectCommission	1.567352	0.864583	0	1
322.962921	0.792179	city	8	1	0.745474	0.745474	0	1	0	0	CorrectCommission	1.016475	0.827678	0	1
323.755249	0.792478	city	9	1	0.759797	0.759797	0	1	0	0	CorrectCommission	1.172733	0.786649	0	1
324.547516	0.792051	city	7	1	0.645768	0.645768	0	1	0	0	CorrectCommission	0.071271	0.743109	1	1
325.339722	0.792369	city	3	1	0.600325	0.600325	0	1	0	0	CorrectCommission	0.567021	0.699068	1	1
326.132050	0.792266	city	8	1	0.596029	0.596029	0	1	0	0	CorrectCommission	0.613888	0.656666	1	1
326.924377	0.792372	city	6	1	0.608103	0.608103	0	1	0	0	CorrectCommission	0.482171	0.617918	1	1
327.716705	0.792264	city	3	1	0.695020	0.695020	0	1	0	0	CorrectCommission	0.466043	0.584482	1	1
328.508850	0.792047	city	7	1	0.645867	0.645867	0	1	0	0	CorrectCommission	0.070182	0.557456	1	1
329.300995	0.792264	city	9	1	0.645866	0.645866	0	1	0	0	CorrectCommission	0.070201	0.537310	1	1
330.093262	0.792267	city	8	1	0.710666	0.710666	0	1	0	0	CorrectCommission	0.636737	0.523901	1	1
330.885559	0.792318	city	5	1	0.708850	0.708850	0	1	0	0	CorrectCommission	0.616924	0.516652	1	1
331.677917	0.792428	city	2	1	0.695687	0.695687	0	1	0	0	CorrectCommission	0.473320	0.514747	1	1
332.470184	0.792056	city	7	1	0.697780	0.697780	0	1	0	0	CorrectCommission	0.496156	0.517361	1	1
333.262329	0.792257	city	1	1	0.596298	0.596298	0	1	0	0	CorrectCommission	0.610956	0.523844	1	1
334.054596	0.792266	city	3	1	0.748199	0.748199	0	1	0	0	CorrectCommission	1.046201	0.533848	1	1
334.846863	0.792265	city	2	1	0.596372	0.596372	0	1	0	0	CorrectCommission	0.610151	0.547319	1	1
335.639191	0.792371	city	6	1	0.653046	0.653046	0	1	0	0	CorrectCommission	0.008129	0.564420	1	1
336.431488	0.792264	city	10	1	0.700081	0.700081	0	1	0	0	CorrectCommission	0.521258	0.585349	1	1
337.223724	0.792212	city	9	1	0.610747	0.610747	0	1	0	0	CorrectCommission	0.453331	0.610062	1	1
338.015930	0.792208	city	2	1	0.596660	0.596660	0	1	0	0	CorrectCommission	0.607004	0.638089	1	1
338.808167	0.792265	city	1	1	0.695286	0.695286	0	1	0	0	CorrectCommission	0.468944	0.668365	1	1
339.600494	0.792374	city	2	1	0.695323	0.695323	0	1	0	0	CorrectCommission	0.469349	0.699188	1	1
340.392761	0.792161	city	5	1	0.611416	0.611416	0	1	0	0	CorrectCommission	0.446024	0.728310	1	1
341.184967	0.792260	city	9	1	0.695354	0.695354	0	1	0	0	CorrectCommission	0.469686	0.753132	0	1
341.977234	0.792268	mountain	7	0	0.000000	0.753782	1	0	0	0	CorrectOmission	1.107108	0.771070	0	1
342.769501	0.792261	city	7	1	0.794653	0.794653	0	1	0	0	CorrectCommission	1.552992	0.779851	0	1
343.561798	0.792347	mountain	6	0	0.000000	0.825919	1	0	0	0	CorrectOmission	1.894085	0.777907	0	1
344.354187	0.792401	city	8	1	0.794190	0.794190	0	1	0	0	CorrectCommission	1.547936	0.764636	0	1
345.146393	0.792048	city	3	1	0.646076	0.646076	0	1	0	0	CorrectCommission	0.067910	0.740491	1	1
345.938568	0.792292	city	1	1	0.596510	0.596510	0	1	0	0	CorrectCommission	0.608640	0.707048	1	1
346.730865	0.792300	city	10	1	0.745205	0.745205	0	1	0	0	CorrectCommission	1.013533	0.666741	1	1
347.523224	0.792419	mountain	3	0	0.000000	0.720820	1	0	0	0	CorrectOmission	0.747513	0.622682	1	1
348.315582	0.792264	city	3	1	0.659045	0.659045	0	1	0	0	CorrectCommission	0.073578	0.578368	1	1
349.107727	0.792051	city	1	1	0.695566	0.695566	0	1	0	0	CorrectCommission	0.472004	0.537380	1	1
349.899872	0.792260	city	8	1	0.645849	0.645849	0	1	0	0	CorrectCommission	0.070378	0.503131	1	1
350.692139	0.792266	city	7	1	0.655593	0.655593	0	1	0	0	CorrectCommission	0.035917	0.478682	1	1
351.484528	0.792484	city	4	1	0.744913	0.744913	0	1	0	0	CorrectCommission	1.010357	0.466566	1	1
352.276825	0.792105	city	2	1	0.645918	0.645918	0	1	0	0	CorrectCommission	0.069626	0.468640	1	1
353.069092	0.792422	city	3	1	0.695212	0.695212	0	1	0	0	CorrectCommission	0.468136	0.486023	1	1
353.861420	0.792265	city	6	1	0.645641	0.645641	0	1	0	0	CorrectCommission	0.072653	0.518895	1	1
354.653595	0.792048	city	7	1	0.645535	0.645535	0	1	0	0	CorrectCommission	0.073805	0.566428	1	1
355.445801	0.792374	mountain	5	0	0.000000	0.662064	1	0	0	0	CorrectOmission	0.106519	0.626677	1	1
356.238068	0.792158	city	8	1	0.645649	0.645649	0	1	0	0	CorrectCommission	0.072561	0.696619	1	1
357.030365	0.792479	mountain	7	1	0.546711	0.546711	0	0	1	0	CommissionError	1.151923	0.772228	0	1
357.822632	0.792047	city	1	1	0.595990	0.595990	0	1	0	0	CorrectCommission	0.614315	0.848716	0	1
358.614838	0.792372	city	9	1	0.555811	0.555811	0	1	0	0	CorrectCommission	1.052648	0.920934	0	1
359.407104	0.792160	city	5	1	0.463467	0.463467	0	1	0	0	CorrectCommission	2.060072	0.983803	0	1
360.199341	0.792303	mountain	8	0	0.000000	0.643144	1	0	0	0	CorrectOmission	0.099890	1.032867	0	1
360.991608	0.792223	city	1	1	0.843773	0.843773	0	1	0	0	CorrectCommission	2.088859	1.064902	0	1
361.783844	0.792265	city	4	1	0.814283	0.814283	0	1	0	0	CorrectCommission	1.767137	1.078181	0	1
362.576111	0.792267	mountain	3	0	0.000000	0.865086	1	0	0	0	CorrectOmission	2.321371	1.072897	0	1
363.368378	0.792269	city	9	1	0.843790	0.843790	0	1	0	0	CorrectCommission	2.089047	1.051071	0	1
364.160645	0.792258	city	5	1	0.598004	0.598004	0	1	0	0	CorrectCommission	0.592347	1.016367	0	1
364.952942	0.792290	city	9	1	0.562979	0.562979	0	1	0	0	CorrectCommission	0.974445	0.973629	0	0
365.745209	0.792242	city	1	1	0.605451	0.605451	0	1	0	0	CorrectCommission	0.511103	0.928197	0	0
366.537445	0.792263	city	2	1	0.596259	0.596259	0	1	0	0	CorrectCommission	0.611382	0.885193	0	0
367.329773	0.792372	city	8	1	0.645853	0.645853	0	1	0	0	CorrectCommission	0.070342	0.848835	0	0
368.122040	0.792202	city	10	1	0.646081	0.646081	0	1	0	0	CorrectCommission	0.067853	0.821938	0	0
368.914368	0.792437	city	5	1	0.695297	0.695297	0	1	0	0	CorrectCommission	0.469068	0.805592	0	0
369.706635	0.792067	city	10	1	0.695126	0.695126	0	1	0	0	CorrectCommission	0.467202	0.799173	0	0
370.498840	0.792351	city	4	1	0.645760	0.645760	0	1	0	0	CorrectCommission	0.071356	0.800617	0	0
371.291138	0.792265	city	2	1	0.511734	0.511734	0	1	0	0	CorrectCommission	1.533509	0.806886	0	0
372.083405	0.792265	city	9	1	0.546763	0.546763	0	1	0	0	CorrectCommission	1.151358	0.814482	0	0
372.875610	0.792159	city	10	1	0.466519	0.466519	0	1	0	0	CorrectCommission	2.026775	0.820124	0	0
373.667816	0.792265	city	3	1	0.555852	0.555852	0	1	0	0	CorrectCommission	1.052206	0.821161	0	0
374.460083	0.792260	city	8	1	0.695277	0.695277	0	1	0	0	CorrectCommission	0.468853	0.815954	0	0
375.252350	0.792285	city	1	1	0.596241	0.596241	0	1	0	0	CorrectCommission	0.611583	0.803974	0	0
376.044617	0.792249	city	10	1	0.501721	0.501721	0	1	0	0	CorrectCommission	1.642743	0.785755	0	0
376.836884	0.792260	city	1	1	0.596198	0.596198	0	1	0	0	CorrectCommission	0.612045	0.762661	0	0
377.629150	0.792270	city	8	1	0.596678	0.596678	0	1	0	0	CorrectCommission	0.606817	0.736710	1	0
378.421417	0.792267	city	2	1	0.648960	0.648960	0	1	0	0	CorrectCommission	0.036440	0.710122	1	0
379.213806	0.792476	city	10	1	0.600923	0.600923	0	1	0	0	CorrectCommission	0.560505	0.685103	1	0
380.006104	0.792121	city	7	1	0.695086	0.695086	0	1	0	0	CorrectCommission	0.466768	0.663584	1	0
380.798340	0.792408	city	6	1	0.794245	0.794245	0	1	0	0	CorrectCommission	1.548535	0.647034	1	0
381.590576	0.792048	city	3	1	0.709008	0.709008	0	1	0	0	CorrectCommission	0.618647	0.636390	1	0
382.382751	0.792269	city	8	1	0.645722	0.645722	0	1	0	0	CorrectCommission	0.071770	0.632034	1	0
383.175049	0.792367	city	5	1	0.660126	0.660126	0	1	0	0	CorrectCommission	0.085370	0.633775	1	0
383.967438	0.792374	city	6	1	0.699896	0.699896	0	1	0	0	CorrectCommission	0.519246	0.640909	1	0
384.759644	0.792050	city	5	1	0.645534	0.645534	0	1	0	0	CorrectCommission	0.073820	0.652383	1	0
385.551819	0.792320	mountain	1	1	0.556101	0.556101	0	0	1	0	CommissionError	1.049481	0.666996	1	0
386.344086	0.792210	city	3	1	0.546706	0.546706	0	1	0	0	CorrectCommission	1.151982	0.683563	1	0
387.136322	0.792266	city	6	1	0.602898	0.602898	0	1	0	0	CorrectCommission	0.538960	0.701177	1	0
387.928589	0.792260	city	3	1	0.546915	0.546915	0	1	0	0	CorrectCommission	1.149702	0.719378	1	0
388.720856	0.792267	city	7	1	0.558676	0.558676	0	1	0	0	CorrectCommission	1.021396	0.738164	1	0
389.513123	0.792290	city	3	1	0.558390	0.558390	0	1	0	0	CorrectCommission	1.024512	0.758029	0	0
390.305389	0.792238	city	10	1	0.656949	0.656949	0	1	0	0	CorrectCommission	0.050712	0.779794	0	0
391.097748	0.792481	city	3	1	0.695267	0.695267	0	1	0	0	CorrectCommission	0.468743	0.804429	0	0
391.890015	0.792049	city	9	1	0.744611	0.744611	0	1	0	0	CorrectCommission	1.007062	0.832736	0	0
392.682190	0.792267	mountain	9	0	0.000000	0.745129	1	0	0	0	CorrectOmission	1.012709	0.865115	0	0
393.474548	0.792478	city	3	1	0.708439	0.708439	0	1	0	0	CorrectCommission	0.612440	0.901379	0	0
394.266937	0.792267	city	5	1	0.646161	0.646161	0	1	0	0	CorrectCommission	0.066984	0.940681	0	0
395.059143	0.792153	city	6	1	0.794195	0.794195	0	1	0	0	CorrectCommission	1.547991	0.981518	0	0
395.851288	0.792155	city	3	1	0.645763	0.645763	0	1	0	0	CorrectCommission	0.071323	1.021853	0	0
396.643616	0.792484	city	6	1	0.547048	0.547048	0	1	0	0	CorrectCommission	1.148246	1.059482	0	0
397.435883	0.792079	city	2	1	0.448137	0.448137	0	1	0	0	CorrectCommission	2.227317	1.092228	0	0
398.228058	0.792236	city	1	1	0.462336	0.462336	0	1	0	0	CorrectCommission	2.072415	1.118289	0	0
399.020294	0.792265	city	2	1	0.547146	0.547146	0	1	0	0	CorrectCommission	1.147184	1.136499	0	0
399.812561	0.792260	city	9	1	0.547140	0.547140	0	1	0	0	CorrectCommission	1.147240	1.146411	0	0
400.604889	0.792375	city	4	1	0.546737	0.546737	0	1	0	0	CorrectCommission	1.151642	1.148242	0	0
401.397156	0.792196	city	1	1	0.558087	0.558087	0	1	0	0	CorrectCommission	1.027817	1.142713	0	0
402.189392	0.792240	city	8	1	0.547206	0.547206	0	1	0	0	CorrectCommission	1.146528	1.130846	0	0
402.981628	0.792249	city	1	1	0.546737	0.546737	0	1	0	0	CorrectCommission	1.151644	1.113679	0	0
403.773895	0.792289	city	7	1	0.546743	0.546743	0	1	0	0	CorrectCommission	1.151575	1.092060	0	0
404.566223	0.792350	city	2	1	0.596188	0.596188	0	1	0	0	CorrectCommission	0.612159	1.066531	0	0
405.358459	0.792159	city	8	1	0.546828	0.546828	0	1	0	0	CorrectCommission	1.150647	1.037278	0	0
406.150696	0.792266	city	2	1	0.546810	0.546810	0	1	0	0	CorrectCommission	1.150849	1.004239	0	0
406.942932	0.792266	city	3	1	0.556415	0.556415	0	1	0	0	CorrectCommission	1.046059	0.967297	0	0
407.735321	0.792478	city	7	1	0.596243	0.596243	0	1	0	0	CorrectCommission	0.611553	0.926487	0	0
408.527588	0.792046	city	9	1	0.515006	0.515006	0	1	0	0	CorrectCommission	1.497813	0.882249	0	0
409.319855	0.792484	city	10	1	0.502710	0.502710	0	1	0	0	CorrectCommission	1.631956	0.835531	0	0
410.112122	0.792051	city	3	1	0.547092	0.547092	0	1	0	0	CorrectCommission	1.147770	0.787892	0	0
410.904266	0.792263	city	6	1	0.645751	0.645751	0	1	0	0	CorrectCommission	0.071452	0.741434	1	0
411.696533	0.792266	city	4	1	0.596233	0.596233	0	1	0	0	CorrectCommission	0.611663	0.698645	1	0
412.488831	0.792304	city	1	1	0.646613	0.646613	0	1	0	0	CorrectCommission	0.062050	0.662008	1	0
413.281097	0.792254	city	7	1	0.598273	0.598273	0	1	0	0	CorrectCommission	0.589406	0.633834	1	0
414.073334	0.792241	city	2	1	0.609730	0.609730	0	1	0	0	CorrectCommission	0.464419	0.615875	1	0
414.865692	0.792475	city	8	1	0.653186	0.653186	0	1	0	0	CorrectCommission	0.009656	0.609165	1	0
415.657990	0.792070	city	1	1	0.695053	0.695053	0	1	0	0	CorrectCommission	0.466407	0.613912	1	0
416.450134	0.792247	city	2	1	0.649372	0.649372	0	1	0	0	CorrectCommission	0.031945	0.629476	1	0
417.242401	0.792259	city	6	1	0.596221	0.596221	0	1	0	0	CorrectCommission	0.611792	0.654485	1	0
418.034760	0.792481	city	2	1	0.561166	0.561166	0	1	0	0	CorrectCommission	0.994231	0.686958	1	0
418.827026	0.792051	city	9	1	0.560209	0.560209	0	1	0	0	CorrectCommission	1.004674	0.724513	1	0
419.619293	0.792480	city	3	1	0.549009	0.549009	0	1	0	0	CorrectCommission	1.126858	0.764540	0	0
420.411560	0.792049	city	6	1	0.645549	0.645549	0	1	0	0	CorrectCommission	0.073658	0.804357	0	0
421.203827	0.792480	city	10	1	0.558660	0.558660	0	1	0	0	CorrectCommission	1.021571	0.841339	0	0
421.996094	0.792048	mountain	5	1	0.497097	0.497097	0	0	1	0	CommissionError	1.693188	0.872992	0	0
422.788361	0.792480	city	7	1	0.655684	0.655684	0	1	0	0	CorrectCommission	0.036913	0.897043	0	0
423.580719	0.792265	city	3	1	0.546615	0.546615	0	1	0	0	CorrectCommission	1.152971	0.911611	0	0
424.372894	0.792098	city	1	1	0.546897	0.546897	0	1	0	0	CorrectCommission	1.149896	0.915270	0	1
425.165100	0.792323	city	3	1	0.553687	0.553687	0	1	0	0	CorrectCommission	1.075819	0.907302	0	1
425.957367	0.792167	mountain	5	1	0.548973	0.548973	0	0	1	0	CommissionError	1.127247	0.887811	0	1
426.749664	0.792471	mountain	8	1	0.447650	0.447650	0	0	1	0	CommissionError	2.232625	0.857834	0	1
427.541962	0.792123	city	8	1	0.745041	0.745041	0	1	0	0	CorrectCommission	1.011750	0.819316	0	1
428.334137	0.792188	mountain	10	0	0.000000	0.736743	1	0	0	0	CorrectOmission	0.921221	0.775047	0	1
429.126373	0.792331	city	1	1	0.645796	0.645796	0	1	0	0	CorrectCommission	0.070965	0.728322	1	1
429.918640	0.792198	city	10	1	0.695239	0.695239	0	1	0	0	CorrectCommission	0.468439	0.682620	1	1
430.710876	0.792266	city	5	1	0.607831	0.607831	0	1	0	0	CorrectCommission	0.485135	0.641143	1	1
431.503143	0.792264	city	9	1	0.607648	0.607648	0	1	0	0	CorrectCommission	0.487137	0.606482	1	1
432.295532	0.792483	city	10	1	0.645722	0.645722	0	1	0	0	CorrectCommission	0.071766	0.580341	1	1
433.087799	0.792049	city	1	1	0.645576	0.645576	0	1	0	0	CorrectCommission	0.073360	0.563394	1	1
433.879944	0.792265	city	2	1	0.647237	0.647237	0	1	0	0	CorrectCommission	0.055236	0.555352	1	1
434.672333	0.792481	city	5	1	0.645977	0.645977	0	1	0	0	CorrectCommission	0.068988	0.555171	1	1
435.464691	0.792265	city	9	1	0.709889	0.709889	0	1	0	0	CorrectCommission	0.628257	0.561412	1	1
436.256836	0.792044	city	3	1	0.744574	0.744574	0	1	0	0	CorrectCommission	1.006648	0.572558	1	1
437.049011	0.792266	city	6	1	0.843844	0.843844	0	1	0	0	CorrectCommission	2.089638	0.587393	1	1
437.841309	0.792373	city	7	1	0.763220	0.763220	0	1	0	0	CorrectCommission	1.210074	0.605138	1	1
438.633698	0.792374	city	5	1	0.645651	0.645651	0	1	0	0	CorrectCommission	0.072544	0.625520	1	1
439.425934	0.792107	city	7	1	0.645991	0.645991	0	1	0	0	CorrectCommission	0.068838	0.648548	1	1
440.218079	0.792210	city	3	1	0.646151	0.646151	0	1	0	0	CorrectCommission	0.067086	0.674286	1	1
441.010345	0.792297	city	9	1	0.657874	0.657874	0	1	0	0	CorrectCommission	0.060803	0.702527	1	1
441.802643	0.792312	city	3	1	0.596525	0.596525	0	1	0	0	CorrectCommission	0.608477	0.732573	1	1
442.594910	0.792180	city	4	1	0.601269	0.601269	0	1	0	0	CorrectCommission	0.556730	0.763162	0	1
443.387115	0.792266	city	8	1	0.596261	0.596261	0	1	0	0	CorrectCommission	0.611359	0.792561	0	1
444.179413	0.792330	city	1	1	0.497223	0.497223	0	1	0	0	CorrectCommission	1.691808	0.818762	0	1
444.971710	0.792236	city	5	1	0.498582	0.498582	0	1	0	0	CorrectCommission	1.676987	0.839786	0	1
445.763947	0.792231	city	8	1	0.546654	0.546654	0	1	0	0	CorrectCommission	1.152550	0.854015	0	1
446.556213	0.792330	city	1	1	0.548125	0.548125	0	1	0	0	CorrectCommission	1.136500	0.860409	0	1
447.348480	0.792196	city	6	1	0.747159	0.747159	0	1	0	0	CorrectCommission	1.034856	0.858579	0	1
448.140808	0.792482	city	8	1	0.605582	0.605582	0	1	0	0	CorrectCommission	0.509670	0.848802	0	1
448.933136	0.792155	city	7	1	0.695049	0.695049	0	1	0	0	CorrectCommission	0.466367	0.831906	0	1
449.725311	0.792183	city	1	1	0.598818	0.598818	0	1	0	0	CorrectCommission	0.583469	0.809099	0	1
450.517639	0.792454	city	8	1	0.794257	0.794257	0	1	0	0	CorrectCommission	1.548667	0.781836	0	1
451.309875	0.792077	city	1	1	0.645594	0.645594	0	1	0	0	CorrectCommission	0.073165	0.751651	0	1
452.102051	0.792263	city	7	1	0.794474	0.794474	0	1	0	0	CorrectCommission	1.551036	0.720165	1	1
452.894379	0.792346	city	2	1	0.695276	0.695276	0	1	0	0	CorrectCommission	0.468839	0.688889	1	1
453.686615	0.792156	city	7	1	0.744662	0.744662	0	1	0	0	CorrectCommission	1.007611	0.659337	1	1
454.478851	0.792312	city	6	1	0.645999	0.645999	0	1	0	0	CorrectCommission	0.068751	0.632913	1	1
455.271118	0.792216	city	10	1	0.697191	0.697191	0	1	0	0	CorrectCommission	0.489726	0.610966	1	1
456.063385	0.792335	city	4	1	0.707546	0.707546	0	1	0	0	CorrectCommission	0.602701	0.594715	1	1
456.855774	0.792413	city	6	1	0.645693	0.645693	0	1	0	0	CorrectCommission	0.072083	0.585225	1	1
457.647980	0.792047	city	10	1	0.596166	0.596166	0	1	0	0	CorrectCommission	0.612400	0.583351	1	1
458.440155	0.792289	city	3	1	0.695445	0.695445	0	1	0	0	CorrectCommission	0.470683	0.589608	1	1
459.232422	0.792241	city	7	1	0.744783	0.744783	0	1	0	0	CorrectCommission	1.008936	0.604176	1	1
460.024719	0.792344	city	3	1	0.647634	0.647634	0	1	0	0	CorrectCommission	0.050914	0.626780	1	1
460.816986	0.792190	city	10	1	0.599155	0.599155	0	1	0	0	CorrectCommission	0.579785	0.656715	1	1
461.609222	0.792268	city	7	1	0.695343	0.695343	0	1	0	0	CorrectCommission	0.469573	0.692720	1	1
462.401489	0.792265	city	10	1	0.597908	0.597908	0	1	0	0	CorrectCommission	0.593388	0.733053	1	1
463.193756	0.792271	city	7	1	0.745486	0.745486	0	1	0	0	CorrectCommission	1.016603	0.775550	0	1
463.986023	0.792249	city	10	1	0.598255	0.598255	0	1	0	0	CorrectCommission	0.589613	0.817758	0	1
464.778320	0.792376	city	4	1	0.646511	0.646511	0	1	0	0	CorrectCommission	0.063160	0.857151	0	1
465.570587	0.792167	city	10	1	0.546607	0.546607	0	1	0	0	CorrectCommission	1.153054	0.891364	0	1
466.362793	0.792256	city	5	1	0.794303	0.794303	0	1	0	0	CorrectCommission	1.549170	0.918489	0	1
467.155060	0.792263	city	6	1	0.905348	0.905348	0	1	0	0	CorrectCommission	2.760616	0.937276	0	1
467.947388	0.792371	city	1	1	0.763421	0.763421	0	1	0	0	CorrectCommission	1.212268	0.947234	0	1
468.739655	0.792157	mountain	10	0	0.000000	0.712531	1	0	0	0	CorrectOmission	0.657086	0.948837	0	1
469.531921	0.792371	city	2	1	0.695393	0.695393	0	1	0	0	CorrectCommission	0.470114	0.943332	0	1
470.324188	0.792213	city	1	1	0.654720	0.654720	0	1	0	0	CorrectCommission	0.026398	0.932661	0	1
471.116425	0.792209	city	2	1	0.711429	0.711429	0	1	0	0	CorrectCommission	0.645055	0.919232	0	1
471.908661	0.792264	mountain	3	0	0.000000	0.820009	1	0	0	0	CorrectOmission	1.829604	0.905695	0	1
472.700928	0.792264	city	1	1	0.843789	0.843789	0	1	0	0	CorrectCommission	2.089032	0.894671	0	1
473.493164	0.792265	city	8	1	0.646097	0.646097	0	1	0	0	CorrectCommission	0.067676	0.888514	0	1
474.285431	0.792269	city	3	1	0.596243	0.596243	0	1	0	0	CorrectCommission	0.611561	0.889080	0	1
475.077728	0.792309	city	7	1	0.657017	0.657017	0	1	0	0	CorrectCommission	0.051453	0.897347	0	1
475.869995	0.792218	city	8	1	0.558431	0.558431	0	1	0	0	CorrectCommission	1.024070	0.913243	0	1
476.662262	0.792323	city	10	1	0.596211	0.596211	0	1	0	0	CorrectCommission	0.611908	0.935339	0	1
477.454529	0.792218	city	7	1	0.596257	0.596257	0	1	0	0	CorrectCommission	0.611410	0.960859	0	1
478.246887	0.792472	city	10	1	0.596253	0.596253	0	1	0	0	CorrectCommission	0.611449	0.985758	0	1
479.039246	0.792263	city	2	1	0.546502	0.546502	0	1	0	0	CorrectCommission	1.154201	1.004931	0	1
479.831421	0.792050	city	5	1	0.546590	0.546590	0	1	0	0	CorrectCommission	1.153242	1.012657	0	1
480.623566	0.792264	city	1	1	0.608216	0.608216	0	1	0	0	CorrectCommission	0.480934	1.003178	0	1
481.415833	0.792268	city	7	1	0.992266	0.992266	0	1	0	0	CorrectCommission	3.708842	0.971334	0	1
482.208099	0.792259	city	9	1	0.859949	0.859949	0	1	0	0	CorrectCommission	2.265328	0.913092	0	1
483.000366	0.792288	city	4	1	0.654700	0.654700	0	1	0	0	CorrectCommission	0.026181	0.826209	0	1
483.792725	0.792461	city	10	1	0.596242	0.596242	0	1	0	0	CorrectCommission	0.611573	0.710578	1	1
484.585114	0.792263	mountain	1	1	0.501643	0.501643	0	0	1	0	CommissionError	1.643596	0.568285	1	1
485.377289	0.792104	mountain	9	0	0.000000	0.500942	1	0	0	0	CorrectOmission	1.651243	0.403665	1	1
486.169495	0.792289	city	8	1	0.561130	0.561130	0	1	0	0	CorrectCommission	0.994618	0.222958	1	1
486.961823	0.792404	city	6	1	0.649200	0.649200	0	1	0	0	CorrectCommission	0.033825	0.033825	1	1
