onset	duration	trial_type	image_type	Press	ReactionTime	ReactionTime_Interpolated	CorrectOmission	CorrectCommission	CommissionError	OmissionError	response_type	nonsmoothVarianceTimeCourse	VarianceTimeCourse	In_the_Zone	Reward_trial
8.433825	0.792157	city	8	1	0.547152	0.547152	0	1	0	0	CorrectCommission	0.354191	0.354191	1	0
9.226090	0.792375	city	4	1	0.399078	0.399078	0	1	0	0	CorrectCommission	1.796584	0.577991	1	0
10.018356	0.792157	city	9	1	0.398081	0.398081	0	1	0	0	CorrectCommission	1.806292	0.793786	0	0
10.810568	0.792267	city	7	1	0.459179	0.459179	0	1	0	0	CorrectCommission	1.211131	0.994430	0	0
11.602831	0.792259	city	2	1	0.363518	0.363518	0	1	0	0	CorrectCommission	2.142974	1.174320	0	0
12.395095	0.792269	city	1	1	0.315714	0.315714	0	1	0	0	CorrectCommission	2.608628	1.329836	0	0
13.187360	0.792260	city	6	1	0.398471	0.398471	0	1	0	0	CorrectCommission	1.802489	1.459527	0	0
13.979625	0.792271	mountain	3	1	0.403766	0.403766	0	0	1	0	CommissionError	1.750912	1.563989	0	0
14.771946	0.792370	mountain	4	1	0.398217	0.398217	0	0	1	0	CommissionError	1.804971	1.645422	0	0
15.564225	0.792189	city	4	1	0.398053	0.398053	0	1	0	0	CorrectCommission	1.806565	1.707089	0	0
16.356438	0.792233	city	6	1	0.403461	0.403461	0	1	0	0	CorrectCommission	1.753888	1.752684	0	0
17.148685	0.792264	city	7	1	0.447892	0.447892	0	1	0	0	CorrectCommission	1.321084	1.785718	0	0
17.940958	0.792279	city	1	1	0.398679	0.398679	0	1	0	0	CorrectCommission	1.800463	1.809049	0	0
18.733274	0.792356	city	6	1	0.398288	0.398288	0	1	0	0	CorrectCommission	1.804277	1.824528	0	0
19.525530	0.792156	city	10	1	0.398124	0.398124	0	1	0	0	CorrectCommission	1.805875	1.832907	0	0
20.317753	0.792290	city	4	1	0.398159	0.398159	0	1	0	0	CorrectCommission	1.805531	1.833867	0	0
21.110018	0.792241	city	1	1	0.353953	0.353953	0	1	0	0	CorrectCommission	2.236145	1.826266	0	0
21.902271	0.792266	city	5	1	0.348784	0.348784	0	1	0	0	CorrectCommission	2.286492	1.808394	0	0
22.694538	0.792267	city	3	1	0.398329	0.398329	0	1	0	0	CorrectCommission	1.803876	1.778387	0	0
23.486813	0.792283	city	5	1	0.398155	0.398155	0	1	0	0	CorrectCommission	1.805566	1.734600	0	0
24.279093	0.792279	city	8	1	0.367286	0.367286	0	1	0	0	CorrectCommission	2.106262	1.675967	0	0
25.071348	0.792232	city	5	1	0.398139	0.398139	0	1	0	0	CorrectCommission	1.805731	1.602295	0	0
25.863605	0.792281	mountain	5	1	0.398145	0.398145	0	0	1	0	CommissionError	1.805672	1.514464	0	0
26.655870	0.792250	city	4	1	0.398203	0.398203	0	1	0	0	CorrectCommission	1.805101	1.414512	0	0
27.448126	0.792260	mountain	1	1	0.398325	0.398325	0	0	1	0	CommissionError	1.803919	1.305601	0	0
28.240387	0.792265	city	2	1	0.413027	0.413027	0	1	0	0	CorrectCommission	1.660700	1.191862	0	0
29.032763	0.792483	city	5	1	0.447704	0.447704	0	1	0	0	CorrectCommission	1.322915	1.078002	0	0
29.825026	0.792045	city	6	1	0.605383	0.605383	0	1	0	0	CorrectCommission	0.213046	0.968930	0	0
30.617235	0.792375	mountain	9	1	0.596294	0.596294	0	0	1	0	CommissionError	0.124507	0.869312	0	0
31.409555	0.792265	city	2	1	0.596149	0.596149	0	1	0	0	CorrectCommission	0.123092	0.783074	0	0
32.201767	0.792156	city	7	1	0.612264	0.612264	0	1	0	0	CorrectCommission	0.280071	0.713106	0	0
32.994087	0.792484	city	9	1	0.596361	0.596361	0	1	0	0	CorrectCommission	0.125161	0.661067	1	0
33.786350	0.792048	city	5	1	0.596269	0.596269	0	1	0	0	CorrectCommission	0.124263	0.627368	1	0
34.578560	0.792370	city	3	1	0.547711	0.547711	0	1	0	0	CorrectCommission	0.348738	0.611324	1	0
35.370823	0.792155	city	10	1	0.546826	0.546826	0	1	0	0	CorrectCommission	0.357366	0.611398	1	0
36.163090	0.792377	city	5	1	0.794800	0.794800	0	1	0	0	CorrectCommission	2.058162	0.625511	1	0
36.955463	0.792371	city	3	1	0.603233	0.603233	0	1	0	0	CorrectCommission	0.192095	0.651278	1	0
37.747673	0.792048	city	6	1	0.604708	0.604708	0	1	0	0	CorrectCommission	0.206468	0.686324	0	0
38.539829	0.792264	city	10	1	0.516612	0.516612	0	1	0	0	CorrectCommission	0.651678	0.728294	0	0
39.332203	0.792482	city	7	1	0.507214	0.507214	0	1	0	0	CorrectCommission	0.743221	0.774911	0	0
40.124577	0.792265	city	4	1	0.497070	0.497070	0	1	0	0	CorrectCommission	0.842035	0.823984	0	0
40.916733	0.792051	city	9	1	0.546515	0.546515	0	1	0	0	CorrectCommission	0.360393	0.873349	0	0
41.708893	0.792264	city	1	1	0.497360	0.497360	0	1	0	0	CorrectCommission	0.839213	0.920870	0	0
42.501263	0.792479	city	6	1	0.497518	0.497518	0	1	0	0	CorrectCommission	0.837675	0.964439	0	0
43.293526	0.792050	city	1	1	0.348388	0.348388	0	1	0	0	CorrectCommission	2.290356	1.002092	0	0
44.085716	0.792326	city	5	1	0.497214	0.497214	0	1	0	0	CorrectCommission	0.840638	1.032056	0	0
44.877995	0.792234	city	1	1	0.447662	0.447662	0	1	0	0	CorrectCommission	1.323324	1.052953	0	0
45.670227	0.792230	city	2	1	0.417173	0.417173	0	1	0	0	CorrectCommission	1.620311	1.063788	0	0
46.462498	0.792308	city	4	1	0.504810	0.504810	0	1	0	0	CorrectCommission	0.766639	1.064046	0	0
47.254765	0.792227	mountain	6	1	0.454638	0.454638	0	0	1	0	CommissionError	1.255370	1.053737	0	0
48.047031	0.792307	mountain	3	1	0.454692	0.454692	0	0	1	0	CommissionError	1.254841	1.033316	0	0
48.839294	0.792221	city	4	1	0.497335	0.497335	0	1	0	0	CorrectCommission	0.839452	1.003686	0	0
49.631535	0.792260	city	8	1	0.498086	0.498086	0	1	0	0	CorrectCommission	0.832137	0.966145	0	0
50.423908	0.792484	city	9	1	0.447836	0.447836	0	1	0	0	CorrectCommission	1.321624	0.922324	0	0
51.216171	0.792046	city	8	1	0.449442	0.449442	0	1	0	0	CorrectCommission	1.305983	0.874106	0	0
52.008331	0.792268	city	3	1	0.497266	0.497266	0	1	0	0	CorrectCommission	0.840128	0.823559	0	0
52.800594	0.792261	city	6	1	0.502328	0.502328	0	1	0	0	CorrectCommission	0.790818	0.772816	0	0
53.592861	0.792269	city	8	1	0.508746	0.508746	0	1	0	0	CorrectCommission	0.728297	0.723878	0	0
54.385124	0.792263	city	10	1	0.546985	0.546985	0	1	0	0	CorrectCommission	0.355812	0.678517	0	0
55.177391	0.792265	city	7	1	0.615849	0.615849	0	1	0	0	CorrectCommission	0.314988	0.638071	1	0
55.969761	0.792480	city	5	1	0.596216	0.596216	0	1	0	0	CorrectCommission	0.123751	0.603451	1	0
56.762028	0.792050	city	3	1	0.550294	0.550294	0	1	0	0	CorrectCommission	0.323576	0.575021	1	0
57.554184	0.792266	city	1	1	0.562917	0.562917	0	1	0	0	CorrectCommission	0.200621	0.552765	1	0
58.346447	0.792260	city	2	1	0.497273	0.497273	0	1	0	0	CorrectCommission	0.840055	0.536478	1	0
59.138714	0.792267	city	6	1	0.506760	0.506760	0	1	0	0	CorrectCommission	0.747645	0.525949	1	0
59.931030	0.792372	mountain	8	1	0.500414	0.500414	0	0	1	0	CommissionError	0.809465	0.521203	1	0
60.723324	0.792213	city	7	1	0.647153	0.647153	0	1	0	0	CorrectCommission	0.619923	0.522603	1	0
61.515537	0.792211	city	1	1	0.645821	0.645821	0	1	0	0	CorrectCommission	0.606950	0.530927	1	0
62.307774	0.792266	city	7	1	0.605029	0.605029	0	1	0	0	CorrectCommission	0.209599	0.547192	1	0
63.100090	0.792368	city	8	1	0.547176	0.547176	0	1	0	0	CorrectCommission	0.353949	0.572429	1	0
63.892464	0.792376	city	10	1	0.546769	0.546769	0	1	0	0	CorrectCommission	0.357922	0.607334	1	0
64.684677	0.792045	city	1	1	0.546666	0.546666	0	1	0	0	CorrectCommission	0.358926	0.651917	1	0
65.476883	0.792375	city	8	1	0.546774	0.546774	0	1	0	0	CorrectCommission	0.357872	0.705231	0	0
66.269150	0.792155	city	3	1	0.596585	0.596585	0	1	0	0	CorrectCommission	0.127344	0.765197	0	0
67.061356	0.792266	city	8	1	0.546905	0.546905	0	1	0	0	CorrectCommission	0.356594	0.828654	0	0
67.853737	0.792483	mountain	8	0	0.000000	0.497155	1	0	0	0	CorrectOmission	0.841208	0.891609	0	1
68.646011	0.792066	city	8	1	0.447522	0.447522	0	1	0	0	CorrectCommission	1.324686	0.949691	0	1
69.438271	0.792463	mountain	6	1	0.398192	0.398192	0	0	1	0	CommissionError	1.805213	0.998727	0	1
70.230637	0.792264	mountain	7	1	0.602035	0.602035	0	0	1	0	CommissionError	0.180426	1.035369	0	1
71.022903	0.792265	city	6	1	1.041735	1.041735	0	1	0	0	CorrectCommission	4.463563	1.057666	0	1
71.815109	0.792155	city	1	1	0.667428	0.667428	0	1	0	0	CorrectCommission	0.817422	1.065269	0	1
72.607323	0.792265	city	9	1	0.497632	0.497632	0	1	0	0	CorrectCommission	0.836566	1.059800	0	1
73.399529	0.792155	city	3	1	0.447929	0.447929	0	1	0	0	CorrectCommission	1.320724	1.044453	0	1
74.191742	0.792269	city	10	1	0.454025	0.454025	0	1	0	0	CorrectCommission	1.261336	1.023638	0	1
74.984009	0.792264	city	7	1	0.546733	0.546733	0	1	0	0	CorrectCommission	0.358270	1.002383	0	1
75.776329	0.792370	city	6	1	0.546933	0.546933	0	1	0	0	CorrectCommission	0.356320	0.985609	0	1
76.568588	0.792159	city	10	1	0.497119	0.497119	0	1	0	0	CorrectCommission	0.841560	0.977435	0	1
77.360855	0.792371	city	6	1	0.546800	0.546800	0	1	0	0	CorrectCommission	0.357618	0.980608	0	1
78.153229	0.792373	city	10	1	0.508800	0.508800	0	1	0	0	CorrectCommission	0.727775	0.996172	0	1
78.945442	0.792047	city	9	1	0.612835	0.612835	0	1	0	0	CorrectCommission	0.285635	1.023280	0	1
79.737595	0.792266	mountain	4	0	0.000000	0.522974	1	0	0	0	CorrectOmission	0.589703	1.059359	0	1
80.529861	0.792266	city	7	1	0.411932	0.411932	0	1	0	0	CorrectCommission	1.671370	1.100403	0	1
81.322151	0.792319	mountain	9	0	0.000000	0.452423	1	0	0	0	CorrectOmission	1.276947	1.141498	0	1
82.114418	0.792208	city	6	1	0.497181	0.497181	0	1	0	0	CorrectCommission	0.840958	1.177472	0	1
82.906654	0.792268	city	7	1	0.398940	0.398940	0	1	0	0	CorrectCommission	1.797925	1.203506	0	1
83.698921	0.792264	city	10	1	0.357503	0.357503	0	1	0	0	CorrectCommission	2.201566	1.215695	0	1
84.491188	0.792263	city	8	1	0.398618	0.398618	0	1	0	0	CorrectCommission	1.801056	1.211491	0	1
85.283501	0.792371	city	1	1	0.398152	0.398152	0	1	0	0	CorrectCommission	1.805596	1.189968	0	1
86.075768	0.792159	city	8	1	0.401580	0.401580	0	1	0	0	CorrectCommission	1.772212	1.151808	0	1
86.867981	0.792263	city	2	1	0.461896	0.461896	0	1	0	0	CorrectCommission	1.184666	1.099109	0	1
87.660240	0.792267	city	8	1	0.507509	0.507509	0	1	0	0	CorrectCommission	0.740355	1.035128	0	1
88.452530	0.792315	city	6	1	0.546759	0.546759	0	1	0	0	CorrectCommission	0.358013	0.963714	0	1
89.244797	0.792212	city	5	1	0.497169	0.497169	0	1	0	0	CorrectCommission	0.841069	0.888990	0	1
90.037033	0.792265	city	10	1	0.456895	0.456895	0	1	0	0	CorrectCommission	1.233380	0.814856	0	1
90.829308	0.792273	city	1	1	0.546729	0.546729	0	1	0	0	CorrectCommission	0.358310	0.744678	0	1
91.621605	0.792331	city	5	1	0.546694	0.546694	0	1	0	0	CorrectCommission	0.358653	0.681089	0	1
92.413925	0.792300	city	7	1	0.607539	0.607539	0	1	0	0	CorrectCommission	0.234042	0.625845	1	1
93.206161	0.792175	city	6	1	0.655347	0.655347	0	1	0	0	CorrectCommission	0.699742	0.579826	1	1
93.998421	0.792354	city	2	1	0.602023	0.602023	0	1	0	0	CorrectCommission	0.180315	0.543069	1	1
94.790787	0.792373	city	7	1	0.648806	0.648806	0	1	0	0	CorrectCommission	0.636023	0.514948	1	1
95.583107	0.792264	city	8	1	0.607892	0.607892	0	1	0	0	CorrectCommission	0.237478	0.494278	1	1
96.375267	0.792054	city	5	1	0.646209	0.646209	0	1	0	0	CorrectCommission	0.610728	0.479535	1	1
97.167419	0.792261	city	4	1	0.615132	0.615132	0	1	0	0	CorrectCommission	0.308013	0.469042	1	1
97.959709	0.792313	city	3	1	0.596277	0.596277	0	1	0	0	CorrectCommission	0.124346	0.461197	1	1
98.751976	0.792220	city	6	1	0.646687	0.646687	0	1	0	0	CorrectCommission	0.615383	0.454681	1	1
99.544220	0.792263	city	2	1	0.605443	0.605443	0	1	0	0	CorrectCommission	0.213625	0.448617	1	1
100.336479	0.792263	city	6	1	0.695260	0.695260	0	1	0	0	CorrectCommission	1.088534	0.442703	1	1
101.128754	0.792281	city	5	1	0.709584	0.709584	0	1	0	0	CorrectCommission	1.228064	0.437213	1	1
101.921127	0.792464	city	9	1	0.605667	0.605667	0	1	0	0	CorrectCommission	0.215804	0.432966	1	1
102.713402	0.792089	city	5	1	0.555590	0.555590	0	1	0	0	CorrectCommission	0.271994	0.431176	1	1
103.505592	0.792300	city	8	1	0.597020	0.597020	0	1	0	0	CorrectCommission	0.131577	0.433140	1	1
104.297951	0.792403	city	2	1	0.596204	0.596204	0	1	0	0	CorrectCommission	0.123627	0.439998	1	1
105.090195	0.792097	city	10	1	0.596044	0.596044	0	1	0	0	CorrectCommission	0.122075	0.452428	1	1
105.882355	0.792218	city	5	1	0.596481	0.596481	0	1	0	0	CorrectCommission	0.126329	0.470448	1	1
106.674599	0.792262	city	10	1	0.547026	0.547026	0	1	0	0	CorrectCommission	0.355413	0.493326	1	1
107.466858	0.792264	city	6	1	0.596319	0.596319	0	1	0	0	CorrectCommission	0.124747	0.519625	1	1
108.259155	0.792323	city	3	1	0.646374	0.646374	0	1	0	0	CorrectCommission	0.612335	0.547419	1	1
109.051476	0.792320	city	7	1	0.645734	0.645734	0	1	0	0	CorrectCommission	0.606101	0.574531	1	1
109.843712	0.792151	mountain	7	0	0.000000	0.734900	1	0	0	0	CorrectOmission	1.474673	0.598881	1	1
110.635918	0.792265	city	3	1	0.754898	0.754898	0	1	0	0	CorrectCommission	1.669475	0.618701	1	1
111.428215	0.792325	mountain	3	1	0.546754	0.546754	0	0	1	0	CommissionError	0.358067	0.632798	1	1
112.220482	0.792209	city	3	1	0.596202	0.596202	0	1	0	0	CorrectCommission	0.123607	0.640622	1	1
113.012718	0.792271	city	7	1	0.513498	0.513498	0	1	0	0	CorrectCommission	0.682010	0.642217	1	1
113.805092	0.792473	city	6	1	0.498016	0.498016	0	1	0	0	CorrectCommission	0.832817	0.638105	1	1
114.597359	0.792062	city	7	1	0.513270	0.513270	0	1	0	0	CorrectCommission	0.684233	0.629144	1	1
115.389511	0.792247	city	4	1	0.511542	0.511542	0	1	0	0	CorrectCommission	0.701069	0.616355	1	1
116.181770	0.792267	city	5	1	0.497246	0.497246	0	1	0	0	CorrectCommission	0.840324	0.600753	1	1
116.974091	0.792371	mountain	4	0	0.000000	0.587547	1	0	0	0	CorrectOmission	0.039302	0.583253	1	1
117.766464	0.792375	city	5	1	0.648594	0.648594	0	1	0	0	CorrectCommission	0.633961	0.564635	1	1
118.558784	0.792265	city	2	1	0.546535	0.546535	0	1	0	0	CorrectCommission	0.360196	0.545509	1	1
119.350990	0.792156	city	6	1	0.497047	0.497047	0	1	0	0	CorrectCommission	0.842257	0.526448	1	1
120.143150	0.792154	city	4	1	0.498724	0.498724	0	1	0	0	CorrectCommission	0.825928	0.508008	1	1
120.935364	0.792277	city	6	1	0.546733	0.546733	0	1	0	0	CorrectCommission	0.358271	0.490822	1	1
121.727631	0.792255	city	2	1	0.547328	0.547328	0	1	0	0	CorrectCommission	0.352477	0.475645	1	1
122.519897	0.792286	city	5	1	0.546756	0.546756	0	1	0	0	CorrectCommission	0.358041	0.463345	1	1
123.312218	0.792351	city	6	1	0.546730	0.546730	0	1	0	0	CorrectCommission	0.358302	0.454882	1	1
124.104469	0.792157	city	10	1	0.558050	0.558050	0	1	0	0	CorrectCommission	0.248026	0.451184	1	1
124.896683	0.792266	city	6	1	0.662057	0.662057	0	1	0	0	CorrectCommission	0.765107	0.453049	1	1
125.688950	0.792260	mountain	2	0	0.000000	0.611828	1	0	0	0	CorrectOmission	0.275822	0.460971	1	1
126.481209	0.792265	city	1	1	0.546732	0.546732	0	1	0	0	CorrectCommission	0.358279	0.475040	1	1
127.273476	0.792263	city	3	1	0.606139	0.606139	0	1	0	0	CorrectCommission	0.220404	0.494781	1	0
128.065735	0.792267	mountain	5	0	0.000000	0.586375	1	0	0	0	CorrectOmission	0.027889	0.519136	1	0
128.858139	0.792537	mountain	1	1	0.546735	0.546735	0	0	1	0	CommissionError	0.358251	0.546514	1	0
129.650406	0.791992	city	9	1	0.546510	0.546510	0	1	0	0	CorrectCommission	0.360441	0.574884	1	0
130.442566	0.792313	city	2	1	0.506981	0.506981	0	1	0	0	CorrectCommission	0.745497	0.602005	1	0
131.234940	0.792433	city	4	1	0.447580	0.447580	0	1	0	0	CorrectCommission	1.324118	0.625647	1	0
132.027176	0.792048	city	3	1	0.459238	0.459238	0	1	0	0	CorrectCommission	1.210563	0.643883	1	0
132.819443	0.792482	city	4	1	0.497235	0.497235	0	1	0	0	CorrectCommission	0.840432	0.655318	1	0
133.611694	0.792047	city	5	1	0.546996	0.546996	0	1	0	0	CorrectCommission	0.355703	0.659217	1	0
134.403854	0.792266	city	8	1	0.497270	0.497270	0	1	0	0	CorrectCommission	0.840093	0.655590	1	0
135.196121	0.792266	city	5	1	0.466257	0.466257	0	1	0	0	CorrectCommission	1.142184	0.645095	1	0
135.988403	0.792305	city	8	1	0.497216	0.497216	0	1	0	0	CorrectCommission	0.840611	0.628941	1	0
136.780777	0.792442	city	7	1	0.564320	0.564320	0	1	0	0	CorrectCommission	0.186957	0.608703	1	0
137.573074	0.792155	city	5	1	0.546637	0.546637	0	1	0	0	CorrectCommission	0.359206	0.586122	1	0
138.365234	0.792156	city	3	1	0.497620	0.497620	0	1	0	0	CorrectCommission	0.836680	0.562885	1	0
139.157440	0.792263	city	4	1	0.596260	0.596260	0	1	0	0	CorrectCommission	0.124176	0.540475	1	0
139.949768	0.792375	city	7	1	0.562894	0.562894	0	1	0	0	CorrectCommission	0.200845	0.520101	1	0
140.742081	0.792265	city	2	1	0.504477	0.504477	0	1	0	0	CorrectCommission	0.769884	0.502639	1	0
141.534302	0.792159	city	4	1	0.497286	0.497286	0	1	0	0	CorrectCommission	0.839934	0.488591	1	0
142.326538	0.792329	city	3	1	0.547124	0.547124	0	1	0	0	CorrectCommission	0.354456	0.478169	1	0
143.118912	0.792414	mountain	6	1	0.546665	0.546665	0	0	1	0	CommissionError	0.358927	0.471356	1	0
143.911148	0.792046	city	1	1	0.596035	0.596035	0	1	0	0	CorrectCommission	0.121985	0.467970	1	0
144.703354	0.792375	city	5	1	0.596242	0.596242	0	1	0	0	CorrectCommission	0.124000	0.467728	1	0
145.495621	0.792160	city	1	1	0.661528	0.661528	0	1	0	0	CorrectCommission	0.759951	0.470371	1	0
146.287888	0.792367	city	6	1	0.614351	0.614351	0	1	0	0	CorrectCommission	0.300404	0.475735	1	0
147.080154	0.792162	city	8	1	0.661551	0.661551	0	1	0	0	CorrectCommission	0.760180	0.483853	1	0
147.872360	0.792265	city	6	1	0.664045	0.664045	0	1	0	0	CorrectCommission	0.784473	0.494992	1	0
148.664627	0.792261	city	4	1	0.599916	0.599916	0	1	0	0	CorrectCommission	0.159786	0.509706	1	0
149.457001	0.792483	city	3	1	0.645902	0.645902	0	1	0	0	CorrectCommission	0.607742	0.528777	1	0
150.249268	0.792048	city	10	1	0.646198	0.646198	0	1	0	0	CorrectCommission	0.610624	0.553096	1	0
151.041534	0.792481	city	9	1	0.555826	0.555826	0	1	0	0	CorrectCommission	0.269691	0.583521	1	0
151.833801	0.792074	city	4	1	0.546598	0.546598	0	1	0	0	CorrectCommission	0.359586	0.620652	1	0
152.625961	0.792240	city	3	1	0.497395	0.497395	0	1	0	0	CorrectCommission	0.838873	0.664595	1	0
153.418213	0.792262	city	7	1	0.550142	0.550142	0	1	0	0	CorrectCommission	0.325066	0.714790	0	0
154.210480	0.792267	city	3	1	0.596706	0.596706	0	1	0	0	CorrectCommission	0.128524	0.769930	0	0
155.002747	0.792262	city	6	1	0.546775	0.546775	0	1	0	0	CorrectCommission	0.357864	0.827884	0	0
155.795013	0.792273	city	4	1	0.794890	0.794890	0	1	0	0	CorrectCommission	2.059038	0.885805	0	0
156.587326	0.792366	city	1	1	0.546691	0.546691	0	1	0	0	CorrectCommission	0.358677	0.940364	0	0
157.379623	0.792218	city	9	1	0.695308	0.695308	0	1	0	0	CorrectCommission	1.089007	0.988156	0	0
158.171829	0.792206	city	10	1	0.466093	0.466093	0	1	0	0	CorrectCommission	1.143782	1.025982	0	0
158.964172	0.792479	city	1	1	0.364648	0.364648	0	1	0	0	CorrectCommission	2.131961	1.051339	0	0
159.756485	0.792128	city	9	1	0.497131	0.497131	0	1	0	0	CorrectCommission	0.841448	1.062771	0	0
160.548737	0.792402	city	6	1	0.409946	0.409946	0	1	0	0	CorrectCommission	1.690711	1.060161	0	0
161.340973	0.792056	city	2	1	0.348471	0.348471	0	1	0	0	CorrectCommission	2.289546	1.044716	0	0
162.133148	0.792300	city	5	1	0.497235	0.497235	0	1	0	0	CorrectCommission	0.840434	1.018957	0	0
162.925430	0.792266	city	3	1	0.497223	0.497223	0	1	0	0	CorrectCommission	0.840542	0.986454	0	0
163.717682	0.792220	city	4	1	0.448293	0.448293	0	1	0	0	CorrectCommission	1.317176	0.951325	0	0
164.509933	0.792307	city	9	1	0.546736	0.546736	0	1	0	0	CorrectCommission	0.358237	0.917736	0	0
165.302200	0.792222	city	1	1	0.551344	0.551344	0	1	0	0	CorrectCommission	0.313350	0.889421	0	0
166.094559	0.792481	city	4	1	0.547155	0.547155	0	1	0	0	CorrectCommission	0.354154	0.869179	0	0
166.886826	0.792049	mountain	10	1	0.596003	0.596003	0	0	1	0	CommissionError	0.121674	0.858587	0	0
167.679108	0.792535	city	5	1	0.596378	0.596378	0	1	0	0	CorrectCommission	0.125320	0.857918	0	0
168.471375	0.791998	mountain	1	0	0.000000	0.489077	1	0	0	0	CorrectOmission	0.919901	0.866188	0	0
169.263504	0.792260	city	9	1	0.398259	0.398259	0	1	0	0	CorrectCommission	1.804561	0.881395	0	0
170.055771	0.792263	city	4	1	0.448082	0.448082	0	1	0	0	CorrectCommission	1.319232	0.900847	0	0
170.848038	0.792268	city	3	1	0.497500	0.497500	0	1	0	0	CorrectCommission	0.837852	0.921570	0	0
171.640350	0.792372	city	2	1	0.695253	0.695253	0	1	0	0	CorrectCommission	1.088472	0.940599	0	0
172.432617	0.792156	city	4	1	0.662101	0.662101	0	1	0	0	CorrectCommission	0.765531	0.955250	0	0
173.224854	0.792304	city	8	1	0.645736	0.645736	0	1	0	0	CorrectCommission	0.606124	0.963331	0	0
174.017120	0.792251	city	10	1	0.647009	0.647009	0	1	0	0	CorrectCommission	0.618527	0.963354	0	0
174.809372	0.792244	city	1	1	0.794274	0.794274	0	1	0	0	CorrectCommission	2.053039	0.954602	0	0
175.601685	0.792368	city	8	1	0.794295	0.794295	0	1	0	0	CorrectCommission	2.053240	0.937231	0	0
176.393936	0.792157	mountain	3	0	0.000000	0.604504	1	0	0	0	CorrectOmission	0.204476	0.912326	0	0
177.186172	0.792299	city	2	1	0.497227	0.497227	0	1	0	0	CorrectCommission	0.840509	0.881959	0	0
177.978439	0.792234	city	6	1	0.744792	0.744792	0	1	0	0	CorrectCommission	1.571029	0.848939	0	0
178.770691	0.792263	city	1	1	0.653008	0.653008	0	1	0	0	CorrectCommission	0.676963	0.816662	0	0
179.562973	0.792329	mountain	3	0	0.000000	0.543248	1	0	0	0	CorrectOmission	0.392213	0.788864	0	0
180.355255	0.792208	city	1	1	0.497120	0.497120	0	1	0	0	CorrectCommission	0.841547	0.769168	0	0
181.147583	0.792474	city	7	1	0.596233	0.596233	0	1	0	0	CorrectCommission	0.123916	0.760656	0	0
181.939911	0.792155	city	4	1	0.597805	0.597805	0	1	0	0	CorrectCommission	0.139221	0.765489	0	0
182.732162	0.792374	city	1	1	0.695165	0.695165	0	1	0	0	CorrectCommission	1.087614	0.784534	0	0
183.524429	0.792155	city	4	1	0.596504	0.596504	0	1	0	0	CorrectCommission	0.126552	0.817148	0	0
184.316650	0.792265	city	7	1	0.597076	0.597076	0	1	0	0	CorrectCommission	0.132125	0.861217	0	0
185.108871	0.792196	city	1	1	0.597666	0.597666	0	1	0	0	CorrectCommission	0.137873	0.913277	0	0
185.901199	0.792444	city	2	1	0.695247	0.695247	0	1	0	0	CorrectCommission	1.088410	0.968904	0	0
186.693497	0.792160	city	4	1	0.704303	0.704303	0	1	0	0	CorrectCommission	1.176623	1.023219	0	1
187.485672	0.792187	city	1	1	0.751635	0.751635	0	1	0	0	CorrectCommission	1.637684	1.071543	0	1
188.277878	0.792228	city	6	1	0.794429	0.794429	0	1	0	0	CorrectCommission	2.054545	1.109930	0	1
189.070236	0.792482	city	3	1	0.843939	0.843939	0	1	0	0	CorrectCommission	2.536822	1.135593	0	1
189.862503	0.792057	city	8	1	0.744552	0.744552	0	1	0	0	CorrectCommission	1.568690	1.147124	0	1
190.654663	0.792261	city	6	1	0.744758	0.744758	0	1	0	0	CorrectCommission	1.570701	1.144487	0	1
191.446915	0.792263	city	8	1	0.645919	0.645919	0	1	0	0	CorrectCommission	0.607907	1.128717	0	1
192.239182	0.792259	city	6	1	0.695302	0.695302	0	1	0	0	CorrectCommission	1.088943	1.101540	0	1
193.031448	0.792269	city	2	1	0.596296	0.596296	0	1	0	0	CorrectCommission	0.124530	1.064912	0	1
193.823746	0.792317	city	9	1	0.614461	0.614461	0	1	0	0	CorrectCommission	0.301473	1.020754	0	1
194.615997	0.792210	city	7	1	0.661953	0.661953	0	1	0	0	CorrectCommission	0.764093	0.970688	0	1
195.408356	0.792483	city	1	1	0.744910	0.744910	0	1	0	0	CorrectCommission	1.572174	0.916009	0	1
196.200623	0.792052	city	7	1	0.843640	0.843640	0	1	0	0	CorrectCommission	2.533914	0.857833	0	1
196.992767	0.792262	city	2	1	0.696903	0.696903	0	1	0	0	CorrectCommission	1.104543	0.797292	0	1
197.785034	0.792262	city	3	1	0.652908	0.652908	0	1	0	0	CorrectCommission	0.675989	0.735717	0	1
198.577301	0.792263	city	7	1	0.601710	0.601710	0	1	0	0	CorrectCommission	0.177261	0.674701	0	1
199.369568	0.792270	city	4	1	0.596261	0.596261	0	1	0	0	CorrectCommission	0.124184	0.616125	1	1
200.161942	0.792478	city	8	1	0.606684	0.606684	0	1	0	0	CorrectCommission	0.225715	0.562046	1	1
200.954224	0.792084	city	4	1	0.612142	0.612142	0	1	0	0	CorrectCommission	0.278879	0.514594	1	1
201.746429	0.792339	city	7	1	0.562637	0.562637	0	1	0	0	CorrectCommission	0.203342	0.475776	1	1
202.538727	0.792263	city	9	1	0.645678	0.645678	0	1	0	0	CorrectCommission	0.605558	0.447341	1	1
203.331085	0.792429	city	2	1	0.645683	0.645683	0	1	0	0	CorrectCommission	0.605607	0.430581	1	1
204.123398	0.792209	city	1	1	0.596025	0.596025	0	1	0	0	CorrectCommission	0.121891	0.426238	1	1
204.915634	0.792265	city	8	1	0.546569	0.546569	0	1	0	0	CorrectCommission	0.359868	0.434371	1	1
205.707794	0.792051	city	9	1	0.596066	0.596066	0	1	0	0	CorrectCommission	0.122283	0.454227	1	1
206.499954	0.792286	city	6	1	0.596352	0.596352	0	1	0	0	CorrectCommission	0.125075	0.484193	1	1
207.292328	0.792457	city	9	1	0.597428	0.597428	0	1	0	0	CorrectCommission	0.135552	0.521818	1	1
208.084579	0.792047	city	1	1	0.596024	0.596024	0	1	0	0	CorrectCommission	0.121877	0.563893	1	1
208.876846	0.792482	city	7	1	0.596581	0.596581	0	1	0	0	CorrectCommission	0.127302	0.606710	1	1
209.669220	0.792264	city	5	1	0.704968	0.704968	0	1	0	0	CorrectCommission	1.183106	0.646370	1	1
210.461487	0.792264	city	4	1	0.695599	0.695599	0	1	0	0	CorrectCommission	1.091837	0.679205	0	1
211.253647	0.792049	mountain	10	1	0.695411	0.695411	0	0	1	0	CommissionError	1.090004	0.702226	0	1
212.045807	0.792264	city	6	1	0.794479	0.794479	0	1	0	0	CorrectCommission	2.055027	0.713472	0	1
212.838181	0.792482	city	7	1	0.744935	0.744935	0	1	0	0	CorrectCommission	1.572425	0.712183	0	1
213.630478	0.792130	city	2	1	0.645703	0.645703	0	1	0	0	CorrectCommission	0.605800	0.698897	0	1
214.422684	0.792290	mountain	2	0	0.000000	0.608341	1	0	0	0	CorrectOmission	0.241854	0.675338	0	1
215.215027	0.792375	city	6	1	0.614469	0.614469	0	1	0	0	CorrectCommission	0.301548	0.644102	1	1
216.007233	0.792051	city	5	1	0.645707	0.645707	0	1	0	0	CorrectCommission	0.605843	0.608309	1	1
216.799500	0.792480	city	1	1	0.615438	0.615438	0	1	0	0	CorrectCommission	0.310984	0.571226	1	1
217.591766	0.792061	city	9	1	0.661464	0.661464	0	1	0	0	CorrectCommission	0.759330	0.535939	1	1
218.383926	0.792251	mountain	6	0	0.000000	0.608765	1	0	0	0	CorrectOmission	0.245990	0.505045	1	1
219.176239	0.792371	city	3	1	0.546801	0.546801	0	1	0	0	CorrectCommission	0.357602	0.480535	1	1
219.968613	0.792374	city	1	1	0.565033	0.565033	0	1	0	0	CorrectCommission	0.180012	0.463656	1	1
220.760925	0.792265	city	6	1	0.546529	0.546529	0	1	0	0	CorrectCommission	0.360257	0.454903	1	1
221.553085	0.792049	city	3	1	0.549182	0.549182	0	1	0	0	CorrectCommission	0.334415	0.454065	1	1
222.345276	0.792324	city	2	1	0.508901	0.508901	0	1	0	0	CorrectCommission	0.726793	0.460298	1	1
223.137589	0.792312	city	8	1	0.556049	0.556049	0	1	0	0	CorrectCommission	0.267520	0.472231	1	1
223.929840	0.792183	city	9	1	0.596113	0.596113	0	1	0	0	CorrectCommission	0.122746	0.488194	1	1
224.722046	0.792246	city	2	1	0.596345	0.596345	0	1	0	0	CorrectCommission	0.125008	0.506309	1	1
225.514313	0.792269	city	10	1	0.596215	0.596215	0	1	0	0	CorrectCommission	0.123739	0.524779	1	1
226.306686	0.792470	city	1	1	0.647225	0.647225	0	1	0	0	CorrectCommission	0.620629	0.542154	1	1
227.098938	0.792052	city	4	1	0.794144	0.794144	0	1	0	0	CorrectCommission	2.051767	0.557527	1	1
227.891098	0.792264	city	3	1	0.701498	0.701498	0	1	0	0	CorrectCommission	1.149298	0.570697	1	1
228.683380	0.792315	city	4	1	0.646236	0.646236	0	1	0	0	CorrectCommission	0.610994	0.582274	1	1
229.475647	0.792211	city	10	1	0.546653	0.546653	0	1	0	0	CorrectCommission	0.359050	0.593490	1	1
230.267990	0.792481	city	4	1	0.596318	0.596318	0	1	0	0	CorrectCommission	0.124737	0.605993	1	1
231.060318	0.792158	city	9	1	0.597462	0.597462	0	1	0	0	CorrectCommission	0.135885	0.621509	1	1
231.852585	0.792372	mountain	10	0	0.000000	0.532411	1	0	0	0	CorrectOmission	0.497777	0.641441	1	1
232.644791	0.792047	city	5	1	0.499310	0.499310	0	1	0	0	CorrectCommission	0.820214	0.666534	1	1
233.436951	0.792268	city	10	1	0.596305	0.596305	0	1	0	0	CorrectCommission	0.124610	0.696603	0	1
234.229218	0.792269	city	9	1	0.497191	0.497191	0	1	0	0	CorrectCommission	0.840854	0.730502	0	1
235.021484	0.792258	city	10	1	0.497400	0.497400	0	1	0	0	CorrectCommission	0.838821	0.766136	0	1
235.813797	0.792373	city	8	1	0.546713	0.546713	0	1	0	0	CorrectCommission	0.358466	0.800732	0	1
236.606064	0.792164	city	7	1	0.546671	0.546671	0	1	0	0	CorrectCommission	0.358868	0.831278	0	1
237.398285	0.792291	city	6	1	0.497325	0.497325	0	1	0	0	CorrectCommission	0.839551	0.855075	0	1
238.190552	0.792234	mountain	7	1	0.447688	0.447688	0	0	1	0	CommissionError	1.323065	0.870191	0	1
238.982849	0.792371	city	3	1	0.992389	0.992389	0	1	0	0	CorrectCommission	3.982880	0.875951	0	1
239.775146	0.792204	city	2	1	0.695176	0.695176	0	1	0	0	CorrectCommission	1.087723	0.873228	0	1
240.567352	0.792216	city	3	1	0.596274	0.596274	0	1	0	0	CorrectCommission	0.124316	0.864638	0	1
241.359650	0.792372	city	6	1	0.546632	0.546632	0	1	0	0	CorrectCommission	0.359256	0.854220	0	1
242.151932	0.792187	city	3	1	0.546639	0.546639	0	1	0	0	CorrectCommission	0.359182	0.847000	0	1
242.944153	0.792279	city	5	1	0.512264	0.512264	0	1	0	0	CorrectCommission	0.694031	0.848372	0	1
243.736511	0.792437	city	6	1	0.497218	0.497218	0	1	0	0	CorrectCommission	0.840599	0.863344	0	1
244.528870	0.792267	mountain	2	0	0.000000	0.556987	1	0	0	0	CorrectOmission	0.258381	0.895776	0	1
245.321060	0.792109	mountain	10	0	0.000000	0.627790	1	0	0	0	CorrectOmission	0.431308	0.947780	0	1
246.113220	0.792199	city	4	1	0.645841	0.645841	0	1	0	0	CorrectCommission	0.607150	1.019202	0	0
246.905441	0.792270	city	2	1	0.547359	0.547359	0	1	0	0	CorrectCommission	0.352171	1.107391	0	0
247.697708	0.792264	city	5	1	0.499794	0.499794	0	1	0	0	CorrectCommission	0.815503	1.207285	0	0
248.489975	0.792269	city	9	1	0.596268	0.596268	0	1	0	0	CorrectCommission	0.124254	1.311788	0	0
249.282242	0.792256	mountain	4	0	0.000000	0.439106	1	0	0	0	CorrectOmission	1.406665	1.412527	0	0
250.074615	0.792483	city	5	1	0.299204	0.299204	0	1	0	0	CorrectCommission	2.769451	1.500760	0	0
250.866882	0.792049	city	4	1	0.447459	0.447459	0	1	0	0	CorrectCommission	1.325296	1.568561	0	0
251.659042	0.792266	mountain	4	1	0.362283	0.362283	0	0	1	0	CommissionError	2.155002	1.609922	0	0
252.451416	0.792480	city	5	1	1.191815	1.191815	0	1	0	0	CorrectCommission	5.925492	1.621531	0	0
253.243774	0.792263	city	7	0	0.000000	0.982618	0	0	0	1	OmissionError	3.887697	1.603236	0	0
254.035934	0.792050	city	6	1	0.497013	0.497013	0	1	0	0	CorrectCommission	0.842589	1.558208	0	0
254.828094	0.792262	city	4	1	0.497323	0.497323	0	1	0	0	CorrectCommission	0.839570	1.492359	0	0
255.620361	0.792266	city	5	1	0.596561	0.596561	0	1	0	0	CorrectCommission	0.127103	1.413393	0	0
256.412628	0.792263	city	7	1	0.497256	0.497256	0	1	0	0	CorrectCommission	0.840227	1.329721	0	0
257.204895	0.792269	city	2	1	0.447832	0.447832	0	1	0	0	CorrectCommission	1.321667	1.249353	0	0
257.997162	0.792272	city	5	1	0.497212	0.497212	0	1	0	0	CorrectCommission	0.840656	1.178861	0	0
258.789490	0.792362	city	2	1	0.553951	0.553951	0	1	0	0	CorrectCommission	0.287957	1.122671	0	0
259.581787	0.792264	city	10	1	0.596171	0.596171	0	1	0	0	CorrectCommission	0.123312	1.082708	0	0
260.373993	0.792157	city	7	1	0.514361	0.514361	0	1	0	0	CorrectCommission	0.673605	1.058412	0	0
261.166321	0.792481	city	5	1	0.711289	0.711289	0	1	0	0	CorrectCommission	1.244676	1.047098	0	0
261.958588	0.792046	city	2	1	0.695067	0.695067	0	1	0	0	CorrectCommission	1.086656	1.044578	0	0
262.750732	0.792266	city	5	1	0.695636	0.695636	0	1	0	0	CorrectCommission	1.092195	1.045901	0	0
263.543121	0.792482	city	3	1	0.696257	0.696257	0	1	0	0	CorrectCommission	1.098244	1.046118	0	0
264.335480	0.792264	city	6	1	0.744657	0.744657	0	1	0	0	CorrectCommission	1.569710	1.040987	0	0
265.127655	0.792049	city	8	1	0.744556	0.744556	0	1	0	0	CorrectCommission	1.568731	1.027467	0	0
265.919922	0.792481	city	5	1	0.794269	0.794269	0	1	0	0	CorrectCommission	2.052988	1.004054	0	0
266.712280	0.792266	city	1	1	0.745308	0.745308	0	1	0	0	CorrectCommission	1.576051	0.970743	0	0
267.504456	0.792052	city	6	1	0.695543	0.695543	0	1	0	0	CorrectCommission	1.091292	0.928820	0	0
268.296600	0.792257	city	9	1	0.600513	0.600513	0	1	0	0	CorrectCommission	0.165600	0.880523	0	0
269.088867	0.792284	city	7	1	0.597071	0.597071	0	1	0	0	CorrectCommission	0.132075	0.828527	0	0
269.881134	0.792249	city	3	1	0.546692	0.546692	0	1	0	0	CorrectCommission	0.358665	0.775449	0	0
270.673431	0.792372	city	6	1	0.546818	0.546818	0	1	0	0	CorrectCommission	0.357437	0.723556	0	0
271.465698	0.792156	city	3	1	0.645761	0.645761	0	1	0	0	CorrectCommission	0.606363	0.674597	0	0
272.257904	0.792267	city	6	1	0.745231	0.745231	0	1	0	0	CorrectCommission	1.575307	0.629693	1	0
273.050293	0.792479	mountain	5	0	0.000000	0.652989	1	0	0	0	CorrectOmission	0.676773	0.589427	1	0
273.842651	0.792266	city	1	1	0.546511	0.546511	0	1	0	0	CorrectCommission	0.360431	0.554015	1	0
274.634918	0.792263	city	4	1	0.603275	0.603275	0	1	0	0	CorrectCommission	0.192505	0.523438	1	0
275.427094	0.792049	city	7	1	0.596173	0.596173	0	1	0	0	CorrectCommission	0.123326	0.497566	1	0
276.219360	0.792481	city	8	1	0.515369	0.515369	0	1	0	0	CorrectCommission	0.663783	0.476260	1	0
277.011658	0.792117	city	4	1	0.506356	0.506356	0	1	0	0	CorrectCommission	0.751587	0.459369	1	0
277.803833	0.792258	city	2	1	0.610144	0.610144	0	1	0	0	CorrectCommission	0.259420	0.446720	1	0
278.596069	0.792203	city	7	1	0.610295	0.610295	0	1	0	0	CorrectCommission	0.260893	0.438081	1	0
279.388336	0.792337	city	2	1	0.596694	0.596694	0	1	0	0	CorrectCommission	0.128407	0.433108	1	0
280.180695	0.792409	city	3	1	0.560430	0.560430	0	1	0	0	CorrectCommission	0.224843	0.431335	1	0
280.973053	0.792265	city	10	1	0.645558	0.645558	0	1	0	0	CorrectCommission	0.604385	0.432180	1	0
281.765320	0.792266	mountain	10	0	0.000000	0.650334	1	0	0	0	CorrectOmission	0.650913	0.434979	1	0
282.557465	0.792047	city	6	1	0.596054	0.596054	0	1	0	0	CorrectCommission	0.122168	0.439061	1	0
283.349609	0.792264	city	4	1	0.504011	0.504011	0	1	0	0	CorrectCommission	0.774423	0.443833	1	0
284.141876	0.792268	city	6	1	0.596483	0.596483	0	1	0	0	CorrectCommission	0.126349	0.448834	1	0
284.934204	0.792369	city	5	1	0.695472	0.695472	0	1	0	0	CorrectCommission	1.090603	0.453830	1	0
285.726471	0.792158	city	3	1	0.547278	0.547278	0	1	0	0	CorrectCommission	0.352963	0.458778	1	0
286.518677	0.792264	city	8	1	0.546817	0.546817	0	1	0	0	CorrectCommission	0.357453	0.463829	1	0
287.310944	0.792276	mountain	3	0	0.000000	0.538399	1	0	0	0	CorrectOmission	0.439454	0.469232	1	0
288.103241	0.792271	city	1	1	0.546690	0.546690	0	1	0	0	CorrectCommission	0.358690	0.475251	1	0
288.895477	0.792249	city	10	1	0.596356	0.596356	0	1	0	0	CorrectCommission	0.125115	0.482077	1	0
289.687744	0.792266	city	6	1	0.661596	0.661596	0	1	0	0	CorrectCommission	0.760612	0.489753	1	0
290.480042	0.792323	city	1	1	0.596236	0.596236	0	1	0	0	CorrectCommission	0.123941	0.498161	1	0
291.272308	0.792203	city	8	1	0.502130	0.502130	0	1	0	0	CorrectCommission	0.792743	0.507024	1	0
292.064545	0.792264	city	3	1	0.502321	0.502321	0	1	0	0	CorrectCommission	0.790891	0.515914	1	0
292.856812	0.792267	mountain	5	0	0.000000	0.516318	1	0	0	0	CorrectOmission	0.654537	0.524325	1	0
293.649109	0.792329	city	7	1	0.546761	0.546761	0	1	0	0	CorrectCommission	0.357993	0.531724	1	0
294.441376	0.792200	city	2	1	0.596286	0.596286	0	1	0	0	CorrectCommission	0.124427	0.537634	1	0
295.233704	0.792482	city	9	1	0.546749	0.546749	0	1	0	0	CorrectCommission	0.358109	0.541703	1	0
296.026031	0.792154	city	2	1	0.497026	0.497026	0	1	0	0	CorrectCommission	0.842463	0.543750	1	0
296.818176	0.792159	city	3	1	0.448097	0.448097	0	1	0	0	CorrectCommission	1.319080	0.543793	1	0
297.610382	0.792266	city	6	1	0.515658	0.515658	0	1	0	0	CorrectCommission	0.660967	0.542079	1	0
298.402649	0.792265	city	8	1	0.546771	0.546771	0	1	0	0	CorrectCommission	0.357899	0.539070	1	0
299.194916	0.792261	mountain	5	0	0.000000	0.557434	1	0	0	0	CorrectOmission	0.254027	0.535370	1	0
299.987244	0.792374	city	3	1	0.547291	0.547291	0	1	0	0	CorrectCommission	0.352829	0.531667	1	0
300.779602	0.792375	city	4	1	0.515986	0.515986	0	1	0	0	CorrectCommission	0.657780	0.528631	1	0
301.571869	0.792153	city	6	1	0.596058	0.596058	0	1	0	0	CorrectCommission	0.122212	0.526868	1	0
302.364044	0.792157	city	5	1	0.506604	0.506604	0	1	0	0	CorrectCommission	0.749167	0.526881	1	0
303.156250	0.792265	city	6	1	0.513158	0.513158	0	1	0	0	CorrectCommission	0.685320	0.529009	1	0
303.948608	0.792480	city	3	1	0.546713	0.546713	0	1	0	0	CorrectCommission	0.358465	0.533462	1	0
304.740875	0.792048	city	10	1	0.608947	0.608947	0	1	0	0	CorrectCommission	0.247763	0.540326	1	0
305.533020	0.792264	city	4	1	0.695254	0.695254	0	1	0	0	CorrectCommission	1.088476	0.549545	1	1
306.325287	0.792268	city	3	1	0.546793	0.546793	0	1	0	0	CorrectCommission	0.357685	0.560908	1	1
307.117615	0.792370	city	4	1	0.497680	0.497680	0	1	0	0	CorrectCommission	0.836092	0.574095	1	1
307.909882	0.792169	city	5	1	0.560828	0.560828	0	1	0	0	CorrectCommission	0.220969	0.588650	1	1
308.702087	0.792254	mountain	6	0	0.000000	0.573552	1	0	0	0	CorrectOmission	0.097022	0.604027	1	1
309.494354	0.792265	city	10	1	0.548233	0.548233	0	1	0	0	CorrectCommission	0.343654	0.619631	1	1
310.286621	0.792263	city	1	1	0.497251	0.497251	0	1	0	0	CorrectCommission	0.840270	0.634891	1	1
311.078888	0.792265	city	8	1	0.447743	0.447743	0	1	0	0	CorrectCommission	1.322536	0.649352	1	1
311.871246	0.792482	city	2	1	0.497212	0.497212	0	1	0	0	CorrectCommission	0.840653	0.662752	1	1
312.663513	0.792047	city	5	1	0.497006	0.497006	0	1	0	0	CorrectCommission	0.842663	0.675079	0	1
313.455688	0.792274	city	9	1	0.497937	0.497937	0	1	0	0	CorrectCommission	0.833587	0.686500	0	1
314.247955	0.792259	city	1	1	0.512513	0.512513	0	1	0	0	CorrectCommission	0.691610	0.697277	0	1
315.040222	0.792262	city	2	1	0.546746	0.546746	0	1	0	0	CorrectCommission	0.358137	0.707673	0	1
315.832489	0.792267	city	4	1	0.557704	0.557704	0	1	0	0	CorrectCommission	0.251400	0.717777	0	1
316.624786	0.792371	city	9	1	0.605837	0.605837	0	1	0	0	CorrectCommission	0.217462	0.727426	0	1
317.417175	0.792373	city	2	1	0.695185	0.695185	0	1	0	0	CorrectCommission	1.087803	0.736174	0	1
318.209381	0.792047	city	1	1	0.645567	0.645567	0	1	0	0	CorrectCommission	0.604475	0.743313	0	1
319.001526	0.792266	city	7	1	0.695350	0.695350	0	1	0	0	CorrectCommission	1.089410	0.748066	0	1
319.793793	0.792263	city	1	1	0.751346	0.751346	0	1	0	0	CorrectCommission	1.634869	0.749667	0	1
320.586060	0.792266	city	6	1	0.703947	0.703947	0	1	0	0	CorrectCommission	1.173161	0.747528	0	1
321.378326	0.792269	city	5	1	0.596403	0.596403	0	1	0	0	CorrectCommission	0.125573	0.741377	0	1
322.170654	0.792368	city	1	1	0.547528	0.547528	0	1	0	0	CorrectCommission	0.350525	0.731257	0	1
322.962921	0.792158	city	6	1	0.506396	0.506396	0	1	0	0	CorrectCommission	0.751195	0.717481	0	1
323.755127	0.792288	city	4	1	0.497240	0.497240	0	1	0	0	CorrectCommission	0.840385	0.700614	0	1
324.547394	0.792239	city	7	1	0.459583	0.459583	0	1	0	0	CorrectCommission	1.207195	0.681351	0	1
325.339691	0.792372	city	6	1	0.497939	0.497939	0	1	0	0	CorrectCommission	0.833571	0.660429	1	1
326.131958	0.792160	city	10	1	0.547127	0.547127	0	1	0	0	CorrectCommission	0.354435	0.638545	1	1
326.924194	0.792260	city	3	1	0.596287	0.596287	0	1	0	0	CorrectCommission	0.124438	0.616274	1	1
327.716553	0.792484	city	4	1	0.650765	0.650765	0	1	0	0	CorrectCommission	0.655112	0.594035	1	1
328.508850	0.792079	city	8	1	0.645478	0.645478	0	1	0	0	CorrectCommission	0.603613	0.572068	1	1
329.300995	0.792262	city	1	1	0.608633	0.608633	0	1	0	0	CorrectCommission	0.244705	0.550516	1	1
330.093292	0.792310	city	9	1	0.695354	0.695354	0	1	0	0	CorrectCommission	1.089456	0.529488	1	1
330.885590	0.792298	city	3	1	0.546899	0.546899	0	1	0	0	CorrectCommission	0.356649	0.509112	1	1
331.677856	0.792212	city	8	1	0.507090	0.507090	0	1	0	0	CorrectCommission	0.744434	0.489679	1	1
332.470062	0.792211	city	9	1	0.504227	0.504227	0	1	0	0	CorrectCommission	0.772319	0.471574	1	1
333.262421	0.792482	city	7	1	0.596263	0.596263	0	1	0	0	CorrectCommission	0.124206	0.455374	1	1
334.054718	0.792154	city	10	1	0.598591	0.598591	0	1	0	0	CorrectCommission	0.146882	0.441812	1	1
334.846985	0.792376	city	8	1	0.598673	0.598673	0	1	0	0	CorrectCommission	0.147682	0.431686	1	1
335.639191	0.792047	city	10	1	0.596046	0.596046	0	1	0	0	CorrectCommission	0.122087	0.425843	1	1
336.431458	0.792483	city	6	1	0.695731	0.695731	0	1	0	0	CorrectCommission	1.093120	0.425104	1	1
337.223724	0.792050	city	5	1	0.596055	0.596055	0	1	0	0	CorrectCommission	0.122178	0.430160	1	1
338.015900	0.792266	city	9	1	0.599257	0.599257	0	1	0	0	CorrectCommission	0.153365	0.441555	1	1
338.808167	0.792264	city	6	1	0.504123	0.504123	0	1	0	0	CorrectCommission	0.773330	0.459547	1	1
339.600433	0.792259	city	3	1	0.549400	0.549400	0	1	0	0	CorrectCommission	0.332288	0.483963	1	1
340.392670	0.792266	city	5	1	0.615800	0.615800	0	1	0	0	CorrectCommission	0.314511	0.514131	1	1
341.185059	0.792482	mountain	4	0	0.000000	0.599717	1	0	0	0	CorrectOmission	0.157853	0.548769	1	1
341.977325	0.792046	city	9	1	0.546534	0.546534	0	1	0	0	CorrectCommission	0.360205	0.585960	1	1
342.769470	0.792266	city	8	1	0.501631	0.501631	0	1	0	0	CorrectCommission	0.797606	0.623239	1	1
343.561798	0.792373	city	6	1	0.546833	0.546833	0	1	0	0	CorrectCommission	0.357292	0.657754	1	1
344.354065	0.792154	city	10	1	0.546801	0.546801	0	1	0	0	CorrectCommission	0.357605	0.686618	0	1
345.146362	0.792484	city	1	1	0.497199	0.497199	0	1	0	0	CorrectCommission	0.840783	0.707239	0	1
345.938690	0.792129	mountain	7	0	0.000000	0.736537	1	0	0	0	CorrectOmission	1.490618	0.717728	0	1
346.730835	0.792183	city	6	1	0.893374	0.893374	0	1	0	0	CorrectCommission	3.018369	0.717248	0	1
347.523102	0.792355	city	10	1	0.596267	0.596267	0	1	0	0	CorrectCommission	0.124242	0.706183	0	1
348.315491	0.792392	city	1	1	0.506614	0.506614	0	1	0	0	CorrectCommission	0.749068	0.686293	0	1
349.107819	0.792265	city	10	1	0.497370	0.497370	0	1	0	0	CorrectCommission	0.839115	0.660383	1	1
349.899994	0.792073	city	5	1	0.546528	0.546528	0	1	0	0	CorrectCommission	0.360266	0.632011	1	1
350.692200	0.792347	city	10	1	0.561286	0.561286	0	1	0	0	CorrectCommission	0.216503	0.605033	1	1
351.484436	0.792155	city	5	1	0.600846	0.600846	0	1	0	0	CorrectCommission	0.168849	0.583060	1	1
352.276703	0.792375	city	10	1	0.596563	0.596563	0	1	0	0	CorrectCommission	0.127130	0.568972	1	1
353.069031	0.792265	city	1	1	0.596165	0.596165	0	1	0	0	CorrectCommission	0.123246	0.564565	1	1
353.861237	0.792159	city	10	1	0.513114	0.513114	0	1	0	0	CorrectCommission	0.685754	0.570331	1	1
354.653503	0.792371	city	6	1	0.596310	0.596310	0	1	0	0	CorrectCommission	0.124663	0.585426	1	1
355.445770	0.792159	city	10	1	0.645800	0.645800	0	1	0	0	CorrectCommission	0.606743	0.607844	1	1
356.237976	0.792261	city	7	1	0.645772	0.645772	0	1	0	0	CorrectCommission	0.606469	0.634617	1	1
357.030243	0.792267	city	10	1	0.645935	0.645935	0	1	0	0	CorrectCommission	0.608063	0.662267	1	1
357.822540	0.792317	city	6	1	0.696176	0.696176	0	1	0	0	CorrectCommission	1.097457	0.687208	0	1
358.614838	0.792318	city	10	1	0.614670	0.614670	0	1	0	0	CorrectCommission	0.303509	0.706195	0	1
359.407135	0.792264	city	6	1	0.705616	0.705616	0	1	0	0	CorrectCommission	1.189412	0.716742	0	1
360.199341	0.792158	mountain	3	0	0.000000	0.740010	1	0	0	0	CorrectOmission	1.524452	0.717365	0	1
360.991577	0.792294	mountain	8	0	0.000000	0.732058	1	0	0	0	CorrectOmission	1.446986	0.707780	0	1
361.783844	0.792233	mountain	5	0	0.000000	0.695962	1	0	0	0	CorrectOmission	1.095377	0.688871	0	1
362.576141	0.792375	city	5	1	0.645927	0.645927	0	1	0	0	CorrectCommission	0.607983	0.662514	1	1
363.368408	0.792156	city	10	1	0.596156	0.596156	0	1	0	0	CorrectCommission	0.123165	0.631261	1	1
364.160736	0.792483	city	5	1	0.645774	0.645774	0	1	0	0	CorrectCommission	0.606490	0.597908	1	1
364.953094	0.792265	city	8	1	0.596020	0.596020	0	1	0	0	CorrectCommission	0.121833	0.565145	1	0
365.745270	0.792048	city	1	1	0.596047	0.596047	0	1	0	0	CorrectCommission	0.122100	0.535192	1	0
366.537445	0.792293	city	2	1	0.645762	0.645762	0	1	0	0	CorrectCommission	0.606378	0.509557	1	0
367.329742	0.792343	city	10	1	0.606765	0.606765	0	1	0	0	CorrectCommission	0.226507	0.488930	1	0
368.122009	0.792154	city	4	1	0.596114	0.596114	0	1	0	0	CorrectCommission	0.122751	0.473269	1	0
368.914276	0.792374	city	5	1	0.515504	0.515504	0	1	0	0	CorrectCommission	0.662474	0.461945	1	0
369.706543	0.792175	mountain	5	1	0.546595	0.546595	0	0	1	0	CommissionError	0.359611	0.453961	1	0
370.498871	0.792464	city	8	1	0.695381	0.695381	0	1	0	0	CorrectCommission	1.089716	0.448258	1	0
371.291107	0.792046	city	9	1	0.546569	0.546569	0	1	0	0	CorrectCommission	0.359869	0.443870	1	0
372.083374	0.792483	city	1	1	0.516068	0.516068	0	1	0	0	CorrectCommission	0.656979	0.440161	1	0
372.875702	0.792154	city	3	1	0.546545	0.546545	0	1	0	0	CorrectCommission	0.360101	0.436798	1	0
373.667969	0.792374	city	7	1	0.546625	0.546625	0	1	0	0	CorrectCommission	0.359320	0.433778	1	0
374.460266	0.792265	city	1	1	0.596226	0.596226	0	1	0	0	CorrectCommission	0.123846	0.431331	1	0
375.252441	0.792052	city	7	1	0.553757	0.553757	0	1	0	0	CorrectCommission	0.289845	0.429787	1	0
376.044586	0.792265	city	5	1	0.645773	0.645773	0	1	0	0	CorrectCommission	0.606486	0.429483	1	0
376.836853	0.792260	city	7	1	0.600985	0.600985	0	1	0	0	CorrectCommission	0.170204	0.430692	1	0
377.629181	0.792373	mountain	4	0	0.000000	0.525628	1	0	0	0	CorrectOmission	0.563855	0.433598	1	0
378.421539	0.792376	city	4	1	0.497911	0.497911	0	1	0	0	CorrectCommission	0.833846	0.438314	1	0
379.213776	0.792045	city	5	1	0.596045	0.596045	0	1	0	0	CorrectCommission	0.122079	0.444979	1	0
380.005981	0.792375	city	2	1	0.596221	0.596221	0	1	0	0	CorrectCommission	0.123800	0.453865	1	0
380.798248	0.792158	city	5	1	0.602183	0.602183	0	1	0	0	CorrectCommission	0.181875	0.465398	1	0
381.590454	0.792263	city	6	1	0.695783	0.695783	0	1	0	0	CorrectCommission	1.093628	0.480193	1	0
382.382812	0.792480	city	1	1	0.645753	0.645753	0	1	0	0	CorrectCommission	0.606288	0.499019	1	0
383.175079	0.792050	city	9	1	0.645548	0.645548	0	1	0	0	CorrectCommission	0.604295	0.522688	1	0
383.967255	0.792262	city	7	1	0.646019	0.646019	0	1	0	0	CorrectCommission	0.608875	0.551824	1	0
384.759491	0.792267	city	2	1	0.596401	0.596401	0	1	0	0	CorrectCommission	0.125551	0.586631	1	0
385.551880	0.792480	city	3	1	0.546662	0.546662	0	1	0	0	CorrectCommission	0.358963	0.626678	1	0
386.344147	0.792051	city	2	1	0.596074	0.596074	0	1	0	0	CorrectCommission	0.122360	0.670716	0	0
387.136292	0.792261	city	4	1	0.645755	0.645755	0	1	0	0	CorrectCommission	0.606311	0.716643	0	0
387.928558	0.792267	city	9	1	0.596224	0.596224	0	1	0	0	CorrectCommission	0.123827	0.761619	0	0
388.720856	0.792297	city	8	1	0.645737	0.645737	0	1	0	0	CorrectCommission	0.606133	0.802440	0	0
389.513123	0.792232	city	1	1	0.745319	0.745319	0	1	0	0	CorrectCommission	1.576165	0.835950	0	0
390.305359	0.792264	city	6	1	0.744770	0.744770	0	1	0	0	CorrectCommission	1.570813	0.859584	0	0
391.097626	0.792265	city	8	1	0.744708	0.744708	0	1	0	0	CorrectCommission	1.570215	0.871832	0	0
391.889893	0.792262	city	3	1	0.844281	0.844281	0	1	0	0	CorrectCommission	2.540153	0.872541	0	0
392.682251	0.792482	mountain	2	0	0.000000	0.714330	1	0	0	0	CorrectOmission	1.274294	0.862973	0	0
393.474518	0.792048	city	1	1	0.562485	0.562485	0	1	0	0	CorrectCommission	0.204832	0.845654	0	0
394.266693	0.792285	city	7	1	0.596376	0.596376	0	1	0	0	CorrectCommission	0.125303	0.823930	0	0
395.059021	0.792352	city	4	1	0.645825	0.645825	0	1	0	0	CorrectCommission	0.606986	0.801403	0	0
395.851257	0.792156	city	2	1	0.596220	0.596220	0	1	0	0	CorrectCommission	0.123790	0.781362	0	0
396.643524	0.792376	city	6	1	0.564789	0.564789	0	1	0	0	CorrectCommission	0.182386	0.766356	0	0
397.435791	0.792156	city	2	1	0.695322	0.695322	0	1	0	0	CorrectCommission	1.089137	0.757875	0	0
398.227997	0.792263	city	7	1	0.645777	0.645777	0	1	0	0	CorrectCommission	0.606526	0.756272	0	0
399.020264	0.792267	city	9	1	0.645915	0.645915	0	1	0	0	CorrectCommission	0.607864	0.760915	0	0
399.812653	0.792484	city	7	1	0.596251	0.596251	0	1	0	0	CorrectCommission	0.124083	0.770455	0	0
400.604919	0.792043	city	3	1	0.651486	0.651486	0	1	0	0	CorrectCommission	0.662137	0.783205	0	0
401.397064	0.792270	city	5	1	0.843836	0.843836	0	1	0	0	CorrectCommission	2.535818	0.797446	0	0
402.189331	0.792271	city	7	1	0.695342	0.695342	0	1	0	0	CorrectCommission	1.089334	0.811681	0	0
402.981659	0.792362	city	2	1	0.664305	0.664305	0	1	0	0	CorrectCommission	0.787006	0.824848	0	0
403.773926	0.792159	city	8	1	0.551333	0.551333	0	1	0	0	CorrectCommission	0.313456	0.836270	0	0
404.566132	0.792266	city	7	1	0.645773	0.645773	0	1	0	0	CorrectCommission	0.606487	0.845564	0	0
405.358490	0.792480	city	8	1	0.706653	0.706653	0	1	0	0	CorrectCommission	1.199517	0.852496	0	0
406.150818	0.792155	city	9	1	0.598437	0.598437	0	1	0	0	CorrectCommission	0.145386	0.856870	0	0
406.942993	0.792213	city	4	1	0.600209	0.600209	0	1	0	0	CorrectCommission	0.162642	0.858529	0	0
407.735260	0.792316	city	6	1	0.695788	0.695788	0	1	0	0	CorrectCommission	1.093685	0.857380	0	0
408.527496	0.792159	city	1	1	0.744830	0.744830	0	1	0	0	CorrectCommission	1.571401	0.853509	0	0
409.319702	0.792261	city	8	1	0.746203	0.746203	0	1	0	0	CorrectCommission	1.584777	0.847339	0	0
410.111969	0.792268	city	7	1	0.749393	0.749393	0	1	0	0	CorrectCommission	1.615852	0.839763	0	0
410.904236	0.792277	city	8	1	0.695317	0.695317	0	1	0	0	CorrectCommission	1.089088	0.832085	0	0
411.696533	0.792292	city	9	1	0.596231	0.596231	0	1	0	0	CorrectCommission	0.123897	0.825872	0	0
412.488800	0.792225	city	2	1	0.615418	0.615418	0	1	0	0	CorrectCommission	0.310794	0.822686	0	0
413.281158	0.792479	city	5	1	0.612297	0.612297	0	1	0	0	CorrectCommission	0.280391	0.823753	0	0
414.073456	0.792122	city	7	1	0.612293	0.612293	0	1	0	0	CorrectCommission	0.280351	0.829717	0	0
414.865601	0.792189	city	1	1	0.596431	0.596431	0	1	0	0	CorrectCommission	0.125845	0.840477	0	0
415.657837	0.792308	city	9	1	0.695325	0.695325	0	1	0	0	CorrectCommission	1.089167	0.855162	0	0
416.450104	0.792221	city	2	1	0.744700	0.744700	0	1	0	0	CorrectCommission	1.570137	0.872253	0	0
417.242371	0.792270	city	5	1	0.695299	0.695299	0	1	0	0	CorrectCommission	1.088914	0.889871	0	0
418.034668	0.792334	city	1	1	0.661580	0.661580	0	1	0	0	CorrectCommission	0.760461	0.906080	0	0
418.826965	0.792245	city	7	1	0.744669	0.744669	0	1	0	0	CorrectCommission	1.569833	0.919118	0	0
419.619171	0.792210	city	10	1	0.745056	0.745056	0	1	0	0	CorrectCommission	1.573606	0.927622	0	0
420.411469	0.792376	mountain	10	0	0.000000	0.652570	1	0	0	0	CorrectOmission	0.672696	0.930720	0	0
421.203796	0.792254	city	2	1	0.546632	0.546632	0	1	0	0	CorrectCommission	0.359251	0.928030	0	0
421.996002	0.792196	city	10	1	0.506663	0.506663	0	1	0	0	CorrectCommission	0.748594	0.919554	0	0
422.788239	0.792238	mountain	8	1	0.450426	0.450426	0	0	1	0	CommissionError	1.296396	0.905566	0	0
423.580536	0.792369	city	6	1	0.497462	0.497462	0	1	0	0	CorrectCommission	0.838223	0.886552	0	0
424.372803	0.792202	city	4	1	0.645600	0.645600	0	1	0	0	CorrectCommission	0.604798	0.863146	0	1
425.165131	0.792438	city	5	1	0.744774	0.744774	0	1	0	0	CorrectCommission	1.570857	0.836060	0	1
425.957428	0.792156	city	2	1	0.699120	0.699120	0	1	0	0	CorrectCommission	1.126137	0.806073	0	1
426.749603	0.792158	city	8	1	0.663971	0.663971	0	1	0	0	CorrectCommission	0.783747	0.774059	0	1
427.541809	0.792265	city	3	1	0.648318	0.648318	0	1	0	0	CorrectCommission	0.631271	0.740934	0	1
428.334076	0.792263	city	5	1	0.596700	0.596700	0	1	0	0	CorrectCommission	0.128457	0.707608	0	1
429.126343	0.792265	city	1	1	0.596326	0.596326	0	1	0	0	CorrectCommission	0.124818	0.674943	0	1
429.918610	0.792270	city	5	1	0.758492	0.758492	0	1	0	0	CorrectCommission	1.704482	0.643659	1	1
430.710876	0.792312	city	3	1	0.645792	0.645792	0	1	0	0	CorrectCommission	0.606665	0.614254	1	1
431.503265	0.792429	city	1	1	0.614577	0.614577	0	1	0	0	CorrectCommission	0.302598	0.587040	1	1
432.295502	0.792050	city	4	1	0.596047	0.596047	0	1	0	0	CorrectCommission	0.122097	0.562080	1	1
433.087677	0.792298	city	3	1	0.596249	0.596249	0	1	0	0	CorrectCommission	0.124067	0.539227	1	1
433.879944	0.792230	city	9	1	0.656508	0.656508	0	1	0	0	CorrectCommission	0.711049	0.518178	1	1
434.672180	0.792268	city	4	1	0.695279	0.695279	0	1	0	0	CorrectCommission	1.088724	0.498580	1	1
435.464508	0.792367	mountain	10	0	0.000000	0.658485	1	0	0	0	CorrectOmission	0.730311	0.480117	1	1
436.256775	0.792157	city	6	1	0.596460	0.596460	0	1	0	0	CorrectCommission	0.126121	0.462603	1	1
437.048981	0.792264	city	7	1	0.559538	0.559538	0	1	0	0	CorrectCommission	0.233533	0.446013	1	1
437.841248	0.792263	city	9	1	0.548151	0.548151	0	1	0	0	CorrectCommission	0.344460	0.430509	1	1
438.633545	0.792374	city	5	1	0.499730	0.499730	0	1	0	0	CorrectCommission	0.816124	0.416418	1	1
439.425812	0.792161	mountain	2	0	0.000000	0.548283	1	0	0	0	CorrectOmission	0.343172	0.404146	1	1
440.218079	0.792369	city	2	1	0.596396	0.596396	0	1	0	0	CorrectCommission	0.125502	0.394117	1	1
441.010406	0.792265	city	6	1	0.546659	0.546659	0	1	0	0	CorrectCommission	0.358994	0.386690	1	1
441.802612	0.792159	city	7	1	0.546767	0.546767	0	1	0	0	CorrectCommission	0.357938	0.382053	1	1
442.594818	0.792266	mountain	10	0	0.000000	0.549632	1	0	0	0	CorrectOmission	0.330028	0.380187	1	1
443.387085	0.792264	city	7	1	0.563434	0.563434	0	1	0	0	CorrectCommission	0.195585	0.380856	1	1
444.179474	0.792479	city	4	1	0.596352	0.596352	0	1	0	0	CorrectCommission	0.125073	0.383643	1	1
444.971771	0.792155	city	8	1	0.546570	0.546570	0	1	0	0	CorrectCommission	0.359858	0.388011	1	1
445.763947	0.792160	city	9	1	0.497087	0.497087	0	1	0	0	CorrectCommission	0.841872	0.393421	1	1
446.556152	0.792263	city	1	1	0.548302	0.548302	0	1	0	0	CorrectCommission	0.342985	0.399460	1	1
447.348419	0.792268	city	7	1	0.547324	0.547324	0	1	0	0	CorrectCommission	0.352512	0.405938	1	1
448.140686	0.792264	city	2	1	0.657290	0.657290	0	1	0	0	CorrectCommission	0.718668	0.412973	1	1
448.932953	0.792260	city	10	1	0.562502	0.562502	0	1	0	0	CorrectCommission	0.204665	0.420982	1	1
449.725250	0.792328	city	6	1	0.645931	0.645931	0	1	0	0	CorrectCommission	0.608019	0.430695	1	1
450.517548	0.792310	city	1	1	0.611086	0.611086	0	1	0	0	CorrectCommission	0.268593	0.443017	1	1
451.309784	0.792157	city	9	1	0.646131	0.646131	0	1	0	0	CorrectCommission	0.609966	0.458914	1	1
452.102020	0.792266	city	7	1	0.560431	0.560431	0	1	0	0	CorrectCommission	0.224833	0.479232	1	1
452.894257	0.792267	city	8	1	0.596269	0.596269	0	1	0	0	CorrectCommission	0.124267	0.504556	1	1
453.686523	0.792266	city	7	1	0.645854	0.645854	0	1	0	0	CorrectCommission	0.607270	0.535108	1	1
454.478790	0.792259	city	8	1	0.596409	0.596409	0	1	0	0	CorrectCommission	0.125628	0.570679	1	1
455.271057	0.792276	city	9	1	0.599954	0.599954	0	1	0	0	CorrectCommission	0.160155	0.610657	1	1
456.063385	0.792364	city	4	1	0.695301	0.695301	0	1	0	0	CorrectCommission	1.088941	0.654081	1	1
456.855682	0.792206	city	9	1	0.646352	0.646352	0	1	0	0	CorrectCommission	0.612121	0.699753	0	1
457.647980	0.792432	mountain	4	0	0.000000	0.699767	1	0	0	0	CorrectOmission	1.132441	0.746384	0	1
458.440216	0.792047	city	4	1	0.701470	0.701470	0	1	0	0	CorrectCommission	1.149027	0.792687	0	1
459.232391	0.792267	city	10	1	0.497382	0.497382	0	1	0	0	CorrectCommission	0.838996	0.837429	0	1
460.024658	0.792292	mountain	9	0	0.000000	0.525969	1	0	0	0	CorrectOmission	0.560528	0.879485	0	1
460.816925	0.792236	city	6	1	0.646092	0.646092	0	1	0	0	CorrectCommission	0.609594	0.917817	0	1
461.609192	0.792269	mountain	1	0	0.000000	0.716613	1	0	0	0	CorrectOmission	1.296533	0.951424	0	1
462.401459	0.792259	mountain	2	0	0.000000	0.734141	1	0	0	0	CorrectOmission	1.467281	0.979332	0	1
463.193726	0.792295	city	7	1	0.695290	0.695290	0	1	0	0	CorrectCommission	1.088831	1.000584	0	1
463.985992	0.792241	city	5	1	0.596671	0.596671	0	1	0	0	CorrectCommission	0.128177	1.014341	0	1
464.778259	0.792280	city	8	1	0.497379	0.497379	0	1	0	0	CorrectCommission	0.839022	1.019947	0	1
465.570618	0.792464	mountain	4	1	0.399425	0.399425	0	0	1	0	CommissionError	1.793203	1.017002	0	1
466.362885	0.792049	city	1	1	0.794199	0.794199	0	1	0	0	CorrectCommission	2.052303	1.005505	0	1
467.155060	0.792288	city	10	1	0.803829	0.803829	0	1	0	0	CorrectCommission	2.146108	0.985919	0	1
467.947418	0.792454	city	1	1	0.603978	0.603978	0	1	0	0	CorrectCommission	0.199354	0.959149	0	1
468.739685	0.792050	city	7	1	0.553388	0.553388	0	1	0	0	CorrectCommission	0.293445	0.926498	0	1
469.531891	0.792371	city	10	1	0.497885	0.497885	0	1	0	0	CorrectCommission	0.834097	0.889458	0	1
470.324158	0.792203	city	2	1	0.546612	0.546612	0	1	0	0	CorrectCommission	0.359451	0.849590	0	1
471.116486	0.792442	city	10	1	0.695224	0.695224	0	1	0	0	CorrectCommission	1.088188	0.808411	0	1
471.908752	0.792048	city	9	1	0.713834	0.713834	0	1	0	0	CorrectCommission	1.269470	0.767227	0	1
472.700989	0.792474	city	4	1	0.604060	0.604060	0	1	0	0	CorrectCommission	0.200153	0.727109	0	1
473.493378	0.792266	city	3	1	0.755564	0.755564	0	1	0	0	CorrectCommission	1.675963	0.688905	0	1
474.285583	0.792133	city	5	1	0.596467	0.596467	0	1	0	0	CorrectCommission	0.126196	0.653178	1	1
475.077728	0.792180	city	4	1	0.597083	0.597083	0	1	0	0	CorrectCommission	0.132197	0.620337	1	1
475.869965	0.792305	city	7	1	0.645773	0.645773	0	1	0	0	CorrectCommission	0.606482	0.590598	1	1
476.662354	0.792441	mountain	1	0	0.000000	0.563476	1	0	0	0	CorrectOmission	0.195175	0.564061	1	1
477.454681	0.792263	city	5	1	0.497023	0.497023	0	1	0	0	CorrectCommission	0.842493	0.540814	1	1
478.246918	0.792156	mountain	8	0	0.000000	0.593245	1	0	0	0	CorrectOmission	0.094806	0.520958	1	1
479.039062	0.792155	city	7	1	0.695148	0.695148	0	1	0	0	CorrectCommission	1.087444	0.504721	1	1
479.831268	0.792269	city	5	1	0.645738	0.645738	0	1	0	0	CorrectCommission	0.606141	0.492424	1	1
480.623535	0.792287	city	3	1	0.645797	0.645797	0	1	0	0	CorrectCommission	0.606715	0.484566	1	1
481.415833	0.792292	city	9	1	0.596242	0.596242	0	1	0	0	CorrectCommission	0.124001	0.481688	1	1
482.208099	0.792226	city	8	1	0.546955	0.546955	0	1	0	0	CorrectCommission	0.356102	0.484293	1	1
483.000397	0.792360	city	10	1	0.596352	0.596352	0	1	0	0	CorrectCommission	0.125068	0.492664	1	1
483.792694	0.792236	mountain	2	0	0.000000	0.612967	1	0	0	0	CorrectOmission	0.286923	0.506790	1	1
484.584900	0.792185	city	4	1	0.596517	0.596517	0	1	0	0	CorrectCommission	0.126680	0.526245	1	1
485.377167	0.792372	city	2	1	0.546715	0.546715	0	1	0	0	CorrectCommission	0.358439	0.550184	1	1
486.169434	0.792171	city	3	1	0.744755	0.744755	0	1	0	0	CorrectCommission	1.570671	0.577381	1	1
486.961670	0.792279	city	4	1	0.645750	0.645750	0	1	0	0	CorrectCommission	0.606260	0.606260	1	1
