onset	duration	trial_type	image_type	Press	ReactionTime	ReactionTime_Interpolated	CorrectOmission	CorrectCommission	CommissionError	OmissionError	response_type	nonsmoothVarianceTimeCourse	VarianceTimeCourse	In_the_Zone	Reward_trial
8.433893	0.792050	city	5	1	0.613246	0.613246	0	1	0	0	CorrectCommission	0.019238	0.019238	1	1
9.226050	0.792265	city	8	1	0.554007	0.554007	0	1	0	0	CorrectCommission	0.769246	0.119016	1	1
10.018357	0.792350	city	2	1	0.462124	0.462124	0	1	0	0	CorrectCommission	1.932553	0.212715	1	1
10.810621	0.792178	mountain	7	1	0.413841	0.413841	0	0	1	0	CommissionError	2.543856	0.295117	1	1
11.602952	0.792483	city	8	1	0.646348	0.646348	0	1	0	0	CorrectCommission	0.399869	0.362564	1	1
12.395244	0.792100	city	9	1	0.596348	0.596348	0	1	0	0	CorrectCommission	0.233170	0.413420	1	1
13.187402	0.792216	city	4	1	0.596151	0.596151	0	1	0	0	CorrectCommission	0.235668	0.448068	1	1
13.979693	0.792369	city	8	1	0.547238	0.547238	0	1	0	0	CorrectCommission	0.854947	0.468730	1	1
14.772010	0.792264	city	6	1	0.645659	0.645659	0	1	0	0	CorrectCommission	0.391138	0.478980	1	1
15.564261	0.792239	city	1	1	0.596245	0.596245	0	1	0	0	CorrectCommission	0.234477	0.483186	1	1
16.356525	0.792290	city	7	1	0.596847	0.596847	0	1	0	0	CorrectCommission	0.226863	0.485834	1	1
17.148804	0.792265	city	5	1	0.645545	0.645545	0	1	0	0	CorrectCommission	0.389697	0.490957	1	1
17.941013	0.792154	city	9	1	0.645622	0.645622	0	1	0	0	CorrectCommission	0.390667	0.501667	1	1
18.733225	0.792266	city	7	1	0.562083	0.562083	0	1	0	0	CorrectCommission	0.666994	0.519857	1	1
19.525543	0.792374	city	5	1	0.600951	0.600951	0	1	0	0	CorrectCommission	0.174899	0.546021	1	1
20.317808	0.792154	city	10	1	0.610514	0.610514	0	1	0	0	CorrectCommission	0.053823	0.579288	1	1
21.110126	0.792485	mountain	2	0	0.000000	0.613059	1	0	0	0	CorrectOmission	0.021605	0.617557	1	1
21.902393	0.792048	city	6	1	0.595995	0.595995	0	1	0	0	CorrectCommission	0.237645	0.657846	0	1
22.694603	0.792371	city	3	1	0.546733	0.546733	0	1	0	0	CorrectCommission	0.861338	0.696703	0	1
23.486866	0.792154	city	4	1	0.504046	0.504046	0	1	0	0	CorrectCommission	1.401795	0.730740	0	1
24.279076	0.792265	city	3	1	0.794286	0.794286	0	1	0	0	CorrectCommission	2.272875	0.757052	0	1
25.071342	0.792269	city	7	1	0.596254	0.596254	0	1	0	0	CorrectCommission	0.234369	0.773585	0	1
25.863661	0.792370	city	5	1	0.501014	0.501014	0	1	0	0	CorrectCommission	1.440178	0.779457	0	1
26.655979	0.792265	city	6	1	0.497080	0.497080	0	1	0	0	CorrectCommission	1.489987	0.774872	0	1
27.448244	0.792267	city	4	1	0.546595	0.546595	0	1	0	0	CorrectCommission	0.863083	0.761069	0	1
28.240456	0.792155	city	10	1	0.596163	0.596163	0	1	0	0	CorrectCommission	0.235513	0.740026	0	1
29.032665	0.792264	city	1	1	0.600184	0.600184	0	1	0	0	CorrectCommission	0.184615	0.714132	0	1
29.825039	0.792483	city	9	1	0.645716	0.645716	0	1	0	0	CorrectCommission	0.391861	0.685816	0	1
30.617319	0.792079	city	1	1	0.546505	0.546505	0	1	0	0	CorrectCommission	0.864224	0.657214	0	1
31.409529	0.792340	city	7	1	0.549081	0.549081	0	1	0	0	CorrectCommission	0.831613	0.629988	1	1
32.201778	0.792156	city	2	1	0.596128	0.596128	0	1	0	0	CorrectCommission	0.235957	0.605293	1	1
32.993992	0.792270	city	3	1	0.596301	0.596301	0	1	0	0	CorrectCommission	0.233766	0.583799	1	1
33.786308	0.792369	city	10	1	0.552794	0.552794	0	1	0	0	CorrectCommission	0.784603	0.565780	1	1
34.578571	0.792157	city	9	1	0.708897	0.708897	0	1	0	0	CorrectCommission	1.191779	0.551256	1	1
35.370892	0.792482	city	10	1	0.659439	0.659439	0	1	0	0	CorrectCommission	0.565608	0.540114	1	1
36.163158	0.792050	city	8	1	0.612148	0.612148	0	1	0	0	CorrectCommission	0.033141	0.532224	1	1
36.955421	0.792479	city	2	1	0.596642	0.596642	0	1	0	0	CorrectCommission	0.229458	0.527429	1	1
37.747688	0.792054	city	10	1	0.596041	0.596041	0	1	0	0	CorrectCommission	0.237064	0.525520	1	1
38.539848	0.792262	city	4	1	0.695311	0.695311	0	1	0	0	CorrectCommission	1.019771	0.526204	1	1
39.332142	0.792326	city	2	1	0.558848	0.558848	0	1	0	0	CorrectCommission	0.707955	0.529016	1	1
40.124416	0.792227	city	1	1	0.596553	0.596553	0	1	0	0	CorrectCommission	0.230578	0.533299	1	1
40.916759	0.792457	city	3	1	0.659624	0.659624	0	1	0	0	CorrectCommission	0.567949	0.538184	1	1
41.709011	0.792049	city	9	1	0.645505	0.645505	0	1	0	0	CorrectCommission	0.389195	0.542586	1	1
42.501278	0.792480	city	1	1	0.600356	0.600356	0	1	0	0	CorrectCommission	0.182426	0.545364	1	1
43.293541	0.792048	city	5	1	0.645533	0.645533	0	1	0	0	CorrectCommission	0.389542	0.545409	1	1
44.085697	0.792263	city	4	1	0.645765	0.645765	0	1	0	0	CorrectCommission	0.392477	0.541832	1	1
44.878014	0.792372	city	10	1	0.794427	0.794427	0	1	0	0	CorrectCommission	2.274656	0.534134	1	1
45.670334	0.792266	city	1	1	0.546824	0.546824	0	1	0	0	CorrectCommission	0.860190	0.522290	1	1
46.462566	0.792204	city	8	1	0.596241	0.596241	0	1	0	0	CorrectCommission	0.234534	0.506858	1	1
47.254776	0.792216	city	1	1	0.645710	0.645710	0	1	0	0	CorrectCommission	0.391788	0.488859	1	1
48.047127	0.792483	city	5	1	0.608753	0.608753	0	1	0	0	CorrectCommission	0.076118	0.469633	1	1
48.839394	0.792049	city	8	1	0.606847	0.606847	0	1	0	0	CorrectCommission	0.100245	0.450671	1	1
49.631657	0.792481	city	6	1	0.645712	0.645712	0	1	0	0	CorrectCommission	0.391815	0.433427	1	1
50.423920	0.792046	city	9	1	0.614839	0.614839	0	1	0	0	CorrectCommission	0.000933	0.419117	1	1
51.216076	0.792266	city	3	1	0.695327	0.695327	0	1	0	0	CorrectCommission	1.019980	0.408631	1	1
52.008362	0.792304	city	7	1	0.646329	0.646329	0	1	0	0	CorrectCommission	0.399620	0.402434	1	1
52.800644	0.792261	city	9	1	0.596187	0.596187	0	1	0	0	CorrectCommission	0.235217	0.400633	1	1
53.592911	0.792271	city	3	1	0.596200	0.596200	0	1	0	0	CorrectCommission	0.235044	0.402984	1	1
54.385265	0.792440	city	7	1	0.596194	0.596194	0	1	0	0	CorrectCommission	0.235131	0.408951	1	1
55.177563	0.792156	city	1	1	0.596020	0.596020	0	1	0	0	CorrectCommission	0.237333	0.417818	1	1
55.969734	0.792182	city	9	1	0.645633	0.645633	0	1	0	0	CorrectCommission	0.390808	0.428750	1	1
56.762051	0.792457	city	5	1	0.546665	0.546665	0	1	0	0	CorrectCommission	0.862200	0.440910	1	1
57.554413	0.792265	city	9	1	0.596199	0.596199	0	1	0	0	CorrectCommission	0.235059	0.453540	1	1
58.346569	0.792048	city	4	1	0.597003	0.597003	0	1	0	0	CorrectCommission	0.224878	0.466032	1	1
59.138779	0.792370	city	5	1	0.549646	0.549646	0	1	0	0	CorrectCommission	0.824466	0.477932	1	1
59.931053	0.792174	city	2	1	0.547179	0.547179	0	1	0	0	CorrectCommission	0.855691	0.488925	1	1
60.723270	0.792262	city	1	1	0.546723	0.546723	0	1	0	0	CorrectCommission	0.861469	0.498793	1	1
61.515564	0.792326	city	5	1	0.596221	0.596221	0	1	0	0	CorrectCommission	0.234778	0.507335	1	1
62.307823	0.792191	city	7	1	0.606024	0.606024	0	1	0	0	CorrectCommission	0.110675	0.514247	1	1
63.100048	0.792264	city	5	1	0.598267	0.598267	0	1	0	0	CorrectCommission	0.208878	0.519103	1	1
63.892311	0.792262	city	10	1	0.609654	0.609654	0	1	0	0	CorrectCommission	0.064711	0.521346	1	1
64.684578	0.792266	city	7	1	0.695267	0.695267	0	1	0	0	CorrectCommission	1.019221	0.520359	1	1
65.476952	0.792485	city	3	1	0.546918	0.546918	0	1	0	0	CorrectCommission	0.858993	0.515576	1	1
66.269218	0.792046	city	9	1	0.548668	0.548668	0	1	0	0	CorrectCommission	0.836844	0.506664	1	1
67.061371	0.792267	city	10	1	0.547986	0.547986	0	1	0	0	CorrectCommission	0.845472	0.493650	1	1
67.853638	0.792262	city	6	1	0.560373	0.560373	0	1	0	0	CorrectCommission	0.688645	0.477015	1	0
68.645958	0.792374	city	8	1	0.645816	0.645816	0	1	0	0	CorrectCommission	0.393124	0.457696	1	0
69.438332	0.792373	city	10	1	0.599666	0.599666	0	1	0	0	CorrectCommission	0.191170	0.437020	1	0
70.230537	0.792047	city	6	1	0.654793	0.654793	0	1	0	0	CorrectCommission	0.506787	0.416528	1	0
71.022728	0.792336	city	5	1	0.606619	0.606619	0	1	0	0	CorrectCommission	0.103141	0.397794	1	0
71.814995	0.792195	city	4	1	0.596149	0.596149	0	1	0	0	CorrectCommission	0.235698	0.382234	1	0
72.607224	0.792265	city	9	1	0.597876	0.597876	0	1	0	0	CorrectCommission	0.213831	0.370906	1	0
73.399490	0.792267	city	4	1	0.596223	0.596223	0	1	0	0	CorrectCommission	0.234763	0.364439	1	0
74.191757	0.792263	city	5	1	0.612669	0.612669	0	1	0	0	CorrectCommission	0.026543	0.363013	1	0
74.984024	0.792273	city	2	1	0.646169	0.646169	0	1	0	0	CorrectCommission	0.397599	0.366425	1	0
75.776291	0.792256	city	10	1	0.645800	0.645800	0	1	0	0	CorrectCommission	0.392926	0.374180	1	0
76.568604	0.792370	city	3	1	0.558730	0.558730	0	1	0	0	CorrectCommission	0.709443	0.385625	1	0
77.360924	0.792265	city	6	1	0.646182	0.646182	0	1	0	0	CorrectCommission	0.397768	0.400090	1	0
78.153130	0.792160	city	7	1	0.596113	0.596113	0	1	0	0	CorrectCommission	0.236147	0.416983	1	0
78.945343	0.792265	city	2	1	0.596188	0.596188	0	1	0	0	CorrectCommission	0.235199	0.435855	1	0
79.737663	0.792368	city	4	1	0.564769	0.564769	0	1	0	0	CorrectCommission	0.632994	0.456382	1	0
80.529976	0.792266	mountain	6	1	0.551055	0.551055	0	0	1	0	CommissionError	0.806624	0.478294	1	0
81.322189	0.792159	city	2	1	0.645676	0.645676	0	1	0	0	CorrectCommission	0.391362	0.501338	1	0
82.114403	0.792265	city	8	1	0.645745	0.645745	0	1	0	0	CorrectCommission	0.392224	0.525177	1	0
82.906670	0.792267	city	10	1	0.605766	0.605766	0	1	0	0	CorrectCommission	0.113937	0.549373	1	0
83.698936	0.792259	city	5	1	0.650459	0.650459	0	1	0	0	CorrectCommission	0.451906	0.573419	1	0
84.491196	0.792264	city	9	1	0.565183	0.565183	0	1	0	0	CorrectCommission	0.627751	0.596819	1	0
85.283463	0.792266	city	5	1	0.601704	0.601704	0	1	0	0	CorrectCommission	0.165362	0.619242	1	0
86.075729	0.792267	mountain	1	1	0.497244	0.497244	0	0	1	0	CommissionError	1.487911	0.640782	1	0
86.867989	0.792262	city	8	1	0.746165	0.746165	0	1	0	0	CorrectCommission	1.663628	0.662072	0	0
87.660263	0.792290	city	9	1	0.660131	0.660131	0	1	0	0	CorrectCommission	0.574365	0.684470	0	0
88.452637	0.792457	city	4	1	0.609687	0.609687	0	1	0	0	CorrectCommission	0.064293	0.710094	0	0
89.244949	0.792157	city	2	1	0.561092	0.561092	0	1	0	0	CorrectCommission	0.679542	0.741663	0	0
90.037102	0.792153	city	5	1	0.553447	0.553447	0	1	0	0	CorrectCommission	0.776338	0.782275	0	0
90.829315	0.792271	city	9	1	0.553185	0.553185	0	1	0	0	CorrectCommission	0.779647	0.835094	0	0
91.621590	0.792286	city	3	1	0.596314	0.596314	0	1	0	0	CorrectCommission	0.233610	0.902937	0	0
92.413857	0.792239	city	7	1	0.553570	0.553570	0	1	0	0	CorrectCommission	0.774779	0.987897	0	0
93.206108	0.792266	city	6	1	0.599776	0.599776	0	1	0	0	CorrectCommission	0.189777	1.090959	0	0
93.998375	0.792266	city	8	1	0.554004	0.554004	0	1	0	0	CorrectCommission	0.769283	1.211745	0	0
94.790665	0.792313	city	7	1	0.502786	0.502786	0	1	0	0	CorrectCommission	1.417745	1.348369	0	0
95.582977	0.792321	city	10	1	0.546700	0.546700	0	1	0	0	CorrectCommission	0.861752	1.497466	0	0
96.375221	0.792161	city	4	1	0.503815	0.503815	0	1	0	0	CorrectCommission	1.404711	1.654377	0	0
97.167435	0.792263	city	10	1	0.504917	0.504917	0	1	0	0	CorrectCommission	1.390765	1.813392	0	0
97.959694	0.792264	city	5	1	0.423823	0.423823	0	1	0	0	CorrectCommission	2.417472	1.968184	0	0
98.751961	0.792267	city	10	1	0.348691	0.348691	0	1	0	0	CorrectCommission	3.368702	2.112233	0	0
99.544228	0.792261	mountain	6	1	0.357979	0.357979	0	0	1	0	CommissionError	3.251111	2.239243	0	0
100.336487	0.792265	city	3	1	0.471052	0.471052	0	1	0	0	CorrectCommission	1.819521	2.343608	0	0
101.128754	0.792267	city	7	1	0.398172	0.398172	0	1	0	0	CorrectCommission	2.742246	2.420684	0	0
101.921127	0.792478	city	3	1	0.367533	0.367533	0	1	0	0	CorrectCommission	3.130159	2.467019	0	0
102.713425	0.792115	city	2	1	0.358007	0.358007	0	1	0	0	CorrectCommission	3.250757	2.480614	0	0
103.505600	0.792235	city	10	1	0.348667	0.348667	0	1	0	0	CorrectCommission	3.369017	2.460999	0	0
104.297943	0.792445	city	7	1	0.400513	0.400513	0	1	0	0	CorrectCommission	2.712605	2.409278	0	0
105.090225	0.792121	city	10	1	0.397968	0.397968	0	1	0	0	CorrectCommission	2.744817	2.328134	0	0
105.882484	0.792408	city	2	1	0.398064	0.398064	0	1	0	0	CorrectCommission	2.743601	2.221669	0	0
106.674736	0.792087	city	4	1	0.452174	0.452174	0	1	0	0	CorrectCommission	2.058532	2.095143	0	0
107.466888	0.792225	city	7	1	0.411600	0.411600	0	1	0	0	CorrectCommission	2.572227	1.954661	0	0
108.259247	0.792484	city	2	1	0.398201	0.398201	0	1	0	0	CorrectCommission	2.741867	1.806674	0	0
109.051544	0.792108	city	3	1	0.702500	0.702500	0	1	0	0	CorrectCommission	1.110796	1.657509	0	0
109.843727	0.792259	city	9	1	0.662731	0.662731	0	1	0	0	CorrectCommission	0.607279	1.512827	0	0
110.636017	0.792315	city	10	1	0.562636	0.562636	0	1	0	0	CorrectCommission	0.659996	1.377183	0	0
111.428360	0.792373	city	4	1	0.650113	0.650113	0	1	0	0	CorrectCommission	0.447536	1.253661	0	0
112.220566	0.792048	city	2	1	0.609575	0.609575	0	1	0	0	CorrectCommission	0.065706	1.143806	0	0
113.012726	0.792266	city	3	1	0.657752	0.657752	0	1	0	0	CorrectCommission	0.544252	1.047783	0	0
113.805046	0.792372	city	6	1	0.751126	0.751126	0	1	0	0	CorrectCommission	1.726431	0.964664	0	0
114.597321	0.792176	city	1	1	0.699557	0.699557	0	1	0	0	CorrectCommission	1.073536	0.892899	0	0
115.389580	0.792355	city	3	1	0.801301	0.801301	0	1	0	0	CorrectCommission	2.361689	0.830837	0	0
116.181839	0.792157	city	6	1	0.656920	0.656920	0	1	0	0	CorrectCommission	0.533708	0.777014	0	0
116.974052	0.792274	city	7	1	0.610521	0.610521	0	1	0	0	CorrectCommission	0.053738	0.730501	0	0
117.766319	0.792259	city	4	1	0.645726	0.645726	0	1	0	0	CorrectCommission	0.391993	0.690887	0	0
118.558617	0.792326	city	9	1	0.651607	0.651607	0	1	0	0	CorrectCommission	0.466443	0.658151	0	0
119.350906	0.792258	city	3	1	0.603209	0.603209	0	1	0	0	CorrectCommission	0.146312	0.632490	1	0
120.143143	0.792208	city	2	1	0.647265	0.647265	0	1	0	0	CorrectCommission	0.411471	0.614058	1	0
120.935371	0.792260	city	7	1	0.695347	0.695347	0	1	0	0	CorrectCommission	1.020223	0.602752	1	0
121.727676	0.792348	city	9	1	0.645766	0.645766	0	1	0	0	CorrectCommission	0.392498	0.598084	1	0
122.519974	0.792240	city	4	1	0.596217	0.596217	0	1	0	0	CorrectCommission	0.234834	0.599166	1	0
123.312195	0.792206	city	9	1	0.601807	0.601807	0	1	0	0	CorrectCommission	0.164055	0.604746	1	0
124.104431	0.792265	city	1	1	0.550551	0.550551	0	1	0	0	CorrectCommission	0.813007	0.613341	1	0
124.896751	0.792374	city	5	1	0.596266	0.596266	0	1	0	0	CorrectCommission	0.234214	0.623381	1	0
125.689018	0.792159	city	10	1	0.794651	0.794651	0	1	0	0	CorrectCommission	2.277498	0.633396	1	0
126.481224	0.792262	city	3	1	0.548733	0.548733	0	1	0	0	CorrectCommission	0.836016	0.642091	1	0
127.273544	0.792372	city	1	1	0.605276	0.605276	0	1	0	0	CorrectCommission	0.120135	0.648514	1	1
128.065842	0.792214	city	3	1	0.603474	0.603474	0	1	0	0	CorrectCommission	0.142959	0.651961	1	1
128.858078	0.792257	city	1	1	0.646756	0.646756	0	1	0	0	CorrectCommission	0.405024	0.652001	1	1
129.650330	0.792271	mountain	3	0	0.000000	0.570902	1	0	0	0	CorrectOmission	0.555336	0.648408	1	1
130.442581	0.792216	city	9	1	0.497137	0.497137	0	1	0	0	CorrectCommission	1.489263	0.641169	1	1
131.234863	0.792342	city	5	1	0.546682	0.546682	0	1	0	0	CorrectCommission	0.861985	0.630434	1	1
132.027130	0.792190	mountain	2	0	0.000000	0.568327	1	0	0	0	CorrectOmission	0.587940	0.616629	1	1
132.819351	0.792255	city	4	1	0.596740	0.596740	0	1	0	0	CorrectCommission	0.228213	0.600402	1	1
133.611603	0.792264	mountain	8	0	0.000000	0.666587	1	0	0	0	CorrectOmission	0.656110	0.582660	1	1
134.403870	0.792278	city	5	1	0.706656	0.706656	0	1	0	0	CorrectCommission	1.163408	0.564536	1	1
135.196136	0.792252	city	2	1	0.645732	0.645732	0	1	0	0	CorrectCommission	0.392061	0.547306	1	1
135.988510	0.792482	city	7	1	0.649267	0.649267	0	1	0	0	CorrectCommission	0.436826	0.532310	1	1
136.780884	0.792265	city	6	1	0.600918	0.600918	0	1	0	0	CorrectCommission	0.175316	0.520845	1	1
137.573090	0.792158	city	1	1	0.609961	0.609961	0	1	0	0	CorrectCommission	0.060823	0.513991	1	1
138.365280	0.792215	city	6	1	0.553312	0.553312	0	1	0	0	CorrectCommission	0.778040	0.512530	1	1
139.157501	0.792240	city	2	1	0.596649	0.596649	0	1	0	0	CorrectCommission	0.229363	0.516872	1	1
139.949768	0.792288	city	8	1	0.645721	0.645721	0	1	0	0	CorrectCommission	0.391923	0.527065	1	1
140.742035	0.792251	city	2	1	0.649109	0.649109	0	1	0	0	CorrectCommission	0.434817	0.542763	1	1
141.534286	0.792228	city	7	1	0.649913	0.649913	0	1	0	0	CorrectCommission	0.445005	0.563288	1	1
142.326584	0.792366	city	6	1	0.695207	0.695207	0	1	0	0	CorrectCommission	1.018459	0.587722	1	1
143.118896	0.792266	city	8	1	0.607402	0.607402	0	1	0	0	CorrectCommission	0.093222	0.614918	1	1
143.911163	0.792262	city	2	1	0.497739	0.497739	0	1	0	0	CorrectCommission	1.481637	0.643647	1	1
144.703369	0.792156	city	8	1	0.602785	0.602785	0	1	0	0	CorrectCommission	0.151680	0.672561	0	1
145.495636	0.792373	city	9	1	0.650492	0.650492	0	1	0	0	CorrectCommission	0.452325	0.700332	0	1
146.288010	0.792374	city	4	1	0.645604	0.645604	0	1	0	0	CorrectCommission	0.390443	0.725601	0	1
147.080261	0.792155	city	10	1	0.695023	0.695023	0	1	0	0	CorrectCommission	1.016124	0.747076	0	1
147.872421	0.792163	city	6	1	0.753797	0.753797	0	1	0	0	CorrectCommission	1.760253	0.763556	0	1
148.664642	0.792267	city	3	1	0.656069	0.656069	0	1	0	0	CorrectCommission	0.522945	0.774027	0	1
149.456909	0.792262	city	5	1	0.695886	0.695886	0	1	0	0	CorrectCommission	1.027060	0.777763	0	1
150.249161	0.792258	city	8	1	0.661590	0.661590	0	1	0	0	CorrectCommission	0.592837	0.774304	0	1
151.041489	0.792375	city	2	1	0.600652	0.600652	0	1	0	0	CorrectCommission	0.178688	0.763565	0	1
151.833862	0.792373	city	4	1	0.800460	0.800460	0	1	0	0	CorrectCommission	2.351041	0.745827	0	1
152.626175	0.792267	city	10	1	0.645544	0.645544	0	1	0	0	CorrectCommission	0.389681	0.721711	0	1
153.418365	0.792108	city	4	1	0.651176	0.651176	0	1	0	0	CorrectCommission	0.460991	0.692300	0	1
154.210526	0.792208	city	3	1	0.652256	0.652256	0	1	0	0	CorrectCommission	0.474660	0.658989	0	1
155.002808	0.792368	city	2	1	0.695388	0.695388	0	1	0	0	CorrectCommission	1.020743	0.623463	1	1
155.795074	0.792158	city	8	1	0.660507	0.660507	0	1	0	0	CorrectCommission	0.579125	0.587603	1	1
156.587387	0.792482	city	1	1	0.660225	0.660225	0	1	0	0	CorrectCommission	0.575558	0.553424	1	1
157.379761	0.792265	city	8	1	0.645520	0.645520	0	1	0	0	CorrectCommission	0.389384	0.522894	1	1
158.171982	0.792154	city	10	1	0.654416	0.654416	0	1	0	0	CorrectCommission	0.502011	0.497811	1	1
158.964188	0.792266	city	9	1	0.603292	0.603292	0	1	0	0	CorrectCommission	0.145262	0.479610	1	1
159.756454	0.792264	city	7	1	0.609537	0.609537	0	1	0	0	CorrectCommission	0.066190	0.469239	1	1
160.548660	0.792165	city	10	1	0.650307	0.650307	0	1	0	0	CorrectCommission	0.449987	0.467037	1	1
161.340881	0.792274	mountain	2	0	0.000000	0.636165	1	0	0	0	CorrectOmission	0.270944	0.472661	1	1
162.133148	0.792246	city	8	1	0.605385	0.605385	0	1	0	0	CorrectCommission	0.118765	0.485170	1	1
162.925461	0.792374	city	2	1	0.596236	0.596236	0	1	0	0	CorrectCommission	0.234589	0.503085	1	1
163.717712	0.792157	mountain	6	0	0.000000	0.653555	1	0	0	0	CorrectOmission	0.491105	0.524596	1	1
164.509949	0.792307	city	3	1	0.698536	0.698536	0	1	0	0	CorrectCommission	1.060606	0.547790	1	1
165.302216	0.792223	city	4	1	0.652378	0.652378	0	1	0	0	CorrectCommission	0.476204	0.570920	1	1
166.094467	0.792269	city	9	1	0.704340	0.704340	0	1	0	0	CorrectCommission	1.134083	0.592657	1	1
166.886734	0.792263	city	2	1	0.548532	0.548532	0	1	0	0	CorrectCommission	0.838569	0.612193	1	1
167.678986	0.792260	city	4	1	0.603962	0.603962	0	1	0	0	CorrectCommission	0.136777	0.629358	1	1
168.471252	0.792265	city	2	1	0.695240	0.695240	0	1	0	0	CorrectCommission	1.018880	0.644577	1	1
169.263519	0.792268	city	9	1	0.702806	0.702806	0	1	0	0	CorrectCommission	1.114671	0.658613	0	1
170.055893	0.792482	city	8	1	0.646274	0.646274	0	1	0	0	CorrectCommission	0.398923	0.672444	0	1
170.848175	0.792092	city	5	1	0.645524	0.645524	0	1	0	0	CorrectCommission	0.389435	0.686965	0	1
171.640335	0.792218	city	1	1	0.645681	0.645681	0	1	0	0	CorrectCommission	0.391420	0.702703	0	1
172.432617	0.792338	city	5	1	0.596216	0.596216	0	1	0	0	CorrectCommission	0.234851	0.719641	0	1
173.224884	0.792194	city	3	1	0.695158	0.695158	0	1	0	0	CorrectCommission	1.017842	0.737146	0	1
174.017136	0.792316	city	7	1	0.662427	0.662427	0	1	0	0	CorrectCommission	0.603433	0.753997	0	1
174.809402	0.792212	city	9	1	0.695187	0.695187	0	1	0	0	CorrectCommission	1.018201	0.768574	0	1
175.601746	0.792480	city	1	1	0.646172	0.646172	0	1	0	0	CorrectCommission	0.397634	0.779076	0	1
176.394058	0.792158	city	3	1	0.699734	0.699734	0	1	0	0	CorrectCommission	1.075776	0.783876	0	1
177.186279	0.792263	city	7	1	0.750067	0.750067	0	1	0	0	CorrectCommission	1.713027	0.781788	0	1
177.978592	0.792374	city	2	1	0.703739	0.703739	0	1	0	0	CorrectCommission	1.126483	0.772326	0	1
178.770859	0.792155	mountain	2	0	0.000000	0.692237	1	0	0	0	CorrectOmission	0.980852	0.755901	0	1
179.563019	0.792158	city	9	1	0.646398	0.646398	0	1	0	0	CorrectCommission	0.400492	0.733755	0	1
180.355225	0.792264	city	10	1	0.497060	0.497060	0	1	0	0	CorrectCommission	1.490242	0.707883	0	1
181.147522	0.792326	city	1	1	0.603455	0.603455	0	1	0	0	CorrectCommission	0.143199	0.680734	0	1
181.939789	0.792206	city	3	1	0.602580	0.602580	0	1	0	0	CorrectCommission	0.154269	0.655016	1	1
182.732025	0.792263	city	2	1	0.605790	0.605790	0	1	0	0	CorrectCommission	0.113628	0.633327	1	1
183.524338	0.792371	city	8	1	0.546707	0.546707	0	1	0	0	CorrectCommission	0.861671	0.617896	1	1
184.316635	0.792228	city	2	1	0.546616	0.546616	0	1	0	0	CorrectCommission	0.862827	0.610363	1	1
185.108841	0.792192	city	10	1	0.600935	0.600935	0	1	0	0	CorrectCommission	0.175106	0.611695	1	1
185.901077	0.792270	city	2	1	0.645908	0.645908	0	1	0	0	CorrectCommission	0.394293	0.622124	1	1
186.693451	0.792478	city	9	1	0.600877	0.600877	0	1	0	0	CorrectCommission	0.175839	0.641152	1	0
187.485764	0.792155	city	3	1	0.645530	0.645530	0	1	0	0	CorrectCommission	0.389513	0.667721	0	0
188.277924	0.792157	city	9	1	0.596296	0.596296	0	1	0	0	CorrectCommission	0.233830	0.700302	0	0
189.070160	0.792326	city	2	1	0.744857	0.744857	0	1	0	0	CorrectCommission	1.647064	0.737095	0	0
189.862427	0.792206	city	6	1	0.711668	0.711668	0	1	0	0	CorrectCommission	1.226869	0.776147	0	0
190.654663	0.792264	city	5	1	0.695258	0.695258	0	1	0	0	CorrectCommission	1.019102	0.815518	0	0
191.446945	0.792280	city	4	1	0.648429	0.648429	0	1	0	0	CorrectCommission	0.426215	0.853342	0	0
192.239197	0.792248	city	7	1	0.645733	0.645733	0	1	0	0	CorrectCommission	0.392081	0.887867	0	0
193.031464	0.792264	city	3	1	0.645751	0.645751	0	1	0	0	CorrectCommission	0.392311	0.917484	0	0
193.823730	0.792265	mountain	8	1	0.454170	0.454170	0	0	1	0	CommissionError	2.033262	0.940729	0	0
194.615997	0.792268	city	3	1	0.701959	0.701959	0	1	0	0	CorrectCommission	1.103940	0.956288	0	0
195.408249	0.792261	city	1	1	0.745841	0.745841	0	1	0	0	CorrectCommission	1.659527	0.963143	0	0
196.200516	0.792265	city	10	1	0.662811	0.662811	0	1	0	0	CorrectCommission	0.608304	0.960525	0	0
196.992783	0.792269	city	3	1	0.695230	0.695230	0	1	0	0	CorrectCommission	1.018745	0.948068	0	0
197.785065	0.792301	city	7	1	0.696419	0.696419	0	1	0	0	CorrectCommission	1.033801	0.925793	0	0
198.577332	0.792228	city	8	1	0.701976	0.701976	0	1	0	0	CorrectCommission	1.104152	0.894203	0	0
199.369583	0.792270	city	2	1	0.695242	0.695242	0	1	0	0	CorrectCommission	1.018903	0.854306	0	0
200.161957	0.792475	city	10	1	0.695253	0.695253	0	1	0	0	CorrectCommission	1.019042	0.807624	0	0
200.954208	0.792046	city	6	1	0.696075	0.696075	0	1	0	0	CorrectCommission	1.029452	0.756183	0	0
201.746429	0.792374	city	4	1	0.652225	0.652225	0	1	0	0	CorrectCommission	0.474274	0.702419	0	0
202.538803	0.792374	city	8	1	0.700152	0.700152	0	1	0	0	CorrectCommission	1.081062	0.649075	1	0
203.331070	0.792156	city	4	1	0.596041	0.596041	0	1	0	0	CorrectCommission	0.237061	0.599018	1	0
204.123215	0.792155	city	10	1	0.596427	0.596427	0	1	0	0	CorrectCommission	0.232180	0.555080	1	0
204.915482	0.792375	city	8	1	0.596637	0.596637	0	1	0	0	CorrectCommission	0.229520	0.519777	1	0
205.707764	0.792178	city	4	1	0.646605	0.646605	0	1	0	0	CorrectCommission	0.403122	0.495134	1	0
206.500076	0.792460	city	7	1	0.620329	0.620329	0	1	0	0	CorrectCommission	0.070447	0.482483	1	0
207.292389	0.792155	city	10	1	0.596054	0.596054	0	1	0	0	CorrectCommission	0.236896	0.482354	1	0
208.084549	0.792159	city	2	1	0.596259	0.596259	0	1	0	0	CorrectCommission	0.234303	0.494412	1	0
208.876816	0.792372	mountain	3	1	0.606782	0.606782	0	0	1	0	CommissionError	0.101073	0.517461	1	0
209.669083	0.792170	mountain	1	1	0.596869	0.596869	0	0	1	0	CommissionError	0.226584	0.549553	1	0
210.461349	0.792359	city	2	1	0.700818	0.700818	0	1	0	0	CorrectCommission	1.089499	0.588155	1	0
211.253616	0.792184	city	9	1	0.650755	0.650755	0	1	0	0	CorrectCommission	0.455656	0.630324	1	0
212.045822	0.792239	city	10	1	0.659885	0.659885	0	1	0	0	CorrectCommission	0.571253	0.673036	0	0
212.838074	0.792262	city	5	1	0.744995	0.744995	0	1	0	0	CorrectCommission	1.648816	0.713365	0	0
213.630402	0.792373	city	10	1	0.648188	0.648188	0	1	0	0	CorrectCommission	0.423155	0.748728	0	0
214.422653	0.792156	city	8	1	0.645808	0.645808	0	1	0	0	CorrectCommission	0.393024	0.777135	0	0
215.214874	0.792273	mountain	10	1	0.650073	0.650073	0	0	1	0	CommissionError	0.447023	0.797258	0	0
216.007141	0.792258	city	8	1	0.808129	0.808129	0	1	0	0	CorrectCommission	2.448136	0.808514	0	0
216.799408	0.792267	city	3	1	0.744913	0.744913	0	1	0	0	CorrectCommission	1.647774	0.811041	0	0
217.591675	0.792265	mountain	1	0	0.000000	0.634295	1	0	0	0	CorrectOmission	0.247258	0.805672	0	0
218.383957	0.792321	city	6	1	0.546594	0.546594	0	1	0	0	CorrectCommission	0.863098	0.793735	0	0
219.176331	0.792420	city	1	1	0.552132	0.552132	0	1	0	0	CorrectCommission	0.792979	0.776795	0	0
219.968567	0.792059	city	9	1	0.596061	0.596061	0	1	0	0	CorrectCommission	0.236814	0.756486	0	0
220.760757	0.792315	city	7	1	0.614478	0.614478	0	1	0	0	CorrectCommission	0.003639	0.734344	0	0
221.553024	0.792201	city	4	1	0.695892	0.695892	0	1	0	0	CorrectCommission	1.027133	0.711655	0	0
222.345261	0.792273	city	1	1	0.664519	0.664519	0	1	0	0	CorrectCommission	0.629928	0.689420	0	0
223.137527	0.792263	city	7	1	0.744770	0.744770	0	1	0	0	CorrectCommission	1.645967	0.668454	0	0
223.929779	0.792262	city	10	1	0.661721	0.661721	0	1	0	0	CorrectCommission	0.594497	0.649409	1	0
224.722046	0.792262	city	8	1	0.645811	0.645811	0	1	0	0	CorrectCommission	0.393065	0.632941	1	0
225.514420	0.792483	city	5	1	0.650589	0.650589	0	1	0	0	CorrectCommission	0.453563	0.619734	1	0
226.306702	0.792084	city	10	1	0.646128	0.646128	0	1	0	0	CorrectCommission	0.397080	0.610541	1	0
227.098862	0.792230	city	8	1	0.645675	0.645675	0	1	0	0	CorrectCommission	0.391342	0.606225	1	0
227.891220	0.792481	city	2	1	0.646592	0.646592	0	1	0	0	CorrectCommission	0.402955	0.607706	1	0
228.683487	0.792050	city	9	1	0.645586	0.645586	0	1	0	0	CorrectCommission	0.390213	0.615917	1	0
229.475677	0.792341	city	6	1	0.698670	0.698670	0	1	0	0	CorrectCommission	1.062297	0.631719	1	0
230.267975	0.792255	city	3	1	0.695055	0.695055	0	1	0	0	CorrectCommission	1.016527	0.655760	0	0
231.060196	0.792198	mountain	6	0	0.000000	0.615654	1	0	0	0	CorrectOmission	0.011250	0.688370	0	0
231.852432	0.792266	city	7	1	0.552142	0.552142	0	1	0	0	CorrectCommission	0.792861	0.729395	0	0
232.644714	0.792286	city	2	1	0.596193	0.596193	0	1	0	0	CorrectCommission	0.235134	0.777995	0	0
233.436966	0.792241	city	5	1	0.563386	0.563386	0	1	0	0	CorrectCommission	0.650498	0.832560	0	0
234.229340	0.792482	city	4	1	0.603701	0.603701	0	1	0	0	CorrectCommission	0.140087	0.890698	0	0
235.021606	0.792049	mountain	7	0	0.000000	0.687808	1	0	0	0	CorrectOmission	0.924784	0.949360	0	0
235.813751	0.792263	city	7	1	0.744770	0.744770	0	1	0	0	CorrectCommission	1.645966	1.004993	0	0
236.606018	0.792268	city	4	1	0.703647	0.703647	0	1	0	0	CorrectCommission	1.125313	1.053908	0	0
237.398315	0.792316	city	3	1	0.714238	0.714238	0	1	0	0	CorrectCommission	1.259402	1.092712	0	0
238.190689	0.792425	city	8	1	0.764670	0.764670	0	1	0	0	CorrectCommission	1.897917	1.118682	0	0
238.982925	0.792053	city	7	1	0.744529	0.744529	0	1	0	0	CorrectCommission	1.642913	1.130098	0	0
239.775085	0.792282	city	4	1	0.744788	0.744788	0	1	0	0	CorrectCommission	1.646186	1.126504	0	0
240.567459	0.792460	city	3	1	0.744752	0.744752	0	1	0	0	CorrectCommission	1.645735	1.108739	0	0
241.359741	0.792115	city	1	1	0.654641	0.654641	0	1	0	0	CorrectCommission	0.504858	1.078884	0	0
242.151917	0.792210	city	8	1	0.711450	0.711450	0	1	0	0	CorrectCommission	1.224100	1.039981	0	0
242.944138	0.792251	city	7	1	0.744936	0.744936	0	1	0	0	CorrectCommission	1.648067	0.995609	0	0
243.736404	0.792268	city	5	0	0.000000	0.682236	0	0	0	1	OmissionError	0.854232	0.949495	0	0
244.528671	0.792267	city	1	1	0.596201	0.596201	0	1	0	0	CorrectCommission	0.235035	0.905032	0	0
245.321045	0.792477	city	6	1	0.559685	0.559685	0	1	0	0	CorrectCommission	0.697362	0.864899	0	0
246.113297	0.792047	city	3	1	0.600824	0.600824	0	1	0	0	CorrectCommission	0.176504	0.830770	0	1
246.905457	0.792264	city	4	1	0.596218	0.596218	0	1	0	0	CorrectCommission	0.234815	0.803249	0	1
247.697784	0.792375	city	6	1	0.645757	0.645757	0	1	0	0	CorrectCommission	0.392376	0.781923	0	1
248.490067	0.792189	city	10	1	0.661777	0.661777	0	1	0	0	CorrectCommission	0.595212	0.765619	0	1
249.282379	0.792450	city	9	1	0.745372	0.745372	0	1	0	0	CorrectCommission	1.653584	0.752703	0	1
250.074677	0.792155	mountain	7	0	0.000000	0.741605	1	0	0	0	CorrectOmission	1.605891	0.741437	0	1
250.866898	0.792262	city	6	1	0.695181	0.695181	0	1	0	0	CorrectCommission	1.018133	0.730291	0	1
251.659103	0.792157	city	2	1	0.650807	0.650807	0	1	0	0	CorrectCommission	0.456312	0.718151	0	1
252.451309	0.792268	city	5	1	0.645748	0.645748	0	1	0	0	CorrectCommission	0.392266	0.704369	0	1
253.243576	0.792263	city	2	1	0.645754	0.645754	0	1	0	0	CorrectCommission	0.392349	0.688686	0	1
254.035889	0.792373	city	6	1	0.695135	0.695135	0	1	0	0	CorrectCommission	1.017545	0.671168	0	1
254.828156	0.792158	city	8	1	0.603290	0.603290	0	1	0	0	CorrectCommission	0.145278	0.652057	1	1
255.620377	0.792262	city	6	1	0.650546	0.650546	0	1	0	0	CorrectCommission	0.453014	0.631710	1	1
256.412628	0.792266	city	3	1	0.701552	0.701552	0	1	0	0	CorrectCommission	1.098784	0.610527	1	1
257.204895	0.792270	city	9	1	0.657212	0.657212	0	1	0	0	CorrectCommission	0.537415	0.588960	1	1
257.997162	0.792260	city	10	1	0.645910	0.645910	0	1	0	0	CorrectCommission	0.394315	0.567562	1	1
258.789429	0.792270	city	6	1	0.744821	0.744821	0	1	0	0	CorrectCommission	1.646612	0.547036	1	1
259.581818	0.792478	city	1	1	0.608399	0.608399	0	1	0	0	CorrectCommission	0.080594	0.528117	1	1
260.374115	0.792153	mountain	10	0	0.000000	0.581918	1	0	0	0	CorrectOmission	0.415872	0.511627	1	1
261.166321	0.792220	city	1	1	0.599723	0.599723	0	1	0	0	CorrectCommission	0.190445	0.498280	1	1
261.958527	0.792228	city	4	1	0.596161	0.596161	0	1	0	0	CorrectCommission	0.235538	0.488621	1	1
262.750793	0.792288	city	1	1	0.596180	0.596180	0	1	0	0	CorrectCommission	0.235297	0.482871	1	1
263.543030	0.792214	city	9	1	0.645690	0.645690	0	1	0	0	CorrectCommission	0.391531	0.480885	1	1
264.335297	0.792268	city	2	1	0.645902	0.645902	0	1	0	0	CorrectCommission	0.394215	0.482153	1	1
265.127563	0.792260	city	8	1	0.645747	0.645747	0	1	0	0	CorrectCommission	0.392261	0.485889	1	1
265.919800	0.792266	city	9	1	0.596126	0.596126	0	1	0	0	CorrectCommission	0.235981	0.491178	1	1
266.712067	0.792268	city	3	1	0.546699	0.546699	0	1	0	0	CorrectCommission	0.861776	0.497121	1	1
267.504333	0.792265	city	6	1	0.505988	0.505988	0	1	0	0	CorrectCommission	1.377200	0.502979	1	1
268.296722	0.792480	city	4	1	0.558887	0.558887	0	1	0	0	CorrectCommission	0.707456	0.508269	1	1
269.088959	0.791987	city	9	1	0.595995	0.595995	0	1	0	0	CorrectCommission	0.237650	0.512791	1	1
269.881165	0.792431	mountain	9	1	0.596305	0.596305	0	0	1	0	CommissionError	0.233726	0.516523	1	1
270.673462	0.792183	city	8	1	0.596122	0.596122	0	1	0	0	CorrectCommission	0.236042	0.519504	1	1
271.465698	0.792301	city	1	1	0.645858	0.645858	0	1	0	0	CorrectCommission	0.393661	0.521700	1	1
272.257965	0.792203	city	6	1	0.646125	0.646125	0	1	0	0	CorrectCommission	0.397040	0.522929	1	1
273.050232	0.792318	city	5	1	0.606631	0.606631	0	1	0	0	CorrectCommission	0.102980	0.522807	1	1
273.842590	0.792428	city	4	1	0.754755	0.754755	0	1	0	0	CorrectCommission	1.772375	0.520788	1	1
274.634857	0.792110	city	1	1	0.645549	0.645549	0	1	0	0	CorrectCommission	0.389745	0.516209	1	1
275.427063	0.792311	city	8	1	0.596135	0.596135	0	1	0	0	CorrectCommission	0.235876	0.508540	1	1
276.219452	0.792428	city	10	1	0.596475	0.596475	0	1	0	0	CorrectCommission	0.231567	0.497379	1	1
277.011719	0.792103	city	3	1	0.694847	0.694847	0	1	0	0	CorrectCommission	1.013903	0.482661	1	1
277.803864	0.792202	mountain	1	0	0.000000	0.694952	1	0	0	0	CorrectOmission	1.015224	0.464662	1	1
278.596130	0.792326	city	10	1	0.645736	0.645736	0	1	0	0	CorrectCommission	0.392115	0.444043	1	1
279.388428	0.792264	city	2	1	0.596148	0.596148	0	1	0	0	CorrectCommission	0.235702	0.421787	1	1
280.180695	0.792263	city	7	1	0.597596	0.597596	0	1	0	0	CorrectCommission	0.217377	0.399093	1	1
280.972900	0.792157	city	8	1	0.596137	0.596137	0	1	0	0	CorrectCommission	0.235844	0.377259	1	1
281.765228	0.792485	city	3	1	0.597290	0.597290	0	1	0	0	CorrectCommission	0.221254	0.357548	1	1
282.557495	0.792048	city	4	1	0.645543	0.645543	0	1	0	0	CorrectCommission	0.389672	0.341089	1	1
283.349640	0.792263	city	1	1	0.596369	0.596369	0	1	0	0	CorrectCommission	0.232904	0.328818	1	1
284.141907	0.792265	city	9	1	0.645749	0.645749	0	1	0	0	CorrectCommission	0.392277	0.321440	1	1
284.934235	0.792373	city	8	1	0.604276	0.604276	0	1	0	0	CorrectCommission	0.132803	0.319442	1	1
285.726532	0.792265	city	2	1	0.599036	0.599036	0	1	0	0	CorrectCommission	0.199145	0.323137	1	1
286.518799	0.792264	city	9	1	0.601580	0.601580	0	1	0	0	CorrectCommission	0.166940	0.332726	1	1
287.311005	0.792159	city	10	1	0.596120	0.596120	0	1	0	0	CorrectCommission	0.236063	0.348344	1	1
288.103241	0.792262	city	7	1	0.596216	0.596216	0	1	0	0	CorrectCommission	0.234847	0.370127	1	1
288.895508	0.792294	city	2	1	0.558864	0.558864	0	1	0	0	CorrectCommission	0.707748	0.398224	1	1
289.687775	0.792273	city	10	1	0.598539	0.598539	0	1	0	0	CorrectCommission	0.205433	0.432816	1	1
290.480042	0.792227	city	7	1	0.558913	0.558913	0	1	0	0	CorrectCommission	0.707134	0.474099	1	1
291.272308	0.792301	city	2	1	0.614306	0.614306	0	1	0	0	CorrectCommission	0.005817	0.522125	1	1
292.064606	0.792337	city	10	1	0.649701	0.649701	0	1	0	0	CorrectCommission	0.442312	0.576820	1	1
292.856873	0.792156	mountain	3	0	0.000000	0.668480	1	0	0	0	CorrectOmission	0.680068	0.637795	1	1
293.649078	0.792266	city	9	1	0.655695	0.655695	0	1	0	0	CorrectCommission	0.518198	0.704321	0	1
294.441406	0.792373	city	3	1	0.596397	0.596397	0	1	0	0	CorrectCommission	0.232549	0.775249	0	1
295.233704	0.792236	city	5	1	0.546583	0.546583	0	1	0	0	CorrectCommission	0.863244	0.849026	0	1
296.025909	0.792183	city	3	1	0.496994	0.496994	0	1	0	0	CorrectCommission	1.491079	0.923716	0	1
296.818176	0.792374	city	8	1	0.546743	0.546743	0	1	0	0	CorrectCommission	0.861213	0.997107	0	1
297.610443	0.792162	city	9	1	0.556422	0.556422	0	1	0	0	CorrectCommission	0.738669	1.066828	0	1
298.402710	0.792369	city	5	1	0.508616	0.508616	0	1	0	0	CorrectCommission	1.343932	1.130476	0	1
299.194977	0.792155	city	1	1	0.497111	0.497111	0	1	0	0	CorrectCommission	1.489598	1.185737	0	1
299.987183	0.792266	city	9	1	0.447702	0.447702	0	1	0	0	CorrectCommission	2.115149	1.230504	0	1
300.779449	0.792268	city	5	1	0.504270	0.504270	0	1	0	0	CorrectCommission	1.398960	1.262987	0	1
301.571777	0.792368	city	4	1	0.497181	0.497181	0	1	0	0	CorrectCommission	1.488713	1.281845	0	1
302.364044	0.792157	city	3	1	0.546637	0.546637	0	1	0	0	CorrectCommission	0.862556	1.286190	0	1
303.156250	0.792264	city	8	1	0.506805	0.506805	0	1	0	0	CorrectCommission	1.366862	1.275732	0	1
303.948517	0.792264	city	9	1	0.546852	0.546852	0	1	0	0	CorrectCommission	0.859837	1.250826	0	1
304.740784	0.792268	city	2	1	0.794853	0.794853	0	1	0	0	CorrectCommission	2.280052	1.212625	0	1
305.533051	0.792267	city	5	1	0.794268	0.794268	0	1	0	0	CorrectCommission	2.272653	1.163058	0	0
306.325317	0.792260	city	8	1	0.507509	0.507509	0	1	0	0	CorrectCommission	1.357943	1.104871	0	0
307.117645	0.792373	city	6	1	0.515035	0.515035	0	1	0	0	CorrectCommission	1.262659	1.041538	0	0
307.909943	0.792243	city	10	1	0.596603	0.596603	0	1	0	0	CorrectCommission	0.229949	0.977021	0	0
308.702179	0.792215	city	3	1	0.554212	0.554212	0	1	0	0	CorrectCommission	0.766654	0.915497	0	0
309.494385	0.792230	city	2	1	0.647686	0.647686	0	1	0	0	CorrectCommission	0.416807	0.860969	0	0
310.286652	0.792266	mountain	4	0	0.000000	0.647411	1	0	0	0	CorrectOmission	0.413318	0.816971	0	0
311.078888	0.792262	city	1	1	0.601533	0.601533	0	1	0	0	CorrectCommission	0.167529	0.786259	0	0
311.871277	0.792484	city	9	1	0.558201	0.558201	0	1	0	0	CorrectCommission	0.716143	0.770605	0	0
312.663635	0.792263	city	2	1	0.596106	0.596106	0	1	0	0	CorrectCommission	0.236237	0.770669	0	0
313.455811	0.792046	city	9	1	0.546638	0.546638	0	1	0	0	CorrectCommission	0.862545	0.785998	0	0
314.247955	0.792267	mountain	5	1	0.512673	0.512673	0	0	1	0	CommissionError	1.292572	0.815082	0	0
315.040253	0.792334	city	10	1	0.614323	0.614323	0	1	0	0	CorrectCommission	0.005599	0.855483	0	0
315.832520	0.792196	city	4	1	0.645807	0.645807	0	1	0	0	CorrectCommission	0.393009	0.904045	0	0
316.624878	0.792481	city	10	1	0.744780	0.744780	0	1	0	0	CorrectCommission	1.646087	0.957067	0	0
317.417236	0.792263	mountain	10	0	0.000000	0.663484	1	0	0	0	CorrectOmission	0.616824	1.010546	0	0
318.209412	0.792089	city	9	1	0.548582	0.548582	0	1	0	0	CorrectCommission	0.837926	1.060558	0	0
319.001678	0.792443	city	2	1	0.546736	0.546736	0	1	0	0	CorrectCommission	0.861307	1.103475	0	0
319.794037	0.792264	city	4	1	0.794042	0.794042	0	1	0	0	CorrectCommission	2.269787	1.136293	0	0
320.586304	0.792265	city	3	1	0.452145	0.452145	0	1	0	0	CorrectCommission	2.058896	1.156799	0	0
321.378448	0.792055	city	1	1	0.496890	0.496890	0	1	0	0	CorrectCommission	1.492386	1.163814	0	0
322.170624	0.792255	city	7	1	0.508796	0.508796	0	1	0	0	CorrectCommission	1.341655	1.157140	0	0
322.962860	0.792268	city	5	1	0.451100	0.451100	0	1	0	0	CorrectCommission	2.072130	1.137496	0	0
323.755249	0.792480	city	6	1	0.556457	0.556457	0	1	0	0	CorrectCommission	0.738226	1.106298	0	0
324.547516	0.792048	city	1	1	0.596163	0.596163	0	1	0	0	CorrectCommission	0.235518	1.065472	0	0
325.339661	0.792264	city	10	1	0.650310	0.650310	0	1	0	0	CorrectCommission	0.450026	1.017174	0	0
326.131927	0.792270	city	2	1	0.706693	0.706693	0	1	0	0	CorrectCommission	1.163881	0.963589	0	0
326.924225	0.792302	city	7	1	0.698927	0.698927	0	1	0	0	CorrectCommission	1.065561	0.906838	0	0
327.716492	0.792224	city	5	1	0.744741	0.744741	0	1	0	0	CorrectCommission	1.645597	0.848979	0	0
328.508789	0.792371	city	8	1	0.701644	0.701644	0	1	0	0	CorrectCommission	1.099952	0.791945	0	0
329.301056	0.792155	city	6	1	0.695194	0.695194	0	1	0	0	CorrectCommission	1.018293	0.737558	0	0
330.093262	0.792268	city	9	1	0.610073	0.610073	0	1	0	0	CorrectCommission	0.059401	0.687490	0	0
330.885620	0.792481	city	3	1	0.605051	0.605051	0	1	0	0	CorrectCommission	0.122990	0.643181	1	0
331.677948	0.792154	city	6	1	0.645523	0.645523	0	1	0	0	CorrectCommission	0.389421	0.605703	1	0
332.470123	0.792212	city	1	1	0.610213	0.610213	0	1	0	0	CorrectCommission	0.057636	0.575709	1	0
333.262329	0.792213	city	7	1	0.607594	0.607594	0	1	0	0	CorrectCommission	0.090791	0.553405	1	0
334.054565	0.792263	city	5	1	0.555826	0.555826	0	1	0	0	CorrectCommission	0.746216	0.538552	1	0
334.846832	0.792266	city	4	1	0.695404	0.695404	0	1	0	0	CorrectCommission	1.020946	0.530564	1	0
335.639099	0.792261	city	2	1	0.645914	0.645914	0	1	0	0	CorrectCommission	0.394373	0.528662	1	0
336.431427	0.792375	city	3	1	0.568227	0.568227	0	1	0	0	CorrectCommission	0.589212	0.532012	1	0
337.223694	0.792159	city	5	1	0.600206	0.600206	0	1	0	0	CorrectCommission	0.184327	0.539766	1	0
338.015900	0.792264	city	1	1	0.695379	0.695379	0	1	0	0	CorrectCommission	1.020639	0.551174	1	0
338.808228	0.792371	city	6	1	0.646416	0.646416	0	1	0	0	CorrectCommission	0.400723	0.565533	1	0
339.600494	0.792156	city	9	1	0.655468	0.655468	0	1	0	0	CorrectCommission	0.515336	0.582199	1	0
340.392700	0.792281	city	4	1	0.645708	0.645708	0	1	0	0	CorrectCommission	0.391760	0.600459	1	0
341.184967	0.792251	mountain	1	0	0.000000	0.641112	1	0	0	0	CorrectOmission	0.333572	0.619520	1	0
341.977234	0.792271	city	3	1	0.605309	0.605309	0	1	0	0	CorrectCommission	0.119728	0.638491	1	0
342.769531	0.792364	city	4	1	0.501925	0.501925	0	1	0	0	CorrectCommission	1.428640	0.656436	0	0
343.561798	0.792161	mountain	4	1	0.546609	0.546609	0	0	1	0	CommissionError	0.862906	0.672401	0	0
344.354034	0.792265	city	9	1	0.645772	0.645772	0	1	0	0	CorrectCommission	0.392572	0.685625	0	0
345.146393	0.792478	city	5	1	0.695438	0.695438	0	1	0	0	CorrectCommission	1.021385	0.695602	0	0
345.938660	0.792052	city	9	1	0.701989	0.701989	0	1	0	0	CorrectCommission	1.104319	0.702163	0	0
346.730804	0.792264	city	2	1	0.698357	0.698357	0	1	0	0	CorrectCommission	1.058337	0.705500	0	0
347.523193	0.792478	city	4	1	0.646448	0.646448	0	1	0	0	CorrectCommission	0.401132	0.706129	0	0
348.315460	0.792051	mountain	10	1	0.645649	0.645649	0	0	1	0	CommissionError	0.391011	0.704762	0	0
349.107635	0.792310	city	2	1	0.695332	0.695332	0	1	0	0	CorrectCommission	1.020043	0.702114	0	0
349.899902	0.792215	city	5	1	0.601967	0.601967	0	1	0	0	CorrectCommission	0.162036	0.698754	0	0
350.692139	0.792269	city	2	1	0.547318	0.547318	0	1	0	0	CorrectCommission	0.853929	0.695004	0	0
351.484436	0.792306	city	3	1	0.546733	0.546733	0	1	0	0	CorrectCommission	0.861339	0.690778	0	0
352.276672	0.792218	city	1	1	0.596205	0.596205	0	1	0	0	CorrectCommission	0.234992	0.685675	0	0
353.068939	0.792268	city	5	1	0.553588	0.553588	0	1	0	0	CorrectCommission	0.774549	0.679034	0	0
353.861206	0.792265	city	4	1	0.651223	0.651223	0	1	0	0	CorrectCommission	0.461584	0.670091	0	0
354.653473	0.792261	mountain	4	0	0.000000	0.705885	1	0	0	0	CorrectOmission	1.153644	0.658211	0	0
355.445740	0.792268	city	8	1	0.710301	0.710301	0	1	0	0	CorrectCommission	1.209558	0.643070	1	0
356.238098	0.792479	city	4	1	0.657199	0.657199	0	1	0	0	CorrectCommission	0.537249	0.624871	1	0
357.030365	0.792048	city	9	1	0.648168	0.648168	0	1	0	0	CorrectCommission	0.422902	0.604432	1	0
357.822510	0.792264	city	4	1	0.699879	0.699879	0	1	0	0	CorrectCommission	1.077612	0.583160	1	0
358.614777	0.792263	city	5	1	0.663734	0.663734	0	1	0	0	CorrectCommission	0.619989	0.562917	1	0
359.407104	0.792375	city	9	1	0.596591	0.596591	0	1	0	0	CorrectCommission	0.230099	0.545824	1	0
360.199371	0.792190	city	1	1	0.596169	0.596169	0	1	0	0	CorrectCommission	0.235438	0.533926	1	0
360.991608	0.792229	city	2	1	0.654771	0.654771	0	1	0	0	CorrectCommission	0.506508	0.528892	1	0
361.783936	0.792484	city	6	1	0.602670	0.602670	0	1	0	0	CorrectCommission	0.153132	0.531712	1	0
362.576202	0.792048	city	10	1	0.608190	0.608190	0	1	0	0	CorrectCommission	0.083245	0.542500	1	0
363.368378	0.792263	city	7	1	0.645861	0.645861	0	1	0	0	CorrectCommission	0.393698	0.560399	1	0
364.160645	0.792265	city	10	1	0.605814	0.605814	0	1	0	0	CorrectCommission	0.113326	0.583651	1	0
364.952911	0.792266	city	7	1	0.645874	0.645874	0	1	0	0	CorrectCommission	0.393857	0.609810	1	1
365.745209	0.792371	city	4	1	0.695241	0.695241	0	1	0	0	CorrectCommission	1.018884	0.636064	1	1
366.537598	0.792376	city	1	1	0.645703	0.645703	0	1	0	0	CorrectCommission	0.391697	0.659586	0	1
367.329834	0.792122	city	3	1	0.794850	0.794850	0	1	0	0	CorrectCommission	2.280015	0.677975	0	1
368.122009	0.792189	city	4	1	0.552312	0.552312	0	1	0	0	CorrectCommission	0.790712	0.689470	0	1
368.914337	0.792483	city	2	1	0.497196	0.497196	0	1	0	0	CorrectCommission	1.488516	0.693237	0	1
369.706604	0.792051	city	6	1	0.595981	0.595981	0	1	0	0	CorrectCommission	0.237823	0.689286	0	1
370.498749	0.792277	city	10	1	0.652714	0.652714	0	1	0	0	CorrectCommission	0.480457	0.678452	0	1
371.291016	0.792251	city	4	1	0.646380	0.646380	0	1	0	0	CorrectCommission	0.400271	0.662142	0	1
372.083405	0.792481	city	10	1	0.645713	0.645713	0	1	0	0	CorrectCommission	0.391818	0.642107	1	1
372.875671	0.792049	city	2	1	0.660017	0.660017	0	1	0	0	CorrectCommission	0.572918	0.620255	1	1
373.667847	0.792299	city	5	1	0.702882	0.702882	0	1	0	0	CorrectCommission	1.115632	0.598426	1	1
374.460083	0.792226	mountain	9	0	0.000000	0.642837	1	0	0	0	CorrectOmission	0.355412	0.578300	1	1
375.252441	0.792484	city	5	1	0.563268	0.563268	0	1	0	0	CorrectCommission	0.651989	0.561358	1	1
376.044708	0.792046	city	10	1	0.547564	0.547564	0	1	0	0	CorrectCommission	0.850824	0.548794	1	1
376.836884	0.792268	city	3	1	0.603226	0.603226	0	1	0	0	CorrectCommission	0.146099	0.541516	1	1
377.629181	0.792372	city	5	1	0.596431	0.596431	0	1	0	0	CorrectCommission	0.232122	0.540125	1	1
378.421478	0.792203	city	3	1	0.614811	0.614811	0	1	0	0	CorrectCommission	0.000574	0.544855	1	1
379.213715	0.792258	city	10	1	0.551432	0.551432	0	1	0	0	CorrectCommission	0.801843	0.555590	1	1
380.005951	0.792225	city	5	1	0.610485	0.610485	0	1	0	0	CorrectCommission	0.054185	0.571861	1	1
380.798187	0.792269	city	2	1	0.695199	0.695199	0	1	0	0	CorrectCommission	1.018354	0.592954	1	1
381.590576	0.792478	city	3	1	0.663593	0.663593	0	1	0	0	CorrectCommission	0.618201	0.617904	1	1
382.382843	0.792046	city	9	1	0.647006	0.647006	0	1	0	0	CorrectCommission	0.408194	0.645646	1	1
383.174988	0.792270	city	10	1	0.695404	0.695404	0	1	0	0	CorrectCommission	1.020948	0.675070	0	1
383.967285	0.792325	city	9	1	0.695249	0.695249	0	1	0	0	CorrectCommission	1.018994	0.705124	0	1
384.759613	0.792308	city	2	1	0.614386	0.614386	0	1	0	0	CorrectCommission	0.004805	0.734891	0	1
385.551880	0.792218	mountain	7	0	0.000000	0.666536	1	0	0	0	CorrectOmission	0.655460	0.763658	0	1
386.344147	0.792312	city	8	1	0.695881	0.695881	0	1	0	0	CorrectCommission	1.026995	0.790889	0	1
387.136353	0.792157	city	9	1	0.546602	0.546602	0	1	0	0	CorrectCommission	0.862995	0.816289	0	1
387.928589	0.792265	city	10	1	0.794757	0.794757	0	1	0	0	CorrectCommission	2.278835	0.839790	0	1
388.720856	0.792277	city	3	1	0.599523	0.599523	0	1	0	0	CorrectCommission	0.192975	0.861455	0	1
389.513153	0.792360	city	2	1	0.614196	0.614196	0	1	0	0	CorrectCommission	0.007202	0.881563	0	1
390.305420	0.792155	city	3	1	0.695337	0.695337	0	1	0	0	CorrectCommission	1.020103	0.900476	0	1
391.097687	0.792376	city	2	1	0.695276	0.695276	0	1	0	0	CorrectCommission	1.019336	0.918611	0	1
391.890076	0.792373	city	6	1	0.704493	0.704493	0	1	0	0	CorrectCommission	1.136024	0.936527	0	1
392.682281	0.792067	city	4	1	0.704223	0.704223	0	1	0	0	CorrectCommission	1.132604	0.954883	0	1
393.474426	0.792245	city	7	1	0.695317	0.695317	0	1	0	0	CorrectCommission	1.019855	0.974503	0	1
394.266754	0.792374	city	9	1	0.652081	0.652081	0	1	0	0	CorrectCommission	0.472447	0.996319	0	1
395.059021	0.792159	city	8	1	0.556589	0.556589	0	1	0	0	CorrectCommission	0.736554	1.021313	0	1
395.851227	0.792268	city	2	1	0.447690	0.447690	0	1	0	0	CorrectCommission	2.115301	1.050384	0	1
396.643524	0.792305	city	10	1	0.506122	0.506122	0	1	0	0	CorrectCommission	1.375505	1.084118	0	1
397.435791	0.792255	mountain	5	0	0.000000	0.561782	1	0	0	0	CorrectOmission	0.670802	1.122631	0	1
398.228149	0.792444	city	9	1	0.597476	0.597476	0	1	0	0	CorrectCommission	0.218896	1.165272	0	1
399.020386	0.792048	city	3	1	0.596007	0.596007	0	1	0	0	CorrectCommission	0.237491	1.210522	0	1
399.812561	0.792262	mountain	9	1	0.467613	0.467613	0	0	1	0	CommissionError	1.863066	1.255933	0	1
400.604828	0.792269	city	3	1	0.546794	0.546794	0	1	0	0	CorrectCommission	0.860567	1.298251	0	1
401.397125	0.792335	city	10	1	0.507595	0.507595	0	1	0	0	CorrectCommission	1.356853	1.333812	0	1
402.189484	0.792409	mountain	1	1	0.744722	0.744722	0	0	1	0	CommissionError	1.645357	1.358920	0	1
402.981812	0.792264	city	9	1	0.398081	0.398081	0	1	0	0	CorrectCommission	2.743392	1.370352	0	1
403.773987	0.792052	city	5	1	0.447459	0.447459	0	1	0	0	CorrectCommission	2.118230	1.365791	0	1
404.566162	0.792286	city	6	1	0.457295	0.457295	0	1	0	0	CorrectCommission	1.993696	1.344217	0	1
405.358429	0.792243	city	9	1	0.447682	0.447682	0	1	0	0	CorrectCommission	2.115405	1.305971	0	1
406.150696	0.792321	city	8	1	0.546670	0.546670	0	1	0	0	CorrectCommission	0.862140	1.252738	0	1
406.942993	0.792250	city	2	1	0.555523	0.555523	0	1	0	0	CorrectCommission	0.750049	1.187301	0	1
407.735229	0.792226	city	1	1	0.608422	0.608422	0	1	0	0	CorrectCommission	0.080309	1.113141	0	1
408.527527	0.792365	city	3	1	0.807949	0.807949	0	1	0	0	CorrectCommission	2.445857	1.034076	0	1
409.319794	0.792171	city	9	1	0.695159	0.695159	0	1	0	0	CorrectCommission	1.017845	0.953822	0	1
410.112091	0.792468	city	8	1	0.612417	0.612417	0	1	0	0	CorrectCommission	0.029725	0.875806	0	1
410.904358	0.792051	city	3	1	0.645527	0.645527	0	1	0	0	CorrectCommission	0.389468	0.802886	0	1
411.696625	0.792479	city	9	1	0.695386	0.695386	0	1	0	0	CorrectCommission	1.020720	0.737231	0	1
412.488892	0.792047	city	1	1	0.652625	0.652625	0	1	0	0	CorrectCommission	0.479340	0.680318	0	1
413.281036	0.792270	city	9	1	0.605453	0.605453	0	1	0	0	CorrectCommission	0.117896	0.632987	1	1
414.073334	0.792280	city	7	1	0.695324	0.695324	0	1	0	0	CorrectCommission	1.019939	0.595520	1	1
414.865601	0.792247	city	3	1	0.646043	0.646043	0	1	0	0	CorrectCommission	0.396005	0.567699	1	1
415.657837	0.792265	city	7	1	0.596296	0.596296	0	1	0	0	CorrectCommission	0.233836	0.548972	1	1
416.450226	0.792481	city	10	1	0.596776	0.596776	0	1	0	0	CorrectCommission	0.227751	0.538483	1	1
417.242523	0.792122	city	2	1	0.650904	0.650904	0	1	0	0	CorrectCommission	0.457540	0.535128	1	1
418.034668	0.792193	city	3	1	0.645659	0.645659	0	1	0	0	CorrectCommission	0.391143	0.537702	1	1
418.826904	0.792262	city	8	1	0.657951	0.657951	0	1	0	0	CorrectCommission	0.546772	0.544968	1	1
419.619171	0.792267	mountain	10	0	0.000000	0.583554	1	0	0	0	CorrectOmission	0.395162	0.555758	1	1
420.411438	0.792263	city	7	1	0.515481	0.515481	0	1	0	0	CorrectCommission	1.257014	0.569059	1	1
421.203705	0.792264	city	8	1	0.546749	0.546749	0	1	0	0	CorrectCommission	0.861139	0.584084	1	1
421.996002	0.792373	city	4	1	0.613452	0.613452	0	1	0	0	CorrectCommission	0.016631	0.600348	1	1
422.788391	0.792373	city	3	1	0.645696	0.645696	0	1	0	0	CorrectCommission	0.391609	0.617647	1	1
423.580597	0.792056	city	7	1	0.645838	0.645838	0	1	0	0	CorrectCommission	0.393402	0.635989	1	1
424.372742	0.792256	city	2	1	0.695300	0.695300	0	1	0	0	CorrectCommission	1.019641	0.655501	0	0
425.165009	0.792265	city	4	1	0.695412	0.695412	0	1	0	0	CorrectCommission	1.021056	0.676317	0	0
425.957336	0.792373	city	10	1	0.699565	0.699565	0	1	0	0	CorrectCommission	1.073635	0.698380	0	0
426.749695	0.792375	mountain	9	0	0.000000	0.648467	1	0	0	0	CorrectOmission	0.426689	0.721336	0	0
427.541931	0.792049	city	2	1	0.596049	0.596049	0	1	0	0	CorrectCommission	0.236967	0.744432	0	0
428.334106	0.792343	city	8	1	0.596242	0.596242	0	1	0	0	CorrectCommission	0.234520	0.766417	0	0
429.126495	0.792403	city	1	1	0.561641	0.561641	0	1	0	0	CorrectCommission	0.672590	0.785603	0	0
429.918701	0.792046	mountain	10	1	0.645540	0.645540	0	0	1	0	CommissionError	0.389638	0.800035	0	0
430.710907	0.792322	city	6	1	0.751813	0.751813	0	1	0	0	CorrectCommission	1.735131	0.807754	0	0
431.503204	0.792316	city	2	1	0.745740	0.745740	0	1	0	0	CorrectCommission	1.658239	0.807036	0	0
432.295441	0.792159	city	10	1	0.695270	0.695270	0	1	0	0	CorrectCommission	1.019249	0.796778	0	0
433.087677	0.792265	city	9	1	0.711302	0.711302	0	1	0	0	CorrectCommission	1.222233	0.776671	0	0
433.879974	0.792369	city	7	1	0.695563	0.695563	0	1	0	0	CorrectCommission	1.022968	0.747283	0	0
434.672241	0.792160	mountain	4	0	0.000000	0.684247	1	0	0	0	CorrectOmission	0.879689	0.710035	0	0
435.464508	0.792369	city	3	1	0.662747	0.662747	0	1	0	0	CorrectCommission	0.607493	0.667015	0	0
436.256775	0.792158	city	8	1	0.616461	0.616461	0	1	0	0	CorrectCommission	0.021477	0.620722	1	0
437.048981	0.792266	city	6	1	0.613006	0.613006	0	1	0	0	CorrectCommission	0.022276	0.573796	1	0
437.841248	0.792263	mountain	10	1	0.550628	0.550628	0	0	1	0	CommissionError	0.812028	0.528722	1	0
438.633545	0.792302	city	2	1	0.564817	0.564817	0	1	0	0	CorrectCommission	0.632380	0.487641	1	0
439.425903	0.792444	city	7	1	0.600597	0.600597	0	1	0	0	CorrectCommission	0.179378	0.452244	1	0
440.218201	0.792158	city	6	1	0.645684	0.645684	0	1	0	0	CorrectCommission	0.391461	0.423680	1	0
441.010406	0.792208	city	5	1	0.646363	0.646363	0	1	0	0	CorrectCommission	0.400053	0.402538	1	0
441.802704	0.792429	city	1	1	0.620652	0.620652	0	1	0	0	CorrectCommission	0.074529	0.388880	1	0
442.595062	0.792265	city	2	1	0.596022	0.596022	0	1	0	0	CorrectCommission	0.237297	0.382319	1	0
443.387207	0.792049	city	1	1	0.596478	0.596478	0	1	0	0	CorrectCommission	0.231527	0.382062	1	0
444.179382	0.792263	mountain	9	1	0.599141	0.599141	0	0	1	0	CommissionError	0.197820	0.387037	1	0
444.971680	0.792372	city	2	1	0.670626	0.670626	0	1	0	0	CorrectCommission	0.707236	0.395980	1	0
445.764069	0.792376	city	10	1	0.602736	0.602736	0	1	0	0	CorrectCommission	0.152303	0.407608	1	0
446.556274	0.792044	city	6	1	0.602866	0.602866	0	1	0	0	CorrectCommission	0.150651	0.420784	1	0
447.348480	0.792376	mountain	4	1	0.546713	0.546713	0	0	1	0	CommissionError	0.861592	0.434744	1	0
448.140808	0.792263	city	3	1	0.645794	0.645794	0	1	0	0	CorrectCommission	0.392850	0.449191	1	0
448.933014	0.792158	city	8	1	0.657710	0.657710	0	1	0	0	CorrectCommission	0.543718	0.464491	1	0
449.725281	0.792372	city	10	1	0.695281	0.695281	0	1	0	0	CorrectCommission	1.019392	0.481674	1	0
450.517639	0.792375	city	3	1	0.657037	0.657037	0	1	0	0	CorrectCommission	0.535197	0.502354	1	0
451.309967	0.792264	city	9	1	0.645738	0.645738	0	1	0	0	CorrectCommission	0.392146	0.528550	1	0
452.102173	0.792156	city	6	1	0.596457	0.596457	0	1	0	0	CorrectCommission	0.231796	0.562324	1	0
452.894348	0.792160	city	9	1	0.596249	0.596249	0	1	0	0	CorrectCommission	0.234432	0.605399	1	0
453.686646	0.792478	city	8	1	0.562310	0.562310	0	1	0	0	CorrectCommission	0.664120	0.658731	0	0
454.479034	0.792264	city	3	1	0.645532	0.645532	0	1	0	0	CorrectCommission	0.389532	0.722138	0	0
455.271179	0.792046	city	9	1	0.610367	0.610367	0	1	0	0	CorrectCommission	0.055684	0.794095	0	0
456.063354	0.792269	city	2	1	0.606776	0.606776	0	1	0	0	CorrectCommission	0.101153	0.871725	0	0
456.855713	0.792478	city	7	1	0.602746	0.602746	0	1	0	0	CorrectCommission	0.152170	0.951039	0	0
457.648010	0.792092	city	1	1	0.501314	0.501314	0	1	0	0	CorrectCommission	1.436381	1.027443	0	0
458.440155	0.792220	city	2	1	0.448981	0.448981	0	1	0	0	CorrectCommission	2.098959	1.096346	0	0
459.232391	0.792269	city	5	1	0.407968	0.407968	0	1	0	0	CorrectCommission	2.618209	1.153960	0	0
460.024658	0.792276	city	2	1	0.497209	0.497209	0	1	0	0	CorrectCommission	1.488355	1.197890	0	0
460.816925	0.792252	city	4	1	0.449495	0.449495	0	1	0	0	CorrectCommission	2.092449	1.227637	0	0
461.609192	0.792262	city	5	1	0.546721	0.546721	0	1	0	0	CorrectCommission	0.861493	1.244673	0	0
462.401459	0.792267	city	9	1	0.794299	0.794299	0	1	0	0	CorrectCommission	2.273040	1.252294	0	0
463.193756	0.792318	city	4	1	0.507860	0.507860	0	1	0	0	CorrectCommission	1.353507	1.255001	0	0
463.986023	0.792209	city	3	1	0.549322	0.549322	0	1	0	0	CorrectCommission	0.828561	1.257821	0	0
464.778259	0.792269	city	4	1	0.645734	0.645734	0	1	0	0	CorrectCommission	0.392085	1.265326	0	0
465.570526	0.792261	city	10	1	0.565811	0.565811	0	1	0	0	CorrectCommission	0.619802	1.280813	0	0
466.362885	0.792482	city	1	1	0.556140	0.556140	0	1	0	0	CorrectCommission	0.742247	1.305606	0	0
467.155151	0.792046	city	5	1	0.596059	0.596059	0	1	0	0	CorrectCommission	0.236835	1.338714	0	0
467.947418	0.792483	city	1	1	0.547614	0.547614	0	1	0	0	CorrectCommission	0.850192	1.376906	0	0
468.739807	0.792266	city	2	1	0.509823	0.509823	0	1	0	0	CorrectCommission	1.328652	1.415103	0	0
469.531952	0.792046	city	5	1	0.457387	0.457387	0	1	0	0	CorrectCommission	1.992533	1.447169	0	0
470.324097	0.792265	city	9	1	0.403136	0.403136	0	1	0	0	CorrectCommission	2.679385	1.466885	0	0
471.116425	0.792373	city	3	1	0.398136	0.398136	0	1	0	0	CorrectCommission	2.742696	1.468889	0	0
471.908722	0.792201	city	4	1	0.457002	0.457002	0	1	0	0	CorrectCommission	1.997408	1.449558	0	0
472.701019	0.792437	mountain	10	1	0.405520	0.405520	0	0	1	0	CommissionError	2.649204	1.407560	0	0
473.493286	0.792051	city	8	1	0.496964	0.496964	0	1	0	0	CorrectCommission	1.491455	1.343953	0	0
474.285431	0.792262	city	10	1	0.452969	0.452969	0	1	0	0	CorrectCommission	2.048460	1.262083	0	0
475.077698	0.792266	city	2	1	0.546874	0.546874	0	1	0	0	CorrectCommission	0.859554	1.166923	0	0
475.870087	0.792535	city	1	1	0.652575	0.652575	0	1	0	0	CorrectCommission	0.478709	1.064386	0	0
476.662354	0.791992	city	6	1	0.647853	0.647853	0	1	0	0	CorrectCommission	0.418923	0.960420	0	0
477.454498	0.792298	city	10	1	0.645904	0.645904	0	1	0	0	CorrectCommission	0.394239	0.860256	0	0
478.246765	0.792248	city	1	1	0.608128	0.608128	0	1	0	0	CorrectCommission	0.084031	0.767779	0	0
479.039124	0.792466	city	7	1	0.645809	0.645809	0	1	0	0	CorrectCommission	0.393035	0.685232	0	0
479.831390	0.792051	city	1	1	0.648309	0.648309	0	1	0	0	CorrectCommission	0.424689	0.613089	1	0
480.623535	0.792265	city	5	1	0.558416	0.558416	0	1	0	0	CorrectCommission	0.713420	0.550311	1	0
481.415802	0.792262	city	8	1	0.557543	0.557543	0	1	0	0	CorrectCommission	0.724483	0.494714	1	0
482.208069	0.792269	city	5	1	0.598937	0.598937	0	1	0	0	CorrectCommission	0.200399	0.443504	1	0
483.000366	0.792316	city	7	1	0.596183	0.596183	0	1	0	0	CorrectCommission	0.235266	0.393823	1	0
483.792633	0.792210	city	1	1	0.645673	0.645673	0	1	0	0	CorrectCommission	0.391318	0.343227	1	0
484.584869	0.792268	city	8	1	0.645740	0.645740	0	1	0	0	CorrectCommission	0.392167	0.290076	1	0
485.377258	0.792479	city	9	1	0.758536	0.758536	0	1	0	0	CorrectCommission	1.820258	0.233751	1	0
486.169495	0.792048	city	2	1	0.645524	0.645524	0	1	0	0	CorrectCommission	0.389426	0.174593	1	0
486.961670	0.792294	city	7	1	0.605776	0.605776	0	1	0	0	CorrectCommission	0.113815	0.113815	1	0
