onset	duration	trial_type	image_type	Press	ReactionTime	ReactionTime_Interpolated	CorrectOmission	CorrectCommission	CommissionError	OmissionError	response_type	nonsmoothVarianceTimeCourse	VarianceTimeCourse	In_the_Zone	Reward_trial
8.433898	0.792481	city	6	1	0.749555	0.749555	0	1	0	0	CorrectCommission	1.136444	1.136444	0	1
9.226163	0.792048	city	9	1	0.547122	0.547122	0	1	0	0	CorrectCommission	0.685893	1.089434	0	1
10.018318	0.792263	city	5	1	0.655658	0.655658	0	1	0	0	CorrectCommission	0.291165	1.045372	0	1
10.810582	0.792264	city	4	1	0.564910	0.564910	0	1	0	0	CorrectCommission	0.525763	1.006730	0	1
11.602870	0.792312	city	5	1	0.547033	0.547033	0	1	0	0	CorrectCommission	0.686700	0.975132	0	1
12.395136	0.792221	city	2	1	0.502564	0.502564	0	1	0	0	CorrectCommission	1.087016	0.951121	0	1
13.187378	0.792262	city	9	1	0.565307	0.565307	0	1	0	0	CorrectCommission	0.522189	0.934100	0	1
13.979695	0.792373	city	6	1	0.547444	0.547444	0	1	0	0	CorrectCommission	0.682999	0.922481	0	1
14.772069	0.792374	city	7	1	0.497102	0.497102	0	1	0	0	CorrectCommission	1.136182	0.913900	0	1
15.564388	0.792265	city	6	1	0.514511	0.514511	0	1	0	0	CorrectCommission	0.979466	0.905685	0	1
16.356548	0.792056	city	3	1	0.514930	0.514930	0	1	0	0	CorrectCommission	0.975696	0.895243	0	1
17.148706	0.792260	city	8	1	0.497273	0.497273	0	1	0	0	CorrectCommission	1.134646	0.880474	0	1
17.941006	0.792336	city	4	1	0.458891	0.458891	0	1	0	0	CorrectCommission	1.480165	0.860106	0	1
18.733322	0.792296	mountain	10	1	0.465919	0.465919	0	0	1	0	CommissionError	1.416900	0.833894	0	1
19.525547	0.792155	city	6	1	0.546618	0.546618	0	1	0	0	CorrectCommission	0.690433	0.802656	0	1
20.317867	0.792483	city	4	1	0.546736	0.546736	0	1	0	0	CorrectCommission	0.689368	0.768137	0	1
21.110134	0.792051	city	10	1	0.506256	0.506256	0	1	0	0	CorrectCommission	1.053783	0.732702	0	1
21.902288	0.792259	city	7	1	0.650948	0.650948	0	1	0	0	CorrectCommission	0.248766	0.698991	0	1
22.694561	0.792284	city	8	1	0.596830	0.596830	0	1	0	0	CorrectCommission	0.238419	0.669512	0	1
23.486828	0.792251	mountain	10	0	0.000000	0.636948	1	0	0	0	CorrectOmission	0.122738	0.646251	1	1
24.279087	0.792266	city	1	1	0.695265	0.695265	0	1	0	0	CorrectCommission	0.647711	0.630412	1	1
25.071350	0.792260	city	7	1	0.695738	0.695738	0	1	0	0	CorrectCommission	0.651974	0.622231	1	1
25.863613	0.792269	city	10	1	0.601283	0.601283	0	1	0	0	CorrectCommission	0.198329	0.621030	1	1
26.655880	0.792262	city	5	1	0.645751	0.645751	0	1	0	0	CorrectCommission	0.201984	0.625342	1	1
27.448141	0.792263	city	2	1	0.554703	0.554703	0	1	0	0	CorrectCommission	0.617652	0.633170	1	1
28.240406	0.792268	city	8	1	0.546835	0.546835	0	1	0	0	CorrectCommission	0.688479	0.642328	1	1
29.032782	0.792480	city	1	1	0.463043	0.463043	0	1	0	0	CorrectCommission	1.442785	0.650806	1	1
29.825045	0.792048	mountain	2	0	0.000000	0.664232	1	0	0	0	CorrectOmission	0.368352	0.657047	1	1
30.617203	0.792266	city	7	1	0.843962	0.843962	0	1	0	0	CorrectCommission	1.986307	0.660196	1	1
31.409521	0.792371	city	1	1	0.695791	0.695791	0	1	0	0	CorrectCommission	0.652451	0.660052	1	1
32.201794	0.792178	city	7	1	0.646175	0.646175	0	1	0	0	CorrectCommission	0.205801	0.657072	1	1
32.994034	0.792299	city	5	1	0.605708	0.605708	0	1	0	0	CorrectCommission	0.158496	0.652103	1	1
33.786396	0.792425	city	1	1	0.546906	0.546906	0	1	0	0	CorrectCommission	0.687841	0.646099	1	1
34.578739	0.792266	city	5	1	0.546904	0.546904	0	1	0	0	CorrectCommission	0.687857	0.639836	1	1
35.370899	0.792048	city	3	1	0.695077	0.695077	0	1	0	0	CorrectCommission	0.646018	0.633698	1	1
36.163055	0.792267	city	9	1	0.597019	0.597019	0	1	0	0	CorrectCommission	0.236712	0.627544	1	1
36.955322	0.792265	city	5	1	0.555890	0.555890	0	1	0	0	CorrectCommission	0.606964	0.620734	1	1
37.747585	0.792262	city	4	1	0.646103	0.646103	0	1	0	0	CorrectCommission	0.205153	0.612216	1	1
38.539848	0.792263	city	3	1	0.546768	0.546768	0	1	0	0	CorrectCommission	0.689085	0.600791	1	1
39.332111	0.792267	mountain	5	1	0.447592	0.447592	0	0	1	0	CommissionError	1.581885	0.585351	1	1
40.124485	0.792480	city	3	1	0.695654	0.695654	0	1	0	0	CorrectCommission	0.651215	0.565156	1	1
40.916752	0.792049	city	1	1	0.744882	0.744882	0	1	0	0	CorrectCommission	1.094377	0.540079	1	1
41.708961	0.792373	city	5	1	0.695301	0.695301	0	1	0	0	CorrectCommission	0.648035	0.510644	1	1
42.501278	0.792263	city	9	1	0.650359	0.650359	0	1	0	0	CorrectCommission	0.243466	0.478052	1	1
43.293491	0.792160	city	4	1	0.597329	0.597329	0	1	0	0	CorrectCommission	0.233922	0.444064	1	1
44.085701	0.792264	city	10	1	0.596367	0.596367	0	1	0	0	CorrectCommission	0.242585	0.410787	1	1
44.878021	0.792371	city	6	1	0.650802	0.650802	0	1	0	0	CorrectCommission	0.247446	0.380441	1	1
45.670311	0.792216	city	8	1	0.597059	0.597059	0	1	0	0	CorrectCommission	0.236352	0.355119	1	1
46.462555	0.792265	city	7	1	0.646272	0.646272	0	1	0	0	CorrectCommission	0.206669	0.336557	1	1
47.254841	0.792313	city	5	1	0.611583	0.611583	0	1	0	0	CorrectCommission	0.105603	0.326032	1	1
48.047188	0.792375	city	3	1	0.596124	0.596124	0	1	0	0	CorrectCommission	0.244772	0.324178	1	1
48.839397	0.792046	city	6	1	0.645904	0.645904	0	1	0	0	CorrectCommission	0.203353	0.331000	1	1
49.631554	0.792264	city	2	1	0.596156	0.596156	0	1	0	0	CorrectCommission	0.244481	0.345872	1	1
50.423832	0.792296	city	5	1	0.607345	0.607345	0	1	0	0	CorrectCommission	0.143759	0.367594	1	1
51.216099	0.792236	city	9	1	0.650836	0.650836	0	1	0	0	CorrectCommission	0.247757	0.394494	1	1
52.008457	0.792481	city	2	1	0.596173	0.596173	0	1	0	0	CorrectCommission	0.244329	0.424618	1	1
52.800774	0.792156	mountain	9	0	0.000000	0.648637	1	0	0	0	CorrectOmission	0.227960	0.455914	1	1
53.592934	0.792159	city	4	1	0.713306	0.713306	0	1	0	0	CorrectCommission	0.810125	0.486482	1	1
54.385139	0.792260	city	6	1	0.695260	0.695260	0	1	0	0	CorrectCommission	0.647668	0.514758	1	1
55.177460	0.792374	mountain	4	0	0.000000	0.724540	1	0	0	0	CorrectOmission	0.911252	0.539716	1	1
55.969833	0.792375	mountain	9	0	0.000000	0.756138	1	0	0	0	CorrectOmission	1.195701	0.560920	1	1
56.762043	0.792048	city	3	1	0.745045	0.745045	0	1	0	0	CorrectCommission	1.095844	0.578484	1	1
57.554237	0.792334	city	7	1	0.646254	0.646254	0	1	0	0	CorrectCommission	0.206504	0.593000	1	1
58.346500	0.792196	city	3	1	0.605411	0.605411	0	1	0	0	CorrectCommission	0.161167	0.605306	1	1
59.138737	0.792271	city	7	1	0.645752	0.645752	0	1	0	0	CorrectCommission	0.201994	0.616220	1	1
59.931053	0.792365	city	2	1	0.695797	0.695797	0	1	0	0	CorrectCommission	0.652499	0.626367	1	1
60.723370	0.792266	city	9	1	0.695854	0.695854	0	1	0	0	CorrectCommission	0.653014	0.636052	1	1
61.515579	0.792159	city	3	1	0.596107	0.596107	0	1	0	0	CorrectCommission	0.244926	0.645255	1	1
62.307808	0.792298	city	5	1	0.497194	0.497194	0	1	0	0	CorrectCommission	1.135358	0.653753	1	1
63.100124	0.792336	city	6	1	0.564658	0.564658	0	1	0	0	CorrectCommission	0.528030	0.661261	1	1
63.892376	0.792160	city	10	1	0.547054	0.547054	0	1	0	0	CorrectCommission	0.686511	0.667684	0	1
64.684586	0.792262	city	4	1	0.497207	0.497207	0	1	0	0	CorrectCommission	1.135241	0.673253	0	1
65.476906	0.792372	city	2	1	0.497240	0.497240	0	1	0	0	CorrectCommission	1.134944	0.678577	0	1
66.269272	0.792374	city	5	1	0.546633	0.546633	0	1	0	0	CorrectCommission	0.690297	0.684608	0	1
67.061539	0.792156	city	1	1	0.505738	0.505738	0	1	0	0	CorrectCommission	1.058439	0.692448	0	1
67.853806	0.792372	city	8	1	0.596493	0.596493	0	1	0	0	CorrectCommission	0.241446	0.703032	0	0
68.646011	0.792050	city	2	1	0.611077	0.611077	0	1	0	0	CorrectCommission	0.110157	0.716843	0	0
69.438278	0.792481	city	1	1	0.597447	0.597447	0	1	0	0	CorrectCommission	0.232859	0.733625	0	0
70.230553	0.792057	city	2	1	0.596292	0.596292	0	1	0	0	CorrectCommission	0.243258	0.752276	0	0
71.022720	0.792285	city	3	1	0.596228	0.596228	0	1	0	0	CorrectCommission	0.243834	0.770909	0	0
71.814995	0.792270	mountain	2	0	0.000000	0.683052	1	0	0	0	CorrectOmission	0.537771	0.787168	0	0
72.607300	0.792337	city	4	1	0.801320	0.801320	0	1	0	0	CorrectCommission	1.602439	0.798634	0	0
73.399605	0.792263	city	10	1	0.895588	0.895588	0	1	0	0	CorrectCommission	2.451056	0.803312	0	0
74.191811	0.792156	city	2	1	0.794186	0.794186	0	1	0	0	CorrectCommission	1.538218	0.800067	0	0
74.984024	0.792274	mountain	8	0	0.000000	0.746536	1	0	0	0	CorrectOmission	1.109263	0.788918	0	0
75.776398	0.792474	city	1	1	0.710892	0.710892	0	1	0	0	CorrectCommission	0.788395	0.770996	0	0
76.568771	0.792265	city	2	1	0.645511	0.645511	0	1	0	0	CorrectCommission	0.199818	0.748354	0	0
77.360947	0.792089	city	4	1	0.596285	0.596285	0	1	0	0	CorrectCommission	0.243322	0.723541	0	0
78.153099	0.792221	city	9	1	0.551595	0.551595	0	1	0	0	CorrectCommission	0.645629	0.699115	0	0
78.945343	0.792267	mountain	4	0	0.000000	0.633532	1	0	0	0	CorrectOmission	0.091979	0.677175	0	0
79.737610	0.792265	city	4	1	0.709296	0.709296	0	1	0	0	CorrectCommission	0.774023	0.659022	1	0
80.529877	0.792264	city	9	1	0.646089	0.646089	0	1	0	0	CorrectCommission	0.205022	0.644981	1	0
81.322144	0.792266	city	3	1	0.599760	0.599760	0	1	0	0	CorrectCommission	0.212042	0.634485	1	0
82.114517	0.792482	city	5	1	0.697273	0.697273	0	1	0	0	CorrectCommission	0.665793	0.626252	1	0
82.906837	0.792157	city	6	1	0.747418	0.747418	0	1	0	0	CorrectCommission	1.117201	0.618642	1	0
83.698990	0.792160	city	7	1	0.721707	0.721707	0	1	0	0	CorrectCommission	0.885746	0.610061	1	0
84.491203	0.792259	mountain	1	0	0.000000	0.754348	1	0	0	0	CorrectOmission	1.179586	0.599284	1	0
85.283463	0.792270	city	3	1	0.758192	0.758192	0	1	0	0	CorrectCommission	1.214193	0.585687	1	0
86.075729	0.792264	city	8	1	0.646091	0.646091	0	1	0	0	CorrectCommission	0.205037	0.569317	1	0
86.867996	0.792265	city	3	1	0.564587	0.564587	0	1	0	0	CorrectCommission	0.528672	0.550826	1	0
87.660316	0.792370	city	10	1	0.597293	0.597293	0	1	0	0	CorrectCommission	0.234247	0.531251	1	0
88.452682	0.792374	city	3	1	0.646761	0.646761	0	1	0	0	CorrectCommission	0.211076	0.511797	1	0
89.244934	0.792116	city	2	1	0.650082	0.650082	0	1	0	0	CorrectCommission	0.240964	0.493584	1	0
90.037086	0.792198	city	5	1	0.648514	0.648514	0	1	0	0	CorrectCommission	0.226852	0.477485	1	0
90.829430	0.792482	city	10	1	0.646542	0.646542	0	1	0	0	CorrectCommission	0.209100	0.464037	1	0
91.621689	0.792044	city	5	1	0.744560	0.744560	0	1	0	0	CorrectCommission	1.091479	0.453483	1	0
92.413849	0.792270	city	1	1	0.695434	0.695434	0	1	0	0	CorrectCommission	0.649238	0.445808	1	0
93.206223	0.792480	city	9	1	0.695402	0.695402	0	1	0	0	CorrectCommission	0.648952	0.440895	1	0
93.998489	0.792047	city	4	1	0.645552	0.645552	0	1	0	0	CorrectCommission	0.200190	0.438543	1	0
94.790642	0.792266	city	8	1	0.608266	0.608266	0	1	0	0	CorrectCommission	0.135468	0.438546	1	0
95.583015	0.792481	city	10	1	0.596316	0.596316	0	1	0	0	CorrectCommission	0.243046	0.440668	1	0
96.375282	0.792048	city	7	1	0.547224	0.547224	0	1	0	0	CorrectCommission	0.684980	0.444651	1	0
97.167542	0.792480	city	1	1	0.596153	0.596153	0	1	0	0	CorrectCommission	0.244510	0.450163	1	0
97.959808	0.792050	city	5	1	0.646044	0.646044	0	1	0	0	CorrectCommission	0.204615	0.456834	1	0
98.752075	0.792481	city	8	1	0.562445	0.562445	0	1	0	0	CorrectCommission	0.547952	0.464233	1	0
99.544342	0.792051	city	6	1	0.558783	0.558783	0	1	0	0	CorrectCommission	0.580918	0.471898	1	0
100.336548	0.792371	city	4	1	0.546706	0.546706	0	1	0	0	CorrectCommission	0.689640	0.479393	1	0
101.128922	0.792374	city	5	1	0.547562	0.547562	0	1	0	0	CorrectCommission	0.681939	0.486372	1	0
101.921135	0.792046	city	9	1	0.596021	0.596021	0	1	0	0	CorrectCommission	0.245702	0.492596	1	0
102.713310	0.792315	city	3	1	0.547477	0.547477	0	1	0	0	CorrectCommission	0.682702	0.497940	1	0
103.505577	0.792215	city	9	1	0.546919	0.546919	0	1	0	0	CorrectCommission	0.687723	0.502373	1	0
104.297928	0.792480	city	5	1	0.596286	0.596286	0	1	0	0	CorrectCommission	0.243310	0.505921	1	0
105.090187	0.792047	city	8	1	0.557869	0.557869	0	1	0	0	CorrectCommission	0.589151	0.508632	1	0
105.882385	0.792346	city	10	1	0.596397	0.596397	0	1	0	0	CorrectCommission	0.242317	0.510526	1	0
106.674759	0.792401	city	8	1	0.596275	0.596275	0	1	0	0	CorrectCommission	0.243410	0.511612	1	0
107.466988	0.792049	city	2	1	0.645590	0.645590	0	1	0	0	CorrectCommission	0.200534	0.511904	1	0
108.259193	0.792371	city	4	1	0.794455	0.794455	0	1	0	0	CorrectCommission	1.540643	0.511470	1	0
109.051567	0.792375	city	3	1	0.699905	0.699905	0	1	0	0	CorrectCommission	0.689482	0.510450	1	0
109.843834	0.792156	city	6	1	0.702865	0.702865	0	1	0	0	CorrectCommission	0.716132	0.509184	1	0
110.635986	0.792154	city	9	1	0.647333	0.647333	0	1	0	0	CorrectCommission	0.216221	0.508184	1	0
111.428307	0.792483	city	5	1	0.645795	0.645795	0	1	0	0	CorrectCommission	0.202378	0.508223	1	0
112.220573	0.792051	city	1	1	0.610274	0.610274	0	1	0	0	CorrectCommission	0.117393	0.510197	1	0
113.012787	0.792369	city	5	1	0.564486	0.564486	0	1	0	0	CorrectCommission	0.529584	0.515164	1	0
113.805046	0.792162	city	1	1	0.556071	0.556071	0	1	0	0	CorrectCommission	0.605332	0.524349	1	0
114.597260	0.792262	city	2	1	0.547419	0.547419	0	1	0	0	CorrectCommission	0.683217	0.539155	1	0
115.389633	0.792480	city	8	1	0.596293	0.596293	0	1	0	0	CorrectCommission	0.243245	0.561137	1	0
116.181900	0.792046	city	7	1	0.515198	0.515198	0	1	0	0	CorrectCommission	0.973282	0.591938	1	0
116.974052	0.792267	city	1	1	0.547150	0.547150	0	1	0	0	CorrectCommission	0.685648	0.633101	1	0
117.766327	0.792285	city	2	1	0.597188	0.597188	0	1	0	0	CorrectCommission	0.235196	0.685906	0	0
118.558594	0.792244	city	4	1	0.597717	0.597717	0	1	0	0	CorrectCommission	0.230433	0.751007	0	0
119.350845	0.792264	city	9	1	0.596248	0.596248	0	1	0	0	CorrectCommission	0.243655	0.828160	0	0
120.143112	0.792267	mountain	4	0	0.000000	0.676891	1	0	0	0	CorrectOmission	0.482309	0.915917	0	0
120.935410	0.792327	city	3	1	0.754821	0.754821	0	1	0	0	CorrectCommission	1.183848	1.011470	0	0
121.727783	0.792420	city	2	1	0.745213	0.745213	0	1	0	0	CorrectCommission	1.097351	1.110662	0	0
122.520012	0.792045	city	5	1	0.794090	0.794090	0	1	0	0	CorrectCommission	1.537353	1.208181	0	0
123.312279	0.792485	city	10	1	0.700009	0.700009	0	1	0	0	CorrectCommission	0.690417	1.298004	0	0
124.104599	0.792156	city	7	1	0.695346	0.695346	0	1	0	0	CorrectCommission	0.648439	1.374101	0	0
124.896759	0.792161	city	5	1	0.697338	0.697338	0	1	0	0	CorrectCommission	0.666378	1.431194	0	0
125.688965	0.792263	city	7	1	0.896869	0.896869	0	1	0	0	CorrectCommission	2.462591	1.465596	0	0
126.481232	0.792264	city	8	1	1.339105	1.339105	0	1	0	0	CorrectCommission	6.443678	1.475871	0	0
127.273529	0.792323	mountain	10	0	0.000000	1.017827	1	0	0	0	CorrectOmission	3.551474	1.463206	0	1
128.065796	0.792207	city	8	1	0.549094	0.549094	0	1	0	0	CorrectCommission	0.668142	1.431505	0	1
128.858032	0.792263	city	1	1	0.548967	0.548967	0	1	0	0	CorrectCommission	0.669290	1.386744	0	1
129.650391	0.792481	city	6	1	0.645780	0.645780	0	1	0	0	CorrectCommission	0.202238	1.336048	0	1
130.442673	0.792063	city	5	1	0.614409	0.614409	0	1	0	0	CorrectCommission	0.080164	1.286610	0	1
131.234940	0.792467	city	7	1	0.546758	0.546758	0	1	0	0	CorrectCommission	0.689172	1.244590	0	1
132.027206	0.792091	mountain	8	1	0.596148	0.596148	0	0	1	0	CommissionError	0.244551	1.214188	0	1
132.819473	0.792437	city	2	1	0.796865	0.796865	0	1	0	0	CorrectCommission	1.562338	1.197130	0	1
133.611725	0.792047	city	6	1	0.645955	0.645955	0	1	0	0	CorrectCommission	0.203821	1.192541	0	1
134.403870	0.792265	city	8	1	0.499560	0.499560	0	1	0	0	CorrectCommission	1.114060	1.197370	0	1
135.196136	0.792267	city	7	1	0.497179	0.497179	0	1	0	0	CorrectCommission	1.135495	1.206975	0	1
135.988510	0.792481	city	5	1	0.447893	0.447893	0	1	0	0	CorrectCommission	1.579171	1.216057	0	1
136.780807	0.792114	city	4	1	0.348447	0.348447	0	1	0	0	CorrectCommission	2.474401	1.219525	0	1
137.572998	0.792246	city	3	1	0.402807	0.402807	0	1	0	0	CorrectCommission	1.985042	1.213277	0	1
138.365250	0.792278	city	10	1	0.447794	0.447794	0	1	0	0	CorrectCommission	1.580061	1.194752	0	1
139.157516	0.792247	city	5	1	0.412626	0.412626	0	1	0	0	CorrectCommission	1.896651	1.163152	0	1
139.949753	0.792222	city	6	1	0.515300	0.515300	0	1	0	0	CorrectCommission	0.972361	1.119332	0	1
140.742096	0.792483	city	8	1	0.497272	0.497272	0	1	0	0	CorrectCommission	1.134651	1.065494	0	1
141.534363	0.792049	mountain	2	0	0.000000	0.638921	1	0	0	0	CorrectOmission	0.140497	1.004636	0	1
142.326523	0.792262	city	2	1	0.763782	0.763782	0	1	0	0	CorrectCommission	1.264515	0.940044	0	1
143.118790	0.792267	city	3	1	0.695390	0.695390	0	1	0	0	CorrectCommission	0.648838	0.874730	0	1
143.911057	0.792263	city	1	1	0.645739	0.645739	0	1	0	0	CorrectCommission	0.201873	0.811110	0	1
144.703323	0.792265	city	2	1	0.547050	0.547050	0	1	0	0	CorrectCommission	0.686545	0.750934	0	1
145.495575	0.792262	city	7	1	0.610630	0.610630	0	1	0	0	CorrectCommission	0.114184	0.695301	0	1
146.287857	0.792298	mountain	6	0	0.000000	0.745666	1	0	0	0	CorrectOmission	1.101434	0.644831	1	1
147.080231	0.792450	city	9	1	0.794274	0.794274	0	1	0	0	CorrectCommission	1.539009	0.599877	1	1
147.872482	0.792056	city	8	1	0.598570	0.598570	0	1	0	0	CorrectCommission	0.222754	0.560808	1	1
148.664673	0.792324	city	7	1	0.546669	0.546669	0	1	0	0	CorrectCommission	0.689978	0.528180	1	1
149.457001	0.792307	city	6	1	0.596322	0.596322	0	1	0	0	CorrectCommission	0.242992	0.502730	1	1
150.249222	0.792155	mountain	8	0	0.000000	0.627797	1	0	0	0	CorrectOmission	0.040357	0.485315	1	1
151.041428	0.792265	city	5	1	0.645803	0.645803	0	1	0	0	CorrectCommission	0.202450	0.476732	1	1
151.833710	0.792275	city	7	1	0.655047	0.655047	0	1	0	0	CorrectCommission	0.285667	0.477452	1	1
152.625977	0.792277	city	9	1	0.661146	0.661146	0	1	0	0	CorrectCommission	0.340572	0.487401	1	1
153.418350	0.792458	city	2	1	0.645742	0.645742	0	1	0	0	CorrectCommission	0.201903	0.505788	1	1
154.210663	0.792157	city	1	1	0.596196	0.596196	0	1	0	0	CorrectCommission	0.244122	0.531007	1	1
155.002914	0.792373	city	10	1	0.547097	0.547097	0	1	0	0	CorrectCommission	0.686125	0.560704	1	1
155.795242	0.792265	city	1	1	0.605156	0.605156	0	1	0	0	CorrectCommission	0.163466	0.591939	1	1
156.587402	0.792048	city	6	1	0.546559	0.546559	0	1	0	0	CorrectCommission	0.690965	0.621481	1	1
157.379608	0.792374	city	4	1	0.497184	0.497184	0	1	0	0	CorrectCommission	1.135443	0.646137	1	1
158.171875	0.792157	city	9	1	0.497128	0.497128	0	1	0	0	CorrectCommission	1.135952	0.663145	1	1
158.964081	0.792266	city	1	1	0.550135	0.550135	0	1	0	0	CorrectCommission	0.658769	0.670540	0	1
159.756348	0.792261	city	2	1	0.497209	0.497209	0	1	0	0	CorrectCommission	1.135220	0.667409	1	1
160.548615	0.792268	city	1	1	0.453614	0.453614	0	1	0	0	CorrectCommission	1.527667	0.654004	1	1
161.340881	0.792262	city	9	1	0.497284	0.497284	0	1	0	0	CorrectCommission	1.134548	0.631794	1	1
162.133255	0.792484	city	3	1	0.596273	0.596273	0	1	0	0	CorrectCommission	0.243430	0.603283	1	1
162.925522	0.792048	city	1	1	0.602773	0.602773	0	1	0	0	CorrectCommission	0.184917	0.571773	1	1
163.717667	0.792262	city	3	1	0.645728	0.645728	0	1	0	0	CorrectCommission	0.201770	0.540985	1	1
164.509995	0.792375	city	5	1	0.596238	0.596238	0	1	0	0	CorrectCommission	0.243741	0.514675	1	1
165.302261	0.792156	city	3	1	0.695166	0.695166	0	1	0	0	CorrectCommission	0.646826	0.496296	1	1
166.094574	0.792483	city	5	1	0.609701	0.609701	0	1	0	0	CorrectCommission	0.122545	0.488643	1	1
166.886841	0.792045	city	4	1	0.645662	0.645662	0	1	0	0	CorrectCommission	0.201181	0.493608	1	1
167.678986	0.792264	city	5	1	0.608215	0.608215	0	1	0	0	CorrectCommission	0.135921	0.511966	1	1
168.471268	0.792290	city	10	1	0.695266	0.695266	0	1	0	0	CorrectCommission	0.647727	0.543283	1	1
169.263535	0.792244	city	1	1	0.645880	0.645880	0	1	0	0	CorrectCommission	0.203139	0.585904	1	1
170.055801	0.792300	city	10	1	0.651089	0.651089	0	1	0	0	CorrectCommission	0.250037	0.637061	1	1
170.848175	0.792445	city	5	1	0.648339	0.648339	0	1	0	0	CorrectCommission	0.225274	0.693059	0	1
171.640533	0.792265	city	9	1	0.547018	0.547018	0	1	0	0	CorrectCommission	0.686835	0.749621	0	1
172.432800	0.792263	city	3	1	0.546477	0.546477	0	1	0	0	CorrectCommission	0.691701	0.802258	0	1
173.224960	0.792050	city	5	1	0.464617	0.464617	0	1	0	0	CorrectCommission	1.428616	0.846782	0	1
174.017120	0.792264	city	1	1	0.447709	0.447709	0	1	0	0	CorrectCommission	1.580828	0.879717	0	1
174.809433	0.792370	city	2	1	0.369946	0.369946	0	1	0	0	CorrectCommission	2.280868	0.898699	0	1
175.601700	0.792158	city	8	1	0.497196	0.497196	0	1	0	0	CorrectCommission	1.135340	0.902674	0	1
176.393906	0.792265	city	2	1	0.449685	0.449685	0	1	0	0	CorrectCommission	1.563038	0.891991	0	1
177.186172	0.792269	city	5	1	0.695278	0.695278	0	1	0	0	CorrectCommission	0.647835	0.868165	0	1
177.978439	0.792260	city	6	1	0.646291	0.646291	0	1	0	0	CorrectCommission	0.206844	0.833639	0	1
178.770706	0.792269	city	3	1	0.546998	0.546998	0	1	0	0	CorrectCommission	0.687014	0.791363	0	1
179.563019	0.792368	city	5	1	0.547034	0.547034	0	1	0	0	CorrectCommission	0.686684	0.744398	0	1
180.355286	0.792155	mountain	2	0	0.000000	0.661419	1	0	0	0	CorrectOmission	0.343024	0.695594	0	1
181.147598	0.792483	city	5	1	0.755723	0.755723	0	1	0	0	CorrectCommission	1.191965	0.647361	1	1
181.939865	0.792054	city	6	1	0.695518	0.695518	0	1	0	0	CorrectCommission	0.649993	0.601513	1	1
182.732025	0.792259	city	4	1	0.596219	0.596219	0	1	0	0	CorrectCommission	0.243915	0.559298	1	1
183.524323	0.792319	city	7	1	0.610886	0.610886	0	1	0	0	CorrectCommission	0.111877	0.521468	1	1
184.316574	0.792211	city	5	1	0.546668	0.546668	0	1	0	0	CorrectCommission	0.689978	0.488392	1	1
185.108810	0.792265	city	2	1	0.645798	0.645798	0	1	0	0	CorrectCommission	0.202406	0.460188	1	1
185.901077	0.792263	city	10	1	0.646259	0.646259	0	1	0	0	CorrectCommission	0.206556	0.436881	1	1
186.693359	0.792283	city	2	1	0.744796	0.744796	0	1	0	0	CorrectCommission	1.093603	0.418467	1	0
187.485672	0.792357	city	9	1	0.657473	0.657473	0	1	0	0	CorrectCommission	0.307502	0.404941	1	0
188.277954	0.792215	mountain	3	0	0.000000	0.647380	1	0	0	0	CorrectOmission	0.216647	0.396327	1	0
189.070282	0.792422	city	4	1	0.650912	0.650912	0	1	0	0	CorrectCommission	0.248436	0.392550	1	0
189.862518	0.792051	city	10	1	0.604460	0.604460	0	1	0	0	CorrectCommission	0.169730	0.393389	1	0
190.654724	0.792369	city	1	1	0.596580	0.596580	0	1	0	0	CorrectCommission	0.240665	0.398362	1	0
191.447037	0.792266	city	5	1	0.596190	0.596190	0	1	0	0	CorrectCommission	0.244176	0.406737	1	0
192.239288	0.792211	city	10	1	0.596581	0.596581	0	1	0	0	CorrectCommission	0.240657	0.417516	1	0
193.031601	0.792429	mountain	1	0	0.000000	0.580090	1	0	0	0	CorrectOmission	0.389109	0.429569	1	0
193.823898	0.792156	city	10	1	0.562598	0.562598	0	1	0	0	CorrectCommission	0.546576	0.441778	1	0
194.616074	0.792209	city	2	1	0.559985	0.559985	0	1	0	0	CorrectCommission	0.570098	0.453245	1	0
195.408340	0.792321	city	3	1	0.546674	0.546674	0	1	0	0	CorrectCommission	0.689925	0.463463	1	0
196.200684	0.792372	city	8	1	0.498216	0.498216	0	1	0	0	CorrectCommission	1.126156	0.472391	1	0
196.992920	0.792101	mountain	5	0	0.000000	0.537733	1	0	0	0	CorrectOmission	0.770413	0.480465	1	0
197.785080	0.792216	mountain	2	0	0.000000	0.606505	1	0	0	0	CorrectOmission	0.151318	0.488522	1	0
198.577316	0.792266	city	9	1	0.645810	0.645810	0	1	0	0	CorrectCommission	0.202507	0.497552	1	0
199.369583	0.792257	city	1	1	0.596925	0.596925	0	1	0	0	CorrectCommission	0.237560	0.508451	1	0
200.161957	0.792484	city	9	1	0.596250	0.596250	0	1	0	0	CorrectCommission	0.243639	0.521750	1	0
200.954224	0.792048	city	6	1	0.546867	0.546867	0	1	0	0	CorrectCommission	0.688191	0.537409	1	0
201.746399	0.792302	city	9	1	0.614365	0.614365	0	1	0	0	CorrectCommission	0.080560	0.554678	1	0
202.538681	0.792275	city	8	1	0.565000	0.565000	0	1	0	0	CorrectCommission	0.524957	0.572167	1	0
203.331039	0.792435	city	3	1	0.559293	0.559293	0	1	0	0	CorrectCommission	0.576330	0.587957	1	0
204.123276	0.792045	city	4	1	0.564217	0.564217	0	1	0	0	CorrectCommission	0.532005	0.599888	1	0
204.915436	0.792266	city	8	1	0.499455	0.499455	0	1	0	0	CorrectCommission	1.115002	0.605904	1	0
205.707703	0.792266	city	9	1	0.555827	0.555827	0	1	0	0	CorrectCommission	0.607532	0.604369	1	0
206.500076	0.792481	city	4	1	0.843813	0.843813	0	1	0	0	CorrectCommission	1.984970	0.594364	1	0
207.292343	0.792056	city	7	1	0.744584	0.744584	0	1	0	0	CorrectCommission	1.091696	0.575789	1	0
208.084610	0.792473	mountain	10	1	0.645784	0.645784	0	0	1	0	CommissionError	0.202277	0.549458	1	0
208.876968	0.792265	city	1	1	0.611950	0.611950	0	1	0	0	CorrectCommission	0.102298	0.516934	1	0
209.669128	0.792055	city	2	1	0.650057	0.650057	0	1	0	0	CorrectCommission	0.240745	0.480290	1	0
210.461288	0.792260	city	8	1	0.695195	0.695195	0	1	0	0	CorrectCommission	0.647080	0.441836	1	0
211.253555	0.792269	city	7	1	0.650685	0.650685	0	1	0	0	CorrectCommission	0.246395	0.403841	1	0
212.045822	0.792271	city	5	1	0.645770	0.645770	0	1	0	0	CorrectCommission	0.202150	0.368328	1	0
212.838120	0.792306	city	9	1	0.596199	0.596199	0	1	0	0	CorrectCommission	0.244094	0.336894	1	0
213.630371	0.792210	city	5	1	0.612026	0.612026	0	1	0	0	CorrectCommission	0.101620	0.310639	1	0
214.422714	0.792482	city	7	1	0.596565	0.596565	0	1	0	0	CorrectCommission	0.240803	0.290171	1	0
215.215042	0.792157	city	3	1	0.596341	0.596341	0	1	0	0	CorrectCommission	0.242813	0.275652	1	0
216.007202	0.792160	city	8	1	0.596107	0.596107	0	1	0	0	CorrectCommission	0.244927	0.266878	1	0
216.799438	0.792313	city	9	1	0.596400	0.596400	0	1	0	0	CorrectCommission	0.242284	0.263337	1	0
217.591690	0.792211	city	5	1	0.645737	0.645737	0	1	0	0	CorrectCommission	0.201858	0.264300	1	0
218.383987	0.792375	city	4	1	0.607363	0.607363	0	1	0	0	CorrectCommission	0.143597	0.268864	1	0
219.176361	0.792373	city	6	1	0.654753	0.654753	0	1	0	0	CorrectCommission	0.283019	0.276025	1	0
219.968628	0.792154	city	8	1	0.645510	0.645510	0	1	0	0	CorrectCommission	0.199807	0.284692	1	0
220.760788	0.792157	city	5	1	0.596200	0.596200	0	1	0	0	CorrectCommission	0.244084	0.293764	1	0
221.553055	0.792373	city	10	1	0.596477	0.596477	0	1	0	0	CorrectCommission	0.241594	0.302196	1	0
222.345337	0.792219	city	4	1	0.646141	0.646141	0	1	0	0	CorrectCommission	0.205491	0.309064	1	0
223.137589	0.792268	city	6	1	0.552628	0.552628	0	1	0	0	CorrectCommission	0.636328	0.313673	1	0
223.929825	0.792198	city	4	1	0.552364	0.552364	0	1	0	0	CorrectCommission	0.638703	0.315597	1	0
224.722107	0.792376	city	6	1	0.547128	0.547128	0	1	0	0	CorrectCommission	0.685839	0.314758	1	0
225.514420	0.792264	city	4	1	0.646832	0.646832	0	1	0	0	CorrectCommission	0.211711	0.311433	1	0
226.306641	0.792158	mountain	5	0	0.000000	0.650307	1	0	0	0	CorrectOmission	0.242990	0.306192	1	0
227.098862	0.792292	city	10	1	0.614456	0.614456	0	1	0	0	CorrectCommission	0.079747	0.299818	1	0
227.891159	0.792292	city	9	1	0.596182	0.596182	0	1	0	0	CorrectCommission	0.244245	0.293189	1	0
228.683426	0.792261	mountain	3	0	0.000000	0.598715	1	0	0	0	CorrectOmission	0.221442	0.287183	1	0
229.475708	0.792289	city	8	1	0.607111	0.607111	0	1	0	0	CorrectCommission	0.145866	0.282586	1	0
230.267944	0.792189	city	1	1	0.606425	0.606425	0	1	0	0	CorrectCommission	0.152044	0.280024	1	0
231.060165	0.792263	city	3	1	0.695263	0.695263	0	1	0	0	CorrectCommission	0.647697	0.279926	1	0
231.852432	0.792265	city	5	1	0.647049	0.647049	0	1	0	0	CorrectCommission	0.213661	0.282494	1	0
232.644806	0.792482	city	10	1	0.645920	0.645920	0	1	0	0	CorrectCommission	0.203504	0.287740	1	0
233.437073	0.792049	city	3	1	0.601913	0.601913	0	1	0	0	CorrectCommission	0.192656	0.295486	1	0
234.229263	0.792331	city	1	1	0.597615	0.597615	0	1	0	0	CorrectCommission	0.231352	0.305375	1	0
235.021637	0.792414	mountain	4	0	0.000000	0.614502	1	0	0	0	CorrectOmission	0.079329	0.316943	1	0
235.813873	0.792048	city	7	1	0.645568	0.645568	0	1	0	0	CorrectCommission	0.200335	0.329688	1	0
236.606018	0.792267	mountain	5	0	0.000000	0.683807	1	0	0	0	CorrectOmission	0.544565	0.343138	1	0
237.398285	0.792266	city	6	1	0.695287	0.695287	0	1	0	0	CorrectCommission	0.647909	0.356936	1	0
238.190552	0.792269	city	4	1	0.646077	0.646077	0	1	0	0	CorrectCommission	0.204916	0.370934	1	0
238.982819	0.792256	city	8	1	0.553867	0.553867	0	1	0	0	CorrectCommission	0.625180	0.385273	1	0
239.775085	0.792265	city	10	1	0.597332	0.597332	0	1	0	0	CorrectCommission	0.233896	0.400349	1	0
240.567368	0.792294	city	7	1	0.698963	0.698963	0	1	0	0	CorrectCommission	0.681004	0.416833	1	0
241.359680	0.792344	city	10	1	0.645861	0.645861	0	1	0	0	CorrectCommission	0.202975	0.435547	1	0
242.151932	0.792156	city	2	1	0.695311	0.695311	0	1	0	0	CorrectCommission	0.648125	0.457365	1	0
242.944138	0.792267	city	7	1	0.646269	0.646269	0	1	0	0	CorrectCommission	0.206641	0.483024	1	0
243.736465	0.792371	city	5	1	0.598567	0.598567	0	1	0	0	CorrectCommission	0.222783	0.512983	1	0
244.528717	0.792158	city	9	1	0.600027	0.600027	0	1	0	0	CorrectCommission	0.209632	0.547244	1	0
245.320938	0.792266	mountain	9	0	0.000000	0.573595	1	0	0	0	CorrectOmission	0.447580	0.585267	1	0
246.113312	0.792481	city	1	1	0.546629	0.546629	0	1	0	0	CorrectCommission	0.690332	0.625906	1	1
246.905579	0.792046	city	4	1	0.546489	0.546489	0	1	0	0	CorrectCommission	0.691595	0.667465	1	1
247.697754	0.792326	city	2	1	0.547380	0.547380	0	1	0	0	CorrectCommission	0.683573	0.707843	0	1
248.490036	0.792215	city	8	1	0.454744	0.454744	0	1	0	0	CorrectCommission	1.517499	0.744661	0	1
249.282303	0.792317	city	1	1	0.596293	0.596293	0	1	0	0	CorrectCommission	0.243250	0.775516	0	1
250.074554	0.792203	city	7	1	0.558333	0.558333	0	1	0	0	CorrectCommission	0.584973	0.798313	0	1
250.866791	0.792263	city	3	1	0.497205	0.497205	0	1	0	0	CorrectCommission	1.135254	0.811481	0	1
251.659088	0.792327	city	4	1	0.447834	0.447834	0	1	0	0	CorrectCommission	1.579706	0.814259	0	1
252.451355	0.792203	city	7	1	0.508282	0.508282	0	1	0	0	CorrectCommission	1.035539	0.806882	0	1
253.243576	0.792264	city	9	1	0.508585	0.508585	0	1	0	0	CorrectCommission	1.032813	0.790674	0	1
254.035889	0.792346	city	10	1	0.448147	0.448147	0	1	0	0	CorrectCommission	1.576887	0.767938	0	1
254.828156	0.792196	city	9	1	0.546634	0.546634	0	1	0	0	CorrectCommission	0.690290	0.741710	0	1
255.620499	0.792471	city	2	1	0.555721	0.555721	0	1	0	0	CorrectCommission	0.608488	0.715434	0	1
256.412750	0.792049	city	6	1	0.596135	0.596135	0	1	0	0	CorrectCommission	0.244675	0.692423	0	1
257.205017	0.792479	mountain	10	0	0.000000	0.627720	1	0	0	0	CorrectOmission	0.039665	0.675393	0	1
257.997375	0.792263	city	9	1	0.646028	0.646028	0	1	0	0	CorrectCommission	0.204474	0.666005	1	1
258.789551	0.792050	city	8	1	0.646608	0.646608	0	1	0	0	CorrectCommission	0.209695	0.664608	1	1
259.581757	0.792372	city	7	1	0.653545	0.653545	0	1	0	0	CorrectCommission	0.272146	0.670172	0	1
260.374084	0.792263	city	3	1	0.695157	0.695157	0	1	0	0	CorrectCommission	0.646746	0.680467	0	1
261.166382	0.792376	city	8	1	0.645919	0.645919	0	1	0	0	CorrectCommission	0.203496	0.692431	0	1
261.958618	0.792049	city	9	1	0.697935	0.697935	0	1	0	0	CorrectCommission	0.671747	0.702710	0	1
262.750763	0.792264	mountain	10	1	0.904413	0.904413	0	0	1	0	CommissionError	2.530504	0.708196	0	1
263.543030	0.792261	city	9	1	0.800570	0.800570	0	1	0	0	CorrectCommission	1.595687	0.706507	0	1
264.335358	0.792401	city	10	1	0.713229	0.713229	0	1	0	0	CorrectCommission	0.809428	0.696411	0	1
265.127625	0.792132	mountain	9	0	0.000000	0.689737	1	0	0	0	CorrectOmission	0.597950	0.677910	0	1
265.919861	0.792370	city	7	1	0.695309	0.695309	0	1	0	0	CorrectCommission	0.648106	0.652130	1	1
266.712158	0.792201	city	10	1	0.695158	0.695158	0	1	0	0	CorrectCommission	0.646749	0.621114	1	1
267.504364	0.792222	city	3	1	0.645743	0.645743	0	1	0	0	CorrectCommission	0.201908	0.587473	1	1
268.296631	0.792295	city	4	1	0.645800	0.645800	0	1	0	0	CorrectCommission	0.202418	0.553988	1	1
269.088989	0.792451	city	10	1	0.598568	0.598568	0	1	0	0	CorrectCommission	0.222771	0.523303	1	1
269.881256	0.792049	mountain	7	0	0.000000	0.604076	1	0	0	0	CorrectOmission	0.173186	0.497752	1	1
270.673523	0.792482	city	9	1	0.655249	0.655249	0	1	0	0	CorrectCommission	0.287484	0.479280	1	1
271.465820	0.792154	city	2	1	0.745013	0.745013	0	1	0	0	CorrectCommission	1.095551	0.469413	1	1
272.258087	0.792374	city	3	1	0.712241	0.712241	0	1	0	0	CorrectCommission	0.800531	0.469303	1	1
273.050354	0.792157	city	9	1	0.645967	0.645967	0	1	0	0	CorrectCommission	0.203920	0.479769	1	1
273.842560	0.792262	city	6	1	0.605494	0.605494	0	1	0	0	CorrectCommission	0.160418	0.501250	1	1
274.634796	0.792180	city	5	0	0.000000	0.628424	0	0	0	1	OmissionError	0.046001	0.533701	1	1
275.427063	0.792351	city	7	1	0.660086	0.660086	0	1	0	0	CorrectCommission	0.331028	0.576473	1	1
276.219299	0.792155	city	2	1	0.645810	0.645810	0	1	0	0	CorrectCommission	0.202513	0.628187	1	1
277.011536	0.792266	city	7	1	0.596329	0.596329	0	1	0	0	CorrectCommission	0.242922	0.686663	0	1
277.803833	0.792336	city	3	1	0.703178	0.703178	0	1	0	0	CorrectCommission	0.718948	0.748944	0	1
278.596100	0.792196	mountain	6	0	0.000000	0.741760	1	0	0	0	CorrectOmission	1.066268	0.811439	0	1
279.388428	0.792480	mountain	7	1	0.744747	0.744747	0	0	1	0	CommissionError	1.093159	0.870188	0	1
280.180786	0.792263	city	2	1	0.744811	0.744811	0	1	0	0	CorrectCommission	1.093740	0.921198	0	1
280.973053	0.792265	city	9	1	0.744635	0.744635	0	1	0	0	CorrectCommission	1.092148	0.960872	0	1
281.765289	0.792156	city	2	1	0.744709	0.744709	0	1	0	0	CorrectCommission	1.092816	0.986391	0	1
282.557495	0.792264	city	4	1	0.908958	0.908958	0	1	0	0	CorrectCommission	2.571414	0.996047	0	1
283.349792	0.792373	city	10	1	0.794341	0.794341	0	1	0	0	CorrectCommission	1.539613	0.989402	0	1
284.142029	0.792076	city	2	1	0.714063	0.714063	0	1	0	0	CorrectCommission	0.816935	0.967427	0	1
284.934296	0.792455	city	1	1	0.695388	0.695388	0	1	0	0	CorrectCommission	0.648818	0.932364	0	1
285.726562	0.792077	city	10	1	0.761277	0.761277	0	1	0	0	CorrectCommission	1.241970	0.887495	0	1
286.518707	0.792233	city	2	1	0.744805	0.744805	0	1	0	0	CorrectCommission	1.093684	0.836823	0	1
287.310974	0.792265	city	4	1	0.705900	0.705900	0	1	0	0	CorrectCommission	0.743452	0.784659	0	1
288.103241	0.792268	mountain	10	0	0.000000	0.673870	1	0	0	0	CorrectOmission	0.455116	0.735221	0	1
288.895508	0.792261	city	7	1	0.650131	0.650131	0	1	0	0	CorrectCommission	0.241412	0.692219	0	1
289.687744	0.792266	mountain	1	0	0.000000	0.636097	1	0	0	0	CorrectOmission	0.115077	0.658559	1	1
290.480072	0.792333	city	6	1	0.646355	0.646355	0	1	0	0	CorrectCommission	0.207414	0.636139	1	1
291.272339	0.792202	city	10	1	0.695489	0.695489	0	1	0	0	CorrectCommission	0.649729	0.625739	1	1
292.064545	0.792261	city	3	1	0.646163	0.646163	0	1	0	0	CorrectCommission	0.205693	0.627047	1	1
292.856842	0.792293	city	7	1	0.695314	0.695314	0	1	0	0	CorrectCommission	0.648157	0.638790	1	1
293.649109	0.792234	city	2	1	0.695215	0.695215	0	1	0	0	CorrectCommission	0.647268	0.658894	1	1
294.441376	0.792328	mountain	2	0	0.000000	0.694192	1	0	0	0	CorrectOmission	0.638052	0.684752	0	1
295.233704	0.792311	city	2	1	0.695400	0.695400	0	1	0	0	CorrectCommission	0.648927	0.713475	0	1
296.025970	0.792264	city	10	1	0.701997	0.701997	0	1	0	0	CorrectCommission	0.708314	0.742146	0	1
296.818207	0.792159	city	5	1	0.696603	0.696603	0	1	0	0	CorrectCommission	0.659756	0.768051	0	1
297.610504	0.792479	city	1	1	0.794307	0.794307	0	1	0	0	CorrectCommission	1.539303	0.788875	0	1
298.402832	0.792155	city	7	1	0.796399	0.796399	0	1	0	0	CorrectCommission	1.558144	0.802803	0	1
299.194977	0.792161	city	4	1	0.703337	0.703337	0	1	0	0	CorrectCommission	0.720381	0.808638	0	1
299.987244	0.792320	city	6	1	0.645780	0.645780	0	1	0	0	CorrectCommission	0.202238	0.805826	0	1
300.779480	0.792206	city	1	1	0.596496	0.596496	0	1	0	0	CorrectCommission	0.241422	0.794451	0	1
301.571716	0.792269	city	5	1	0.844051	0.844051	0	1	0	0	CorrectCommission	1.987115	0.775176	0	1
302.363983	0.792264	city	7	1	0.745178	0.745178	0	1	0	0	CorrectCommission	1.097037	0.749164	0	1
303.156250	0.792265	city	3	1	0.745150	0.745150	0	1	0	0	CorrectCommission	1.096792	0.718030	0	1
303.948547	0.792288	city	6	1	0.695246	0.695246	0	1	0	0	CorrectCommission	0.647543	0.683659	0	1
304.740906	0.792455	city	3	1	0.650398	0.650398	0	1	0	0	CorrectCommission	0.243816	0.648084	1	1
305.533203	0.792123	city	5	1	0.613050	0.613050	0	1	0	0	CorrectCommission	0.092398	0.613311	1	0
306.325409	0.792297	mountain	5	0	0.000000	0.646560	1	0	0	0	CorrectOmission	0.209260	0.581147	1	0
307.117645	0.792154	city	7	1	0.697669	0.697669	0	1	0	0	CorrectCommission	0.669351	0.553080	1	0
307.909882	0.792324	mountain	2	0	0.000000	0.713118	1	0	0	0	CorrectOmission	0.808434	0.530198	1	0
308.702148	0.792205	city	6	1	0.695240	0.695240	0	1	0	0	CorrectCommission	0.647485	0.513136	1	0
309.494385	0.792314	city	10	1	0.646362	0.646362	0	1	0	0	CorrectCommission	0.207481	0.502100	1	0
310.286682	0.792231	city	2	1	0.656732	0.656732	0	1	0	0	CorrectCommission	0.300835	0.496884	1	0
311.078918	0.792253	city	8	1	0.646210	0.646210	0	1	0	0	CorrectCommission	0.206115	0.496934	1	0
311.871185	0.792264	city	4	1	0.599766	0.599766	0	1	0	0	CorrectCommission	0.211985	0.501448	1	0
312.663422	0.792265	city	2	1	0.696006	0.696006	0	1	0	0	CorrectCommission	0.654389	0.509434	1	0
313.455719	0.792272	city	5	1	0.695448	0.695448	0	1	0	0	CorrectCommission	0.649363	0.519848	1	0
314.247986	0.792295	city	2	1	0.646276	0.646276	0	1	0	0	CorrectCommission	0.206702	0.531714	1	0
315.040253	0.792237	city	5	1	0.503569	0.503569	0	1	0	0	CorrectCommission	1.077970	0.544222	1	0
315.832611	0.792473	city	4	1	0.497166	0.497166	0	1	0	0	CorrectCommission	1.135611	0.556754	1	0
316.624908	0.792153	city	9	1	0.596264	0.596264	0	1	0	0	CorrectCommission	0.243511	0.568955	1	0
317.417084	0.792157	city	2	1	0.552060	0.552060	0	1	0	0	CorrectCommission	0.641441	0.580721	1	0
318.209290	0.792281	mountain	4	0	0.000000	0.608060	1	0	0	0	CorrectOmission	0.137325	0.592113	1	0
319.001556	0.792247	city	4	1	0.645780	0.645780	0	1	0	0	CorrectCommission	0.202243	0.603309	1	0
319.793823	0.792265	city	3	1	0.546740	0.546740	0	1	0	0	CorrectCommission	0.689330	0.614615	1	0
320.586090	0.792268	city	7	1	0.505044	0.505044	0	1	0	0	CorrectCommission	1.064686	0.626441	1	0
321.378357	0.792261	city	4	1	0.550317	0.550317	0	1	0	0	CorrectCommission	0.657131	0.639290	1	0
322.170624	0.792264	city	6	1	0.546722	0.546722	0	1	0	0	CorrectCommission	0.689498	0.653827	1	0
322.962891	0.792304	city	5	1	0.497726	0.497726	0	1	0	0	CorrectCommission	1.130569	0.670830	0	0
323.755157	0.792230	mountain	5	0	0.000000	0.563637	1	0	0	0	CorrectOmission	0.537227	0.691142	0	0
324.547424	0.792267	city	2	1	0.645969	0.645969	0	1	0	0	CorrectCommission	0.203945	0.715669	0	0
325.339691	0.792293	city	7	1	0.646238	0.646238	0	1	0	0	CorrectCommission	0.206369	0.745280	0	0
326.131958	0.792235	city	8	1	0.547030	0.547030	0	1	0	0	CorrectCommission	0.686724	0.780701	0	0
326.924225	0.792330	city	5	1	0.451041	0.451041	0	1	0	0	CorrectCommission	1.550835	0.822431	0	0
327.716522	0.792245	city	1	1	0.602900	0.602900	0	1	0	0	CorrectCommission	0.183769	0.870614	0	0
328.508759	0.792214	city	5	1	0.546681	0.546681	0	1	0	0	CorrectCommission	0.689867	0.925017	0	0
329.301056	0.792376	city	1	1	0.547328	0.547328	0	1	0	0	CorrectCommission	0.684045	0.984844	0	0
330.093414	0.792372	city	8	1	0.458884	0.458884	0	1	0	0	CorrectCommission	1.480233	1.048713	0	0
330.885681	0.792155	city	2	1	0.451471	0.451471	0	1	0	0	CorrectCommission	1.546962	1.114560	0	0
331.677856	0.792159	city	7	1	0.497068	0.497068	0	1	0	0	CorrectCommission	1.136493	1.179654	0	0
332.470062	0.792264	city	2	1	0.516328	0.516328	0	1	0	0	CorrectCommission	0.963108	1.240631	0	0
333.262360	0.792319	city	3	1	0.497366	0.497366	0	1	0	0	CorrectCommission	1.133810	1.293623	0	0
334.054596	0.792212	city	7	1	0.609701	0.609701	0	1	0	0	CorrectCommission	0.122550	1.334594	0	0
334.846863	0.792290	city	8	1	0.465567	0.465567	0	1	0	0	CorrectCommission	1.420068	1.359758	0	0
335.639191	0.792345	city	3	1	0.300387	0.300387	0	1	0	0	CorrectCommission	2.907050	1.366037	0	0
336.431427	0.792156	city	4	1	0.398064	0.398064	0	1	0	0	CorrectCommission	2.027744	1.351614	0	0
337.223633	0.792267	city	10	1	0.992430	0.992430	0	1	0	0	CorrectCommission	3.322843	1.316378	0	0
338.015900	0.792265	mountain	10	0	0.000000	0.957384	1	0	0	0	CorrectOmission	3.007353	1.262001	0	0
338.808197	0.792297	city	10	1	0.695288	0.695288	0	1	0	0	CorrectCommission	0.647918	1.191963	0	0
339.600464	0.792230	city	2	1	0.608504	0.608504	0	1	0	0	CorrectCommission	0.133327	1.111143	0	0
340.392822	0.792481	city	8	1	0.558912	0.558912	0	1	0	0	CorrectCommission	0.579761	1.025169	0	0
341.185059	0.792048	city	6	1	0.645510	0.645510	0	1	0	0	CorrectCommission	0.199812	0.939759	0	0
341.977234	0.792300	city	4	1	0.695705	0.695705	0	1	0	0	CorrectCommission	0.651678	0.860095	0	0
342.769562	0.792301	city	10	1	0.596276	0.596276	0	1	0	0	CorrectCommission	0.243403	0.790259	0	0
343.561798	0.792193	city	2	1	0.551084	0.551084	0	1	0	0	CorrectCommission	0.650226	0.732982	0	0
344.354034	0.792270	city	10	1	0.646080	0.646080	0	1	0	0	CorrectCommission	0.204942	0.689513	0	0
345.146332	0.792366	city	8	1	0.696619	0.696619	0	1	0	0	CorrectCommission	0.659899	0.659852	1	0
345.938599	0.792158	city	3	1	0.695236	0.695236	0	1	0	0	CorrectCommission	0.647456	0.642938	1	0
346.730804	0.792266	city	5	1	0.695412	0.695412	0	1	0	0	CorrectCommission	0.649035	0.637000	1	0
347.523071	0.792264	city	9	1	0.744745	0.744745	0	1	0	0	CorrectCommission	1.093145	0.639877	1	0
348.315338	0.792264	city	2	1	0.606140	0.606140	0	1	0	0	CorrectCommission	0.154609	0.649263	1	0
349.107605	0.792266	city	8	1	0.547366	0.547366	0	1	0	0	CorrectCommission	0.683698	0.662946	1	0
349.899872	0.792261	city	1	1	0.546694	0.546694	0	1	0	0	CorrectCommission	0.689750	0.678850	0	0
350.692200	0.792375	city	6	1	0.596623	0.596623	0	1	0	0	CorrectCommission	0.240281	0.695148	0	0
351.484528	0.792263	city	5	1	0.546642	0.546642	0	1	0	0	CorrectCommission	0.690214	0.710307	0	0
352.276825	0.792374	city	10	1	0.502331	0.502331	0	1	0	0	CorrectCommission	1.089109	0.723147	0	0
353.069031	0.792050	city	3	1	0.546696	0.546696	0	1	0	0	CorrectCommission	0.689735	0.732903	0	0
353.861267	0.792376	city	10	1	0.448334	0.448334	0	1	0	0	CorrectCommission	1.575201	0.739353	0	0
354.653534	0.792149	city	9	1	0.546527	0.546527	0	1	0	0	CorrectCommission	0.691255	0.742851	0	0
355.445740	0.792269	city	4	1	0.562366	0.562366	0	1	0	0	CorrectCommission	0.548669	0.744454	0	0
356.238037	0.792327	city	9	1	0.547142	0.547142	0	1	0	0	CorrectCommission	0.685714	0.745916	0	0
357.030334	0.792307	city	3	1	0.497181	0.497181	0	1	0	0	CorrectCommission	1.135473	0.749605	0	0
357.822571	0.792160	city	5	1	0.563689	0.563689	0	1	0	0	CorrectCommission	0.536755	0.758299	0	0
358.614807	0.792280	city	9	1	0.546767	0.546767	0	1	0	0	CorrectCommission	0.689088	0.774954	0	0
359.407074	0.792246	mountain	10	0	0.000000	0.620004	1	0	0	0	CorrectOmission	0.029802	0.802328	0	0
360.199341	0.792291	mountain	4	0	0.000000	0.710363	1	0	0	0	CorrectOmission	0.783632	0.842643	0	0
360.991608	0.792241	city	7	1	0.744812	0.744812	0	1	0	0	CorrectCommission	1.093747	0.897137	0	0
361.783875	0.792330	city	9	1	0.650316	0.650316	0	1	0	0	CorrectCommission	0.243074	0.965764	0	0
362.576141	0.792201	city	10	1	0.547053	0.547053	0	1	0	0	CorrectCommission	0.686519	1.046958	0	0
363.368378	0.792260	city	4	1	0.560332	0.560332	0	1	0	0	CorrectCommission	0.566979	1.137513	0	0
364.160736	0.792485	city	10	1	0.504466	0.504466	0	1	0	0	CorrectCommission	1.069895	1.232747	0	0
364.953064	0.792153	city	5	1	0.546408	0.546408	0	1	0	0	CorrectCommission	0.692319	1.326799	0	1
365.745239	0.792219	city	9	1	0.447579	0.447579	0	1	0	0	CorrectCommission	1.582002	1.413261	0	1
366.537506	0.792312	city	4	1	0.546946	0.546946	0	1	0	0	CorrectCommission	0.687480	1.485822	0	1
367.329865	0.792372	city	7	1	1.042392	1.042392	0	1	0	0	CorrectCommission	3.772609	1.539110	0	1
368.122070	0.792039	city	6	1	1.102505	1.102505	0	1	0	0	CorrectCommission	4.313760	1.569261	0	1
368.914215	0.792277	city	7	1	0.912260	0.912260	0	1	0	0	CorrectCommission	2.601138	1.574515	0	1
369.706482	0.792265	city	10	1	0.796632	0.796632	0	1	0	0	CorrectCommission	1.560235	1.555405	0	1
370.498871	0.792478	city	6	1	0.695355	0.695355	0	1	0	0	CorrectCommission	0.648527	1.514615	0	1
371.291229	0.792266	city	4	1	0.546847	0.546847	0	1	0	0	CorrectCommission	0.688367	1.456560	0	1
372.083405	0.792051	city	8	1	0.404732	0.404732	0	1	0	0	CorrectCommission	1.967716	1.386803	0	1
372.875549	0.792263	city	3	1	0.413430	0.413430	0	1	0	0	CorrectCommission	1.889412	1.311333	0	1
373.667877	0.792369	city	6	1	0.546881	0.546881	0	1	0	0	CorrectCommission	0.688067	1.235922	0	1
374.460205	0.792266	city	9	1	0.546664	0.546664	0	1	0	0	CorrectCommission	0.690015	1.165505	0	1
375.252411	0.792154	city	8	1	0.546685	0.546685	0	1	0	0	CorrectCommission	0.689830	1.103705	0	1
376.044617	0.792268	city	9	1	0.499652	0.499652	0	1	0	0	CorrectCommission	1.113229	1.052570	0	1
376.836884	0.792264	city	1	1	0.565459	0.565459	0	1	0	0	CorrectCommission	0.520826	1.012475	0	1
377.629150	0.792267	mountain	8	0	0.000000	0.579815	1	0	0	0	CorrectOmission	0.391590	0.982236	0	1
378.421509	0.792478	city	8	1	0.553567	0.553567	0	1	0	0	CorrectCommission	0.627875	0.959359	0	1
379.213776	0.792048	city	10	1	0.497563	0.497563	0	1	0	0	CorrectCommission	1.132037	0.940482	0	1
380.005951	0.792274	city	8	1	0.547363	0.547363	0	1	0	0	CorrectCommission	0.683728	0.921892	0	1
380.798309	0.792473	city	6	1	0.497316	0.497316	0	1	0	0	CorrectCommission	1.134261	0.900125	0	1
381.590576	0.792046	city	8	1	0.448130	0.448130	0	1	0	0	CorrectCommission	1.577035	0.872421	0	1
382.382721	0.792267	city	5	1	0.398179	0.398179	0	1	0	0	CorrectCommission	2.026708	0.837161	0	1
383.175049	0.792372	mountain	6	1	0.448142	0.448142	0	0	1	0	CommissionError	1.576930	0.794067	0	1
383.967377	0.792265	city	4	1	0.695131	0.695131	0	1	0	0	CorrectCommission	0.646508	0.744250	0	1
384.759613	0.792214	city	8	1	0.648123	0.648123	0	1	0	0	CorrectCommission	0.223332	0.689945	0	1
385.551819	0.792205	city	4	1	0.645682	0.645682	0	1	0	0	CorrectCommission	0.201357	0.634172	1	1
386.344116	0.792376	mountain	7	0	0.000000	0.647946	1	0	0	0	CorrectOmission	0.221736	0.580362	1	1
387.136383	0.792186	mountain	2	0	0.000000	0.652159	1	0	0	0	CorrectOmission	0.259664	0.531896	1	1
387.928589	0.792236	city	10	1	0.655566	0.655566	0	1	0	0	CorrectCommission	0.290336	0.491761	1	1
388.720947	0.792480	city	3	1	0.655412	0.655412	0	1	0	0	CorrectCommission	0.288946	0.462283	1	1
389.513245	0.792083	city	6	1	0.646131	0.646131	0	1	0	0	CorrectCommission	0.205405	0.444967	1	1
390.305389	0.792231	city	7	1	0.646492	0.646492	0	1	0	0	CorrectCommission	0.208648	0.440450	1	1
391.097656	0.792264	city	5	1	0.711112	0.711112	0	1	0	0	CorrectCommission	0.790368	0.448542	1	1
391.889954	0.792371	city	3	1	0.645760	0.645760	0	1	0	0	CorrectCommission	0.202065	0.468249	1	1
392.682220	0.792164	city	6	1	0.645789	0.645789	0	1	0	0	CorrectCommission	0.202322	0.497898	1	1
393.474457	0.792292	city	5	1	0.596598	0.596598	0	1	0	0	CorrectCommission	0.240502	0.535200	1	1
394.266724	0.792230	city	9	1	0.614394	0.614394	0	1	0	0	CorrectCommission	0.080305	0.577404	1	1
395.058960	0.792265	mountain	3	0	0.000000	0.689716	1	0	0	0	CorrectOmission	0.597764	0.621462	1	1
395.851288	0.792372	city	9	1	0.744837	0.744837	0	1	0	0	CorrectCommission	1.093966	0.664242	1	1
396.643555	0.792157	city	4	1	0.702024	0.702024	0	1	0	0	CorrectCommission	0.708562	0.702764	0	1
397.435760	0.792269	city	1	1	0.695270	0.695270	0	1	0	0	CorrectCommission	0.647762	0.734491	0	1
398.228088	0.792371	city	10	1	0.803356	0.803356	0	1	0	0	CorrectCommission	1.620767	0.757536	0	1
399.020355	0.792162	mountain	5	0	0.000000	0.815169	1	0	0	0	CorrectOmission	1.727108	0.770800	0	1
399.812561	0.792281	city	4	1	0.756632	0.756632	0	1	0	0	CorrectCommission	1.200146	0.774076	0	1
400.604828	0.792243	city	5	1	0.653667	0.653667	0	1	0	0	CorrectCommission	0.273242	0.767986	0	1
401.397125	0.792370	city	3	1	0.698815	0.698815	0	1	0	0	CorrectCommission	0.679673	0.753857	0	1
402.189392	0.792157	city	9	1	0.645652	0.645652	0	1	0	0	CorrectCommission	0.201092	0.733458	0	1
402.981598	0.792266	city	2	1	0.695246	0.695246	0	1	0	0	CorrectCommission	0.647541	0.708805	0	1
403.773987	0.792480	mountain	4	0	0.000000	0.736491	1	0	0	0	CorrectOmission	1.018834	0.681929	0	1
404.566345	0.792265	city	6	1	0.744667	0.744667	0	1	0	0	CorrectCommission	1.092436	0.654724	1	1
405.358521	0.792073	city	10	1	0.695054	0.695054	0	1	0	0	CorrectCommission	0.645813	0.628821	1	1
406.150696	0.792238	city	8	1	0.645718	0.645718	0	1	0	0	CorrectCommission	0.201686	0.605533	1	1
406.942932	0.792269	city	4	1	0.658219	0.658219	0	1	0	0	CorrectCommission	0.314220	0.585788	1	1
407.735260	0.792369	city	2	1	0.646055	0.646055	0	1	0	0	CorrectCommission	0.204716	0.570131	1	1
408.527527	0.792156	city	7	1	0.695179	0.695179	0	1	0	0	CorrectCommission	0.646937	0.558723	1	1
409.319824	0.792484	city	2	1	0.695569	0.695569	0	1	0	0	CorrectCommission	0.650452	0.551393	1	1
410.112152	0.792122	city	10	1	0.596535	0.596535	0	1	0	0	CorrectCommission	0.241075	0.547694	1	1
410.904297	0.792193	city	2	1	0.745386	0.745386	0	1	0	0	CorrectCommission	1.098916	0.546950	1	1
411.696564	0.792323	city	4	1	0.703387	0.703387	0	1	0	0	CorrectCommission	0.720830	0.548311	1	1
412.488831	0.792207	city	3	1	0.609205	0.609205	0	1	0	0	CorrectCommission	0.127015	0.550852	1	1
413.281067	0.792263	city	4	1	0.596377	0.596377	0	1	0	0	CorrectCommission	0.242492	0.553680	1	1
414.073334	0.792267	city	1	1	0.596817	0.596817	0	1	0	0	CorrectCommission	0.238532	0.555983	1	1
414.865631	0.792370	city	7	1	0.546746	0.546746	0	1	0	0	CorrectCommission	0.689276	0.557211	1	1
415.657898	0.792157	city	8	1	0.546549	0.546549	0	1	0	0	CorrectCommission	0.691051	0.557160	1	1
416.450104	0.792262	city	10	1	0.462791	0.462791	0	1	0	0	CorrectCommission	1.445056	0.556111	1	1
417.242371	0.792268	city	6	1	0.497836	0.497836	0	1	0	0	CorrectCommission	1.129578	0.554836	1	1
418.034637	0.792262	city	3	1	0.645744	0.645744	0	1	0	0	CorrectCommission	0.201916	0.554569	1	1
418.826965	0.792374	city	8	1	0.645796	0.645796	0	1	0	0	CorrectCommission	0.202385	0.556853	1	1
419.619232	0.792154	city	5	1	0.596419	0.596419	0	1	0	0	CorrectCommission	0.242116	0.563279	1	1
420.411438	0.792280	mountain	1	1	0.611481	0.611481	0	0	1	0	CommissionError	0.106522	0.575240	1	1
421.203705	0.792249	city	2	1	0.546680	0.546680	0	1	0	0	CorrectCommission	0.689875	0.593678	1	1
421.995972	0.792267	city	4	1	0.646567	0.646567	0	1	0	0	CorrectCommission	0.209325	0.618871	1	1
422.788239	0.792274	city	6	1	0.546723	0.546723	0	1	0	0	CorrectCommission	0.689484	0.650397	1	1
423.580505	0.792254	city	7	1	0.596788	0.596788	0	1	0	0	CorrectCommission	0.238792	0.687107	0	1
424.372772	0.792274	mountain	8	0	0.000000	0.693995	1	0	0	0	CorrectOmission	0.636282	0.727310	0	0
425.165131	0.792475	city	3	1	0.757389	0.757389	0	1	0	0	CorrectCommission	1.206961	0.768972	0	0
425.957520	0.792264	city	9	1	0.706013	0.706013	0	1	0	0	CorrectCommission	0.744470	0.809986	0	0
426.749664	0.792047	city	3	1	0.744592	0.744592	0	1	0	0	CorrectCommission	1.091764	0.848467	0	0
427.541931	0.792482	city	5	1	0.695278	0.695278	0	1	0	0	CorrectCommission	0.647835	0.882947	0	0
428.334259	0.792155	city	2	1	0.893127	0.893127	0	1	0	0	CorrectCommission	2.428907	0.912508	0	0
429.126404	0.792165	city	10	1	0.695410	0.695410	0	1	0	0	CorrectCommission	0.649023	0.936794	0	0
429.918671	0.792365	city	2	1	0.695397	0.695397	0	1	0	0	CorrectCommission	0.648907	0.956067	0	0
430.710938	0.792158	city	3	1	0.547274	0.547274	0	1	0	0	CorrectCommission	0.684532	0.971078	0	0
431.503235	0.792480	city	1	1	0.497246	0.497246	0	1	0	0	CorrectCommission	1.134891	0.982802	0	0
432.295532	0.792088	mountain	10	1	0.464565	0.464565	0	0	1	0	CommissionError	1.429085	0.992369	0	0
433.087677	0.792227	mountain	4	0	0.000000	0.605893	1	0	0	0	CorrectOmission	0.156832	1.000975	0	0
433.879944	0.792264	city	3	1	0.744795	0.744795	0	1	0	0	CorrectCommission	1.093589	1.009829	0	0
434.672241	0.792369	city	2	1	0.704839	0.704839	0	1	0	0	CorrectCommission	0.733897	1.020051	0	0
435.464508	0.792162	city	9	1	0.795029	0.795029	0	1	0	0	CorrectCommission	1.545806	1.032775	0	0
436.256744	0.792262	city	5	1	0.799065	0.799065	0	1	0	0	CorrectCommission	1.582139	1.049037	0	0
437.048981	0.792264	city	3	1	0.761416	0.761416	0	1	0	0	CorrectCommission	1.243214	1.069773	0	0
437.841370	0.792483	city	5	1	0.744760	0.744760	0	1	0	0	CorrectCommission	1.093280	1.095677	0	0
438.633636	0.792066	city	4	1	0.645648	0.645648	0	1	0	0	CorrectCommission	0.201054	1.127012	0	0
439.425842	0.792352	city	6	1	0.596221	0.596221	0	1	0	0	CorrectCommission	0.243897	1.163509	0	0
440.218201	0.792374	city	7	1	0.546821	0.546821	0	1	0	0	CorrectCommission	0.688604	1.204211	0	0
441.010468	0.792158	city	4	1	0.447888	0.447888	0	1	0	0	CorrectCommission	1.579216	1.247532	0	0
441.802643	0.792156	city	6	1	0.404615	0.404615	0	1	0	0	CorrectCommission	1.968772	1.291362	0	0
442.594849	0.792266	city	3	1	0.852786	0.852786	0	1	0	0	CorrectCommission	2.065745	1.333299	0	0
443.387115	0.792262	city	8	1	0.744713	0.744713	0	1	0	0	CorrectCommission	1.092850	1.370988	0	0
444.179382	0.792266	mountain	1	0	0.000000	0.552445	1	0	0	0	CorrectOmission	0.637975	1.402407	0	0
444.971741	0.792482	city	9	1	0.607252	0.607252	0	1	0	0	CorrectCommission	0.144594	1.426147	0	0
445.764008	0.792049	mountain	3	1	1.240402	1.240402	0	0	1	0	CommissionError	5.555130	1.441529	0	0
446.556183	0.792271	city	8	1	0.745270	0.745270	0	1	0	0	CorrectCommission	1.097870	1.448591	0	0
447.348450	0.792258	city	3	1	0.695233	0.695233	0	1	0	0	CorrectCommission	0.647424	1.448227	0	0
448.140747	0.792371	city	4	1	0.448162	0.448162	0	1	0	0	CorrectCommission	1.576750	1.441714	0	0
448.933014	0.792160	mountain	6	1	0.406069	0.406069	0	0	1	0	CommissionError	1.955683	1.430421	0	0
449.725250	0.792323	city	1	1	0.695201	0.695201	0	1	0	0	CorrectCommission	0.647139	1.415538	0	0
450.517548	0.792251	city	4	1	0.695358	0.695358	0	1	0	0	CorrectCommission	0.648554	1.397901	0	0
451.309875	0.792435	city	8	1	0.596817	0.596817	0	1	0	0	CorrectCommission	0.238533	1.377745	0	0
452.102173	0.792103	city	7	1	0.447466	0.447466	0	1	0	0	CorrectCommission	1.583013	1.354880	0	0
452.894379	0.792316	city	4	1	0.898255	0.898255	0	1	0	0	CorrectCommission	2.475065	1.328813	0	0
453.686615	0.792161	city	9	1	0.893268	0.893268	0	1	0	0	CorrectCommission	2.430172	1.299064	0	0
454.478821	0.792263	city	7	1	0.852218	0.852218	0	1	0	0	CorrectCommission	2.060631	1.265471	0	0
455.271088	0.792265	city	4	1	0.745239	0.745239	0	1	0	0	CorrectCommission	1.097591	1.228306	0	0
456.063354	0.792265	city	3	1	0.713030	0.713030	0	1	0	0	CorrectCommission	0.807641	1.188372	0	0
456.855621	0.792265	city	5	1	0.695733	0.695733	0	1	0	0	CorrectCommission	0.651928	1.146840	0	0
457.647888	0.792277	city	8	1	0.645924	0.645924	0	1	0	0	CorrectCommission	0.203539	1.105123	0	0
458.440186	0.792299	city	7	1	0.512252	0.512252	0	1	0	0	CorrectCommission	0.999801	1.064658	0	0
459.232422	0.792217	city	10	1	0.498543	0.498543	0	1	0	0	CorrectCommission	1.123215	1.026747	0	0
460.024658	0.792269	city	3	1	0.458221	0.458221	0	1	0	0	CorrectCommission	1.486197	0.992495	0	0
460.816925	0.792261	city	4	1	0.511396	0.511396	0	1	0	0	CorrectCommission	1.007512	0.962758	0	0
461.609314	0.792480	city	9	1	0.501765	0.501765	0	1	0	0	CorrectCommission	1.094208	0.938152	0	0
462.401672	0.792265	city	4	1	0.546506	0.546506	0	1	0	0	CorrectCommission	0.691438	0.919066	0	0
463.193848	0.792084	city	1	1	0.497021	0.497021	0	1	0	0	CorrectCommission	1.136917	0.905560	0	0
463.986023	0.792234	city	3	1	0.596288	0.596288	0	1	0	0	CorrectCommission	0.243290	0.897459	0	0
464.778290	0.792290	city	2	1	0.646005	0.646005	0	1	0	0	CorrectCommission	0.204266	0.894296	0	0
465.570648	0.792450	city	9	1	0.794350	0.794350	0	1	0	0	CorrectCommission	1.539695	0.895228	0	0
466.362915	0.792105	city	4	1	0.614230	0.614230	0	1	0	0	CorrectCommission	0.081773	0.899075	0	0
467.155182	0.792425	city	3	1	0.508393	0.508393	0	1	0	0	CorrectCommission	1.034538	0.904484	0	0
467.947418	0.792046	city	8	1	0.452676	0.452676	0	1	0	0	CorrectCommission	1.536119	0.909962	0	0
468.739594	0.792265	city	4	1	0.546877	0.546877	0	1	0	0	CorrectCommission	0.688105	0.914126	0	0
469.531860	0.792264	city	5	1	0.452674	0.452674	0	1	0	0	CorrectCommission	1.536130	0.915839	0	0
470.324127	0.792270	city	1	1	0.547192	0.547192	0	1	0	0	CorrectCommission	0.685267	0.914367	0	0
471.116364	0.792260	city	8	1	0.794296	0.794296	0	1	0	0	CorrectCommission	1.539209	0.909587	0	0
471.908752	0.792482	city	9	1	0.562960	0.562960	0	1	0	0	CorrectCommission	0.543321	0.901972	0	0
472.701050	0.792092	city	10	1	0.514904	0.514904	0	1	0	0	CorrectCommission	0.975932	0.892679	0	0
473.493195	0.792228	mountain	10	0	0.000000	0.589005	1	0	0	0	CorrectOmission	0.308855	0.883434	0	0
474.285431	0.792254	mountain	3	0	0.000000	0.707956	1	0	0	0	CorrectOmission	0.761965	0.876454	0	0
475.077698	0.792269	city	10	1	0.794449	0.794449	0	1	0	0	CorrectCommission	1.540587	0.874219	0	0
475.870026	0.792372	mountain	10	0	0.000000	0.771175	1	0	0	0	CorrectOmission	1.331068	0.879304	0	0
476.662292	0.792156	city	1	1	0.700740	0.700740	0	1	0	0	CorrectCommission	0.696999	0.894153	0	0
477.454529	0.792322	city	6	1	0.645750	0.645750	0	1	0	0	CorrectCommission	0.201970	0.920790	0	0
478.246887	0.792424	city	8	1	0.596498	0.596498	0	1	0	0	CorrectCommission	0.241401	0.960614	0	0
479.039185	0.792134	city	7	1	0.596067	0.596067	0	1	0	0	CorrectCommission	0.245282	1.014191	0	0
479.831329	0.792180	mountain	7	1	0.546691	0.546691	0	0	1	0	CommissionError	0.689778	1.081236	0	0
480.623596	0.792370	city	9	1	0.546770	0.546770	0	1	0	0	CorrectCommission	0.689064	1.160642	0	0
481.415924	0.792266	city	6	1	0.447618	0.447618	0	1	0	0	CorrectCommission	1.581651	1.250719	0	0
482.208130	0.792156	city	4	1	0.452076	0.452076	0	1	0	0	CorrectCommission	1.541514	1.349419	0	0
483.000397	0.792372	city	3	1	0.398247	0.398247	0	1	0	0	CorrectCommission	2.026097	1.454631	0	0
483.792786	0.792375	mountain	2	1	0.299008	0.299008	0	0	1	0	CommissionError	2.919460	1.564438	0	0
484.584991	0.792048	city	10	1	0.701791	0.701791	0	1	0	0	CorrectCommission	0.706464	1.677251	0	0
485.377258	0.792482	city	9	1	0.550317	0.550317	0	1	0	0	CorrectCommission	0.657135	1.791919	0	0
486.169556	0.792155	city	3	1	0.447683	0.447683	0	1	0	0	CorrectCommission	1.581067	1.907615	0	0
486.961823	0.792374	city	6	1	0.398507	0.398507	0	1	0	0	CorrectCommission	2.023751	2.023751	0	0
