onset	duration	trial_type	image_type	Press	ReactionTime	ReactionTime_Interpolated	CorrectOmission	CorrectCommission	CommissionError	OmissionError	response_type	nonsmoothVarianceTimeCourse	VarianceTimeCourse	In_the_Zone	Reward_trial
8.438303	0.795802	city	1	1	0.549208	0.549208	0	1	0	0	CorrectCommission	0.497184	0.497184	1	1
9.234215	0.796021	mountain	8	0	0.000000	0.728183	1	0	0	0	CorrectOmission	2.087676	0.532219	1	1
10.030071	0.795692	city	3	1	0.797758	0.797758	0	1	0	0	CorrectCommission	3.092532	0.564101	1	1
10.825806	0.795778	city	1	1	0.648537	0.648537	0	1	0	0	CorrectCommission	0.937377	0.590350	1	1
11.621662	0.795935	city	3	1	0.648881	0.648881	0	1	0	0	CorrectCommission	0.942353	0.609698	1	1
12.417421	0.795584	mountain	3	0	0.000000	0.602551	1	0	0	0	CorrectOmission	0.273226	0.622232	1	1
13.213121	0.795816	city	8	1	0.566814	0.566814	0	1	0	0	CorrectCommission	0.242921	0.629408	1	1
14.008924	0.795790	city	3	1	0.598935	0.598935	0	1	0	0	CorrectCommission	0.220991	0.633665	1	1
14.804720	0.795800	city	4	1	0.615125	0.615125	0	1	0	0	CorrectCommission	0.454830	0.637903	1	1
15.600520	0.795800	city	3	1	0.648782	0.648782	0	1	0	0	CorrectCommission	0.940924	0.644884	1	1
16.396320	0.795803	city	10	1	0.561689	0.561689	0	1	0	0	CorrectCommission	0.316935	0.656680	0	1
17.192232	0.796018	city	9	1	0.598908	0.598908	0	1	0	0	CorrectCommission	0.220605	0.674303	0	1
17.988087	0.795695	mountain	9	0	0.000000	0.586082	1	0	0	0	CorrectOmission	0.035370	0.697465	0	1
18.783781	0.795694	city	7	1	0.549027	0.549027	0	1	0	0	CorrectCommission	0.499807	0.724608	0	1
19.579531	0.795802	city	4	1	0.513556	0.513556	0	1	0	0	CorrectCommission	1.012096	0.753085	0	1
20.375385	0.795908	city	5	1	0.500197	0.500197	0	1	0	0	CorrectCommission	1.205036	0.779563	0	1
21.171200	0.795720	city	3	1	0.504058	0.504058	0	1	0	0	CorrectCommission	1.149284	0.800533	0	1
21.967005	0.795889	mountain	8	0	0.000000	0.562534	1	0	0	0	CorrectOmission	0.304733	0.812826	0	1
22.762846	0.795795	city	5	1	0.648501	0.648501	0	1	0	0	CorrectCommission	0.936855	0.814114	0	1
23.558643	0.795801	mountain	8	0	0.000000	0.734832	1	0	0	0	CorrectOmission	2.183717	0.803190	0	1
24.354500	0.795912	city	4	1	0.748751	0.748751	0	1	0	0	CorrectCommission	2.384730	0.780185	0	1
25.150248	0.795581	city	5	1	0.617476	0.617476	0	1	0	0	CorrectCommission	0.488773	0.746499	0	1
25.945950	0.795824	city	3	1	0.601472	0.601472	0	1	0	0	CorrectCommission	0.257640	0.704579	0	1
26.741755	0.795786	city	5	1	0.599366	0.599366	0	1	0	0	CorrectCommission	0.227222	0.657474	0	1
27.537577	0.795859	city	7	1	0.598876	0.598876	0	1	0	0	CorrectCommission	0.220141	0.608395	1	1
28.333485	0.795958	city	5	1	0.598885	0.598885	0	1	0	0	CorrectCommission	0.220272	0.560341	1	1
29.129257	0.795586	city	6	1	0.611273	0.611273	0	1	0	0	CorrectCommission	0.399190	0.515732	1	1
29.924950	0.795801	city	10	1	0.558390	0.558390	0	1	0	0	CorrectCommission	0.364578	0.476215	1	1
30.720753	0.795803	city	5	1	0.555790	0.555790	0	1	0	0	CorrectCommission	0.402135	0.442626	1	1
31.516607	0.795906	city	8	1	0.549064	0.549064	0	1	0	0	CorrectCommission	0.499268	0.415078	1	1
32.312408	0.795695	city	2	1	0.564411	0.564411	0	1	0	0	CorrectCommission	0.277621	0.393134	1	1
33.108212	0.795910	city	1	1	0.553424	0.553424	0	1	0	0	CorrectCommission	0.436298	0.376027	1	1
33.904011	0.795692	city	2	1	0.549067	0.549067	0	1	0	0	CorrectCommission	0.499230	0.362873	1	1
34.699787	0.795857	city	1	1	0.598920	0.598920	0	1	0	0	CorrectCommission	0.220788	0.352818	1	1
35.495644	0.795856	city	4	1	0.599163	0.599163	0	1	0	0	CorrectCommission	0.224285	0.345178	1	1
36.291523	0.795909	city	1	1	0.606641	0.606641	0	1	0	0	CorrectCommission	0.332292	0.339468	1	1
37.087273	0.795589	city	7	1	0.613786	0.613786	0	1	0	0	CorrectCommission	0.435481	0.335404	1	1
37.883022	0.795907	city	2	1	0.608369	0.608369	0	1	0	0	CorrectCommission	0.357251	0.332871	1	1
38.678822	0.795691	mountain	5	0	0.000000	0.602731	1	0	0	0	CorrectOmission	0.275817	0.331860	1	1
39.474598	0.795866	city	1	1	0.598907	0.598907	0	1	0	0	CorrectCommission	0.220598	0.332407	1	1
40.270454	0.795846	city	2	1	0.598936	0.598936	0	1	0	0	CorrectCommission	0.221011	0.334503	1	1
41.066227	0.795699	city	8	1	0.560968	0.560968	0	1	0	0	CorrectCommission	0.327343	0.338039	1	1
41.861973	0.795795	city	10	1	0.549281	0.549281	0	1	0	0	CorrectCommission	0.496144	0.342801	1	1
42.657883	0.796022	mountain	5	0	0.000000	0.564360	1	0	0	0	CorrectOmission	0.278359	0.348469	1	1
43.453686	0.795584	city	1	1	0.574802	0.574802	0	1	0	0	CorrectCommission	0.127543	0.354642	1	1
44.249378	0.795798	city	8	1	0.549204	0.549204	0	1	0	0	CorrectCommission	0.497249	0.360866	1	1
45.045288	0.796022	city	2	1	0.549184	0.549184	0	1	0	0	CorrectCommission	0.497540	0.366698	1	1
45.841091	0.795586	city	1	1	0.561787	0.561787	0	1	0	0	CorrectCommission	0.315511	0.371763	1	1
46.636784	0.795801	city	8	1	0.558448	0.558448	0	1	0	0	CorrectCommission	0.363749	0.375828	1	1
47.432693	0.796019	city	4	1	0.563239	0.563239	0	1	0	0	CorrectCommission	0.294549	0.378840	1	1
48.228493	0.795582	city	2	1	0.548857	0.548857	0	1	0	0	CorrectCommission	0.502258	0.380978	1	1
49.024200	0.795832	city	9	1	0.648622	0.648622	0	1	0	0	CorrectCommission	0.938606	0.382622	1	1
49.820004	0.795772	city	3	1	0.598878	0.598878	0	1	0	0	CorrectCommission	0.220177	0.384332	1	1
50.615845	0.795911	city	4	1	0.598927	0.598927	0	1	0	0	CorrectCommission	0.220885	0.386802	1	1
51.411755	0.795909	city	8	1	0.567480	0.567480	0	1	0	0	CorrectCommission	0.233297	0.390733	1	1
52.207554	0.795692	city	2	1	0.568368	0.568368	0	1	0	0	CorrectCommission	0.220474	0.396789	1	1
53.003304	0.795802	city	7	1	0.598946	0.598946	0	1	0	0	CorrectCommission	0.221161	0.405457	1	1
53.799053	0.795697	city	10	1	0.549053	0.549053	0	1	0	0	CorrectCommission	0.499426	0.417041	1	1
54.594803	0.795801	city	5	1	0.550510	0.550510	0	1	0	0	CorrectCommission	0.478384	0.431630	1	1
55.390602	0.795799	city	8	1	0.558723	0.558723	0	1	0	0	CorrectCommission	0.359766	0.449131	1	1
56.186455	0.795910	city	2	1	0.600783	0.600783	0	1	0	0	CorrectCommission	0.247681	0.469343	1	1
56.982365	0.795911	city	5	1	0.648508	0.648508	0	1	0	0	CorrectCommission	0.936965	0.492024	1	1
57.778168	0.795691	city	1	1	0.598680	0.598680	0	1	0	0	CorrectCommission	0.217319	0.516963	1	1
58.573860	0.795693	city	6	1	0.558522	0.558522	0	1	0	0	CorrectCommission	0.362677	0.544069	1	1
59.369640	0.795866	city	9	1	0.549469	0.549469	0	1	0	0	CorrectCommission	0.493425	0.573364	1	1
60.165550	0.795956	city	10	1	0.499377	0.499377	0	1	0	0	CorrectCommission	1.216882	0.604955	1	1
60.961319	0.795584	city	3	1	0.552205	0.552205	0	1	0	0	CorrectCommission	0.453909	0.638954	1	1
61.757122	0.796019	city	2	1	0.549327	0.549327	0	1	0	0	CorrectCommission	0.495470	0.675384	0	1
62.553032	0.795802	city	8	1	0.549026	0.549026	0	1	0	0	CorrectCommission	0.499815	0.713983	0	1
63.348724	0.795583	mountain	10	1	0.499233	0.499233	0	0	1	0	CommissionError	1.218961	0.754085	0	1
64.144417	0.795807	city	5	1	0.549291	0.549291	0	1	0	0	CorrectCommission	0.495996	0.794514	0	1
64.940224	0.795799	mountain	2	0	0.000000	0.561978	1	0	0	0	CorrectOmission	0.312766	0.833581	0	1
65.736023	0.795800	city	9	1	0.556372	0.556372	0	1	0	0	CorrectCommission	0.393722	0.869198	0	1
66.531876	0.795910	city	10	1	0.551554	0.551554	0	1	0	0	CorrectCommission	0.463314	0.899054	0	1
67.327682	0.795707	city	6	1	0.748007	0.748007	0	1	0	0	CorrectCommission	2.373986	0.920989	0	1
68.123451	0.795827	city	2	1	0.660713	0.660713	0	1	0	0	CorrectCommission	1.113237	0.933319	0	0
68.919250	0.795765	city	5	1	0.699725	0.699725	0	1	0	0	CorrectCommission	1.676667	0.935278	0	0
69.715027	0.795798	city	9	1	0.705676	0.705676	0	1	0	0	CorrectCommission	1.762613	0.927163	0	0
70.510841	0.795830	city	3	1	0.650365	0.650365	0	1	0	0	CorrectCommission	0.963784	0.910428	0	0
71.306755	0.795991	city	10	1	0.648666	0.648666	0	1	0	0	CorrectCommission	0.939250	0.887554	0	0
72.102539	0.795584	city	2	1	0.612968	0.612968	0	1	0	0	CorrectCommission	0.423668	0.861707	0	0
72.898285	0.795909	city	3	1	0.554136	0.554136	0	1	0	0	CorrectCommission	0.426012	0.836315	0	0
73.694122	0.795758	city	10	1	0.558137	0.558137	0	1	0	0	CorrectCommission	0.368228	0.814566	0	0
74.489868	0.795736	city	6	1	0.649052	0.649052	0	1	0	0	CorrectCommission	0.944816	0.798938	0	0
75.285690	0.795910	city	5	1	0.549240	0.549240	0	1	0	0	CorrectCommission	0.496726	0.790864	0	0
76.081604	0.795913	city	3	1	0.549150	0.549150	0	1	0	0	CorrectCommission	0.498034	0.790540	0	0
76.877350	0.795583	city	1	1	0.551854	0.551854	0	1	0	0	CorrectCommission	0.458977	0.796911	0	0
77.673157	0.796020	city	6	1	0.602034	0.602034	0	1	0	0	CorrectCommission	0.265762	0.807835	0	0
78.468964	0.795594	city	2	1	0.558066	0.558066	0	1	0	0	CorrectCommission	0.369257	0.820456	0	0
79.264709	0.795899	city	6	1	0.698375	0.698375	0	1	0	0	CorrectCommission	1.657168	0.831616	0	0
80.060501	0.795693	city	10	1	0.649416	0.649416	0	1	0	0	CorrectCommission	0.950080	0.838307	0	0
80.856247	0.795801	city	6	1	0.764534	0.764534	0	1	0	0	CorrectCommission	2.612691	0.838139	0	0
81.652107	0.795911	city	1	1	0.667855	0.667855	0	1	0	0	CorrectCommission	1.216380	0.829575	0	0
82.447922	0.795725	city	5	1	0.615980	0.615980	0	1	0	0	CorrectCommission	0.467168	0.812136	0	0
83.243675	0.795775	city	10	1	0.567350	0.567350	0	1	0	0	CorrectCommission	0.235170	0.786328	0	0
84.039459	0.795798	city	8	1	0.549218	0.549218	0	1	0	0	CorrectCommission	0.497042	0.753461	0	0
84.835365	0.796017	city	10	1	0.509520	0.509520	0	1	0	0	CorrectCommission	1.070394	0.715413	0	0
85.631210	0.795666	city	3	1	0.515952	0.515952	0	1	0	0	CorrectCommission	0.977502	0.674389	0	0
86.426903	0.795722	city	2	1	0.549070	0.549070	0	1	0	0	CorrectCommission	0.499188	0.632663	1	0
87.222694	0.795855	city	3	1	0.550017	0.550017	0	1	0	0	CorrectCommission	0.485502	0.592394	1	0
88.018494	0.795750	city	8	1	0.598979	0.598979	0	1	0	0	CorrectCommission	0.221631	0.555506	1	0
88.814308	0.795872	city	5	1	0.549175	0.549175	0	1	0	0	CorrectCommission	0.497667	0.523599	1	0
89.610161	0.795835	city	6	1	0.565707	0.565707	0	1	0	0	CorrectCommission	0.258903	0.497904	1	0
90.414215	0.812276	city	4	1	0.532238	0.532238	0	1	0	0	CorrectCommission	0.742288	0.479306	1	0
91.218307	0.795907	mountain	10	0	0.000000	0.572566	1	0	0	0	CorrectOmission	0.159845	0.468304	1	0
92.014107	0.795694	city	1	1	0.617763	0.617763	0	1	0	0	CorrectCommission	0.492924	0.465062	1	0
92.809853	0.795806	city	3	1	0.598902	0.598902	0	1	0	0	CorrectCommission	0.220517	0.469394	1	0
93.605659	0.795801	mountain	3	0	0.000000	0.601356	1	0	0	0	CorrectOmission	0.255970	0.480803	1	0
94.401459	0.795799	mountain	6	0	0.000000	0.607306	1	0	0	0	CorrectOmission	0.341904	0.498479	1	0
95.197289	0.795863	city	1	1	0.598931	0.598931	0	1	0	0	CorrectCommission	0.220939	0.521376	1	0
95.993103	0.795759	city	8	1	0.558409	0.558409	0	1	0	0	CorrectCommission	0.364305	0.548292	1	0
96.788872	0.795783	city	10	1	0.500409	0.500409	0	1	0	0	CorrectCommission	1.201979	0.577942	1	0
97.584671	0.795808	city	1	1	0.549279	0.549279	0	1	0	0	CorrectCommission	0.496169	0.609059	1	0
98.380486	0.795821	city	2	1	0.507313	0.507313	0	1	0	0	CorrectCommission	1.102264	0.640499	1	0
99.176277	0.795775	mountain	8	0	0.000000	0.583688	1	0	0	0	CorrectOmission	0.000785	0.671284	0	0
99.972069	0.795804	city	1	1	0.667923	0.667923	0	1	0	0	CorrectCommission	1.217364	0.700663	0	0
100.767868	0.795797	city	4	1	0.649539	0.649539	0	1	0	0	CorrectCommission	0.951857	0.728009	0	0
101.563675	0.795805	city	2	1	0.561544	0.561544	0	1	0	0	CorrectCommission	0.319032	0.752834	0	0
102.359474	0.795801	city	6	1	0.550317	0.550317	0	1	0	0	CorrectCommission	0.481179	0.774717	0	0
103.155380	0.796017	city	4	1	0.503582	0.503582	0	1	0	0	CorrectCommission	1.156157	0.793240	0	0
103.951294	0.795803	city	5	1	0.499224	0.499224	0	1	0	0	CorrectCommission	1.219090	0.807934	0	0
104.746986	0.795587	city	4	1	0.549040	0.549040	0	1	0	0	CorrectCommission	0.499624	0.818317	0	0
105.542679	0.795798	city	3	1	0.502458	0.502458	0	1	0	0	CorrectCommission	1.172382	0.823933	0	0
106.338539	0.795911	city	6	1	0.549562	0.549562	0	1	0	0	CorrectCommission	0.492076	0.824357	0	0
107.134338	0.795690	city	4	1	0.517841	0.517841	0	1	0	0	CorrectCommission	0.950218	0.819339	0	0
107.930115	0.795869	city	2	1	0.499415	0.499415	0	1	0	0	CorrectCommission	1.216341	0.808839	0	0
108.725922	0.795735	city	7	1	0.499553	0.499553	0	1	0	0	CorrectCommission	1.214344	0.793121	0	0
109.521721	0.795876	city	10	1	0.549140	0.549140	0	1	0	0	CorrectCommission	0.498177	0.772791	0	0
110.317528	0.795727	city	4	1	0.555313	0.555313	0	1	0	0	CorrectCommission	0.409018	0.748829	0	0
111.113289	0.795806	mountain	5	0	0.000000	0.647616	1	0	0	0	CorrectOmission	0.924079	0.722528	0	0
111.909119	0.795855	city	6	1	0.703120	0.703120	0	1	0	0	CorrectCommission	1.725700	0.695417	0	0
112.704918	0.795745	city	1	1	0.598896	0.598896	0	1	0	0	CorrectCommission	0.220428	0.669127	0	0
113.500694	0.795806	city	7	1	0.598969	0.598969	0	1	0	0	CorrectCommission	0.221493	0.645284	1	0
114.296501	0.795806	city	2	1	0.551927	0.551927	0	1	0	0	CorrectCommission	0.457917	0.625244	1	0
115.092308	0.795799	city	3	1	0.564005	0.564005	0	1	0	0	CorrectCommission	0.283490	0.609988	1	0
115.888214	0.796014	city	4	1	0.599301	0.599301	0	1	0	0	CorrectCommission	0.226281	0.599998	1	0
116.684067	0.795691	city	5	1	0.567180	0.567180	0	1	0	0	CorrectCommission	0.237628	0.595216	1	0
117.479759	0.795693	mountain	8	0	0.000000	0.644001	1	0	0	0	CorrectOmission	0.871873	0.595024	1	0
118.275505	0.795801	city	8	1	0.698364	0.698364	0	1	0	0	CorrectCommission	1.657021	0.598312	1	0
119.071304	0.795802	city	3	1	0.598870	0.598870	0	1	0	0	CorrectCommission	0.220054	0.603603	1	0
119.867111	0.795804	city	7	1	0.599017	0.599017	0	1	0	0	CorrectCommission	0.222175	0.609225	1	0
120.662949	0.795872	city	2	1	0.599275	0.599275	0	1	0	0	CorrectCommission	0.225905	0.613417	1	0
121.458748	0.795734	city	10	1	0.552462	0.552462	0	1	0	0	CorrectCommission	0.450201	0.614544	1	0
122.254570	0.795907	mountain	2	0	0.000000	0.622951	1	0	0	0	CorrectOmission	0.567856	0.611301	1	0
123.050407	0.795761	city	9	1	0.698237	0.698237	0	1	0	0	CorrectCommission	1.655179	0.602883	1	0
123.846153	0.795734	city	7	1	0.665812	0.665812	0	1	0	0	CorrectCommission	1.186872	0.589134	1	0
124.642029	0.796019	city	6	1	0.648612	0.648612	0	1	0	0	CorrectCommission	0.938470	0.570666	1	0
125.437851	0.795623	city	5	1	0.570071	0.570071	0	1	0	0	CorrectCommission	0.195873	0.548806	1	0
126.233543	0.795758	city	3	1	0.606225	0.606225	0	1	0	0	CorrectCommission	0.326288	0.525488	1	0
127.029373	0.795912	city	7	1	0.615082	0.615082	0	1	0	0	CorrectCommission	0.454203	0.503021	1	0
127.825233	0.795802	city	2	1	0.602837	0.602837	0	1	0	0	CorrectCommission	0.277359	0.483796	1	1
128.621002	0.795746	city	1	1	0.567342	0.567342	0	1	0	0	CorrectCommission	0.235294	0.469990	1	1
129.416870	0.795965	city	6	1	0.598870	0.598870	0	1	0	0	CorrectCommission	0.220062	0.463258	1	1
130.212631	0.795586	mountain	5	0	0.000000	0.571205	1	0	0	0	CorrectOmission	0.179497	0.464558	1	1
131.008438	0.796018	city	10	1	0.549443	0.549443	0	1	0	0	CorrectCommission	0.493801	0.474011	1	1
131.804291	0.795692	city	1	1	0.598680	0.598680	0	1	0	0	CorrectCommission	0.217320	0.490844	1	1
132.599991	0.795698	city	9	1	0.549546	0.549546	0	1	0	0	CorrectCommission	0.492313	0.513512	1	1
133.395798	0.795907	city	5	1	0.599035	0.599035	0	1	0	0	CorrectCommission	0.222448	0.539842	1	1
134.191589	0.795693	city	2	1	0.555865	0.555865	0	1	0	0	CorrectCommission	0.401048	0.567323	1	1
134.987335	0.795807	city	1	1	0.551753	0.551753	0	1	0	0	CorrectCommission	0.460432	0.593388	1	1
135.783203	0.795903	mountain	4	0	0.000000	0.655981	1	0	0	0	CorrectOmission	1.044889	0.615738	1	1
136.578995	0.795698	city	6	1	0.698290	0.698290	0	1	0	0	CorrectCommission	1.655946	0.632611	1	1
137.374741	0.795796	city	5	1	0.508423	0.508423	0	1	0	0	CorrectCommission	1.086232	0.642965	1	1
138.170547	0.795807	city	6	1	0.649621	0.649621	0	1	0	0	CorrectCommission	0.953035	0.646556	1	1
138.966461	0.796014	city	5	1	0.598897	0.598897	0	1	0	0	CorrectCommission	0.220442	0.643856	1	1
139.762283	0.795648	city	3	1	0.616912	0.616912	0	1	0	0	CorrectCommission	0.480635	0.635900	1	1
140.557983	0.795742	city	2	1	0.565225	0.565225	0	1	0	0	CorrectCommission	0.265870	0.624026	1	1
141.353760	0.795796	city	10	1	0.550091	0.550091	0	1	0	0	CorrectCommission	0.484443	0.609689	1	1
142.149567	0.795835	city	8	1	0.511511	0.511511	0	1	0	0	CorrectCommission	1.041634	0.594235	1	1
142.945480	0.795987	city	4	1	0.549178	0.549178	0	1	0	0	CorrectCommission	0.497631	0.578774	1	1
143.741379	0.795803	city	10	1	0.549514	0.549514	0	1	0	0	CorrectCommission	0.492775	0.564137	1	1
144.537064	0.795585	city	6	1	0.598648	0.598648	0	1	0	0	CorrectCommission	0.216852	0.550839	1	1
145.332870	0.796018	city	5	1	0.549140	0.549140	0	1	0	0	CorrectCommission	0.498177	0.539144	1	1
146.128784	0.795803	city	10	1	0.511924	0.511924	0	1	0	0	CorrectCommission	1.035669	0.529110	1	1
146.924469	0.795581	city	2	1	0.548976	0.548976	0	1	0	0	CorrectCommission	0.500549	0.520646	1	1
147.720215	0.795913	city	4	1	0.549617	0.549617	0	1	0	0	CorrectCommission	0.491291	0.513592	1	1
148.516022	0.795698	city	6	1	0.567229	0.567229	0	1	0	0	CorrectCommission	0.236926	0.507722	1	1
149.311768	0.795793	city	3	1	0.563391	0.563391	0	1	0	0	CorrectCommission	0.292358	0.502786	1	1
150.107681	0.796023	city	4	1	0.549557	0.549557	0	1	0	0	CorrectCommission	0.492155	0.498498	1	1
150.903473	0.795581	city	7	1	0.520595	0.520595	0	1	0	0	CorrectCommission	0.910437	0.494584	1	1
151.699203	0.795853	city	3	1	0.598901	0.598901	0	1	0	0	CorrectCommission	0.220513	0.490811	1	1
152.494995	0.795750	city	1	1	0.566066	0.566066	0	1	0	0	CorrectCommission	0.253721	0.487067	1	1
153.290771	0.795806	city	7	1	0.549164	0.549164	0	1	0	0	CorrectCommission	0.497826	0.483381	1	1
154.086685	0.796017	city	10	1	0.502187	0.502187	0	1	0	0	CorrectCommission	1.176293	0.479947	1	1
154.882492	0.795586	city	4	1	0.552461	0.552461	0	1	0	0	CorrectCommission	0.450209	0.477149	1	1
155.678177	0.795801	city	3	1	0.549264	0.549264	0	1	0	0	CorrectCommission	0.496389	0.475552	1	1
156.473999	0.795843	city	4	1	0.598968	0.598968	0	1	0	0	CorrectCommission	0.221473	0.475767	1	1
157.269836	0.795818	city	1	1	0.599643	0.599643	0	1	0	0	CorrectCommission	0.231222	0.478383	1	1
158.065613	0.795752	city	10	1	0.563589	0.563589	0	1	0	0	CorrectCommission	0.289496	0.483819	1	1
158.861389	0.795792	city	6	1	0.615235	0.615235	0	1	0	0	CorrectCommission	0.456416	0.492254	1	1
159.657211	0.795861	city	5	1	0.549140	0.549140	0	1	0	0	CorrectCommission	0.498171	0.503554	1	1
160.453018	0.795740	city	9	1	0.549825	0.549825	0	1	0	0	CorrectCommission	0.488281	0.517270	1	1
161.248795	0.795803	city	10	1	0.549175	0.549175	0	1	0	0	CorrectCommission	0.497675	0.532716	1	1
162.044601	0.795810	city	6	1	0.598903	0.598903	0	1	0	0	CorrectCommission	0.220533	0.549038	1	1
162.840500	0.796011	city	1	1	0.549120	0.549120	0	1	0	0	CorrectCommission	0.498468	0.565363	1	1
163.636414	0.795802	city	3	1	0.501026	0.501026	0	1	0	0	CorrectCommission	1.193065	0.580891	1	1
164.432114	0.795585	city	7	1	0.499283	0.499283	0	1	0	0	CorrectCommission	1.218244	0.595032	1	1
165.227798	0.795799	city	8	1	0.549134	0.549134	0	1	0	0	CorrectCommission	0.498255	0.607450	1	1
166.023712	0.796023	mountain	5	0	0.000000	0.565114	1	0	0	0	CorrectOmission	0.267460	0.618070	1	1
166.819519	0.795581	city	2	1	0.560732	0.560732	0	1	0	0	CorrectCommission	0.330748	0.627023	1	1
167.615234	0.795857	city	1	1	0.549498	0.549498	0	1	0	0	CorrectCommission	0.493005	0.634581	1	1
168.411087	0.795856	city	8	1	0.503999	0.503999	0	1	0	0	CorrectCommission	1.150125	0.641070	1	1
169.206863	0.795695	city	1	1	0.549553	0.549553	0	1	0	0	CorrectCommission	0.492216	0.646804	1	1
170.002609	0.795800	city	3	1	0.549601	0.549601	0	1	0	0	CorrectCommission	0.491517	0.652046	1	1
170.798447	0.795868	city	10	1	0.499331	0.499331	0	1	0	0	CorrectCommission	1.217547	0.656955	0	1
171.594254	0.795738	mountain	2	0	0.000000	0.574201	1	0	0	0	CorrectOmission	0.136233	0.661531	0	1
172.390015	0.795800	city	4	1	0.649105	0.649105	0	1	0	0	CorrectCommission	0.945584	0.665695	0	1
173.185822	0.795816	city	8	1	0.598940	0.598940	0	1	0	0	CorrectCommission	0.221068	0.669214	0	1
173.981628	0.795789	city	4	1	0.649092	0.649092	0	1	0	0	CorrectCommission	0.945396	0.671863	0	1
174.777481	0.795906	city	2	1	0.648678	0.648678	0	1	0	0	CorrectCommission	0.939412	0.673332	0	1
175.573380	0.795912	city	9	1	0.598775	0.598775	0	1	0	0	CorrectCommission	0.218692	0.673390	0	1
176.369247	0.795801	city	3	1	0.499895	0.499895	0	1	0	0	CorrectCommission	1.209408	0.671958	0	1
177.164948	0.795607	city	9	1	0.548899	0.548899	0	1	0	0	CorrectCommission	0.501656	0.669176	0	1
177.960693	0.795886	city	4	1	0.549153	0.549153	0	1	0	0	CorrectCommission	0.497980	0.665535	0	1
178.756531	0.795802	city	2	1	0.549078	0.549078	0	1	0	0	CorrectCommission	0.499075	0.661892	0	1
179.552277	0.795691	city	7	1	0.499358	0.499358	0	1	0	0	CorrectCommission	1.217156	0.659485	0	1
180.348022	0.795805	city	2	1	0.502822	0.502822	0	1	0	0	CorrectCommission	1.167125	0.659802	0	1
181.143860	0.795855	city	8	1	0.598968	0.598968	0	1	0	0	CorrectCommission	0.221472	0.664488	0	1
181.939667	0.795749	city	4	1	0.560681	0.560681	0	1	0	0	CorrectCommission	0.331491	0.675124	0	1
182.735489	0.795906	city	3	1	0.549310	0.549310	0	1	0	0	CorrectCommission	0.495718	0.692945	0	1
183.531342	0.795804	city	8	1	0.549085	0.549085	0	1	0	0	CorrectCommission	0.498973	0.718615	0	1
184.327087	0.795692	city	10	1	0.549611	0.549611	0	1	0	0	CorrectCommission	0.491367	0.752017	0	1
185.122833	0.795803	city	9	1	0.598927	0.598927	0	1	0	0	CorrectCommission	0.220881	0.792199	0	1
185.918640	0.795799	city	1	1	0.649119	0.649119	0	1	0	0	CorrectCommission	0.945789	0.837418	0	1
186.714554	0.796022	city	5	1	0.549136	0.549136	0	1	0	0	CorrectCommission	0.498232	0.885322	0	1
187.510361	0.795585	city	8	1	0.555191	0.555191	0	1	0	0	CorrectCommission	0.410786	0.933318	0	0
188.306046	0.795804	city	10	1	0.549180	0.549180	0	1	0	0	CorrectCommission	0.497597	0.978906	0	0
189.101898	0.795905	city	6	1	0.861309	0.861309	0	1	0	0	CorrectCommission	4.010365	1.020050	0	0
189.897751	0.795803	city	9	1	0.700388	0.700388	0	1	0	0	CorrectCommission	1.686241	1.055342	0	0
190.693634	0.795942	city	8	1	0.663625	0.663625	0	1	0	0	CorrectCommission	1.155290	1.084292	0	0
191.489395	0.795588	city	5	1	0.598752	0.598752	0	1	0	0	CorrectCommission	0.218357	1.107095	0	0
192.285202	0.796039	city	7	1	0.648578	0.648578	0	1	0	0	CorrectCommission	0.937978	1.124457	0	0
193.080994	0.795543	city	9	1	0.610114	0.610114	0	1	0	0	CorrectCommission	0.382457	1.137259	0	0
193.876663	0.795791	city	8	1	0.662365	0.662365	0	1	0	0	CorrectCommission	1.137100	1.146299	0	0
194.672455	0.795796	city	4	1	0.698333	0.698333	0	1	0	0	CorrectCommission	1.656565	1.152063	0	0
195.468262	0.795802	city	1	1	0.615025	0.615025	0	1	0	0	CorrectCommission	0.453379	1.154648	0	0
196.264099	0.795887	city	6	1	0.500127	0.500127	0	1	0	0	CorrectCommission	1.206052	1.153875	0	0
197.060013	0.795937	city	4	1	0.449615	0.449615	0	1	0	0	CorrectCommission	1.935574	1.149372	0	0
197.855774	0.795585	city	10	1	0.449930	0.449930	0	1	0	0	CorrectCommission	1.931024	1.140790	0	0
198.651489	0.795840	city	3	1	0.456255	0.456255	0	1	0	0	CorrectCommission	1.839685	1.128035	0	0
199.447296	0.795764	city	8	1	0.549824	0.549824	0	1	0	0	CorrectCommission	0.488297	1.111375	0	0
200.243073	0.795798	city	3	1	0.550238	0.550238	0	1	0	0	CorrectCommission	0.482315	1.091497	0	0
201.038879	0.795823	city	10	1	0.518256	0.518256	0	1	0	0	CorrectCommission	0.944223	1.069477	0	0
201.834793	0.795999	city	1	1	0.549136	0.549136	0	1	0	0	CorrectCommission	0.498230	1.046792	0	0
202.630600	0.795631	city	5	1	0.499258	0.499258	0	1	0	0	CorrectCommission	1.218603	1.025261	0	0
203.426300	0.795758	city	7	1	0.449853	0.449853	0	1	0	0	CorrectCommission	1.932141	1.006907	0	0
204.222076	0.795800	city	1	1	0.502057	0.502057	0	1	0	0	CorrectCommission	1.178169	0.993917	0	0
205.017883	0.795801	city	7	1	0.510799	0.510799	0	1	0	0	CorrectCommission	1.051926	0.988545	0	0
205.813736	0.795908	mountain	5	0	0.000000	0.564861	1	0	0	0	CorrectOmission	0.271120	0.992889	0	0
206.609543	0.795693	mountain	10	0	0.000000	0.624219	1	0	0	0	CorrectOmission	0.586159	1.008646	0	0
207.405396	0.796020	city	1	1	0.648844	0.648844	0	1	0	0	CorrectCommission	0.941820	1.036908	0	0
208.201248	0.795693	city	6	1	0.598712	0.598712	0	1	0	0	CorrectCommission	0.217774	1.077930	0	0
208.996948	0.795711	city	2	1	0.549541	0.549541	0	1	0	0	CorrectCommission	0.492389	1.131023	0	0
209.792709	0.795796	city	4	1	0.506570	0.506570	0	1	0	0	CorrectCommission	1.112991	1.194456	0	0
210.588501	0.795791	city	3	1	0.512848	0.512848	0	1	0	0	CorrectCommission	1.022327	1.265599	0	0
211.384293	0.795802	mountain	4	1	0.458932	0.458932	0	0	1	0	CommissionError	1.801022	1.341129	0	0
212.180206	0.796019	city	9	1	0.399968	0.399968	0	1	0	0	CorrectCommission	2.652617	1.417253	0	0
212.976028	0.795633	city	2	1	0.499252	0.499252	0	1	0	0	CorrectCommission	1.218694	1.490092	0	0
213.771729	0.795751	city	10	1	0.517219	0.517219	0	1	0	0	CorrectCommission	0.959200	1.556022	0	0
214.567612	0.796019	city	3	1	0.449896	0.449896	0	1	0	0	CorrectCommission	1.931515	1.611874	0	0
215.363434	0.795637	city	9	1	0.503282	0.503282	0	1	0	0	CorrectCommission	1.160489	1.655209	0	0
216.159134	0.795748	mountain	8	0	0.000000	0.688639	1	0	0	0	CorrectOmission	1.516555	1.684524	0	0
216.954910	0.795827	mountain	10	1	0.848362	0.848362	0	0	1	0	CommissionError	3.823390	1.699286	0	0
217.750717	0.795782	city	10	0	0.000000	0.824848	0	0	0	1	OmissionError	3.483785	1.699827	0	0
218.546616	0.796014	city	9	1	0.698358	0.698358	0	1	0	0	CorrectCommission	1.656926	1.687245	0	0
219.342453	0.795668	city	7	1	0.549152	0.549152	0	1	0	0	CorrectCommission	0.498004	1.663099	0	0
220.138184	0.795768	city	3	1	0.648584	0.648584	0	1	0	0	CorrectCommission	0.938059	1.629024	0	0
220.933929	0.795749	city	4	1	0.648585	0.648585	0	1	0	0	CorrectCommission	0.938078	1.586405	0	0
221.729706	0.795802	city	5	1	0.698377	0.698377	0	1	0	0	CorrectCommission	1.657210	1.536236	0	0
222.525513	0.795807	city	8	1	0.703643	0.703643	0	1	0	0	CorrectCommission	1.733256	1.479050	0	0
223.321320	0.795801	city	1	1	0.710562	0.710562	0	1	0	0	CorrectCommission	1.833187	1.415065	0	0
224.117126	0.795801	city	6	1	0.703686	0.703686	0	1	0	0	CorrectCommission	1.733879	1.344420	0	0
224.912918	0.795800	city	10	1	0.698348	0.698348	0	1	0	0	CorrectCommission	1.656788	1.267458	0	0
225.708771	0.795907	mountain	4	0	0.000000	0.714000	1	0	0	0	CorrectOmission	1.882844	1.185000	0	0
226.504578	0.795693	city	3	1	0.698297	0.698297	0	1	0	0	CorrectCommission	1.656055	1.098457	0	0
227.300339	0.795819	city	8	1	0.598895	0.598895	0	1	0	0	CorrectCommission	0.220425	1.009824	0	0
228.096130	0.795787	city	4	1	0.564093	0.564093	0	1	0	0	CorrectCommission	0.282206	0.921570	0	0
228.891937	0.795819	city	10	1	0.510161	0.510161	0	1	0	0	CorrectCommission	1.061139	0.836340	0	0
229.687790	0.795892	city	9	1	0.556230	0.556230	0	1	0	0	CorrectCommission	0.395777	0.756664	0	0
230.483597	0.795710	city	4	1	0.551523	0.551523	0	1	0	0	CorrectCommission	0.463753	0.684761	0	0
231.279388	0.795892	city	5	1	0.549958	0.549958	0	1	0	0	CorrectCommission	0.486366	0.622275	1	0
232.075211	0.795742	city	6	1	0.550082	0.550082	0	1	0	0	CorrectCommission	0.484566	0.570120	1	0
232.870987	0.795805	mountain	6	0	0.000000	0.590871	1	0	0	0	CorrectOmission	0.104530	0.528479	1	0
233.666870	0.795967	city	2	1	0.614034	0.614034	0	1	0	0	CorrectCommission	0.439061	0.496868	1	0
234.462753	0.795802	city	7	1	0.561281	0.561281	0	1	0	0	CorrectCommission	0.322831	0.474197	1	0
235.258560	0.795802	city	6	1	0.598703	0.598703	0	1	0	0	CorrectCommission	0.217651	0.459016	1	0
236.054245	0.795585	city	2	1	0.549727	0.549727	0	1	0	0	CorrectCommission	0.489694	0.449707	1	0
236.849976	0.795869	mountain	6	0	0.000000	0.607882	1	0	0	0	CorrectOmission	0.350211	0.444664	1	0
237.645889	0.795950	city	5	1	0.649004	0.649004	0	1	0	0	CorrectCommission	0.944133	0.442436	1	0
238.441650	0.795584	city	10	1	0.548933	0.548933	0	1	0	0	CorrectCommission	0.501162	0.441830	1	0
239.237366	0.795824	city	8	1	0.549795	0.549795	0	1	0	0	CorrectCommission	0.488719	0.441962	1	0
240.033157	0.795778	city	1	1	0.598947	0.598947	0	1	0	0	CorrectCommission	0.221178	0.442219	1	0
240.828949	0.795805	city	5	1	0.550215	0.550215	0	1	0	0	CorrectCommission	0.482654	0.442206	1	0
241.624756	0.795798	city	10	1	0.549288	0.549288	0	1	0	0	CorrectCommission	0.496033	0.441644	1	0
242.420547	0.795804	city	2	1	0.598952	0.598952	0	1	0	0	CorrectCommission	0.221236	0.440311	1	0
243.216354	0.795804	city	9	1	0.564580	0.564580	0	1	0	0	CorrectCommission	0.275185	0.438032	1	0
244.012161	0.795800	city	3	1	0.549310	0.549310	0	1	0	0	CorrectCommission	0.495711	0.434627	1	0
244.807953	0.795800	city	7	1	0.549451	0.549451	0	1	0	0	CorrectCommission	0.493679	0.430032	1	0
245.603867	0.796020	city	1	1	0.549938	0.549938	0	1	0	0	CorrectCommission	0.486653	0.424356	1	0
246.399719	0.795692	city	2	1	0.515433	0.515433	0	1	0	0	CorrectCommission	0.984994	0.417978	1	0
247.195480	0.795803	city	5	1	0.551628	0.551628	0	1	0	0	CorrectCommission	0.462246	0.411647	1	1
247.991226	0.795693	city	3	1	0.568633	0.568633	0	1	0	0	CorrectCommission	0.216639	0.406547	1	1
248.786972	0.795805	city	8	1	0.560539	0.560539	0	1	0	0	CorrectCommission	0.333540	0.404256	1	1
249.582886	0.796015	mountain	9	0	0.000000	0.590793	1	0	0	0	CorrectOmission	0.103411	0.406654	1	1
250.378677	0.795587	city	3	1	0.605135	0.605135	0	1	0	0	CorrectCommission	0.310538	0.415797	1	1
251.174377	0.795798	city	4	1	0.549302	0.549302	0	1	0	0	CorrectCommission	0.495833	0.433662	1	1
251.970169	0.795806	city	1	1	0.598890	0.598890	0	1	0	0	CorrectCommission	0.220343	0.462047	1	1
252.765976	0.795806	city	10	1	0.599288	0.599288	0	1	0	0	CorrectCommission	0.226092	0.502197	1	1
253.561813	0.795852	city	2	1	0.614717	0.614717	0	1	0	0	CorrectCommission	0.448929	0.554668	1	1
254.357620	0.795770	city	5	1	0.611368	0.611368	0	1	0	0	CorrectCommission	0.400561	0.619199	1	1
255.153397	0.795777	city	7	1	0.566602	0.566602	0	1	0	0	CorrectCommission	0.245981	0.694662	0	1
255.949234	0.795908	city	6	1	0.565967	0.565967	0	1	0	0	CorrectCommission	0.255141	0.779166	0	1
256.745026	0.795696	city	7	1	0.598918	0.598918	0	1	0	0	CorrectCommission	0.220754	0.870230	0	1
257.540802	0.795799	city	10	1	0.558875	0.558875	0	1	0	0	CorrectCommission	0.357570	0.965044	0	1
258.336700	0.796017	city	8	1	0.748169	0.748169	0	1	0	0	CorrectCommission	2.376338	1.060820	0	1
259.132507	0.795585	city	10	1	0.698150	0.698150	0	1	0	0	CorrectCommission	1.653929	1.154998	0	1
259.928284	0.796019	city	3	1	0.748178	0.748178	0	1	0	0	CorrectCommission	2.376457	1.245537	0	1
260.724152	0.795692	city	7	1	0.708877	0.708877	0	1	0	0	CorrectCommission	1.808844	1.330830	0	1
261.519958	0.795913	mountain	6	0	0.000000	0.672243	1	0	0	0	CorrectOmission	1.279762	1.409620	0	1
262.315765	0.795690	city	8	1	0.648786	0.648786	0	1	0	0	CorrectCommission	0.940982	1.480719	0	1
263.111450	0.795694	city	5	1	0.649014	0.649014	0	1	0	0	CorrectCommission	0.944277	1.542714	0	1
263.907196	0.795825	city	10	1	0.648873	0.648873	0	1	0	0	CorrectCommission	0.942228	1.593798	0	1
264.703033	0.795835	city	1	1	0.659958	0.659958	0	1	0	0	CorrectCommission	1.102326	1.631739	0	1
265.498840	0.795748	city	2	1	0.698452	0.698452	0	1	0	0	CorrectCommission	1.658286	1.654126	0	1
266.294617	0.795797	city	10	1	0.652414	0.652414	0	1	0	0	CorrectCommission	0.993376	1.658778	0	1
267.090393	0.795806	city	6	1	1.048618	1.048618	0	1	0	0	CorrectCommission	6.715613	1.644281	0	1
267.886200	0.795800	city	10	1	0.767147	0.767147	0	1	0	0	CorrectCommission	2.650425	1.610300	0	1
268.682007	0.795804	mountain	7	0	0.000000	0.675862	1	0	0	0	CorrectOmission	1.332022	1.558160	0	1
269.477875	0.795906	city	7	1	0.648649	0.648649	0	1	0	0	CorrectCommission	0.938997	1.490619	0	1
270.273651	0.795693	city	5	1	0.559396	0.559396	0	1	0	0	CorrectCommission	0.350052	1.411643	0	1
271.069458	0.795911	city	6	1	0.648646	0.648646	0	1	0	0	CorrectCommission	0.938956	1.325969	0	1
271.865265	0.795696	city	9	1	0.698260	0.698260	0	1	0	0	CorrectCommission	1.655508	1.238514	0	1
272.661011	0.795797	city	5	1	0.598878	0.598878	0	1	0	0	CorrectCommission	0.220175	1.153844	0	1
273.456818	0.795809	city	6	1	0.698301	0.698301	0	1	0	0	CorrectCommission	1.656107	1.075751	0	1
274.252716	0.796014	city	7	1	0.648707	0.648707	0	1	0	0	CorrectCommission	0.939831	1.006868	0	1
275.048523	0.795591	city	5	1	0.648810	0.648810	0	1	0	0	CorrectCommission	0.941324	0.948606	0	1
275.844330	0.796016	city	10	1	0.598894	0.598894	0	1	0	0	CorrectCommission	0.220404	0.901076	0	1
276.640137	0.795584	city	2	1	0.598749	0.598749	0	1	0	0	CorrectCommission	0.218308	0.863318	0	1
277.435944	0.796018	mountain	5	0	0.000000	0.553611	1	0	0	0	CorrectOmission	0.433596	0.833488	0	1
278.231781	0.795691	city	5	1	0.568393	0.568393	0	1	0	0	CorrectCommission	0.220113	0.809220	0	1
279.027496	0.795694	city	10	1	0.748004	0.748004	0	1	0	0	CorrectCommission	2.373954	0.788004	0	1
279.823334	0.796021	city	4	1	0.650154	0.650154	0	1	0	0	CorrectCommission	0.960739	0.767479	0	1
280.619202	0.795690	city	6	1	0.648320	0.648320	0	1	0	0	CorrectCommission	0.934243	0.745824	0	1
281.414917	0.795731	city	5	1	0.650780	0.650780	0	1	0	0	CorrectCommission	0.969783	0.721872	0	1
282.210663	0.795767	city	8	1	0.598878	0.598878	0	1	0	0	CorrectCommission	0.220177	0.695176	0	1
283.006439	0.795799	city	6	1	0.558716	0.558716	0	1	0	0	CorrectCommission	0.359871	0.666000	0	1
283.802246	0.795805	city	1	1	0.513320	0.513320	0	1	0	0	CorrectCommission	1.015506	0.635202	1	1
284.598145	0.796018	city	8	1	0.517226	0.517226	0	1	0	0	CorrectCommission	0.959096	0.603973	1	1
285.393951	0.795585	city	1	1	0.549434	0.549434	0	1	0	0	CorrectCommission	0.493932	0.573823	1	1
286.189636	0.795799	city	10	1	0.599014	0.599014	0	1	0	0	CorrectCommission	0.222138	0.546331	1	1
286.985443	0.795801	city	1	1	0.599045	0.599045	0	1	0	0	CorrectCommission	0.222589	0.523029	1	1
287.781281	0.795865	city	4	1	0.598975	0.598975	0	1	0	0	CorrectCommission	0.221582	0.505329	1	1
288.577087	0.795740	city	6	1	0.598837	0.598837	0	1	0	0	CorrectCommission	0.219575	0.494477	1	1
289.372955	0.796019	city	3	1	0.511675	0.511675	0	1	0	0	CorrectCommission	1.039263	0.491490	1	1
290.168762	0.795583	city	10	1	0.559228	0.559228	0	1	0	0	CorrectCommission	0.352483	0.497182	1	1
290.964447	0.795807	city	3	1	0.598877	0.598877	0	1	0	0	CorrectCommission	0.220153	0.512106	1	1
291.760254	0.795799	city	5	1	0.556081	0.556081	0	1	0	0	CorrectCommission	0.397926	0.536460	1	1
292.556061	0.795804	city	2	1	0.549129	0.549129	0	1	0	0	CorrectCommission	0.498331	0.569999	1	1
293.351868	0.795808	city	6	1	0.549467	0.549467	0	1	0	0	CorrectCommission	0.493454	0.611961	1	1
294.147675	0.795793	city	8	1	0.551488	0.551488	0	1	0	0	CorrectCommission	0.464265	0.660955	0	1
294.943451	0.795804	city	10	1	0.564000	0.564000	0	1	0	0	CorrectCommission	0.283549	0.714951	0	1
295.739258	0.795800	city	5	1	0.565441	0.565441	0	1	0	0	CorrectCommission	0.262748	0.771337	0	1
296.535126	0.795906	city	2	1	0.499350	0.499350	0	1	0	0	CorrectCommission	1.217268	0.827072	0	1
297.330933	0.795697	city	6	1	0.549174	0.549174	0	1	0	0	CorrectCommission	0.497681	0.879000	0	1
298.126770	0.796018	city	5	1	0.499464	0.499464	0	1	0	0	CorrectCommission	1.215629	0.924231	0	1
298.922699	0.795801	city	1	1	0.499210	0.499210	0	1	0	0	CorrectCommission	1.219291	0.960431	0	1
299.718475	0.795802	city	10	1	0.410457	0.410457	0	1	0	0	CorrectCommission	2.501123	0.986152	0	1
300.514221	0.795692	mountain	3	1	0.399633	0.399633	0	0	1	0	CommissionError	2.657457	1.000929	0	1
301.309937	0.795691	city	3	1	0.613508	0.613508	0	1	0	0	CorrectCommission	0.431476	1.005289	0	1
302.105682	0.795836	city	2	1	0.598957	0.598957	0	1	0	0	CorrectCommission	0.221314	1.000549	0	1
302.901489	0.795768	city	6	1	0.599192	0.599192	0	1	0	0	CorrectCommission	0.224705	0.988441	0	1
303.697296	0.795846	city	3	1	0.500605	0.500605	0	1	0	0	CorrectCommission	1.199152	0.970799	0	1
304.493103	0.795761	city	5	1	0.549146	0.549146	0	1	0	0	CorrectCommission	0.498093	0.949205	0	1
305.288910	0.795833	city	2	1	0.499398	0.499398	0	1	0	0	CorrectCommission	1.216586	0.924847	0	1
306.084686	0.795772	city	10	1	0.463746	0.463746	0	1	0	0	CorrectCommission	1.731491	0.898433	0	1
306.880493	0.795817	city	9	1	0.556257	0.556257	0	1	0	0	CorrectCommission	0.395382	0.870287	0	0
307.676392	0.796000	city	4	1	0.599010	0.599010	0	1	0	0	CorrectCommission	0.222086	0.840594	0	0
308.472260	0.795693	city	3	1	0.499745	0.499745	0	1	0	0	CorrectCommission	1.211565	0.809558	0	0
309.267944	0.795692	city	1	1	0.511004	0.511004	0	1	0	0	CorrectCommission	1.048957	0.777595	0	0
310.063690	0.795805	city	3	1	0.459293	0.459293	0	1	0	0	CorrectCommission	1.795802	0.745491	0	0
310.859497	0.795806	city	1	1	0.549645	0.549645	0	1	0	0	CorrectCommission	0.490879	0.714351	0	0
311.655304	0.795797	city	10	1	0.549785	0.549785	0	1	0	0	CorrectCommission	0.488853	0.685544	0	0
312.451080	0.795797	city	4	1	0.598889	0.598889	0	1	0	0	CorrectCommission	0.220337	0.660413	0	0
313.246887	0.795804	mountain	9	0	0.000000	0.608951	1	0	0	0	CorrectOmission	0.365660	0.640026	1	0
314.042694	0.795802	city	6	1	0.598795	0.598795	0	1	0	0	CorrectCommission	0.218977	0.624931	1	0
314.838501	0.795803	mountain	5	0	0.000000	0.587244	1	0	0	0	CorrectOmission	0.052151	0.615044	1	0
315.634399	0.796019	city	7	1	0.560683	0.560683	0	1	0	0	CorrectCommission	0.331459	0.609607	1	0
316.430206	0.795582	city	10	1	0.505497	0.505497	0	1	0	0	CorrectCommission	1.128492	0.607344	1	0
317.225952	0.795870	city	4	1	0.549494	0.549494	0	1	0	0	CorrectCommission	0.493067	0.606663	1	0
318.021851	0.795952	mountain	4	1	0.549832	0.549832	0	0	1	0	CommissionError	0.488173	0.606027	1	0
318.817627	0.795587	city	9	1	0.458785	0.458785	0	1	0	0	CorrectCommission	1.803139	0.604240	1	0
319.613373	0.795908	city	5	1	0.511761	0.511761	0	1	0	0	CorrectCommission	1.038026	0.600608	1	0
320.409180	0.795693	city	4	1	0.598796	0.598796	0	1	0	0	CorrectCommission	0.218989	0.595092	1	0
321.204926	0.795805	city	10	1	0.549175	0.549175	0	1	0	0	CorrectCommission	0.497674	0.588234	1	0
322.000702	0.795797	city	4	1	0.549133	0.549133	0	1	0	0	CorrectCommission	0.498273	0.581022	1	0
322.796631	0.796020	city	9	1	0.549308	0.549308	0	1	0	0	CorrectCommission	0.495748	0.574644	1	0
323.592438	0.795597	city	8	1	0.563395	0.563395	0	1	0	0	CorrectCommission	0.292287	0.570300	1	0
324.388153	0.795870	mountain	5	0	0.000000	0.583702	1	0	0	0	CorrectOmission	0.000989	0.569052	1	0
325.183960	0.795723	city	10	1	0.601591	0.601591	0	1	0	0	CorrectCommission	0.259353	0.571748	1	0
325.979767	0.795906	city	3	1	0.608426	0.608426	0	1	0	0	CorrectCommission	0.358077	0.578987	1	0
326.775574	0.795698	mountain	6	0	0.000000	0.676306	1	0	0	0	CorrectOmission	1.338438	0.591236	1	0
327.571320	0.795801	city	9	1	0.698377	0.698377	0	1	0	0	CorrectCommission	1.657208	0.608856	1	0
328.367249	0.796016	city	3	1	0.567788	0.567788	0	1	0	0	CorrectCommission	0.228842	0.632193	1	0
329.163147	0.795803	city	2	1	0.598732	0.598732	0	1	0	0	CorrectCommission	0.218064	0.661525	0	0
329.958954	0.795800	city	3	1	0.567942	0.567942	0	1	0	0	CorrectCommission	0.226628	0.696909	0	0
330.754639	0.795586	city	6	1	0.598636	0.598636	0	1	0	0	CorrectCommission	0.216684	0.738031	0	0
331.550385	0.795909	city	3	1	0.508713	0.508713	0	1	0	0	CorrectCommission	1.082046	0.784056	0	0
332.346222	0.795749	city	9	1	0.599078	0.599078	0	1	0	0	CorrectCommission	0.223061	0.833505	0	0
333.141998	0.795794	city	6	1	0.517680	0.517680	0	1	0	0	CorrectCommission	0.952532	0.884307	0	0
333.937775	0.795768	city	2	1	0.499377	0.499377	0	1	0	0	CorrectCommission	1.216877	0.933837	0	0
334.733551	0.795787	city	10	1	0.501865	0.501865	0	1	0	0	CorrectCommission	1.180943	0.979227	0	0
335.529327	0.795803	city	1	1	0.549326	0.549326	0	1	0	0	CorrectCommission	0.495485	1.017686	0	0
336.325134	0.795806	mountain	3	1	0.499451	0.499451	0	0	1	0	CommissionError	1.215814	1.046838	0	0
337.120972	0.795848	city	1	1	0.403660	0.403660	0	1	0	0	CorrectCommission	2.599292	1.065039	0	0
337.916779	0.795753	city	10	1	0.499497	0.499497	0	1	0	0	CorrectCommission	1.215147	1.071612	0	0
338.712555	0.795800	city	4	1	0.468653	0.468653	0	1	0	0	CorrectCommission	1.660622	1.066972	0	0
339.508362	0.795801	city	2	1	0.499386	0.499386	0	1	0	0	CorrectCommission	1.216748	1.052485	0	0
340.304169	0.795818	city	8	1	0.500131	0.500131	0	1	0	0	CorrectCommission	1.205988	1.030285	0	0
341.100067	0.796002	city	7	1	0.549151	0.549151	0	1	0	0	CorrectCommission	0.498011	1.002901	0	0
341.895966	0.795802	city	8	1	0.549842	0.549842	0	1	0	0	CorrectCommission	0.488030	0.972922	0	0
342.691650	0.795583	city	2	1	0.549703	0.549703	0	1	0	0	CorrectCommission	0.490039	0.942624	0	0
343.487366	0.795801	city	10	1	0.521655	0.521655	0	1	0	0	CorrectCommission	0.895128	0.913767	0	0
344.283173	0.795801	city	8	1	0.549182	0.549182	0	1	0	0	CorrectCommission	0.497565	0.887458	0	0
345.078949	0.795806	city	5	1	0.507383	0.507383	0	1	0	0	CorrectCommission	1.101249	0.864216	0	0
345.874878	0.796018	city	3	1	0.503266	0.503266	0	1	0	0	CorrectCommission	1.160713	0.844095	0	0
346.670776	0.795803	city	10	1	0.502356	0.502356	0	1	0	0	CorrectCommission	1.173854	0.826834	0	0
347.466461	0.795582	city	2	1	0.509391	0.509391	0	1	0	0	CorrectCommission	1.072255	0.812006	0	0
348.262207	0.795912	city	10	1	0.521542	0.521542	0	1	0	0	CorrectCommission	0.896767	0.799139	0	0
349.058014	0.795697	city	5	1	0.601238	0.601238	0	1	0	0	CorrectCommission	0.254253	0.787710	0	0
349.853821	0.795906	city	3	1	0.570195	0.570195	0	1	0	0	CorrectCommission	0.194090	0.777204	0	0
350.649628	0.795693	city	5	1	0.549156	0.549156	0	1	0	0	CorrectCommission	0.497949	0.767052	0	0
351.445374	0.795803	mountain	5	0	0.000000	0.524920	1	0	0	0	CorrectOmission	0.847975	0.756653	0	0
352.241180	0.795802	city	7	1	0.506585	0.506585	0	1	0	0	CorrectCommission	1.112783	0.745428	0	0
353.037079	0.796019	city	9	1	0.503247	0.503247	0	1	0	0	CorrectCommission	1.160990	0.732911	0	0
353.832886	0.795582	city	5	1	0.548964	0.548964	0	1	0	0	CorrectCommission	0.500710	0.718825	0	0
354.628571	0.795806	city	7	1	0.511518	0.511518	0	1	0	0	CorrectCommission	1.041537	0.703169	0	0
355.424438	0.795906	city	3	1	0.499440	0.499440	0	1	0	0	CorrectCommission	1.215976	0.686219	0	0
356.220245	0.795696	mountain	1	0	0.000000	0.554321	1	0	0	0	CorrectOmission	0.423342	0.668484	0	0
357.015991	0.795798	city	3	1	0.598917	0.598917	0	1	0	0	CorrectCommission	0.220734	0.650656	1	0
357.811798	0.795818	city	1	1	0.555980	0.555980	0	1	0	0	CorrectCommission	0.399382	0.633438	1	0
358.607605	0.795784	mountain	6	0	0.000000	0.537511	1	0	0	0	CorrectOmission	0.666125	0.617447	1	0
359.403412	0.795868	city	8	1	0.549725	0.549725	0	1	0	0	CorrectCommission	0.489728	0.603118	1	0
360.199219	0.795740	city	6	1	0.598836	0.598836	0	1	0	0	CorrectCommission	0.219575	0.590670	1	0
360.995026	0.795858	city	1	1	0.513143	0.513143	0	1	0	0	CorrectCommission	1.018072	0.580114	1	0
361.790894	0.795851	city	9	1	0.549715	0.549715	0	1	0	0	CorrectCommission	0.489867	0.571286	1	0
362.586639	0.795697	city	7	1	0.560513	0.560513	0	1	0	0	CorrectCommission	0.333911	0.563964	1	0
363.382416	0.795840	city	3	1	0.499542	0.499542	0	1	0	0	CorrectCommission	1.214493	0.557914	1	0
364.178223	0.795759	city	2	1	0.549106	0.549106	0	1	0	0	CorrectCommission	0.498664	0.552919	1	0
364.973999	0.795809	city	1	1	0.549174	0.549174	0	1	0	0	CorrectCommission	0.497678	0.548851	1	0
365.769928	0.796011	city	7	1	0.549161	0.549161	0	1	0	0	CorrectCommission	0.497877	0.545647	1	0
366.565765	0.795694	city	2	1	0.565599	0.565599	0	1	0	0	CorrectCommission	0.260456	0.543331	1	1
367.361450	0.795697	city	4	1	0.600130	0.600130	0	1	0	0	CorrectCommission	0.238255	0.542033	1	1
368.157227	0.795801	city	7	1	0.599705	0.599705	0	1	0	0	CorrectCommission	0.232115	0.542054	1	1
368.953064	0.795906	city	3	1	0.602308	0.602308	0	1	0	0	CorrectCommission	0.269712	0.544013	1	1
369.748871	0.795693	city	9	1	0.702263	0.702263	0	1	0	0	CorrectCommission	1.713325	0.548961	1	1
370.544617	0.795803	city	1	1	0.656639	0.656639	0	1	0	0	CorrectCommission	1.054397	0.558455	1	1
371.340424	0.795800	city	9	1	0.599058	0.599058	0	1	0	0	CorrectCommission	0.222772	0.574615	1	1
372.136261	0.795909	city	8	1	0.562900	0.562900	0	1	0	0	CorrectCommission	0.299441	0.599919	1	1
372.932068	0.795699	city	9	1	0.599203	0.599203	0	1	0	0	CorrectCommission	0.224864	0.636868	1	1
373.727814	0.795801	city	5	1	0.549136	0.549136	0	1	0	0	CorrectCommission	0.498237	0.687574	0	1
374.523743	0.796017	city	1	1	0.552860	0.552860	0	1	0	0	CorrectCommission	0.444453	0.753214	0	1
375.319519	0.795581	city	5	1	0.549028	0.549028	0	1	0	0	CorrectCommission	0.499790	0.833536	0	1
376.115234	0.795809	mountain	5	0	0.000000	0.549386	1	0	0	0	CorrectOmission	0.494621	0.926433	0	1
376.911072	0.795905	city	5	1	0.565557	0.565557	0	1	0	0	CorrectCommission	0.261066	1.027791	0	1
377.706909	0.795737	mountain	5	0	0.000000	0.609166	1	0	0	0	CorrectOmission	0.368760	1.131627	0	1
378.502655	0.795757	city	3	1	0.650998	0.650998	0	1	0	0	CorrectCommission	0.972926	1.230540	0	1
379.298492	0.795910	mountain	3	0	0.000000	0.661839	1	0	0	0	CorrectOmission	1.129503	1.316495	0	1
380.094330	0.795802	city	7	1	0.698243	0.698243	0	1	0	0	CorrectCommission	1.655270	1.381875	0	1
380.890076	0.795694	mountain	8	0	0.000000	0.816763	1	0	0	0	CorrectOmission	3.367004	1.420506	0	1
381.685883	0.795908	city	9	1	0.897323	0.897323	0	1	0	0	CorrectCommission	4.530514	1.428591	0	1
382.481689	0.795700	mountain	10	0	0.000000	0.819851	1	0	0	0	CorrectOmission	3.411608	1.405323	0	1
383.277435	0.795797	city	3	1	0.698799	0.698799	0	1	0	0	CorrectCommission	1.663292	1.353035	0	1
384.073303	0.795907	city	10	1	0.648619	0.648619	0	1	0	0	CorrectCommission	0.938573	1.276809	0	1
384.869110	0.795696	city	1	1	0.598849	0.598849	0	1	0	0	CorrectCommission	0.219753	1.183633	0	1
385.664948	0.796018	city	4	1	0.598897	0.598897	0	1	0	0	CorrectCommission	0.220447	1.081371	0	1
386.460785	0.795644	city	7	1	0.598733	0.598733	0	1	0	0	CorrectCommission	0.218076	0.977673	0	1
387.256470	0.795743	city	2	1	0.555658	0.555658	0	1	0	0	CorrectCommission	0.404038	0.878999	0	1
388.052246	0.795799	city	4	1	0.608184	0.608184	0	1	0	0	CorrectCommission	0.354582	0.790038	0	1
388.848114	0.795912	city	6	1	0.556151	0.556151	0	1	0	0	CorrectCommission	0.396919	0.713464	0	1
389.643890	0.795693	city	8	1	0.551733	0.551733	0	1	0	0	CorrectCommission	0.460725	0.650049	1	1
390.439667	0.795853	city	9	1	0.500314	0.500314	0	1	0	0	CorrectCommission	1.203346	0.599053	1	1
391.235535	0.795860	city	5	1	0.549298	0.549298	0	1	0	0	CorrectCommission	0.495888	0.558742	1	1
392.031311	0.795697	city	9	1	0.549120	0.549120	0	1	0	0	CorrectCommission	0.498468	0.527036	1	1
392.827179	0.796014	mountain	7	1	0.553036	0.553036	0	0	1	0	CommissionError	0.441903	0.501948	1	1
393.622955	0.795586	city	2	1	0.516066	0.516066	0	1	0	0	CorrectCommission	0.975849	0.481956	1	1
394.418671	0.795803	city	9	1	0.599035	0.599035	0	1	0	0	CorrectCommission	0.222447	0.466171	1	1
395.214478	0.795803	city	6	1	0.599033	0.599033	0	1	0	0	CorrectCommission	0.222420	0.454369	1	1
396.010376	0.796016	city	8	1	0.553140	0.553140	0	1	0	0	CorrectCommission	0.440409	0.446817	1	1
396.806183	0.795584	city	1	1	0.564768	0.564768	0	1	0	0	CorrectCommission	0.272471	0.444067	1	1
397.601868	0.795806	city	3	1	0.599020	0.599020	0	1	0	0	CorrectCommission	0.222232	0.446722	1	1
398.397675	0.795797	city	9	1	0.605750	0.605750	0	1	0	0	CorrectCommission	0.319421	0.455160	1	1
399.193481	0.795841	city	5	1	0.549444	0.549444	0	1	0	0	CorrectCommission	0.493780	0.469373	1	1
399.989288	0.795765	city	9	1	0.599449	0.599449	0	1	0	0	CorrectCommission	0.228417	0.488871	1	1
400.785065	0.795801	city	7	1	0.602526	0.602526	0	1	0	0	CorrectCommission	0.272862	0.512694	1	1
401.580872	0.795801	city	9	1	0.648619	0.648619	0	1	0	0	CorrectCommission	0.938572	0.539434	1	1
402.376678	0.795808	city	8	1	0.610305	0.610305	0	1	0	0	CorrectCommission	0.385206	0.567365	1	1
403.172485	0.795791	city	6	1	0.556822	0.556822	0	1	0	0	CorrectCommission	0.387228	0.594648	1	1
403.968292	0.795811	city	5	1	0.556437	0.556437	0	1	0	0	CorrectCommission	0.392790	0.619520	1	1
404.764099	0.795838	city	1	1	0.504381	0.504381	0	1	0	0	CorrectCommission	1.144612	0.640506	1	1
405.560028	0.795977	city	9	1	0.499372	0.499372	0	1	0	0	CorrectCommission	1.216954	0.656581	1	1
406.355835	0.795666	city	8	1	0.549372	0.549372	0	1	0	0	CorrectCommission	0.494816	0.667317	0	1
407.151642	0.795937	city	10	1	0.499500	0.499500	0	1	0	0	CorrectCommission	1.215110	0.672885	0	1
407.947388	0.795595	city	9	1	0.503751	0.503751	0	1	0	0	CorrectCommission	1.153707	0.673937	0	1
408.743103	0.795792	city	4	1	0.549391	0.549391	0	1	0	0	CorrectCommission	0.494541	0.671491	0	1
409.538879	0.795802	city	8	1	0.552366	0.552366	0	1	0	0	CorrectCommission	0.451585	0.666703	0	1
410.334747	0.795907	mountain	8	0	0.000000	0.587415	1	0	0	0	CorrectOmission	0.054614	0.660588	0	1
411.130615	0.795801	city	6	1	0.603399	0.603399	0	1	0	0	CorrectCommission	0.285471	0.653865	1	1
411.926361	0.795693	city	2	1	0.549180	0.549180	0	1	0	0	CorrectCommission	0.497598	0.646827	1	1
412.722137	0.795910	city	1	1	0.508335	0.508335	0	1	0	0	CorrectCommission	1.087509	0.639364	1	1
413.517944	0.795696	city	9	1	0.549057	0.549057	0	1	0	0	CorrectCommission	0.499370	0.631062	1	1
414.313690	0.795803	city	7	1	0.506399	0.506399	0	1	0	0	CorrectCommission	1.115464	0.621404	1	1
415.109497	0.795800	city	6	1	0.549201	0.549201	0	1	0	0	CorrectCommission	0.497298	0.609933	1	1
415.905304	0.795801	city	1	1	0.518658	0.518658	0	1	0	0	CorrectCommission	0.938412	0.596457	1	1
416.701111	0.795831	city	7	1	0.513053	0.513053	0	1	0	0	CorrectCommission	1.019369	0.581107	1	1
417.496948	0.795807	city	4	1	0.549138	0.549138	0	1	0	0	CorrectCommission	0.498205	0.564370	1	1
418.292725	0.795764	mountain	3	0	0.000000	0.590966	1	0	0	0	CorrectOmission	0.105901	0.547025	1	1
419.088531	0.795836	city	6	1	0.602863	0.602863	0	1	0	0	CorrectCommission	0.277728	0.529969	1	1
419.884338	0.795768	city	8	1	0.549156	0.549156	0	1	0	0	CorrectCommission	0.497948	0.514085	1	1
420.680145	0.795846	mountain	7	0	0.000000	0.603282	1	0	0	0	CorrectOmission	0.283783	0.500073	1	1
421.475952	0.795762	city	10	1	0.648600	0.648600	0	1	0	0	CorrectCommission	0.938291	0.488367	1	1
422.271759	0.795862	city	1	1	0.568466	0.568466	0	1	0	0	CorrectCommission	0.219055	0.479070	1	1
423.067566	0.795798	city	4	1	0.598835	0.598835	0	1	0	0	CorrectCommission	0.219559	0.472006	1	1
423.863342	0.795744	city	7	1	0.568683	0.568683	0	1	0	0	CorrectCommission	0.215923	0.466794	1	1
424.659119	0.795800	city	4	1	0.648774	0.648774	0	1	0	0	CorrectCommission	0.940801	0.462951	1	1
425.454926	0.795803	city	8	1	0.601689	0.601689	0	1	0	0	CorrectCommission	0.260770	0.460005	1	1
426.250732	0.795797	city	4	1	0.648725	0.648725	0	1	0	0	CorrectCommission	0.940099	0.457675	1	0
427.046539	0.795812	city	9	1	0.599806	0.599806	0	1	0	0	CorrectCommission	0.233583	0.455872	1	0
427.842346	0.795800	city	3	1	0.600868	0.600868	0	1	0	0	CorrectCommission	0.248914	0.454826	1	0
428.638153	0.795834	city	2	1	0.648643	0.648643	0	1	0	0	CorrectCommission	0.938916	0.454965	1	0
429.433990	0.795870	city	8	1	0.598877	0.598877	0	1	0	0	CorrectCommission	0.220164	0.456857	1	0
430.229889	0.795912	city	1	1	0.618387	0.618387	0	1	0	0	CorrectCommission	0.501933	0.461128	1	0
431.025635	0.795593	city	4	1	0.598678	0.598678	0	1	0	0	CorrectCommission	0.217293	0.468300	1	0
431.821350	0.795793	city	2	1	0.598997	0.598997	0	1	0	0	CorrectCommission	0.221887	0.478685	1	0
432.617126	0.795799	city	6	1	0.598906	0.598906	0	1	0	0	CorrectCommission	0.220578	0.492305	1	0
433.412933	0.795805	city	3	1	0.549163	0.549163	0	1	0	0	CorrectCommission	0.497841	0.508845	1	0
434.208801	0.795909	city	5	1	0.556208	0.556208	0	1	0	0	CorrectCommission	0.396099	0.527660	1	0
435.004608	0.795726	city	1	1	0.502830	0.502830	0	1	0	0	CorrectCommission	1.167006	0.547849	1	0
435.800354	0.795766	city	8	1	0.549107	0.549107	0	1	0	0	CorrectCommission	0.498656	0.568322	1	0
436.596252	0.796021	city	1	1	0.598890	0.598890	0	1	0	0	CorrectCommission	0.220348	0.587915	1	0
437.392059	0.795587	city	6	1	0.648515	0.648515	0	1	0	0	CorrectCommission	0.937060	0.605464	1	0
438.187866	0.796015	city	8	1	0.549127	0.549127	0	1	0	0	CorrectCommission	0.498357	0.619916	1	0
438.983673	0.795584	city	3	1	0.521221	0.521221	0	1	0	0	CorrectCommission	0.901404	0.630440	1	0
439.779358	0.795801	city	2	1	0.509856	0.509856	0	1	0	0	CorrectCommission	1.065539	0.636449	1	0
440.575165	0.795803	city	4	1	0.599298	0.599298	0	1	0	0	CorrectCommission	0.226234	0.637722	1	0
441.371063	0.796021	city	8	1	0.552889	0.552889	0	1	0	0	CorrectCommission	0.444034	0.634476	1	0
442.166870	0.795586	mountain	10	1	0.565167	0.565167	0	0	1	0	CommissionError	0.266696	0.627355	1	0
442.962677	0.796018	mountain	1	1	0.450235	0.450235	0	0	1	0	CommissionError	1.926616	0.617499	1	0
443.758484	0.795582	city	6	1	0.648556	0.648556	0	1	0	0	CorrectCommission	0.937655	0.606430	1	0
444.554169	0.795805	city	7	1	0.549162	0.549162	0	1	0	0	CorrectCommission	0.497851	0.595990	1	0
445.349976	0.795796	city	9	1	0.598887	0.598887	0	1	0	0	CorrectCommission	0.220307	0.588138	1	0
446.145752	0.795806	city	7	1	0.598877	0.598877	0	1	0	0	CorrectCommission	0.220154	0.584675	1	0
446.941559	0.795799	city	6	1	0.599268	0.599268	0	1	0	0	CorrectCommission	0.225803	0.587043	1	0
447.737396	0.795870	city	5	1	0.599068	0.599068	0	1	0	0	CorrectCommission	0.222919	0.596129	1	0
448.533325	0.795953	city	2	1	0.558298	0.558298	0	1	0	0	CorrectCommission	0.365906	0.612143	1	0
449.329193	0.795801	city	1	1	0.549016	0.549016	0	1	0	0	CorrectCommission	0.499967	0.634597	1	0
450.124878	0.795584	city	4	1	0.549395	0.549395	0	1	0	0	CorrectCommission	0.494484	0.662388	0	0
450.920563	0.795805	city	10	1	0.499424	0.499424	0	1	0	0	CorrectCommission	1.216203	0.693977	0	0
451.716370	0.795799	city	2	1	0.549152	0.549152	0	1	0	0	CorrectCommission	0.498001	0.727572	0	0
452.512177	0.795805	city	10	1	0.549199	0.549199	0	1	0	0	CorrectCommission	0.497322	0.761372	0	0
453.308014	0.795865	mountain	6	0	0.000000	0.672799	1	0	0	0	CorrectOmission	1.287788	0.793713	0	0
454.103912	0.795952	city	4	1	0.748434	0.748434	0	1	0	0	CorrectCommission	2.380157	0.823156	0	0
454.899689	0.795585	city	5	1	0.604586	0.604586	0	1	0	0	CorrectCommission	0.302609	0.848523	0	0
455.695435	0.795909	city	10	1	0.598873	0.598873	0	1	0	0	CorrectCommission	0.220108	0.868983	0	0
456.491241	0.795694	city	9	1	0.608453	0.608453	0	1	0	0	CorrectCommission	0.358457	0.883920	0	0
457.286987	0.795800	city	5	1	0.563502	0.563502	0	1	0	0	CorrectCommission	0.290749	0.892985	0	0
458.082794	0.795806	mountain	8	0	0.000000	0.665253	1	0	0	0	CorrectOmission	1.178803	0.896168	0	0
458.878601	0.795804	city	7	1	0.748638	0.748638	0	1	0	0	CorrectCommission	2.383098	0.893822	0	0
459.674438	0.795905	city	1	1	0.648588	0.648588	0	1	0	0	CorrectCommission	0.938119	0.886748	0	0
460.470245	0.795695	city	5	1	0.706980	0.706980	0	1	0	0	CorrectCommission	1.781454	0.876203	0	0
461.266052	0.795935	city	9	1	0.648595	0.648595	0	1	0	0	CorrectCommission	0.938218	0.863730	0	0
462.061890	0.795713	mountain	9	0	0.000000	0.592194	1	0	0	0	CorrectOmission	0.123641	0.851006	0	0
462.857666	0.795835	city	3	1	0.553819	0.553819	0	1	0	0	CorrectCommission	0.430592	0.839509	0	0
463.653442	0.795725	city	7	1	0.549512	0.549512	0	1	0	0	CorrectCommission	0.492798	0.830183	0	0
464.449188	0.795798	city	2	1	0.600647	0.600647	0	1	0	0	CorrectCommission	0.245721	0.823236	0	0
465.245056	0.795910	city	8	1	0.598943	0.598943	0	1	0	0	CorrectCommission	0.221112	0.818067	0	0
466.040863	0.795698	city	1	1	0.656579	0.656579	0	1	0	0	CorrectCommission	1.053524	0.813357	0	0
466.836609	0.795796	city	4	1	0.648704	0.648704	0	1	0	0	CorrectCommission	0.939795	0.807326	0	0
467.632507	0.796022	mountain	7	0	0.000000	0.680052	1	0	0	0	CorrectOmission	1.392543	0.798152	0	0
468.428436	0.795801	city	7	1	0.698586	0.698586	0	1	0	0	CorrectCommission	1.660216	0.784373	0	0
469.224243	0.795800	city	6	1	0.652268	0.652268	0	1	0	0	CorrectCommission	0.991262	0.765285	0	0
470.020020	0.795804	mountain	6	0	0.000000	0.646967	1	0	0	0	CorrectOmission	0.914712	0.741169	0	0
470.815765	0.795692	city	5	1	0.648379	0.648379	0	1	0	0	CorrectCommission	0.935106	0.713299	0	0
471.611572	0.795909	mountain	6	0	0.000000	0.622199	1	0	0	0	CorrectOmission	0.556987	0.683828	0	0
472.407379	0.795695	city	10	1	0.598695	0.598695	0	1	0	0	CorrectCommission	0.217529	0.655561	1	0
473.203125	0.795801	city	9	1	0.608138	0.608138	0	1	0	0	CorrectCommission	0.353907	0.631557	1	0
473.998993	0.795909	city	4	1	0.598768	0.598768	0	1	0	0	CorrectCommission	0.218587	0.614796	1	0
474.794739	0.795587	city	7	1	0.552454	0.552454	0	1	0	0	CorrectCommission	0.450313	0.607972	1	0
475.590454	0.795868	city	1	1	0.552278	0.552278	0	1	0	0	CorrectCommission	0.452856	0.613377	1	0
476.386261	0.795744	city	6	1	0.601263	0.601263	0	1	0	0	CorrectCommission	0.254616	0.632933	1	0
477.182098	0.795898	city	2	1	0.549321	0.549321	0	1	0	0	CorrectCommission	0.495560	0.668432	0	0
477.977936	0.795802	city	4	1	0.549180	0.549180	0	1	0	0	CorrectCommission	0.497597	0.721746	0	0
478.773682	0.795694	city	1	1	0.549620	0.549620	0	1	0	0	CorrectCommission	0.491244	0.795102	0	0
479.569550	0.796018	city	3	1	0.607867	0.607867	0	1	0	0	CorrectCommission	0.349996	0.891217	0	0
480.365356	0.795589	mountain	7	1	0.501507	0.501507	0	0	1	0	CommissionError	1.186126	1.013257	0	0
481.161041	0.795800	city	8	1	0.715620	0.715620	0	1	0	0	CorrectCommission	1.906240	1.164554	0	0
481.956848	0.795805	mountain	2	0	0.000000	0.700262	1	0	0	0	CorrectOmission	1.684420	1.348129	0	0
482.752747	0.796013	city	7	1	0.599384	0.599384	0	1	0	0	CorrectCommission	0.227475	1.566017	0	0
483.548553	0.795593	city	9	1	0.556939	0.556939	0	1	0	0	CorrectCommission	0.385537	1.818524	0	0
484.344269	0.795861	city	1	1	0.549869	0.549869	0	1	0	0	CorrectCommission	0.487647	2.103565	0	0
485.140076	0.795755	city	6	1	0.549086	0.549086	0	1	0	0	CorrectCommission	0.498951	2.416339	0	0
485.935852	0.795802	mountain	9	1	0.648615	0.648615	0	0	1	0	CommissionError	0.938514	2.749403	0	0
486.731659	0.795783	city	8	1	0.797805	0.797805	0	1	0	0	CorrectCommission	3.093212	3.093212	0	0
