onset	duration	trial_type	image_type	Press	ReactionTime	ReactionTime_Interpolated	CorrectOmission	CorrectCommission	CommissionError	OmissionError	response_type	nonsmoothVarianceTimeCourse	VarianceTimeCourse	In_the_Zone	Reward_trial
8.433791	0.792251	city	4	1	0.893755	0.893755	0	1	0	0	CorrectCommission	2.237973	2.237973	0	1
9.226079	0.792325	city	5	1	0.610666	0.610666	0	1	0	0	CorrectCommission	1.238764	1.996543	0	1
10.018450	0.792418	city	6	1	0.794728	0.794728	0	1	0	0	CorrectCommission	1.021781	1.763538	0	1
10.810686	0.792053	mountain	4	1	0.713267	0.713267	0	0	1	0	CommissionError	0.021320	1.546556	0	1
11.602950	0.792474	city	9	1	0.713371	0.713371	0	1	0	0	CorrectCommission	0.022604	1.351747	0	1
12.395265	0.792156	mountain	2	0	0.000000	0.757370	1	0	0	0	CorrectOmission	0.562973	1.183351	0	1
13.187455	0.792224	mountain	7	0	0.000000	0.789676	1	0	0	0	CorrectOmission	0.959732	1.043589	0	1
13.979668	0.792202	city	4	1	0.754701	0.754701	0	1	0	0	CorrectCommission	0.530187	0.932824	0	1
14.771940	0.792344	city	8	1	0.596857	0.596857	0	1	0	0	CorrectCommission	1.408358	0.849894	0	1
15.564312	0.792400	city	5	1	0.645732	0.645732	0	1	0	0	CorrectCommission	0.808101	0.792500	0	1
16.356644	0.792262	city	1	1	0.744548	0.744548	0	1	0	0	CorrectCommission	0.405497	0.757624	0	1
17.148800	0.792052	city	6	1	0.696146	0.696146	0	1	0	0	CorrectCommission	0.188950	0.741796	0	1
17.940958	0.792261	city	1	1	0.645887	0.645887	0	1	0	0	CorrectCommission	0.806192	0.741302	0	1
18.733219	0.792264	city	3	1	0.744891	0.744891	0	1	0	0	CorrectCommission	0.409708	0.752256	0	1
19.525484	0.792266	city	5	1	0.711099	0.711099	0	1	0	0	CorrectCommission	0.005307	0.770719	0	1
20.317749	0.792265	city	4	1	0.655286	0.655286	0	1	0	0	CorrectCommission	0.690769	0.792738	0	1
21.110067	0.792373	city	1	1	0.646206	0.646206	0	1	0	0	CorrectCommission	0.802278	0.814484	0	1
21.902334	0.792159	city	9	1	0.596704	0.596704	0	1	0	0	CorrectCommission	1.410239	0.832529	0	1
22.694578	0.792326	city	6	1	0.655981	0.655981	0	1	0	0	CorrectCommission	0.682234	0.844061	0	1
23.486843	0.792204	city	8	1	0.547436	0.547436	0	1	0	0	CorrectCommission	2.015311	0.847199	0	1
24.279129	0.792371	city	3	1	0.546684	0.546684	0	1	0	0	CorrectCommission	2.024550	0.841130	0	1
25.071392	0.792156	mountain	3	0	0.000000	0.642769	1	0	0	0	CorrectOmission	0.844491	0.826268	0	1
25.863605	0.792268	city	4	1	0.703394	0.703394	0	1	0	0	CorrectCommission	0.099936	0.804130	0	1
26.655870	0.792262	city	8	1	0.596260	0.596260	0	1	0	0	CorrectCommission	1.415685	0.777084	0	1
27.448187	0.792372	city	2	1	0.695842	0.695842	0	1	0	0	CorrectCommission	0.192674	0.748021	0	1
28.240561	0.792374	city	4	1	0.703097	0.703097	0	1	0	0	CorrectCommission	0.103579	0.720086	0	1
29.032780	0.792064	city	10	1	0.695140	0.695140	0	1	0	0	CorrectCommission	0.201306	0.696279	1	1
29.824936	0.792250	city	8	1	0.660625	0.660625	0	1	0	0	CorrectCommission	0.625189	0.679197	1	1
30.617193	0.792263	city	1	1	0.602651	0.602651	0	1	0	0	CorrectCommission	1.337201	0.670852	1	1
31.409500	0.792351	city	9	1	0.745361	0.745361	0	1	0	0	CorrectCommission	0.415485	0.672591	1	1
32.201767	0.792181	mountain	4	0	0.000000	0.703038	1	0	0	0	CorrectOmission	0.104300	0.685051	1	1
32.993984	0.792260	city	9	1	0.646127	0.646127	0	1	0	0	CorrectCommission	0.803249	0.708118	1	1
33.786247	0.792266	city	7	1	0.745073	0.745073	0	1	0	0	CorrectCommission	0.411947	0.740917	0	1
34.578518	0.792270	mountain	10	0	0.000000	0.785876	1	0	0	0	CorrectOmission	0.913067	0.781841	0	1
35.370781	0.792260	mountain	8	0	0.000000	0.773574	1	0	0	0	CorrectOmission	0.761982	0.828549	0	1
36.163097	0.792373	city	5	1	0.713205	0.713205	0	1	0	0	CorrectCommission	0.020564	0.878103	0	1
36.955364	0.792161	city	2	1	0.609807	0.609807	0	1	0	0	CorrectCommission	1.249316	0.927147	0	1
37.747684	0.792479	city	7	1	0.648335	0.648335	0	1	0	0	CorrectCommission	0.776132	0.972118	0	1
38.540001	0.792156	city	5	1	0.663651	0.663651	0	1	0	0	CorrectCommission	0.588037	1.009697	0	1
39.332157	0.792154	city	4	1	0.794168	0.794168	0	1	0	0	CorrectCommission	1.014904	1.037158	0	1
40.124420	0.792375	city	3	1	0.992831	0.992831	0	1	0	0	CorrectCommission	3.454754	1.052755	0	1
40.916687	0.792157	mountain	3	0	0.000000	0.923288	1	0	0	0	CorrectOmission	2.600678	1.055923	0	1
41.708950	0.792372	city	6	1	0.752050	0.752050	0	1	0	0	CorrectCommission	0.497636	1.047479	0	1
42.501228	0.792180	city	8	1	0.645625	0.645625	0	1	0	0	CorrectCommission	0.809410	1.029488	0	1
43.293438	0.792241	city	1	1	0.744772	0.744772	0	1	0	0	CorrectCommission	0.408243	1.004887	0	1
44.085693	0.792269	city	5	1	0.794428	0.794428	0	1	0	0	CorrectCommission	1.018089	0.977101	0	1
44.877956	0.792262	city	6	1	0.761407	0.761407	0	1	0	0	CorrectCommission	0.612546	0.949569	0	1
45.670223	0.792267	city	2	1	0.753456	0.753456	0	1	0	0	CorrectCommission	0.514899	0.925307	0	1
46.462486	0.792260	city	4	1	0.661541	0.661541	0	1	0	0	CorrectCommission	0.613941	0.906561	0	1
47.254803	0.792374	city	1	1	0.645777	0.645777	0	1	0	0	CorrectCommission	0.807547	0.894633	0	1
48.047123	0.792266	city	10	1	0.645861	0.645861	0	1	0	0	CorrectCommission	0.806516	0.889821	0	1
48.839333	0.792155	city	4	1	0.605950	0.605950	0	1	0	0	CorrectCommission	1.296685	0.891546	0	1
49.631542	0.792264	city	7	1	0.652132	0.652132	0	1	0	0	CorrectCommission	0.729499	0.898473	0	1
50.423809	0.792269	city	9	1	0.645766	0.645766	0	1	0	0	CorrectCommission	0.807678	0.908738	0	1
51.216076	0.792264	city	2	1	0.646106	0.646106	0	1	0	0	CorrectCommission	0.803503	0.920172	0	1
52.008339	0.792261	city	1	1	0.645892	0.645892	0	1	0	0	CorrectCommission	0.806137	0.930518	0	1
52.800602	0.792267	city	8	1	0.645867	0.645867	0	1	0	0	CorrectCommission	0.806448	0.937631	0	1
53.592899	0.792327	city	1	1	0.613071	0.613071	0	1	0	0	CorrectCommission	1.209228	0.939694	0	1
54.385166	0.792206	city	7	1	0.597140	0.597140	0	1	0	0	CorrectCommission	1.404875	0.935310	0	1
55.177399	0.792263	mountain	7	0	0.000000	0.596021	1	0	0	0	CorrectOmission	1.418627	0.923671	0	1
55.969662	0.792265	mountain	10	0	0.000000	0.607612	1	0	0	0	CorrectOmission	1.276269	0.904581	0	1
56.762035	0.792480	mountain	9	0	0.000000	0.629815	1	0	0	0	CorrectOmission	1.003585	0.878451	0	1
57.554306	0.792058	city	7	1	0.660530	0.660530	0	1	0	0	CorrectCommission	0.626362	0.846194	0	1
58.346462	0.792256	city	10	1	0.697658	0.697658	0	1	0	0	CorrectCommission	0.170382	0.809162	0	1
59.138775	0.792370	city	1	1	0.645754	0.645754	0	1	0	0	CorrectCommission	0.807834	0.769051	0	1
59.931053	0.792189	city	9	1	0.597870	0.597870	0	1	0	0	CorrectCommission	1.395911	0.727707	0	1
60.723293	0.792288	city	10	1	0.646087	0.646087	0	1	0	0	CorrectCommission	0.803735	0.687064	1	1
61.515541	0.792210	city	3	1	0.695295	0.695295	0	1	0	0	CorrectCommission	0.199403	0.648999	1	1
62.307888	0.792482	city	9	1	0.658398	0.658398	0	1	0	0	CorrectCommission	0.652548	0.615249	1	1
63.100155	0.792052	city	1	1	0.695509	0.695509	0	1	0	0	CorrectCommission	0.196764	0.587276	1	1
63.892311	0.792261	city	2	1	0.646232	0.646232	0	1	0	0	CorrectCommission	0.801954	0.566193	1	1
64.684578	0.792268	city	8	1	0.695599	0.695599	0	1	0	0	CorrectCommission	0.195662	0.552647	1	1
65.476860	0.792306	city	7	1	0.704745	0.704745	0	1	0	0	CorrectCommission	0.083343	0.546828	1	1
66.269234	0.792438	mountain	10	0	0.000000	0.668267	1	0	0	0	CorrectOmission	0.531342	0.548393	1	1
67.061478	0.792045	city	7	1	0.645602	0.645602	0	1	0	0	CorrectCommission	0.809697	0.556519	1	1
67.853630	0.792267	city	4	1	0.696187	0.696187	0	1	0	0	CorrectCommission	0.188441	0.570017	1	0
68.645897	0.792263	city	2	1	0.745151	0.745151	0	1	0	0	CorrectCommission	0.412897	0.587478	1	0
69.438164	0.792268	city	6	1	0.711744	0.711744	0	1	0	0	CorrectCommission	0.002619	0.607411	1	0
70.230431	0.792262	city	7	1	0.614762	0.614762	0	1	0	0	CorrectCommission	1.188461	0.628442	1	0
71.022690	0.792266	city	10	1	0.605546	0.605546	0	1	0	0	CorrectCommission	1.301647	0.649436	1	0
71.814957	0.792263	mountain	3	0	0.000000	0.615361	1	0	0	0	CorrectOmission	1.181099	0.669636	1	0
72.607224	0.792268	city	7	1	0.646374	0.646374	0	1	0	0	CorrectCommission	0.800212	0.688654	1	0
73.399483	0.792260	mountain	8	0	0.000000	0.700752	1	0	0	0	CorrectOmission	0.132376	0.706418	1	0
74.191780	0.792329	city	1	1	0.744784	0.744784	0	1	0	0	CorrectCommission	0.408392	0.723068	0	0
74.984047	0.792199	city	3	1	0.744758	0.744758	0	1	0	0	CorrectCommission	0.408080	0.738766	0	0
75.776276	0.792265	city	6	1	0.596292	0.596292	0	1	0	0	CorrectCommission	1.415297	0.753614	0	0
76.568542	0.792270	city	8	1	0.696472	0.696472	0	1	0	0	CorrectCommission	0.184943	0.767533	0	0
77.360863	0.792368	city	2	1	0.652312	0.652312	0	1	0	0	CorrectCommission	0.727287	0.780299	0	0
78.153130	0.792157	city	9	1	0.612013	0.612013	0	1	0	0	CorrectCommission	1.222213	0.791560	0	0
78.945335	0.792265	city	7	1	0.645897	0.645897	0	1	0	0	CorrectCommission	0.806081	0.800941	0	0
79.737709	0.792483	city	5	1	0.645782	0.645782	0	1	0	0	CorrectCommission	0.807490	0.808149	0	0
80.530090	0.792270	city	2	1	0.596173	0.596173	0	1	0	0	CorrectCommission	1.416751	0.813059	0	0
81.322273	0.792096	city	8	1	0.794573	0.794573	0	1	0	0	CorrectCommission	1.019871	0.815705	0	0
82.114433	0.792236	city	7	1	0.695253	0.695253	0	1	0	0	CorrectCommission	0.199908	0.816357	0	0
82.906731	0.792347	city	9	1	0.646316	0.646316	0	1	0	0	CorrectCommission	0.800933	0.815472	0	0
83.699089	0.792374	mountain	7	0	0.000000	0.629521	1	0	0	0	CorrectOmission	1.007201	0.813550	0	0
84.491409	0.792266	city	7	1	0.645541	0.645541	0	1	0	0	CorrectCommission	0.810444	0.811120	0	0
85.283676	0.792265	city	10	1	0.695051	0.695051	0	1	0	0	CorrectCommission	0.202397	0.808707	0	0
86.075882	0.792155	city	8	1	0.646058	0.646058	0	1	0	0	CorrectCommission	0.804094	0.806764	0	0
86.868042	0.792158	city	4	1	0.601160	0.601160	0	1	0	0	CorrectCommission	1.355511	0.805640	0	0
87.660278	0.792325	city	7	1	0.645718	0.645718	0	1	0	0	CorrectCommission	0.808276	0.805575	0	0
88.452583	0.792278	city	4	1	0.646040	0.646040	0	1	0	0	CorrectCommission	0.804315	0.806716	0	0
89.244926	0.792406	city	2	1	0.607410	0.607410	0	1	0	0	CorrectCommission	1.278746	0.809048	0	0
90.037262	0.792265	mountain	1	0	0.000000	0.669438	1	0	0	0	CorrectOmission	0.516958	0.812343	0	0
90.829422	0.792051	city	2	1	0.744598	0.744598	0	1	0	0	CorrectCommission	0.406109	0.816157	0	0
91.621574	0.792261	city	5	1	0.745364	0.745364	0	1	0	0	CorrectCommission	0.415517	0.819790	0	0
92.413834	0.792263	city	3	1	0.695296	0.695296	0	1	0	0	CorrectCommission	0.199384	0.822367	0	0
93.206207	0.792484	city	8	1	0.608892	0.608892	0	1	0	0	CorrectCommission	1.260545	0.822953	0	0
93.998581	0.792264	city	7	1	0.596050	0.596050	0	1	0	0	CorrectCommission	1.418269	0.820725	0	0
94.790741	0.792047	city	9	1	0.596661	0.596661	0	1	0	0	CorrectCommission	1.410763	0.815190	0	0
95.582916	0.792307	city	3	1	0.596278	0.596278	0	1	0	0	CorrectCommission	1.415460	0.806302	0	0
96.375237	0.792332	city	2	1	0.696438	0.696438	0	1	0	0	CorrectCommission	0.185364	0.794557	0	0
97.167480	0.792163	city	5	1	0.744698	0.744698	0	1	0	0	CorrectCommission	0.407335	0.780949	0	0
97.959694	0.792259	city	1	1	0.844601	0.844601	0	1	0	0	CorrectCommission	1.634288	0.766752	0	0
98.752068	0.792482	city	3	1	0.744743	0.744743	0	1	0	0	CorrectCommission	0.407891	0.753308	0	0
99.544350	0.792082	city	1	1	0.695079	0.695079	0	1	0	0	CorrectCommission	0.202052	0.741835	0	0
100.336510	0.792234	city	5	1	0.652318	0.652318	0	1	0	0	CorrectCommission	0.727214	0.733065	0	0
101.128807	0.792369	city	4	1	0.659338	0.659338	0	1	0	0	CorrectCommission	0.640996	0.727116	0	0
101.921074	0.792163	city	2	1	0.706887	0.706887	0	1	0	0	CorrectCommission	0.057035	0.723463	0	0
102.713394	0.792474	city	6	1	0.744830	0.744830	0	1	0	0	CorrectCommission	0.408955	0.721032	0	0
103.505676	0.792088	city	7	1	0.646025	0.646025	0	1	0	0	CorrectCommission	0.804508	0.718356	0	0
104.297935	0.792443	mountain	7	1	0.596352	0.596352	0	0	1	0	CommissionError	1.414555	0.713909	1	0
105.090294	0.792263	city	7	1	0.596891	0.596891	0	1	0	0	CorrectCommission	1.407941	0.706418	1	0
105.882500	0.792156	city	6	1	0.645549	0.645549	0	1	0	0	CorrectCommission	0.810354	0.695127	1	0
106.674690	0.792220	city	9	1	0.646226	0.646226	0	1	0	0	CorrectCommission	0.802037	0.679970	1	0
107.466896	0.792202	mountain	1	0	0.000000	0.638874	1	0	0	0	CorrectOmission	0.892332	0.661577	1	0
108.259186	0.792372	city	1	1	0.651873	0.651873	0	1	0	0	CorrectCommission	0.732682	0.641166	1	0
109.051559	0.792376	city	10	1	0.713605	0.713605	0	1	0	0	CorrectCommission	0.025470	0.620324	1	0
109.843788	0.792073	city	6	1	0.695434	0.695434	0	1	0	0	CorrectCommission	0.197692	0.600768	1	0
110.635941	0.792244	city	10	1	0.695855	0.695855	0	1	0	0	CorrectCommission	0.192520	0.584022	1	0
111.428192	0.792257	city	1	1	0.794282	0.794282	0	1	0	0	CorrectCommission	1.016298	0.571280	1	0
112.220566	0.792484	city	2	1	0.762289	0.762289	0	1	0	0	CorrectCommission	0.623381	0.563232	1	0
113.012939	0.792264	city	8	1	0.704194	0.704194	0	1	0	0	CorrectCommission	0.090103	0.560124	1	0
113.805092	0.792046	city	3	1	0.744606	0.744606	0	1	0	0	CorrectCommission	0.406210	0.561776	1	0
114.597244	0.792265	city	7	1	0.794303	0.794303	0	1	0	0	CorrectCommission	1.016563	0.567680	1	0
115.389519	0.792284	city	2	1	0.705716	0.705716	0	1	0	0	CorrectCommission	0.071409	0.577111	1	0
116.181786	0.792248	city	1	1	0.759691	0.759691	0	1	0	0	CorrectCommission	0.591471	0.589312	1	0
116.974045	0.792267	city	8	1	0.798047	0.798047	0	1	0	0	CorrectCommission	1.062542	0.603499	1	0
117.766319	0.792282	city	7	1	0.645780	0.645780	0	1	0	0	CorrectCommission	0.807514	0.618897	1	0
118.558586	0.792243	city	5	1	0.695302	0.695302	0	1	0	0	CorrectCommission	0.199314	0.634739	1	0
119.350891	0.792376	city	1	1	0.645755	0.645755	0	1	0	0	CorrectCommission	0.807820	0.650217	1	0
120.143265	0.792374	city	9	1	0.646258	0.646258	0	1	0	0	CorrectCommission	0.801639	0.664379	1	0
120.935509	0.792112	city	6	1	0.696802	0.696802	0	1	0	0	CorrectCommission	0.180895	0.676118	1	0
121.727661	0.792199	city	7	1	0.663344	0.663344	0	1	0	0	CorrectCommission	0.591801	0.684203	1	0
122.519897	0.792265	city	1	1	0.645914	0.645914	0	1	0	0	CorrectCommission	0.805861	0.687359	1	0
123.312157	0.792263	city	9	1	0.645891	0.645891	0	1	0	0	CorrectCommission	0.806145	0.684436	1	0
124.104424	0.792271	city	1	1	0.645750	0.645750	0	1	0	0	CorrectCommission	0.807882	0.674634	1	0
124.896706	0.792281	city	6	1	0.596643	0.596643	0	1	0	0	CorrectCommission	1.410985	0.657715	1	0
125.689072	0.792461	city	9	1	0.645759	0.645759	0	1	0	0	CorrectCommission	0.807767	0.634129	1	0
126.481384	0.792155	city	10	1	0.596368	0.596368	0	1	0	0	CorrectCommission	1.414358	0.605125	1	0
127.273537	0.792156	city	8	1	0.706792	0.706792	0	1	0	0	CorrectCommission	0.058194	0.572617	1	1
128.065750	0.792266	city	4	1	0.645815	0.645815	0	1	0	0	CorrectCommission	0.807080	0.539047	1	1
128.858017	0.792265	city	6	1	0.712968	0.712968	0	1	0	0	CorrectCommission	0.017646	0.506991	1	1
129.650330	0.792372	city	10	1	0.707799	0.707799	0	1	0	0	CorrectCommission	0.045836	0.478889	1	1
130.442612	0.792183	city	2	1	0.695323	0.695323	0	1	0	0	CorrectCommission	0.199059	0.456660	1	1
131.234818	0.792241	mountain	4	0	0.000000	0.723368	1	0	0	0	CorrectOmission	0.145375	0.441437	1	1
132.027069	0.792264	city	9	1	0.745419	0.745419	0	1	0	0	CorrectCommission	0.416189	0.433412	1	1
132.819336	0.792263	mountain	1	0	0.000000	0.714959	1	0	0	0	CorrectOmission	0.042106	0.431855	1	1
133.611649	0.792375	city	5	1	0.695290	0.695290	0	1	0	0	CorrectCommission	0.199465	0.435237	1	1
134.403946	0.792190	mountain	1	0	0.000000	0.749709	1	0	0	0	CorrectOmission	0.468887	0.441470	1	1
135.196152	0.792230	city	2	1	0.794300	0.794300	0	1	0	0	CorrectCommission	1.016523	0.448256	1	1
135.988403	0.792264	city	9	1	0.745143	0.745143	0	1	0	0	CorrectCommission	0.412806	0.453440	1	1
136.780716	0.792374	city	7	1	0.658233	0.658233	0	1	0	0	CorrectCommission	0.654565	0.455329	1	1
137.572983	0.792156	city	5	1	0.607326	0.607326	0	1	0	0	CorrectCommission	1.279782	0.452922	1	1
138.365204	0.792285	city	6	1	0.695280	0.695280	0	1	0	0	CorrectCommission	0.199579	0.446039	1	1
139.157486	0.792291	city	7	1	0.695386	0.695386	0	1	0	0	CorrectCommission	0.198275	0.435361	1	1
139.949753	0.792220	city	10	1	0.645726	0.645726	0	1	0	0	CorrectCommission	0.808169	0.422241	1	1
140.741989	0.792264	city	2	1	0.745516	0.745516	0	1	0	0	CorrectCommission	0.417383	0.408501	1	1
141.534363	0.792479	city	10	1	0.695415	0.695415	0	1	0	0	CorrectCommission	0.197927	0.396190	1	1
142.326630	0.792052	city	2	1	0.695497	0.695497	0	1	0	0	CorrectCommission	0.196913	0.387245	1	1
143.118896	0.792479	city	7	1	0.701878	0.701878	0	1	0	0	CorrectCommission	0.118544	0.383211	1	1
143.911148	0.792049	city	5	1	0.695097	0.695097	0	1	0	0	CorrectCommission	0.201836	0.385066	1	1
144.703308	0.792263	city	10	1	0.695378	0.695378	0	1	0	0	CorrectCommission	0.198382	0.393096	1	1
145.495575	0.792266	city	9	1	0.695424	0.695424	0	1	0	0	CorrectCommission	0.197815	0.406864	1	1
146.287842	0.792263	city	10	1	0.696435	0.696435	0	1	0	0	CorrectCommission	0.185397	0.425385	1	1
147.080109	0.792266	city	1	1	0.695245	0.695245	0	1	0	0	CorrectCommission	0.200017	0.447286	1	1
147.872360	0.792261	city	2	1	0.646216	0.646216	0	1	0	0	CorrectCommission	0.802157	0.471090	1	1
148.664688	0.792376	city	1	1	0.659519	0.659519	0	1	0	0	CorrectCommission	0.638775	0.495464	1	1
149.456955	0.792168	city	3	1	0.647214	0.647214	0	1	0	0	CorrectCommission	0.789901	0.519476	1	1
150.249176	0.792262	city	8	1	0.612221	0.612221	0	1	0	0	CorrectCommission	1.219659	0.542708	1	1
151.041534	0.792472	city	1	1	0.645853	0.645853	0	1	0	0	CorrectCommission	0.806617	0.565240	1	1
151.833801	0.792046	city	2	1	0.695068	0.695068	0	1	0	0	CorrectCommission	0.202183	0.587559	1	1
152.625961	0.792269	city	7	1	0.745181	0.745181	0	1	0	0	CorrectCommission	0.413269	0.610286	1	1
153.418335	0.792479	city	10	1	0.695319	0.695319	0	1	0	0	CorrectCommission	0.199107	0.633928	1	1
154.210632	0.792111	city	4	1	0.753893	0.753893	0	1	0	0	CorrectCommission	0.520271	0.658627	1	1
155.002777	0.792202	city	7	1	0.745009	0.745009	0	1	0	0	CorrectCommission	0.411161	0.683969	1	1
155.795013	0.792265	city	8	1	0.695273	0.695273	0	1	0	0	CorrectCommission	0.199668	0.708996	1	1
156.587387	0.792480	city	2	1	0.794476	0.794476	0	1	0	0	CorrectCommission	1.018688	0.732283	0	1
157.379700	0.792155	city	1	1	0.845368	0.845368	0	1	0	0	CorrectCommission	1.643707	0.752101	0	1
158.171860	0.792155	city	9	1	0.698715	0.698715	0	1	0	0	CorrectCommission	0.157395	0.766735	0	1
158.964066	0.792267	city	3	1	0.554867	0.554867	0	1	0	0	CorrectCommission	1.924054	0.774799	0	1
159.756332	0.792265	mountain	9	0	0.000000	0.616626	1	0	0	0	CorrectOmission	1.165560	0.775347	0	1
160.548599	0.792263	city	4	1	0.695397	0.695397	0	1	0	0	CorrectCommission	0.198144	0.768112	0	1
161.340866	0.792272	city	9	1	0.602582	0.602582	0	1	0	0	CorrectCommission	1.338041	0.753501	0	1
162.133240	0.792476	city	1	1	0.650614	0.650614	0	1	0	0	CorrectCommission	0.748139	0.732431	0	1
162.925613	0.792264	city	4	1	0.645537	0.645537	0	1	0	0	CorrectCommission	0.810495	0.706257	1	1
163.717773	0.792051	city	9	1	0.695071	0.695071	0	1	0	0	CorrectCommission	0.202148	0.676542	1	1
164.510040	0.792479	city	5	1	0.695386	0.695386	0	1	0	0	CorrectCommission	0.198279	0.644907	1	1
165.302292	0.792047	city	10	1	0.645553	0.645553	0	1	0	0	CorrectCommission	0.810298	0.612865	1	1
166.094452	0.792268	mountain	1	1	0.655487	0.655487	0	0	1	0	CommissionError	0.688298	0.581751	1	1
166.886749	0.792331	city	5	1	0.614453	0.614453	0	1	0	0	CorrectCommission	1.192256	0.552706	1	1
167.679031	0.792216	city	7	1	0.695326	0.695326	0	1	0	0	CorrectCommission	0.199016	0.526663	1	1
168.471283	0.792305	city	3	1	0.745246	0.745246	0	1	0	0	CorrectCommission	0.414071	0.504424	1	1
169.263550	0.792204	city	1	1	0.708613	0.708613	0	1	0	0	CorrectCommission	0.035834	0.486617	1	1
170.055771	0.792265	city	9	1	0.696629	0.696629	0	1	0	0	CorrectCommission	0.183015	0.473753	1	1
170.848099	0.792374	city	4	1	0.744797	0.744797	0	1	0	0	CorrectCommission	0.408559	0.466210	1	1
171.640472	0.792373	city	7	1	0.794275	0.794275	0	1	0	0	CorrectCommission	1.016212	0.464251	1	1
172.432678	0.792050	city	9	1	0.744739	0.744739	0	1	0	0	CorrectCommission	0.407843	0.468009	1	1
173.224838	0.792264	city	7	1	0.695256	0.695256	0	1	0	0	CorrectCommission	0.199879	0.477510	1	1
174.017151	0.792371	city	8	1	0.695200	0.695200	0	1	0	0	CorrectCommission	0.200569	0.492638	1	1
174.809418	0.792155	city	6	1	0.695130	0.695130	0	1	0	0	CorrectCommission	0.201427	0.513113	1	1
175.601654	0.792321	city	4	1	0.695734	0.695734	0	1	0	0	CorrectCommission	0.194001	0.538536	1	1
176.393921	0.792209	city	1	1	0.609746	0.609746	0	1	0	0	CorrectCommission	1.250059	0.568320	1	1
177.186188	0.792324	mountain	4	0	0.000000	0.653786	1	0	0	0	CorrectOmission	0.709182	0.601717	1	1
177.978516	0.792317	mountain	6	0	0.000000	0.735823	1	0	0	0	CorrectOmission	0.298338	0.637882	1	1
178.770752	0.792155	city	6	1	0.763822	0.763822	0	1	0	0	CorrectCommission	0.642207	0.675806	1	1
179.563065	0.792482	city	5	1	0.645751	0.645751	0	1	0	0	CorrectCommission	0.807867	0.714344	0	1
180.355331	0.792053	city	2	1	0.645569	0.645569	0	1	0	0	CorrectCommission	0.810104	0.752244	0	1
181.147491	0.792260	city	8	1	0.657509	0.657509	0	1	0	0	CorrectCommission	0.663466	0.788188	0	1
181.939789	0.792333	city	1	1	0.695301	0.695301	0	1	0	0	CorrectCommission	0.199329	0.820838	0	1
182.732056	0.792197	city	9	1	0.645604	0.645604	0	1	0	0	CorrectCommission	0.809667	0.848941	0	1
183.524307	0.792321	city	10	1	0.553288	0.553288	0	1	0	0	CorrectCommission	1.943437	0.871418	0	1
184.316620	0.792315	city	4	1	0.607671	0.607671	0	1	0	0	CorrectCommission	1.275541	0.887454	0	1
185.108917	0.792265	city	6	1	0.596404	0.596404	0	1	0	0	CorrectCommission	1.413916	0.896655	0	1
185.901123	0.792157	city	9	1	0.654825	0.654825	0	1	0	0	CorrectCommission	0.696428	0.898989	0	1
186.693344	0.792280	city	6	1	0.645723	0.645723	0	1	0	0	CorrectCommission	0.808206	0.894803	0	0
187.485718	0.792466	city	1	1	0.655111	0.655111	0	1	0	0	CorrectCommission	0.692914	0.884718	0	0
188.277969	0.792050	city	10	1	0.695068	0.695068	0	1	0	0	CorrectCommission	0.202180	0.869610	0	0
189.070129	0.792264	city	6	1	0.805687	0.805687	0	1	0	0	CorrectCommission	1.156365	0.850531	0	0
189.862427	0.792309	city	5	1	0.614058	0.614058	0	1	0	0	CorrectCommission	1.197097	0.828625	0	0
190.654678	0.792222	city	6	1	0.596628	0.596628	0	1	0	0	CorrectCommission	1.411173	0.805163	0	0
191.447037	0.792478	city	7	1	0.645894	0.645894	0	1	0	0	CorrectCommission	0.806112	0.781445	0	0
192.239334	0.792114	mountain	6	0	0.000000	0.656720	1	0	0	0	CorrectOmission	0.673151	0.758790	0	0
193.031540	0.792306	city	9	1	0.662140	0.662140	0	1	0	0	CorrectCommission	0.606586	0.738418	0	0
193.823822	0.792242	city	8	1	0.695188	0.695188	0	1	0	0	CorrectCommission	0.200717	0.721301	0	0
194.616028	0.792178	city	5	1	0.695248	0.695248	0	1	0	0	CorrectCommission	0.199973	0.708128	1	0
195.408310	0.792374	city	10	1	0.652412	0.652412	0	1	0	0	CorrectCommission	0.726062	0.699216	1	0
196.200562	0.792158	city	1	1	0.794546	0.794546	0	1	0	0	CorrectCommission	1.019545	0.694450	1	0
196.992828	0.792372	mountain	10	0	0.000000	0.742841	1	0	0	0	CorrectOmission	0.384531	0.693377	1	0
197.785095	0.792157	city	3	1	0.646001	0.646001	0	1	0	0	CorrectCommission	0.804800	0.695291	1	0
198.577301	0.792263	city	4	1	0.652731	0.652731	0	1	0	0	CorrectCommission	0.722142	0.699331	1	0
199.369568	0.792267	city	10	1	0.744965	0.744965	0	1	0	0	CorrectCommission	0.410618	0.704640	1	0
200.161835	0.792268	mountain	7	1	0.803890	0.803890	0	0	1	0	CommissionError	1.134296	0.710482	1	0
200.954102	0.792261	mountain	1	0	0.000000	0.805819	1	0	0	0	CorrectOmission	1.157991	0.716218	0	0
201.746368	0.792264	mountain	2	0	0.000000	0.768384	1	0	0	0	CorrectOmission	0.698235	0.721409	0	0
202.538651	0.792290	mountain	10	0	0.000000	0.709215	1	0	0	0	CorrectOmission	0.028443	0.725780	0	0
203.330917	0.792267	city	3	1	0.645943	0.645943	0	1	0	0	CorrectCommission	0.805512	0.729156	0	0
204.123184	0.792244	city	8	1	0.596199	0.596199	0	1	0	0	CorrectCommission	1.416441	0.731413	0	0
204.915436	0.792260	city	10	1	0.697931	0.697931	0	1	0	0	CorrectCommission	0.167026	0.732498	0	0
205.707718	0.792317	city	9	1	0.649640	0.649640	0	1	0	0	CorrectCommission	0.760100	0.732426	0	0
206.500031	0.792318	city	7	1	0.699054	0.699054	0	1	0	0	CorrectCommission	0.153237	0.731274	0	0
207.292328	0.792264	city	10	0	0.000000	0.804830	0	0	0	1	OmissionError	1.145843	0.729393	0	0
208.084534	0.792147	mountain	9	1	0.844426	0.844426	0	0	1	0	CommissionError	1.632134	0.727439	0	0
208.876801	0.792382	city	1	1	0.695297	0.695297	0	1	0	0	CorrectCommission	0.199372	0.726501	0	0
209.669174	0.792375	city	4	1	0.646098	0.646098	0	1	0	0	CorrectCommission	0.803607	0.728125	0	0
210.461395	0.792048	city	5	1	0.595983	0.595983	0	1	0	0	CorrectCommission	1.419090	0.734127	0	0
211.253555	0.792283	city	9	1	0.695381	0.695381	0	1	0	0	CorrectCommission	0.198343	0.746427	0	0
212.045822	0.792244	city	3	1	0.758378	0.758378	0	1	0	0	CorrectCommission	0.575354	0.766763	0	0
212.838089	0.792298	city	7	1	0.712851	0.712851	0	1	0	0	CorrectCommission	0.016208	0.796268	0	0
213.630356	0.792231	city	1	1	0.695387	0.695387	0	1	0	0	CorrectCommission	0.198268	0.835170	0	0
214.422714	0.792483	city	10	1	0.746465	0.746465	0	1	0	0	CorrectCommission	0.429035	0.882519	0	0
215.214981	0.792048	city	8	1	0.893142	0.893142	0	1	0	0	CorrectCommission	2.230440	0.936051	0	0
216.007141	0.792268	city	5	1	0.759971	0.759971	0	1	0	0	CorrectCommission	0.594913	0.992215	0	0
216.799408	0.792275	city	4	1	0.695482	0.695482	0	1	0	0	CorrectCommission	0.197098	1.046542	0	0
217.591675	0.792250	city	2	1	0.645773	0.645773	0	1	0	0	CorrectCommission	0.807593	1.093968	0	0
218.383926	0.792272	city	5	1	0.695263	0.695263	0	1	0	0	CorrectCommission	0.199787	1.129472	0	0
219.176193	0.792259	city	4	1	0.893970	0.893970	0	1	0	0	CorrectCommission	2.240604	1.148796	0	0
219.968567	0.792482	city	1	1	1.091545	1.091545	0	1	0	0	CorrectCommission	4.667103	1.148978	0	0
220.760849	0.792100	city	7	1	0.899922	0.899922	0	1	0	0	CorrectCommission	2.313706	1.128869	0	0
221.553116	0.792428	city	6	1	0.695282	0.695282	0	1	0	0	CorrectCommission	0.199563	1.089459	0	0
222.345352	0.792045	city	2	1	0.794085	0.794085	0	1	0	0	CorrectCommission	1.013887	1.033773	0	0
223.137512	0.792270	city	7	1	0.794327	0.794327	0	1	0	0	CorrectCommission	1.016849	0.966475	0	0
223.929779	0.792260	mountain	9	0	0.000000	0.777858	1	0	0	0	CorrectOmission	0.814589	0.893412	0	0
224.722092	0.792375	city	9	1	0.744805	0.744805	0	1	0	0	CorrectCommission	0.408658	0.820912	0	0
225.514359	0.792157	city	2	1	0.695296	0.695296	0	1	0	0	CorrectCommission	0.199390	0.755118	0	0
226.306580	0.792262	city	5	1	0.695328	0.695328	0	1	0	0	CorrectCommission	0.198989	0.701422	1	0
227.098831	0.792265	city	10	1	0.695304	0.695304	0	1	0	0	CorrectCommission	0.199291	0.663974	1	0
227.891205	0.792483	city	1	1	0.745746	0.745746	0	1	0	0	CorrectCommission	0.420205	0.645404	1	0
228.683472	0.792050	city	4	1	0.745229	0.745229	0	1	0	0	CorrectCommission	0.413856	0.646733	1	0
229.475632	0.792264	city	3	1	0.744801	0.744801	0	1	0	0	CorrectCommission	0.408603	0.667331	1	0
230.267899	0.792265	city	5	1	0.753520	0.753520	0	1	0	0	CorrectCommission	0.515684	0.705070	1	0
231.060165	0.792266	city	10	1	0.699405	0.699405	0	1	0	0	CorrectCommission	0.148925	0.756518	0	0
231.852478	0.792369	city	2	1	0.646042	0.646042	0	1	0	0	CorrectCommission	0.804289	0.817233	0	0
232.644760	0.792199	city	1	1	0.704579	0.704579	0	1	0	0	CorrectCommission	0.085375	0.882078	0	0
233.436996	0.792265	city	10	1	0.795388	0.795388	0	1	0	0	CorrectCommission	1.029885	0.945716	0	0
234.229248	0.792234	city	1	1	0.893419	0.893419	0	1	0	0	CorrectCommission	2.233844	1.002980	0	0
235.021515	0.792310	city	2	1	0.844435	0.844435	0	1	0	0	CorrectCommission	1.632253	1.049383	0	0
235.813889	0.792424	city	7	1	0.843811	0.843811	0	1	0	0	CorrectCommission	1.624587	1.081523	0	0
236.606232	0.792264	city	5	1	0.798789	0.798789	0	1	0	0	CorrectCommission	1.071651	1.097336	0	0
237.398392	0.792050	mountain	2	0	0.000000	0.813823	1	0	0	0	CorrectOmission	1.256290	1.096367	0	0
238.190552	0.792263	city	8	1	0.843941	0.843941	0	1	0	0	CorrectCommission	1.626184	1.079921	0	0
238.982864	0.792373	city	3	1	0.844171	0.844171	0	1	0	0	CorrectCommission	1.629013	1.050957	0	0
239.775177	0.792264	city	9	1	0.800450	0.800450	0	1	0	0	CorrectCommission	1.092056	1.013878	0	0
240.567398	0.792160	city	2	1	0.807364	0.807364	0	1	0	0	CorrectCommission	1.176963	0.974131	0	0
241.359604	0.792262	city	6	1	0.794384	0.794384	0	1	0	0	CorrectCommission	1.017547	0.937692	0	0
242.151871	0.792266	city	10	1	0.708854	0.708854	0	1	0	0	CorrectCommission	0.032871	0.910439	0	0
242.944138	0.792263	mountain	9	1	0.708724	0.708724	0	0	1	0	CommissionError	0.034469	0.897487	0	0
243.736404	0.792267	city	8	1	0.647391	0.647391	0	1	0	0	CorrectCommission	0.787726	0.902502	0	0
244.528671	0.792268	city	7	1	0.695278	0.695278	0	1	0	0	CorrectCommission	0.199604	0.927171	0	0
245.320923	0.792264	city	4	1	0.757748	0.757748	0	1	0	0	CorrectCommission	0.567611	0.970872	0	0
246.113190	0.792266	city	9	1	0.794449	0.794449	0	1	0	0	CorrectCommission	1.018347	1.030531	0	1
246.905487	0.792318	city	10	1	0.707490	0.707490	0	1	0	0	CorrectCommission	0.049625	1.100823	0	1
247.697861	0.792424	city	7	1	0.747315	0.747315	0	1	0	0	CorrectCommission	0.439485	1.174707	0	1
248.490204	0.792265	city	9	1	0.745009	0.745009	0	1	0	0	CorrectCommission	0.411155	1.244152	0	1
249.282394	0.792126	city	6	1	0.794112	0.794112	0	1	0	0	CorrectCommission	1.014209	1.301141	0	1
250.074615	0.792294	city	1	1	1.142587	1.142587	0	1	0	0	CorrectCommission	5.293972	1.338662	0	1
250.866837	0.792156	city	7	1	1.057802	1.057802	0	1	0	0	CorrectCommission	4.252690	1.351540	0	1
251.659149	0.792480	mountain	3	0	0.000000	0.804269	1	0	0	0	CorrectOmission	1.138953	1.337219	0	1
252.451431	0.792080	city	10	1	0.657557	0.657557	0	1	0	0	CorrectCommission	0.662869	1.295986	0	1
253.243591	0.792235	city	8	1	0.893236	0.893236	0	1	0	0	CorrectCommission	2.231593	1.230718	0	1
254.035843	0.792264	city	5	1	0.763238	0.763238	0	1	0	0	CorrectCommission	0.635040	1.146418	0	1
254.828110	0.792261	city	4	1	0.794405	0.794405	0	1	0	0	CorrectCommission	1.017807	1.049567	0	1
255.620377	0.792291	city	3	1	0.695377	0.695377	0	1	0	0	CorrectCommission	0.198397	0.947159	0	1
256.412659	0.792243	city	5	1	0.658316	0.658316	0	1	0	0	CorrectCommission	0.653556	0.846005	0	1
257.205017	0.792477	mountain	5	0	0.000000	0.658732	1	0	0	0	CorrectOmission	0.648447	0.752036	0	1
257.997284	0.792072	mountain	4	0	0.000000	0.677648	1	0	0	0	CorrectOmission	0.416128	0.669870	1	1
258.789551	0.792459	city	5	1	0.696088	0.696088	0	1	0	0	CorrectCommission	0.189656	0.602581	1	1
259.581787	0.792050	city	8	1	0.695076	0.695076	0	1	0	0	CorrectCommission	0.202091	0.551688	1	1
260.373962	0.792265	city	3	1	0.695583	0.695583	0	1	0	0	CorrectCommission	0.195857	0.517279	1	1
261.166229	0.792260	mountain	9	1	0.695292	0.695292	0	0	1	0	CommissionError	0.199431	0.498261	1	1
261.958496	0.792291	city	10	1	0.695425	0.695425	0	1	0	0	CorrectCommission	0.197802	0.492714	1	1
262.750763	0.792263	city	2	1	0.744757	0.744757	0	1	0	0	CorrectCommission	0.408058	0.498217	1	1
263.543030	0.792250	city	10	1	0.695304	0.695304	0	1	0	0	CorrectCommission	0.199286	0.512169	1	1
264.335297	0.792264	city	4	1	0.812473	0.812473	0	1	0	0	CorrectCommission	1.239706	0.532113	1	1
265.127594	0.792363	city	6	1	0.748274	0.748274	0	1	0	0	CorrectCommission	0.451264	0.555810	1	1
265.919891	0.792195	city	8	1	0.794727	0.794727	0	1	0	0	CorrectCommission	1.021762	0.581423	1	1
266.712189	0.792445	city	1	1	0.646655	0.646655	0	1	0	0	CorrectCommission	0.796765	0.607443	1	1
267.504456	0.792050	city	5	1	0.645538	0.645538	0	1	0	0	CorrectCommission	0.810484	0.632573	1	1
268.296600	0.792262	city	10	1	0.710388	0.710388	0	1	0	0	CorrectCommission	0.014034	0.655645	1	1
269.088867	0.792268	city	8	1	0.699088	0.699088	0	1	0	0	CorrectCommission	0.152811	0.675584	1	1
269.881195	0.792370	city	7	1	0.660574	0.660574	0	1	0	0	CorrectCommission	0.625826	0.691298	1	1
270.673462	0.792156	mountain	6	0	0.000000	0.721827	1	0	0	0	CorrectOmission	0.126457	0.701735	1	1
271.465668	0.792301	mountain	1	0	0.000000	0.816910	1	0	0	0	CorrectOmission	1.294209	0.706107	1	1
272.257965	0.792289	mountain	8	0	0.000000	0.879883	1	0	0	0	CorrectOmission	2.067605	0.703987	1	1
273.050232	0.792203	city	2	1	0.844807	0.844807	0	1	0	0	CorrectCommission	1.636816	0.695493	1	1
273.842468	0.792267	city	8	1	0.645742	0.645742	0	1	0	0	CorrectCommission	0.807984	0.681401	1	1
274.634735	0.792275	city	7	1	0.695264	0.695264	0	1	0	0	CorrectCommission	0.199775	0.663097	1	1
275.427002	0.792294	city	2	1	0.708285	0.708285	0	1	0	0	CorrectCommission	0.039863	0.642429	1	1
276.219269	0.792229	mountain	1	0	0.000000	0.728837	1	0	0	0	CorrectOmission	0.212547	0.621487	1	1
277.011505	0.792261	city	4	1	0.745021	0.745021	0	1	0	0	CorrectCommission	0.411311	0.602366	1	1
277.803772	0.792268	city	2	1	0.744938	0.744938	0	1	0	0	CorrectCommission	0.410284	0.586977	1	1
278.596039	0.792269	city	6	1	0.744925	0.744925	0	1	0	0	CorrectCommission	0.410128	0.576897	1	1
279.388306	0.792259	city	10	1	0.843843	0.843843	0	1	0	0	CorrectCommission	1.624979	0.573290	1	1
280.180695	0.792480	city	9	1	0.714892	0.714892	0	1	0	0	CorrectCommission	0.041285	0.576815	1	1
280.972961	0.792062	city	10	1	0.695621	0.695621	0	1	0	0	CorrectCommission	0.195392	0.587711	1	1
281.765106	0.792248	city	1	1	0.654951	0.654951	0	1	0	0	CorrectCommission	0.694880	0.605656	1	1
282.557373	0.792265	city	8	1	0.655127	0.655127	0	1	0	0	CorrectCommission	0.692716	0.629820	1	1
283.349640	0.792266	city	5	1	0.695310	0.695310	0	1	0	0	CorrectCommission	0.199212	0.658849	1	1
284.141937	0.792372	city	8	1	0.746346	0.746346	0	1	0	0	CorrectCommission	0.427574	0.690903	1	1
284.934265	0.792265	city	2	1	0.695134	0.695134	0	1	0	0	CorrectCommission	0.201378	0.723729	0	1
285.726471	0.792159	city	4	1	0.655262	0.655262	0	1	0	0	CorrectCommission	0.691061	0.754858	0	1
286.518707	0.792306	city	5	1	0.596263	0.596263	0	1	0	0	CorrectCommission	1.415644	0.781798	0	1
287.310974	0.792224	city	3	1	0.549236	0.549236	0	1	0	0	CorrectCommission	1.993207	0.802288	0	1
288.103210	0.792264	city	2	1	0.745140	0.745140	0	1	0	0	CorrectCommission	0.412773	0.814563	0	1
288.895538	0.792373	city	1	1	0.645767	0.645767	0	1	0	0	CorrectCommission	0.807665	0.817570	0	1
289.687927	0.792373	city	4	1	0.596895	0.596895	0	1	0	0	CorrectCommission	1.407894	0.811004	0	1
290.480225	0.792264	city	8	1	0.596517	0.596517	0	1	0	0	CorrectCommission	1.412526	0.795371	0	1
291.272430	0.792159	city	3	1	0.645603	0.645603	0	1	0	0	CorrectCommission	0.809681	0.771891	0	1
292.064606	0.792152	city	10	1	0.695185	0.695185	0	1	0	0	CorrectCommission	0.200743	0.742376	0	1
292.856812	0.792268	city	2	1	0.748719	0.748719	0	1	0	0	CorrectCommission	0.456718	0.709000	1	1
293.649078	0.792265	city	9	1	0.744940	0.744940	0	1	0	0	CorrectCommission	0.410307	0.674067	1	1
294.441437	0.792479	city	2	1	0.610850	0.610850	0	1	0	0	CorrectCommission	1.236496	0.639858	1	1
295.233734	0.792090	city	7	1	0.744621	0.744621	0	1	0	0	CorrectCommission	0.406390	0.608482	1	1
296.025879	0.792224	city	5	1	0.763044	0.763044	0	1	0	0	CorrectCommission	0.632659	0.581826	1	1
296.818237	0.792482	city	10	1	0.706649	0.706649	0	1	0	0	CorrectCommission	0.059957	0.561391	1	1
297.610565	0.792155	mountain	1	0	0.000000	0.661186	1	0	0	0	CorrectOmission	0.618300	0.548302	1	1
298.402710	0.792158	city	8	1	0.650304	0.650304	0	1	0	0	CorrectCommission	0.751953	0.543200	1	1
299.195038	0.792481	city	6	1	0.697649	0.697649	0	1	0	0	CorrectCommission	0.170494	0.546195	1	1
299.987305	0.792046	city	3	1	0.700319	0.700319	0	1	0	0	CorrectCommission	0.137699	0.556842	1	1
300.779480	0.792289	city	4	1	0.713339	0.713339	0	1	0	0	CorrectCommission	0.022210	0.574110	1	1
301.571747	0.792281	city	7	1	0.657655	0.657655	0	1	0	0	CorrectCommission	0.661667	0.596428	1	1
302.364014	0.792228	city	10	1	0.645727	0.645727	0	1	0	0	CorrectCommission	0.808158	0.621768	1	1
303.156281	0.792339	city	6	1	0.648301	0.648301	0	1	0	0	CorrectCommission	0.776553	0.647808	1	1
303.948608	0.792295	city	4	1	0.648373	0.648373	0	1	0	0	CorrectCommission	0.775670	0.672148	1	1
304.740875	0.792265	city	2	1	0.645652	0.645652	0	1	0	0	CorrectCommission	0.809081	0.692524	1	1
305.533112	0.792186	city	6	1	0.794530	0.794530	0	1	0	0	CorrectCommission	1.019350	0.707076	1	0
306.325317	0.792238	city	1	1	0.712672	0.712672	0	1	0	0	CorrectCommission	0.014017	0.714516	0	0
307.117584	0.792262	mountain	9	0	0.000000	0.599350	1	0	0	0	CorrectOmission	1.377737	0.714310	0	0
307.909943	0.792482	city	3	1	0.546630	0.546630	0	1	0	0	CorrectCommission	2.025211	0.706649	1	0
308.702209	0.792048	city	6	1	0.646579	0.646579	0	1	0	0	CorrectCommission	0.797701	0.692484	1	0
309.494354	0.792268	city	7	1	0.702172	0.702172	0	1	0	0	CorrectCommission	0.114945	0.673386	1	0
310.286652	0.792298	city	5	1	0.696350	0.696350	0	1	0	0	CorrectCommission	0.186435	0.651265	1	0
311.079010	0.792444	city	3	1	0.645745	0.645745	0	1	0	0	CorrectCommission	0.807939	0.628112	1	0
311.871338	0.792158	city	9	1	0.646197	0.646197	0	1	0	0	CorrectCommission	0.802385	0.605726	1	0
312.663544	0.792265	mountain	5	0	0.000000	0.703962	1	0	0	0	CorrectOmission	0.092952	0.585512	1	0
313.455750	0.792155	city	3	1	0.745242	0.745242	0	1	0	0	CorrectCommission	0.414022	0.568353	1	0
314.248077	0.792482	city	10	1	0.696239	0.696239	0	1	0	0	CorrectCommission	0.187804	0.554545	1	0
315.040314	0.792046	city	5	1	0.744886	0.744886	0	1	0	0	CorrectCommission	0.409651	0.543889	1	0
315.832489	0.792266	city	9	1	0.756485	0.756485	0	1	0	0	CorrectCommission	0.552097	0.535822	1	0
316.624847	0.792482	city	2	1	0.798329	0.798329	0	1	0	0	CorrectCommission	1.066000	0.529631	1	0
317.417236	0.792265	city	1	1	0.794244	0.794244	0	1	0	0	CorrectCommission	1.015830	0.524625	1	0
318.209381	0.792050	city	4	1	0.695708	0.695708	0	1	0	0	CorrectCommission	0.194320	0.520331	1	0
319.001556	0.792265	city	8	1	0.747407	0.747407	0	1	0	0	CorrectCommission	0.440614	0.516554	1	0
319.793915	0.792479	city	3	1	0.659781	0.659781	0	1	0	0	CorrectCommission	0.635554	0.513388	1	0
320.586212	0.792098	mountain	8	0	0.000000	0.673583	1	0	0	0	CorrectOmission	0.466057	0.511181	1	0
321.378357	0.792215	city	7	0	0.000000	0.725976	0	0	0	1	OmissionError	0.177404	0.510438	1	0
322.170715	0.792482	city	2	1	0.754126	0.754126	0	1	0	0	CorrectCommission	0.523127	0.511673	1	0
322.963043	0.792156	city	8	1	0.695198	0.695198	0	1	0	0	CorrectCommission	0.200590	0.515304	1	0
323.755249	0.792265	city	10	1	0.645577	0.645577	0	1	0	0	CorrectCommission	0.810000	0.521612	1	0
324.547546	0.792373	city	9	1	0.760551	0.760551	0	1	0	0	CorrectCommission	0.602038	0.530618	1	0
325.339783	0.792051	city	10	1	0.744615	0.744615	0	1	0	0	CorrectCommission	0.406318	0.542116	1	0
326.131927	0.792262	city	3	1	0.745455	0.745455	0	1	0	0	CorrectCommission	0.416636	0.555725	1	0
326.924194	0.792265	city	1	1	0.645779	0.645779	0	1	0	0	CorrectCommission	0.807524	0.570930	1	0
327.716461	0.792267	city	7	1	0.704609	0.704609	0	1	0	0	CorrectCommission	0.085006	0.587169	1	0
328.508728	0.792284	mountain	2	0	0.000000	0.749024	1	0	0	0	CorrectOmission	0.460466	0.603977	1	0
329.301056	0.792351	mountain	6	0	0.000000	0.778921	1	0	0	0	CorrectOmission	0.827642	0.621010	1	0
330.093292	0.792154	city	2	1	0.794198	0.794198	0	1	0	0	CorrectCommission	1.015272	0.638196	1	0
330.885498	0.792267	city	6	1	0.794755	0.794755	0	1	0	0	CorrectCommission	1.022108	0.655803	1	0
331.677826	0.792373	city	8	1	0.649906	0.649906	0	1	0	0	CorrectCommission	0.756840	0.674460	1	0
332.470123	0.792194	mountain	6	1	0.744793	0.744793	0	0	1	0	CommissionError	0.408503	0.695058	1	0
333.262329	0.792231	city	5	1	0.645902	0.645902	0	1	0	0	CorrectCommission	0.806016	0.718665	0	0
334.054565	0.792260	city	7	1	0.712551	0.712551	0	1	0	0	CorrectCommission	0.012532	0.746422	0	0
334.846954	0.792483	city	3	1	0.749449	0.749449	0	1	0	0	CorrectCommission	0.465693	0.779440	0	0
335.639221	0.792080	city	9	1	0.794281	0.794281	0	1	0	0	CorrectCommission	1.016293	0.818600	0	0
336.431488	0.792448	city	10	1	0.805832	0.805832	0	1	0	0	CorrectCommission	1.158147	0.864486	0	0
337.223724	0.792047	city	4	1	0.695826	0.695826	0	1	0	0	CorrectCommission	0.192879	0.917309	0	0
338.015900	0.792270	city	6	1	0.794542	0.794542	0	1	0	0	CorrectCommission	1.019499	0.976828	0	0
338.808167	0.792261	city	9	1	0.844583	0.844583	0	1	0	0	CorrectCommission	1.634071	1.042226	0	0
339.600433	0.792264	mountain	2	0	0.000000	0.796399	1	0	0	0	CorrectOmission	1.042295	1.112066	0	0
340.392700	0.792281	city	5	1	0.747310	0.747310	0	1	0	0	CorrectCommission	0.439414	1.184282	0	0
341.185028	0.792358	city	8	1	0.794638	0.794638	0	1	0	0	CorrectCommission	1.020675	1.256126	0	0
341.977264	0.792156	city	4	1	0.794557	0.794557	0	1	0	0	CorrectCommission	1.019673	1.324255	0	0
342.769501	0.792316	city	3	1	0.843800	0.843800	0	1	0	0	CorrectCommission	1.624454	1.384933	0	0
343.561768	0.792212	city	8	1	0.943097	0.943097	0	1	0	0	CorrectCommission	2.843962	1.434291	0	0
344.354004	0.792269	city	3	1	0.795351	0.795351	0	1	0	0	CorrectCommission	1.029434	1.468661	0	0
345.146271	0.792263	mountain	5	1	0.747782	0.747782	0	0	1	0	CommissionError	0.445211	1.485104	0	0
345.938538	0.792268	mountain	8	0	0.000000	0.922201	1	0	0	0	CorrectOmission	2.587323	1.481680	0	0
346.730804	0.792258	city	3	1	1.057672	1.057672	0	1	0	0	CorrectCommission	4.251097	1.457720	0	0
347.523071	0.792271	city	9	1	0.893258	0.893258	0	1	0	0	CorrectCommission	2.231862	1.414071	0	0
348.315338	0.792263	city	1	1	0.713552	0.713552	0	1	0	0	CorrectCommission	0.024826	1.353103	0	0
349.107605	0.792260	mountain	10	0	0.000000	0.805870	1	0	0	0	CorrectOmission	1.158623	1.278490	0	0
349.899872	0.792268	city	6	1	0.893339	0.893339	0	1	0	0	CorrectCommission	2.232854	1.194746	0	0
350.692230	0.792479	city	1	1	0.699083	0.699083	0	1	0	0	CorrectCommission	0.152877	1.106897	0	0
351.484497	0.792049	city	5	1	0.695085	0.695085	0	1	0	0	CorrectCommission	0.201981	1.020049	0	0
352.276764	0.792480	city	6	1	0.795017	0.795017	0	1	0	0	CorrectCommission	1.025333	0.938904	0	0
353.069153	0.792267	city	8	1	0.645628	0.645628	0	1	0	0	CorrectCommission	0.809381	0.867421	0	0
353.861328	0.792109	city	1	1	0.655178	0.655178	0	1	0	0	CorrectCommission	0.692091	0.808642	0	0
354.653473	0.792201	city	5	1	0.655195	0.655195	0	1	0	0	CorrectCommission	0.691888	0.764552	0	0
355.445770	0.792376	city	4	1	0.654938	0.654938	0	1	0	0	CorrectCommission	0.695037	0.736001	0	0
356.238068	0.792219	city	7	1	0.706262	0.706262	0	1	0	0	CorrectCommission	0.064706	0.722683	0	0
357.030273	0.792206	city	9	1	0.702070	0.702070	0	1	0	0	CorrectCommission	0.116190	0.723253	0	0
357.822540	0.792279	city	2	1	0.695642	0.695642	0	1	0	0	CorrectCommission	0.195139	0.735409	0	0
358.614777	0.792247	city	10	1	0.661475	0.661475	0	1	0	0	CorrectCommission	0.614758	0.756110	0	0
359.407074	0.792333	city	6	1	0.753465	0.753465	0	1	0	0	CorrectCommission	0.515005	0.781863	0	0
360.199371	0.792237	city	7	1	0.847714	0.847714	0	1	0	0	CorrectCommission	1.672525	0.809060	0	0
360.991608	0.792224	city	6	1	0.844089	0.844089	0	1	0	0	CorrectCommission	1.627995	0.834280	0	0
361.783844	0.792267	city	9	1	0.663302	0.663302	0	1	0	0	CorrectCommission	0.592321	0.854693	0	0
362.576202	0.792480	city	2	1	0.613803	0.613803	0	1	0	0	CorrectCommission	1.200230	0.868296	0	0
363.368530	0.792156	mountain	8	0	0.000000	0.755883	1	0	0	0	CorrectOmission	0.544710	0.873976	0	0
364.160736	0.792263	city	4	1	0.859906	0.859906	0	1	0	0	CorrectCommission	1.822257	0.871576	0	0
364.952942	0.792161	city	8	1	0.696237	0.696237	0	1	0	0	CorrectCommission	0.187833	0.861794	0	1
365.745178	0.792265	city	1	1	0.854490	0.854490	0	1	0	0	CorrectCommission	1.755738	0.846084	0	1
366.537415	0.792260	city	6	1	0.756581	0.756581	0	1	0	0	CorrectCommission	0.553276	0.826216	0	1
367.329681	0.792266	city	10	1	0.596778	0.596778	0	1	0	0	CorrectCommission	1.409319	0.804085	0	1
368.121948	0.792263	city	1	1	0.702869	0.702869	0	1	0	0	CorrectCommission	0.106380	0.781391	0	1
368.914337	0.792482	mountain	6	0	0.000000	0.706725	1	0	0	0	CorrectOmission	0.059017	0.759462	0	1
369.706604	0.792053	city	5	1	0.706739	0.706739	0	1	0	0	CorrectCommission	0.058854	0.739071	0	1
370.498810	0.792368	city	7	1	0.801300	0.801300	0	1	0	0	CorrectCommission	1.102486	0.720451	0	1
371.291107	0.792265	city	4	1	0.656894	0.656894	0	1	0	0	CorrectCommission	0.671021	0.703396	1	1
372.083344	0.792165	city	3	1	0.605058	0.605058	0	1	0	0	CorrectCommission	1.307636	0.687476	1	1
372.875671	0.792474	city	9	1	0.645678	0.645678	0	1	0	0	CorrectCommission	0.808767	0.672207	1	1
373.667908	0.792045	city	2	1	0.648054	0.648054	0	1	0	0	CorrectCommission	0.779588	0.657260	1	1
374.460083	0.792269	city	6	1	0.794319	0.794319	0	1	0	0	CorrectCommission	1.016758	0.642528	1	1
375.252380	0.792369	city	1	1	0.745125	0.745125	0	1	0	0	CorrectCommission	0.412584	0.628129	1	1
376.044769	0.792375	city	2	1	0.744715	0.744715	0	1	0	0	CorrectCommission	0.407547	0.614331	1	1
376.836975	0.792052	city	8	1	0.695355	0.695355	0	1	0	0	CorrectCommission	0.198660	0.601417	1	1
377.629181	0.792370	city	7	1	0.745720	0.745720	0	1	0	0	CorrectCommission	0.419891	0.589557	1	1
378.421509	0.792263	city	1	1	0.751268	0.751268	0	1	0	0	CorrectCommission	0.488026	0.578727	1	1
379.213715	0.792156	city	9	1	0.701898	0.701898	0	1	0	0	CorrectCommission	0.118308	0.568726	1	1
380.005920	0.792266	city	3	1	0.645829	0.645829	0	1	0	0	CorrectCommission	0.806914	0.559207	1	1
380.798187	0.792263	city	2	1	0.608894	0.608894	0	1	0	0	CorrectCommission	1.260526	0.549782	1	1
381.590454	0.792266	city	9	1	0.796197	0.796197	0	1	0	0	CorrectCommission	1.039815	0.540122	1	1
382.382721	0.792269	city	3	1	0.745287	0.745287	0	1	0	0	CorrectCommission	0.414577	0.530085	1	1
383.175049	0.792369	city	5	1	0.695297	0.695297	0	1	0	0	CorrectCommission	0.199375	0.519684	1	1
383.967316	0.792159	city	4	1	0.697111	0.697111	0	1	0	0	CorrectCommission	0.177091	0.509098	1	1
384.759521	0.792263	city	10	1	0.646242	0.646242	0	1	0	0	CorrectCommission	0.801832	0.498560	1	1
385.551788	0.792281	mountain	3	0	0.000000	0.693793	1	0	0	0	CorrectOmission	0.217844	0.488304	1	1
386.344086	0.792305	city	4	1	0.745272	0.745272	0	1	0	0	CorrectCommission	0.414383	0.478502	1	1
387.136353	0.792214	mountain	2	0	0.000000	0.706186	1	0	0	0	CorrectOmission	0.065643	0.469220	1	1
387.928589	0.792260	city	3	1	0.652241	0.652241	0	1	0	0	CorrectCommission	0.728167	0.460447	1	1
388.720825	0.792266	city	5	1	0.659140	0.659140	0	1	0	0	CorrectCommission	0.643431	0.452157	1	1
389.513214	0.792479	city	2	1	0.659454	0.659454	0	1	0	0	CorrectCommission	0.639573	0.444396	1	1
390.305481	0.792050	city	8	1	0.646032	0.646032	0	1	0	0	CorrectCommission	0.804413	0.437345	1	1
391.097626	0.792261	city	6	1	0.695371	0.695371	0	1	0	0	CorrectCommission	0.198466	0.431355	1	1
391.889893	0.792265	city	4	1	0.695222	0.695222	0	1	0	0	CorrectCommission	0.200296	0.426946	1	1
392.682281	0.792483	city	10	1	0.695528	0.695528	0	1	0	0	CorrectCommission	0.196541	0.424731	1	1
393.474548	0.792047	city	8	1	0.753482	0.753482	0	1	0	0	CorrectCommission	0.515224	0.425341	1	1
394.266693	0.792267	city	10	1	0.744871	0.744871	0	1	0	0	CorrectCommission	0.409459	0.429288	1	1
395.059052	0.792481	city	1	1	0.695296	0.695296	0	1	0	0	CorrectCommission	0.199381	0.436892	1	1
395.851318	0.792047	city	8	1	0.695465	0.695465	0	1	0	0	CorrectCommission	0.197305	0.448157	1	1
396.643494	0.792267	city	2	1	0.646019	0.646019	0	1	0	0	CorrectCommission	0.804582	0.462741	1	1
397.435791	0.792371	city	1	1	0.745106	0.745106	0	1	0	0	CorrectCommission	0.412356	0.479910	1	1
398.228180	0.792373	city	2	1	0.695168	0.695168	0	1	0	0	CorrectCommission	0.200952	0.498648	1	1
399.020477	0.792209	mountain	10	0	0.000000	0.673920	1	0	0	0	CorrectOmission	0.461912	0.517702	1	1
399.812622	0.792120	city	4	1	0.663504	0.663504	0	1	0	0	CorrectCommission	0.589834	0.535715	1	1
400.604828	0.792250	city	2	1	0.646064	0.646064	0	1	0	0	CorrectCommission	0.804029	0.551418	1	1
401.397064	0.792267	city	3	1	0.744929	0.744929	0	1	0	0	CorrectCommission	0.410171	0.563798	1	1
402.189453	0.792478	city	4	1	0.761726	0.761726	0	1	0	0	CorrectCommission	0.616470	0.572279	1	1
402.981720	0.792047	city	3	1	0.794197	0.794197	0	1	0	0	CorrectCommission	1.015262	0.576823	1	1
403.773987	0.792482	city	5	1	0.794317	0.794317	0	1	0	0	CorrectCommission	1.016728	0.577984	1	1
404.566284	0.792156	city	8	1	0.794139	0.794139	0	1	0	0	CorrectCommission	1.014548	0.576868	1	1
405.358490	0.792217	city	2	1	0.744691	0.744691	0	1	0	0	CorrectCommission	0.407255	0.574933	1	1
406.150787	0.792421	city	6	1	0.695204	0.695204	0	1	0	0	CorrectCommission	0.200512	0.573775	1	1
406.943146	0.792264	city	1	1	0.695564	0.695564	0	1	0	0	CorrectCommission	0.196099	0.574827	1	1
407.735352	0.792156	city	4	1	0.702456	0.702456	0	1	0	0	CorrectCommission	0.111449	0.579110	1	1
408.527527	0.792212	city	1	1	0.663182	0.663182	0	1	0	0	CorrectCommission	0.593793	0.586998	1	1
409.319763	0.792212	city	7	1	0.695239	0.695239	0	1	0	0	CorrectCommission	0.200089	0.598153	1	1
410.112091	0.792479	city	5	1	0.807055	0.807055	0	1	0	0	CorrectCommission	1.173173	0.611564	1	1
410.904358	0.792049	city	2	1	0.744943	0.744943	0	1	0	0	CorrectCommission	0.410343	0.625669	1	1
411.696533	0.792321	city	5	1	0.744839	0.744839	0	1	0	0	CorrectCommission	0.409072	0.638675	1	1
412.488800	0.792209	city	10	1	0.695200	0.695200	0	1	0	0	CorrectCommission	0.200563	0.648828	1	1
413.281036	0.792264	city	6	1	0.854131	0.854131	0	1	0	0	CorrectCommission	1.751324	0.654739	1	1
414.073303	0.792272	city	10	1	0.843792	0.843792	0	1	0	0	CorrectCommission	1.624349	0.655556	1	1
414.865692	0.792472	city	2	1	0.763023	0.763023	0	1	0	0	CorrectCommission	0.632396	0.651171	1	1
415.657959	0.792048	city	7	1	0.762734	0.762734	0	1	0	0	CorrectCommission	0.628848	0.642188	1	1
416.450104	0.792270	city	2	1	0.744854	0.744854	0	1	0	0	CorrectCommission	0.409262	0.629741	1	1
417.242493	0.792476	city	1	1	0.753844	0.753844	0	1	0	0	CorrectCommission	0.519670	0.615282	1	1
418.034729	0.792048	city	7	1	0.713403	0.713403	0	1	0	0	CorrectCommission	0.022991	0.600290	1	1
418.826904	0.792303	city	1	1	0.745332	0.745332	0	1	0	0	CorrectCommission	0.415126	0.586050	1	1
419.619171	0.792234	city	3	1	0.794837	0.794837	0	1	0	0	CorrectCommission	1.023120	0.573427	1	1
420.411438	0.792257	city	10	1	0.744781	0.744781	0	1	0	0	CorrectCommission	0.408365	0.562791	1	1
421.203735	0.792372	mountain	4	0	0.000000	0.727500	1	0	0	0	CorrectOmission	0.196124	0.554077	1	1
421.996063	0.792263	city	1	1	0.695140	0.695140	0	1	0	0	CorrectCommission	0.201300	0.546873	1	1
422.788330	0.792266	city	10	1	0.599849	0.599849	0	1	0	0	CorrectCommission	1.371606	0.540572	1	1
423.580597	0.792263	mountain	8	0	0.000000	0.705050	1	0	0	0	CorrectOmission	0.079597	0.534585	1	1
424.372803	0.792159	city	8	1	0.794234	0.794234	0	1	0	0	CorrectCommission	1.015717	0.528550	1	0
425.165070	0.792373	city	2	1	0.650897	0.650897	0	1	0	0	CorrectCommission	0.744672	0.522360	1	0
425.957336	0.792154	mountain	2	0	0.000000	0.649708	1	0	0	0	CorrectOmission	0.759274	0.516300	1	0
426.749542	0.792266	city	6	1	0.696051	0.696051	0	1	0	0	CorrectCommission	0.190118	0.510965	1	0
427.541809	0.792285	city	7	1	0.695309	0.695309	0	1	0	0	CorrectCommission	0.199231	0.507179	1	0
428.334076	0.792255	city	4	1	0.745782	0.745782	0	1	0	0	CorrectCommission	0.420649	0.505857	1	0
429.126343	0.792256	city	7	1	0.695883	0.695883	0	1	0	0	CorrectCommission	0.192177	0.507856	1	0
429.918610	0.792264	city	3	1	0.695247	0.695247	0	1	0	0	CorrectCommission	0.199993	0.513866	1	0
430.710876	0.792265	mountain	3	0	0.000000	0.769277	1	0	0	0	CorrectOmission	0.709200	0.524297	1	0
431.503235	0.792479	city	4	1	0.794279	0.794279	0	1	0	0	CorrectCommission	1.016258	0.539178	1	0
432.295563	0.792156	city	2	1	0.646558	0.646558	0	1	0	0	CorrectCommission	0.797963	0.558205	1	0
433.087738	0.792209	city	3	1	0.695322	0.695322	0	1	0	0	CorrectCommission	0.199064	0.580661	1	0
433.879974	0.792276	city	9	1	0.695203	0.695203	0	1	0	0	CorrectCommission	0.200526	0.605470	1	0
434.672211	0.792202	city	2	1	0.696009	0.696009	0	1	0	0	CorrectCommission	0.190633	0.631243	1	0
435.464447	0.792264	city	1	1	0.744900	0.744900	0	1	0	0	CorrectCommission	0.409820	0.656429	1	0
436.256714	0.792282	city	2	1	0.645764	0.645764	0	1	0	0	CorrectCommission	0.807707	0.679464	1	0
437.049103	0.792467	city	7	1	0.843942	0.843942	0	1	0	0	CorrectCommission	1.626196	0.698990	1	0
437.841370	0.792046	city	3	1	0.744702	0.744702	0	1	0	0	CorrectCommission	0.407394	0.714073	1	0
438.633545	0.792323	city	4	1	0.844275	0.844275	0	1	0	0	CorrectCommission	1.630286	0.724393	0	0
439.425873	0.792316	city	8	1	0.803374	0.803374	0	1	0	0	CorrectCommission	1.127968	0.730215	0	0
440.218109	0.792155	city	9	1	0.698928	0.698928	0	1	0	0	CorrectCommission	0.154777	0.732446	0	0
441.010315	0.792265	city	8	1	0.604793	0.604793	0	1	0	0	CorrectCommission	1.310888	0.732499	0	0
441.802612	0.792324	city	1	1	0.744763	0.744763	0	1	0	0	CorrectCommission	0.408142	0.731965	0	0
442.594971	0.792423	city	3	1	0.748926	0.748926	0	1	0	0	CorrectCommission	0.459270	0.732512	0	0
443.387329	0.792266	mountain	8	1	0.695170	0.695170	0	0	1	0	CommissionError	0.200936	0.735614	0	0
444.179596	0.792264	city	9	1	0.695034	0.695034	0	1	0	0	CorrectCommission	0.202605	0.742528	0	0
444.971741	0.792049	city	10	1	0.695090	0.695090	0	1	0	0	CorrectCommission	0.201915	0.754222	0	0
445.763947	0.792373	city	6	1	0.845336	0.845336	0	1	0	0	CorrectCommission	1.643315	0.771475	0	0
446.556213	0.792157	city	1	1	0.744667	0.744667	0	1	0	0	CorrectCommission	0.406954	0.794935	0	0
447.348450	0.792302	city	6	1	0.893439	0.893439	0	1	0	0	CorrectCommission	2.234084	0.825287	0	0
448.140747	0.792314	city	10	1	0.794942	0.794942	0	1	0	0	CorrectCommission	1.024403	0.863085	0	0
448.933014	0.792176	city	1	1	0.744697	0.744697	0	1	0	0	CorrectCommission	0.407326	0.908720	0	0
449.725250	0.792338	mountain	6	0	0.000000	0.744487	1	0	0	0	CorrectOmission	0.404750	0.962183	0	0
450.517517	0.792192	city	3	1	0.744670	0.744670	0	1	0	0	CorrectCommission	0.406999	1.022750	0	0
451.309753	0.792265	city	9	1	0.695604	0.695604	0	1	0	0	CorrectCommission	0.195600	1.088809	0	0
452.102020	0.792272	city	7	1	0.745787	0.745787	0	1	0	0	CorrectCommission	0.420715	1.157849	0	0
452.894379	0.792474	city	6	1	0.843938	0.843938	0	1	0	0	CorrectCommission	1.626147	1.226632	0	0
453.686676	0.792092	city	7	1	0.844136	0.844136	0	1	0	0	CorrectCommission	1.628576	1.291588	0	0
454.478821	0.792224	city	1	1	0.794260	0.794260	0	1	0	0	CorrectCommission	1.016033	1.349319	0	0
455.271179	0.792477	city	6	1	0.949273	0.949273	0	1	0	0	CorrectCommission	2.919807	1.397238	0	0
456.063507	0.792156	city	7	1	0.993799	0.993799	0	1	0	0	CorrectCommission	3.466646	1.433892	0	0
456.855682	0.792191	city	10	1	0.863379	0.863379	0	1	0	0	CorrectCommission	1.864908	1.459284	0	0
457.647888	0.792235	city	5	1	0.806806	0.806806	0	1	0	0	CorrectCommission	1.170114	1.474838	0	0
458.440155	0.792297	city	9	1	0.695402	0.695402	0	1	0	0	CorrectCommission	0.198081	1.482954	0	0
459.232422	0.792245	city	10	1	0.546679	0.546679	0	1	0	0	CorrectCommission	2.024610	1.486503	0	0
460.024689	0.792267	city	7	1	0.803341	0.803341	0	1	0	0	CorrectCommission	1.127559	1.488125	0	0
460.816925	0.792244	city	9	1	0.803207	0.803207	0	1	0	0	CorrectCommission	1.125912	1.489741	0	0
461.609253	0.792376	city	6	1	0.745411	0.745411	0	1	0	0	CorrectCommission	0.416093	1.492071	0	0
462.401611	0.792374	city	8	1	0.596109	0.596109	0	1	0	0	CorrectCommission	1.417539	1.494521	0	0
463.193848	0.792111	city	6	1	0.596032	0.596032	0	1	0	0	CorrectCommission	1.418487	1.495271	0	0
463.986023	0.792204	city	8	1	0.794752	0.794752	0	1	0	0	CorrectCommission	1.022077	1.491776	0	0
464.778259	0.792264	city	1	1	0.413003	0.413003	0	1	0	0	CorrectCommission	3.666333	1.481266	0	0
465.570526	0.792262	city	8	1	0.506476	0.506476	0	1	0	0	CorrectCommission	2.518359	1.461287	0	0
466.362885	0.792481	mountain	9	1	0.794346	0.794346	0	0	1	0	CommissionError	1.017089	1.430373	0	0
467.155151	0.792049	city	8	1	0.794685	0.794685	0	1	0	0	CorrectCommission	1.021246	1.388273	0	0
467.947418	0.792481	city	2	1	0.843791	0.843791	0	1	0	0	CorrectCommission	1.624338	1.336041	0	0
468.739685	0.792049	city	9	1	0.943377	0.943377	0	1	0	0	CorrectCommission	2.847400	1.275910	0	0
469.531952	0.792481	city	6	1	0.744797	0.744797	0	1	0	0	CorrectCommission	0.408556	1.210961	0	0
470.324219	0.792048	city	7	1	0.657119	0.657119	0	1	0	0	CorrectCommission	0.668248	1.144721	0	0
471.116486	0.792479	city	2	1	0.660134	0.660134	0	1	0	0	CorrectCommission	0.631224	1.080539	0	0
471.908844	0.792266	city	6	1	0.645879	0.645879	0	1	0	0	CorrectCommission	0.806295	1.021218	0	0
472.701019	0.792053	city	2	1	0.646054	0.646054	0	1	0	0	CorrectCommission	0.804149	0.968637	0	0
473.493195	0.792313	city	8	1	0.648788	0.648788	0	1	0	0	CorrectCommission	0.770575	0.923600	0	0
474.285461	0.792223	city	3	1	0.705657	0.705657	0	1	0	0	CorrectCommission	0.072133	0.885899	0	0
475.077698	0.792260	city	4	1	0.655487	0.655487	0	1	0	0	CorrectCommission	0.688293	0.854474	0	0
475.869965	0.792260	mountain	8	1	0.601859	0.601859	0	0	1	0	CommissionError	1.346925	0.827661	0	0
476.662231	0.792268	city	8	1	0.596297	0.596297	0	1	0	0	CorrectCommission	1.415238	0.803504	0	0
477.454498	0.792261	city	9	1	0.645760	0.645760	0	1	0	0	CorrectCommission	0.807759	0.780099	0	0
478.246796	0.792334	city	5	1	0.656324	0.656324	0	1	0	0	CorrectCommission	0.678016	0.755829	0	0
479.039062	0.792196	city	8	1	0.656066	0.656066	0	1	0	0	CorrectCommission	0.681186	0.729460	0	0
479.831268	0.792262	city	5	1	0.596381	0.596381	0	1	0	0	CorrectCommission	1.414204	0.700174	1	0
480.623566	0.792323	mountain	9	0	0.000000	0.699640	1	0	0	0	CorrectOmission	0.146033	0.667498	1	0
481.415833	0.792204	city	6	1	0.794312	0.794312	0	1	0	0	CorrectCommission	1.016669	0.631276	1	0
482.208191	0.792484	city	5	1	0.708864	0.708864	0	1	0	0	CorrectCommission	0.032756	0.591415	1	0
483.000549	0.792265	city	9	1	0.699997	0.699997	0	1	0	0	CorrectCommission	0.141649	0.547975	1	0
483.792725	0.792106	city	5	1	0.710298	0.710298	0	1	0	0	CorrectCommission	0.015145	0.501106	1	0
484.584900	0.792210	city	3	1	0.794969	0.794969	0	1	0	0	CorrectCommission	1.024732	0.451107	1	0
485.377136	0.792288	city	1	1	0.854644	0.854644	0	1	0	0	CorrectCommission	1.757631	0.398441	1	0
486.169525	0.792457	city	7	1	0.794815	0.794815	0	1	0	0	CorrectCommission	1.022850	0.343781	1	0
486.961823	0.792155	mountain	8	0	0.000000	0.734986	1	0	0	0	CorrectOmission	0.288068	0.288068	1	0
