onset	duration	trial_type	image_type	Press	ReactionTime	ReactionTime_Interpolated	CorrectOmission	CorrectCommission	CommissionError	OmissionError	response_type	nonsmoothVarianceTimeCourse	VarianceTimeCourse	In_the_Zone	Reward_trial
8.438290	0.795800	city	3	1	0.797941	0.797941	0	1	0	0	CorrectCommission	1.916042	1.916042	0	0
9.234096	0.795812	city	4	1	0.657395	0.657395	0	1	0	0	CorrectCommission	0.261620	1.819739	0	0
10.029901	0.795797	city	1	1	0.549440	0.549440	0	1	0	0	CorrectCommission	1.009160	1.727367	0	0
10.825699	0.795800	city	10	1	0.474445	0.474445	0	1	0	0	CorrectCommission	1.891951	1.642324	0	0
11.621497	0.795798	city	1	1	0.549259	0.549259	0	1	0	0	CorrectCommission	1.011285	1.567108	0	0
12.417407	0.796021	city	9	1	0.549814	0.549814	0	1	0	0	CorrectCommission	1.004756	1.503117	0	0
13.213220	0.795603	city	2	1	0.557445	0.557445	0	1	0	0	CorrectCommission	0.914930	1.450576	0	0
14.008912	0.795784	city	1	1	0.501943	0.501943	0	1	0	0	CorrectCommission	1.568270	1.408736	0	0
14.804758	0.795908	city	7	1	0.506776	0.506776	0	1	0	0	CorrectCommission	1.511379	1.376117	0	0
15.600559	0.795694	mountain	9	0	0.000000	0.521770	1	0	0	0	CorrectOmission	1.334873	1.350944	0	0
16.396313	0.795815	city	5	1	0.517318	0.517318	0	1	0	0	CorrectCommission	1.387284	1.331484	0	0
17.192169	0.795897	mountain	5	1	0.463810	0.463810	0	0	1	0	CommissionError	2.017140	1.316305	0	0
17.987963	0.795693	city	9	1	0.511451	0.511451	0	1	0	0	CorrectCommission	1.456345	1.304395	0	0
18.783712	0.795805	city	6	1	0.549545	0.549545	0	1	0	0	CorrectCommission	1.007927	1.295180	0	0
19.579569	0.795907	city	5	1	0.509983	0.509983	0	1	0	0	CorrectCommission	1.473626	1.288353	0	0
20.375370	0.795696	city	4	1	0.598766	0.598766	0	1	0	0	CorrectCommission	0.428526	1.283640	0	0
21.171227	0.796017	city	1	1	0.549657	0.549657	0	1	0	0	CorrectCommission	1.006607	1.280592	0	0
21.967028	0.795585	city	5	1	0.698524	0.698524	0	1	0	0	CorrectCommission	0.745767	1.278365	0	0
22.762720	0.795800	city	9	1	0.499983	0.499983	0	1	0	0	CorrectCommission	1.591336	1.275732	0	0
23.558521	0.795801	city	1	1	0.499609	0.499609	0	1	0	0	CorrectCommission	1.595740	1.271109	0	0
24.354376	0.795910	city	2	1	0.499839	0.499839	0	1	0	0	CorrectCommission	1.593030	1.262793	0	0
25.150288	0.795911	city	5	1	0.499311	0.499311	0	1	0	0	CorrectCommission	1.599248	1.249132	0	0
25.946039	0.795595	city	7	1	0.499404	0.499404	0	1	0	0	CorrectCommission	1.598157	1.228847	0	0
26.741734	0.795793	city	6	1	0.552891	0.552891	0	1	0	0	CorrectCommission	0.968542	1.201245	0	0
27.537584	0.795907	city	3	1	0.549124	0.549124	0	1	0	0	CorrectCommission	1.012877	1.166339	0	0
28.333494	0.795913	mountain	1	1	0.549887	0.549887	0	0	1	0	CommissionError	1.003896	1.124853	0	0
29.129244	0.795587	city	3	1	0.400203	0.400203	0	1	0	0	CorrectCommission	2.765894	1.078192	0	0
29.924938	0.795801	city	8	1	0.598794	0.598794	0	1	0	0	CorrectCommission	0.428200	1.028216	0	0
30.720778	0.795879	city	2	1	0.549189	0.549189	0	1	0	0	CorrectCommission	1.012120	0.977126	0	0
31.516581	0.795726	city	10	1	0.562000	0.562000	0	1	0	0	CorrectCommission	0.861308	0.927018	0	0
32.312340	0.795796	city	6	1	0.648931	0.648931	0	1	0	0	CorrectCommission	0.161989	0.879717	0	0
33.108158	0.795834	city	7	1	0.648977	0.648977	0	1	0	0	CorrectCommission	0.162530	0.836586	0	0
33.904015	0.795879	mountain	10	0	0.000000	0.607386	1	0	0	0	CorrectOmission	0.327053	0.798371	0	0
34.699905	0.795909	city	2	1	0.549502	0.549502	0	1	0	0	CorrectCommission	1.008427	0.765237	0	0
35.495708	0.795694	city	10	1	0.500669	0.500669	0	1	0	0	CorrectCommission	1.583264	0.736853	0	0
36.291401	0.795691	city	9	1	0.549367	0.549367	0	1	0	0	CorrectCommission	1.010020	0.712577	0	0
37.087151	0.795804	city	3	1	0.648653	0.648653	0	1	0	0	CorrectCommission	0.158713	0.691633	1	0
37.882984	0.795865	mountain	3	0	0.000000	0.690256	1	0	0	0	CorrectOmission	0.648443	0.673270	1	0
38.678814	0.795798	city	3	1	0.648911	0.648911	0	1	0	0	CorrectCommission	0.161756	0.656799	1	0
39.474586	0.795741	city	5	1	0.499352	0.499352	0	1	0	0	CorrectCommission	1.598768	0.641705	1	0
40.270359	0.795810	city	9	1	0.648638	0.648638	0	1	0	0	CorrectCommission	0.158538	0.627543	1	0
41.066269	0.796010	city	4	1	0.648829	0.648829	0	1	0	0	CorrectCommission	0.160784	0.614158	1	0
41.862068	0.795586	mountain	4	0	0.000000	0.696500	1	0	0	0	CorrectOmission	0.721940	0.601484	1	0
42.657761	0.795800	city	3	1	0.698379	0.698379	0	1	0	0	CorrectCommission	0.744059	0.589639	1	0
43.453564	0.795801	city	10	1	0.561193	0.561193	0	1	0	0	CorrectCommission	0.870806	0.579025	1	0
44.249363	0.795801	city	5	1	0.598895	0.598895	0	1	0	0	CorrectCommission	0.427011	0.570427	1	0
45.045166	0.795805	city	9	1	0.602919	0.602919	0	1	0	0	CorrectCommission	0.379637	0.565128	1	0
45.840988	0.795843	city	7	1	0.554704	0.554704	0	1	0	0	CorrectCommission	0.947195	0.564959	1	0
46.636845	0.795866	city	3	1	0.648894	0.648894	0	1	0	0	CorrectCommission	0.161547	0.572210	1	0
47.432648	0.795737	city	1	1	0.648551	0.648551	0	1	0	0	CorrectCommission	0.157511	0.589621	1	0
48.228397	0.795762	city	6	1	0.549389	0.549389	0	1	0	0	CorrectCommission	1.009763	0.620039	1	0
49.024178	0.795798	city	4	1	0.599452	0.599452	0	1	0	0	CorrectCommission	0.420450	0.665990	1	0
49.820084	0.796018	city	7	1	0.558118	0.558118	0	1	0	0	CorrectCommission	0.907008	0.729279	0	0
50.615917	0.795645	city	9	1	0.649240	0.649240	0	1	0	0	CorrectCommission	0.165630	0.810395	0	0
51.411716	0.795957	city	8	1	0.649105	0.649105	0	1	0	0	CorrectCommission	0.164038	0.908098	0	0
52.207489	0.795584	city	10	1	0.608384	0.608384	0	1	0	0	CorrectCommission	0.315312	1.019073	0	0
53.003181	0.795802	city	3	1	0.648948	0.648948	0	1	0	0	CorrectCommission	0.162191	1.137928	0	0
53.799091	0.796020	city	5	1	0.603173	0.603173	0	1	0	0	CorrectCommission	0.376643	1.257506	0	0
54.594894	0.795587	city	3	1	0.698156	0.698156	0	1	0	0	CorrectCommission	0.741439	1.369589	0	0
55.390606	0.795837	city	8	1	0.608486	0.608486	0	1	0	0	CorrectCommission	0.314100	1.465882	0	0
56.186462	0.795872	city	2	1	1.196242	1.196242	0	1	0	0	CorrectCommission	6.604605	1.539092	0	0
56.982273	0.795752	city	7	1	1.046955	1.046955	0	1	0	0	CorrectCommission	4.847288	1.583789	0	0
57.778023	0.795747	mountain	3	0	0.000000	0.875086	1	0	0	0	CorrectOmission	2.824155	1.597443	0	0
58.573795	0.795798	mountain	1	0	0.000000	0.714459	1	0	0	0	CorrectOmission	0.933340	1.580556	0	0
59.369602	0.795814	city	3	1	0.598894	0.598894	0	1	0	0	CorrectCommission	0.427023	1.536488	0	0
60.165455	0.795896	city	9	1	0.562213	0.562213	0	1	0	0	CorrectCommission	0.858799	1.470884	0	0
60.961250	0.795694	city	10	1	0.503427	0.503427	0	1	0	0	CorrectCommission	1.550801	1.390867	0	0
61.757000	0.795803	city	5	1	0.549128	0.549128	0	1	0	0	CorrectCommission	1.012828	1.304110	0	0
62.552803	0.795800	mountain	7	1	0.549209	0.549209	0	0	1	0	CommissionError	1.011875	1.218011	0	0
63.348602	0.795800	city	6	1	0.450362	0.450362	0	1	0	0	CorrectCommission	2.175443	1.138903	0	0
64.144409	0.795812	city	5	1	0.598888	0.598888	0	1	0	0	CorrectCommission	0.427092	1.071562	0	0
64.940208	0.795791	mountain	1	0	0.000000	0.656704	1	0	0	0	CorrectOmission	0.253493	1.019006	0	0
65.736008	0.795803	city	7	1	0.648605	0.648605	0	1	0	0	CorrectCommission	0.158155	0.982261	0	0
66.531815	0.795808	city	5	1	0.599383	0.599383	0	1	0	0	CorrectCommission	0.421264	0.960548	0	0
67.327667	0.795904	city	10	1	0.598874	0.598874	0	1	0	0	CorrectCommission	0.427254	0.951514	0	0
68.123466	0.795692	city	7	1	0.764070	0.764070	0	1	0	0	CorrectCommission	1.517331	0.951699	0	1
68.919212	0.795801	city	4	1	0.649356	0.649356	0	1	0	0	CorrectCommission	0.166997	0.957006	0	1
69.715019	0.795808	city	3	1	0.698493	0.698493	0	1	0	0	CorrectCommission	0.745404	0.963336	0	1
70.510818	0.795800	city	9	1	0.897647	0.897647	0	1	0	0	CorrectCommission	3.089731	0.967046	0	1
71.306648	0.795859	city	7	1	0.748248	0.748248	0	1	0	0	CorrectCommission	1.331086	0.965332	0	1
72.102448	0.795744	city	4	1	0.757574	0.757574	0	1	0	0	CorrectCommission	1.440872	0.956562	0	1
72.898224	0.795802	city	1	1	0.703137	0.703137	0	1	0	0	CorrectCommission	0.800070	0.940245	0	1
73.694046	0.795838	city	10	1	0.713354	0.713354	0	1	0	0	CorrectCommission	0.920338	0.916839	0	1
74.489845	0.795764	city	5	1	0.656231	0.656231	0	1	0	0	CorrectCommission	0.247919	0.887578	0	1
75.285645	0.795835	city	3	1	0.612699	0.612699	0	1	0	0	CorrectCommission	0.264513	0.854180	0	1
76.081459	0.795791	city	9	1	0.549839	0.549839	0	1	0	0	CorrectCommission	1.004459	0.818537	0	1
76.877350	0.795996	city	7	1	0.564824	0.564824	0	1	0	0	CorrectCommission	0.828064	0.782493	0	1
77.673248	0.795802	city	6	1	0.503671	0.503671	0	1	0	0	CorrectCommission	1.547920	0.747734	0	1
78.468971	0.795643	mountain	3	0	0.000000	0.582583	1	0	0	0	CorrectOmission	0.619026	0.715702	0	1
79.264664	0.795743	city	4	1	0.648703	0.648703	0	1	0	0	CorrectCommission	0.159310	0.687658	1	1
80.060432	0.795800	city	3	1	0.549180	0.549180	0	1	0	0	CorrectCommission	1.012222	0.664686	1	1
80.856293	0.795910	city	6	1	0.648662	0.648662	0	1	0	0	CorrectCommission	0.158818	0.647658	1	1
81.652092	0.795693	city	9	1	0.610779	0.610779	0	1	0	0	CorrectCommission	0.287120	0.637357	1	1
82.447838	0.795805	city	3	1	0.598873	0.598873	0	1	0	0	CorrectCommission	0.427264	0.634398	1	1
83.243645	0.795799	city	1	1	0.559404	0.559404	0	1	0	0	CorrectCommission	0.891865	0.639222	1	1
84.039444	0.795804	mountain	6	0	0.000000	0.585898	1	0	0	0	CorrectOmission	0.579995	0.652040	1	1
84.835243	0.795797	city	8	1	0.607571	0.607571	0	1	0	0	CorrectCommission	0.324874	0.672802	1	1
85.631050	0.795810	city	4	1	0.553640	0.553640	0	1	0	0	CorrectCommission	0.959720	0.701051	1	1
86.426849	0.795792	city	3	1	0.567246	0.567246	0	1	0	0	CorrectCommission	0.799560	0.735870	0	1
87.222656	0.795822	city	6	1	0.659998	0.659998	0	1	0	0	CorrectCommission	0.292258	0.775804	0	1
88.018486	0.795831	city	4	1	0.650178	0.650178	0	1	0	0	CorrectCommission	0.176664	0.818793	0	1
88.814278	0.795753	city	5	1	0.549116	0.549116	0	1	0	0	CorrectCommission	1.012969	0.862259	0	1
89.610054	0.795804	city	7	1	0.549744	0.549744	0	1	0	0	CorrectCommission	1.005585	0.903185	0	1
90.405861	0.795800	city	4	1	0.549363	0.549363	0	1	0	0	CorrectCommission	1.010065	0.938403	0	1
91.201675	0.795829	city	8	1	0.549157	0.549157	0	1	0	0	CorrectCommission	1.012492	0.964849	0	1
91.997475	0.795775	city	5	1	0.499424	0.499424	0	1	0	0	CorrectCommission	1.597919	0.979927	0	1
92.793259	0.795798	city	10	1	0.499788	0.499788	0	1	0	0	CorrectCommission	1.593636	0.981842	0	1
93.589111	0.795912	city	6	1	0.506585	0.506585	0	1	0	0	CorrectCommission	1.513627	0.969859	0	1
94.384956	0.795767	city	7	1	0.549604	0.549604	0	1	0	0	CorrectCommission	1.007225	0.944482	0	1
95.180702	0.795729	city	2	1	0.500019	0.500019	0	1	0	0	CorrectCommission	1.590920	0.907457	0	1
95.976471	0.795803	mountain	2	0	0.000000	0.541310	1	0	0	0	CorrectOmission	1.104856	0.861641	0	1
96.772377	0.796017	city	2	1	0.599047	0.599047	0	1	0	0	CorrectCommission	0.425212	0.810774	0	1
97.568192	0.795616	city	3	1	0.598796	0.598796	0	1	0	0	CorrectCommission	0.428169	0.759071	0	1
98.363884	0.795770	city	1	1	0.598971	0.598971	0	1	0	0	CorrectCommission	0.426111	0.710810	0	1
99.159698	0.795853	city	2	1	0.609563	0.609563	0	1	0	0	CorrectCommission	0.301423	0.669897	1	1
99.955498	0.795750	city	9	1	0.698443	0.698443	0	1	0	0	CorrectCommission	0.744809	0.639518	1	1
100.751282	0.795807	city	1	1	0.615516	0.615516	0	1	0	0	CorrectCommission	0.231347	0.621799	1	1
101.547134	0.795907	city	6	1	0.600435	0.600435	0	1	0	0	CorrectCommission	0.408878	0.617662	1	1
102.342934	0.795696	mountain	1	0	0.000000	0.638432	1	0	0	0	CorrectOmission	0.038396	0.626754	1	1
103.138710	0.795845	city	6	1	0.660863	0.660863	0	1	0	0	CorrectCommission	0.302444	0.647517	1	1
103.934509	0.795754	city	9	1	0.599085	0.599085	0	1	0	0	CorrectCommission	0.424767	0.677388	1	1
104.730286	0.795803	city	6	1	0.599326	0.599326	0	1	0	0	CorrectCommission	0.421938	0.713129	0	1
105.526085	0.795800	city	10	1	0.549153	0.549153	0	1	0	0	CorrectCommission	1.012540	0.751227	0	1
106.321884	0.795800	city	8	1	0.549958	0.549958	0	1	0	0	CorrectCommission	1.003060	0.788270	0	1
107.117691	0.795803	city	6	1	0.549723	0.549723	0	1	0	0	CorrectCommission	1.005827	0.821389	0	1
107.913490	0.795801	city	5	1	0.461663	0.461663	0	1	0	0	CorrectCommission	2.042419	0.848531	0	1
108.709290	0.795803	city	4	1	0.514739	0.514739	0	1	0	0	CorrectCommission	1.417642	0.868588	0	1
109.505096	0.795804	city	7	1	0.549348	0.549348	0	1	0	0	CorrectCommission	1.010245	0.881419	0	1
110.300903	0.795817	mountain	3	0	0.000000	0.598220	1	0	0	0	CorrectOmission	0.434949	0.887660	0	1
111.096817	0.796002	city	9	1	0.617488	0.617488	0	1	0	0	CorrectCommission	0.208143	0.888463	0	1
111.892662	0.795690	city	2	1	0.563283	0.563283	0	1	0	0	CorrectCommission	0.846213	0.885181	0	1
112.688354	0.795692	city	4	1	0.549167	0.549167	0	1	0	0	CorrectCommission	1.012373	0.879054	0	1
113.484100	0.795806	city	1	1	0.549292	0.549292	0	1	0	0	CorrectCommission	1.010902	0.871072	0	1
114.279938	0.795871	city	3	1	0.598990	0.598990	0	1	0	0	CorrectCommission	0.425891	0.861872	0	1
115.075745	0.795731	city	7	1	0.516232	0.516232	0	1	0	0	CorrectCommission	1.400067	0.851768	0	1
115.871506	0.795799	city	9	1	0.551703	0.551703	0	1	0	0	CorrectCommission	0.982525	0.840806	0	1
116.667336	0.795863	city	5	1	0.598899	0.598899	0	1	0	0	CorrectCommission	0.426964	0.828970	0	1
117.463142	0.795744	city	10	1	0.549102	0.549102	0	1	0	0	CorrectCommission	1.013144	0.816275	0	1
118.258965	0.795909	city	1	1	0.567256	0.567256	0	1	0	0	CorrectCommission	0.799437	0.802852	0	1
119.054825	0.795800	city	8	1	0.549062	0.549062	0	1	0	0	CorrectCommission	1.013614	0.789010	0	1
119.850677	0.795911	city	2	1	0.549197	0.549197	0	1	0	0	CorrectCommission	1.012023	0.775189	0	1
120.646431	0.795591	city	1	1	0.552545	0.552545	0	1	0	0	CorrectCommission	0.972605	0.761840	0	1
121.442230	0.796012	city	3	1	0.599389	0.599389	0	1	0	0	CorrectCommission	0.421193	0.749292	0	1
122.238083	0.795691	mountain	2	0	0.000000	0.607340	1	0	0	0	CorrectOmission	0.327591	0.737625	0	1
123.033829	0.795803	city	1	1	0.599428	0.599428	0	1	0	0	CorrectCommission	0.420726	0.726545	0	1
123.829613	0.795767	city	9	1	0.598681	0.598681	0	1	0	0	CorrectCommission	0.429525	0.715376	0	1
124.625359	0.795729	city	7	1	0.598850	0.598850	0	1	0	0	CorrectCommission	0.427538	0.703162	0	1
125.421127	0.795800	city	1	1	0.553949	0.553949	0	1	0	0	CorrectCommission	0.956081	0.688819	1	1
126.217033	0.796020	city	2	1	0.503449	0.503449	0	1	0	0	CorrectCommission	1.550544	0.671366	1	1
127.012840	0.795582	city	3	1	0.515282	0.515282	0	1	0	0	CorrectCommission	1.411243	0.650152	1	1
127.808533	0.795803	mountain	4	1	0.598908	0.598908	0	0	1	0	CommissionError	0.426855	0.625061	1	0
128.604446	0.796019	city	5	1	0.698415	0.698415	0	1	0	0	CorrectCommission	0.744490	0.596551	1	0
129.400238	0.795587	city	2	1	0.666010	0.666010	0	1	0	0	CorrectCommission	0.363038	0.565581	1	0
130.195938	0.795800	city	10	1	0.648979	0.648979	0	1	0	0	CorrectCommission	0.162555	0.533533	1	0
130.991745	0.795802	city	9	1	0.598867	0.598867	0	1	0	0	CorrectCommission	0.427330	0.501990	1	0
131.787537	0.795797	city	2	1	0.599004	0.599004	0	1	0	0	CorrectCommission	0.425717	0.472542	1	0
132.583344	0.795804	city	7	1	0.603455	0.603455	0	1	0	0	CorrectCommission	0.373330	0.446600	1	0
133.379257	0.796020	city	6	1	0.648958	0.648958	0	1	0	0	CorrectCommission	0.162304	0.425279	1	0
134.175049	0.795582	city	9	1	0.665275	0.665275	0	1	0	0	CorrectCommission	0.354375	0.409320	1	0
134.970795	0.795912	city	2	1	0.698373	0.698373	0	1	0	0	CorrectCommission	0.743991	0.399049	1	0
135.766602	0.795690	city	3	1	0.649228	0.649228	0	1	0	0	CorrectCommission	0.165489	0.394440	1	0
136.562378	0.795872	city	9	1	0.648965	0.648965	0	1	0	0	CorrectCommission	0.162389	0.395169	1	0
137.358200	0.795773	mountain	2	0	0.000000	0.623721	1	0	0	0	CorrectOmission	0.134773	0.400672	1	0
138.154007	0.795839	city	10	1	0.599300	0.599300	0	1	0	0	CorrectCommission	0.422241	0.410249	1	0
138.949799	0.795727	city	4	1	0.601507	0.601507	0	1	0	0	CorrectCommission	0.396260	0.423161	1	0
139.745560	0.795798	city	2	1	0.599757	0.599757	0	1	0	0	CorrectCommission	0.416859	0.438685	1	0
140.541367	0.795821	city	5	1	0.699469	0.699469	0	1	0	0	CorrectCommission	0.756895	0.456191	1	0
141.337280	0.796003	city	10	1	0.598881	0.598881	0	1	0	0	CorrectCommission	0.427174	0.475156	1	0
142.133102	0.795646	city	3	1	0.648818	0.648818	0	1	0	0	CorrectCommission	0.160656	0.495182	1	0
142.928802	0.795757	city	4	1	0.748619	0.748619	0	1	0	0	CorrectCommission	1.335461	0.515959	1	0
143.724609	0.795844	city	7	1	0.658630	0.658630	0	1	0	0	CorrectCommission	0.276162	0.537146	1	0
144.520401	0.795744	city	8	1	0.648569	0.648569	0	1	0	0	CorrectCommission	0.157729	0.558411	1	0
145.316162	0.795802	city	2	1	0.598890	0.598890	0	1	0	0	CorrectCommission	0.427070	0.579328	1	0
146.111969	0.795796	city	8	1	0.599000	0.599000	0	1	0	0	CorrectCommission	0.425772	0.599381	1	0
146.907791	0.795844	city	5	1	0.598907	0.598907	0	1	0	0	CorrectCommission	0.426860	0.618052	1	0
147.703598	0.795761	city	1	1	0.549235	0.549235	0	1	0	0	CorrectCommission	1.011577	0.634899	1	0
148.499374	0.795804	city	6	1	0.516620	0.516620	0	1	0	0	CorrectCommission	1.395500	0.649687	1	0
149.295181	0.795803	mountain	5	0	0.000000	0.571697	1	0	0	0	CorrectOmission	0.747160	0.662512	1	0
150.090973	0.795799	city	1	1	0.615523	0.615523	0	1	0	0	CorrectCommission	0.231275	0.673906	1	0
150.886780	0.795803	city	3	1	0.549151	0.549151	0	1	0	0	CorrectCommission	1.012564	0.684816	1	0
151.682587	0.795798	city	9	1	0.698580	0.698580	0	1	0	0	CorrectCommission	0.746431	0.696501	1	0
152.478409	0.795859	city	3	1	0.601542	0.601542	0	1	0	0	CorrectCommission	0.395842	0.710437	0	0
153.274216	0.795767	mountain	7	0	0.000000	0.676293	1	0	0	0	CorrectOmission	0.484079	0.728087	0	0
154.070023	0.795836	city	3	1	0.749718	0.749718	0	1	0	0	CorrectCommission	1.348389	0.750655	0	0
154.865845	0.795796	city	4	1	0.648701	0.648701	0	1	0	0	CorrectCommission	0.159281	0.778879	0	0
155.661636	0.795804	city	1	1	0.599394	0.599394	0	1	0	0	CorrectCommission	0.421128	0.812928	0	0
156.457443	0.795809	city	9	1	0.606332	0.606332	0	1	0	0	CorrectCommission	0.339459	0.852209	0	0
157.253265	0.795825	city	4	1	0.598895	0.598895	0	1	0	0	CorrectCommission	0.427004	0.895481	0	0
158.049088	0.795827	city	10	1	0.499277	0.499277	0	1	0	0	CorrectCommission	1.599652	0.940936	0	0
158.844955	0.795911	city	2	1	0.549029	0.549029	0	1	0	0	CorrectCommission	1.013997	0.986390	0	0
159.640701	0.795586	city	10	1	0.505384	0.505384	0	1	0	0	CorrectCommission	1.527758	1.029610	0	0
160.436508	0.796017	city	5	1	0.549148	0.549148	0	1	0	0	CorrectCommission	1.012594	1.068448	0	0
161.232315	0.795594	city	8	1	0.514307	0.514307	0	1	0	0	CorrectCommission	1.422723	1.101145	0	0
162.028030	0.795846	city	10	1	0.499433	0.499433	0	1	0	0	CorrectCommission	1.597810	1.126404	0	0
162.823853	0.795788	city	2	1	0.549623	0.549623	0	1	0	0	CorrectCommission	1.007007	1.143453	0	0
163.619629	0.795758	city	1	1	0.550385	0.550385	0	1	0	0	CorrectCommission	0.998041	1.152044	0	0
164.415451	0.795912	city	8	1	0.549214	0.549214	0	1	0	0	CorrectCommission	1.011823	1.152369	0	0
165.211258	0.795695	city	7	1	0.500054	0.500054	0	1	0	0	CorrectCommission	1.590502	1.144954	0	0
166.007019	0.795836	city	3	1	0.508007	0.508007	0	1	0	0	CorrectCommission	1.496885	1.130574	0	0
166.802933	0.795986	city	1	1	0.549166	0.549166	0	1	0	0	CorrectCommission	1.012386	1.110198	0	0
167.598724	0.795583	city	7	1	0.514253	0.514253	0	1	0	0	CorrectCommission	1.423355	1.084929	0	0
168.394409	0.795799	mountain	1	0	0.000000	0.562862	1	0	0	0	CorrectOmission	0.851160	1.055898	0	0
169.190231	0.795844	city	7	1	0.604749	0.604749	0	1	0	0	CorrectCommission	0.358090	1.024302	0	0
169.986038	0.795764	city	9	1	0.549672	0.549672	0	1	0	0	CorrectCommission	1.006432	0.991345	0	0
170.781815	0.795794	city	1	1	0.450377	0.450377	0	1	0	0	CorrectCommission	2.175267	0.958208	0	0
171.577652	0.795877	city	3	1	0.613761	0.613761	0	1	0	0	CorrectCommission	0.252017	0.926009	0	0
172.373489	0.795793	city	9	1	0.549487	0.549487	0	1	0	0	CorrectCommission	1.008609	0.895876	0	0
173.169266	0.795777	city	7	1	0.558989	0.558989	0	1	0	0	CorrectCommission	0.896750	0.868751	0	0
173.965042	0.795762	city	9	1	0.598878	0.598878	0	1	0	0	CorrectCommission	0.427208	0.845404	0	0
174.760941	0.796020	city	10	1	0.549472	0.549472	0	1	0	0	CorrectCommission	1.008786	0.826363	0	0
175.556732	0.795582	city	4	1	0.648497	0.648497	0	1	0	0	CorrectCommission	0.156880	0.811879	0	0
176.352463	0.795863	city	7	1	0.598914	0.598914	0	1	0	0	CorrectCommission	0.426779	0.801927	0	0
177.148254	0.795742	city	8	1	0.549463	0.549463	0	1	0	0	CorrectCommission	1.008887	0.796230	0	0
177.944031	0.795804	city	6	1	0.549625	0.549625	0	1	0	0	CorrectCommission	1.006977	0.794377	0	0
178.739944	0.796019	city	8	1	0.549641	0.549641	0	1	0	0	CorrectCommission	1.006791	0.795898	0	0
179.535751	0.795582	city	10	1	0.511233	0.511233	0	1	0	0	CorrectCommission	1.458912	0.800333	0	0
180.331436	0.795800	city	6	1	0.611422	0.611422	0	1	0	0	CorrectCommission	0.279543	0.807290	0	0
181.127258	0.795847	city	5	1	0.598909	0.598909	0	1	0	0	CorrectCommission	0.426846	0.816476	0	0
181.923096	0.795818	city	6	1	0.599396	0.599396	0	1	0	0	CorrectCommission	0.421107	0.827614	0	0
182.718933	0.795850	city	10	1	0.555997	0.555997	0	1	0	0	CorrectCommission	0.931972	0.840410	0	0
183.514709	0.795730	city	7	1	0.567431	0.567431	0	1	0	0	CorrectCommission	0.797383	0.854494	0	0
184.310516	0.795872	city	4	1	0.514381	0.514381	0	1	0	0	CorrectCommission	1.421849	0.869373	0	0
185.106308	0.795710	city	6	1	0.560330	0.560330	0	1	0	0	CorrectCommission	0.880974	0.884348	0	0
185.902115	0.795895	city	9	1	0.549187	0.549187	0	1	0	0	CorrectCommission	1.012139	0.898521	0	0
186.697906	0.795695	city	4	1	0.568229	0.568229	0	1	0	0	CorrectCommission	0.787984	0.910745	0	0
187.493652	0.795817	city	6	1	0.698886	0.698886	0	1	0	0	CorrectCommission	0.750025	0.919652	0	1
188.289459	0.795788	city	8	1	0.558986	0.558986	0	1	0	0	CorrectCommission	0.896791	0.923709	0	1
189.085251	0.795802	city	7	1	0.599290	0.599290	0	1	0	0	CorrectCommission	0.422360	0.921365	0	1
189.881058	0.795798	city	2	1	0.599420	0.599420	0	1	0	0	CorrectCommission	0.420829	0.911237	0	1
190.676910	0.795911	city	6	1	0.897323	0.897323	0	1	0	0	CorrectCommission	3.085915	0.892343	0	1
191.472763	0.795799	city	7	1	0.698250	0.698250	0	1	0	0	CorrectCommission	0.742537	0.864296	0	1
192.268539	0.795733	city	6	1	0.698274	0.698274	0	1	0	0	CorrectCommission	0.742829	0.827565	0	1
193.064285	0.795786	city	10	1	0.503445	0.503445	0	1	0	0	CorrectCommission	1.550582	0.783470	0	1
193.860107	0.795852	city	6	1	0.549279	0.549279	0	1	0	0	CorrectCommission	1.011050	0.734161	0	1
194.655914	0.795742	city	10	1	0.609812	0.609812	0	1	0	0	CorrectCommission	0.298495	0.682443	1	1
195.451721	0.795896	city	7	1	0.661485	0.661485	0	1	0	0	CorrectCommission	0.309773	0.631506	1	1
196.247574	0.795803	city	8	1	0.648839	0.648839	0	1	0	0	CorrectCommission	0.160905	0.584569	1	1
197.043350	0.795739	city	7	1	0.649255	0.649255	0	1	0	0	CorrectCommission	0.165799	0.544552	1	1
197.839203	0.795974	city	10	1	0.648643	0.648643	0	1	0	0	CorrectCommission	0.158600	0.513820	1	1
198.635040	0.795692	city	7	1	0.698199	0.698199	0	1	0	0	CorrectCommission	0.741938	0.493941	1	1
199.430786	0.795800	mountain	10	0	0.000000	0.657303	1	0	0	0	CorrectOmission	0.260533	0.485555	1	1
200.226532	0.795694	city	3	1	0.606860	0.606860	0	1	0	0	CorrectCommission	0.333251	0.488379	1	1
201.022385	0.796020	mountain	6	0	0.000000	0.627775	1	0	0	0	CorrectOmission	0.087052	0.501231	1	1
201.818237	0.795674	city	10	1	0.661267	0.661267	0	1	0	0	CorrectCommission	0.307206	0.522180	1	1
202.614029	0.795929	city	7	1	0.648558	0.648558	0	1	0	0	CorrectCommission	0.157598	0.548716	1	1
203.409897	0.795802	city	6	1	0.747904	0.747904	0	1	0	0	CorrectCommission	1.327038	0.577996	1	1
204.205704	0.795802	city	10	1	0.611981	0.611981	0	1	0	0	CorrectCommission	0.272959	0.607075	1	1
205.001434	0.795650	city	4	1	0.613574	0.613574	0	1	0	0	CorrectCommission	0.254209	0.633239	1	1
205.797119	0.795740	mountain	7	0	0.000000	0.741086	1	0	0	0	CorrectOmission	1.246782	0.654175	1	1
206.592896	0.795796	city	6	1	0.814619	0.814619	0	1	0	0	CorrectCommission	2.112369	0.668199	1	1
207.388794	0.796020	city	4	1	0.654276	0.654276	0	1	0	0	CorrectCommission	0.224911	0.674349	1	1
208.184708	0.795803	city	7	1	0.648860	0.648860	0	1	0	0	CorrectCommission	0.161149	0.672450	1	1
208.980408	0.795585	city	6	1	0.754757	0.754757	0	1	0	0	CorrectCommission	1.407708	0.663055	1	1
209.776093	0.795803	city	7	1	0.699328	0.699328	0	1	0	0	CorrectCommission	0.755237	0.647292	1	1
210.571899	0.795799	city	6	1	0.698520	0.698520	0	1	0	0	CorrectCommission	0.745726	0.626746	1	1
211.367752	0.795909	city	2	1	0.648691	0.648691	0	1	0	0	CorrectCommission	0.159169	0.603257	1	1
212.163666	0.795912	city	1	1	0.614821	0.614821	0	1	0	0	CorrectCommission	0.239538	0.578776	1	1
212.959412	0.795585	mountain	9	0	0.000000	0.571749	1	0	0	0	CorrectOmission	0.746549	0.555189	1	1
213.755112	0.795802	city	10	1	0.567163	0.567163	0	1	0	0	CorrectCommission	0.800531	0.534210	1	1
214.550903	0.795803	city	9	1	0.648749	0.648749	0	1	0	0	CorrectCommission	0.159849	0.517303	1	1
215.346710	0.795798	mountain	9	0	0.000000	0.677029	1	0	0	0	CorrectOmission	0.492742	0.505629	1	1
216.142624	0.796020	city	9	1	0.648660	0.648660	0	1	0	0	CorrectCommission	0.158794	0.499921	1	1
216.938416	0.795587	city	1	1	0.560298	0.560298	0	1	0	0	CorrectCommission	0.881352	0.500489	1	1
217.734116	0.795800	city	7	1	0.599342	0.599342	0	1	0	0	CorrectCommission	0.421739	0.507112	1	1
218.529907	0.795800	city	3	1	0.648811	0.648811	0	1	0	0	CorrectCommission	0.160571	0.519072	1	1
219.325745	0.795867	city	2	1	0.648734	0.648734	0	1	0	0	CorrectCommission	0.159674	0.535112	1	1
220.121552	0.795736	city	9	0	0.000000	0.649734	0	0	0	1	OmissionError	0.171445	0.553532	1	1
220.917343	0.795865	city	5	1	0.612977	0.612977	0	1	0	0	CorrectCommission	0.261244	0.572320	1	1
221.713257	0.795957	city	4	1	0.499628	0.499628	0	1	0	0	CorrectCommission	1.595519	0.589411	1	1
222.509048	0.795622	city	1	1	0.666142	0.666142	0	1	0	0	CorrectCommission	0.364588	0.602873	1	1
223.304749	0.795792	city	4	1	0.698327	0.698327	0	1	0	0	CorrectCommission	0.743446	0.611261	1	1
224.100647	0.795991	city	5	1	0.748211	0.748211	0	1	0	0	CorrectCommission	1.330658	0.613750	1	1
224.896545	0.795804	city	9	1	0.747943	0.747943	0	1	0	0	CorrectCommission	1.327503	0.610298	1	1
225.692291	0.795690	city	6	1	0.698400	0.698400	0	1	0	0	CorrectCommission	0.744313	0.601653	1	1
226.488037	0.795804	city	7	1	0.615596	0.615596	0	1	0	0	CorrectCommission	0.230416	0.589197	1	1
227.283829	0.795787	city	4	1	0.648833	0.648833	0	1	0	0	CorrectCommission	0.160838	0.574726	1	1
228.079636	0.795816	city	6	1	0.648518	0.648518	0	1	0	0	CorrectCommission	0.157130	0.560178	1	1
228.875397	0.795707	city	9	1	0.600090	0.600090	0	1	0	0	CorrectCommission	0.412937	0.547340	1	1
229.671249	0.796005	city	4	1	0.598883	0.598883	0	1	0	0	CorrectCommission	0.427142	0.537628	1	1
230.467041	0.795584	city	5	1	0.549433	0.549433	0	1	0	0	CorrectCommission	1.009238	0.531941	1	1
231.262848	0.796017	city	9	1	0.665267	0.665267	0	1	0	0	CorrectCommission	0.354289	0.530606	1	1
232.058655	0.795586	city	2	1	0.598774	0.598774	0	1	0	0	CorrectCommission	0.428432	0.533438	1	1
232.854446	0.796018	mountain	7	0	0.000000	0.645576	1	0	0	0	CorrectOmission	0.122495	0.539785	1	1
233.650253	0.795585	city	1	1	0.698274	0.698274	0	1	0	0	CorrectCommission	0.742827	0.548739	1	1
234.445938	0.795800	city	9	1	0.649469	0.649469	0	1	0	0	CorrectCommission	0.168326	0.559279	1	1
235.241745	0.795800	city	3	1	0.599041	0.599041	0	1	0	0	CorrectCommission	0.425289	0.570538	1	1
236.037582	0.795866	mountain	8	0	0.000000	0.714875	1	0	0	0	CorrectOmission	0.938248	0.581942	1	1
236.833374	0.795738	city	10	1	0.797883	0.797883	0	1	0	0	CorrectCommission	1.915362	0.593343	1	1
237.629150	0.795806	city	1	1	0.648973	0.648973	0	1	0	0	CorrectCommission	0.162479	0.605041	1	1
238.424957	0.795797	mountain	1	0	0.000000	0.657433	1	0	0	0	CorrectOmission	0.262074	0.617788	1	1
239.220856	0.796019	city	8	1	0.698750	0.698750	0	1	0	0	CorrectCommission	0.748431	0.632508	1	1
240.016663	0.795583	city	6	1	0.648408	0.648408	0	1	0	0	CorrectCommission	0.155835	0.650124	1	1
240.812408	0.795911	city	7	1	0.598899	0.598899	0	1	0	0	CorrectCommission	0.426961	0.671294	1	1
241.608231	0.795713	city	1	1	0.558688	0.558688	0	1	0	0	CorrectCommission	0.900294	0.696156	1	1
242.404083	0.796000	mountain	7	0	0.000000	0.663431	1	0	0	0	CorrectOmission	0.332678	0.724182	0	1
243.199875	0.795584	city	7	1	0.748428	0.748428	0	1	0	0	CorrectCommission	1.333205	0.754158	0	1
243.995667	0.796020	city	2	1	0.648978	0.648978	0	1	0	0	CorrectCommission	0.162536	0.784220	0	1
244.791473	0.795582	city	6	1	0.648810	0.648810	0	1	0	0	CorrectCommission	0.160568	0.812109	0	1
245.587173	0.795820	city	2	1	0.598944	0.598944	0	1	0	0	CorrectCommission	0.426425	0.835458	0	1
246.382980	0.795787	city	8	1	0.802276	0.802276	0	1	0	0	CorrectCommission	1.967079	0.852141	0	1
247.178787	0.795820	city	9	1	0.798347	0.798347	0	1	0	0	CorrectCommission	1.920831	0.860630	0	0
247.974579	0.795780	city	3	1	0.764378	0.764378	0	1	0	0	CorrectCommission	1.520965	0.860293	0	0
248.770477	0.796020	city	7	1	0.748576	0.748576	0	1	0	0	CorrectCommission	1.334948	0.851491	0	0
249.566284	0.795584	city	5	1	0.705903	0.705903	0	1	0	0	CorrectCommission	0.832626	0.835489	0	0
250.362000	0.795843	city	2	1	0.598893	0.598893	0	1	0	0	CorrectCommission	0.427030	0.814237	0	0
251.157913	0.795977	mountain	2	0	0.000000	0.619154	1	0	0	0	CorrectOmission	0.188527	0.790019	0	0
251.953751	0.795692	city	6	1	0.657077	0.657077	0	1	0	0	CorrectCommission	0.257883	0.765095	0	0
252.749435	0.795695	city	4	1	0.603054	0.603054	0	1	0	0	CorrectCommission	0.378052	0.741376	0	0
253.545181	0.795801	mountain	10	0	0.000000	0.697137	1	0	0	0	CorrectOmission	0.729445	0.720243	0	0
254.341095	0.796017	city	1	1	0.748385	0.748385	0	1	0	0	CorrectCommission	1.332706	0.702466	1	0
255.136948	0.795692	city	5	1	0.565855	0.565855	0	1	0	0	CorrectCommission	0.815935	0.688290	1	0
255.932648	0.795692	city	9	1	0.610732	0.610732	0	1	0	0	CorrectCommission	0.287668	0.677583	1	0
256.728485	0.796022	city	2	1	0.598884	0.598884	0	1	0	0	CorrectCommission	0.427137	0.669992	1	0
257.524292	0.795584	city	7	1	0.555743	0.555743	0	1	0	0	CorrectCommission	0.934961	0.665111	1	0
258.320007	0.795799	city	5	1	0.558690	0.558690	0	1	0	0	CorrectCommission	0.900280	0.662575	1	0
259.115814	0.795866	city	8	1	0.549854	0.549854	0	1	0	0	CorrectCommission	1.004287	0.662111	1	0
259.911621	0.795740	mountain	6	0	0.000000	0.633683	1	0	0	0	CorrectOmission	0.017507	0.663521	1	0
260.707520	0.796018	city	3	1	0.702438	0.702438	0	1	0	0	CorrectCommission	0.791845	0.666588	1	0
261.503326	0.795624	city	8	1	0.648384	0.648384	0	1	0	0	CorrectCommission	0.155555	0.670982	1	0
262.299011	0.795765	city	4	1	0.598862	0.598862	0	1	0	0	CorrectCommission	0.427396	0.676209	1	0
263.094910	0.796016	city	10	1	0.553231	0.553231	0	1	0	0	CorrectCommission	0.964541	0.681551	1	0
263.890778	0.795691	city	1	1	0.548923	0.548923	0	1	0	0	CorrectCommission	1.015246	0.686063	1	0
264.686554	0.795912	city	3	1	0.549078	0.549078	0	1	0	0	CorrectCommission	1.013424	0.688670	1	0
265.482330	0.795585	city	8	1	0.598703	0.598703	0	1	0	0	CorrectCommission	0.429270	0.688276	1	0
266.278046	0.795868	city	10	1	0.561635	0.561635	0	1	0	0	CorrectCommission	0.865606	0.683885	1	0
267.073853	0.795745	city	1	1	0.598931	0.598931	0	1	0	0	CorrectCommission	0.426587	0.674724	1	0
267.869659	0.795857	city	8	1	0.598890	0.598890	0	1	0	0	CorrectCommission	0.427065	0.660422	1	0
268.665436	0.795739	city	4	1	0.549454	0.549454	0	1	0	0	CorrectCommission	1.008993	0.641060	1	0
269.461334	0.796016	city	10	1	0.507082	0.507082	0	1	0	0	CorrectCommission	1.507772	0.617241	1	0
270.257141	0.795644	city	2	1	0.553081	0.553081	0	1	0	0	CorrectCommission	0.966305	0.590068	1	0
271.052948	0.795960	city	3	1	0.648700	0.648700	0	1	0	0	CorrectCommission	0.159268	0.561098	1	0
271.848785	0.795692	city	10	1	0.610845	0.610845	0	1	0	0	CorrectCommission	0.286333	0.532148	1	0
272.644470	0.795693	city	4	1	0.598763	0.598763	0	1	0	0	CorrectCommission	0.428563	0.505089	1	0
273.440247	0.795830	mountain	6	0	0.000000	0.627553	1	0	0	0	CorrectOmission	0.089664	0.481636	1	0
274.236053	0.795778	city	7	1	0.662738	0.662738	0	1	0	0	CorrectCommission	0.324515	0.463192	1	0
275.031830	0.795798	mountain	2	0	0.000000	0.669841	1	0	0	0	CorrectOmission	0.408126	0.450642	1	0
275.827637	0.795806	city	4	1	0.648634	0.648634	0	1	0	0	CorrectCommission	0.158496	0.444334	1	0
276.623444	0.795801	city	10	1	0.598891	0.598891	0	1	0	0	CorrectCommission	0.427048	0.444137	1	0
277.419250	0.795847	city	7	1	0.649220	0.649220	0	1	0	0	CorrectCommission	0.165390	0.449508	1	0
278.215057	0.795755	city	6	1	0.598862	0.598862	0	1	0	0	CorrectCommission	0.427395	0.459664	1	0
279.010834	0.795796	city	7	1	0.563810	0.563810	0	1	0	0	CorrectCommission	0.840001	0.473744	1	0
279.806641	0.795805	city	4	1	0.598975	0.598975	0	1	0	0	CorrectCommission	0.426066	0.490953	1	0
280.602478	0.795908	city	1	1	0.549116	0.549116	0	1	0	0	CorrectCommission	1.012975	0.510690	1	0
281.398407	0.795913	city	5	1	0.648878	0.648878	0	1	0	0	CorrectCommission	0.161367	0.532546	1	0
282.194214	0.795692	city	7	1	0.613642	0.613642	0	1	0	0	CorrectCommission	0.253408	0.556324	1	0
282.989960	0.795800	city	8	1	0.549585	0.549585	0	1	0	0	CorrectCommission	1.007458	0.581947	1	0
283.785767	0.795801	mountain	4	0	0.000000	0.621501	1	0	0	0	CorrectOmission	0.160901	0.609342	1	0
284.581512	0.795730	city	8	1	0.698256	0.698256	0	1	0	0	CorrectCommission	0.742616	0.638393	1	0
285.377258	0.795765	city	2	1	0.648715	0.648715	0	1	0	0	CorrectCommission	0.159447	0.668809	1	0
286.173065	0.795805	city	9	1	0.714492	0.714492	0	1	0	0	CorrectCommission	0.933738	0.700151	1	0
286.968964	0.796016	city	2	1	0.710365	0.710365	0	1	0	0	CorrectCommission	0.885152	0.731803	0	0
287.764862	0.795802	city	10	1	0.698154	0.698154	0	1	0	0	CorrectCommission	0.741417	0.763090	0	0
288.560577	0.795587	city	2	1	0.662804	0.662804	0	1	0	0	CorrectCommission	0.325294	0.793383	0	0
289.356293	0.795864	city	9	1	0.799338	0.799338	0	1	0	0	CorrectCommission	1.932493	0.822185	0	0
290.152100	0.795739	city	4	1	0.710577	0.710577	0	1	0	0	CorrectCommission	0.887651	0.849151	0	0
290.947876	0.795836	city	5	1	0.649027	0.649027	0	1	0	0	CorrectCommission	0.163118	0.874212	0	0
291.743774	0.795983	city	1	1	0.504531	0.504531	0	1	0	0	CorrectCommission	1.537805	0.897493	0	0
292.539612	0.795693	city	9	1	0.599754	0.599754	0	1	0	0	CorrectCommission	0.416895	0.919206	0	0
293.335327	0.795694	city	5	1	0.549506	0.549506	0	1	0	0	CorrectCommission	1.008382	0.939643	0	0
294.131073	0.795802	city	1	1	0.549449	0.549449	0	1	0	0	CorrectCommission	1.009054	0.958952	0	0
294.926910	0.795908	city	4	1	0.549757	0.549757	0	1	0	0	CorrectCommission	1.005431	0.977068	0	0
295.722748	0.795767	city	10	1	0.511076	0.511076	0	1	0	0	CorrectCommission	1.460755	0.993599	0	0
296.518494	0.795728	city	4	1	0.549031	0.549031	0	1	0	0	CorrectCommission	1.013972	1.007749	0	0
297.314301	0.795830	mountain	3	0	0.000000	0.618455	1	0	0	0	CorrectOmission	0.196756	1.018372	0	0
298.110077	0.795772	mountain	10	0	0.000000	0.693619	1	0	0	0	CorrectOmission	0.688029	1.024020	0	0
298.905975	0.796020	city	5	1	0.748794	0.748794	0	1	0	0	CorrectCommission	1.337518	1.023110	0	0
299.701782	0.795584	mountain	5	0	0.000000	0.758252	1	0	0	0	CorrectOmission	1.448847	1.014152	0	0
300.497498	0.795841	city	4	1	0.758070	0.758070	0	1	0	0	CorrectCommission	1.446703	0.996011	0	0
301.293304	0.795766	mountain	5	0	0.000000	0.784325	1	0	0	0	CorrectOmission	1.755770	0.968166	0	0
302.089142	0.795907	city	4	1	0.758656	0.758656	0	1	0	0	CorrectCommission	1.453605	0.930824	0	0
302.885040	0.795910	city	2	1	0.602698	0.602698	0	1	0	0	CorrectCommission	0.382235	0.885101	0	0
303.680786	0.795584	city	6	1	0.566938	0.566938	0	1	0	0	CorrectCommission	0.803188	0.832856	0	0
304.476501	0.795803	city	5	1	0.549152	0.549152	0	1	0	0	CorrectCommission	1.012549	0.776566	0	0
305.272278	0.795806	city	10	1	0.552069	0.552069	0	1	0	0	CorrectCommission	0.978216	0.719125	0	0
306.068085	0.795794	city	7	1	0.649070	0.649070	0	1	0	0	CorrectCommission	0.163621	0.663569	1	0
306.864014	0.796022	mountain	1	1	0.608970	0.608970	0	0	1	0	CommissionError	0.308405	0.612803	1	1
307.659790	0.795581	city	3	1	0.615097	0.615097	0	1	0	0	CorrectCommission	0.236289	0.569365	1	1
308.455505	0.795803	city	10	1	0.598975	0.598975	0	1	0	0	CorrectCommission	0.426064	0.535270	1	1
309.251312	0.795820	city	7	1	0.660805	0.660805	0	1	0	0	CorrectCommission	0.301757	0.511845	1	1
310.047119	0.795789	city	9	1	0.648674	0.648674	0	1	0	0	CorrectCommission	0.158966	0.499731	1	1
310.842896	0.795798	city	3	1	0.598869	0.598869	0	1	0	0	CorrectCommission	0.427306	0.498835	1	1
311.638702	0.795801	city	4	1	0.598938	0.598938	0	1	0	0	CorrectCommission	0.426504	0.508378	1	1
312.434509	0.795801	city	5	1	0.567706	0.567706	0	1	0	0	CorrectCommission	0.794139	0.526932	1	1
313.230347	0.795910	city	3	1	0.599024	0.599024	0	1	0	0	CorrectCommission	0.425485	0.552495	1	1
314.026154	0.795694	city	5	1	0.606718	0.606718	0	1	0	0	CorrectCommission	0.334918	0.582594	1	1
314.821960	0.795907	city	8	1	0.649014	0.649014	0	1	0	0	CorrectCommission	0.162970	0.614446	1	1
315.617798	0.795755	city	1	1	0.649753	0.649753	0	1	0	0	CorrectCommission	0.171660	0.645148	1	1
316.413544	0.795742	city	4	1	0.698336	0.698336	0	1	0	0	CorrectCommission	0.743558	0.671940	1	1
317.209412	0.796017	city	2	1	0.657615	0.657615	0	1	0	0	CorrectCommission	0.264207	0.692503	1	1
318.005341	0.795803	city	9	1	0.953623	0.953623	0	1	0	0	CorrectCommission	3.748645	0.705272	0	1
318.801056	0.795643	city	4	1	0.698327	0.698327	0	1	0	0	CorrectCommission	0.743443	0.709521	0	1
319.596741	0.795740	mountain	10	0	0.000000	0.664481	1	0	0	0	CorrectOmission	0.345038	0.705628	0	1
320.392517	0.795810	city	4	1	0.698957	0.698957	0	1	0	0	CorrectCommission	0.750870	0.694852	1	1
321.188446	0.796012	city	8	1	0.648625	0.648625	0	1	0	0	CorrectCommission	0.158383	0.679105	1	1
321.984222	0.795589	city	4	1	0.703236	0.703236	0	1	0	0	CorrectCommission	0.801236	0.660654	1	1
322.779968	0.795906	city	5	1	0.698643	0.698643	0	1	0	0	CorrectCommission	0.747165	0.641712	1	1
323.575775	0.795693	city	7	1	0.656106	0.656106	0	1	0	0	CorrectCommission	0.246448	0.624154	1	1
324.371521	0.795801	city	6	1	0.651317	0.651317	0	1	0	0	CorrectCommission	0.190079	0.609249	1	1
325.167328	0.795800	city	9	1	0.648640	0.648640	0	1	0	0	CorrectCommission	0.158559	0.597543	1	1
325.963135	0.795805	city	8	1	0.649124	0.649124	0	1	0	0	CorrectCommission	0.164258	0.588901	1	1
326.758942	0.795824	city	9	1	0.748717	0.748717	0	1	0	0	CorrectCommission	1.336612	0.582642	1	1
327.554749	0.795776	city	7	1	0.698366	0.698366	0	1	0	0	CorrectCommission	0.743905	0.577736	1	1
328.350525	0.795808	city	6	1	0.748124	0.748124	0	1	0	0	CorrectCommission	1.329634	0.573079	1	1
329.146484	0.796068	city	9	1	0.607983	0.607983	0	1	0	0	CorrectCommission	0.320029	0.567647	1	1
329.942322	0.795639	city	5	1	0.598657	0.598657	0	1	0	0	CorrectCommission	0.429806	0.560676	1	1
330.738007	0.795694	city	8	1	0.599435	0.599435	0	1	0	0	CorrectCommission	0.420645	0.551699	1	1
331.533752	0.795800	city	6	1	0.599292	0.599292	0	1	0	0	CorrectCommission	0.422331	0.540583	1	1
332.329590	0.795912	city	5	1	0.605780	0.605780	0	1	0	0	CorrectCommission	0.345959	0.527523	1	1
333.125397	0.795707	city	8	1	0.698678	0.698678	0	1	0	0	CorrectCommission	0.747580	0.513033	1	1
333.921143	0.795784	city	7	1	0.698297	0.698297	0	1	0	0	CorrectCommission	0.743095	0.497906	1	1
334.717041	0.796020	city	3	1	0.649099	0.649099	0	1	0	0	CorrectCommission	0.163961	0.483238	1	1
335.512909	0.795692	city	6	1	0.702542	0.702542	0	1	0	0	CorrectCommission	0.793063	0.470311	1	1
336.308594	0.795694	city	5	1	0.562065	0.562065	0	1	0	0	CorrectCommission	0.860550	0.460561	1	1
337.104462	0.796019	city	9	1	0.648626	0.648626	0	1	0	0	CorrectCommission	0.158396	0.455434	1	1
337.900269	0.795591	city	5	1	0.648418	0.648418	0	1	0	0	CorrectCommission	0.155949	0.456157	1	1
338.696075	0.796012	city	1	1	0.663082	0.663082	0	1	0	0	CorrectCommission	0.328564	0.463543	1	1
339.491852	0.795585	city	8	1	0.652234	0.652234	0	1	0	0	CorrectCommission	0.200871	0.477756	1	1
340.287598	0.795909	mountain	6	0	0.000000	0.648448	1	0	0	0	CorrectOmission	0.156301	0.498201	1	1
341.083435	0.795719	city	4	1	0.648545	0.648545	0	1	0	0	CorrectCommission	0.157442	0.523516	1	1
341.879272	0.795995	city	6	1	0.649346	0.649346	0	1	0	0	CorrectCommission	0.166879	0.551675	1	1
342.675079	0.795581	city	9	1	0.655083	0.655083	0	1	0	0	CorrectCommission	0.234411	0.580249	1	1
343.470764	0.795805	mountain	8	0	0.000000	0.710164	1	0	0	0	CorrectOmission	0.882786	0.606771	1	1
344.266663	0.796019	city	6	1	0.766259	0.766259	0	1	0	0	CorrectCommission	1.543104	0.629070	1	1
345.062469	0.795584	mountain	6	0	0.000000	0.775040	1	0	0	0	CorrectOmission	1.646465	0.645646	1	1
345.858185	0.795805	city	1	1	0.748427	0.748427	0	1	0	0	CorrectCommission	1.333192	0.655847	1	1
346.653961	0.795799	city	8	1	0.698341	0.698341	0	1	0	0	CorrectCommission	0.743610	0.659904	1	1
347.449768	0.795800	city	2	1	0.649124	0.649124	0	1	0	0	CorrectCommission	0.164266	0.658738	1	1
348.245575	0.795812	city	8	1	0.658416	0.658416	0	1	0	0	CorrectCommission	0.273643	0.653684	1	1
349.041382	0.795808	city	10	1	0.605751	0.605751	0	1	0	0	CorrectCommission	0.346299	0.646116	1	1
349.837250	0.795893	city	1	1	0.648809	0.648809	0	1	0	0	CorrectCommission	0.160549	0.637128	1	1
350.633057	0.795739	city	4	1	0.605905	0.605905	0	1	0	0	CorrectCommission	0.344488	0.627377	1	1
351.428802	0.795761	city	1	1	0.602743	0.602743	0	1	0	0	CorrectCommission	0.381712	0.617062	1	1
352.224579	0.795799	city	9	1	0.748255	0.748255	0	1	0	0	CorrectCommission	1.331173	0.606062	1	1
353.020416	0.795850	city	1	1	0.698340	0.698340	0	1	0	0	CorrectCommission	0.743608	0.594158	1	1
353.816223	0.795755	city	6	1	0.762416	0.762416	0	1	0	0	CorrectCommission	1.497867	0.581323	1	1
354.612030	0.795906	city	4	1	0.699006	0.699006	0	1	0	0	CorrectCommission	0.751443	0.567911	1	1
355.407837	0.795698	city	9	1	0.649172	0.649172	0	1	0	0	CorrectCommission	0.164831	0.554782	1	1
356.203644	0.795904	city	10	1	0.599882	0.599882	0	1	0	0	CorrectCommission	0.415385	0.543222	1	1
356.999451	0.795696	city	9	1	0.648555	0.648555	0	1	0	0	CorrectCommission	0.157560	0.534775	1	1
357.795227	0.795848	city	10	1	0.663438	0.663438	0	1	0	0	CorrectCommission	0.332762	0.530990	1	1
358.591034	0.795764	city	2	1	0.698341	0.698341	0	1	0	0	CorrectCommission	0.743617	0.533108	1	1
359.386810	0.795789	city	5	1	0.649095	0.649095	0	1	0	0	CorrectCommission	0.163913	0.541802	1	1
360.182587	0.795808	city	7	1	0.649154	0.649154	0	1	0	0	CorrectCommission	0.164616	0.557042	1	1
360.978394	0.795794	city	5	1	0.653862	0.653862	0	1	0	0	CorrectCommission	0.220039	0.578024	1	1
361.774200	0.795805	city	7	1	0.601718	0.601718	0	1	0	0	CorrectCommission	0.393772	0.603267	1	1
362.570007	0.795800	city	9	1	0.653866	0.653866	0	1	0	0	CorrectCommission	0.220076	0.630847	1	1
363.365845	0.795910	mountain	4	0	0.000000	0.758912	1	0	0	0	CorrectOmission	1.456619	0.658667	1	1
364.161652	0.795696	city	4	1	0.798568	0.798568	0	1	0	0	CorrectCommission	1.923425	0.684741	1	1
364.957458	0.795908	city	7	1	0.654544	0.654544	0	1	0	0	CorrectCommission	0.228062	0.707488	0	1
365.753296	0.795766	city	10	1	0.648523	0.648523	0	1	0	0	CorrectCommission	0.157186	0.725914	0	1
366.549072	0.795753	city	7	1	0.763383	0.763383	0	1	0	0	CorrectCommission	1.509254	0.739597	0	0
367.344818	0.795777	city	10	1	0.710877	0.710877	0	1	0	0	CorrectCommission	0.891180	0.748630	0	0
368.140625	0.795802	city	6	1	0.748207	0.748207	0	1	0	0	CorrectCommission	1.330612	0.753503	0	0
368.936523	0.796019	city	10	1	0.648769	0.648769	0	1	0	0	CorrectCommission	0.160078	0.754842	0	0
369.732330	0.795585	city	8	1	0.667302	0.667302	0	1	0	0	CorrectCommission	0.378236	0.753236	0	0
370.528015	0.795803	city	2	1	0.610240	0.610240	0	1	0	0	CorrectCommission	0.293454	0.749048	0	0
371.323853	0.795861	city	3	1	0.649332	0.649332	0	1	0	0	CorrectCommission	0.166705	0.742375	0	0
372.119659	0.795741	city	10	1	0.748051	0.748051	0	1	0	0	CorrectCommission	1.328774	0.733141	0	0
372.915466	0.795873	mountain	1	0	0.000000	0.770549	1	0	0	0	CorrectOmission	1.593605	0.721124	0	0
373.711273	0.795731	mountain	5	0	0.000000	0.744746	1	0	0	0	CorrectOmission	1.289861	0.706176	0	0
374.507019	0.795799	city	3	1	0.698561	0.698561	0	1	0	0	CorrectCommission	0.746208	0.688366	1	0
375.302826	0.795801	city	8	1	0.659917	0.659917	0	1	0	0	CorrectCommission	0.291308	0.668058	1	0
376.098633	0.795804	mountain	10	0	0.000000	0.608617	1	0	0	0	CorrectOmission	0.312569	0.645916	1	0
376.894531	0.796018	city	1	1	0.604808	0.604808	0	1	0	0	CorrectCommission	0.357400	0.622855	1	0
377.690338	0.795586	city	6	1	0.708639	0.708639	0	1	0	0	CorrectCommission	0.864838	0.599946	1	0
378.486084	0.795912	city	8	1	0.601670	0.601670	0	1	0	0	CorrectCommission	0.394336	0.578305	1	0
379.282013	0.795906	city	4	1	0.698286	0.698286	0	1	0	0	CorrectCommission	0.742963	0.558946	1	0
380.077759	0.795635	city	6	1	0.698475	0.698475	0	1	0	0	CorrectCommission	0.745190	0.542679	1	0
380.873566	0.795968	city	1	1	0.598953	0.598953	0	1	0	0	CorrectCommission	0.426327	0.530021	1	0
381.669342	0.795592	city	2	1	0.648617	0.648617	0	1	0	0	CorrectCommission	0.158292	0.521145	1	0
382.465057	0.795831	city	8	1	0.599197	0.599197	0	1	0	0	CorrectCommission	0.423451	0.515870	1	0
383.260895	0.795808	mountain	2	0	0.000000	0.617651	1	0	0	0	CorrectOmission	0.206226	0.513676	1	0
384.056763	0.795976	city	3	1	0.663966	0.663966	0	1	0	0	CorrectCommission	0.338973	0.513772	1	0
384.852570	0.795585	city	9	1	0.698132	0.698132	0	1	0	0	CorrectCommission	0.741150	0.515240	1	0
385.648315	0.795908	city	7	1	0.649152	0.649152	0	1	0	0	CorrectCommission	0.164586	0.517167	1	0
386.444092	0.795692	city	10	1	0.603907	0.603907	0	1	0	0	CorrectCommission	0.368012	0.518882	1	0
387.239899	0.795913	city	6	1	0.847686	0.847686	0	1	0	0	CorrectCommission	2.501616	0.520021	1	0
388.035706	0.795694	city	4	1	0.651060	0.651060	0	1	0	0	CorrectCommission	0.187050	0.520568	1	0
388.831482	0.795820	mountain	2	0	0.000000	0.625370	1	0	0	0	CorrectOmission	0.115354	0.520973	1	0
389.627319	0.795890	city	6	1	0.648614	0.648614	0	1	0	0	CorrectCommission	0.158253	0.521933	1	0
390.423126	0.795692	city	2	1	0.598786	0.598786	0	1	0	0	CorrectCommission	0.428284	0.524330	1	0
391.218964	0.796020	city	8	1	0.613251	0.613251	0	1	0	0	CorrectCommission	0.258012	0.529084	1	0
392.014771	0.795587	city	2	1	0.649043	0.649043	0	1	0	0	CorrectCommission	0.163312	0.537050	1	0
392.810455	0.795801	city	10	1	0.648653	0.648653	0	1	0	0	CorrectCommission	0.158713	0.548918	1	0
393.606384	0.796018	city	6	1	0.797844	0.797844	0	1	0	0	CorrectCommission	1.914903	0.565135	1	0
394.402191	0.795586	city	1	1	0.598680	0.598680	0	1	0	0	CorrectCommission	0.429537	0.585844	1	0
395.197876	0.795809	city	3	1	0.613208	0.613208	0	1	0	0	CorrectCommission	0.258518	0.610921	1	0
395.993683	0.795792	city	1	1	0.598881	0.598881	0	1	0	0	CorrectCommission	0.427172	0.639873	1	0
396.789459	0.795799	city	10	1	0.698775	0.698775	0	1	0	0	CorrectCommission	0.748720	0.671767	1	0
397.585266	0.795806	city	4	1	0.649045	0.649045	0	1	0	0	CorrectCommission	0.163332	0.705266	0	0
398.381073	0.795796	city	6	1	0.565273	0.565273	0	1	0	0	CorrectCommission	0.822785	0.738679	0	0
399.176910	0.795855	city	8	1	0.698376	0.698376	0	1	0	0	CorrectCommission	0.744030	0.770018	0	0
399.972748	0.795814	city	5	0	0.000000	0.687053	0	0	0	1	OmissionError	0.610740	0.797266	0	0
400.768524	0.795767	city	7	1	0.598832	0.598832	0	1	0	0	CorrectCommission	0.427746	0.818613	0	0
401.564301	0.795773	city	4	0	0.000000	0.501242	0	0	0	1	OmissionError	1.576523	0.832746	0	0
402.360107	0.795849	city	10	1	0.449690	0.449690	0	1	0	0	CorrectCommission	2.183360	0.839045	0	0
403.155914	0.795764	city	1	1	0.499585	0.499585	0	1	0	0	CorrectCommission	1.596025	0.837760	0	0
403.951752	0.795901	mountain	1	0	0.000000	0.563790	1	0	0	0	CorrectOmission	0.840244	0.829963	0	0
404.747589	0.795801	city	10	1	0.608381	0.608381	0	1	0	0	CorrectCommission	0.315344	0.817318	0	0
405.543457	0.795911	city	1	1	0.599435	0.599435	0	1	0	0	CorrectCommission	0.420650	0.801813	0	0
406.339203	0.795613	city	6	1	0.599338	0.599338	0	1	0	0	CorrectCommission	0.421795	0.785345	0	0
407.134918	0.795774	mountain	1	0	0.000000	0.664457	1	0	0	0	CorrectOmission	0.344757	0.769390	0	0
407.930695	0.795819	city	4	1	0.698355	0.698355	0	1	0	0	CorrectCommission	0.743782	0.754751	0	0
408.726532	0.795834	city	7	1	0.604592	0.604592	0	1	0	0	CorrectCommission	0.359942	0.741473	0	0
409.522369	0.795858	city	1	1	0.566460	0.566460	0	1	0	0	CorrectCommission	0.808813	0.728933	0	0
410.318207	0.795786	city	9	1	0.554750	0.554750	0	1	0	0	CorrectCommission	0.946658	0.716041	0	0
411.113953	0.795707	city	10	1	0.499373	0.499373	0	1	0	0	CorrectCommission	1.598516	0.701524	1	0
411.909698	0.795805	city	6	1	0.649125	0.649125	0	1	0	0	CorrectCommission	0.164269	0.684282	1	0
412.705536	0.795833	city	1	1	0.549163	0.549163	0	1	0	0	CorrectCommission	1.012419	0.663675	1	0
413.501312	0.795771	city	8	1	0.513599	0.513599	0	1	0	0	CorrectCommission	1.431061	0.639622	1	0
414.297119	0.795807	city	1	1	0.648609	0.648609	0	1	0	0	CorrectCommission	0.158195	0.612679	1	0
415.092926	0.795802	city	6	1	0.698635	0.698635	0	1	0	0	CorrectCommission	0.747069	0.584045	1	0
415.888824	0.796011	city	1	1	0.648626	0.648626	0	1	0	0	CorrectCommission	0.158393	0.555271	1	0
416.684723	0.795801	city	6	1	0.648413	0.648413	0	1	0	0	CorrectCommission	0.155888	0.528143	1	0
417.480438	0.795645	city	2	1	0.599062	0.599062	0	1	0	0	CorrectCommission	0.425040	0.504429	1	0
418.276154	0.795739	city	3	1	0.558057	0.558057	0	1	0	0	CorrectCommission	0.907722	0.485666	1	0
419.071930	0.795810	city	6	1	0.648649	0.648649	0	1	0	0	CorrectCommission	0.158674	0.473014	1	0
419.867828	0.796014	city	7	1	0.600995	0.600995	0	1	0	0	CorrectCommission	0.402282	0.467186	1	0
420.663666	0.795627	city	6	1	0.617260	0.617260	0	1	0	0	CorrectCommission	0.210828	0.468388	1	0
421.459442	0.795976	city	7	1	0.649090	0.649090	0	1	0	0	CorrectCommission	0.163858	0.476385	1	0
422.255280	0.795691	city	3	1	0.603049	0.603049	0	1	0	0	CorrectCommission	0.378104	0.490587	1	0
423.051025	0.795759	city	1	1	0.652296	0.652296	0	1	0	0	CorrectCommission	0.201604	0.510190	1	0
423.846802	0.795847	city	6	1	0.698413	0.698413	0	1	0	0	CorrectCommission	0.744459	0.534315	1	0
424.642700	0.795909	city	9	1	0.698855	0.698855	0	1	0	0	CorrectCommission	0.749662	0.562161	1	0
425.438538	0.795803	mountain	2	0	0.000000	0.697297	1	0	0	0	CorrectOmission	0.731319	0.593137	1	0
426.234253	0.795587	city	1	1	0.698142	0.698142	0	1	0	0	CorrectCommission	0.741275	0.626898	1	1
427.029938	0.795799	city	2	1	0.705796	0.705796	0	1	0	0	CorrectCommission	0.831371	0.663317	1	1
427.825745	0.795801	city	9	1	0.661191	0.661191	0	1	0	0	CorrectCommission	0.306305	0.702390	1	1
428.621552	0.795805	city	10	1	0.561300	0.561300	0	1	0	0	CorrectCommission	0.869548	0.744065	0	1
429.417328	0.795801	mountain	8	0	0.000000	0.656244	1	0	0	0	CorrectOmission	0.248075	0.788067	0	1
430.213135	0.795796	city	2	1	0.750528	0.750528	0	1	0	0	CorrectCommission	1.357925	0.833742	0	1
431.008942	0.795822	city	9	1	0.648656	0.648656	0	1	0	0	CorrectCommission	0.158750	0.879899	0	1
431.804749	0.795782	city	2	1	0.598854	0.598854	0	1	0	0	CorrectCommission	0.427492	0.924905	0	1
432.600555	0.795801	city	6	1	0.748110	0.748110	0	1	0	0	CorrectCommission	1.329470	0.966668	0	1
433.396332	0.795802	city	2	1	0.708778	0.708778	0	1	0	0	CorrectCommission	0.866476	1.002864	0	1
434.192139	0.795811	city	5	1	0.798358	0.798358	0	1	0	0	CorrectCommission	1.920955	1.031213	0	1
434.987946	0.795792	city	2	1	0.797834	0.797834	0	1	0	0	CorrectCommission	1.914784	1.049669	0	1
435.783752	0.795802	city	6	1	0.748609	0.748609	0	1	0	0	CorrectCommission	1.335338	1.056687	0	1
436.579559	0.795845	city	8	1	0.698408	0.698408	0	1	0	0	CorrectCommission	0.744407	1.051395	0	1
437.375366	0.795766	city	7	1	0.698720	0.698720	0	1	0	0	CorrectCommission	0.748074	1.033625	0	1
438.171265	0.796012	city	9	1	0.797879	0.797879	0	1	0	0	CorrectCommission	1.915312	1.003935	0	1
438.967072	0.795609	city	2	1	0.698270	0.698270	0	1	0	0	CorrectCommission	0.742783	0.963492	0	1
439.762787	0.795780	city	5	1	0.708578	0.708578	0	1	0	0	CorrectCommission	0.864121	0.914053	0	1
440.558563	0.795799	city	7	1	0.748386	0.748386	0	1	0	0	CorrectCommission	1.332708	0.857778	0	1
441.354370	0.795818	city	9	1	0.700914	0.700914	0	1	0	0	CorrectCommission	0.773900	0.797128	0	1
442.150177	0.795784	city	8	1	0.698388	0.698388	0	1	0	0	CorrectCommission	0.744165	0.734785	0	1
442.945953	0.795804	city	3	1	0.698921	0.698921	0	1	0	0	CorrectCommission	0.750445	0.673506	1	1
443.741760	0.795801	city	2	1	0.660353	0.660353	0	1	0	0	CorrectCommission	0.296444	0.616072	1	1
444.537689	0.796018	city	9	1	0.613298	0.613298	0	1	0	0	CorrectCommission	0.257459	0.565189	1	1
445.333466	0.795588	city	6	1	0.611237	0.611237	0	1	0	0	CorrectCommission	0.281724	0.523411	1	1
446.129181	0.795825	city	8	1	0.599215	0.599215	0	1	0	0	CorrectCommission	0.423236	0.493041	1	1
446.924988	0.795774	city	10	1	0.599479	0.599479	0	1	0	0	CorrectCommission	0.420132	0.476093	1	1
447.720764	0.795801	city	7	1	0.648609	0.648609	0	1	0	0	CorrectCommission	0.158198	0.474137	1	1
448.516571	0.795809	city	5	1	0.648833	0.648833	0	1	0	0	CorrectCommission	0.160835	0.488244	1	1
449.312378	0.795798	city	9	1	0.666316	0.666316	0	1	0	0	CorrectCommission	0.366636	0.518840	1	1
450.108185	0.795827	city	1	1	0.663172	0.663172	0	1	0	0	CorrectCommission	0.329626	0.565574	1	1
450.903992	0.795777	mountain	6	0	0.000000	0.627898	1	0	0	0	CorrectOmission	0.085597	0.627246	1	1
451.699799	0.795800	city	8	1	0.607413	0.607413	0	1	0	0	CorrectCommission	0.326731	0.701729	1	1
452.495575	0.795801	city	3	1	0.648637	0.648637	0	1	0	0	CorrectCommission	0.158524	0.785990	0	1
453.291504	0.796020	city	9	1	0.748093	0.748093	0	1	0	0	CorrectCommission	1.329263	0.876262	0	1
454.087280	0.795580	city	4	1	0.698156	0.698156	0	1	0	0	CorrectCommission	0.741441	0.968175	0	1
454.882996	0.795806	city	6	1	0.748593	0.748593	0	1	0	0	CorrectCommission	1.335154	1.057146	0	1
455.678833	0.795908	city	8	1	0.749770	0.749770	0	1	0	0	CorrectCommission	1.349007	1.138648	0	1
456.474640	0.795694	city	7	1	0.798166	0.798166	0	1	0	0	CorrectCommission	1.918697	1.208620	0	1
457.270386	0.795804	city	5	1	0.797789	0.797789	0	1	0	0	CorrectCommission	1.914252	1.263806	0	1
458.066315	0.796016	city	2	1	0.708443	0.708443	0	1	0	0	CorrectCommission	0.862526	1.302040	0	1
458.862091	0.795585	city	4	1	0.797762	0.797762	0	1	0	0	CorrectCommission	1.913939	1.322459	0	1
459.657806	0.795833	city	8	1	0.798016	0.798016	0	1	0	0	CorrectCommission	1.916931	1.325508	0	1
460.453613	0.795766	city	9	1	0.797828	0.797828	0	1	0	0	CorrectCommission	1.914721	1.312892	0	1
461.249420	0.795823	city	4	1	0.748087	0.748087	0	1	0	0	CorrectCommission	1.329200	1.287377	0	1
462.045197	0.795782	city	1	1	0.798142	0.798142	0	1	0	0	CorrectCommission	1.918412	1.252452	0	1
462.841125	0.796022	city	3	1	0.710342	0.710342	0	1	0	0	CorrectCommission	0.884877	1.211904	0	1
463.636902	0.795582	city	8	1	0.657686	0.657686	0	1	0	0	CorrectCommission	0.265042	1.169435	0	1
464.432617	0.795802	mountain	4	0	0.000000	0.700146	1	0	0	0	CorrectOmission	0.764861	1.128227	0	1
465.228424	0.795841	city	5	1	0.748695	0.748695	0	1	0	0	CorrectCommission	1.336350	1.090632	0	1
466.024292	0.795870	city	9	1	0.714304	0.714304	0	1	0	0	CorrectCommission	0.931524	1.058005	0	1
466.820068	0.795695	city	7	1	0.667482	0.667482	0	1	0	0	CorrectCommission	0.380365	1.030697	0	1
467.615814	0.795800	city	3	1	0.649548	0.649548	0	1	0	0	CorrectCommission	0.169257	1.008204	0	1
468.411682	0.795910	city	9	1	0.805269	0.805269	0	1	0	0	CorrectCommission	2.002307	0.989419	0	1
469.207489	0.795751	city	8	1	0.715107	0.715107	0	1	0	0	CorrectCommission	0.940976	0.972911	0	1
470.003235	0.795741	mountain	1	0	0.000000	0.766132	1	0	0	0	CorrectOmission	1.541607	0.957373	0	1
470.799072	0.795913	city	3	1	0.797863	0.797863	0	1	0	0	CorrectCommission	1.915131	0.941777	0	1
471.594910	0.795738	city	4	1	0.649822	0.649822	0	1	0	0	CorrectCommission	0.172480	0.925679	0	1
472.390747	0.795976	city	9	1	0.648619	0.648619	0	1	0	0	CorrectCommission	0.158312	0.909350	0	1
473.186523	0.795584	city	8	1	0.702147	0.702147	0	1	0	0	CorrectCommission	0.788416	0.893719	0	1
473.982239	0.795803	city	3	1	0.706166	0.706166	0	1	0	0	CorrectCommission	0.835725	0.880407	0	1
474.778015	0.795798	city	9	1	0.797950	0.797950	0	1	0	0	CorrectCommission	1.916153	0.871721	0	1
475.573822	0.795803	city	5	1	0.705734	0.705734	0	1	0	0	CorrectCommission	0.830634	0.870630	0	1
476.369629	0.795805	city	6	1	0.698929	0.698929	0	1	0	0	CorrectCommission	0.750536	0.880785	0	1
477.165466	0.795838	city	3	1	0.648671	0.648671	0	1	0	0	CorrectCommission	0.158924	0.906428	0	1
477.961365	0.795981	city	2	1	0.665023	0.665023	0	1	0	0	CorrectCommission	0.351419	0.952374	0	1
478.757141	0.795584	city	8	1	0.658032	0.658032	0	1	0	0	CorrectCommission	0.269115	1.023874	0	1
479.552856	0.795822	mountain	10	0	0.000000	0.699607	1	0	0	0	CorrectOmission	0.758518	1.126399	0	1
480.348663	0.795783	city	8	1	0.748089	0.748089	0	1	0	0	CorrectCommission	1.329221	1.265309	0	1
481.144440	0.795797	city	4	1	0.761817	0.761817	0	1	0	0	CorrectCommission	1.490814	1.445406	0	1
481.940247	0.795804	city	10	1	0.708205	0.708205	0	1	0	0	CorrectCommission	0.859727	1.670325	0	1
482.736145	0.796018	city	9	1	0.748560	0.748560	0	1	0	0	CorrectCommission	1.334765	1.941884	0	1
483.531952	0.795584	city	4	1	0.748476	0.748476	0	1	0	0	CorrectCommission	1.333773	2.259383	0	1
484.327667	0.795828	city	5	1	0.698394	0.698394	0	1	0	0	CorrectCommission	0.744242	2.619167	0	1
485.123505	0.795883	city	6	1	0.698387	0.698387	0	1	0	0	CorrectCommission	0.744158	3.014402	0	1
485.919312	0.795697	city	7	1	0.705238	0.705238	0	1	0	0	CorrectCommission	0.824804	3.435245	0	1
486.715088	0.795840	city	5	1	0.963896	0.963896	0	1	0	0	CorrectCommission	3.869566	3.869566	0	1
