onset	duration	trial_type	image_type	Press	ReactionTime	ReactionTime_Interpolated	CorrectOmission	CorrectCommission	CommissionError	OmissionError	response_type	nonsmoothVarianceTimeCourse	VarianceTimeCourse	In_the_Zone	Reward_trial
8.433878	0.792049	city	7	1	0.745141	0.745141	0	1	0	0	CorrectCommission	0.014194	0.014194	1	1
9.226033	0.792262	city	6	1	0.744765	0.744765	0	1	0	0	CorrectCommission	0.016790	0.049389	1	1
10.018302	0.792275	city	4	1	0.695454	0.695454	0	1	0	0	CorrectCommission	0.357749	0.083870	1	1
10.810676	0.792473	city	2	1	0.695504	0.695504	0	1	0	0	CorrectCommission	0.357405	0.116967	1	1
11.602947	0.792071	mountain	3	0	0.000000	0.724435	1	0	0	0	CorrectOmission	0.157363	0.148058	1	1
12.395104	0.792244	mountain	4	0	0.000000	0.755180	1	0	0	0	CorrectOmission	0.055224	0.176616	1	1
13.187467	0.792481	city	3	1	0.760674	0.760674	0	1	0	0	CorrectCommission	0.093208	0.202207	1	1
13.979839	0.792264	city	1	1	0.713849	0.713849	0	1	0	0	CorrectCommission	0.230561	0.224482	1	1
14.772103	0.792265	city	7	1	0.695092	0.695092	0	1	0	0	CorrectCommission	0.360253	0.243203	1	1
15.564260	0.792047	mountain	1	0	0.000000	0.691974	1	0	0	0	CorrectOmission	0.381812	0.258236	1	1
16.356359	0.792154	city	4	1	0.695358	0.695358	0	1	0	0	CorrectCommission	0.358418	0.269596	1	1
17.148624	0.792376	city	1	1	0.696105	0.696105	0	1	0	0	CorrectCommission	0.353251	0.277439	1	1
17.940947	0.792266	city	6	1	0.649578	0.649578	0	1	0	0	CorrectCommission	0.674961	0.282055	1	1
18.733212	0.792264	city	8	1	0.745228	0.745228	0	1	0	0	CorrectCommission	0.013591	0.283853	1	1
19.525478	0.792270	city	1	1	0.711481	0.711481	0	1	0	0	CorrectCommission	0.246937	0.283353	1	1
20.317743	0.792258	city	10	1	0.696175	0.696175	0	1	0	0	CorrectCommission	0.352764	0.281105	1	1
21.110035	0.792327	city	7	1	0.712333	0.712333	0	1	0	0	CorrectCommission	0.241040	0.277657	1	1
21.902409	0.792420	city	2	1	0.695189	0.695189	0	1	0	0	CorrectCommission	0.359585	0.273513	1	1
22.694696	0.792156	city	5	1	0.745018	0.745018	0	1	0	0	CorrectCommission	0.015046	0.269101	1	1
23.486853	0.792157	city	4	1	0.701802	0.701802	0	1	0	0	CorrectCommission	0.313861	0.264767	1	1
24.279118	0.792372	city	9	1	0.695666	0.695666	0	1	0	0	CorrectCommission	0.356286	0.260753	1	1
25.071392	0.792174	city	10	1	0.745390	0.745390	0	1	0	0	CorrectCommission	0.012473	0.257221	1	1
25.863602	0.792246	city	1	1	0.645759	0.645759	0	1	0	0	CorrectCommission	0.701370	0.254272	1	1
26.655886	0.792323	city	8	1	0.745100	0.745100	0	1	0	0	CorrectCommission	0.014473	0.251925	1	1
27.448151	0.792205	city	2	1	0.768764	0.768764	0	1	0	0	CorrectCommission	0.149144	0.250162	1	1
28.240396	0.792286	city	5	1	0.659625	0.659625	0	1	0	0	CorrectCommission	0.605494	0.248872	1	1
29.032663	0.792248	city	9	1	0.747210	0.747210	0	1	0	0	CorrectCommission	0.000110	0.247851	1	1
29.825026	0.792478	mountain	8	0	0.000000	0.766222	1	0	0	0	CorrectOmission	0.131573	0.246827	1	1
30.617292	0.792055	city	10	1	0.744612	0.744612	0	1	0	0	CorrectCommission	0.017852	0.245432	1	1
31.409451	0.792261	city	9	1	0.710327	0.710327	0	1	0	0	CorrectCommission	0.254911	0.243246	1	1
32.201714	0.792265	city	1	1	0.658300	0.658300	0	1	0	0	CorrectCommission	0.614652	0.239853	1	1
32.993977	0.792264	city	6	1	0.706998	0.706998	0	1	0	0	CorrectCommission	0.277933	0.234907	1	1
33.786240	0.792261	mountain	5	0	0.000000	0.717273	1	0	0	0	CorrectOmission	0.206883	0.228238	1	1
34.578560	0.792374	city	8	1	0.708327	0.708327	0	1	0	0	CorrectCommission	0.268739	0.219895	1	1
35.370823	0.792155	city	4	1	0.699361	0.699361	0	1	0	0	CorrectCommission	0.330738	0.210179	1	1
36.163033	0.792267	city	3	1	0.794457	0.794457	0	1	0	0	CorrectCommission	0.326804	0.199664	1	1
36.955299	0.792263	mountain	10	0	0.000000	0.761340	1	0	0	0	CorrectOmission	0.097812	0.189124	1	1
37.747562	0.792266	city	7	1	0.708626	0.708626	0	1	0	0	CorrectCommission	0.266678	0.179466	1	1
38.539829	0.792265	city	2	1	0.744933	0.744933	0	1	0	0	CorrectCommission	0.015633	0.171608	1	1
39.332096	0.792271	city	5	1	0.745150	0.745150	0	1	0	0	CorrectCommission	0.014132	0.166364	1	1
40.124359	0.792255	city	6	1	0.745078	0.745078	0	1	0	0	CorrectCommission	0.014628	0.164342	1	1
40.916622	0.792266	city	3	1	0.744776	0.744776	0	1	0	0	CorrectCommission	0.016717	0.165865	1	1
41.708942	0.792374	city	10	1	0.744940	0.744940	0	1	0	0	CorrectCommission	0.015581	0.170931	1	1
42.501259	0.792263	city	8	1	0.794179	0.794179	0	1	0	0	CorrectCommission	0.324878	0.179245	1	1
43.293579	0.792375	city	7	1	0.745020	0.745020	0	1	0	0	CorrectCommission	0.015028	0.190242	1	1
44.085842	0.792156	city	2	1	0.745033	0.745033	0	1	0	0	CorrectCommission	0.014943	0.203217	1	1
44.878109	0.792373	mountain	8	0	0.000000	0.802568	1	0	0	0	CorrectOmission	0.382884	0.217409	1	1
45.670372	0.792154	city	10	1	0.843668	0.843668	0	1	0	0	CorrectCommission	0.667069	0.232086	1	1
46.462528	0.792157	city	9	1	0.794375	0.794375	0	1	0	0	CorrectCommission	0.326231	0.246648	1	1
47.254848	0.792483	city	10	1	0.709203	0.709203	0	1	0	0	CorrectCommission	0.262682	0.260640	1	1
48.047115	0.792051	city	1	1	0.744671	0.744671	0	1	0	0	CorrectCommission	0.017445	0.273756	1	1
48.839378	0.792479	city	9	1	0.745167	0.745167	0	1	0	0	CorrectCommission	0.014014	0.285827	1	1
49.631645	0.792048	city	10	1	0.695033	0.695033	0	1	0	0	CorrectCommission	0.360664	0.296767	1	1
50.423908	0.792479	city	6	1	0.696095	0.696095	0	1	0	0	CorrectCommission	0.353319	0.306542	1	1
51.216179	0.792061	city	7	1	0.646148	0.646148	0	1	0	0	CorrectCommission	0.698676	0.315156	1	1
52.008335	0.792250	city	9	1	0.695392	0.695392	0	1	0	0	CorrectCommission	0.358179	0.322642	1	1
52.800701	0.792482	city	10	1	0.695981	0.695981	0	1	0	0	CorrectCommission	0.354106	0.329054	1	1
53.593075	0.792266	city	2	1	0.695627	0.695627	0	1	0	0	CorrectCommission	0.356553	0.334504	1	1
54.385239	0.792063	city	1	1	0.747128	0.747128	0	1	0	0	CorrectCommission	0.000451	0.339146	1	1
55.177395	0.792252	city	7	1	0.745412	0.745412	0	1	0	0	CorrectCommission	0.012320	0.343259	1	1
55.969707	0.792370	city	4	1	0.661181	0.661181	0	1	0	0	CorrectCommission	0.594729	0.347286	1	1
56.762024	0.792264	city	9	1	0.650731	0.650731	0	1	0	0	CorrectCommission	0.666989	0.351865	1	1
57.554237	0.792165	city	1	1	0.646545	0.646545	0	1	0	0	CorrectCommission	0.695930	0.357940	1	1
58.346451	0.792259	city	4	1	0.695381	0.695381	0	1	0	0	CorrectCommission	0.358258	0.366736	1	1
59.138710	0.792262	city	1	1	0.754322	0.754322	0	1	0	0	CorrectCommission	0.049290	0.379749	1	1
59.930981	0.792277	city	9	1	0.744840	0.744840	0	1	0	0	CorrectCommission	0.016276	0.398657	1	1
60.723248	0.792257	mountain	7	1	0.794450	0.794450	0	0	1	0	CommissionError	0.326756	0.425153	1	1
61.515503	0.792258	city	10	1	0.843821	0.843821	0	1	0	0	CorrectCommission	0.668127	0.460733	1	1
62.307877	0.792484	city	2	1	0.744812	0.744812	0	1	0	0	CorrectCommission	0.016469	0.506446	0	1
63.100143	0.792050	city	8	1	0.704612	0.704612	0	1	0	0	CorrectCommission	0.294427	0.562666	0	1
63.892353	0.792370	city	10	1	0.645963	0.645963	0	1	0	0	CorrectCommission	0.699955	0.628817	0	1
64.684639	0.792206	city	4	1	0.645919	0.645919	0	1	0	0	CorrectCommission	0.700258	0.703229	0	1
65.476906	0.792323	mountain	5	0	0.000000	0.716471	1	0	0	0	CorrectOmission	0.212431	0.783071	0	1
66.269142	0.792156	city	1	1	0.744687	0.744687	0	1	0	0	CorrectCommission	0.017334	0.864435	0	1
67.061356	0.792264	mountain	7	0	0.000000	0.617636	1	0	0	0	CorrectOmission	0.895825	0.942568	0	1
67.853729	0.792486	mountain	6	1	0.646060	0.646060	0	0	1	0	CommissionError	0.699288	1.012297	0	0
68.645996	0.792048	city	8	1	1.140701	1.140701	0	1	0	0	CorrectCommission	2.720893	1.068599	0	0
69.438210	0.792371	city	7	1	0.943128	0.943128	0	1	0	0	CorrectCommission	1.354782	1.107138	0	0
70.230576	0.792373	city	2	0	0.000000	1.066701	0	0	0	1	OmissionError	2.209224	1.124940	0	0
71.022789	0.792051	city	8	1	1.091170	1.091170	0	1	0	0	CorrectCommission	2.378417	1.120684	0	0
71.815056	0.792478	city	7	1	0.596287	0.596287	0	1	0	0	CorrectCommission	1.043442	1.094954	0	0
72.607430	0.792264	city	5	0	0.000000	0.493399	0	0	0	1	OmissionError	1.754858	1.050197	0	0
73.399689	0.792265	mountain	3	0	0.000000	0.615789	1	0	0	0	CorrectOmission	0.908596	0.990319	0	0
74.191872	0.792091	city	9	1	0.796739	0.796739	0	1	0	0	CorrectCommission	0.342580	0.920276	0	0
74.984039	0.792244	mountain	3	0	0.000000	0.869532	1	0	0	0	CorrectOmission	0.845905	0.845430	0	0
75.776337	0.792349	city	4	1	0.860054	0.860054	0	1	0	0	CorrectCommission	0.780368	0.770916	0	0
76.568588	0.792157	city	3	1	0.794191	0.794191	0	1	0	0	CorrectCommission	0.324961	0.701140	0	0
77.360794	0.792264	mountain	5	1	0.744773	0.744773	0	0	1	0	CommissionError	0.016739	0.639392	0	0
78.153114	0.792374	city	3	0	0.000000	0.756222	0	0	0	1	OmissionError	0.062429	0.587636	0	0
78.945381	0.792159	city	10	1	0.749898	0.749898	0	1	0	0	CorrectCommission	0.018702	0.546493	0	0
79.737595	0.792262	city	1	1	0.647159	0.647159	0	1	0	0	CorrectCommission	0.691684	0.515460	0	0
80.529877	0.792300	city	10	1	0.660920	0.660920	0	1	0	0	CorrectCommission	0.596540	0.493174	1	0
81.322250	0.792448	city	2	1	0.645704	0.645704	0	1	0	0	CorrectCommission	0.701745	0.477800	1	0
82.114494	0.792047	city	3	1	0.794128	0.794128	0	1	0	0	CorrectCommission	0.324527	0.467424	1	0
82.906715	0.792398	city	2	1	0.893336	0.893336	0	1	0	0	CorrectCommission	1.010500	0.460309	1	0
83.698982	0.792130	mountain	2	0	0.000000	0.842739	1	0	0	0	CorrectOmission	0.660643	0.455100	1	0
84.491180	0.792267	city	2	1	0.744898	0.744898	0	1	0	0	CorrectCommission	0.015874	0.450938	1	0
85.283501	0.792372	mountain	6	0	0.000000	0.702377	1	0	0	0	CorrectOmission	0.309882	0.447459	1	0
86.075821	0.792263	city	5	1	0.696128	0.696128	0	1	0	0	CorrectCommission	0.353095	0.444664	1	0
86.868134	0.792374	city	2	1	0.707099	0.707099	0	1	0	0	CorrectCommission	0.277231	0.442893	1	0
87.660347	0.792050	mountain	9	1	0.645526	0.645526	0	0	1	0	CommissionError	0.702979	0.442674	1	0
88.452522	0.792300	city	2	1	0.695332	0.695332	0	1	0	0	CorrectCommission	0.358598	0.444618	1	0
89.244804	0.792259	city	5	1	0.695580	0.695580	0	1	0	0	CorrectCommission	0.356879	0.449384	1	0
90.037048	0.792232	city	9	1	0.648789	0.648789	0	1	0	0	CorrectCommission	0.680416	0.457536	1	0
90.829308	0.792291	city	4	1	0.696088	0.696088	0	1	0	0	CorrectCommission	0.353368	0.469476	1	0
91.621681	0.792457	city	6	1	0.695259	0.695259	0	1	0	0	CorrectCommission	0.359103	0.485382	1	0
92.413940	0.792051	city	2	1	0.695063	0.695063	0	1	0	0	CorrectCommission	0.360458	0.505070	1	0
93.206093	0.792261	city	9	1	0.646043	0.646043	0	1	0	0	CorrectCommission	0.699401	0.527971	0	0
93.998360	0.792267	city	6	1	0.759244	0.759244	0	1	0	0	CorrectCommission	0.083323	0.553091	0	0
94.790642	0.792301	city	8	1	0.695289	0.695289	0	1	0	0	CorrectCommission	0.358893	0.579099	0	0
95.582939	0.792286	city	1	1	0.702878	0.702878	0	1	0	0	CorrectCommission	0.306417	0.604387	0	0
96.375191	0.792230	city	3	1	0.749684	0.749684	0	1	0	0	CorrectCommission	0.017221	0.627339	0	0
97.167427	0.792241	city	7	1	1.108600	1.108600	0	1	0	0	CorrectCommission	2.498937	0.646547	0	0
97.959686	0.792267	city	1	1	0.863425	0.863425	0	1	0	0	CorrectCommission	0.803681	0.661044	0	0
98.752052	0.792477	city	5	1	0.646049	0.646049	0	1	0	0	CorrectCommission	0.699363	0.670560	0	0
99.544319	0.792048	city	10	1	0.606267	0.606267	0	1	0	0	CorrectCommission	0.974431	0.675538	0	0
100.336479	0.792269	city	3	1	0.646556	0.646556	0	1	0	0	CorrectCommission	0.695854	0.677065	0	0
101.128738	0.792260	city	10	1	0.645778	0.645778	0	1	0	0	CorrectCommission	0.701238	0.676720	0	0
101.921005	0.792266	city	8	1	0.695640	0.695640	0	1	0	0	CorrectCommission	0.356467	0.676305	0	0
102.713326	0.792374	city	7	1	0.695372	0.695372	0	1	0	0	CorrectCommission	0.358320	0.677498	0	0
103.505699	0.792374	city	3	1	0.701112	0.701112	0	1	0	0	CorrectCommission	0.318631	0.681567	0	0
104.297958	0.792155	city	6	1	0.645540	0.645540	0	1	0	0	CorrectCommission	0.702879	0.689132	0	0
105.090118	0.792154	city	10	1	0.645670	0.645670	0	1	0	0	CorrectCommission	0.701980	0.700042	0	0
105.882332	0.792275	city	1	1	0.695350	0.695350	0	1	0	0	CorrectCommission	0.358474	0.713402	0	0
106.674614	0.792292	mountain	9	1	0.652060	0.652060	0	0	1	0	CommissionError	0.657799	0.727695	0	0
107.466980	0.792447	mountain	1	1	0.695325	0.695325	0	0	1	0	CommissionError	0.358647	0.740991	0	0
108.259338	0.792266	city	5	0	0.000000	0.933411	0	0	0	1	OmissionError	1.287597	0.751248	0	0
109.051605	0.792263	city	8	1	0.992198	0.992198	0	1	0	0	CorrectCommission	1.694078	0.756561	0	0
109.843864	0.792264	mountain	9	1	0.497564	0.497564	0	0	1	0	CommissionError	1.726057	0.755424	0	0
110.636024	0.792049	city	6	1	0.759462	0.759462	0	1	0	0	CorrectCommission	0.084833	0.746878	0	0
111.428207	0.792311	city	2	1	0.795801	0.795801	0	1	0	0	CorrectCommission	0.336092	0.730625	0	0
112.220497	0.792270	city	9	1	0.745277	0.745277	0	1	0	0	CorrectCommission	0.013254	0.706966	0	0
113.012741	0.792216	city	10	1	1.010044	1.010044	0	1	0	0	CorrectCommission	1.817474	0.676800	0	0
113.805084	0.792479	city	4	1	0.843837	0.843837	0	1	0	0	CorrectCommission	0.668238	0.641502	0	0
114.597351	0.792050	city	2	1	0.893493	0.893493	0	1	0	0	CorrectCommission	1.011582	0.602837	0	0
115.389503	0.792261	city	7	1	0.655540	0.655540	0	1	0	0	CorrectCommission	0.633734	0.562830	0	0
116.181877	0.792483	city	10	1	0.745253	0.745253	0	1	0	0	CorrectCommission	0.013421	0.523629	0	0
116.974144	0.792046	city	6	1	0.843579	0.843579	0	1	0	0	CorrectCommission	0.666455	0.487315	1	0
117.766304	0.792282	city	8	1	0.745265	0.745265	0	1	0	0	CorrectCommission	0.013337	0.455716	1	0
118.558571	0.792252	city	5	1	0.695253	0.695253	0	1	0	0	CorrectCommission	0.359139	0.430283	1	0
119.350937	0.792479	city	8	1	0.745205	0.745205	0	1	0	0	CorrectCommission	0.013753	0.411918	1	0
120.143204	0.792048	city	9	1	0.711796	0.711796	0	1	0	0	CorrectCommission	0.244757	0.400916	1	0
120.935356	0.792266	city	10	1	0.695965	0.695965	0	1	0	0	CorrectCommission	0.354221	0.396932	1	0
121.727623	0.792263	city	6	1	0.794391	0.794391	0	1	0	0	CorrectCommission	0.326343	0.399044	1	0
122.519913	0.792315	mountain	3	0	0.000000	0.806271	1	0	0	0	CorrectOmission	0.408488	0.405892	1	0
123.312172	0.792213	city	9	1	0.750526	0.750526	0	1	0	0	CorrectCommission	0.023040	0.415833	1	0
124.104469	0.792374	city	7	1	0.646077	0.646077	0	1	0	0	CorrectCommission	0.699170	0.427160	1	0
124.896790	0.792267	city	2	1	0.659316	0.659316	0	1	0	0	CorrectCommission	0.607628	0.438260	1	0
125.689110	0.792371	city	9	1	0.646329	0.646329	0	1	0	0	CorrectCommission	0.697427	0.447813	1	0
126.481316	0.792051	city	6	1	0.794395	0.794395	0	1	0	0	CorrectCommission	0.326374	0.454896	1	0
127.273582	0.792480	city	8	1	0.843855	0.843855	0	1	0	0	CorrectCommission	0.668364	0.459051	1	1
128.065857	0.792061	city	6	1	0.852691	0.852691	0	1	0	0	CorrectCommission	0.729456	0.460250	1	1
128.858063	0.792358	city	4	1	0.893319	0.893319	0	1	0	0	CorrectCommission	1.010383	0.458789	1	1
129.650330	0.792157	city	10	1	0.744761	0.744761	0	1	0	0	CorrectCommission	0.016823	0.455151	1	1
130.442535	0.792261	city	4	1	0.744797	0.744797	0	1	0	0	CorrectCommission	0.016572	0.449843	1	1
131.234802	0.792268	city	10	1	0.794367	0.794367	0	1	0	0	CorrectCommission	0.326180	0.443266	1	1
132.027115	0.792372	mountain	1	0	0.000000	0.728320	1	0	0	0	CorrectOmission	0.130499	0.435645	1	1
132.819427	0.792265	city	2	1	0.695295	0.695295	0	1	0	0	CorrectCommission	0.358853	0.427042	1	1
133.611694	0.792266	city	7	1	0.843929	0.843929	0	1	0	0	CorrectCommission	0.668877	0.417422	1	1
134.403915	0.792156	city	2	1	0.893240	0.893240	0	1	0	0	CorrectCommission	1.009834	0.406737	1	1
135.196136	0.792304	city	10	1	0.851994	0.851994	0	1	0	0	CorrectCommission	0.724640	0.395066	1	1
135.988403	0.792227	city	7	1	0.802990	0.802990	0	1	0	0	CorrectCommission	0.385801	0.382676	1	1
136.780762	0.792481	city	1	1	0.755386	0.755386	0	1	0	0	CorrectCommission	0.056643	0.370036	1	1
137.573135	0.792265	city	10	1	0.705563	0.705563	0	1	0	0	CorrectCommission	0.287851	0.357749	1	1
138.365402	0.792266	city	1	1	0.755022	0.755022	0	1	0	0	CorrectCommission	0.054130	0.346431	1	1
139.157562	0.792071	city	7	1	0.843635	0.843635	0	1	0	0	CorrectCommission	0.666839	0.336615	1	1
139.949768	0.792325	city	10	1	0.746381	0.746381	0	1	0	0	CorrectCommission	0.005621	0.328595	1	1
140.742065	0.792288	city	7	1	0.752803	0.752803	0	1	0	0	CorrectCommission	0.038784	0.322413	1	1
141.534409	0.792373	city	3	1	0.744675	0.744675	0	1	0	0	CorrectCommission	0.017413	0.317791	1	1
142.326614	0.792050	city	2	1	0.662991	0.662991	0	1	0	0	CorrectCommission	0.582219	0.314224	1	1
143.118881	0.792481	city	1	1	0.663985	0.663985	0	1	0	0	CorrectCommission	0.575343	0.311061	1	1
143.911194	0.792154	city	6	1	0.661781	0.661781	0	1	0	0	CorrectCommission	0.590583	0.307638	1	1
144.703384	0.792226	city	3	1	0.702729	0.702729	0	1	0	0	CorrectCommission	0.307450	0.303409	1	1
145.495590	0.792195	city	7	1	0.699908	0.699908	0	1	0	0	CorrectCommission	0.326957	0.298055	1	1
146.287857	0.792320	city	10	1	0.744773	0.744773	0	1	0	0	CorrectCommission	0.016740	0.291511	1	1
147.080231	0.792428	city	3	1	0.796932	0.796932	0	1	0	0	CorrectCommission	0.343917	0.284038	1	1
147.872498	0.792118	city	1	1	0.811458	0.811458	0	1	0	0	CorrectCommission	0.444352	0.276185	1	1
148.664764	0.792411	city	5	1	0.794236	0.794236	0	1	0	0	CorrectCommission	0.325273	0.268737	1	1
149.457016	0.792087	mountain	2	0	0.000000	0.765257	1	0	0	0	CorrectOmission	0.124899	0.262673	1	1
150.249176	0.792224	mountain	9	0	0.000000	0.733673	1	0	0	0	CorrectOmission	0.093490	0.259045	1	1
151.041519	0.792484	mountain	3	0	0.000000	0.708634	1	0	0	0	CorrectOmission	0.266616	0.258874	1	1
151.833893	0.792264	city	7	1	0.699294	0.699294	0	1	0	0	CorrectCommission	0.331202	0.263034	1	1
152.626053	0.792046	mountain	1	0	0.000000	0.714803	1	0	0	0	CorrectOmission	0.223967	0.272154	1	1
153.418213	0.792265	city	2	1	0.748659	0.748659	0	1	0	0	CorrectCommission	0.010132	0.286487	1	1
154.210526	0.792374	city	7	1	0.794361	0.794361	0	1	0	0	CorrectCommission	0.326139	0.305828	1	1
155.002792	0.792161	city	9	1	0.755220	0.755220	0	1	0	0	CorrectCommission	0.055499	0.329447	1	1
155.795059	0.792369	city	10	1	0.744799	0.744799	0	1	0	0	CorrectCommission	0.016555	0.356142	1	1
156.587326	0.792160	city	8	1	0.744857	0.744857	0	1	0	0	CorrectCommission	0.016157	0.384276	1	1
157.379547	0.792287	mountain	7	0	0.000000	0.835614	1	0	0	0	CorrectOmission	0.611378	0.411976	1	1
158.171814	0.792242	city	7	1	0.893758	0.893758	0	1	0	0	CorrectCommission	1.013414	0.437310	1	1
158.964081	0.792285	city	4	1	0.795977	0.795977	0	1	0	0	CorrectCommission	0.337314	0.458538	1	1
159.756393	0.792349	city	8	0	0.000000	0.877771	0	0	0	1	OmissionError	0.902871	0.474338	1	1
160.548645	0.792156	city	3	1	0.942887	0.942887	0	1	0	0	CorrectCommission	1.353114	0.483924	1	1
161.340866	0.792290	city	4	1	0.795075	0.795075	0	1	0	0	CorrectCommission	0.331071	0.487136	1	1
162.133240	0.792457	city	8	1	0.744846	0.744846	0	1	0	0	CorrectCommission	0.016233	0.484453	1	1
162.925491	0.792045	city	4	1	0.843629	0.843629	0	1	0	0	CorrectCommission	0.666799	0.476845	1	1
163.717758	0.792485	mountain	8	0	0.000000	0.708809	1	0	0	0	CorrectOmission	0.265410	0.465609	1	1
164.510086	0.792155	city	8	1	0.605680	0.605680	0	1	0	0	CorrectCommission	0.978489	0.452215	1	1
165.302292	0.792265	city	5	1	0.799538	0.799538	0	1	0	0	CorrectCommission	0.361931	0.438071	1	1
166.094498	0.792158	city	9	1	0.746071	0.746071	0	1	0	0	CorrectCommission	0.007764	0.424423	1	1
166.886826	0.792480	city	4	1	0.744795	0.744795	0	1	0	0	CorrectCommission	0.016586	0.412211	1	1
167.679184	0.792265	city	5	1	0.853850	0.853850	0	1	0	0	CorrectCommission	0.737475	0.402018	1	1
168.471344	0.792047	city	4	1	0.794311	0.794311	0	1	0	0	CorrectCommission	0.325790	0.394052	1	1
169.263504	0.792269	city	8	1	0.712197	0.712197	0	1	0	0	CorrectCommission	0.241986	0.388235	1	1
170.055832	0.792368	city	1	1	0.695436	0.695436	0	1	0	0	CorrectCommission	0.357875	0.384252	1	1
170.848114	0.792218	city	5	1	0.645987	0.645987	0	1	0	0	CorrectCommission	0.699788	0.381653	1	1
171.640442	0.792419	city	1	1	0.710381	0.710381	0	1	0	0	CorrectCommission	0.254543	0.379937	1	1
172.432724	0.792157	city	9	1	0.695030	0.695030	0	1	0	0	CorrectCommission	0.360682	0.378665	1	1
173.224991	0.792372	city	4	1	0.700465	0.700465	0	1	0	0	CorrectCommission	0.323103	0.377475	1	1
174.017197	0.792048	city	6	1	0.695008	0.695008	0	1	0	0	CorrectCommission	0.360837	0.376154	1	1
174.809357	0.792271	city	7	1	0.695301	0.695301	0	1	0	0	CorrectCommission	0.358811	0.374629	1	1
175.601685	0.792368	city	3	1	0.657903	0.657903	0	1	0	0	CorrectCommission	0.617396	0.372977	1	1
176.393967	0.792215	city	1	1	0.699102	0.699102	0	1	0	0	CorrectCommission	0.332532	0.371421	1	1
177.186295	0.792424	city	2	1	0.697683	0.697683	0	1	0	0	CorrectCommission	0.342341	0.370266	1	1
177.978531	0.792048	mountain	3	0	0.000000	0.692039	1	0	0	0	CorrectOmission	0.381363	0.369864	1	1
178.770737	0.792371	city	9	1	0.713787	0.713787	0	1	0	0	CorrectCommission	0.230990	0.370561	1	1
179.563004	0.792171	city	3	1	0.794542	0.794542	0	1	0	0	CorrectCommission	0.327390	0.372650	1	1
180.355225	0.792254	city	7	1	0.794411	0.794411	0	1	0	0	CorrectCommission	0.326480	0.376294	1	1
181.147507	0.792314	city	10	1	0.794367	0.794367	0	1	0	0	CorrectCommission	0.326182	0.381525	1	1
181.939774	0.792215	city	7	1	0.808127	0.808127	0	1	0	0	CorrectCommission	0.421321	0.388261	1	1
182.732010	0.792267	city	2	1	0.809602	0.809602	0	1	0	0	CorrectCommission	0.431518	0.396310	1	1
183.524277	0.792265	city	9	1	0.794470	0.794470	0	1	0	0	CorrectCommission	0.326889	0.405425	1	1
184.316589	0.792367	mountain	8	0	0.000000	0.789110	1	0	0	0	CorrectOmission	0.289828	0.415430	1	1
185.108963	0.792374	city	3	1	0.795087	0.795087	0	1	0	0	CorrectCommission	0.331157	0.426247	1	1
185.901184	0.792062	mountain	8	0	0.000000	0.813967	1	0	0	0	CorrectOmission	0.461702	0.438030	1	1
186.693359	0.792305	city	8	1	0.846463	0.846463	0	1	0	0	CorrectCommission	0.686394	0.451173	1	0
187.485611	0.792209	city	6	1	0.893288	0.893288	0	1	0	0	CorrectCommission	1.010162	0.466346	1	0
188.277863	0.792271	city	2	1	0.794489	0.794489	0	1	0	0	CorrectCommission	0.327024	0.484449	1	0
189.070129	0.792264	city	4	1	0.794345	0.794345	0	1	0	0	CorrectCommission	0.326029	0.506504	0	0
189.862503	0.792478	city	3	1	0.745535	0.745535	0	1	0	0	CorrectCommission	0.011469	0.533454	0	0
190.654816	0.792158	mountain	1	0	0.000000	0.803033	1	0	0	0	CorrectOmission	0.386102	0.566011	0	0
191.446976	0.792156	city	6	1	0.843790	0.843790	0	1	0	0	CorrectCommission	0.667916	0.604465	0	0
192.239182	0.792280	city	7	1	0.744756	0.744756	0	1	0	0	CorrectCommission	0.016853	0.648556	0	0
193.031448	0.792252	city	2	1	0.612892	0.612892	0	1	0	0	CorrectCommission	0.928623	0.697431	0	0
193.823761	0.792370	city	10	1	0.652943	0.652943	0	1	0	0	CorrectCommission	0.651693	0.749610	0	0
194.616028	0.792159	mountain	8	1	0.597165	0.597165	0	0	1	0	CommissionError	1.037367	0.803161	0	0
195.408249	0.792265	mountain	10	0	0.000000	0.645488	1	0	0	0	CorrectOmission	0.703242	0.855832	0	0
196.200500	0.792264	city	2	1	0.794786	0.794786	0	1	0	0	CorrectCommission	0.329076	0.905337	0	0
196.992767	0.792260	city	5	1	1.041934	1.041934	0	1	0	0	CorrectCommission	2.037976	0.949580	0	0
197.785141	0.792484	city	8	1	0.547288	0.547288	0	1	0	0	CorrectCommission	1.382241	0.986875	0	0
198.577454	0.792154	city	6	0	0.000000	0.728695	0	0	0	1	OmissionError	0.127909	1.016236	0	0
199.369675	0.792265	city	1	1	1.041920	1.041920	0	1	0	0	CorrectCommission	2.037880	1.037480	0	0
200.161942	0.792266	city	3	1	0.942730	0.942730	0	1	0	0	CorrectCommission	1.352031	1.051196	0	0
200.954163	0.792175	city	7	1	1.041965	1.041965	0	1	0	0	CorrectCommission	2.038186	1.058770	0	0
201.746368	0.792246	city	3	1	0.794437	0.794437	0	1	0	0	CorrectCommission	0.326663	1.062095	0	0
202.538635	0.792281	city	5	1	0.695275	0.695275	0	1	0	0	CorrectCommission	0.358987	1.063343	0	0
203.330902	0.792259	city	4	1	0.515914	0.515914	0	1	0	0	CorrectCommission	1.599175	1.064536	0	0
204.123215	0.792363	mountain	5	1	0.600977	0.600977	0	0	1	0	CommissionError	1.011011	1.067199	0	0
204.915527	0.792263	city	6	0	0.000000	0.714706	0	0	0	1	OmissionError	0.224634	1.072118	0	0
205.707840	0.792374	city	8	0	0.000000	0.832259	0	0	0	1	OmissionError	0.588179	1.079137	0	0
206.500168	0.792265	city	5	0	0.000000	0.928792	0	0	0	1	OmissionError	1.255654	1.087075	0	0
207.292313	0.792049	city	10	0	0.000000	0.979462	0	0	0	1	OmissionError	1.606014	1.093854	0	0
208.084473	0.792263	city	9	0	0.000000	0.959427	0	0	0	1	OmissionError	1.467484	1.096763	0	0
208.876846	0.792483	city	1	1	0.843844	0.843844	0	1	0	0	CorrectCommission	0.668288	1.092797	0	0
209.669113	0.792049	city	2	1	0.607870	0.607870	0	1	0	0	CorrectCommission	0.963349	1.079125	0	0
210.461273	0.792263	city	4	1	0.596275	0.596275	0	1	0	0	CorrectCommission	1.043526	1.053476	0	0
211.253647	0.792483	city	6	1	0.447730	0.447730	0	1	0	0	CorrectCommission	2.070635	1.014567	0	0
212.046021	0.792264	city	8	1	0.464738	0.464738	0	1	0	0	CorrectCommission	1.953033	0.962381	0	0
212.838165	0.792047	city	9	1	0.497002	0.497002	0	1	0	0	CorrectCommission	1.729941	0.898325	0	0
213.630325	0.792265	city	3	1	0.605675	0.605675	0	1	0	0	CorrectCommission	0.978529	0.825193	0	0
214.422592	0.792279	city	9	0	0.000000	0.702503	0	0	0	1	OmissionError	0.309013	0.746838	0	0
215.214859	0.792249	city	5	0	0.000000	0.770923	0	0	0	1	OmissionError	0.164077	0.667887	0	0
216.007141	0.792300	city	4	1	0.794372	0.794372	0	1	0	0	CorrectCommission	0.326211	0.593263	0	0
216.799515	0.792448	city	3	1	0.756284	0.756284	0	1	0	0	CorrectCommission	0.062857	0.527716	0	0
217.591766	0.792049	city	10	1	0.750491	0.750491	0	1	0	0	CorrectCommission	0.022800	0.475499	1	0
218.384018	0.792481	city	3	1	0.745262	0.745262	0	1	0	0	CorrectCommission	0.013357	0.440067	1	0
219.176392	0.792264	city	7	1	0.756051	0.756051	0	1	0	0	CorrectCommission	0.061246	0.424006	1	0
219.968552	0.792058	city	3	1	0.695390	0.695390	0	1	0	0	CorrectCommission	0.358193	0.429011	1	0
220.760712	0.792254	city	4	1	0.794340	0.794340	0	1	0	0	CorrectCommission	0.325994	0.455937	1	0
221.553085	0.792482	city	1	1	0.794288	0.794288	0	1	0	0	CorrectCommission	0.325633	0.504960	1	0
222.345398	0.792158	city	3	1	0.745140	0.745140	0	1	0	0	CorrectCommission	0.014201	0.575663	0	0
223.137619	0.792263	city	7	1	0.661308	0.661308	0	1	0	0	CorrectCommission	0.593852	0.667012	0	0
223.929840	0.792178	city	6	1	0.794382	0.794382	0	1	0	0	CorrectCommission	0.326283	0.777324	0	0
224.722046	0.792246	city	10	1	0.695469	0.695469	0	1	0	0	CorrectCommission	0.357649	0.904223	0	0
225.514297	0.792263	city	9	1	0.596297	0.596297	0	1	0	0	CorrectCommission	1.043368	1.044526	0	0
226.306564	0.792268	city	1	1	0.695250	0.695250	0	1	0	0	CorrectCommission	0.359164	1.194166	0	0
227.098877	0.792369	city	6	0	0.000000	0.497755	0	0	0	1	OmissionError	1.724734	1.348239	0	0
227.891144	0.792157	city	9	1	0.498065	0.498065	0	1	0	0	CorrectCommission	1.722590	1.501063	0	0
228.683350	0.792264	city	8	1	1.190432	1.190432	0	1	0	0	CorrectCommission	3.064757	1.646454	0	0
229.475616	0.792264	city	5	1	0.695248	0.695248	0	1	0	0	CorrectCommission	0.359180	1.778068	0	0
230.267990	0.792482	city	3	1	0.992414	0.992414	0	1	0	0	CorrectCommission	1.695569	1.889950	0	0
231.060318	0.792156	city	7	1	0.497572	0.497572	0	1	0	0	CorrectCommission	1.726003	1.976920	0	0
231.852493	0.792197	city	2	0	0.000000	0.224158	0	0	0	1	OmissionError	3.616513	2.035221	0	0
232.644699	0.792225	city	10	0	0.000000	0.129794	0	0	0	1	OmissionError	4.268991	2.062869	0	0
233.437057	0.792482	city	8	0	0.000000	0.172101	0	0	0	1	OmissionError	3.976465	2.059935	0	0
234.229340	0.792080	mountain	2	0	0.000000	0.308699	1	0	0	0	CorrectOmission	3.031961	2.028502	0	0
235.021500	0.792236	city	8	1	0.497209	0.497209	0	1	0	0	CorrectCommission	1.728510	1.972329	0	0
235.813843	0.792477	city	6	1	0.695254	0.695254	0	1	0	0	CorrectCommission	0.359138	1.896294	0	0
236.606110	0.792051	city	5	1	0.646371	0.646371	0	1	0	0	CorrectCommission	0.697134	1.805712	0	0
237.398315	0.792370	city	7	1	1.053376	1.053376	0	1	0	0	CorrectCommission	2.117087	1.705667	0	0
238.190689	0.792374	city	2	1	0.893384	0.893384	0	1	0	0	CorrectCommission	1.010831	1.600513	0	0
238.982910	0.792051	city	1	1	0.960458	0.960458	0	1	0	0	CorrectCommission	1.474610	1.493663	0	0
239.775085	0.792300	city	6	1	0.447648	0.447648	0	1	0	0	CorrectCommission	2.071197	1.387470	0	0
240.567383	0.792289	city	5	1	1.091350	1.091350	0	1	0	0	CorrectCommission	2.379660	1.283370	0	0
241.359680	0.792310	mountain	1	1	0.596507	0.596507	0	0	1	0	CommissionError	1.041918	1.182157	0	0
242.151917	0.792165	city	9	1	0.695983	0.695983	0	1	0	0	CorrectCommission	0.354096	1.084246	0	0
242.944260	0.792528	city	5	1	0.794518	0.794518	0	1	0	0	CorrectCommission	0.327224	0.989866	0	0
243.736526	0.792001	city	6	1	0.794441	0.794441	0	1	0	0	CorrectCommission	0.326690	0.899274	0	0
244.528656	0.792260	city	9	1	0.992490	0.992490	0	1	0	0	CorrectCommission	1.696098	0.812849	0	0
245.320923	0.792265	city	6	1	0.943384	0.943384	0	1	0	0	CorrectCommission	1.356556	0.731130	0	0
246.113174	0.792262	city	3	1	0.803735	0.803735	0	1	0	0	CorrectCommission	0.390951	0.654855	0	1
246.905548	0.792482	city	9	1	0.701389	0.701389	0	1	0	0	CorrectCommission	0.316713	0.584933	0	1
247.697815	0.792048	city	8	1	0.744985	0.744985	0	1	0	0	CorrectCommission	0.015273	0.522272	0	1
248.490005	0.792335	mountain	2	0	0.000000	0.774843	1	0	0	0	CorrectOmission	0.191184	0.467723	1	1
249.282272	0.792193	city	7	1	0.794271	0.794271	0	1	0	0	CorrectCommission	0.325518	0.421934	1	1
250.074509	0.792272	mountain	6	0	0.000000	0.806574	1	0	0	0	CorrectOmission	0.410587	0.385277	1	1
250.866806	0.792312	city	3	1	0.795520	0.795520	0	1	0	0	CorrectCommission	0.334153	0.357810	1	1
251.659058	0.792214	city	4	1	0.744876	0.744876	0	1	0	0	CorrectCommission	0.016026	0.339240	1	1
252.451416	0.792480	city	3	1	0.695256	0.695256	0	1	0	0	CorrectCommission	0.359121	0.328927	1	1
253.243698	0.792108	city	10	1	0.713997	0.713997	0	1	0	0	CorrectCommission	0.229536	0.325899	1	1
254.035858	0.792201	mountain	7	0	0.000000	0.730004	1	0	0	0	CorrectOmission	0.118854	0.328926	1	1
254.828094	0.792267	city	1	1	0.745206	0.745206	0	1	0	0	CorrectCommission	0.013740	0.336552	1	1
255.620407	0.792373	city	5	1	0.761531	0.761531	0	1	0	0	CorrectCommission	0.099138	0.347243	1	1
256.412689	0.792158	city	6	1	0.893359	0.893359	0	1	0	0	CorrectCommission	1.010655	0.359474	1	1
257.204987	0.792480	city	9	1	0.807191	0.807191	0	1	0	0	CorrectCommission	0.414848	0.371849	1	1
257.997284	0.792079	city	8	1	0.794447	0.794447	0	1	0	0	CorrectCommission	0.326730	0.383265	1	1
258.789429	0.792245	mountain	7	0	0.000000	0.832235	1	0	0	0	CorrectOmission	0.588016	0.392992	1	1
259.581787	0.792471	city	1	1	0.844040	0.844040	0	1	0	0	CorrectCommission	0.669639	0.400699	1	1
260.374176	0.792265	city	10	1	0.753345	0.753345	0	1	0	0	CorrectCommission	0.042534	0.406449	1	1
261.166351	0.792091	city	5	1	0.856706	0.856706	0	1	0	0	CorrectCommission	0.757221	0.410718	1	1
261.958496	0.792224	city	8	1	0.800360	0.800360	0	1	0	0	CorrectCommission	0.367619	0.414237	1	1
262.750854	0.792478	city	3	1	0.794305	0.794305	0	1	0	0	CorrectCommission	0.325747	0.417982	1	1
263.543182	0.792162	city	9	1	0.794215	0.794215	0	1	0	0	CorrectCommission	0.325127	0.423052	1	1
264.335327	0.792150	mountain	9	0	0.000000	0.793596	1	0	0	0	CorrectOmission	0.320847	0.430588	1	1
265.127655	0.792481	city	5	1	0.756306	0.756306	0	1	0	0	CorrectCommission	0.063010	0.441692	1	1
265.920013	0.792266	city	1	1	0.646205	0.646205	0	1	0	0	CorrectCommission	0.698282	0.457349	1	1
266.712189	0.792071	city	8	1	0.652020	0.652020	0	1	0	0	CorrectCommission	0.658077	0.478326	1	1
267.504364	0.792275	city	7	1	0.710657	0.710657	0	1	0	0	CorrectCommission	0.252633	0.505118	0	1
268.296600	0.792230	mountain	4	0	0.000000	0.785865	1	0	0	0	CorrectOmission	0.267389	0.537828	0	1
269.088867	0.792266	mountain	3	1	0.843800	0.843800	0	0	1	0	CommissionError	0.667982	0.576057	0	1
269.881134	0.792263	city	7	1	0.850620	0.850620	0	1	0	0	CorrectCommission	0.715136	0.618795	0	1
270.673492	0.792482	city	3	1	0.810240	0.810240	0	1	0	0	CorrectCommission	0.435930	0.664389	0	1
271.465759	0.792049	mountain	4	0	0.000000	0.757726	1	0	0	0	CorrectOmission	0.072823	0.710554	0	1
272.257904	0.792261	city	6	1	0.763213	0.763213	0	1	0	0	CorrectCommission	0.110767	0.754482	0	1
273.050171	0.792267	mountain	9	0	0.000000	0.896838	1	0	0	0	CorrectOmission	1.034713	0.793058	0	1
273.842499	0.792371	mountain	7	0	0.000000	1.021969	1	0	0	0	CorrectOmission	1.899930	0.823136	0	1
274.634857	0.792374	city	6	1	1.001976	1.001976	0	1	0	0	CorrectCommission	1.761685	0.841943	0	1
275.427124	0.792155	city	4	1	0.700226	0.700226	0	1	0	0	CorrectCommission	0.324754	0.847400	0	1
276.219299	0.792178	city	1	1	0.515891	0.515891	0	1	0	0	CorrectCommission	1.599337	0.838412	0	1
277.011505	0.792246	city	3	1	0.547073	0.547073	0	1	0	0	CorrectCommission	1.383728	0.814937	0	1
277.803802	0.792323	city	8	1	0.560702	0.560702	0	1	0	0	CorrectCommission	1.289490	0.778098	0	1
278.596100	0.792288	city	7	1	0.695234	0.695234	0	1	0	0	CorrectCommission	0.359275	0.729995	0	1
279.388367	0.792208	city	5	1	0.646925	0.646925	0	1	0	0	CorrectCommission	0.693302	0.673500	0	1
280.180573	0.792250	mountain	5	0	0.000000	0.663082	1	0	0	0	CorrectOmission	0.581587	0.611904	0	1
280.972931	0.792468	city	9	1	0.695303	0.695303	0	1	0	0	CorrectCommission	0.358800	0.548635	0	1
281.765259	0.792157	city	2	1	0.695186	0.695186	0	1	0	0	CorrectCommission	0.359607	0.486961	1	1
282.557404	0.792154	city	9	1	0.794365	0.794365	0	1	0	0	CorrectCommission	0.326162	0.429768	1	1
283.349640	0.792276	city	8	1	0.761531	0.761531	0	1	0	0	CorrectCommission	0.099134	0.379394	1	1
284.141998	0.792471	city	9	1	0.749674	0.749674	0	1	0	0	CorrectCommission	0.017148	0.337575	1	1
284.934326	0.792157	mountain	9	0	0.000000	0.725184	1	0	0	0	CorrectOmission	0.152187	0.305422	1	1
285.726471	0.792155	city	4	1	0.702498	0.702498	0	1	0	0	CorrectCommission	0.309047	0.283449	1	1
286.518677	0.792267	city	3	1	0.696054	0.696054	0	1	0	0	CorrectCommission	0.353606	0.271622	1	1
287.311005	0.792371	city	6	1	0.749485	0.749485	0	1	0	0	CorrectCommission	0.015844	0.269407	1	1
288.103271	0.792155	city	5	1	0.749829	0.749829	0	1	0	0	CorrectCommission	0.018221	0.275828	1	1
288.895538	0.792377	city	8	1	0.745244	0.745244	0	1	0	0	CorrectCommission	0.013484	0.289486	1	1
289.687897	0.792370	city	7	1	0.652651	0.652651	0	1	0	0	CorrectCommission	0.653711	0.308639	1	1
290.480225	0.792264	city	10	1	0.744571	0.744571	0	1	0	0	CorrectCommission	0.018132	0.331270	1	1
291.272369	0.792048	city	5	1	0.745027	0.745027	0	1	0	0	CorrectCommission	0.014983	0.355254	1	1
292.064636	0.792482	city	3	1	0.745284	0.745284	0	1	0	0	CorrectCommission	0.013201	0.378514	1	1
292.856964	0.792156	city	1	1	0.645693	0.645693	0	1	0	0	CorrectCommission	0.701823	0.399278	1	1
293.649139	0.792210	city	8	1	0.563179	0.563179	0	1	0	0	CorrectCommission	1.272365	0.416234	1	1
294.441467	0.792428	city	3	1	0.596799	0.596799	0	1	0	0	CorrectCommission	1.039902	0.428758	1	1
295.233704	0.792050	mountain	6	0	0.000000	0.650512	1	0	0	0	CorrectOmission	0.668504	0.437007	1	1
296.025909	0.792371	city	10	1	0.695303	0.695303	0	1	0	0	CorrectCommission	0.358794	0.441903	1	1
296.818237	0.792263	mountain	1	0	0.000000	0.702158	1	0	0	0	CorrectOmission	0.311395	0.444984	1	1
297.610443	0.792156	city	8	1	0.707022	0.707022	0	1	0	0	CorrectCommission	0.277764	0.448203	1	1
298.402679	0.792325	city	10	1	0.745840	0.745840	0	1	0	0	CorrectCommission	0.009363	0.453664	1	1
299.195068	0.792423	city	4	1	0.707919	0.707919	0	1	0	0	CorrectCommission	0.271563	0.463370	1	1
299.987274	0.792046	city	9	1	0.761596	0.761596	0	1	0	0	CorrectCommission	0.099586	0.478983	1	1
300.779510	0.792375	city	2	1	0.695310	0.695310	0	1	0	0	CorrectCommission	0.358751	0.501698	1	1
301.571777	0.792158	city	1	1	0.645674	0.645674	0	1	0	0	CorrectCommission	0.701952	0.532140	0	1
302.364014	0.792369	mountain	2	0	0.000000	0.620939	1	0	0	0	CorrectOmission	0.872984	0.570359	0	1
303.156403	0.792376	city	7	1	0.645709	0.645709	0	1	0	0	CorrectCommission	0.701716	0.615856	0	1
303.948639	0.792122	city	5	1	0.744588	0.744588	0	1	0	0	CorrectCommission	0.018016	0.667591	0	1
304.740814	0.792193	city	10	1	0.695188	0.695188	0	1	0	0	CorrectCommission	0.359589	0.724091	0	1
305.533020	0.792263	city	3	1	0.645734	0.645734	0	1	0	0	CorrectCommission	0.701541	0.783464	0	0
306.325317	0.792303	city	2	1	0.607773	0.607773	0	1	0	0	CorrectCommission	0.964020	0.843528	0	0
307.117676	0.792442	city	10	1	0.596431	0.596431	0	1	0	0	CorrectCommission	1.042442	0.901951	0	0
307.909943	0.792050	city	5	1	0.596107	0.596107	0	1	0	0	CorrectCommission	1.044688	0.956426	0	0
308.702087	0.792277	city	8	1	0.596223	0.596223	0	1	0	0	CorrectCommission	1.043880	1.004827	0	0
309.494385	0.792300	city	6	1	0.943495	0.943495	0	1	0	0	CorrectCommission	1.357322	1.045377	0	0
310.286652	0.792219	city	5	1	0.992346	0.992346	0	1	0	0	CorrectCommission	1.695102	1.076762	0	0
311.078888	0.792264	city	7	1	0.943090	0.943090	0	1	0	0	CorrectCommission	1.354517	1.098222	0	0
311.871155	0.792297	city	2	1	0.909366	0.909366	0	1	0	0	CorrectCommission	1.121335	1.109565	0	0
312.663452	0.792244	city	5	0	0.000000	0.912174	0	0	0	1	OmissionError	1.140756	1.111109	0	0
313.455688	0.792251	city	4	0	0.000000	0.929259	0	0	0	1	OmissionError	1.258888	1.103593	0	0
314.247955	0.792278	city	3	0	0.000000	0.938364	0	0	0	1	OmissionError	1.321843	1.088117	0	0
315.040314	0.792470	city	6	0	0.000000	0.917233	0	0	0	1	OmissionError	1.175730	1.066051	0	0
315.832581	0.792048	city	9	1	0.843609	0.843609	0	1	0	0	CorrectCommission	0.666660	1.038983	0	0
316.624756	0.792273	city	4	1	0.695236	0.695236	0	1	0	0	CorrectCommission	0.359258	1.008762	0	0
317.417053	0.792361	city	2	1	0.596332	0.596332	0	1	0	0	CorrectCommission	1.043130	0.977404	0	0
318.209320	0.792156	city	9	1	1.041773	1.041773	0	1	0	0	CorrectCommission	2.036858	0.947142	0	0
319.001526	0.792267	city	7	1	0.645756	0.645756	0	1	0	0	CorrectCommission	0.701386	0.920369	0	0
319.793854	0.792372	city	8	1	0.992390	0.992390	0	1	0	0	CorrectCommission	1.695402	0.899539	0	0
320.586121	0.792155	city	4	1	0.857772	0.857772	0	1	0	0	CorrectCommission	0.764593	0.886854	0	0
321.378326	0.792293	city	9	1	0.754178	0.754178	0	1	0	0	CorrectCommission	0.048294	0.884068	0	0
322.170624	0.792290	city	10	0	0.000000	0.724454	0	0	0	1	OmissionError	0.157235	0.892114	0	0
322.962891	0.792210	city	2	0	0.000000	0.731191	0	0	0	1	OmissionError	0.110652	0.910854	0	0
323.755127	0.792268	city	4	0	0.000000	0.736981	0	0	0	1	OmissionError	0.070614	0.938980	0	0
324.547455	0.792371	city	6	1	0.704417	0.704417	0	1	0	0	CorrectCommission	0.295779	0.974102	0	0
325.339691	0.792159	city	10	1	0.596089	0.596089	0	1	0	0	CorrectCommission	1.044806	1.013004	0	0
326.131958	0.792370	mountain	2	1	0.360251	0.360251	0	0	1	0	CommissionError	2.675508	1.052038	0	0
326.924225	0.792159	mountain	1	0	0.000000	0.361748	1	0	0	0	CorrectOmission	2.665150	1.087552	0	0
327.716461	0.792265	city	4	0	0.000000	0.508196	0	0	0	1	OmissionError	1.652542	1.116313	0	0
328.508820	0.792478	city	10	0	0.000000	0.707207	0	0	0	1	OmissionError	0.276489	1.135806	0	0
329.301086	0.792050	city	1	0	0.000000	0.866393	0	0	0	1	OmissionError	0.824201	1.144353	0	0
330.093292	0.792373	city	8	1	0.893368	0.893368	0	1	0	0	CorrectCommission	1.010721	1.141074	0	0
330.885559	0.792159	city	7	1	0.695746	0.695746	0	1	0	0	CorrectCommission	0.355736	1.125887	0	0
331.677887	0.792477	city	2	1	0.299164	0.299164	0	1	0	0	CorrectCommission	3.097887	1.099428	0	0
332.470154	0.792048	city	10	1	0.794564	0.794564	0	1	0	0	CorrectCommission	0.327541	1.062876	0	0
333.262299	0.792264	city	3	1	0.596263	0.596263	0	1	0	0	CorrectCommission	1.043608	1.018064	0	0
334.054565	0.792263	city	7	1	1.042583	1.042583	0	1	0	0	CorrectCommission	2.042462	0.967208	0	0
334.846832	0.792270	city	9	1	0.943214	0.943214	0	1	0	0	CorrectCommission	1.355377	0.912827	0	0
335.639099	0.792295	city	8	1	0.853327	0.853327	0	1	0	0	CorrectCommission	0.733859	0.857555	0	0
336.431366	0.792233	city	7	1	0.794428	0.794428	0	1	0	0	CorrectCommission	0.326600	0.803911	0	0
337.223633	0.792262	mountain	6	0	0.000000	0.773826	1	0	0	0	CorrectOmission	0.184147	0.753977	0	0
338.015991	0.792481	city	8	0	0.000000	0.765776	0	0	0	1	OmissionError	0.128486	0.709211	0	0
338.808380	0.792265	city	10	1	0.744533	0.744533	0	1	0	0	CorrectCommission	0.018395	0.670330	0	0
339.600525	0.792049	city	4	0	0.000000	0.684353	0	0	0	1	OmissionError	0.434508	0.637318	0	0
340.392670	0.792263	mountain	6	0	0.000000	0.618473	1	0	0	0	CorrectOmission	0.890037	0.609581	0	0
341.185059	0.792483	city	6	0	0.000000	0.580129	0	0	0	1	OmissionError	1.155164	0.586242	0	0
341.977417	0.792265	mountain	7	1	0.602559	0.602559	0	0	1	0	CommissionError	1.000072	0.566470	0	0
342.769623	0.792108	mountain	5	0	0.000000	0.719000	1	0	0	0	CorrectOmission	0.194944	0.549775	0	0
343.561890	0.792423	city	7	1	0.844464	0.844464	0	1	0	0	CorrectCommission	0.672576	0.536215	0	0
344.354156	0.792134	city	9	1	0.893965	0.893965	0	1	0	0	CorrectCommission	1.014845	0.526442	0	0
345.146301	0.792175	city	8	1	0.764444	0.764444	0	1	0	0	CorrectCommission	0.119278	0.521667	0	0
345.938538	0.792270	city	6	1	0.801314	0.801314	0	1	0	0	CorrectCommission	0.374212	0.523494	0	0
346.730896	0.792478	city	7	1	0.794278	0.794278	0	1	0	0	CorrectCommission	0.325560	0.533564	0	0
347.523193	0.792105	mountain	1	0	0.000000	0.775329	1	0	0	0	CorrectOmission	0.194543	0.553295	0	0
348.315369	0.792209	city	8	1	0.745160	0.745160	0	1	0	0	CorrectCommission	0.014063	0.583666	0	0
349.107605	0.792263	city	7	1	0.704460	0.704460	0	1	0	0	CorrectCommission	0.295477	0.624971	0	0
349.899902	0.792372	city	10	1	0.704517	0.704517	0	1	0	0	CorrectCommission	0.295085	0.676831	0	0
350.692200	0.792184	city	5	1	0.698836	0.698836	0	1	0	0	CorrectCommission	0.334366	0.738189	0	0
351.484406	0.792243	city	7	1	0.596241	0.596241	0	1	0	0	CorrectCommission	1.043754	0.807411	0	0
352.276703	0.792368	city	3	1	0.546715	0.546715	0	1	0	0	CorrectCommission	1.386201	0.882439	0	0
353.069031	0.792265	city	5	1	0.510999	0.510999	0	1	0	0	CorrectCommission	1.633163	0.960932	0	0
353.861267	0.792216	mountain	3	1	0.546625	0.546625	0	0	1	0	CommissionError	1.386826	1.040322	0	0
354.653473	0.792207	city	10	0	0.000000	0.616165	0	0	0	1	OmissionError	0.905995	1.117871	0	0
355.445709	0.792261	city	5	0	0.000000	0.708564	0	0	0	1	OmissionError	0.267103	1.190673	0	0
356.237976	0.792268	city	7	0	0.000000	0.812769	0	0	0	1	OmissionError	0.453419	1.255737	0	0
357.030243	0.792262	city	2	0	0.000000	0.917725	0	0	0	1	OmissionError	1.179136	1.310084	0	0
357.822601	0.792484	city	3	0	0.000000	1.012379	0	0	0	1	OmissionError	1.833617	1.350994	0	0
358.614899	0.792109	city	8	0	0.000000	1.085676	0	0	0	1	OmissionError	2.340430	1.376314	0	0
359.407074	0.792203	city	10	0	0.000000	1.126563	0	0	0	1	OmissionError	2.623140	1.384789	0	0
360.199341	0.792375	city	6	0	0.000000	1.123985	0	0	0	1	OmissionError	2.605317	1.376269	0	0
360.991608	0.792153	city	8	0	0.000000	1.066889	0	0	0	1	OmissionError	2.210526	1.351757	0	0
361.783844	0.792285	city	9	1	0.944220	0.944220	0	1	0	0	CorrectCommission	1.362336	1.313260	0	0
362.576202	0.792463	city	7	1	0.744925	0.744925	0	1	0	0	CorrectCommission	0.015686	1.263497	0	0
363.368469	0.792062	city	1	1	0.710349	0.710349	0	1	0	0	CorrectCommission	0.254760	1.205477	0	0
364.160675	0.792358	city	10	1	0.614894	0.614894	0	1	0	0	CorrectCommission	0.914780	1.142070	0	0
364.952972	0.792205	city	4	1	0.596122	0.596122	0	1	0	0	CorrectCommission	1.044584	1.075724	0	1
365.745239	0.792326	city	2	0	0.000000	0.575592	0	0	0	1	OmissionError	1.186532	1.008337	0	1
366.537476	0.792158	city	1	0	0.000000	0.557684	0	0	0	1	OmissionError	1.310361	0.941253	0	1
367.329681	0.792250	city	4	1	0.546772	0.546772	0	1	0	0	CorrectCommission	1.385810	0.875384	0	1
368.121948	0.792278	mountain	7	1	0.547234	0.547234	0	0	1	0	CommissionError	1.382616	0.811376	0	1
368.914307	0.792481	city	2	1	0.695475	0.695475	0	1	0	0	CorrectCommission	0.357610	0.749742	0	1
369.706573	0.792046	city	8	1	0.695174	0.695174	0	1	0	0	CorrectCommission	0.359687	0.690963	0	1
370.498749	0.792267	city	3	1	0.744809	0.744809	0	1	0	0	CorrectCommission	0.016487	0.635463	0	1
371.291046	0.792329	city	4	1	0.657457	0.657457	0	1	0	0	CorrectCommission	0.620481	0.583605	0	1
372.083405	0.792417	city	2	1	0.646027	0.646027	0	1	0	0	CorrectCommission	0.699514	0.535581	0	1
372.875641	0.792064	mountain	4	0	0.000000	0.709639	1	0	0	0	CorrectOmission	0.259667	0.491421	1	1
373.667816	0.792249	city	2	1	0.745252	0.745252	0	1	0	0	CorrectCommission	0.013426	0.450976	1	1
374.460175	0.792481	city	6	1	0.649822	0.649822	0	1	0	0	CorrectCommission	0.673274	0.413955	1	1
375.252502	0.792157	city	2	1	0.654946	0.654946	0	1	0	0	CorrectCommission	0.637842	0.379986	1	1
376.044678	0.792208	mountain	9	0	0.000000	0.675257	1	0	0	0	CorrectOmission	0.497405	0.348748	1	1
376.836884	0.792215	city	2	1	0.706591	0.706591	0	1	0	0	CorrectCommission	0.280748	0.320074	1	1
377.629120	0.792261	city	1	1	0.744784	0.744784	0	1	0	0	CorrectCommission	0.016659	0.294033	1	1
378.421448	0.792374	city	2	1	0.711790	0.711790	0	1	0	0	CorrectCommission	0.244795	0.270950	1	1
379.213715	0.792157	city	8	1	0.795337	0.795337	0	1	0	0	CorrectCommission	0.332885	0.251404	1	1
380.005981	0.792373	city	7	1	0.794324	0.794324	0	1	0	0	CorrectCommission	0.325885	0.236205	1	1
380.798248	0.792179	city	8	1	0.753164	0.753164	0	1	0	0	CorrectCommission	0.041283	0.226287	1	1
381.590454	0.792244	mountain	6	0	0.000000	0.741726	1	0	0	0	CorrectOmission	0.037803	0.222605	1	1
382.382812	0.792480	mountain	4	0	0.000000	0.747591	1	0	0	0	CorrectOmission	0.002748	0.226014	1	1
383.175079	0.792049	mountain	10	0	0.000000	0.758337	1	0	0	0	CorrectOmission	0.077053	0.237161	1	1
383.967255	0.792297	mountain	4	0	0.000000	0.761545	1	0	0	0	CorrectOmission	0.099233	0.256392	1	1
384.759521	0.792233	city	2	1	0.744794	0.744794	0	1	0	0	CorrectCommission	0.016595	0.283661	1	1
385.551819	0.792370	city	8	1	0.695663	0.695663	0	1	0	0	CorrectCommission	0.356310	0.318485	1	1
386.344086	0.792185	city	9	1	0.646042	0.646042	0	1	0	0	CorrectCommission	0.699408	0.359931	1	1
387.136322	0.792240	city	6	1	0.744812	0.744812	0	1	0	0	CorrectCommission	0.016467	0.406599	1	1
387.928680	0.792478	mountain	4	0	0.000000	0.750489	1	0	0	0	CorrectOmission	0.022786	0.456698	1	1
388.720947	0.792050	city	9	1	0.695170	0.695170	0	1	0	0	CorrectCommission	0.359718	0.508075	0	1
389.513153	0.792372	city	10	1	0.610951	0.610951	0	1	0	0	CorrectCommission	0.942049	0.558352	0	1
390.305420	0.792159	city	5	1	0.645663	0.645663	0	1	0	0	CorrectCommission	0.702028	0.605077	0	1
391.097687	0.792369	city	6	1	0.695429	0.695429	0	1	0	0	CorrectCommission	0.357924	0.645925	0	1
391.889954	0.792156	mountain	3	0	0.000000	0.594637	1	0	0	0	CorrectOmission	1.054851	0.678858	0	1
392.682159	0.792267	city	3	1	0.507219	0.507219	0	1	0	0	CorrectCommission	1.659295	0.702276	0	1
393.474518	0.792480	city	6	1	0.597110	0.597110	0	1	0	0	CorrectCommission	1.037746	0.715156	0	1
394.266785	0.792049	city	8	1	0.646213	0.646213	0	1	0	0	CorrectCommission	0.698226	0.717119	0	1
395.058929	0.792264	mountain	3	0	0.000000	0.653492	1	0	0	0	CorrectOmission	0.647900	0.708403	0	1
395.851196	0.792264	city	1	1	0.645722	0.645722	0	1	0	0	CorrectCommission	0.701623	0.689790	0	1
396.643463	0.792265	city	2	1	0.649681	0.649681	0	1	0	0	CorrectCommission	0.674247	0.662510	0	1
397.435730	0.792267	city	3	1	0.649429	0.649429	0	1	0	0	CorrectCommission	0.675989	0.628129	0	1
398.228058	0.792370	city	4	1	0.646186	0.646186	0	1	0	0	CorrectCommission	0.698417	0.588434	0	1
399.020355	0.792218	city	2	1	0.600054	0.600054	0	1	0	0	CorrectCommission	1.017395	0.545332	0	1
399.812683	0.792421	city	4	1	0.695126	0.695126	0	1	0	0	CorrectCommission	0.360022	0.500719	1	1
400.604950	0.792164	city	6	1	0.695389	0.695389	0	1	0	0	CorrectCommission	0.358201	0.456423	1	1
401.397217	0.792366	city	3	1	0.695277	0.695277	0	1	0	0	CorrectCommission	0.358979	0.414129	1	1
402.189453	0.792102	mountain	7	0	0.000000	0.720724	1	0	0	0	CorrectOmission	0.183023	0.375270	1	1
402.981628	0.792216	city	5	1	0.745868	0.745868	0	1	0	0	CorrectCommission	0.009167	0.341049	1	1
403.773865	0.792292	city	1	1	0.744845	0.744845	0	1	0	0	CorrectCommission	0.016240	0.312421	1	1
404.566132	0.792236	city	3	1	0.695244	0.695244	0	1	0	0	CorrectCommission	0.359202	0.290127	1	1
405.358398	0.792260	city	4	1	0.800407	0.800407	0	1	0	0	CorrectCommission	0.367943	0.274741	1	1
406.150757	0.792482	city	1	1	0.745139	0.745139	0	1	0	0	CorrectCommission	0.014209	0.266738	1	1
406.943085	0.792158	city	10	1	0.696285	0.696285	0	1	0	0	CorrectCommission	0.352004	0.266511	1	1
407.735291	0.792264	city	9	1	0.794287	0.794287	0	1	0	0	CorrectCommission	0.325629	0.274342	1	1
408.527496	0.792161	city	3	1	0.794272	0.794272	0	1	0	0	CorrectCommission	0.325524	0.290343	1	1
409.319702	0.792258	mountain	4	0	0.000000	0.746962	1	0	0	0	CorrectOmission	0.001599	0.314304	1	1
410.112091	0.792484	city	9	1	0.710961	0.710961	0	1	0	0	CorrectCommission	0.250531	0.345554	1	1
410.904358	0.792051	city	7	1	0.744871	0.744871	0	1	0	0	CorrectCommission	0.016061	0.382817	1	1
411.696503	0.792280	city	1	1	0.744827	0.744827	0	1	0	0	CorrectCommission	0.016363	0.424155	1	1
412.488770	0.792233	city	10	1	0.744985	0.744985	0	1	0	0	CorrectCommission	0.015272	0.466997	1	1
413.281036	0.792278	city	1	1	0.804616	0.804616	0	1	0	0	CorrectCommission	0.397042	0.508301	0	1
414.073303	0.792264	city	10	1	0.942754	0.942754	0	1	0	0	CorrectCommission	1.352195	0.544843	0	1
414.865570	0.792268	city	6	1	0.844318	0.844318	0	1	0	0	CorrectCommission	0.671562	0.573568	0	1
415.657837	0.792280	city	5	1	0.661120	0.661120	0	1	0	0	CorrectCommission	0.595157	0.592045	0	1
416.450165	0.792355	mountain	10	1	0.403709	0.403709	0	0	1	0	CommissionError	2.375018	0.598747	0	1
417.242401	0.792156	city	1	1	0.695157	0.695157	0	1	0	0	CorrectCommission	0.359809	0.593252	0	1
418.034668	0.792373	city	8	1	0.646200	0.646200	0	1	0	0	CorrectCommission	0.698320	0.576487	0	1
418.826996	0.792265	city	5	1	0.564042	0.564042	0	1	0	0	CorrectCommission	1.266396	0.550436	0	1
419.619202	0.792159	city	8	1	0.697929	0.697929	0	1	0	0	CorrectCommission	0.340642	0.518021	0	1
420.411438	0.792288	city	1	1	0.745370	0.745370	0	1	0	0	CorrectCommission	0.012606	0.482762	1	1
421.203796	0.792457	mountain	4	0	0.000000	0.744608	1	0	0	0	CorrectOmission	0.017877	0.448380	1	1
421.996155	0.792265	city	3	1	0.744547	0.744547	0	1	0	0	CorrectCommission	0.018299	0.418487	1	1
422.788330	0.792047	city	10	1	0.794093	0.794093	0	1	0	0	CorrectCommission	0.324284	0.396370	1	1
423.580505	0.792330	mountain	5	0	0.000000	0.737659	1	0	0	0	CorrectOmission	0.065927	0.384771	1	1
424.372772	0.792198	city	2	1	0.711021	0.711021	0	1	0	0	CorrectCommission	0.250115	0.385816	1	0
425.165009	0.792264	city	4	1	0.849954	0.849954	0	1	0	0	CorrectCommission	0.710534	0.400929	1	0
425.957336	0.792376	city	7	1	0.809593	0.809593	0	1	0	0	CorrectCommission	0.431460	0.430766	1	0
426.749695	0.792373	city	6	1	0.745231	0.745231	0	1	0	0	CorrectCommission	0.013568	0.475134	1	0
427.542023	0.792263	city	4	1	0.702164	0.702164	0	1	0	0	CorrectCommission	0.311353	0.532874	0	0
428.334229	0.792158	city	6	1	0.744888	0.744888	0	1	0	0	CorrectCommission	0.015943	0.601748	0	0
429.126526	0.792455	city	3	1	0.701958	0.701958	0	1	0	0	CorrectCommission	0.312779	0.678415	0	0
429.918793	0.792073	city	7	0	0.000000	0.782482	0	0	0	1	OmissionError	0.244002	0.758483	0	0
430.710907	0.792154	city	10	0	0.000000	0.884457	0	0	0	1	OmissionError	0.949104	0.836806	0	0
431.503113	0.792266	city	5	0	0.000000	0.905880	0	0	0	1	OmissionError	1.097230	0.907863	0	0
432.295441	0.792373	city	2	1	0.744747	0.744747	0	1	0	0	CorrectCommission	0.016915	0.966391	0	0
433.087708	0.792160	city	10	1	0.299057	0.299057	0	1	0	0	CorrectCommission	3.098629	1.008049	0	0
433.879944	0.792298	city	9	1	0.992319	0.992319	0	1	0	0	CorrectCommission	1.694914	1.029870	0	0
434.672211	0.792230	city	10	1	1.190431	1.190431	0	1	0	0	CorrectCommission	3.064754	1.030908	0	0
435.464447	0.792264	city	9	0	0.000000	1.034122	0	0	0	1	OmissionError	1.983956	1.012207	0	0
436.256744	0.792320	city	7	1	0.795007	0.795007	0	1	0	0	CorrectCommission	0.330601	0.976735	0	0
437.049011	0.792210	city	4	1	0.744702	0.744702	0	1	0	0	CorrectCommission	0.017232	0.928944	0	0
437.841309	0.792371	mountain	1	1	0.947838	0.947838	0	0	1	0	CommissionError	1.387348	0.874057	0	0
438.633606	0.792226	city	4	1	0.795008	0.795008	0	1	0	0	CorrectCommission	0.330610	0.817317	0	0
439.425903	0.792413	city	5	1	0.754131	0.754131	0	1	0	0	CorrectCommission	0.047970	0.763367	0	0
440.218140	0.792048	city	3	1	0.744712	0.744712	0	1	0	0	CorrectCommission	0.017159	0.715668	0	0
441.010284	0.792264	city	7	1	0.695422	0.695422	0	1	0	0	CorrectCommission	0.357975	0.676241	0	0
441.802551	0.792266	city	4	0	0.000000	0.758706	0	0	0	1	OmissionError	0.079600	0.645639	0	0
442.594818	0.792261	city	7	0	0.000000	0.866438	0	0	0	1	OmissionError	0.824511	0.623189	0	0
443.387207	0.792483	city	4	0	0.000000	0.950493	0	0	0	1	OmissionError	1.405705	0.607324	0	0
444.179474	0.792065	city	6	1	0.942744	0.942744	0	1	0	0	CorrectCommission	1.352124	0.596053	0	0
444.971619	0.792249	mountain	10	0	0.000000	0.775065	1	0	0	0	CorrectOmission	0.192716	0.587333	0	0
445.763885	0.792267	city	1	1	0.657836	0.657836	0	1	0	0	CorrectCommission	0.617861	0.579399	0	0
446.556274	0.792478	city	9	1	0.801436	0.801436	0	1	0	0	CorrectCommission	0.375054	0.570900	0	0
447.348511	0.792049	mountain	4	0	0.000000	0.739372	1	0	0	0	CorrectOmission	0.054083	0.561012	0	0
448.140747	0.792371	city	10	1	0.695423	0.695423	0	1	0	0	CorrectCommission	0.357966	0.549417	0	0
448.933014	0.792160	city	3	1	0.893367	0.893367	0	1	0	0	CorrectCommission	1.010711	0.536192	0	0
449.725220	0.792265	city	1	1	0.911630	0.911630	0	1	0	0	CorrectCommission	1.136990	0.521774	0	0
450.517487	0.792261	city	6	1	0.847811	0.847811	0	1	0	0	CorrectCommission	0.695719	0.506780	0	0
451.309753	0.792266	mountain	8	0	0.000000	0.761163	1	0	0	0	CorrectOmission	0.096594	0.491968	1	0
452.102020	0.792294	city	5	1	0.695664	0.695664	0	1	0	0	CorrectCommission	0.356302	0.478064	1	0
452.894379	0.792453	city	1	1	0.695290	0.695290	0	1	0	0	CorrectCommission	0.358884	0.465655	1	0
453.686707	0.792156	city	2	1	0.696145	0.696145	0	1	0	0	CorrectCommission	0.352975	0.455124	1	0
454.478851	0.792158	city	6	1	0.756962	0.756962	0	1	0	0	CorrectCommission	0.067540	0.446570	1	0
455.271118	0.792370	city	7	1	0.805972	0.805972	0	1	0	0	CorrectCommission	0.406424	0.439774	1	0
456.063385	0.792160	city	9	1	0.652676	0.652676	0	1	0	0	CorrectCommission	0.653543	0.434264	1	0
456.855591	0.792266	city	2	1	0.695554	0.695554	0	1	0	0	CorrectCommission	0.357059	0.429386	1	0
457.647858	0.792259	city	3	1	0.660872	0.660872	0	1	0	0	CorrectCommission	0.596868	0.424424	1	0
458.440216	0.792483	city	1	1	0.695334	0.695334	0	1	0	0	CorrectCommission	0.358581	0.418684	1	0
459.232483	0.792048	mountain	10	1	0.606470	0.606470	0	0	1	0	CommissionError	0.973032	0.411617	1	0
460.024658	0.792269	city	1	1	0.695308	0.695308	0	1	0	0	CorrectCommission	0.358762	0.402862	1	0
460.817017	0.792479	city	6	1	0.744946	0.744946	0	1	0	0	CorrectCommission	0.015542	0.392309	1	0
461.609406	0.792263	city	7	1	0.707633	0.707633	0	1	0	0	CorrectCommission	0.273538	0.380114	1	0
462.401611	0.792156	city	9	1	0.794097	0.794097	0	1	0	0	CorrectCommission	0.324310	0.366697	1	0
463.193756	0.792158	city	6	1	0.894168	0.894168	0	1	0	0	CorrectCommission	1.016251	0.352718	1	0
463.985992	0.792300	city	4	1	0.745112	0.745112	0	1	0	0	CorrectCommission	0.014393	0.339047	1	0
464.778320	0.792337	city	2	1	0.695246	0.695246	0	1	0	0	CorrectCommission	0.359189	0.326770	1	0
465.570648	0.792345	city	7	1	0.695144	0.695144	0	1	0	0	CorrectCommission	0.359896	0.317114	1	0
466.362885	0.792100	city	3	1	0.744608	0.744608	0	1	0	0	CorrectCommission	0.017878	0.311433	1	0
467.155151	0.792458	city	2	1	0.704878	0.704878	0	1	0	0	CorrectCommission	0.292589	0.311191	1	0
467.947418	0.792062	city	9	1	0.794120	0.794120	0	1	0	0	CorrectCommission	0.324473	0.317945	1	0
468.739563	0.792254	mountain	2	0	0.000000	0.762338	1	0	0	0	CorrectOmission	0.104718	0.333382	1	0
469.531830	0.792261	city	6	1	0.711799	0.711799	0	1	0	0	CorrectCommission	0.244734	0.359346	1	0
470.324097	0.792265	city	3	1	0.744770	0.744770	0	1	0	0	CorrectCommission	0.016761	0.397875	1	0
471.116425	0.792373	city	7	1	0.696373	0.696373	0	1	0	0	CorrectCommission	0.351395	0.451233	1	0
471.908661	0.792155	mountain	6	0	0.000000	0.730189	1	0	0	0	CorrectOmission	0.117579	0.521878	0	0
472.700897	0.792268	city	7	1	0.799035	0.799035	0	1	0	0	CorrectCommission	0.358456	0.612331	0	0
473.493164	0.792315	city	5	1	0.855730	0.855730	0	1	0	0	CorrectCommission	0.750474	0.724861	0	0
474.285461	0.792231	city	4	1	0.843760	0.843760	0	1	0	0	CorrectCommission	0.667704	0.861063	0	0
475.077698	0.792245	city	5	1	0.893634	0.893634	0	1	0	0	CorrectCommission	1.012556	1.021269	0	0
475.869995	0.792374	city	6	1	0.805741	0.805741	0	1	0	0	CorrectCommission	0.404823	1.203861	0	0
476.662262	0.792162	city	4	1	0.645829	0.645829	0	1	0	0	CorrectCommission	0.700883	1.404613	0	0
477.454468	0.792263	city	1	1	0.646758	0.646758	0	1	0	0	CorrectCommission	0.694458	1.616164	0	0
478.246735	0.792264	city	2	1	0.596234	0.596234	0	1	0	0	CorrectCommission	1.043808	1.827851	0	0
479.039001	0.792277	mountain	2	1	0.546756	0.546756	0	0	1	0	CommissionError	1.385921	2.025971	0	0
479.831268	0.792250	city	2	1	0.957338	0.957338	0	1	0	0	CorrectCommission	1.453034	2.194591	0	0
480.623535	0.792263	city	5	0	0.000000	1.248789	0	0	0	1	OmissionError	3.468269	2.316907	0	0
481.415802	0.792265	city	6	0	0.000000	1.432400	0	0	0	1	OmissionError	4.737843	2.377016	0	0
482.208160	0.792483	city	3	0	0.000000	1.519460	0	0	0	1	OmissionError	5.339818	2.361922	0	0
483.000458	0.792105	mountain	3	0	0.000000	1.521259	1	0	0	0	CorrectOmission	5.352254	2.263425	0	0
483.792725	0.792425	city	1	0	0.000000	1.449085	0	0	0	1	OmissionError	4.853212	2.079610	0	0
484.584961	0.792047	city	2	0	0.000000	1.314229	0	0	0	1	OmissionError	3.920753	1.815683	0	0
485.377136	0.792266	mountain	6	0	0.000000	1.127980	1	0	0	0	CorrectOmission	2.632937	1.483983	0	0
486.169434	0.792371	city	1	1	0.901627	0.901627	0	1	0	0	CorrectCommission	1.067826	1.103152	0	0
486.961823	0.792374	city	8	1	0.646460	0.646460	0	1	0	0	CorrectCommission	0.696521	0.696521	0	0
