onset	duration	trial_type	image_type	Press	ReactionTime	ReactionTime_Interpolated	CorrectOmission	CorrectCommission	CommissionError	OmissionError	response_type	nonsmoothVarianceTimeCourse	VarianceTimeCourse	In_the_Zone	Reward_trial
8.433794	0.792271	city	9	1	0.943265	0.943265	0	1	0	0	CorrectCommission	2.942760	2.942760	0	1
9.226059	0.792260	city	7	1	0.645799	0.645799	0	1	0	0	CorrectCommission	0.200584	2.560422	0	1
10.018374	0.792372	city	5	1	0.565030	0.565030	0	1	0	0	CorrectCommission	0.543980	2.191761	0	1
10.810694	0.792266	city	7	1	0.596102	0.596102	0	1	0	0	CorrectCommission	0.257548	1.849018	0	1
11.603013	0.792372	city	6	1	0.596126	0.596126	0	1	0	0	CorrectCommission	0.257327	1.541912	0	1
12.395225	0.792052	city	3	1	0.597543	0.597543	0	1	0	0	CorrectCommission	0.244258	1.276883	0	1
13.187381	0.792260	mountain	7	0	0.000000	0.647147	1	0	0	0	CorrectOmission	0.213011	1.056859	0	1
13.979697	0.792373	city	6	1	0.659006	0.659006	0	1	0	0	CorrectCommission	0.322336	0.881493	0	1
14.772071	0.792374	city	8	1	0.547191	0.547191	0	1	0	0	CorrectCommission	0.708425	0.747820	0	1
15.564391	0.792266	city	10	1	0.645533	0.645533	0	1	0	0	CorrectCommission	0.198133	0.651042	1	1
16.356548	0.792050	city	7	1	0.744688	0.744688	0	1	0	0	CorrectCommission	1.112188	0.585481	1	1
17.148706	0.792265	mountain	2	0	0.000000	0.687168	1	0	0	0	CorrectOmission	0.581944	0.545302	1	1
17.940969	0.792262	city	6	1	0.596512	0.596512	0	1	0	0	CorrectCommission	0.253768	0.525162	1	1
18.733257	0.792313	city	1	1	0.596257	0.596257	0	1	0	0	CorrectCommission	0.256117	0.520459	1	1
19.525524	0.792218	city	5	1	0.550094	0.550094	0	1	0	0	CorrectCommission	0.681664	0.527437	1	1
20.317789	0.792315	city	7	1	0.646644	0.646644	0	1	0	0	CorrectCommission	0.208377	0.543065	1	1
21.110052	0.792211	city	9	1	0.646646	0.646646	0	1	0	0	CorrectCommission	0.208394	0.564849	1	1
21.902376	0.792435	city	1	1	0.652486	0.652486	0	1	0	0	CorrectCommission	0.262228	0.590610	1	1
22.694651	0.792116	city	2	1	0.697050	0.697050	0	1	0	0	CorrectCommission	0.673037	0.618297	1	1
23.486830	0.792243	city	3	1	0.696807	0.696807	0	1	0	0	CorrectCommission	0.670805	0.645938	1	1
24.279104	0.792304	city	7	1	0.749956	0.749956	0	1	0	0	CorrectCommission	1.160751	0.671690	1	1
25.071367	0.792225	city	4	1	0.707454	0.707454	0	1	0	0	CorrectCommission	0.768953	0.693900	0	1
25.863615	0.792270	city	10	1	0.745184	0.745184	0	1	0	0	CorrectCommission	1.116760	0.711320	0	1
26.655935	0.792372	city	1	1	0.696974	0.696974	0	1	0	0	CorrectCommission	0.672336	0.723190	0	1
27.448200	0.792155	city	6	1	0.546625	0.546625	0	1	0	0	CorrectCommission	0.713646	0.729322	0	1
28.240431	0.792308	city	4	1	0.515158	0.515158	0	1	0	0	CorrectCommission	1.003726	0.730057	0	1
29.032804	0.792439	city	10	1	0.552703	0.552703	0	1	0	0	CorrectCommission	0.657617	0.726226	0	1
29.825050	0.792055	city	2	1	0.805474	0.805474	0	1	0	0	CorrectCommission	1.672546	0.719019	0	1
30.617208	0.792259	city	7	1	0.603593	0.603593	0	1	0	0	CorrectCommission	0.188488	0.709755	0	1
31.409502	0.792327	city	6	1	0.596343	0.596343	0	1	0	0	CorrectCommission	0.255318	0.699804	0	1
32.201778	0.792226	mountain	8	0	0.000000	0.644587	1	0	0	0	CorrectOmission	0.189417	0.690357	0	1
32.994064	0.792346	city	8	1	0.695304	0.695304	0	1	0	0	CorrectCommission	0.656944	0.682415	0	1
33.786316	0.792158	mountain	3	0	0.000000	0.695471	1	0	0	0	CorrectOmission	0.658487	0.676729	1	1
34.578526	0.792263	city	5	1	0.695249	0.695249	0	1	0	0	CorrectCommission	0.656438	0.673888	1	1
35.370899	0.792484	city	8	1	0.744796	0.744796	0	1	0	0	CorrectCommission	1.113190	0.674341	1	1
36.163219	0.792153	city	10	1	0.695213	0.695213	0	1	0	0	CorrectCommission	0.656109	0.678420	1	1
36.955372	0.792157	city	2	1	0.794206	0.794206	0	1	0	0	CorrectCommission	1.568671	0.686323	0	1
37.747692	0.792484	city	6	1	0.648518	0.648518	0	1	0	0	CorrectCommission	0.225651	0.697983	0	1
38.539982	0.792090	city	2	1	0.645700	0.645700	0	1	0	0	CorrectCommission	0.199669	0.712981	0	1
39.332138	0.792225	city	9	1	0.648705	0.648705	0	1	0	0	CorrectCommission	0.227376	0.730347	0	1
40.124390	0.792277	city	3	1	0.607810	0.607810	0	1	0	0	CorrectCommission	0.149615	0.748493	0	1
40.916672	0.792288	city	2	1	0.696344	0.696344	0	1	0	0	CorrectCommission	0.666532	0.765274	0	1
41.708931	0.792229	city	5	1	0.695973	0.695973	0	1	0	0	CorrectCommission	0.663110	0.778153	0	1
42.501194	0.792297	city	6	1	0.808786	0.808786	0	1	0	0	CorrectCommission	1.703079	0.784564	0	1
43.293457	0.792230	city	5	1	0.713432	0.713432	0	1	0	0	CorrectCommission	0.824062	0.782257	0	1
44.085705	0.792265	mountain	8	0	0.000000	0.791993	1	0	0	0	CorrectOmission	1.548271	0.769764	0	1
44.877968	0.792263	city	5	1	0.852860	0.852860	0	1	0	0	CorrectCommission	2.109368	0.746601	0	1
45.670235	0.792268	city	4	1	0.704423	0.704423	0	1	0	0	CorrectCommission	0.741010	0.713426	0	1
46.462608	0.792478	city	9	1	0.695253	0.695253	0	1	0	0	CorrectCommission	0.656475	0.672017	1	1
47.254894	0.792098	city	5	1	0.612240	0.612240	0	1	0	0	CorrectCommission	0.108773	0.624923	1	1
48.047104	0.792324	city	3	1	0.646138	0.646138	0	1	0	0	CorrectCommission	0.203709	0.575162	1	1
48.839413	0.792290	city	4	1	0.645969	0.645969	0	1	0	0	CorrectCommission	0.202157	0.525771	1	1
49.631622	0.792131	city	8	1	0.566411	0.566411	0	1	0	0	CorrectCommission	0.531248	0.479443	1	1
50.423820	0.792265	city	7	1	0.645806	0.645806	0	1	0	0	CorrectCommission	0.200647	0.438234	1	1
51.216145	0.792379	city	3	1	0.645764	0.645764	0	1	0	0	CorrectCommission	0.200267	0.403455	1	1
52.008514	0.792367	city	9	1	0.645931	0.645931	0	1	0	0	CorrectCommission	0.201799	0.375644	1	1
52.800724	0.792050	city	8	1	0.645631	0.645631	0	1	0	0	CorrectCommission	0.199033	0.354704	1	1
53.592892	0.792283	city	4	1	0.596245	0.596245	0	1	0	0	CorrectCommission	0.256226	0.340084	1	1
54.385208	0.792354	city	3	1	0.546738	0.546738	0	1	0	0	CorrectCommission	0.712601	0.330986	1	1
55.177467	0.792164	city	7	1	0.565677	0.565677	0	1	0	0	CorrectCommission	0.538017	0.326593	1	1
55.969677	0.792256	city	2	1	0.645901	0.645901	0	1	0	0	CorrectCommission	0.201522	0.326204	1	1
56.761940	0.792266	city	8	1	0.646222	0.646222	0	1	0	0	CorrectCommission	0.204486	0.329313	1	1
57.554203	0.792263	city	2	1	0.646472	0.646472	0	1	0	0	CorrectCommission	0.206787	0.335617	1	1
58.346497	0.792321	city	5	1	0.646249	0.646249	0	1	0	0	CorrectCommission	0.204733	0.344981	1	1
59.138760	0.792211	city	2	1	0.596567	0.596567	0	1	0	0	CorrectCommission	0.253258	0.357421	1	1
59.931019	0.792307	city	6	0	0.000000	0.639022	0	0	0	1	OmissionError	0.138111	0.373042	1	1
60.723286	0.792224	city	10	1	0.660200	0.660200	0	1	0	0	CorrectCommission	0.333340	0.392039	1	1
61.515530	0.792264	city	3	1	0.546688	0.546688	0	1	0	0	CorrectCommission	0.713067	0.414662	1	1
62.307793	0.792262	city	7	1	0.547061	0.547061	0	1	0	0	CorrectCommission	0.709623	0.441205	1	1
63.100056	0.792268	city	5	1	0.596218	0.596218	0	1	0	0	CorrectCommission	0.256473	0.472021	1	1
63.892376	0.792371	mountain	7	0	0.000000	0.654190	1	0	0	0	CorrectOmission	0.277936	0.507429	1	1
64.684647	0.792161	mountain	2	0	0.000000	0.687531	1	0	0	0	CorrectOmission	0.585290	0.547643	1	1
65.476906	0.792367	city	7	1	0.662796	0.662796	0	1	0	0	CorrectCommission	0.357273	0.592636	1	1
66.269188	0.792201	city	5	1	0.546540	0.546540	0	1	0	0	CorrectCommission	0.714427	0.642041	1	1
67.061432	0.792277	mountain	5	0	0.000000	0.642773	1	0	0	0	CorrectOmission	0.172693	0.695019	0	1
67.853668	0.792206	city	6	1	0.744759	0.744759	0	1	0	0	CorrectCommission	1.112842	0.750243	0	0
68.645912	0.792283	city	4	1	0.645760	0.645760	0	1	0	0	CorrectCommission	0.200224	0.805874	0	0
69.438217	0.792313	city	1	1	0.551064	0.551064	0	1	0	0	CorrectCommission	0.672725	0.859715	0	0
70.230469	0.792202	city	3	1	0.744896	0.744896	0	1	0	0	CorrectCommission	1.114109	0.909327	0	0
71.022720	0.792291	city	1	1	0.794375	0.794375	0	1	0	0	CorrectCommission	1.570232	0.952279	0	0
71.814987	0.792241	city	4	1	0.794363	0.794363	0	1	0	0	CorrectCommission	1.570117	0.986387	0	0
72.607292	0.792374	city	6	1	0.794550	0.794550	0	1	0	0	CorrectCommission	1.571839	1.009921	0	0
73.399666	0.792369	city	10	1	0.695134	0.695134	0	1	0	0	CorrectCommission	0.655377	1.021767	0	0
74.191872	0.792048	city	3	1	0.514814	0.514814	0	1	0	0	CorrectCommission	1.006896	1.021520	0	0
74.984138	0.792481	city	7	1	0.459146	0.459146	0	1	0	0	CorrectCommission	1.520067	1.009451	0	0
75.776413	0.792068	city	9	1	0.506233	0.506233	0	1	0	0	CorrectCommission	1.085998	0.986465	0	0
76.568565	0.792247	city	5	1	0.497222	0.497222	0	1	0	0	CorrectCommission	1.169062	0.953988	0	0
77.360825	0.792273	city	4	1	0.501880	0.501880	0	1	0	0	CorrectCommission	1.126124	0.913798	0	0
78.153198	0.792470	city	10	1	0.513936	0.513936	0	1	0	0	CorrectCommission	1.014986	0.867870	0	0
78.945488	0.792101	city	9	1	0.647228	0.647228	0	1	0	0	CorrectCommission	0.213760	0.818211	0	0
79.737640	0.792212	city	10	1	0.708429	0.708429	0	1	0	0	CorrectCommission	0.777935	0.766739	0	0
80.529877	0.792264	city	3	1	0.707119	0.707119	0	1	0	0	CorrectCommission	0.765865	0.715146	0	0
81.322182	0.792344	mountain	10	0	0.000000	0.709172	1	0	0	0	CorrectOmission	0.784785	0.664856	1	0
82.114449	0.792190	city	9	1	0.695199	0.695199	0	1	0	0	CorrectCommission	0.655981	0.616977	1	0
82.906693	0.792300	city	8	1	0.645816	0.645816	0	1	0	0	CorrectCommission	0.200741	0.572310	1	0
83.699066	0.792442	city	10	1	0.549827	0.549827	0	1	0	0	CorrectCommission	0.684126	0.531365	1	0
84.491364	0.792156	city	4	1	0.657430	0.657430	0	1	0	0	CorrectCommission	0.307802	0.494414	1	0
85.283524	0.792158	city	9	1	0.645927	0.645927	0	1	0	0	CorrectCommission	0.201761	0.461567	1	0
86.075729	0.792265	city	6	1	0.609051	0.609051	0	1	0	0	CorrectCommission	0.138173	0.432879	1	0
86.867996	0.792267	city	9	1	0.510742	0.510742	0	1	0	0	CorrectCommission	1.044435	0.408419	1	0
87.660294	0.792316	city	4	1	0.596223	0.596223	0	1	0	0	CorrectCommission	0.256427	0.388356	1	0
88.452553	0.792212	city	1	1	0.596094	0.596094	0	1	0	0	CorrectCommission	0.257618	0.373100	1	0
89.244789	0.792263	city	4	1	0.646609	0.646609	0	1	0	0	CorrectCommission	0.208055	0.363294	1	0
90.037056	0.792269	city	9	1	0.605743	0.605743	0	1	0	0	CorrectCommission	0.168668	0.359844	1	0
90.829323	0.792262	city	8	1	0.547587	0.547587	0	1	0	0	CorrectCommission	0.704779	0.363876	1	0
91.621590	0.792267	city	4	1	0.616366	0.616366	0	1	0	0	CorrectCommission	0.070740	0.376577	1	0
92.413849	0.792264	city	1	1	0.596476	0.596476	0	1	0	0	CorrectCommission	0.254096	0.399056	1	0
93.206139	0.792311	city	4	1	0.596279	0.596279	0	1	0	0	CorrectCommission	0.255910	0.432122	1	0
93.998405	0.792219	city	7	1	0.645903	0.645903	0	1	0	0	CorrectCommission	0.201549	0.476076	1	0
94.790703	0.792371	city	6	1	0.646229	0.646229	0	1	0	0	CorrectCommission	0.204548	0.530503	1	0
95.583069	0.792373	city	1	1	0.646092	0.646092	0	1	0	0	CorrectCommission	0.203287	0.594153	1	0
96.375336	0.792157	city	3	1	0.663828	0.663828	0	1	0	0	CorrectCommission	0.366785	0.664904	1	0
97.167549	0.792264	city	1	1	0.550638	0.550638	0	1	0	0	CorrectCommission	0.676656	0.739808	0	0
97.959755	0.792156	city	2	1	0.546660	0.546660	0	1	0	0	CorrectCommission	0.713319	0.815302	0	0
98.751968	0.792269	city	9	1	0.515614	0.515614	0	1	0	0	CorrectCommission	0.999521	0.887522	0	0
99.544258	0.792307	city	7	1	0.503945	0.503945	0	1	0	0	CorrectCommission	1.107086	0.952640	0	0
100.336571	0.792327	city	3	1	0.451076	0.451076	0	1	0	0	CorrectCommission	1.594461	1.007275	0	0
101.128952	0.792429	city	8	1	0.398993	0.398993	0	1	0	0	CorrectCommission	2.074586	1.048824	0	0
101.921165	0.791998	city	3	1	0.447898	0.447898	0	1	0	0	CorrectCommission	1.623753	1.075737	0	0
102.713295	0.792260	city	1	1	0.497234	0.497234	0	1	0	0	CorrectCommission	1.168958	1.087638	0	0
103.505554	0.792264	city	9	1	0.506806	0.506806	0	1	0	0	CorrectCommission	1.080720	1.085310	0	0
104.297852	0.792331	city	3	1	0.546788	0.546788	0	1	0	0	CorrectCommission	0.712140	1.070513	0	0
105.090172	0.792306	city	7	1	0.497165	0.497165	0	1	0	0	CorrectCommission	1.169587	1.045772	0	0
105.882401	0.792156	mountain	10	1	0.447749	0.447749	0	0	1	0	CommissionError	1.625132	1.014024	0	0
106.674614	0.792268	mountain	5	1	0.498093	0.498093	0	0	1	0	CommissionError	1.161034	0.978288	0	0
107.466881	0.792263	city	3	1	0.553643	0.553643	0	1	0	0	CorrectCommission	0.648953	0.941376	0	0
108.259201	0.792373	mountain	1	1	0.546719	0.546719	0	0	1	0	CommissionError	0.712777	0.905560	0	0
109.051460	0.792156	city	1	1	0.546789	0.546789	0	1	0	0	CorrectCommission	0.712138	0.872397	0	0
109.843704	0.792321	mountain	5	0	0.000000	0.620204	1	0	0	0	CorrectOmission	0.035363	0.842626	0	0
110.636017	0.792317	city	10	1	0.695325	0.695325	0	1	0	0	CorrectCommission	0.657142	0.816220	0	0
111.428261	0.792159	city	2	1	0.700514	0.700514	0	1	0	0	CorrectCommission	0.704974	0.792467	0	0
112.220474	0.792268	city	3	1	0.695597	0.695597	0	1	0	0	CorrectCommission	0.659645	0.770271	0	0
113.012840	0.792476	city	1	1	0.751269	0.751269	0	1	0	0	CorrectCommission	1.172858	0.748420	0	0
113.805138	0.792114	city	6	1	0.843620	0.843620	0	1	0	0	CorrectCommission	2.024186	0.725855	0	0
114.597298	0.792198	city	9	1	0.712832	0.712832	0	1	0	0	CorrectCommission	0.818526	0.701871	0	0
115.389526	0.792267	city	7	1	0.645745	0.645745	0	1	0	0	CorrectCommission	0.200087	0.676296	1	0
116.181824	0.792332	city	3	1	0.596218	0.596218	0	1	0	0	CorrectCommission	0.256474	0.649415	1	0
116.974144	0.792303	city	7	1	0.547280	0.547280	0	1	0	0	CorrectCommission	0.707611	0.621876	1	0
117.766373	0.792161	city	4	1	0.596097	0.596097	0	1	0	0	CorrectCommission	0.257595	0.594544	1	0
118.558640	0.792368	city	5	1	0.560750	0.560750	0	1	0	0	CorrectCommission	0.583432	0.568368	1	0
119.351013	0.792375	city	3	1	0.699779	0.699779	0	1	0	0	CorrectCommission	0.698198	0.544214	1	0
120.143227	0.792049	city	7	1	0.696523	0.696523	0	1	0	0	CorrectCommission	0.668179	0.522810	1	0
120.935387	0.792281	city	1	1	0.664056	0.664056	0	1	0	0	CorrectCommission	0.368883	0.504667	1	0
121.727760	0.792464	city	5	1	0.608613	0.608613	0	1	0	0	CorrectCommission	0.142215	0.490087	1	0
122.520020	0.792046	city	2	1	0.556697	0.556697	0	1	0	0	CorrectCommission	0.620797	0.479193	1	0
123.312187	0.792286	city	7	1	0.596569	0.596569	0	1	0	0	CorrectCommission	0.253236	0.471963	1	0
124.104446	0.792243	city	3	1	0.596523	0.596523	0	1	0	0	CorrectCommission	0.253665	0.468314	1	0
124.896706	0.792267	mountain	4	0	0.000000	0.687240	1	0	0	0	CorrectOmission	0.582612	0.468136	1	0
125.689026	0.792373	city	7	1	0.745410	0.745410	0	1	0	0	CorrectCommission	1.118849	0.471292	1	0
126.481400	0.792373	city	10	1	0.647720	0.647720	0	1	0	0	CorrectCommission	0.218299	0.477617	1	0
127.273659	0.792155	city	4	1	0.645540	0.645540	0	1	0	0	CorrectCommission	0.198200	0.486941	1	1
128.065811	0.792159	city	5	1	0.649216	0.649216	0	1	0	0	CorrectCommission	0.232085	0.498981	1	1
128.858032	0.792264	city	9	1	0.658606	0.658606	0	1	0	0	CorrectCommission	0.318646	0.513320	1	1
129.650330	0.792325	city	6	1	0.596298	0.596298	0	1	0	0	CorrectCommission	0.255734	0.529377	1	1
130.442581	0.792206	city	8	1	0.745038	0.745038	0	1	0	0	CorrectCommission	1.115415	0.546422	1	1
131.234924	0.792479	mountain	9	0	0.000000	0.732089	1	0	0	0	CorrectOmission	0.996046	0.563548	1	1
132.027191	0.792050	city	8	1	0.663654	0.663654	0	1	0	0	CorrectCommission	0.365181	0.579805	1	1
132.819351	0.792262	city	2	1	0.645935	0.645935	0	1	0	0	CorrectCommission	0.201841	0.594250	1	1
133.611618	0.792279	city	5	1	0.663887	0.663887	0	1	0	0	CorrectCommission	0.367326	0.606003	1	1
134.403885	0.792250	city	10	1	0.695744	0.695744	0	1	0	0	CorrectCommission	0.661000	0.614327	1	1
135.196198	0.792372	city	3	1	0.794299	0.794299	0	1	0	0	CorrectCommission	1.569526	0.618713	1	1
135.988464	0.792159	city	5	1	0.745186	0.745186	0	1	0	0	CorrectCommission	1.116782	0.618913	1	1
136.780670	0.792265	city	9	1	0.611434	0.611434	0	1	0	0	CorrectCommission	0.116206	0.614977	1	1
137.572998	0.792370	city	10	1	0.596246	0.596246	0	1	0	0	CorrectCommission	0.256214	0.607229	1	1
138.365265	0.792161	city	8	1	0.547503	0.547503	0	1	0	0	CorrectCommission	0.705550	0.596198	1	1
139.157471	0.792263	city	3	1	0.547297	0.547297	0	1	0	0	CorrectCommission	0.707452	0.582571	1	1
139.949768	0.792317	city	8	1	0.512990	0.512990	0	1	0	0	CorrectCommission	1.023704	0.567119	1	1
140.742020	0.792214	mountain	2	0	0.000000	0.582851	1	0	0	0	CorrectOmission	0.379702	0.550616	1	1
141.534256	0.792259	city	7	1	0.647258	0.647258	0	1	0	0	CorrectCommission	0.214032	0.533807	1	1
142.326553	0.792325	city	2	1	0.596593	0.596593	0	1	0	0	CorrectCommission	0.253021	0.517323	1	1
143.118881	0.792313	city	6	1	0.546846	0.546846	0	1	0	0	CorrectCommission	0.711606	0.501653	1	1
143.911133	0.792215	city	3	1	0.547063	0.547063	0	1	0	0	CorrectCommission	0.709610	0.487160	1	1
144.703384	0.792276	city	6	1	0.596529	0.596529	0	1	0	0	CorrectCommission	0.253612	0.474058	1	1
145.495621	0.792196	city	10	1	0.546793	0.546793	0	1	0	0	CorrectCommission	0.712102	0.462427	1	1
146.287903	0.792372	city	2	1	0.596301	0.596301	0	1	0	0	CorrectCommission	0.255711	0.452192	1	1
147.080200	0.792216	city	7	1	0.596526	0.596526	0	1	0	0	CorrectCommission	0.253639	0.443173	1	1
147.872467	0.792313	city	1	1	0.562399	0.562399	0	1	0	0	CorrectCommission	0.568236	0.435073	1	1
148.664734	0.792222	city	2	1	0.596398	0.596398	0	1	0	0	CorrectCommission	0.254819	0.427520	1	1
149.457047	0.792417	city	1	1	0.596604	0.596604	0	1	0	0	CorrectCommission	0.252913	0.420131	1	1
150.249390	0.792271	city	5	1	0.596030	0.596030	0	1	0	0	CorrectCommission	0.258209	0.412552	1	1
151.041611	0.792150	city	8	1	0.744782	0.744782	0	1	0	0	CorrectCommission	1.113058	0.404516	1	1
151.833771	0.792186	city	3	1	0.695307	0.695307	0	1	0	0	CorrectCommission	0.656975	0.395875	1	1
152.626038	0.792343	city	10	1	0.646156	0.646156	0	1	0	0	CorrectCommission	0.203879	0.386663	1	1
153.418289	0.792156	city	8	1	0.645786	0.645786	0	1	0	0	CorrectCommission	0.200466	0.377072	1	1
154.210495	0.792251	city	7	1	0.652199	0.652199	0	1	0	0	CorrectCommission	0.259587	0.367422	1	1
155.002747	0.792278	city	2	1	0.657556	0.657556	0	1	0	0	CorrectCommission	0.308971	0.358109	1	1
155.795059	0.792329	city	10	1	0.608120	0.608120	0	1	0	0	CorrectCommission	0.146753	0.349554	1	1
156.587372	0.792309	city	7	1	0.695286	0.695286	0	1	0	0	CorrectCommission	0.656778	0.342174	1	1
157.379639	0.792223	city	3	1	0.596162	0.596162	0	1	0	0	CorrectCommission	0.256991	0.336334	1	1
158.171967	0.792416	mountain	8	0	0.000000	0.642573	1	0	0	0	CorrectOmission	0.170848	0.332378	1	1
158.964310	0.792264	city	9	1	0.695060	0.695060	0	1	0	0	CorrectCommission	0.654697	0.330574	1	1
159.756561	0.792265	city	8	1	0.614164	0.614164	0	1	0	0	CorrectCommission	0.091045	0.331106	1	1
160.548721	0.792049	city	3	1	0.596202	0.596202	0	1	0	0	CorrectCommission	0.256625	0.334080	1	1
161.340881	0.792266	city	1	1	0.610045	0.610045	0	1	0	0	CorrectCommission	0.129014	0.339479	1	1
162.133148	0.792262	city	3	1	0.645788	0.645788	0	1	0	0	CorrectCommission	0.200483	0.347168	1	1
162.925415	0.792267	mountain	5	0	0.000000	0.682867	1	0	0	0	CorrectOmission	0.542296	0.356857	1	1
163.717728	0.792370	city	8	1	0.695271	0.695271	0	1	0	0	CorrectCommission	0.656646	0.368109	1	1
164.510101	0.792373	city	9	1	0.656990	0.656990	0	1	0	0	CorrectCommission	0.303752	0.380358	1	1
165.302368	0.792156	city	4	1	0.645667	0.645667	0	1	0	0	CorrectCommission	0.199365	0.392936	1	1
166.094528	0.792157	city	5	1	0.645676	0.645676	0	1	0	0	CorrectCommission	0.199452	0.405154	1	1
166.886780	0.792374	city	4	1	0.616798	0.616798	0	1	0	0	CorrectCommission	0.066755	0.416351	1	1
167.679153	0.792372	city	5	1	0.695632	0.695632	0	1	0	0	CorrectCommission	0.659973	0.426027	1	1
168.471390	0.792078	mountain	3	0	0.000000	0.723081	1	0	0	0	CorrectOmission	0.913011	0.433923	1	1
169.263550	0.792238	mountain	2	0	0.000000	0.715484	1	0	0	0	CorrectOmission	0.842970	0.440120	1	1
170.055801	0.792262	mountain	1	0	0.000000	0.689177	1	0	0	0	CorrectOmission	0.600460	0.445095	1	1
170.848053	0.792263	city	9	1	0.660499	0.660499	0	1	0	0	CorrectCommission	0.336095	0.449637	1	1
171.640320	0.792264	city	6	1	0.645788	0.645788	0	1	0	0	CorrectCommission	0.200485	0.454767	1	1
172.432587	0.792263	city	8	1	0.646203	0.646203	0	1	0	0	CorrectCommission	0.204308	0.461551	1	1
173.224899	0.792376	city	4	1	0.557967	0.557967	0	1	0	0	CorrectCommission	0.609089	0.470927	1	1
174.017227	0.792264	city	6	1	0.596170	0.596170	0	1	0	0	CorrectCommission	0.256914	0.483496	1	1
174.809494	0.792265	city	8	1	0.598402	0.598402	0	1	0	0	CorrectCommission	0.236340	0.499416	1	1
175.601807	0.792372	city	10	1	0.645623	0.645623	0	1	0	0	CorrectCommission	0.198964	0.518317	1	1
176.394012	0.792047	city	2	1	0.695258	0.695258	0	1	0	0	CorrectCommission	0.656526	0.539313	1	1
177.186218	0.792343	city	10	1	0.695444	0.695444	0	1	0	0	CorrectCommission	0.658237	0.561103	1	1
177.978592	0.792406	city	1	1	0.695194	0.695194	0	1	0	0	CorrectCommission	0.655929	0.582133	1	1
178.770813	0.792045	city	3	1	0.697992	0.697992	0	1	0	0	CorrectCommission	0.681727	0.600785	1	1
179.562973	0.792268	city	10	1	0.695759	0.695759	0	1	0	0	CorrectCommission	0.661138	0.615560	1	1
180.355225	0.792245	city	3	1	0.695587	0.695587	0	1	0	0	CorrectCommission	0.659551	0.625264	1	1
181.147491	0.792285	city	9	1	0.794354	0.794354	0	1	0	0	CorrectCommission	1.570037	0.629128	1	1
181.939758	0.792265	city	4	1	0.696125	0.696125	0	1	0	0	CorrectCommission	0.664514	0.626883	1	1
182.732086	0.792370	city	10	1	0.596829	0.596829	0	1	0	0	CorrectCommission	0.250843	0.618805	1	1
183.524460	0.792376	city	1	1	0.556025	0.556025	0	1	0	0	CorrectCommission	0.626988	0.605618	1	1
184.316681	0.792078	mountain	5	0	0.000000	0.664862	1	0	0	0	CorrectOmission	0.376318	0.588476	1	1
185.108856	0.792287	city	1	1	0.751897	0.751897	0	1	0	0	CorrectCommission	1.178642	0.568889	1	1
185.901108	0.792212	city	4	1	0.645687	0.645687	0	1	0	0	CorrectCommission	0.199554	0.548609	1	1
186.693344	0.792265	city	2	1	0.695410	0.695410	0	1	0	0	CorrectCommission	0.657926	0.529604	1	0
187.485611	0.792262	city	5	1	0.645734	0.645734	0	1	0	0	CorrectCommission	0.199989	0.513877	1	0
188.277985	0.792482	city	10	1	0.695359	0.695359	0	1	0	0	CorrectCommission	0.657455	0.503395	1	0
189.070251	0.792048	city	1	1	0.695266	0.695266	0	1	0	0	CorrectCommission	0.656597	0.499850	1	0
189.862427	0.792296	city	10	1	0.605578	0.605578	0	1	0	0	CorrectCommission	0.170193	0.504510	1	0
190.654694	0.792233	city	4	1	0.596626	0.596626	0	1	0	0	CorrectCommission	0.252711	0.517997	1	0
191.446945	0.792265	city	9	1	0.645743	0.645743	0	1	0	0	CorrectCommission	0.200071	0.540102	1	0
192.239197	0.792265	city	3	1	0.645804	0.645804	0	1	0	0	CorrectCommission	0.200629	0.569692	1	0
193.031464	0.792265	city	10	1	0.663861	0.663861	0	1	0	0	CorrectCommission	0.367090	0.604722	1	0
193.823746	0.792289	mountain	4	0	0.000000	0.674593	1	0	0	0	CorrectOmission	0.466023	0.642376	1	0
194.616043	0.792310	city	5	1	0.646158	0.646158	0	1	0	0	CorrectCommission	0.203892	0.679371	0	0
195.408295	0.792194	city	10	1	0.546713	0.546713	0	1	0	0	CorrectCommission	0.712837	0.712389	0	0
196.200531	0.792268	city	3	1	0.497361	0.497361	0	1	0	0	CorrectCommission	1.167785	0.738528	0	0
196.992813	0.792310	city	10	1	0.893404	0.893404	0	1	0	0	CorrectCommission	2.483127	0.755739	0	0
197.785080	0.792217	mountain	2	0	0.000000	0.852107	1	0	0	0	CorrectOmission	2.102428	0.763130	0	0
198.577347	0.792325	city	2	1	0.645767	0.645767	0	1	0	0	CorrectCommission	0.200290	0.761100	0	0
199.369629	0.792217	city	3	1	0.546683	0.546683	0	1	0	0	CorrectCommission	0.713114	0.751254	0	0
200.161850	0.792254	city	9	1	0.562941	0.562941	0	1	0	0	CorrectCommission	0.563237	0.735999	0	0
200.954147	0.792334	city	7	1	0.596330	0.596330	0	1	0	0	CorrectCommission	0.255446	0.718138	0	0
201.746429	0.792228	city	8	1	0.598713	0.598713	0	1	0	0	CorrectCommission	0.233470	0.700383	0	0
202.538666	0.792231	city	9	1	0.596225	0.596225	0	1	0	0	CorrectCommission	0.256415	0.684889	0	0
203.330917	0.792267	city	8	1	0.513129	0.513129	0	1	0	0	CorrectCommission	1.022424	0.672999	1	0
204.123169	0.792261	city	7	1	0.596753	0.596753	0	1	0	0	CorrectCommission	0.251547	0.665070	1	0
204.915436	0.792267	city	5	1	0.548530	0.548530	0	1	0	0	CorrectCommission	0.696087	0.660615	1	0
205.707764	0.792373	city	10	1	0.546715	0.546715	0	1	0	0	CorrectCommission	0.712812	0.658449	1	0
206.500015	0.792153	city	9	1	0.560208	0.560208	0	1	0	0	CorrectCommission	0.588429	0.657034	1	0
207.292343	0.792484	city	2	1	0.549688	0.549688	0	1	0	0	CorrectCommission	0.685406	0.654811	1	0
208.084610	0.792046	city	6	1	0.506018	0.506018	0	1	0	0	CorrectCommission	1.087981	0.650514	1	0
208.876816	0.792374	city	2	1	0.497210	0.497210	0	1	0	0	CorrectCommission	1.169178	0.643379	1	0
209.669083	0.792154	city	5	1	0.546620	0.546620	0	1	0	0	CorrectCommission	0.713691	0.633257	1	0
210.461304	0.792295	city	7	1	0.547179	0.547179	0	1	0	0	CorrectCommission	0.708538	0.620597	1	0
211.253571	0.792240	city	10	1	0.547164	0.547164	0	1	0	0	CorrectCommission	0.708680	0.606271	1	0
212.045883	0.792370	city	7	1	0.599136	0.599136	0	1	0	0	CorrectCommission	0.229571	0.591374	1	0
212.838150	0.792173	city	4	1	0.614040	0.614040	0	1	0	0	CorrectCommission	0.092183	0.576989	1	0
213.630356	0.792248	city	9	1	0.605464	0.605464	0	1	0	0	CorrectCommission	0.171241	0.563977	1	0
214.422729	0.792483	city	3	1	0.560234	0.560234	0	1	0	0	CorrectCommission	0.588191	0.552831	1	0
215.215042	0.792154	city	9	1	0.546536	0.546536	0	1	0	0	CorrectCommission	0.714462	0.543656	1	0
216.007233	0.792227	city	3	1	0.556090	0.556090	0	1	0	0	CorrectCommission	0.626395	0.536250	1	0
216.799500	0.792304	city	2	1	0.546652	0.546652	0	1	0	0	CorrectCommission	0.713394	0.530178	1	0
217.591782	0.792263	city	7	1	0.546731	0.546731	0	1	0	0	CorrectCommission	0.712670	0.524918	1	0
218.384018	0.792207	mountain	7	1	0.546626	0.546626	0	0	1	0	CommissionError	0.713637	0.519977	1	0
219.176224	0.792214	city	7	1	0.613736	0.613736	0	1	0	0	CorrectCommission	0.094989	0.514981	1	0
219.968475	0.792296	city	6	1	0.596213	0.596213	0	1	0	0	CorrectCommission	0.256522	0.509726	1	0
220.760803	0.792343	city	5	1	0.547529	0.547529	0	1	0	0	CorrectCommission	0.705316	0.504156	1	0
221.553101	0.792265	city	8	1	0.546942	0.546942	0	1	0	0	CorrectCommission	0.710722	0.498384	1	0
222.345322	0.792156	city	6	1	0.605386	0.605386	0	1	0	0	CorrectCommission	0.171958	0.492645	1	0
223.137527	0.792263	city	8	1	0.547938	0.547938	0	1	0	0	CorrectCommission	0.701545	0.487264	1	0
223.929794	0.792289	city	10	1	0.553107	0.553107	0	1	0	0	CorrectCommission	0.653891	0.482586	1	0
224.722061	0.792241	city	4	1	0.596313	0.596313	0	1	0	0	CorrectCommission	0.255598	0.478939	1	0
225.514313	0.792265	city	1	1	0.546761	0.546761	0	1	0	0	CorrectCommission	0.712390	0.476570	1	0
226.306580	0.792265	city	7	1	0.596383	0.596383	0	1	0	0	CorrectCommission	0.254950	0.475566	1	0
227.098862	0.792287	city	8	1	0.600995	0.600995	0	1	0	0	CorrectCommission	0.212438	0.475868	1	0
227.891129	0.792250	city	5	1	0.597779	0.597779	0	1	0	0	CorrectCommission	0.242082	0.477220	1	0
228.683411	0.792322	city	8	1	0.695240	0.695240	0	1	0	0	CorrectCommission	0.656352	0.479197	1	0
229.475677	0.792199	city	1	1	0.695204	0.695204	0	1	0	0	CorrectCommission	0.656020	0.481266	1	0
230.268021	0.792483	city	6	1	0.695731	0.695731	0	1	0	0	CorrectCommission	0.660882	0.482857	1	0
231.060287	0.792050	city	8	1	0.646172	0.646172	0	1	0	0	CorrectCommission	0.204021	0.483449	1	0
231.852493	0.792371	city	1	1	0.596505	0.596505	0	1	0	0	CorrectCommission	0.253827	0.482661	1	0
232.644760	0.792163	city	2	1	0.512146	0.512146	0	1	0	0	CorrectCommission	1.031491	0.480276	1	0
233.437073	0.792473	city	7	1	0.546962	0.546962	0	1	0	0	CorrectCommission	0.710543	0.476268	1	0
234.229401	0.792156	city	5	1	0.546529	0.546529	0	1	0	0	CorrectCommission	0.714528	0.470864	1	0
235.021652	0.792376	city	3	1	0.596173	0.596173	0	1	0	0	CorrectCommission	0.256889	0.464382	1	0
235.813873	0.792047	city	10	1	0.645540	0.645540	0	1	0	0	CorrectCommission	0.198200	0.457237	1	0
236.606079	0.792372	city	4	1	0.596812	0.596812	0	1	0	0	CorrectCommission	0.250998	0.449868	1	0
237.398346	0.792159	city	10	1	0.597014	0.597014	0	1	0	0	CorrectCommission	0.249139	0.442689	1	0
238.190552	0.792265	city	8	1	0.596251	0.596251	0	1	0	0	CorrectCommission	0.256169	0.436103	1	0
238.982880	0.792370	city	10	1	0.546718	0.546718	0	1	0	0	CorrectCommission	0.712792	0.430537	1	0
239.775253	0.792374	city	5	1	0.547246	0.547246	0	1	0	0	CorrectCommission	0.707919	0.426513	1	0
240.567474	0.792076	city	7	1	0.546490	0.546490	0	1	0	0	CorrectCommission	0.714889	0.424680	1	0
241.359634	0.792235	city	4	1	0.596217	0.596217	0	1	0	0	CorrectCommission	0.256486	0.425807	1	0
242.151871	0.792264	city	1	1	0.566961	0.566961	0	1	0	0	CorrectCommission	0.526178	0.430793	1	0
242.944199	0.792373	city	4	1	0.607811	0.607811	0	1	0	0	CorrectCommission	0.149601	0.440509	1	0
243.736465	0.792174	city	5	1	0.646161	0.646161	0	1	0	0	CorrectCommission	0.203925	0.455733	1	0
244.528732	0.792339	city	3	1	0.655717	0.655717	0	1	0	0	CorrectCommission	0.292016	0.476975	1	0
245.320984	0.792173	city	4	1	0.614452	0.614452	0	1	0	0	CorrectCommission	0.088385	0.504387	1	0
246.113281	0.792428	city	2	1	0.596234	0.596234	0	1	0	0	CorrectCommission	0.256326	0.537678	1	1
246.905655	0.792319	city	1	1	0.546894	0.546894	0	1	0	0	CorrectCommission	0.711162	0.576115	1	1
247.697845	0.792048	city	3	1	0.596062	0.596062	0	1	0	0	CorrectCommission	0.257912	0.618582	1	1
248.490005	0.792270	mountain	6	1	0.597688	0.597688	0	0	1	0	CommissionError	0.242927	0.663681	1	1
249.282379	0.792478	city	6	1	0.957536	0.957536	0	1	0	0	CorrectCommission	3.074322	0.709825	0	1
250.074661	0.792106	city	4	1	0.649265	0.649265	0	1	0	0	CorrectCommission	0.232536	0.755255	0	1
250.866943	0.792452	city	9	1	0.596199	0.596199	0	1	0	0	CorrectCommission	0.256649	0.798294	0	1
251.659180	0.792019	city	10	1	0.548695	0.548695	0	1	0	0	CorrectCommission	0.694565	0.837234	0	1
252.451370	0.792373	city	8	1	0.607433	0.607433	0	1	0	0	CorrectCommission	0.153090	0.870465	0	1
253.243698	0.792264	city	9	1	0.695366	0.695366	0	1	0	0	CorrectCommission	0.657516	0.896579	0	1
254.036011	0.792375	city	2	1	0.744786	0.744786	0	1	0	0	CorrectCommission	1.113098	0.914461	0	1
254.828339	0.792264	mountain	8	0	0.000000	0.857573	1	0	0	0	CorrectOmission	2.152817	0.923454	0	1
255.620483	0.792047	city	3	1	0.893168	0.893168	0	1	0	0	CorrectCommission	2.480946	0.923438	0	1
256.412659	0.792270	city	10	1	0.711013	0.711013	0	1	0	0	CorrectCommission	0.801758	0.914870	0	1
257.204926	0.792275	city	2	1	0.745110	0.745110	0	1	0	0	CorrectCommission	1.116078	0.898750	0	1
257.997192	0.792250	city	9	1	0.646186	0.646186	0	1	0	0	CorrectCommission	0.204153	0.876375	0	1
258.789429	0.792263	city	7	1	0.614643	0.614643	0	1	0	0	CorrectCommission	0.086624	0.849184	0	1
259.581757	0.792376	city	2	1	0.645750	0.645750	0	1	0	0	CorrectCommission	0.200137	0.818524	0	1
260.374023	0.792156	city	3	1	0.746973	0.746973	0	1	0	0	CorrectCommission	1.133259	0.785521	0	1
261.166260	0.792293	city	1	1	0.695276	0.695276	0	1	0	0	CorrectCommission	0.656690	0.751060	0	1
261.958557	0.792345	city	7	1	0.746603	0.746603	0	1	0	0	CorrectCommission	1.129841	0.715896	0	1
262.750824	0.792156	city	4	1	0.794376	0.794376	0	1	0	0	CorrectCommission	1.570239	0.680743	0	1
263.543030	0.792264	city	2	1	0.696861	0.696861	0	1	0	0	CorrectCommission	0.671300	0.646407	1	1
264.335327	0.792337	city	10	1	0.695268	0.695268	0	1	0	0	CorrectCommission	0.656611	0.613857	1	1
265.127594	0.792195	mountain	1	0	0.000000	0.653229	1	0	0	0	CorrectOmission	0.269081	0.584160	1	1
265.919830	0.792261	mountain	3	0	0.000000	0.611985	1	0	0	0	CorrectOmission	0.111125	0.558395	1	1
266.712097	0.792270	city	3	1	0.612776	0.612776	0	1	0	0	CorrectCommission	0.103840	0.537398	1	1
267.504364	0.792309	city	2	1	0.696840	0.696840	0	1	0	0	CorrectCommission	0.671102	0.521670	1	1
268.296661	0.792234	city	4	1	0.645716	0.645716	0	1	0	0	CorrectCommission	0.199819	0.511187	1	1
269.088898	0.792292	city	6	1	0.650431	0.650431	0	1	0	0	CorrectCommission	0.243289	0.505382	1	1
269.881287	0.792437	mountain	9	0	0.000000	0.682125	1	0	0	0	CorrectOmission	0.535453	0.503200	1	1
270.673584	0.792156	city	3	1	0.695637	0.695637	0	1	0	0	CorrectCommission	0.660016	0.503241	1	1
271.465729	0.792158	city	8	1	0.645810	0.645810	0	1	0	0	CorrectCommission	0.200683	0.504017	1	1
272.257935	0.792268	city	4	1	0.695299	0.695299	0	1	0	0	CorrectCommission	0.656896	0.504208	1	1
273.050262	0.792368	city	3	1	0.745182	0.745182	0	1	0	0	CorrectCommission	1.116748	0.502875	1	1
273.842560	0.792221	city	8	1	0.695400	0.695400	0	1	0	0	CorrectCommission	0.657827	0.499668	1	1
274.634766	0.792201	city	1	1	0.745525	0.745525	0	1	0	0	CorrectCommission	1.119902	0.494850	1	1
275.427002	0.792270	city	8	1	0.601094	0.601094	0	1	0	0	CorrectCommission	0.211525	0.489197	1	1
276.219330	0.792367	city	3	1	0.596919	0.596919	0	1	0	0	CorrectCommission	0.250012	0.483832	1	1
277.011566	0.792155	city	7	1	0.596109	0.596109	0	1	0	0	CorrectCommission	0.257476	0.479941	1	1
277.803833	0.792373	city	5	1	0.646377	0.646377	0	1	0	0	CorrectCommission	0.205910	0.478435	1	1
278.596161	0.792267	city	7	1	0.646238	0.646238	0	1	0	0	CorrectCommission	0.204634	0.479803	1	1
279.388397	0.792216	city	8	1	0.607613	0.607613	0	1	0	0	CorrectCommission	0.151431	0.483946	1	1
280.180725	0.792421	city	1	1	0.645684	0.645684	0	1	0	0	CorrectCommission	0.199523	0.490209	1	1
280.973053	0.792265	city	6	1	0.695590	0.695590	0	1	0	0	CorrectCommission	0.659581	0.497559	1	1
281.765228	0.792046	city	4	1	0.744981	0.744981	0	1	0	0	CorrectCommission	1.114894	0.504803	1	1
282.557373	0.792269	city	7	1	0.695258	0.695258	0	1	0	0	CorrectCommission	0.656520	0.510917	1	1
283.349640	0.792263	mountain	6	0	0.000000	0.691562	1	0	0	0	CorrectOmission	0.622452	0.515324	1	1
284.141907	0.792284	city	3	1	0.702602	0.702602	0	1	0	0	CorrectCommission	0.724226	0.518065	1	1
284.934174	0.792248	city	2	1	0.697087	0.697087	0	1	0	0	CorrectCommission	0.673380	0.519845	1	1
285.726471	0.792314	city	3	1	0.695414	0.695414	0	1	0	0	CorrectCommission	0.657958	0.521968	1	1
286.518738	0.792211	mountain	9	0	0.000000	0.674740	1	0	0	0	CorrectOmission	0.467373	0.526109	1	1
287.310974	0.792268	city	1	1	0.652405	0.652405	0	1	0	0	CorrectCommission	0.261485	0.533981	1	1
288.103241	0.792261	city	4	1	0.645752	0.645752	0	1	0	0	CorrectCommission	0.200154	0.546995	1	1
288.895508	0.792268	city	2	1	0.646318	0.646318	0	1	0	0	CorrectCommission	0.205368	0.565960	1	1
289.687775	0.792259	city	1	1	0.612365	0.612365	0	1	0	0	CorrectCommission	0.107626	0.590833	1	1
290.480072	0.792376	city	10	1	0.596284	0.596284	0	1	0	0	CorrectCommission	0.255866	0.620650	1	1
291.272339	0.792154	city	1	1	0.645707	0.645707	0	1	0	0	CorrectCommission	0.199734	0.653616	1	1
292.064575	0.792327	city	4	1	0.844685	0.844685	0	1	0	0	CorrectCommission	2.034007	0.687304	0	1
292.856842	0.792206	city	2	1	0.648386	0.648386	0	1	0	0	CorrectCommission	0.224430	0.718959	0	1
293.649109	0.792283	city	6	1	0.506630	0.506630	0	1	0	0	CorrectCommission	1.082337	0.745961	0	1
294.441345	0.792246	city	3	1	0.506763	0.506763	0	1	0	0	CorrectCommission	1.081109	0.766047	0	1
295.233643	0.792323	city	2	1	0.506457	0.506457	0	1	0	0	CorrectCommission	1.083936	0.777677	0	1
296.025909	0.792210	city	10	1	0.457065	0.457065	0	1	0	0	CorrectCommission	1.539247	0.780166	0	1
296.818146	0.792260	city	2	1	0.695285	0.695285	0	1	0	0	CorrectCommission	0.656774	0.773746	0	1
297.610474	0.792372	city	10	1	0.546731	0.546731	0	1	0	0	CorrectCommission	0.712668	0.759523	0	1
298.402740	0.792161	city	2	1	0.560611	0.560611	0	1	0	0	CorrectCommission	0.584714	0.739297	0	1
299.195038	0.792478	city	3	1	0.549023	0.549023	0	1	0	0	CorrectCommission	0.691543	0.715354	0	1
299.987427	0.792265	city	1	1	0.548536	0.548536	0	1	0	0	CorrectCommission	0.696026	0.690254	0	1
300.779602	0.792106	city	8	1	0.564172	0.564172	0	1	0	0	CorrectCommission	0.551886	0.666581	1	1
301.571747	0.792206	mountain	6	1	0.512596	0.512596	0	0	1	0	CommissionError	1.027338	0.646730	1	1
302.363983	0.792267	city	7	1	0.648889	0.648889	0	1	0	0	CorrectCommission	0.229071	0.632730	1	1
303.156372	0.792478	city	1	1	0.596213	0.596213	0	1	0	0	CorrectCommission	0.256519	0.626147	1	1
303.948730	0.792266	city	5	1	0.548258	0.548258	0	1	0	0	CorrectCommission	0.698589	0.627975	1	1
304.740906	0.792083	city	3	1	0.596053	0.596053	0	1	0	0	CorrectCommission	0.257998	0.638636	1	1
305.533081	0.792249	city	9	1	0.596209	0.596209	0	1	0	0	CorrectCommission	0.256562	0.658051	1	0
306.325378	0.792353	mountain	10	0	0.000000	0.579275	1	0	0	0	CorrectOmission	0.412661	0.685726	0	0
307.117737	0.792374	city	10	1	0.558338	0.558338	0	1	0	0	CorrectCommission	0.605668	0.720897	0	0
307.909973	0.792048	city	4	1	0.546483	0.546483	0	1	0	0	CorrectCommission	0.714952	0.762684	0	0
308.702118	0.792263	city	5	1	0.497752	0.497752	0	1	0	0	CorrectCommission	1.164176	0.810183	0	0
309.494476	0.792483	city	9	1	0.497507	0.497507	0	1	0	0	CorrectCommission	1.166442	0.862487	0	0
310.286774	0.792065	city	10	1	0.447788	0.447788	0	1	0	0	CorrectCommission	1.624774	0.918654	0	0
311.078949	0.792304	city	8	1	0.546814	0.546814	0	1	0	0	CorrectCommission	0.711902	0.977521	0	0
311.871216	0.792209	city	6	1	0.549589	0.549589	0	1	0	0	CorrectCommission	0.686320	1.037554	0	0
312.663452	0.792265	city	4	1	0.645762	0.645762	0	1	0	0	CorrectCommission	0.200242	1.096637	0	0
313.455719	0.792289	mountain	5	1	0.547005	0.547005	0	0	1	0	CommissionError	0.710143	1.152017	0	0
314.248077	0.792457	city	3	1	0.547289	0.547289	0	1	0	0	CorrectCommission	0.707524	1.200400	0	0
315.040436	0.792264	city	8	1	0.447875	0.447875	0	1	0	0	CorrectCommission	1.623972	1.238239	0	0
315.832611	0.792064	city	1	1	0.399255	0.399255	0	1	0	0	CorrectCommission	2.072171	1.262171	0	0
316.624756	0.792250	city	9	1	0.400486	0.400486	0	1	0	0	CorrectCommission	2.060819	1.269567	0	0
317.417145	0.792479	city	5	1	0.349113	0.349113	0	1	0	0	CorrectCommission	2.534398	1.259016	0	0
318.209412	0.792050	city	4	1	0.366151	0.366151	0	1	0	0	CorrectCommission	2.377338	1.230659	0	0
319.001556	0.792266	city	7	1	0.447865	0.447865	0	1	0	0	CorrectCommission	1.624065	1.186287	0	0
319.793823	0.792281	city	4	1	0.498157	0.498157	0	1	0	0	CorrectCommission	1.160449	1.129202	0	0
320.586090	0.792244	city	8	1	0.596380	0.596380	0	1	0	0	CorrectCommission	0.254978	1.063761	0	0
321.378418	0.792374	city	7	1	0.601163	0.601163	0	1	0	0	CorrectCommission	0.210887	0.994838	0	0
322.170654	0.792157	city	4	1	0.596179	0.596179	0	1	0	0	CorrectCommission	0.256837	0.927208	0	0
322.962982	0.792480	city	2	1	0.512197	0.512197	0	1	0	0	CorrectCommission	1.031020	0.865010	0	0
323.755249	0.792050	mountain	9	0	0.000000	0.664030	1	0	0	0	CorrectOmission	0.368650	0.811354	0	0
324.547424	0.792263	city	6	1	0.794333	0.794333	0	1	0	0	CorrectCommission	1.569844	0.768155	0	0
325.339722	0.792372	city	3	1	0.645761	0.645761	0	1	0	0	CorrectCommission	0.200235	0.736020	0	0
326.131989	0.792159	mountain	10	0	0.000000	0.647073	1	0	0	0	CorrectOmission	0.212328	0.714473	0	0
326.924194	0.792265	city	4	1	0.664183	0.664183	0	1	0	0	CorrectCommission	0.370057	0.702122	0	0
327.716492	0.792303	city	10	1	0.563005	0.563005	0	1	0	0	CorrectCommission	0.562646	0.696984	0	0
328.508759	0.792227	city	2	1	0.547493	0.547493	0	1	0	0	CorrectCommission	0.705643	0.696842	0	0
329.301056	0.792371	mountain	4	1	0.513195	0.513195	0	0	1	0	CommissionError	1.021823	0.699544	0	0
330.093323	0.792154	city	6	1	0.547362	0.547362	0	1	0	0	CorrectCommission	0.706851	0.703260	0	0
330.885529	0.792267	city	2	1	0.506837	0.506837	0	1	0	0	CorrectCommission	1.080426	0.706656	0	0
331.677795	0.792273	mountain	5	0	0.000000	0.495635	1	0	0	0	CorrectOmission	1.183695	0.708941	0	0
332.470062	0.792258	mountain	6	1	0.547304	0.547304	0	0	1	0	CommissionError	0.707386	0.709805	0	0
333.262421	0.792479	city	4	1	0.695394	0.695394	0	1	0	0	CorrectCommission	0.657772	0.709303	0	0
334.054688	0.792049	city	3	1	0.596091	0.596091	0	1	0	0	CorrectCommission	0.257641	0.707626	0	0
334.846863	0.792267	city	1	1	0.547223	0.547223	0	1	0	0	CorrectCommission	0.708131	0.704905	0	0
335.639130	0.792264	city	3	1	0.596260	0.596260	0	1	0	0	CorrectCommission	0.256090	0.701059	0	0
336.431458	0.792397	city	1	1	0.695280	0.695280	0	1	0	0	CorrectCommission	0.656724	0.695794	0	0
337.223724	0.792157	city	6	1	0.546839	0.546839	0	1	0	0	CorrectCommission	0.711673	0.688596	0	0
338.015961	0.792308	city	3	1	0.556282	0.556282	0	1	0	0	CorrectCommission	0.624621	0.678947	0	0
338.808319	0.792412	city	5	1	0.510556	0.510556	0	1	0	0	CorrectCommission	1.046150	0.666494	1	0
339.600555	0.792049	city	6	1	0.447614	0.447614	0	1	0	0	CorrectCommission	1.626378	0.651247	1	0
340.392700	0.792263	city	5	1	0.546729	0.546729	0	1	0	0	CorrectCommission	0.712683	0.633697	1	0
341.184967	0.792265	city	4	1	0.695313	0.695313	0	1	0	0	CorrectCommission	0.657028	0.614908	1	0
341.977295	0.792372	city	10	1	0.645770	0.645770	0	1	0	0	CorrectCommission	0.200316	0.596342	1	0
342.769562	0.792155	city	2	1	0.596193	0.596193	0	1	0	0	CorrectCommission	0.256703	0.579762	1	0
343.561859	0.792483	city	5	1	0.563093	0.563093	0	1	0	0	CorrectCommission	0.561837	0.566891	1	0
344.354248	0.792265	mountain	9	0	0.000000	0.571643	1	0	0	0	CorrectOmission	0.483015	0.559181	1	0
345.146454	0.792155	city	8	1	0.596012	0.596012	0	1	0	0	CorrectCommission	0.258376	0.557615	1	0
345.938599	0.792160	city	3	1	0.610365	0.610365	0	1	0	0	CorrectCommission	0.126060	0.562578	1	0
346.730835	0.792260	city	1	1	0.596362	0.596362	0	1	0	0	CorrectCommission	0.255150	0.573848	1	0
347.523071	0.792268	city	3	1	0.596217	0.596217	0	1	0	0	CorrectCommission	0.256484	0.590716	1	0
348.315338	0.792266	city	2	1	0.507690	0.507690	0	1	0	0	CorrectCommission	1.072564	0.612208	1	0
349.107666	0.792370	city	8	1	0.504448	0.504448	0	1	0	0	CorrectCommission	1.102453	0.637274	1	0
349.900055	0.792374	city	10	1	0.546673	0.546673	0	1	0	0	CorrectCommission	0.713204	0.665112	1	0
350.692352	0.792263	city	9	1	0.548695	0.548695	0	1	0	0	CorrectCommission	0.694561	0.695345	0	0
351.484528	0.792059	city	5	1	0.498858	0.498858	0	1	0	0	CorrectCommission	1.153984	0.728119	0	0
352.276672	0.792256	city	4	1	0.646059	0.646059	0	1	0	0	CorrectCommission	0.202978	0.764059	0	0
353.068939	0.792262	city	2	1	0.547269	0.547269	0	1	0	0	CorrectCommission	0.707706	0.804182	0	0
353.861206	0.792265	city	10	1	0.546862	0.546862	0	1	0	0	CorrectCommission	0.711459	0.849581	0	0
354.653473	0.792264	city	8	1	0.546937	0.546937	0	1	0	0	CorrectCommission	0.710765	0.901175	0	0
355.445740	0.792266	city	10	1	0.547287	0.547287	0	1	0	0	CorrectCommission	0.707540	0.959380	0	0
356.238098	0.792482	city	2	1	0.546756	0.546756	0	1	0	0	CorrectCommission	0.712442	1.023830	0	0
357.030426	0.792156	mountain	8	0	0.000000	0.729790	1	0	0	0	CorrectOmission	0.974854	1.093152	0	0
357.822571	0.792155	mountain	6	1	0.862283	0.862283	0	0	1	0	CommissionError	2.196239	1.164945	0	0
358.614777	0.792268	city	1	1	0.710128	0.710128	0	1	0	0	CorrectCommission	0.793604	1.235806	0	0
359.407166	0.792479	mountain	5	0	0.000000	0.660928	1	0	0	0	CorrectOmission	0.340050	1.301725	0	0
360.199432	0.792076	city	10	1	0.695404	0.695404	0	1	0	0	CorrectCommission	0.657863	1.358453	0	0
360.991699	0.792454	city	7	1	0.794277	0.794277	0	1	0	0	CorrectCommission	1.569329	1.402153	0	0
361.783966	0.792046	city	4	1	0.856215	0.856215	0	1	0	0	CorrectCommission	2.140297	1.430158	0	0
362.576141	0.792326	city	10	1	0.942888	0.942888	0	1	0	0	CorrectCommission	2.939290	1.441638	0	0
363.368408	0.792203	city	8	1	1.092093	1.092093	0	1	0	0	CorrectCommission	4.314728	1.438032	0	0
364.160767	0.792484	city	4	0	0.000000	0.817166	0	0	0	1	OmissionError	1.780330	1.423085	0	0
364.953003	0.792044	city	9	1	0.506100	0.506100	0	1	0	0	CorrectCommission	1.087227	1.402588	0	1
365.745178	0.792267	city	6	1	0.546884	0.546884	0	1	0	0	CorrectCommission	0.711262	1.383441	0	1
366.537445	0.792269	city	7	1	0.562651	0.562651	0	1	0	0	CorrectCommission	0.565913	1.372538	0	1
367.329712	0.792261	city	5	1	0.598757	0.598757	0	1	0	0	CorrectCommission	0.233071	1.375544	0	1
368.122009	0.792371	city	9	1	0.649236	0.649236	0	1	0	0	CorrectCommission	0.232269	1.395755	0	1
368.914398	0.792375	city	5	1	0.645658	0.645658	0	1	0	0	CorrectCommission	0.199284	1.433270	0	1
369.706726	0.792265	city	1	1	0.695248	0.695248	0	1	0	0	CorrectCommission	0.656425	1.484784	0	1
370.498993	0.792264	city	5	1	0.745478	0.745478	0	1	0	0	CorrectCommission	1.119469	1.543915	0	1
371.291138	0.792028	city	9	1	0.795974	0.795974	0	1	0	0	CorrectCommission	1.584964	1.602154	0	1
372.083282	0.792290	city	5	1	0.801112	0.801112	0	1	0	0	CorrectCommission	1.632334	1.650164	0	1
372.875549	0.792265	city	6	1	0.993158	0.993158	0	1	0	0	CorrectCommission	3.402698	1.679333	0	1
373.667816	0.792258	city	5	1	1.042193	1.042193	0	1	0	0	CorrectCommission	3.854726	1.683202	0	1
374.460083	0.792269	city	9	1	1.159452	1.159452	0	1	0	0	CorrectCommission	4.935675	1.658588	0	1
375.252411	0.792368	mountain	8	0	0.000000	0.963321	1	0	0	0	CorrectOmission	3.127648	1.606036	0	1
376.044769	0.792375	city	8	1	0.695287	0.695287	0	1	0	0	CorrectCommission	0.656788	1.529790	0	1
376.837006	0.792073	city	6	1	0.596837	0.596837	0	1	0	0	CorrectCommission	0.250766	1.436997	0	1
377.629211	0.792347	city	4	1	0.661633	0.661633	0	1	0	0	CorrectCommission	0.346547	1.336479	0	1
378.421570	0.792375	city	8	1	0.558736	0.558736	0	1	0	0	CorrectCommission	0.602001	1.237399	0	1
379.213898	0.792263	city	6	1	0.645975	0.645975	0	1	0	0	CorrectCommission	0.202212	1.147981	0	1
380.006042	0.792048	city	9	1	0.695027	0.695027	0	1	0	0	CorrectCommission	0.654394	1.074492	0	1
380.798309	0.792480	city	5	1	0.744934	0.744934	0	1	0	0	CorrectCommission	1.114454	1.020575	0	1
381.590576	0.792051	city	8	1	0.646212	0.646212	0	1	0	0	CorrectCommission	0.204389	0.987169	0	1
382.382721	0.792263	mountain	3	0	0.000000	0.695483	1	0	0	0	CorrectOmission	0.658598	0.972737	0	1
383.175110	0.792482	city	4	1	0.744795	0.744795	0	1	0	0	CorrectCommission	1.113176	0.973768	0	1
383.967377	0.792047	city	6	1	0.646192	0.646192	0	1	0	0	CorrectCommission	0.204213	0.985605	0	1
384.759644	0.792481	city	3	1	0.596343	0.596343	0	1	0	0	CorrectCommission	0.255320	1.003269	0	1
385.552002	0.792266	mountain	8	0	0.000000	0.818931	1	0	0	0	CorrectOmission	1.796593	1.022242	0	1
386.344177	0.792047	city	6	1	1.004570	1.004570	0	1	0	0	CorrectCommission	3.507905	1.039039	0	1
387.136322	0.792266	city	10	1	0.843878	0.843878	0	1	0	0	CorrectCommission	2.026571	1.051560	0	1
387.928589	0.792267	city	3	1	0.646243	0.646243	0	1	0	0	CorrectCommission	0.204675	1.059200	0	1
388.720856	0.792260	city	8	1	0.546758	0.546758	0	1	0	0	CorrectCommission	0.712417	1.062579	0	1
389.513153	0.792372	city	1	1	0.559397	0.559397	0	1	0	0	CorrectCommission	0.595910	1.063063	0	1
390.305420	0.792160	city	3	1	0.713428	0.713428	0	1	0	0	CorrectCommission	0.824025	1.062279	0	1
391.097656	0.792261	city	9	1	0.554026	0.554026	0	1	0	0	CorrectCommission	0.645419	1.061624	0	1
391.889923	0.792266	city	2	1	0.706663	0.706663	0	1	0	0	CorrectCommission	0.761655	1.061887	0	1
392.682220	0.792371	city	3	1	0.709708	0.709708	0	1	0	0	CorrectCommission	0.789728	1.063120	0	1
393.474487	0.792159	city	2	1	0.744683	0.744683	0	1	0	0	CorrectCommission	1.112147	1.064654	0	1
394.266754	0.792373	city	9	1	0.812832	0.812832	0	1	0	0	CorrectCommission	1.740370	1.065271	0	1
395.059082	0.792265	mountain	6	0	0.000000	0.795579	1	0	0	0	CorrectOmission	1.581325	1.063480	0	1
395.851288	0.792158	city	9	1	0.760087	0.760087	0	1	0	0	CorrectCommission	1.254148	1.057824	0	1
396.643555	0.792371	mountain	2	0	0.000000	0.773520	1	0	0	0	CorrectOmission	1.377978	1.047112	0	1
397.435852	0.792208	city	4	1	0.751530	0.751530	0	1	0	0	CorrectCommission	1.175261	1.030611	0	1
398.228119	0.792320	city	6	1	0.609769	0.609769	0	1	0	0	CorrectCommission	0.131554	1.008118	0	1
399.020355	0.792158	city	5	1	0.498899	0.498899	0	1	0	0	CorrectCommission	1.153602	0.980052	0	1
399.812561	0.792281	city	8	1	0.646361	0.646361	0	1	0	0	CorrectCommission	0.205768	0.947358	0	1
400.604828	0.792249	mountain	7	0	0.000000	0.794144	1	0	0	0	CorrectOmission	1.568098	0.911519	0	1
401.397095	0.792267	city	2	1	0.855773	0.855773	0	1	0	0	CorrectCommission	2.136219	0.874405	0	1
402.189453	0.792478	city	7	1	0.744772	0.744772	0	1	0	0	CorrectCommission	1.112965	0.838147	0	1
402.981781	0.792155	city	8	1	0.596207	0.596207	0	1	0	0	CorrectCommission	0.256573	0.804926	0	1
403.773926	0.792157	city	4	1	0.558194	0.558194	0	1	0	0	CorrectCommission	0.607001	0.776651	0	1
404.566162	0.792332	city	10	1	0.614851	0.614851	0	1	0	0	CorrectCommission	0.084706	0.754688	0	1
405.358429	0.792200	city	3	1	0.596203	0.596203	0	1	0	0	CorrectCommission	0.256617	0.739649	0	1
406.150665	0.792261	city	9	1	0.605414	0.605414	0	1	0	0	CorrectCommission	0.171699	0.731169	0	1
406.943054	0.792485	city	6	1	0.646267	0.646267	0	1	0	0	CorrectCommission	0.204896	0.727942	0	1
407.735352	0.792099	city	2	1	0.508556	0.508556	0	1	0	0	CorrectCommission	1.064586	0.727894	0	1
408.527588	0.792429	city	5	1	0.546916	0.546916	0	1	0	0	CorrectCommission	0.710967	0.728488	0	1
409.319855	0.792051	city	7	1	0.501166	0.501166	0	1	0	0	CorrectCommission	1.132707	0.727209	0	1
410.112000	0.792260	city	10	1	0.448322	0.448322	0	1	0	0	CorrectCommission	1.619847	0.721933	0	1
410.904266	0.792269	mountain	5	1	0.451086	0.451086	0	0	1	0	CommissionError	1.594367	0.711299	0	1
411.696564	0.792316	city	6	1	0.596671	0.596671	0	1	0	0	CorrectCommission	0.252302	0.694923	0	1
412.488831	0.792210	city	2	1	0.507262	0.507262	0	1	0	0	CorrectCommission	1.076514	0.673460	1	1
413.281097	0.792374	city	9	1	0.596238	0.596238	0	1	0	0	CorrectCommission	0.256295	0.648416	1	1
414.073364	0.792159	city	6	1	0.645822	0.645822	0	1	0	0	CorrectCommission	0.200802	0.621971	1	1
414.865601	0.792265	city	5	1	0.546739	0.546739	0	1	0	0	CorrectCommission	0.712595	0.596612	1	1
415.657837	0.792264	city	4	1	0.596304	0.596304	0	1	0	0	CorrectCommission	0.255681	0.574772	1	1
416.450104	0.792265	city	7	1	0.695338	0.695338	0	1	0	0	CorrectCommission	0.657262	0.558583	1	1
417.242371	0.792267	city	1	1	0.596268	0.596268	0	1	0	0	CorrectCommission	0.256010	0.549675	1	1
418.034698	0.792368	city	7	1	0.596263	0.596263	0	1	0	0	CorrectCommission	0.256058	0.549032	1	1
418.826965	0.792161	city	4	1	0.645647	0.645647	0	1	0	0	CorrectCommission	0.199187	0.556986	1	1
419.619171	0.792260	city	9	1	0.546747	0.546747	0	1	0	0	CorrectCommission	0.712522	0.573306	1	1
420.411438	0.792268	city	10	1	0.548651	0.548651	0	1	0	0	CorrectCommission	0.694970	0.597281	1	1
421.203705	0.792264	city	7	1	0.546726	0.546726	0	1	0	0	CorrectCommission	0.712717	0.627827	1	1
421.995972	0.792261	city	8	1	0.600211	0.600211	0	1	0	0	CorrectCommission	0.219668	0.663618	1	1
422.788239	0.792269	city	5	1	0.562707	0.562707	0	1	0	0	CorrectCommission	0.565394	0.703173	0	1
423.580505	0.792266	mountain	1	1	0.596344	0.596344	0	0	1	0	CommissionError	0.255312	0.744911	0	1
424.372864	0.792478	city	10	1	0.468408	0.468408	0	1	0	0	CorrectCommission	1.434689	0.787208	0	0
425.165161	0.792108	city	1	1	0.465607	0.465607	0	1	0	0	CorrectCommission	1.460504	0.828341	0	0
425.957367	0.792312	city	9	1	0.744734	0.744734	0	1	0	0	CorrectCommission	1.112615	0.866571	0	0
426.749725	0.792374	city	2	1	0.550441	0.550441	0	1	0	0	CorrectCommission	0.678467	0.900101	0	0
427.541931	0.792051	city	7	1	0.605089	0.605089	0	1	0	0	CorrectCommission	0.174702	0.927113	0	0
428.334076	0.792266	city	1	1	0.596229	0.596229	0	1	0	0	CorrectCommission	0.256378	0.945864	0	0
429.126404	0.792369	mountain	1	0	0.000000	0.784493	1	0	0	0	CorrectOmission	1.479134	0.954840	0	0
429.918732	0.792264	city	1	1	0.905632	0.905632	0	1	0	0	CorrectCommission	2.595841	0.952896	0	0
430.711029	0.792374	city	2	1	0.695392	0.695392	0	1	0	0	CorrectCommission	0.657753	0.939501	0	0
431.503265	0.792049	city	5	1	0.497339	0.497339	0	1	0	0	CorrectCommission	1.167986	0.914950	0	0
432.295441	0.792321	city	10	1	0.400034	0.400034	0	1	0	0	CorrectCommission	2.064993	0.880349	0	0
433.087769	0.792315	city	3	1	0.547099	0.547099	0	1	0	0	CorrectCommission	0.709276	0.837596	0	0
433.880035	0.792268	city	9	1	0.645815	0.645815	0	1	0	0	CorrectCommission	0.200729	0.789288	0	0
434.672272	0.792157	city	8	1	0.546594	0.546594	0	1	0	0	CorrectCommission	0.713930	0.738401	0	0
435.464569	0.792478	city	3	1	0.546742	0.546742	0	1	0	0	CorrectCommission	0.712569	0.687983	0	0
436.256836	0.792049	city	6	1	0.646046	0.646046	0	1	0	0	CorrectCommission	0.202867	0.640909	1	0
437.049042	0.792373	city	7	1	0.603341	0.603341	0	1	0	0	CorrectCommission	0.190813	0.599636	1	0
437.841309	0.792168	city	10	1	0.600125	0.600125	0	1	0	0	CorrectCommission	0.220454	0.566049	1	0
438.633575	0.792362	city	1	1	0.695296	0.695296	0	1	0	0	CorrectCommission	0.656871	0.541433	1	0
439.425842	0.792156	city	2	1	0.546748	0.546748	0	1	0	0	CorrectCommission	0.712510	0.526521	1	0
440.218048	0.792275	city	3	1	0.645777	0.645777	0	1	0	0	CorrectCommission	0.200379	0.521572	1	0
441.010437	0.792470	city	7	1	0.695236	0.695236	0	1	0	0	CorrectCommission	0.656317	0.526514	1	0
441.802734	0.792156	city	3	1	0.596420	0.596420	0	1	0	0	CorrectCommission	0.254615	0.540983	1	0
442.594910	0.792158	city	6	1	0.596472	0.596472	0	1	0	0	CorrectCommission	0.254132	0.564464	1	0
443.387177	0.792371	city	4	1	0.553829	0.553829	0	1	0	0	CorrectCommission	0.647239	0.596260	1	0
444.179443	0.792197	city	9	1	0.560490	0.560490	0	1	0	0	CorrectCommission	0.585836	0.635476	1	0
444.971771	0.792442	city	5	1	0.547116	0.547116	0	1	0	0	CorrectCommission	0.709116	0.681009	0	0
445.764008	0.792046	city	2	1	0.597291	0.597291	0	1	0	0	CorrectCommission	0.246585	0.731519	0	0
446.556213	0.792327	mountain	5	1	0.596156	0.596156	0	0	1	0	CommissionError	0.257050	0.785395	0	0
447.348511	0.792260	mountain	10	1	0.447764	0.447764	0	0	1	0	CommissionError	1.624990	0.840796	0	0
448.140717	0.792210	city	1	1	0.551644	0.551644	0	1	0	0	CorrectCommission	0.667381	0.895722	0	0
448.932953	0.792263	city	7	1	0.497330	0.497330	0	1	0	0	CorrectCommission	1.168066	0.948167	0	0
449.725220	0.792268	city	6	1	0.497209	0.497209	0	1	0	0	CorrectCommission	1.169187	0.996179	0	0
450.517487	0.792259	city	4	1	0.546634	0.546634	0	1	0	0	CorrectCommission	0.713558	1.038036	0	0
451.309784	0.792289	city	10	1	0.462645	0.462645	0	1	0	0	CorrectCommission	1.487816	1.072367	0	0
452.102051	0.792248	city	9	1	0.447671	0.447671	0	1	0	0	CorrectCommission	1.625846	1.098172	0	0
452.894287	0.792259	mountain	3	0	0.000000	0.478189	1	0	0	0	CorrectOmission	1.344518	1.114914	0	0
453.686554	0.792265	city	10	1	0.497287	0.497287	0	1	0	0	CorrectCommission	1.168467	1.122490	0	0
454.478821	0.792264	city	6	1	0.448053	0.448053	0	1	0	0	CorrectCommission	1.622326	1.121166	0	0
455.271149	0.792375	city	1	1	0.546720	0.546720	0	1	0	0	CorrectCommission	0.712768	1.111508	0	0
456.063446	0.792263	city	5	1	0.546880	0.546880	0	1	0	0	CorrectCommission	0.711294	1.094330	0	0
456.855713	0.792266	mountain	8	1	0.547207	0.547207	0	0	1	0	CommissionError	0.708278	1.070606	0	0
457.648041	0.792374	mountain	9	1	0.407545	0.407545	0	0	1	0	CommissionError	1.995752	1.041449	0	0
458.440247	0.792050	city	1	0	0.000000	0.453965	0	0	0	1	OmissionError	1.567827	1.008056	0	0
459.232422	0.792260	city	4	1	0.546902	0.546902	0	1	0	0	CorrectCommission	0.711092	0.971753	0	0
460.024658	0.792267	city	5	1	0.546789	0.546789	0	1	0	0	CorrectCommission	0.712134	0.933923	0	0
460.816925	0.792265	city	7	1	0.763259	0.763259	0	1	0	0	CorrectCommission	1.283387	0.895927	0	0
461.609192	0.792265	city	3	1	0.662390	0.662390	0	1	0	0	CorrectCommission	0.353532	0.859055	0	0
462.401459	0.792262	city	2	1	0.744792	0.744792	0	1	0	0	CorrectCommission	1.113153	0.824498	0	0
463.193787	0.792376	city	9	1	0.645769	0.645769	0	1	0	0	CorrectCommission	0.200306	0.793315	0	0
463.986053	0.792158	city	7	1	0.645921	0.645921	0	1	0	0	CorrectCommission	0.201714	0.766444	0	0
464.778259	0.792272	city	10	1	0.497178	0.497178	0	1	0	0	CorrectCommission	1.169467	0.744785	0	0
465.570526	0.792258	city	2	1	0.546818	0.546818	0	1	0	0	CorrectCommission	0.711867	0.729371	0	0
466.362823	0.792328	city	10	1	0.547319	0.547319	0	1	0	0	CorrectCommission	0.707252	0.721546	0	0
467.155090	0.792200	city	1	1	0.560110	0.560110	0	1	0	0	CorrectCommission	0.589339	0.723045	0	0
467.947327	0.792265	city	7	1	0.745390	0.745390	0	1	0	0	CorrectCommission	1.118660	0.736000	0	0
468.739594	0.792265	mountain	1	0	0.000000	0.709961	1	0	0	0	CorrectOmission	0.792056	0.762762	0	0
469.531860	0.792260	city	6	1	0.596253	0.596253	0	1	0	0	CorrectCommission	0.256154	0.805625	0	0
470.324127	0.792266	city	3	1	0.546698	0.546698	0	1	0	0	CorrectCommission	0.712973	0.866368	0	0
471.116394	0.792267	city	5	1	0.596268	0.596268	0	1	0	0	CorrectCommission	0.256016	0.945724	0	0
471.908661	0.792265	city	9	1	0.548664	0.548664	0	1	0	0	CorrectCommission	0.694847	1.042916	0	0
472.700897	0.792261	city	7	1	0.614264	0.614264	0	1	0	0	CorrectCommission	0.090121	1.155302	0	0
473.493225	0.792374	city	6	1	0.558334	0.558334	0	1	0	0	CorrectCommission	0.605710	1.278322	0	0
474.285614	0.792373	city	1	1	0.499893	0.499893	0	1	0	0	CorrectCommission	1.144441	1.405681	0	0
475.077820	0.792048	city	7	1	0.509041	0.509041	0	1	0	0	CorrectCommission	1.060110	1.529916	0	0
475.870087	0.792482	city	1	1	0.448163	0.448163	0	1	0	0	CorrectCommission	1.621312	1.643272	0	0
476.662445	0.792266	city	9	1	0.352130	0.352130	0	1	0	0	CorrectCommission	2.506594	1.738665	0	0
477.454620	0.792075	mountain	3	1	0.993334	0.993334	0	0	1	0	CommissionError	3.404322	1.810656	0	0
478.246796	0.792290	city	9	1	1.289422	1.289422	0	1	0	0	CorrectCommission	6.133795	1.856174	0	0
479.039062	0.792209	mountain	10	0	0.000000	0.902224	1	0	0	0	CorrectOmission	2.564425	1.874864	0	0
479.831299	0.792265	city	4	1	0.449007	0.449007	0	1	0	0	CorrectCommission	1.613535	1.869115	0	0
480.623566	0.792264	city	2	1	0.547039	0.547039	0	1	0	0	CorrectCommission	0.709833	1.843333	0	0
481.415863	0.792329	city	3	1	0.546788	0.546788	0	1	0	0	CorrectCommission	0.712143	1.803245	0	0
482.208130	0.792246	city	2	1	0.497145	0.497145	0	1	0	0	CorrectCommission	1.169779	1.754844	0	0
483.000397	0.792266	mountain	6	1	0.515197	0.515197	0	0	1	0	CommissionError	1.003360	1.703533	0	0
483.792755	0.792437	city	4	1	0.448053	0.448053	0	1	0	0	CorrectCommission	1.622329	1.653462	0	0
484.584991	0.792051	city	10	1	0.409661	0.409661	0	1	0	0	CorrectCommission	1.976246	1.607129	0	0
485.377167	0.792285	city	5	1	0.414436	0.414436	0	1	0	0	CorrectCommission	1.932225	1.565358	0	0
486.169434	0.792241	city	8	1	0.398143	0.398143	0	1	0	0	CorrectCommission	2.082419	1.527522	0	0
486.961670	0.792267	city	7	1	0.462199	0.462199	0	1	0	0	CorrectCommission	1.491924	1.491924	0	0
