onset	duration	trial_type	image_type	Press	ReactionTime	ReactionTime_Interpolated	CorrectOmission	CorrectCommission	CommissionError	OmissionError	response_type	nonsmoothVarianceTimeCourse	VarianceTimeCourse	In_the_Zone	Reward_trial
8.417307	0.792364	city	7	1	0.645831	0.645831	0	1	0	0	CorrectCommission	0.020701	0.020701	1	1
9.209686	0.792396	city	5	1	0.452675	0.452675	0	1	0	0	CorrectCommission	1.719738	0.284220	1	1
10.001907	0.792046	city	10	1	0.409674	0.409674	0	1	0	0	CorrectCommission	2.097976	0.537239	1	1
10.794117	0.792372	city	2	1	0.398149	0.398149	0	1	0	0	CorrectCommission	2.199357	0.770371	0	1
11.586412	0.792220	city	7	1	0.398118	0.398118	0	1	0	0	CorrectCommission	2.199623	0.976237	0	1
12.378641	0.792238	city	8	1	0.447642	0.447642	0	1	0	0	CorrectCommission	1.764004	1.150043	0	1
13.170877	0.792233	city	3	1	0.447645	0.447645	0	1	0	0	CorrectCommission	1.763975	1.289768	0	1
13.963178	0.792369	city	2	1	0.454539	0.454539	0	1	0	0	CorrectCommission	1.703339	1.395970	0	1
14.755457	0.792190	city	8	1	0.497215	0.497215	0	1	0	0	CorrectCommission	1.327954	1.471306	0	1
15.547671	0.792239	city	5	1	0.448442	0.448442	0	1	0	0	CorrectCommission	1.756971	1.519882	0	1
16.339920	0.792259	city	3	1	0.497205	0.497205	0	1	0	0	CorrectCommission	1.328045	1.546553	0	1
17.132290	0.792480	city	9	1	0.450183	0.450183	0	1	0	0	CorrectCommission	1.741657	1.556311	0	1
17.924583	0.792106	city	8	1	0.447470	0.447470	0	1	0	0	CorrectCommission	1.765518	1.553760	0	1
18.716740	0.792208	city	1	1	0.449544	0.449544	0	1	0	0	CorrectCommission	1.747271	1.542811	0	1
19.508974	0.792261	city	9	1	0.461270	0.461270	0	1	0	0	CorrectCommission	1.644127	1.526438	0	1
20.301348	0.792483	mountain	5	1	0.497208	0.497208	0	0	1	0	CommissionError	1.328013	1.506621	0	1
21.093613	0.792047	city	10	1	0.496991	0.496991	0	1	0	0	CorrectCommission	1.329924	1.484384	0	1
21.885769	0.792269	city	9	1	0.509694	0.509694	0	1	0	0	CorrectCommission	1.218187	1.459865	0	1
22.678034	0.792261	city	2	1	0.507407	0.507407	0	1	0	0	CorrectCommission	1.238299	1.432516	0	1
23.470297	0.792265	city	9	1	0.451718	0.451718	0	1	0	0	CorrectCommission	1.728149	1.401300	0	1
24.262617	0.792375	city	3	1	0.497253	0.497253	0	1	0	0	CorrectCommission	1.327620	1.364937	0	1
25.054903	0.792196	mountain	8	1	0.458876	0.458876	0	0	1	0	CommissionError	1.665189	1.322214	0	1
25.855474	0.808947	city	2	1	0.528914	0.528914	0	1	0	0	CorrectCommission	1.049125	1.272215	0	1
26.655973	0.792050	city	8	1	0.447436	0.447436	0	1	0	0	CorrectCommission	1.765820	1.214581	0	1
27.448183	0.792370	city	2	1	0.447606	0.447606	0	1	0	0	CorrectCommission	1.764325	1.149648	0	1
28.240555	0.792374	city	1	1	0.497650	0.497650	0	1	0	0	CorrectCommission	1.324128	1.078558	0	1
29.032764	0.792046	city	2	1	0.497347	0.497347	0	1	0	0	CorrectCommission	1.326791	1.003188	0	1
29.824923	0.792268	mountain	2	0	0.000000	0.556884	1	0	0	0	CorrectOmission	0.803091	0.925983	0	1
30.617241	0.792371	city	6	1	0.611456	0.611456	0	1	0	0	CorrectCommission	0.323067	0.849722	0	1
31.409508	0.792161	city	3	1	0.596258	0.596258	0	1	0	0	CorrectCommission	0.456754	0.777241	0	1
32.201721	0.792271	city	9	1	0.645721	0.645721	0	1	0	0	CorrectCommission	0.021671	0.711160	0	1
32.993984	0.792252	city	1	1	0.607710	0.607710	0	1	0	0	CorrectCommission	0.356024	0.653665	0	1
33.786354	0.792484	city	5	1	0.794266	0.794266	0	1	0	0	CorrectCommission	1.284954	0.606339	0	1
34.578617	0.792049	city	6	1	0.695129	0.695129	0	1	0	0	CorrectCommission	0.412933	0.570108	1	1
35.370831	0.792372	city	4	1	0.662551	0.662551	0	1	0	0	CorrectCommission	0.126367	0.545300	1	1
36.163097	0.792160	city	8	1	0.596154	0.596154	0	1	0	0	CorrectCommission	0.457671	0.531639	1	1
36.955318	0.792288	city	9	1	0.653331	0.653331	0	1	0	0	CorrectCommission	0.045272	0.528325	1	1
37.747635	0.792345	city	4	1	0.695491	0.695491	0	1	0	0	CorrectCommission	0.416115	0.534157	1	1
38.539886	0.792156	city	9	1	0.596145	0.596145	0	1	0	0	CorrectCommission	0.457751	0.547591	1	1
39.332153	0.792373	mountain	6	0	0.000000	0.592495	1	0	0	0	CorrectOmission	0.489855	0.566842	1	1
40.124416	0.792155	city	4	1	0.596114	0.596114	0	1	0	0	CorrectCommission	0.458024	0.589980	0	1
40.916626	0.792267	mountain	10	1	0.518573	0.518573	0	0	1	0	CommissionError	1.140086	0.614987	0	1
41.708893	0.792265	city	7	1	0.564905	0.564905	0	1	0	0	CorrectCommission	0.732538	0.639852	0	1
42.501156	0.792262	city	5	1	0.596228	0.596228	0	1	0	0	CorrectCommission	0.457014	0.662626	0	1
43.293419	0.792266	city	3	1	0.546683	0.546683	0	1	0	0	CorrectCommission	0.892824	0.681520	0	1
44.085739	0.792374	city	2	1	0.559902	0.559902	0	1	0	0	CorrectCommission	0.776549	0.694957	0	1
44.878006	0.792155	city	7	1	0.596124	0.596124	0	1	0	0	CorrectCommission	0.457934	0.701687	0	1
45.670216	0.792264	city	2	1	0.610015	0.610015	0	1	0	0	CorrectCommission	0.335748	0.700950	0	1
46.462521	0.792347	mountain	1	0	0.000000	0.529219	1	0	0	0	CorrectOmission	1.046437	0.692588	0	1
47.254795	0.792203	city	10	1	0.447676	0.447676	0	1	0	0	CorrectCommission	1.763703	0.677146	0	1
48.047050	0.792307	mountain	5	1	0.459325	0.459325	0	0	1	0	CommissionError	1.661244	0.655920	0	1
48.839306	0.792203	city	10	1	0.645727	0.645727	0	1	0	0	CorrectCommission	0.021620	0.630902	0	1
49.631546	0.792285	mountain	1	0	0.000000	0.628325	1	0	0	0	CorrectOmission	0.174689	0.604627	0	1
50.423813	0.792246	city	7	1	0.562468	0.562468	0	1	0	0	CorrectCommission	0.753980	0.579822	1	1
51.216091	0.792310	city	9	1	0.603504	0.603504	0	1	0	0	CorrectCommission	0.393019	0.559049	1	1
52.008411	0.792328	mountain	9	0	0.000000	0.641837	1	0	0	0	CorrectOmission	0.055831	0.544407	1	1
52.800762	0.792373	city	6	1	0.648887	0.648887	0	1	0	0	CorrectCommission	0.006178	0.537199	1	1
53.593079	0.792263	city	2	1	0.596071	0.596071	0	1	0	0	CorrectCommission	0.458400	0.537744	1	1
54.385288	0.792156	city	1	1	0.645516	0.645516	0	1	0	0	CorrectCommission	0.023475	0.545343	1	1
55.177502	0.792265	city	3	1	0.704204	0.704204	0	1	0	0	CorrectCommission	0.492760	0.558417	1	1
55.969711	0.792158	mountain	9	0	0.000000	0.603400	1	0	0	0	CorrectOmission	0.393930	0.574751	1	1
56.761925	0.792266	city	4	1	0.511363	0.511363	0	1	0	0	CorrectCommission	1.203505	0.591860	0	1
57.554241	0.792371	city	3	1	0.596352	0.596352	0	1	0	0	CorrectCommission	0.455926	0.607342	0	1
58.346615	0.792373	mountain	1	0	0.000000	0.511957	1	0	0	0	CorrectOmission	1.198276	0.619236	0	1
59.138828	0.792052	mountain	4	1	0.448450	0.448450	0	0	1	0	CommissionError	1.756902	0.626182	0	1
59.931038	0.792368	city	10	1	0.596099	0.596099	0	1	0	0	CorrectCommission	0.458153	0.627549	0	1
60.723412	0.792381	city	3	1	0.695678	0.695678	0	1	0	0	CorrectCommission	0.417757	0.623379	0	1
61.515732	0.792257	city	8	1	0.595995	0.595995	0	1	0	0	CorrectCommission	0.459070	0.614176	0	1
62.307888	0.792059	city	10	1	0.602425	0.602425	0	1	0	0	CorrectCommission	0.402511	0.600703	0	1
63.100044	0.792257	city	4	1	0.645709	0.645709	0	1	0	0	CorrectCommission	0.021772	0.583794	1	1
63.892334	0.792320	mountain	9	0	0.000000	0.610988	1	0	0	0	CorrectOmission	0.327183	0.564213	1	1
64.684654	0.792315	city	9	1	0.546584	0.546584	0	1	0	0	CorrectCommission	0.893694	0.542613	1	1
65.476906	0.792194	city	10	1	0.500818	0.500818	0	1	0	0	CorrectCommission	1.296257	0.519559	1	1
66.269119	0.792231	city	5	1	0.564135	0.564135	0	1	0	0	CorrectCommission	0.739314	0.495674	1	1
67.061363	0.792259	city	7	1	0.601011	0.601011	0	1	0	0	CorrectCommission	0.414950	0.471684	1	1
67.853683	0.792376	city	3	1	0.659773	0.659773	0	1	0	0	CorrectCommission	0.101936	0.448453	1	0
68.645943	0.792154	city	8	1	0.708810	0.708810	0	1	0	0	CorrectCommission	0.533272	0.426989	1	0
69.438156	0.792268	city	3	1	0.695250	0.695250	0	1	0	0	CorrectCommission	0.413993	0.408348	1	0
70.230423	0.792266	city	7	1	0.651721	0.651721	0	1	0	0	CorrectCommission	0.031103	0.393526	1	0
71.022690	0.792264	city	3	1	0.620824	0.620824	0	1	0	0	CorrectCommission	0.240671	0.383352	1	0
71.815010	0.792372	city	9	1	0.645741	0.645741	0	1	0	0	CorrectCommission	0.021497	0.378360	1	0
72.607269	0.792158	city	6	1	0.603071	0.603071	0	1	0	0	CorrectCommission	0.396830	0.378769	1	0
73.399483	0.792266	city	9	1	0.602309	0.602309	0	1	0	0	CorrectCommission	0.403527	0.384468	1	0
74.191856	0.792479	city	5	1	0.645745	0.645745	0	1	0	0	CorrectCommission	0.021456	0.395098	1	0
74.984230	0.792263	city	4	1	0.596143	0.596143	0	1	0	0	CorrectCommission	0.457764	0.410194	1	0
75.776382	0.792049	city	5	1	0.563207	0.563207	0	1	0	0	CorrectCommission	0.747481	0.429247	1	0
76.568596	0.792371	city	2	1	0.549873	0.549873	0	1	0	0	CorrectCommission	0.864762	0.451800	1	0
77.360970	0.792377	city	5	1	0.596017	0.596017	0	1	0	0	CorrectCommission	0.458870	0.477511	1	0
78.153229	0.792153	city	9	1	0.656772	0.656772	0	1	0	0	CorrectCommission	0.075537	0.506121	1	0
78.945389	0.792157	city	1	1	0.646422	0.646422	0	1	0	0	CorrectCommission	0.015500	0.537331	1	0
79.737656	0.792373	city	3	1	0.745595	0.745595	0	1	0	0	CorrectCommission	0.856842	0.570699	1	0
80.529915	0.792156	mountain	3	0	0.000000	0.622635	1	0	0	0	CorrectOmission	0.224738	0.605522	0	0
81.322182	0.792373	city	2	1	0.500263	0.500263	0	1	0	0	CorrectCommission	1.301145	0.640785	0	0
82.114502	0.792265	city	10	1	0.601200	0.601200	0	1	0	0	CorrectCommission	0.413281	0.675070	0	0
82.906708	0.792155	mountain	1	0	0.000000	0.593723	1	0	0	0	CorrectOmission	0.479054	0.706685	0	0
83.698921	0.792265	city	5	1	0.551121	0.551121	0	1	0	0	CorrectCommission	0.853790	0.733773	0	0
84.491188	0.792269	mountain	8	1	0.546684	0.546684	0	0	1	0	CommissionError	0.892814	0.754532	0	0
85.291702	0.808767	city	8	1	0.663160	0.663160	0	1	0	0	CorrectCommission	0.131729	0.767502	0	0
86.092224	0.792267	city	9	1	0.843800	0.843800	0	1	0	0	CorrectCommission	1.720663	0.771831	0	0
86.884506	0.792302	city	1	1	0.794348	0.794348	0	1	0	0	CorrectCommission	1.285676	0.767439	0	0
87.676765	0.792224	city	4	1	0.843775	0.843775	0	1	0	0	CorrectCommission	1.720442	0.755203	0	0
88.469032	0.792308	city	7	1	0.753322	0.753322	0	1	0	0	CorrectCommission	0.924811	0.736843	0	0
89.261299	0.792221	city	2	1	0.695222	0.695222	0	1	0	0	CorrectCommission	0.413747	0.714746	0	0
90.053650	0.792482	city	6	1	0.704848	0.704848	0	1	0	0	CorrectCommission	0.498425	0.691567	0	0
90.845917	0.792047	city	4	1	0.695080	0.695080	0	1	0	0	CorrectCommission	0.412500	0.669785	0	0
91.638130	0.792377	city	6	1	0.652978	0.652978	0	1	0	0	CorrectCommission	0.042164	0.651300	0	0
92.430450	0.792264	city	7	1	0.647965	0.647965	0	1	0	0	CorrectCommission	0.001934	0.637084	0	0
93.222656	0.792157	city	5	1	0.556330	0.556330	0	1	0	0	CorrectCommission	0.807972	0.627018	0	0
94.014870	0.792263	city	4	1	0.645787	0.645787	0	1	0	0	CorrectCommission	0.021092	0.619952	0	0
94.807190	0.792374	city	10	1	0.620020	0.620020	0	1	0	0	CorrectCommission	0.247736	0.614034	0	0
95.599556	0.792370	mountain	5	0	0.000000	0.533195	1	0	0	0	CorrectOmission	1.011469	0.607121	0	0
96.391769	0.792051	city	6	1	0.465520	0.465520	0	1	0	0	CorrectCommission	1.606744	0.597297	0	0
97.184036	0.792480	city	9	1	0.497208	0.497208	0	1	0	0	CorrectCommission	1.328014	0.583370	1	0
97.976303	0.792050	city	10	1	0.553498	0.553498	0	1	0	0	CorrectCommission	0.832882	0.565264	1	0
98.768456	0.792265	city	1	1	0.549905	0.549905	0	1	0	0	CorrectCommission	0.864484	0.544107	1	0
99.560829	0.792480	city	10	1	0.597664	0.597664	0	1	0	0	CorrectCommission	0.444388	0.522152	1	0
100.353096	0.792045	city	6	1	0.656120	0.656120	0	1	0	0	CorrectCommission	0.069802	0.502435	1	0
101.145248	0.792265	city	8	1	0.649964	0.649964	0	1	0	0	CorrectCommission	0.015652	0.488281	1	0
101.937515	0.792273	city	6	1	0.645786	0.645786	0	1	0	0	CorrectCommission	0.021097	0.482758	1	0
102.729782	0.792257	city	10	1	0.645742	0.645742	0	1	0	0	CorrectCommission	0.021483	0.488188	1	0
103.522079	0.792340	city	1	1	0.695282	0.695282	0	1	0	0	CorrectCommission	0.414281	0.505748	1	0
104.314354	0.792205	city	10	1	0.664133	0.664133	0	1	0	0	CorrectCommission	0.140285	0.535439	1	0
105.106583	0.792252	city	8	1	0.663977	0.663977	0	1	0	0	CorrectCommission	0.138916	0.575963	1	0
105.898895	0.792370	city	10	1	0.658127	0.658127	0	1	0	0	CorrectCommission	0.087453	0.625072	0	0
106.691208	0.792266	mountain	2	0	0.000000	0.577430	1	0	0	0	CorrectOmission	0.622367	0.679963	0	0
107.483421	0.792158	city	4	1	0.498734	0.498734	0	1	0	0	CorrectCommission	1.314591	0.737775	0	0
108.275742	0.792480	city	2	1	0.498885	0.498885	0	1	0	0	CorrectCommission	1.313263	0.795966	0	0
109.068062	0.792154	city	6	1	0.447455	0.447455	0	1	0	0	CorrectCommission	1.765653	0.852712	0	0
109.860214	0.792160	city	8	1	0.511465	0.511465	0	1	0	0	CorrectCommission	1.202606	0.907015	0	0
110.652428	0.792263	city	4	1	0.511394	0.511394	0	1	0	0	CorrectCommission	1.203229	0.958626	0	0
111.444695	0.792267	city	7	1	0.596195	0.596195	0	1	0	0	CorrectCommission	0.457313	1.007773	0	0
112.236961	0.792264	city	2	1	0.614719	0.614719	0	1	0	0	CorrectCommission	0.294366	1.054791	0	0
113.029259	0.792344	city	9	1	0.596778	0.596778	0	1	0	0	CorrectCommission	0.452180	1.099702	0	0
113.821556	0.792240	city	6	1	0.548802	0.548802	0	1	0	0	CorrectCommission	0.874182	1.141903	0	0
114.613808	0.792266	city	1	1	0.447615	0.447615	0	1	0	0	CorrectCommission	1.764242	1.180023	0	0
115.406044	0.792212	city	6	1	0.447664	0.447664	0	1	0	0	CorrectCommission	1.763810	1.211941	0	0
116.198311	0.792323	city	10	1	0.459249	0.459249	0	1	0	0	CorrectCommission	1.661912	1.235030	0	0
116.990631	0.792310	city	7	1	0.515148	0.515148	0	1	0	0	CorrectCommission	1.170208	1.246527	0	0
117.782921	0.792266	city	2	1	0.596089	0.596089	0	1	0	0	CorrectCommission	0.458238	1.243988	0	0
118.575180	0.792263	city	1	1	0.645620	0.645620	0	1	0	0	CorrectCommission	0.022560	1.225712	0	0
119.367393	0.792160	mountain	7	1	1.354582	1.354582	0	0	1	0	CommissionError	6.213592	1.191135	0	0
120.159607	0.792263	city	8	1	0.794370	0.794370	0	1	0	0	CorrectCommission	1.285875	1.140917	0	0
120.951866	0.792266	city	4	1	0.657896	0.657896	0	1	0	0	CorrectCommission	0.085422	1.077308	0	0
121.744133	0.792262	city	6	1	0.650273	0.650273	0	1	0	0	CorrectCommission	0.018372	1.003729	0	0
122.536400	0.792265	city	9	1	0.914811	0.914811	0	1	0	0	CorrectCommission	2.345289	0.924488	0	0
123.328720	0.792375	city	7	1	0.649530	0.649530	0	1	0	0	CorrectCommission	0.011834	0.844307	0	0
124.121094	0.792374	city	4	1	0.645601	0.645601	0	1	0	0	CorrectCommission	0.022723	0.767963	0	0
124.913300	0.792049	city	2	1	0.704438	0.704438	0	1	0	0	CorrectCommission	0.494812	0.699679	0	0
125.705566	0.792479	city	3	1	0.714204	0.714204	0	1	0	0	CorrectCommission	0.580714	0.642821	0	0
126.497887	0.792155	city	5	1	0.704131	0.704131	0	1	0	0	CorrectCommission	0.492118	0.599642	0	0
127.290047	0.792164	city	10	1	0.650148	0.650148	0	1	0	0	CorrectCommission	0.017268	0.571174	1	1
128.082367	0.792475	city	3	1	0.695359	0.695359	0	1	0	0	CorrectCommission	0.414953	0.557201	1	1
128.874649	0.792108	city	7	1	0.695123	0.695123	0	1	0	0	CorrectCommission	0.412875	0.556350	1	1
129.666916	0.792422	city	10	1	0.695745	0.695745	0	1	0	0	CorrectCommission	0.418347	0.566270	1	1
130.459167	0.792074	city	7	1	0.645641	0.645641	0	1	0	0	CorrectCommission	0.022375	0.583877	1	1
131.251328	0.792237	city	8	1	0.645709	0.645709	0	1	0	0	CorrectCommission	0.021771	0.605683	0	1
132.043579	0.792266	mountain	10	0	0.000000	0.530202	1	0	0	0	CorrectOmission	1.037794	0.628151	0	1
132.835846	0.792265	city	10	1	0.447676	0.447676	0	1	0	0	CorrectCommission	1.763706	0.648031	0	1
133.628204	0.792481	city	6	1	0.546689	0.546689	0	1	0	0	CorrectCommission	0.892771	0.662727	0	1
134.420578	0.792265	city	9	1	0.546978	0.546978	0	1	0	0	CorrectCommission	0.890233	0.670559	0	1
135.212738	0.792048	city	4	1	0.546414	0.546414	0	1	0	0	CorrectCommission	0.895189	0.670866	0	1
136.004898	0.792264	city	10	1	0.601549	0.601549	0	1	0	0	CorrectCommission	0.410213	0.664070	0	1
136.797165	0.792265	city	7	1	0.558670	0.558670	0	1	0	0	CorrectCommission	0.787382	0.651421	0	1
137.589478	0.792373	mountain	3	0	0.000000	0.548799	1	0	0	0	CorrectOmission	0.874216	0.634947	0	1
138.381805	0.792265	city	6	1	0.556143	0.556143	0	1	0	0	CorrectCommission	0.809610	0.617085	0	1
139.174057	0.792264	city	10	1	0.564914	0.564914	0	1	0	0	CorrectCommission	0.732459	0.600351	0	1
139.966278	0.792160	city	1	1	0.651836	0.651836	0	1	0	0	CorrectCommission	0.032116	0.586960	1	1
140.758514	0.792330	city	4	1	0.649660	0.649660	0	1	0	0	CorrectCommission	0.012978	0.578633	1	1
141.550797	0.792218	city	1	1	0.651107	0.651107	0	1	0	0	CorrectCommission	0.025704	0.576353	1	1
142.343079	0.792352	city	7	1	0.695236	0.695236	0	1	0	0	CorrectCommission	0.413870	0.580298	1	1
143.135345	0.792176	mountain	10	0	0.000000	0.603708	1	0	0	0	CorrectOmission	0.391219	0.589867	0	1
143.927582	0.792311	city	4	1	0.506586	0.506586	0	1	0	0	CorrectCommission	1.245522	0.603854	0	1
144.719849	0.792202	mountain	4	0	0.000000	0.533930	1	0	0	0	CorrectOmission	1.005002	0.620640	0	1
145.512100	0.792297	city	3	1	0.598463	0.598463	0	1	0	0	CorrectCommission	0.437358	0.638449	0	1
146.304352	0.792229	city	1	1	0.612908	0.612908	0	1	0	0	CorrectCommission	0.310295	0.655573	0	1
147.096710	0.792482	city	9	1	0.505119	0.505119	0	1	0	0	CorrectCommission	1.258430	0.670511	0	1
147.889084	0.792266	city	4	1	0.597492	0.597492	0	1	0	0	CorrectCommission	0.445899	0.682094	0	1
148.681244	0.792047	city	5	1	0.553379	0.553379	0	1	0	0	CorrectCommission	0.833928	0.689596	0	1
149.473404	0.792267	city	7	1	0.596400	0.596400	0	1	0	0	CorrectCommission	0.455509	0.692660	0	1
150.265671	0.792263	mountain	6	0	0.000000	0.537450	1	0	0	0	CorrectOmission	0.974036	0.691329	0	1
151.057922	0.792262	city	7	1	0.497179	0.497179	0	1	0	0	CorrectCommission	1.328269	0.685985	0	1
151.850296	0.792482	city	9	1	0.596234	0.596234	0	1	0	0	CorrectCommission	0.456967	0.677252	0	1
152.642563	0.792048	city	8	1	0.558538	0.558538	0	1	0	0	CorrectCommission	0.788546	0.665931	0	1
153.434723	0.792267	city	7	1	0.596284	0.596284	0	1	0	0	CorrectCommission	0.456521	0.652850	0	1
154.226990	0.792267	city	3	1	0.596138	0.596138	0	1	0	0	CorrectCommission	0.457808	0.638775	0	1
155.019257	0.792263	city	2	1	0.596102	0.596102	0	1	0	0	CorrectCommission	0.458124	0.624300	0	1
155.811569	0.792369	city	7	1	0.608159	0.608159	0	1	0	0	CorrectCommission	0.352071	0.609824	0	1
156.603882	0.792264	mountain	3	0	0.000000	0.550892	1	0	0	0	CorrectOmission	0.855806	0.595524	0	1
157.396149	0.792265	city	1	1	0.515566	0.515566	0	1	0	0	CorrectCommission	1.166536	0.581377	1	1
158.188370	0.792157	mountain	3	0	0.000000	0.593448	1	0	0	0	CorrectOmission	0.481471	0.567213	1	1
158.980576	0.792267	city	2	1	0.663991	0.663991	0	1	0	0	CorrectCommission	0.139037	0.552798	1	1
159.772842	0.792265	city	7	1	0.606648	0.606648	0	1	0	0	CorrectCommission	0.365367	0.537862	1	1
160.565216	0.792481	city	6	1	0.596193	0.596193	0	1	0	0	CorrectCommission	0.457324	0.522183	1	1
161.357483	0.792047	city	10	1	0.549135	0.549135	0	1	0	0	CorrectCommission	0.871255	0.505641	1	1
162.149628	0.792267	city	5	1	0.596830	0.596830	0	1	0	0	CorrectCommission	0.451719	0.488265	1	1
162.941956	0.792369	city	2	1	0.555818	0.555818	0	1	0	0	CorrectCommission	0.812475	0.470275	1	1
163.734222	0.792164	city	7	1	0.546535	0.546535	0	1	0	0	CorrectCommission	0.894127	0.452040	1	1
164.526428	0.792261	city	5	1	0.645892	0.645892	0	1	0	0	CorrectCommission	0.020168	0.434033	1	1
165.318726	0.792320	city	1	1	0.645747	0.645747	0	1	0	0	CorrectCommission	0.021445	0.416814	1	1
166.111023	0.792270	city	7	1	0.616690	0.616690	0	1	0	0	CorrectCommission	0.277027	0.400893	1	1
166.903259	0.792207	city	9	1	0.650926	0.650926	0	1	0	0	CorrectCommission	0.024110	0.386702	1	1
167.695496	0.792262	mountain	9	0	0.000000	0.603804	1	0	0	0	CorrectOmission	0.390376	0.374565	1	1
168.487854	0.792482	city	2	1	0.547304	0.547304	0	1	0	0	CorrectCommission	0.887361	0.364675	1	1
169.280121	0.792050	city	4	1	0.553402	0.553402	0	1	0	0	CorrectCommission	0.833721	0.357130	1	1
170.072281	0.792260	city	8	1	0.645731	0.645731	0	1	0	0	CorrectCommission	0.021586	0.351926	1	1
170.864548	0.792269	city	5	1	0.656900	0.656900	0	1	0	0	CorrectCommission	0.076662	0.348989	1	1
171.656921	0.792479	city	9	1	0.653746	0.653746	0	1	0	0	CorrectCommission	0.048915	0.348140	1	1
172.449203	0.792078	mountain	7	0	0.000000	0.636374	1	0	0	0	CorrectOmission	0.103887	0.349113	1	1
173.241455	0.792450	city	9	1	0.605087	0.605087	0	1	0	0	CorrectCommission	0.379092	0.351576	1	1
174.033813	0.792266	city	4	1	0.560186	0.560186	0	1	0	0	CorrectCommission	0.774047	0.355123	1	1
174.825974	0.792049	city	2	1	0.604340	0.604340	0	1	0	0	CorrectCommission	0.385662	0.359332	1	1
175.618240	0.792479	city	1	1	0.604186	0.604186	0	1	0	0	CorrectCommission	0.387022	0.363811	1	1
176.410507	0.792046	city	2	1	0.596179	0.596179	0	1	0	0	CorrectCommission	0.457452	0.368206	1	1
177.202698	0.792331	city	1	1	0.608682	0.608682	0	1	0	0	CorrectCommission	0.347471	0.372222	1	1
177.994965	0.792202	city	9	1	0.645854	0.645854	0	1	0	0	CorrectCommission	0.020499	0.375638	1	1
178.787201	0.792265	city	4	1	0.605953	0.605953	0	1	0	0	CorrectCommission	0.371478	0.378321	1	1
179.579453	0.792263	city	3	1	0.596224	0.596224	0	1	0	0	CorrectCommission	0.457057	0.380228	1	1
180.371719	0.792263	city	4	1	0.551243	0.551243	0	1	0	0	CorrectCommission	0.852718	0.381400	1	1
181.163986	0.792266	city	10	1	0.596166	0.596166	0	1	0	0	CorrectCommission	0.457566	0.381964	1	1
181.956253	0.792263	city	4	1	0.646698	0.646698	0	1	0	0	CorrectCommission	0.013078	0.382178	1	1
182.748520	0.792269	city	7	1	0.646516	0.646516	0	1	0	0	CorrectCommission	0.014673	0.382407	1	1
183.540817	0.792318	mountain	3	0	0.000000	0.588323	1	0	0	0	CorrectOmission	0.526549	0.383107	1	1
184.333130	0.792317	city	2	1	0.546673	0.546673	0	1	0	0	CorrectCommission	0.892917	0.384796	1	1
185.125412	0.792246	city	5	1	0.596118	0.596118	0	1	0	0	CorrectCommission	0.457990	0.388014	1	1
185.917633	0.792187	city	3	1	0.605405	0.605405	0	1	0	0	CorrectCommission	0.376300	0.393283	1	1
186.709869	0.792307	city	9	1	0.645770	0.645770	0	1	0	0	CorrectCommission	0.021239	0.401041	1	0
187.502136	0.792209	city	2	1	0.648277	0.648277	0	1	0	0	CorrectCommission	0.000812	0.411621	1	0
188.294373	0.792264	city	1	1	0.596763	0.596763	0	1	0	0	CorrectCommission	0.452315	0.425200	1	0
189.086746	0.792483	city	4	1	0.653127	0.653127	0	1	0	0	CorrectCommission	0.043477	0.441776	1	0
189.879120	0.792264	city	8	1	0.744627	0.744627	0	1	0	0	CorrectCommission	0.848324	0.461227	1	0
190.671265	0.792049	city	3	1	0.744688	0.744688	0	1	0	0	CorrectCommission	0.848860	0.483275	1	0
191.463425	0.792263	city	1	1	0.707881	0.707881	0	1	0	0	CorrectCommission	0.525096	0.507559	1	0
192.255798	0.792483	city	8	1	0.695283	0.695283	0	1	0	0	CorrectCommission	0.414290	0.533632	1	0
193.048065	0.792047	city	2	1	0.650316	0.650316	0	1	0	0	CorrectCommission	0.018752	0.560950	1	0
193.840225	0.792267	mountain	4	0	0.000000	0.729686	1	0	0	0	CorrectOmission	0.716899	0.588845	0	0
194.632492	0.792265	city	3	1	0.794283	0.794283	0	1	0	0	CorrectCommission	1.285107	0.616470	0	0
195.424759	0.792266	city	8	1	0.704999	0.704999	0	1	0	0	CorrectCommission	0.499751	0.642830	0	0
196.217133	0.792479	city	9	1	0.653408	0.653408	0	1	0	0	CorrectCommission	0.045949	0.666803	0	0
197.009384	0.792052	city	1	1	0.656202	0.656202	0	1	0	0	CorrectCommission	0.070519	0.687214	0	0
197.801544	0.792257	city	10	1	0.553564	0.553564	0	1	0	0	CorrectCommission	0.832298	0.702931	0	0
198.593918	0.792484	city	7	1	0.448608	0.448608	0	1	0	0	CorrectCommission	1.755507	0.713033	0	0
199.386230	0.792156	city	5	1	0.447628	0.447628	0	1	0	0	CorrectCommission	1.764129	0.716947	0	0
200.178497	0.792373	city	9	1	0.548040	0.548040	0	1	0	0	CorrectCommission	0.880891	0.714559	0	0
200.970718	0.792049	city	5	1	0.607038	0.607038	0	1	0	0	CorrectCommission	0.361931	0.706214	0	0
201.762863	0.792264	mountain	4	0	0.000000	0.619784	1	0	0	0	CorrectOmission	0.249817	0.692634	0	0
202.555145	0.792290	city	10	1	0.596327	0.596327	0	1	0	0	CorrectCommission	0.456146	0.674824	0	0
203.347443	0.792298	city	8	1	0.546718	0.546718	0	1	0	0	CorrectCommission	0.892518	0.653891	0	0
204.139694	0.792205	city	7	1	0.596162	0.596162	0	1	0	0	CorrectCommission	0.457601	0.630944	0	0
204.931946	0.792290	city	3	1	0.550256	0.550256	0	1	0	0	CorrectCommission	0.861398	0.606993	0	0
205.724258	0.792348	city	4	1	0.699241	0.699241	0	1	0	0	CorrectCommission	0.449097	0.582862	1	0
206.516510	0.792159	city	3	1	0.744669	0.744669	0	1	0	0	CorrectCommission	0.848692	0.559232	1	0
207.308716	0.792262	city	5	1	0.695282	0.695282	0	1	0	0	CorrectCommission	0.414279	0.536618	1	0
208.100983	0.792267	city	7	1	0.695260	0.695260	0	1	0	0	CorrectCommission	0.414086	0.515454	1	0
208.893356	0.792480	city	6	1	0.695231	0.695231	0	1	0	0	CorrectCommission	0.413825	0.496108	1	0
209.685684	0.792155	city	7	1	0.646008	0.646008	0	1	0	0	CorrectCommission	0.019149	0.478913	1	0
210.477829	0.792160	city	3	1	0.744939	0.744939	0	1	0	0	CorrectCommission	0.851071	0.464190	1	0
211.270157	0.792479	city	1	1	0.709740	0.709740	0	1	0	0	CorrectCommission	0.541451	0.452177	1	0
212.062439	0.792099	city	6	1	0.744550	0.744550	0	1	0	0	CorrectCommission	0.847644	0.443023	1	0
212.854599	0.792218	city	1	1	0.659964	0.659964	0	1	0	0	CorrectCommission	0.103614	0.436716	1	0
213.646942	0.792478	city	5	1	0.653358	0.653358	0	1	0	0	CorrectCommission	0.045511	0.433024	1	0
214.439316	0.792265	city	2	1	0.647403	0.647403	0	1	0	0	CorrectCommission	0.006873	0.431451	1	0
215.231476	0.792050	city	4	1	0.702914	0.702914	0	1	0	0	CorrectCommission	0.481412	0.431241	1	0
216.023682	0.792371	city	7	1	0.706503	0.706503	0	1	0	0	CorrectCommission	0.512982	0.431441	1	0
216.815979	0.792210	city	3	1	0.702498	0.702498	0	1	0	0	CorrectCommission	0.477754	0.431059	1	0
217.608246	0.792320	city	5	1	0.750340	0.750340	0	1	0	0	CorrectCommission	0.898578	0.429243	1	0
218.400482	0.792156	city	2	1	0.649974	0.649974	0	1	0	0	CorrectCommission	0.015742	0.425449	1	0
219.192795	0.792482	city	1	1	0.563000	0.563000	0	1	0	0	CorrectCommission	0.749298	0.419628	1	0
219.985062	0.792050	mountain	1	1	0.546655	0.546655	0	0	1	0	CommissionError	0.893069	0.412247	1	0
220.777328	0.792480	mountain	9	0	0.000000	0.568307	1	0	0	0	CorrectOmission	0.702615	0.404318	1	0
221.569595	0.792050	city	5	1	0.607993	0.607993	0	1	0	0	CorrectCommission	0.353527	0.397296	1	0
222.361801	0.792347	city	8	1	0.645752	0.645752	0	1	0	0	CorrectCommission	0.021395	0.392830	1	0
223.154068	0.792202	city	7	1	0.648851	0.648851	0	1	0	0	CorrectCommission	0.005865	0.392520	1	0
223.946396	0.792458	city	9	1	0.655108	0.655108	0	1	0	0	CorrectCommission	0.060901	0.397625	1	0
224.738678	0.792100	city	7	1	0.645521	0.645521	0	1	0	0	CorrectCommission	0.023430	0.408854	1	0
225.530884	0.792321	city	6	1	0.607702	0.607702	0	1	0	0	CorrectCommission	0.356095	0.426215	1	0
226.323151	0.792189	city	9	1	0.596176	0.596176	0	1	0	0	CorrectCommission	0.457472	0.448945	1	0
227.115356	0.792241	city	3	1	0.596216	0.596216	0	1	0	0	CorrectCommission	0.457126	0.475630	1	0
227.907654	0.792364	mountain	8	1	0.555000	0.555000	0	0	1	0	CommissionError	0.819663	0.504316	1	0
228.699921	0.792161	city	4	1	0.645610	0.645610	0	1	0	0	CorrectCommission	0.022643	0.532776	1	0
229.492249	0.792477	city	1	1	0.559320	0.559320	0	1	0	0	CorrectCommission	0.781664	0.558791	1	0
230.284500	0.792051	city	4	1	0.549027	0.549027	0	1	0	0	CorrectCommission	0.872202	0.580389	1	0
231.076691	0.792323	city	8	1	0.546617	0.546617	0	1	0	0	CorrectCommission	0.893402	0.596108	0	0
231.869019	0.792313	city	10	1	0.549418	0.549418	0	1	0	0	CorrectCommission	0.868769	0.605149	0	0
232.661255	0.792160	city	3	1	0.546492	0.546492	0	1	0	0	CorrectCommission	0.894504	0.607432	0	0
233.453461	0.792261	city	1	1	0.565211	0.565211	0	1	0	0	CorrectCommission	0.729845	0.603582	0	0
234.245834	0.792482	city	3	1	0.566003	0.566003	0	1	0	0	CorrectCommission	0.722885	0.594838	0	0
235.038208	0.792265	city	6	1	0.610966	0.610966	0	1	0	0	CorrectCommission	0.327382	0.582814	1	0
235.830414	0.792157	city	7	1	0.596357	0.596357	0	1	0	0	CorrectCommission	0.455882	0.569304	1	0
236.622574	0.792154	city	10	1	0.556686	0.556686	0	1	0	0	CorrectCommission	0.804833	0.555997	1	0
237.414886	0.792483	city	9	1	0.599533	0.599533	0	1	0	0	CorrectCommission	0.427943	0.544285	1	0
238.207214	0.792157	city	1	1	0.650037	0.650037	0	1	0	0	CorrectCommission	0.016293	0.535140	1	0
238.999390	0.792197	city	5	1	0.652837	0.652837	0	1	0	0	CorrectCommission	0.040927	0.529055	1	0
239.791626	0.792277	city	10	1	0.701750	0.701750	0	1	0	0	CorrectCommission	0.471172	0.526054	1	0
240.583878	0.792222	city	9	1	0.744730	0.744730	0	1	0	0	CorrectCommission	0.849226	0.525805	1	0
241.376144	0.792316	city	1	1	0.698980	0.698980	0	1	0	0	CorrectCommission	0.446802	0.527757	1	0
242.168411	0.792221	city	10	1	0.794481	0.794481	0	1	0	0	CorrectCommission	1.286844	0.531296	1	0
242.960754	0.792463	city	9	1	0.697795	0.697795	0	1	0	0	CorrectCommission	0.436380	0.535810	1	0
243.753021	0.792065	city	5	1	0.695037	0.695037	0	1	0	0	CorrectCommission	0.412123	0.540789	1	0
244.545197	0.792300	city	4	1	0.695259	0.695259	0	1	0	0	CorrectCommission	0.414077	0.545770	1	0
245.337448	0.792213	city	6	1	0.707570	0.707570	0	1	0	0	CorrectCommission	0.522364	0.550272	1	0
246.129745	0.792370	mountain	7	0	0.000000	0.717506	1	0	0	0	CorrectOmission	0.609767	0.553738	1	1
246.922119	0.792376	city	1	1	0.704533	0.704533	0	1	0	0	CorrectCommission	0.495652	0.555478	1	1
247.714325	0.792050	city	5	1	0.648115	0.648115	0	1	0	0	CorrectCommission	0.000614	0.554704	1	1
248.506485	0.792258	city	1	1	0.645730	0.645730	0	1	0	0	CorrectCommission	0.021591	0.550628	1	1
249.298752	0.792265	city	7	1	0.799184	0.799184	0	1	0	0	CorrectCommission	1.328214	0.542597	1	1
250.091125	0.792484	city	1	1	0.807585	0.807585	0	1	0	0	CorrectCommission	1.402110	0.530244	1	1
250.883423	0.792102	city	5	1	0.748552	0.748552	0	1	0	0	CorrectCommission	0.882850	0.513686	1	1
251.683823	0.808720	city	4	1	0.721695	0.721695	0	1	0	0	CorrectCommission	0.646609	0.493560	1	1
252.484314	0.792264	city	8	1	0.605258	0.605258	0	1	0	0	CorrectCommission	0.377590	0.470991	1	1
253.276642	0.792372	mountain	6	0	0.000000	0.638986	1	0	0	0	CorrectOmission	0.080908	0.447434	1	1
254.068893	0.792155	city	6	1	0.696042	0.696042	0	1	0	0	CorrectCommission	0.420958	0.424451	1	1
254.861115	0.792268	city	1	1	0.649584	0.649584	0	1	0	0	CorrectCommission	0.012309	0.403457	1	1
255.653488	0.792479	city	8	1	0.613267	0.613267	0	1	0	0	CorrectCommission	0.307137	0.385518	1	1
256.445770	0.792118	city	7	1	0.652501	0.652501	0	1	0	0	CorrectCommission	0.037968	0.371163	1	1
257.237946	0.792193	city	5	1	0.646795	0.646795	0	1	0	0	CorrectCommission	0.012221	0.360375	1	1
258.030182	0.792277	mountain	2	0	0.000000	0.671221	1	0	0	0	CorrectOmission	0.202631	0.352656	1	1
258.822479	0.792364	city	9	1	0.712810	0.712810	0	1	0	0	CorrectCommission	0.568460	0.347225	1	1
259.614807	0.792263	mountain	5	0	0.000000	0.758596	1	0	0	0	CorrectOmission	0.971200	0.343201	1	1
260.407135	0.792375	city	9	1	0.756671	0.756671	0	1	0	0	CorrectCommission	0.954262	0.339853	1	1
261.199341	0.792048	city	3	1	0.655126	0.655126	0	1	0	0	CorrectCommission	0.061055	0.336764	1	1
261.991516	0.792285	city	2	1	0.652660	0.652660	0	1	0	0	CorrectCommission	0.039364	0.333935	1	1
262.783752	0.792245	city	9	1	0.645739	0.645739	0	1	0	0	CorrectCommission	0.021514	0.331764	1	1
263.576019	0.792266	city	6	1	0.609770	0.609770	0	1	0	0	CorrectCommission	0.337901	0.331009	1	1
264.368317	0.792302	city	1	1	0.596226	0.596226	0	1	0	0	CorrectCommission	0.457035	0.332662	1	1
265.160583	0.792228	city	9	1	0.612344	0.612344	0	1	0	0	CorrectCommission	0.315263	0.337852	1	1
265.952820	0.792262	city	5	1	0.695237	0.695237	0	1	0	0	CorrectCommission	0.413877	0.347658	1	1
266.745178	0.792480	city	4	1	0.657571	0.657571	0	1	0	0	CorrectCommission	0.082567	0.362986	1	1
267.537445	0.792050	city	8	1	0.600804	0.600804	0	1	0	0	CorrectCommission	0.416768	0.384485	1	1
268.329620	0.792265	city	7	1	0.648145	0.648145	0	1	0	0	CorrectCommission	0.000350	0.412435	1	1
269.121887	0.792270	city	6	1	0.663737	0.663737	0	1	0	0	CorrectCommission	0.136802	0.446713	1	1
269.914154	0.792262	city	2	1	0.695238	0.695238	0	1	0	0	CorrectCommission	0.413893	0.486710	1	1
270.706451	0.792368	city	4	1	0.748156	0.748156	0	1	0	0	CorrectCommission	0.879367	0.531346	1	1
271.498718	0.792178	city	2	1	0.695874	0.695874	0	1	0	0	CorrectCommission	0.419487	0.579085	1	1
272.290955	0.792248	city	10	1	0.695211	0.695211	0	1	0	0	CorrectCommission	0.413654	0.628028	0	1
273.083191	0.792262	city	4	1	0.699597	0.699597	0	1	0	0	CorrectCommission	0.452233	0.675952	0	1
273.875458	0.792261	city	8	1	0.794277	0.794277	0	1	0	0	CorrectCommission	1.285050	0.720466	0	1
274.667786	0.792376	city	1	1	0.744808	0.744808	0	1	0	0	CorrectCommission	0.849919	0.759137	0	1
275.460114	0.792265	city	3	1	0.744808	0.744808	0	1	0	0	CorrectCommission	0.849915	0.789713	0	1
276.252411	0.792378	mountain	8	0	0.000000	0.750915	1	0	0	0	CorrectOmission	0.903636	0.810285	0	1
277.044617	0.792040	city	3	1	0.756540	0.756540	0	1	0	0	CorrectCommission	0.953109	0.819508	0	1
277.836792	0.792268	city	5	1	0.755091	0.755091	0	1	0	0	CorrectCommission	0.940364	0.816774	0	1
278.629059	0.792295	city	1	1	0.796725	0.796725	0	1	0	0	CorrectCommission	1.306584	0.802342	0	1
279.421387	0.792340	city	7	1	0.794651	0.794651	0	1	0	0	CorrectCommission	1.288341	0.777373	0	1
280.213623	0.792157	city	6	1	0.893370	0.893370	0	1	0	0	CorrectCommission	2.156696	0.743856	0	1
281.005829	0.792268	city	4	1	0.652108	0.652108	0	1	0	0	CorrectCommission	0.034509	0.704396	0	1
281.798126	0.792267	city	2	1	0.645703	0.645703	0	1	0	0	CorrectCommission	0.021832	0.662041	0	1
282.590393	0.792326	city	4	1	0.660404	0.660404	0	1	0	0	CorrectCommission	0.107483	0.619818	0	1
283.382782	0.792417	city	9	1	0.599833	0.599833	0	1	0	0	CorrectCommission	0.425309	0.580457	1	1
284.175110	0.792265	city	10	1	0.555895	0.555895	0	1	0	0	CorrectCommission	0.811796	0.546128	1	1
284.967285	0.792092	city	4	1	0.645514	0.645514	0	1	0	0	CorrectCommission	0.023489	0.518276	1	1
285.759460	0.792222	city	5	1	0.655182	0.655182	0	1	0	0	CorrectCommission	0.061552	0.497606	1	1
286.551697	0.792281	city	7	1	0.695250	0.695250	0	1	0	0	CorrectCommission	0.413995	0.484128	1	1
287.343994	0.792302	city	5	1	0.744789	0.744789	0	1	0	0	CorrectCommission	0.849748	0.477327	1	1
288.136261	0.792209	city	3	1	0.705810	0.705810	0	1	0	0	CorrectCommission	0.506883	0.476349	1	1
288.928497	0.792267	mountain	7	0	0.000000	0.696239	1	0	0	0	CorrectOmission	0.422691	0.480243	1	1
289.720764	0.792264	city	6	1	0.697854	0.697854	0	1	0	0	CorrectCommission	0.436904	0.488057	1	1
290.513062	0.792372	mountain	3	0	0.000000	0.692437	1	0	0	0	CorrectOmission	0.389251	0.498944	1	1
291.305328	0.792157	city	1	1	0.701105	0.701105	0	1	0	0	CorrectCommission	0.465495	0.512190	1	1
292.097565	0.792316	city	2	1	0.744977	0.744977	0	1	0	0	CorrectCommission	0.851402	0.527116	1	1
292.889832	0.792215	city	9	1	0.744696	0.744696	0	1	0	0	CorrectCommission	0.848927	0.543023	1	1
293.682068	0.792263	city	10	1	0.648474	0.648474	0	1	0	0	CorrectCommission	0.002550	0.559109	1	1
294.474335	0.792263	city	4	1	0.695401	0.695401	0	1	0	0	CorrectCommission	0.415320	0.574420	1	1
295.266663	0.792373	city	10	1	0.645777	0.645777	0	1	0	0	CorrectCommission	0.021176	0.587848	0	1
296.059021	0.792376	city	7	1	0.654753	0.654753	0	1	0	0	CorrectCommission	0.057781	0.598249	0	1
296.851288	0.792105	city	5	1	0.855081	0.855081	0	1	0	0	CorrectCommission	1.819892	0.604600	0	1
297.643433	0.792205	city	7	1	0.795129	0.795129	0	1	0	0	CorrectCommission	1.292546	0.606129	0	1
298.435730	0.792374	city	10	1	0.746854	0.746854	0	1	0	0	CorrectCommission	0.867910	0.602612	0	1
299.227997	0.792157	city	5	1	0.711823	0.711823	0	1	0	0	CorrectCommission	0.559776	0.594379	0	1
300.020264	0.792373	city	8	1	0.750318	0.750318	0	1	0	0	CorrectCommission	0.898384	0.582338	1	1
300.812622	0.792373	mountain	6	0	0.000000	0.688608	1	0	0	0	CorrectOmission	0.355572	0.567836	1	1
301.604828	0.792047	city	2	1	0.612390	0.612390	0	1	0	0	CorrectCommission	0.314854	0.552484	1	1
302.397003	0.792270	mountain	6	0	0.000000	0.607361	1	0	0	0	CorrectOmission	0.359090	0.537890	1	1
303.189270	0.792260	city	8	1	0.645748	0.645748	0	1	0	0	CorrectCommission	0.021428	0.525463	1	1
303.981567	0.792373	city	5	1	0.699779	0.699779	0	1	0	0	CorrectCommission	0.453837	0.516252	1	1
304.773834	0.792161	city	6	1	0.645628	0.645628	0	1	0	0	CorrectCommission	0.022487	0.510857	1	1
305.566040	0.792260	city	9	1	0.696654	0.696654	0	1	0	0	CorrectCommission	0.426350	0.509484	1	0
306.358307	0.792264	city	4	1	0.893903	0.893903	0	1	0	0	CorrectCommission	2.161378	0.511997	1	0
307.150696	0.792485	city	10	1	0.653253	0.653253	0	1	0	0	CorrectCommission	0.044587	0.518001	1	0
307.942963	0.792043	city	4	1	0.645521	0.645521	0	1	0	0	CorrectCommission	0.023432	0.527047	1	0
308.735107	0.792265	city	3	1	0.596959	0.596959	0	1	0	0	CorrectCommission	0.450588	0.538581	1	0
309.527374	0.792269	city	9	1	0.650410	0.650410	0	1	0	0	CorrectCommission	0.019580	0.552020	1	0
310.319641	0.792271	city	8	1	0.744822	0.744822	0	1	0	0	CorrectCommission	0.850036	0.566778	1	0
311.111908	0.792254	city	6	1	0.744894	0.744894	0	1	0	0	CorrectCommission	0.850673	0.582255	1	0
311.904175	0.792287	city	10	1	0.752722	0.752722	0	1	0	0	CorrectCommission	0.919530	0.597835	0	0
312.696503	0.792352	city	9	1	0.702241	0.702241	0	1	0	0	CorrectCommission	0.475487	0.612919	0	0
313.488739	0.792162	city	5	1	0.695120	0.695120	0	1	0	0	CorrectCommission	0.412855	0.626982	0	0
314.280975	0.792258	city	7	1	0.649516	0.649516	0	1	0	0	CorrectCommission	0.011715	0.639610	0	0
315.073212	0.792268	city	9	1	0.753211	0.753211	0	1	0	0	CorrectCommission	0.923829	0.650659	0	0
315.865540	0.792371	city	4	1	0.794249	0.794249	0	1	0	0	CorrectCommission	1.284810	0.660303	0	0
316.657806	0.792156	city	8	1	0.796660	0.796660	0	1	0	0	CorrectCommission	1.306016	0.669179	0	0
317.450043	0.792313	city	7	1	0.650224	0.650224	0	1	0	0	CorrectCommission	0.017939	0.678377	0	0
318.242310	0.792216	mountain	1	0	0.000000	0.574097	1	0	0	0	CorrectOmission	0.651688	0.689460	0	0
319.034546	0.792266	city	3	1	0.546768	0.546768	0	1	0	0	CorrectCommission	0.892075	0.704234	0	0
319.826813	0.792267	city	9	1	0.546727	0.546727	0	1	0	0	CorrectCommission	0.892436	0.724597	0	0
320.619202	0.792479	city	4	1	0.614226	0.614226	0	1	0	0	CorrectCommission	0.298701	0.752241	0	0
321.411560	0.792265	city	3	1	0.595940	0.595940	0	1	0	0	CorrectCommission	0.459555	0.788329	0	0
322.203735	0.792097	city	6	1	0.595870	0.595870	0	1	0	0	CorrectCommission	0.460167	0.833211	0	0
322.995911	0.792218	city	4	1	0.596166	0.596166	0	1	0	0	CorrectCommission	0.457560	0.886239	0	0
323.788239	0.792480	mountain	2	0	0.000000	0.579162	1	0	0	0	CorrectOmission	0.607138	0.945650	0	0
324.580505	0.792049	city	4	1	0.558264	0.558264	0	1	0	0	CorrectCommission	0.790958	1.008727	0	0
325.372681	0.792284	city	10	1	0.546881	0.546881	0	1	0	0	CorrectCommission	0.891078	1.071998	0	0
326.164978	0.792286	city	8	1	0.453018	0.453018	0	1	0	0	CorrectCommission	1.716720	1.131630	0	0
326.957214	0.792222	city	7	1	0.461427	0.461427	0	1	0	0	CorrectCommission	1.642753	1.183897	0	0
327.749481	0.792320	city	9	1	0.447648	0.447648	0	1	0	0	CorrectCommission	1.763951	1.225653	0	0
328.541870	0.792428	city	4	1	0.461917	0.461917	0	1	0	0	CorrectCommission	1.638441	1.254739	0	0
329.334198	0.792262	city	10	1	0.466026	0.466026	0	1	0	0	CorrectCommission	1.602294	1.270271	0	0
330.126373	0.792059	city	8	1	0.452451	0.452451	0	1	0	0	CorrectCommission	1.721705	1.272738	0	0
330.918549	0.792331	city	4	1	0.501719	0.501719	0	1	0	0	CorrectCommission	1.288335	1.263903	0	0
331.710815	0.792190	city	10	1	0.458979	0.458979	0	1	0	0	CorrectCommission	1.664287	1.246534	0	0
332.503052	0.792265	city	7	1	0.514632	0.514632	0	1	0	0	CorrectCommission	1.174749	1.223945	0	0
333.295319	0.792262	city	9	1	0.794285	0.794285	0	1	0	0	CorrectCommission	1.285123	1.199499	0	0
334.087585	0.792280	city	5	1	0.696032	0.696032	0	1	0	0	CorrectCommission	0.420877	1.176064	0	0
334.879944	0.792467	city	6	1	0.744886	0.744886	0	1	0	0	CorrectCommission	0.850602	1.155616	0	0
335.672272	0.792157	mountain	2	0	0.000000	0.721964	1	0	0	0	CorrectOmission	0.648975	1.138884	0	0
336.464417	0.792156	city	1	1	0.704780	0.704780	0	1	0	0	CorrectCommission	0.497820	1.125295	0	0
337.256653	0.792269	mountain	4	1	0.770847	0.770847	0	0	1	0	CommissionError	1.078958	1.113119	0	0
338.048889	0.792259	city	7	1	0.810775	0.810775	0	1	0	0	CorrectCommission	1.430171	1.099807	0	0
338.841217	0.792375	city	5	1	0.801100	0.801100	0	1	0	0	CorrectCommission	1.345073	1.082521	0	0
339.633484	0.792155	city	2	1	0.853087	0.853087	0	1	0	0	CorrectCommission	1.802359	1.058712	0	0
340.425690	0.792264	city	3	1	0.795209	0.795209	0	1	0	0	CorrectCommission	1.293251	1.026633	0	0
341.217957	0.792269	city	5	1	0.807826	0.807826	0	1	0	0	CorrectCommission	1.404233	0.985746	0	0
342.010223	0.792261	city	8	1	0.849529	0.849529	0	1	0	0	CorrectCommission	1.771056	0.936867	0	0
342.802490	0.792263	city	6	1	0.761352	0.761352	0	1	0	0	CorrectCommission	0.995443	0.882112	0	0
343.594788	0.792323	city	5	1	0.710955	0.710955	0	1	0	0	CorrectCommission	0.552138	0.824608	0	0
344.387054	0.792209	city	9	1	0.696442	0.696442	0	1	0	0	CorrectCommission	0.424483	0.767998	0	0
345.179291	0.792266	city	2	1	0.616824	0.616824	0	1	0	0	CorrectCommission	0.275851	0.715869	0	0
345.971588	0.792314	city	6	1	0.608176	0.608176	0	1	0	0	CorrectCommission	0.351918	0.671197	0	0
346.763824	0.792212	mountain	8	0	0.000000	0.658523	1	0	0	0	CorrectOmission	0.090941	0.635884	0	0
347.556091	0.792265	city	6	1	0.695245	0.695245	0	1	0	0	CorrectCommission	0.413950	0.610480	0	0
348.348358	0.792270	city	3	1	0.645721	0.645721	0	1	0	0	CorrectCommission	0.021671	0.594124	0	0
349.140717	0.792478	city	5	1	0.653500	0.653500	0	1	0	0	CorrectCommission	0.046755	0.584738	1	0
349.932983	0.792051	mountain	3	1	0.596774	0.596774	0	0	1	0	CommissionError	0.452219	0.579399	1	0
350.725128	0.792263	city	3	1	0.812453	0.812453	0	1	0	0	CorrectCommission	1.444931	0.574830	1	0
351.517395	0.792262	mountain	10	1	0.794280	0.794280	0	0	1	0	CommissionError	1.285080	0.567947	1	0
352.309662	0.792268	city	7	1	0.798578	0.798578	0	1	0	0	CorrectCommission	1.322889	0.556357	1	0
353.101990	0.792371	city	10	1	0.696762	0.696762	0	1	0	0	CorrectCommission	0.427292	0.538668	1	0
353.894257	0.792161	city	4	1	0.695201	0.695201	0	1	0	0	CorrectCommission	0.413566	0.514673	1	0
354.686462	0.792261	city	1	1	0.603164	0.603164	0	1	0	0	CorrectCommission	0.396009	0.485265	1	0
355.478790	0.792374	city	10	1	0.546765	0.546765	0	1	0	0	CorrectCommission	0.892105	0.452232	1	0
356.271057	0.792155	city	5	1	0.603332	0.603332	0	1	0	0	CorrectCommission	0.394531	0.417931	1	0
357.063263	0.792265	city	4	1	0.645792	0.645792	0	1	0	0	CorrectCommission	0.021046	0.384904	1	0
357.855530	0.792266	city	9	1	0.645737	0.645737	0	1	0	0	CorrectCommission	0.021533	0.355506	1	0
358.647797	0.792268	city	10	1	0.645929	0.645929	0	1	0	0	CorrectCommission	0.019838	0.331566	1	0
359.440094	0.792369	city	3	1	0.657063	0.657063	0	1	0	0	CorrectCommission	0.078097	0.314207	1	0
360.232361	0.792154	city	9	1	0.657570	0.657570	0	1	0	0	CorrectCommission	0.082557	0.303765	1	0
361.024567	0.792269	city	3	1	0.657570	0.657570	0	1	0	0	CorrectCommission	0.082560	0.299840	1	0
361.816864	0.792318	city	7	1	0.714760	0.714760	0	1	0	0	CorrectCommission	0.585607	0.301423	1	0
362.609253	0.792426	city	4	1	0.698576	0.698576	0	1	0	0	CorrectCommission	0.443250	0.307113	1	0
363.401489	0.792051	city	1	1	0.663656	0.663656	0	1	0	0	CorrectCommission	0.136091	0.315349	1	0
364.193756	0.792478	city	5	1	0.698082	0.698082	0	1	0	0	CorrectCommission	0.438905	0.324632	1	0
364.986053	0.792155	city	1	1	0.695165	0.695165	0	1	0	0	CorrectCommission	0.413244	0.333681	1	1
365.778320	0.792375	city	4	1	0.695134	0.695134	0	1	0	0	CorrectCommission	0.412974	0.341575	1	1
366.570557	0.792073	city	7	1	0.695212	0.695212	0	1	0	0	CorrectCommission	0.413663	0.347807	1	1
367.362701	0.792246	city	6	1	0.713822	0.713822	0	1	0	0	CorrectCommission	0.577357	0.352286	1	1
368.154968	0.792257	city	8	1	0.695229	0.695229	0	1	0	0	CorrectCommission	0.413813	0.355264	1	1
368.947235	0.792267	mountain	6	0	0.000000	0.634959	1	0	0	0	CorrectOmission	0.116331	0.357270	1	1
369.739502	0.792265	city	1	1	0.599013	0.599013	0	1	0	0	CorrectCommission	0.432520	0.359014	1	1
370.531769	0.792262	city	5	1	0.653392	0.653392	0	1	0	0	CorrectCommission	0.045802	0.361278	1	1
371.324066	0.792342	city	1	1	0.602573	0.602573	0	1	0	0	CorrectCommission	0.401211	0.364844	1	1
372.116425	0.792405	city	5	1	0.605486	0.605486	0	1	0	0	CorrectCommission	0.375587	0.370389	1	1
372.908752	0.792265	city	2	1	0.558087	0.558087	0	1	0	0	CorrectCommission	0.792513	0.378442	1	1
373.701019	0.792266	city	6	1	0.645671	0.645671	0	1	0	0	CorrectCommission	0.022109	0.389305	1	1
374.493286	0.792264	city	5	1	0.596018	0.596018	0	1	0	0	CorrectCommission	0.458867	0.403044	1	1
375.285492	0.792154	city	8	1	0.646142	0.646142	0	1	0	0	CorrectCommission	0.017966	0.419408	1	1
376.077667	0.792156	city	6	1	0.605994	0.605994	0	1	0	0	CorrectCommission	0.371118	0.437864	1	1
376.869873	0.792269	mountain	7	0	0.000000	0.668725	1	0	0	0	CorrectOmission	0.180680	0.457610	1	1
377.662140	0.792262	city	3	1	0.744824	0.744824	0	1	0	0	CorrectCommission	0.850057	0.477654	1	1
378.454468	0.792373	city	5	1	0.744777	0.744777	0	1	0	0	CorrectCommission	0.849642	0.496888	1	1
379.246826	0.792375	city	2	1	0.695175	0.695175	0	1	0	0	CorrectCommission	0.413335	0.514253	1	1
380.039154	0.792264	city	8	1	0.706244	0.706244	0	1	0	0	CorrectCommission	0.510704	0.528899	1	1
380.831360	0.792154	city	2	1	0.659208	0.659208	0	1	0	0	CorrectCommission	0.096961	0.540313	1	1
381.623627	0.792376	mountain	2	0	0.000000	0.721105	1	0	0	0	CorrectOmission	0.641418	0.548449	1	1
382.415955	0.792265	city	7	1	0.797629	0.797629	0	1	0	0	CorrectCommission	1.314537	0.553746	1	1
383.208221	0.792264	city	4	1	0.794473	0.794473	0	1	0	0	CorrectCommission	1.286780	0.557121	1	1
384.000458	0.792264	mountain	1	0	0.000000	0.697173	1	0	0	0	CorrectOmission	0.430909	0.559849	1	1
384.792725	0.792265	city	2	1	0.614880	0.614880	0	1	0	0	CorrectCommission	0.292955	0.563354	1	1
385.584900	0.792076	city	7	1	0.656746	0.656746	0	1	0	0	CorrectCommission	0.075309	0.568912	1	1
386.377106	0.792345	city	1	1	0.645889	0.645889	0	1	0	0	CorrectCommission	0.020188	0.577392	1	1
387.169434	0.792266	city	7	1	0.695317	0.695317	0	1	0	0	CorrectCommission	0.414588	0.589033	0	1
387.961700	0.792292	city	2	1	0.744884	0.744884	0	1	0	0	CorrectCommission	0.850580	0.603316	0	1
388.753937	0.792166	city	5	1	0.700871	0.700871	0	1	0	0	CorrectCommission	0.463436	0.619006	0	1
389.546173	0.792337	city	4	1	0.700708	0.700708	0	1	0	0	CorrectCommission	0.462003	0.634329	0	1
390.338531	0.792373	city	2	1	0.695225	0.695225	0	1	0	0	CorrectCommission	0.413778	0.647238	0	1
391.130737	0.792045	city	9	1	0.711263	0.711263	0	1	0	0	CorrectCommission	0.554853	0.655805	0	1
391.922943	0.792376	city	8	1	0.848194	0.848194	0	1	0	0	CorrectCommission	1.759318	0.658547	0	1
392.715332	0.792372	city	4	1	0.843696	0.843696	0	1	0	0	CorrectCommission	1.719753	0.654707	0	1
393.507538	0.792046	city	5	1	0.744532	0.744532	0	1	0	0	CorrectCommission	0.847491	0.644420	0	1
394.299713	0.792306	city	7	1	0.695407	0.695407	0	1	0	0	CorrectCommission	0.415374	0.628688	0	1
395.091980	0.792228	city	9	1	0.695264	0.695264	0	1	0	0	CorrectCommission	0.414120	0.609157	0	1
395.884216	0.792262	city	2	1	0.695935	0.695935	0	1	0	0	CorrectCommission	0.420022	0.587807	1	1
396.676483	0.792264	city	5	1	0.695846	0.695846	0	1	0	0	CorrectCommission	0.419236	0.566599	1	1
397.468750	0.792266	city	3	1	0.645712	0.645712	0	1	0	0	CorrectCommission	0.021751	0.547106	1	1
398.261078	0.792372	city	4	1	0.649792	0.649792	0	1	0	0	CorrectCommission	0.014139	0.530285	1	1
399.053375	0.792224	mountain	1	0	0.000000	0.605293	1	0	0	0	CorrectOmission	0.377281	0.516335	1	1
399.845581	0.792198	city	8	1	0.556267	0.556267	0	1	0	0	CorrectCommission	0.808519	0.504737	1	1
400.637817	0.792289	city	7	1	0.546767	0.546767	0	1	0	0	CorrectCommission	0.892082	0.494440	1	1
401.430084	0.792238	city	4	1	0.603978	0.603978	0	1	0	0	CorrectCommission	0.388848	0.484107	1	1
402.222412	0.792374	city	1	1	0.547358	0.547358	0	1	0	0	CorrectCommission	0.886887	0.472391	1	1
403.014771	0.792374	city	4	1	0.620761	0.620761	0	1	0	0	CorrectCommission	0.241223	0.458152	1	1
403.815247	0.808552	city	9	1	0.562988	0.562988	0	1	0	0	CorrectCommission	0.749405	0.440676	1	1
404.615692	0.792374	city	5	1	0.602703	0.602703	0	1	0	0	CorrectCommission	0.400061	0.419716	1	1
405.408020	0.792266	city	7	1	0.597001	0.597001	0	1	0	0	CorrectCommission	0.450218	0.395542	1	1
406.200226	0.792156	city	1	1	0.601472	0.601472	0	1	0	0	CorrectCommission	0.410894	0.368858	1	1
406.992493	0.792372	city	7	1	0.603672	0.603672	0	1	0	0	CorrectCommission	0.391541	0.340668	1	1
407.784821	0.792263	city	9	1	0.605617	0.605617	0	1	0	0	CorrectCommission	0.374429	0.312139	1	1
408.577118	0.792373	mountain	1	0	0.000000	0.626243	1	0	0	0	CorrectOmission	0.193001	0.284448	1	1
409.369354	0.792074	city	2	1	0.646097	0.646097	0	1	0	0	CorrectCommission	0.018360	0.258658	1	1
410.161499	0.792242	city	9	1	0.645728	0.645728	0	1	0	0	CorrectCommission	0.021612	0.235627	1	1
410.953857	0.792480	city	2	1	0.649380	0.649380	0	1	0	0	CorrectCommission	0.010517	0.215976	1	1
411.746124	0.792049	city	4	1	0.695110	0.695110	0	1	0	0	CorrectCommission	0.412763	0.200098	1	1
412.538300	0.792263	city	1	1	0.665334	0.665334	0	1	0	0	CorrectCommission	0.150848	0.188187	1	1
413.330566	0.792265	city	8	1	0.664070	0.664070	0	1	0	0	CorrectCommission	0.139728	0.180307	1	1
414.122833	0.792265	city	4	1	0.655032	0.655032	0	1	0	0	CorrectCommission	0.060231	0.176437	1	1
414.915100	0.792267	city	1	1	0.665036	0.665036	0	1	0	0	CorrectCommission	0.148225	0.176520	1	1
415.707367	0.792272	city	8	1	0.703583	0.703583	0	1	0	0	CorrectCommission	0.487292	0.180465	1	1
416.499634	0.792270	city	3	1	0.645702	0.645702	0	1	0	0	CorrectCommission	0.021839	0.188122	1	1
417.291901	0.792250	city	10	1	0.646412	0.646412	0	1	0	0	CorrectCommission	0.015589	0.199269	1	1
418.084137	0.792263	city	6	1	0.646330	0.646330	0	1	0	0	CorrectCommission	0.016310	0.213618	1	1
418.876465	0.792374	city	5	1	0.645762	0.645762	0	1	0	0	CorrectCommission	0.021313	0.230793	1	1
419.668823	0.792374	city	8	1	0.649984	0.649984	0	1	0	0	CorrectCommission	0.015827	0.250408	1	1
420.461060	0.792046	city	10	1	0.605573	0.605573	0	1	0	0	CorrectCommission	0.374815	0.272181	1	1
421.253204	0.792268	mountain	9	1	0.556063	0.556063	0	0	1	0	CommissionError	0.810316	0.296052	1	1
422.045471	0.792260	city	3	1	0.672916	0.672916	0	1	0	0	CorrectCommission	0.217546	0.322326	1	1
422.837738	0.792269	city	6	1	0.695445	0.695445	0	1	0	0	CorrectCommission	0.415715	0.351808	1	1
423.630005	0.792265	city	3	1	0.660925	0.660925	0	1	0	0	CorrectCommission	0.112069	0.385802	1	1
424.422363	0.792479	city	2	1	0.546802	0.546802	0	1	0	0	CorrectCommission	0.891773	0.426109	1	0
425.214691	0.792157	mountain	7	0	0.000000	0.586527	1	0	0	0	CorrectOmission	0.542351	0.474853	1	0
426.006836	0.792160	city	5	1	0.659658	0.659658	0	1	0	0	CorrectCommission	0.100918	0.534309	1	0
426.799103	0.792369	city	6	1	0.645753	0.645753	0	1	0	0	CorrectCommission	0.021387	0.606596	0	0
427.591400	0.792221	city	10	1	0.596112	0.596112	0	1	0	0	CorrectCommission	0.458040	0.693368	0	0
428.383606	0.792204	city	4	1	0.647190	0.647190	0	1	0	0	CorrectCommission	0.008752	0.795528	0	0
429.175842	0.792270	city	7	1	0.695237	0.695237	0	1	0	0	CorrectCommission	0.413878	0.913031	0	0
429.968109	0.792259	city	6	1	0.754054	0.754054	0	1	0	0	CorrectCommission	0.931244	1.044718	0	0
430.760498	0.792478	city	9	1	0.794261	0.794261	0	1	0	0	CorrectCommission	1.284911	1.188301	0	0
431.552765	0.792049	city	7	1	0.808975	0.808975	0	1	0	0	CorrectCommission	1.414339	1.340440	0	0
432.345032	0.792483	city	8	1	0.754174	0.754174	0	1	0	0	CorrectCommission	0.932297	1.496866	0	0
433.137299	0.792065	city	1	1	0.960557	0.960557	0	1	0	0	CorrectCommission	2.747676	1.652610	0	0
433.929443	0.792257	city	3	1	0.794848	0.794848	0	1	0	0	CorrectCommission	1.290078	1.802202	0	0
434.721771	0.792363	city	6	1	0.843938	0.843938	0	1	0	0	CorrectCommission	1.721884	1.940067	0	0
435.514038	0.792180	city	9	1	0.865400	0.865400	0	1	0	0	CorrectCommission	1.910664	2.060729	0	0
436.306274	0.792293	city	6	1	0.999344	0.999344	0	1	0	0	CorrectCommission	3.088859	2.159228	0	0
437.098541	0.792259	city	7	1	0.998895	0.998895	0	1	0	0	CorrectCommission	3.084907	2.231427	0	0
437.890778	0.792220	city	10	1	1.051486	1.051486	0	1	0	0	CorrectCommission	3.547510	2.274341	0	0
438.683075	0.792369	city	5	1	0.998758	0.998758	0	1	0	0	CorrectCommission	3.083700	2.286330	0	0
439.475342	0.792156	city	9	1	0.958846	0.958846	0	1	0	0	CorrectCommission	2.732627	2.267260	0	0
440.267548	0.792267	city	6	1	0.908582	0.908582	0	1	0	0	CorrectCommission	2.290503	2.218465	0	0
441.059937	0.792480	city	4	1	0.893502	0.893502	0	1	0	0	CorrectCommission	2.157854	2.142650	0	0
441.852203	0.792099	city	2	1	0.893196	0.893196	0	1	0	0	CorrectCommission	2.155159	2.043666	0	0
442.644379	0.792214	mountain	9	1	0.902382	0.902382	0	0	1	0	CommissionError	2.235962	1.926289	0	0
443.436615	0.792292	city	7	1	0.909024	0.909024	0	1	0	0	CorrectCommission	2.294386	1.795891	0	0
444.228882	0.792240	city	9	1	0.901982	0.901982	0	1	0	0	CorrectCommission	2.232448	1.658142	0	0
445.021240	0.792478	city	1	1	0.794161	0.794161	0	1	0	0	CorrectCommission	1.284033	1.518687	0	0
445.813538	0.792087	city	5	1	0.755844	0.755844	0	1	0	0	CorrectCommission	0.946995	1.382897	0	0
446.605804	0.792445	city	3	1	0.757120	0.757120	0	1	0	0	CorrectCommission	0.958219	1.255562	0	0
447.398102	0.792155	city	8	1	0.646094	0.646094	0	1	0	0	CorrectCommission	0.018387	1.140687	0	0
448.190277	0.792200	city	5	1	0.596093	0.596093	0	1	0	0	CorrectCommission	0.458209	1.041407	0	0
448.982513	0.792295	city	1	1	0.555527	0.555527	0	1	0	0	CorrectCommission	0.815030	0.959873	0	0
449.774872	0.792407	city	3	1	0.508889	0.508889	0	1	0	0	CorrectCommission	1.225270	0.897323	0	0
450.567108	0.792052	mountain	9	1	0.620302	0.620302	0	0	1	0	CommissionError	0.245262	0.854085	0	0
451.359253	0.792260	mountain	6	0	0.000000	0.742004	1	0	0	0	CorrectOmission	0.825255	0.829718	0	0
452.151520	0.792264	city	6	1	0.794319	0.794319	0	1	0	0	CorrectCommission	1.285424	0.822961	0	0
452.943909	0.792481	city	4	1	0.697568	0.697568	0	1	0	0	CorrectCommission	0.434389	0.831791	0	0
453.736206	0.792157	city	5	1	0.609892	0.609892	0	1	0	0	CorrectCommission	0.336825	0.853434	0	0
454.528381	0.792154	city	3	1	0.657807	0.657807	0	1	0	0	CorrectCommission	0.084641	0.884433	0	0
455.320587	0.792268	city	7	1	0.695270	0.695270	0	1	0	0	CorrectCommission	0.414169	0.920808	0	0
456.112885	0.792332	city	9	1	0.695298	0.695298	0	1	0	0	CorrectCommission	0.414421	0.958381	0	0
456.905151	0.792196	city	4	1	0.760415	0.760415	0	1	0	0	CorrectCommission	0.987199	0.993272	0	0
457.697388	0.792264	city	10	1	0.963327	0.963327	0	1	0	0	CorrectCommission	2.772045	1.022425	0	0
458.489655	0.792264	city	5	1	0.893363	0.893363	0	1	0	0	CorrectCommission	2.156628	1.044112	0	0
459.281952	0.792374	city	1	1	0.843930	0.843930	0	1	0	0	CorrectCommission	1.721812	1.058453	0	0
460.074219	0.792155	city	3	1	0.751076	0.751076	0	1	0	0	CorrectCommission	0.905046	1.067533	0	0
460.866425	0.792265	city	5	1	0.794295	0.794295	0	1	0	0	CorrectCommission	1.285210	1.075254	0	0
461.658691	0.792266	city	3	1	0.751802	0.751802	0	1	0	0	CorrectCommission	0.911437	1.086843	0	0
462.450958	0.792262	city	6	1	0.702859	0.702859	0	1	0	0	CorrectCommission	0.480923	1.108148	0	0
463.243225	0.792268	city	3	1	0.744781	0.744781	0	1	0	0	CorrectCommission	0.849677	1.144666	0	0
464.035553	0.792373	city	10	1	0.695309	0.695309	0	1	0	0	CorrectCommission	0.414511	1.200559	0	0
464.827881	0.792262	mountain	3	1	0.596170	0.596170	0	0	1	0	CommissionError	0.457530	1.277845	0	0
465.620087	0.792161	city	4	1	0.597251	0.597251	0	1	0	0	CorrectCommission	0.448023	1.375751	0	0
466.412415	0.792479	city	9	1	0.702085	0.702085	0	1	0	0	CorrectCommission	0.474119	1.490525	0	0
467.204651	0.792046	city	1	1	0.563343	0.563343	0	1	0	0	CorrectCommission	0.746277	1.615639	0	0
467.996826	0.792265	city	4	1	0.463076	0.463076	0	1	0	0	CorrectCommission	1.628249	1.742446	0	0
468.789093	0.792266	city	5	1	0.404761	0.404761	0	1	0	0	CorrectCommission	2.141190	1.861155	0	0
469.581390	0.792351	city	10	1	1.044256	1.044256	0	1	0	0	CorrectCommission	3.483913	1.962014	0	0
470.373718	0.792285	city	5	1	1.059855	1.059855	0	1	0	0	CorrectCommission	3.621127	2.036513	0	0
471.166046	0.792376	city	3	1	1.053837	1.053837	0	1	0	0	CorrectCommission	3.568190	2.078417	0	0
471.958282	0.792094	city	9	1	1.091200	1.091200	0	1	0	0	CorrectCommission	3.896842	2.084412	0	0
472.750458	0.792248	city	8	1	1.044476	1.044476	0	1	0	0	CorrectCommission	3.485846	2.054317	0	0
473.542786	0.792452	mountain	5	0	0.000000	0.770491	1	0	0	0	CorrectOmission	1.075826	1.990896	0	0
474.335144	0.792265	city	2	1	0.496975	0.496975	0	1	0	0	CorrectCommission	1.330068	1.899328	0	0
475.127319	0.792047	city	7	1	0.451657	0.451657	0	1	0	0	CorrectCommission	1.728686	1.786318	0	0
475.919525	0.792399	city	5	1	0.497564	0.497564	0	1	0	0	CorrectCommission	1.324882	1.659383	0	0
476.711823	0.792161	city	4	1	0.515816	0.515816	0	1	0	0	CorrectCommission	1.164339	1.526106	0	0
477.503998	0.792233	city	9	1	0.451497	0.451497	0	1	0	0	CorrectCommission	1.730095	1.393567	0	0
478.296265	0.792266	city	7	1	0.497713	0.497713	0	1	0	0	CorrectCommission	1.323575	1.267943	0	0
479.088531	0.792278	city	3	1	0.497937	0.497937	0	1	0	0	CorrectCommission	1.321603	1.154326	0	0
479.889069	0.808764	mountain	1	1	0.520950	0.520950	0	0	1	0	CommissionError	1.119180	1.056622	0	0
480.689606	0.792336	city	3	1	0.649232	0.649232	0	1	0	0	CorrectCommission	0.009211	0.977520	0	0
481.481873	0.792187	city	2	1	0.652927	0.652927	0	1	0	0	CorrectCommission	0.041714	0.918519	0	0
482.274078	0.792266	city	5	1	0.664147	0.664147	0	1	0	0	CorrectCommission	0.140413	0.879939	0	0
483.066345	0.792265	city	2	1	0.655027	0.655027	0	1	0	0	CorrectCommission	0.060186	0.861000	0	0
483.858612	0.792263	city	10	1	0.794284	0.794284	0	1	0	0	CorrectCommission	1.285117	0.859938	0	0
484.650940	0.792372	city	5	1	0.751773	0.751773	0	1	0	0	CorrectCommission	0.911186	0.874134	0	0
485.443298	0.792374	city	4	1	0.759273	0.759273	0	1	0	0	CorrectCommission	0.977153	0.900346	0	0
486.235535	0.792047	city	9	1	0.758177	0.758177	0	1	0	0	CorrectCommission	0.967512	0.934817	0	0
487.027679	0.792268	city	6	1	0.758856	0.758856	0	1	0	0	CorrectCommission	0.973486	0.973486	0	0
