onset	duration	trial_type	image_type	Press	ReactionTime	ReactionTime_Interpolated	CorrectOmission	CorrectCommission	CommissionError	OmissionError	response_type	nonsmoothVarianceTimeCourse	VarianceTimeCourse	In_the_Zone	Reward_trial
8.433836	0.792148	city	2	1	0.695295	0.695295	0	1	0	0	CorrectCommission	1.019018	1.019018	0	1
9.226045	0.792269	city	5	1	0.596556	0.596556	0	1	0	0	CorrectCommission	0.195220	1.101512	0	1
10.018310	0.792260	mountain	5	0	0.000000	0.454597	1	0	0	0	CorrectOmission	1.940949	1.180680	0	1
10.810572	0.792264	city	10	1	0.457732	0.457732	0	1	0	0	CorrectCommission	1.902397	1.253802	0	1
11.602946	0.792484	city	5	1	0.794274	0.794274	0	1	0	0	CorrectCommission	2.236207	1.319405	0	1
12.395212	0.792048	city	10	1	0.457828	0.457828	0	1	0	0	CorrectCommission	1.901218	1.377498	0	1
13.187396	0.792319	city	1	1	0.452778	0.452778	0	1	0	0	CorrectCommission	1.963313	1.429551	0	1
13.979769	0.792426	city	4	1	0.497318	0.497318	0	1	0	0	CorrectCommission	1.415586	1.478085	0	1
14.772007	0.792051	city	9	1	0.497367	0.497367	0	1	0	0	CorrectCommission	1.414991	1.526101	0	1
15.564218	0.792369	city	4	1	0.504074	0.504074	0	1	0	0	CorrectCommission	1.332502	1.576272	0	1
16.356535	0.792266	city	5	1	0.596259	0.596259	0	1	0	0	CorrectCommission	0.198864	1.630234	0	1
17.148760	0.792183	city	8	1	0.596115	0.596115	0	1	0	0	CorrectCommission	0.200631	1.688045	0	1
17.940969	0.792235	city	7	1	0.504613	0.504613	0	1	0	0	CorrectCommission	1.325884	1.747946	0	1
18.733328	0.792484	city	9	1	0.448551	0.448551	0	1	0	0	CorrectCommission	2.015301	1.806524	0	1
19.525648	0.792157	city	1	1	0.361714	0.361714	0	1	0	0	CorrectCommission	3.083166	1.859218	0	1
20.317814	0.792172	city	3	1	0.447643	0.447643	0	1	0	0	CorrectCommission	2.026460	1.901040	0	1
21.110023	0.792249	city	7	1	0.358530	0.358530	0	1	0	0	CorrectCommission	3.122330	1.927491	0	1
21.902334	0.792373	city	5	1	0.398152	0.398152	0	1	0	0	CorrectCommission	2.635080	1.935253	0	1
22.694628	0.792212	city	2	1	0.398062	0.398062	0	1	0	0	CorrectCommission	2.636181	1.922897	0	1
23.486839	0.792212	mountain	5	1	0.408829	0.408829	0	0	1	0	CommissionError	2.503772	1.891054	0	1
24.279129	0.792369	city	2	1	0.398682	0.398682	0	1	0	0	CorrectCommission	2.628561	1.842414	0	1
25.071392	0.792158	city	8	1	0.455335	0.455335	0	1	0	0	CorrectCommission	1.931867	1.781367	0	1
25.863604	0.792263	city	9	1	0.656269	0.656269	0	1	0	0	CorrectCommission	0.539104	1.713525	0	1
26.655922	0.792375	city	6	1	0.546816	0.546816	0	1	0	0	CorrectCommission	0.806895	1.645070	0	1
27.448187	0.792155	city	8	1	0.497396	0.497396	0	1	0	0	CorrectCommission	1.414628	1.582011	0	1
28.240396	0.792265	city	2	1	0.510181	0.510181	0	1	0	0	CorrectCommission	1.257408	1.529636	0	1
29.032663	0.792266	city	10	1	0.497232	0.497232	0	1	0	0	CorrectCommission	1.416646	1.492089	0	1
29.825035	0.792481	mountain	6	1	0.501079	0.501079	0	0	1	0	CommissionError	1.369341	1.471992	0	1
30.617409	0.792265	city	6	1	0.497219	0.497219	0	1	0	0	CorrectCommission	1.416811	1.470265	0	1
31.409565	0.792046	city	8	1	0.497005	0.497005	0	1	0	0	CorrectCommission	1.419436	1.486022	0	1
32.201721	0.792268	city	10	1	0.564105	0.564105	0	1	0	0	CorrectCommission	0.594280	1.516599	0	1
32.994095	0.792479	mountain	1	1	0.546738	0.546738	0	0	1	0	CommissionError	0.807849	1.557714	0	1
33.786362	0.792052	city	7	1	0.501087	0.501087	0	1	0	0	CorrectCommission	1.369233	1.603791	0	1
34.578518	0.792263	city	8	1	0.497204	0.497204	0	1	0	0	CorrectCommission	1.416986	1.648424	0	1
35.370815	0.792333	city	2	1	0.497722	0.497722	0	1	0	0	CorrectCommission	1.410621	1.685043	0	1
36.163082	0.792196	city	5	1	0.457498	0.457498	0	1	0	0	CorrectCommission	1.905268	1.707681	0	1
36.955311	0.792262	city	10	1	0.398312	0.398312	0	1	0	0	CorrectCommission	2.633109	1.711695	0	1
37.747574	0.792266	mountain	9	1	1.049465	1.049465	0	0	1	0	CommissionError	5.374405	1.694404	0	1
38.539837	0.792265	city	8	0	0.000000	0.899621	0	0	0	1	OmissionError	3.531708	1.655323	0	1
39.332104	0.792267	city	10	1	0.548609	0.548609	0	1	0	0	CorrectCommission	0.784845	1.596295	0	1
40.124424	0.792371	city	4	1	0.596257	0.596257	0	1	0	0	CorrectCommission	0.198895	1.521011	0	1
40.916740	0.792264	city	2	1	0.555303	0.555303	0	1	0	0	CorrectCommission	0.702515	1.434308	0	1
41.708950	0.792155	mountain	1	0	0.000000	0.508971	1	0	0	0	CorrectOmission	1.272288	1.341413	0	1
42.501160	0.792266	city	10	1	0.506261	0.506261	0	1	0	0	CorrectCommission	1.305609	1.247196	0	1
43.293480	0.792373	city	1	1	0.596177	0.596177	0	1	0	0	CorrectCommission	0.199873	1.155626	0	1
44.085758	0.792185	city	6	1	0.513918	0.513918	0	1	0	0	CorrectCommission	1.211455	1.069455	0	1
44.877972	0.792239	city	4	1	0.552451	0.552451	0	1	0	0	CorrectCommission	0.737587	0.990077	0	1
45.670223	0.792266	city	6	1	0.512431	0.512431	0	1	0	0	CorrectCommission	1.229735	0.917850	0	1
46.462597	0.792478	city	10	1	0.546742	0.546742	0	1	0	0	CorrectCommission	0.807793	0.852384	0	1
47.254967	0.792264	city	4	1	0.546496	0.546496	0	1	0	0	CorrectCommission	0.810819	0.793023	0	1
48.047176	0.792156	city	5	1	0.645838	0.645838	0	1	0	0	CorrectCommission	0.410824	0.739198	0	1
48.839340	0.792171	mountain	10	1	0.744996	0.744996	0	0	1	0	CommissionError	1.630224	0.690756	0	1
49.631603	0.792358	city	1	1	0.546713	0.546713	0	1	0	0	CorrectCommission	0.808152	0.648056	1	1
50.423862	0.792157	city	7	1	0.596265	0.596265	0	1	0	0	CorrectCommission	0.198799	0.611980	1	1
51.216076	0.792267	city	2	1	0.596232	0.596232	0	1	0	0	CorrectCommission	0.199193	0.583723	1	1
52.008339	0.792264	city	9	1	0.607719	0.607719	0	1	0	0	CorrectCommission	0.057936	0.564495	1	1
52.800606	0.792264	city	1	1	0.626264	0.626264	0	1	0	0	CorrectCommission	0.170116	0.555236	1	1
53.592869	0.792262	city	2	1	0.596233	0.596233	0	1	0	0	CorrectCommission	0.199191	0.556335	1	1
54.385239	0.792484	city	8	1	0.547042	0.547042	0	1	0	0	CorrectCommission	0.804113	0.567437	1	1
55.177612	0.792264	city	4	1	0.563682	0.563682	0	1	0	0	CorrectCommission	0.599475	0.587316	1	1
55.969826	0.792157	city	2	1	0.596076	0.596076	0	1	0	0	CorrectCommission	0.201113	0.613996	1	1
56.762009	0.792208	city	8	1	0.564435	0.564435	0	1	0	0	CorrectCommission	0.590216	0.644918	1	1
57.554218	0.792211	city	6	1	0.610831	0.610831	0	1	0	0	CorrectCommission	0.019670	0.677144	0	1
58.346466	0.792288	city	9	1	0.547003	0.547003	0	1	0	0	CorrectCommission	0.804585	0.707684	0	1
59.138733	0.792245	city	6	1	0.448124	0.448124	0	1	0	0	CorrectCommission	2.020550	0.733785	0	1
59.931095	0.792479	city	3	1	0.546726	0.546726	0	1	0	0	CorrectCommission	0.807996	0.753192	0	1
60.723358	0.792047	city	1	1	0.497029	0.497029	0	1	0	0	CorrectCommission	1.419138	0.764473	0	1
61.515583	0.792400	city	6	1	0.546743	0.546743	0	1	0	0	CorrectCommission	0.807792	0.766927	0	1
62.307846	0.792132	city	7	1	0.546956	0.546956	0	1	0	0	CorrectCommission	0.805168	0.760707	0	1
63.100098	0.792371	city	5	1	0.596215	0.596215	0	1	0	0	CorrectCommission	0.199412	0.746644	0	1
63.892365	0.792156	city	6	1	0.700808	0.700808	0	1	0	0	CorrectCommission	1.086824	0.726112	0	1
64.684570	0.792265	city	7	1	0.695287	0.695287	0	1	0	0	CorrectCommission	1.018929	0.700795	0	1
65.476837	0.792267	city	8	1	0.646012	0.646012	0	1	0	0	CorrectCommission	0.412962	0.672557	0	1
66.269104	0.792263	city	6	1	0.546703	0.546703	0	1	0	0	CorrectCommission	0.808280	0.643231	1	1
67.061363	0.792263	city	4	1	0.596294	0.596294	0	1	0	0	CorrectCommission	0.198438	0.614525	1	1
67.853661	0.792318	city	1	1	0.598867	0.598867	0	1	0	0	CorrectCommission	0.166792	0.587983	1	0
68.646034	0.792430	city	10	1	0.695205	0.695205	0	1	0	0	CorrectCommission	1.017912	0.564910	1	0
69.438271	0.792048	city	8	1	0.550567	0.550567	0	1	0	0	CorrectCommission	0.760763	0.546342	1	0
70.230431	0.792267	city	4	1	0.553108	0.553108	0	1	0	0	CorrectCommission	0.729518	0.533053	1	0
71.022697	0.792266	city	5	1	0.605970	0.605970	0	1	0	0	CorrectCommission	0.079444	0.525534	1	0
71.815010	0.792369	city	4	1	0.606299	0.606299	0	1	0	0	CorrectCommission	0.075398	0.523963	1	0
72.607330	0.792265	city	3	1	0.596130	0.596130	0	1	0	0	CorrectCommission	0.200457	0.528186	1	0
73.399544	0.792160	city	4	1	0.596578	0.596578	0	1	0	0	CorrectCommission	0.194940	0.537753	1	0
74.191750	0.792264	city	6	1	0.547138	0.547138	0	1	0	0	CorrectCommission	0.802928	0.551965	1	0
74.984016	0.792266	city	4	1	0.596383	0.596383	0	1	0	0	CorrectCommission	0.197347	0.569984	1	0
75.776306	0.792303	city	1	1	0.452909	0.452909	0	1	0	0	CorrectCommission	1.961704	0.590985	1	0
76.568565	0.792225	city	2	1	0.597171	0.597171	0	1	0	0	CorrectCommission	0.187652	0.614154	1	0
77.360840	0.792320	mountain	8	0	0.000000	0.653717	1	0	0	0	CorrectOmission	0.507716	0.638931	1	0
78.153107	0.792215	city	9	1	0.645704	0.645704	0	1	0	0	CorrectCommission	0.409186	0.664919	0	0
78.945450	0.792474	city	10	1	0.596292	0.596292	0	1	0	0	CorrectCommission	0.198455	0.691924	0	0
79.737762	0.792154	mountain	9	0	0.000000	0.534085	1	0	0	0	CorrectOmission	0.963453	0.719866	0	0
80.529922	0.792158	city	1	1	0.502976	0.502976	0	1	0	0	CorrectCommission	1.346006	0.748679	0	0
81.322136	0.792274	city	9	1	0.546863	0.546863	0	1	0	0	CorrectCommission	0.806316	0.778197	0	0
82.114441	0.792324	mountain	6	0	0.000000	0.558751	1	0	0	0	CorrectOmission	0.660116	0.808041	0	0
82.906807	0.792412	city	2	1	0.553856	0.553856	0	1	0	0	CorrectCommission	0.720320	0.837545	0	0
83.699036	0.792049	city	10	1	0.547389	0.547389	0	1	0	0	CorrectCommission	0.799840	0.865647	0	0
84.491219	0.792310	city	9	1	0.645781	0.645781	0	1	0	0	CorrectCommission	0.410123	0.890972	0	0
85.283531	0.792325	city	7	1	0.596196	0.596196	0	1	0	0	CorrectCommission	0.199641	0.911958	0	0
86.075775	0.792156	city	4	1	0.497185	0.497185	0	1	0	0	CorrectCommission	1.417226	0.927053	0	0
86.868095	0.792483	city	7	1	0.464849	0.464849	0	1	0	0	CorrectCommission	1.814874	0.934974	0	0
87.660362	0.792048	city	2	1	0.464414	0.464414	0	1	0	0	CorrectCommission	1.820225	0.934988	0	0
88.452515	0.792264	city	5	1	0.504733	0.504733	0	1	0	0	CorrectCommission	1.324398	0.927142	0	0
89.244789	0.792277	city	2	1	0.547832	0.547832	0	1	0	0	CorrectCommission	0.794395	0.912277	0	0
90.037102	0.792359	city	5	1	0.646191	0.646191	0	1	0	0	CorrectCommission	0.415173	0.891949	0	0
90.829361	0.792156	city	2	1	0.744805	0.744805	0	1	0	0	CorrectCommission	1.627873	0.868236	0	0
91.621574	0.792271	city	6	1	0.659579	0.659579	0	1	0	0	CorrectCommission	0.579813	0.843375	0	0
92.413841	0.792258	city	4	1	0.610595	0.610595	0	1	0	0	CorrectCommission	0.022565	0.819512	0	0
93.206100	0.792266	city	2	1	0.559112	0.559112	0	1	0	0	CorrectCommission	0.655678	0.798313	0	0
93.998474	0.792482	city	8	1	0.550485	0.550485	0	1	0	0	CorrectCommission	0.761766	0.780796	0	0
94.790749	0.792056	city	10	1	0.645543	0.645543	0	1	0	0	CorrectCommission	0.407196	0.767270	0	0
95.582916	0.792283	mountain	3	0	0.000000	0.590025	1	0	0	0	CorrectOmission	0.275529	0.757394	0	0
96.375175	0.792235	city	5	1	0.546681	0.546681	0	1	0	0	CorrectCommission	0.808546	0.750356	0	0
97.167427	0.792270	mountain	8	0	0.000000	0.678260	1	0	0	0	CorrectOmission	0.809539	0.745103	0	0
97.959694	0.792267	city	10	1	0.794274	0.794274	0	1	0	0	CorrectCommission	2.236215	0.740631	0	0
98.751961	0.792265	city	3	1	0.704236	0.704236	0	1	0	0	CorrectCommission	1.128974	0.736135	0	0
99.544220	0.792261	city	2	1	0.646246	0.646246	0	1	0	0	CorrectCommission	0.415846	0.731215	0	0
100.336487	0.792269	city	7	1	0.597220	0.597220	0	1	0	0	CorrectCommission	0.187053	0.725782	0	0
101.128754	0.792259	city	5	1	0.603577	0.603577	0	1	0	0	CorrectCommission	0.108869	0.720029	0	0
101.921013	0.792269	city	8	1	0.646701	0.646701	0	1	0	0	CorrectCommission	0.421441	0.714350	0	0
102.713280	0.792264	city	10	1	0.610934	0.610934	0	1	0	0	CorrectCommission	0.018403	0.709239	0	0
103.505547	0.792265	city	7	1	0.794440	0.794440	0	1	0	0	CorrectCommission	2.238253	0.705271	0	0
104.297943	0.792533	city	2	1	0.710044	0.710044	0	1	0	0	CorrectCommission	1.200394	0.703026	0	0
105.090263	0.792102	city	8	1	0.603310	0.603310	0	1	0	0	CorrectCommission	0.112153	0.703167	0	0
105.882500	0.792374	mountain	2	0	0.000000	0.548809	1	0	0	0	CorrectOmission	0.782378	0.706351	0	0
106.674713	0.792045	city	3	1	0.546482	0.546482	0	1	0	0	CorrectCommission	0.810997	0.713098	0	0
107.466866	0.792269	city	1	1	0.596270	0.596270	0	1	0	0	CorrectCommission	0.198729	0.723702	0	0
108.259239	0.792479	city	6	1	0.645890	0.645890	0	1	0	0	CorrectCommission	0.411463	0.738056	0	0
109.051506	0.792053	city	3	1	0.645528	0.645528	0	1	0	0	CorrectCommission	0.407013	0.755512	0	0
109.843666	0.792260	city	10	1	0.695287	0.695287	0	1	0	0	CorrectCommission	1.018924	0.774839	0	0
110.635956	0.792325	city	7	1	0.698513	0.698513	0	1	0	0	CorrectCommission	1.058594	0.794214	0	0
111.428223	0.792202	city	5	1	0.659230	0.659230	0	1	0	0	CorrectCommission	0.575519	0.811381	0	0
112.220451	0.792265	city	8	1	0.646043	0.646043	0	1	0	0	CorrectCommission	0.413344	0.823906	0	0
113.012726	0.792284	city	6	1	0.695269	0.695269	0	1	0	0	CorrectCommission	1.018702	0.829493	0	0
113.804993	0.792245	city	10	1	0.695277	0.695277	0	1	0	0	CorrectCommission	1.018803	0.826337	0	0
114.597260	0.792287	city	7	1	0.794351	0.794351	0	1	0	0	CorrectCommission	2.237153	0.813455	0	0
115.389542	0.792275	city	9	1	0.695294	0.695294	0	1	0	0	CorrectCommission	1.019015	0.790880	0	0
116.181847	0.792342	mountain	7	0	0.000000	0.703380	1	0	0	0	CorrectOmission	1.118454	0.759870	0	0
116.974098	0.792158	city	5	1	0.711944	0.711944	0	1	0	0	CorrectCommission	1.223768	0.722723	0	0
117.766312	0.792265	city	7	1	0.614322	0.614322	0	1	0	0	CorrectCommission	0.023257	0.682569	0	0
118.558578	0.792277	city	2	1	0.601801	0.601801	0	1	0	0	CorrectCommission	0.130712	0.643013	1	0
119.350838	0.792234	city	4	1	0.559590	0.559590	0	1	0	0	CorrectCommission	0.649798	0.607609	1	0
120.143120	0.792323	city	3	1	0.608346	0.608346	0	1	0	0	CorrectCommission	0.050229	0.579489	1	0
120.935501	0.792440	city	6	1	0.596364	0.596364	0	1	0	0	CorrectCommission	0.197569	0.560945	1	0
121.727798	0.792156	city	10	1	0.596009	0.596009	0	1	0	0	CorrectCommission	0.201938	0.553200	1	0
122.519951	0.792155	city	3	1	0.596141	0.596141	0	1	0	0	CorrectCommission	0.200314	0.556347	1	0
123.312164	0.792264	city	10	1	0.550279	0.550279	0	1	0	0	CorrectCommission	0.764298	0.569354	1	0
124.104477	0.792373	city	8	1	0.646185	0.646185	0	1	0	0	CorrectCommission	0.415100	0.590252	1	0
124.896759	0.792188	city	2	1	0.550703	0.550703	0	1	0	0	CorrectCommission	0.759094	0.616431	1	0
125.689079	0.792450	city	1	1	0.546758	0.546758	0	1	0	0	CorrectCommission	0.807598	0.644918	1	0
126.481438	0.792264	city	3	1	0.645546	0.645546	0	1	0	0	CorrectCommission	0.407234	0.672736	0	0
127.273590	0.792046	city	8	1	0.596060	0.596060	0	1	0	0	CorrectCommission	0.201310	0.697208	0	1
128.065781	0.792334	city	9	1	0.695969	0.695969	0	1	0	0	CorrectCommission	1.027318	0.716221	0	1
128.858063	0.792239	mountain	6	1	0.794284	0.794284	0	0	1	0	CommissionError	2.236340	0.728385	0	1
129.650360	0.792333	city	6	1	0.701370	0.701370	0	1	0	0	CorrectCommission	1.093726	0.733112	0	1
130.442657	0.792264	city	9	1	0.645650	0.645650	0	1	0	0	CorrectCommission	0.408511	0.730615	0	1
131.234863	0.792156	mountain	9	1	0.697720	0.697720	0	0	1	0	CommissionError	1.048840	0.721736	0	1
132.027069	0.792267	city	3	1	0.596405	0.596405	0	1	0	0	CorrectCommission	0.197072	0.707690	0	1
132.819336	0.792264	city	4	1	0.646383	0.646383	0	1	0	0	CorrectCommission	0.417529	0.689926	0	1
133.611603	0.792267	city	3	1	0.547166	0.547166	0	1	0	0	CorrectCommission	0.802584	0.669849	0	1
134.403976	0.792479	mountain	2	0	0.000000	0.607634	1	0	0	0	CorrectOmission	0.058982	0.648666	1	1
135.196243	0.792048	city	2	1	0.695046	0.695046	0	1	0	0	CorrectCommission	1.015959	0.627383	1	1
135.988419	0.792307	mountain	10	0	0.000000	0.676660	1	0	0	0	CorrectOmission	0.789864	0.606723	1	1
136.780731	0.792331	city	10	1	0.645827	0.645827	0	1	0	0	CorrectCommission	0.410691	0.587238	1	1
137.572983	0.792165	city	1	1	0.695895	0.695895	0	1	0	0	CorrectCommission	1.026399	0.569404	1	1
138.365250	0.792363	city	5	1	0.646031	0.646031	0	1	0	0	CorrectCommission	0.413203	0.553639	1	1
139.157562	0.792266	mountain	1	1	0.548036	0.548036	0	0	1	0	CommissionError	0.791892	0.540389	1	1
139.949783	0.792168	city	7	1	0.596609	0.596609	0	1	0	0	CorrectCommission	0.194566	0.530061	1	1
140.741989	0.792255	city	9	1	0.596211	0.596211	0	1	0	0	CorrectCommission	0.199454	0.523007	1	1
141.534271	0.792316	city	4	1	0.596232	0.596232	0	1	0	0	CorrectCommission	0.199193	0.519457	1	1
142.326538	0.792212	city	5	1	0.596197	0.596197	0	1	0	0	CorrectCommission	0.199633	0.519469	1	1
143.118881	0.792482	city	2	1	0.550451	0.550451	0	1	0	0	CorrectCommission	0.762188	0.522904	1	1
143.911255	0.792264	city	4	1	0.546507	0.546507	0	1	0	0	CorrectCommission	0.810684	0.529489	1	1
144.703415	0.792047	city	6	1	0.546676	0.546676	0	1	0	0	CorrectCommission	0.808609	0.538866	1	1
145.495575	0.792263	city	5	1	0.653216	0.653216	0	1	0	0	CorrectCommission	0.501564	0.550645	1	1
146.287842	0.792270	city	7	1	0.646589	0.646589	0	1	0	0	CorrectCommission	0.420066	0.564483	1	1
147.080154	0.792369	city	8	1	0.596246	0.596246	0	1	0	0	CorrectCommission	0.199024	0.580148	1	1
147.872421	0.792157	city	9	1	0.596577	0.596577	0	1	0	0	CorrectCommission	0.194962	0.597570	1	1
148.664627	0.792263	city	6	1	0.546997	0.546997	0	1	0	0	CorrectCommission	0.804666	0.616809	1	1
149.456909	0.792298	city	4	1	0.547000	0.547000	0	1	0	0	CorrectCommission	0.804624	0.638026	1	1
150.249283	0.792451	city	5	1	0.497337	0.497337	0	1	0	0	CorrectCommission	1.415352	0.661448	1	1
151.041641	0.792265	mountain	4	0	0.000000	0.534645	1	0	0	0	CorrectOmission	0.956565	0.687207	0	1
151.833801	0.792045	city	6	1	0.602949	0.602949	0	1	0	0	CorrectCommission	0.116598	0.715240	0	1
152.626007	0.792373	city	4	1	0.646276	0.646276	0	1	0	0	CorrectCommission	0.416213	0.745112	0	1
153.418274	0.792163	city	9	1	0.603845	0.603845	0	1	0	0	CorrectCommission	0.105573	0.775910	0	1
154.210510	0.792292	city	1	1	0.564996	0.564996	0	1	0	0	CorrectCommission	0.583320	0.806270	0	1
155.002823	0.792341	city	7	1	0.564820	0.564820	0	1	0	0	CorrectCommission	0.585490	0.834411	0	1
155.795090	0.792191	city	4	1	0.709048	0.709048	0	1	0	0	CorrectCommission	1.188146	0.858394	0	1
156.587296	0.792232	mountain	8	0	0.000000	0.767413	1	0	0	0	CorrectOmission	1.905885	0.876343	0	1
157.379562	0.792293	city	3	1	0.744768	0.744768	0	1	0	0	CorrectCommission	1.627415	0.886737	0	1
158.171875	0.792343	city	5	1	0.645968	0.645968	0	1	0	0	CorrectCommission	0.412428	0.888639	0	1
158.964127	0.792158	city	6	1	0.744661	0.744661	0	1	0	0	CorrectCommission	1.626094	0.881839	0	1
159.756348	0.792265	city	8	1	0.712442	0.712442	0	1	0	0	CorrectCommission	1.229883	0.866776	0	1
160.548599	0.792261	city	6	1	0.645750	0.645750	0	1	0	0	CorrectCommission	0.409743	0.844460	0	1
161.340866	0.792268	city	5	1	0.547039	0.547039	0	1	0	0	CorrectCommission	0.804142	0.816290	0	1
162.133133	0.792262	city	6	1	0.596293	0.596293	0	1	0	0	CorrectCommission	0.198443	0.783828	0	1
162.925507	0.792483	city	2	1	0.547048	0.547048	0	1	0	0	CorrectCommission	0.804040	0.748658	0	1
163.717773	0.792053	city	10	1	0.546924	0.546924	0	1	0	0	CorrectCommission	0.805561	0.712271	0	1
164.509979	0.792368	city	4	1	0.602368	0.602368	0	1	0	0	CorrectCommission	0.123739	0.676064	0	1
165.302246	0.792165	city	9	1	0.695289	0.695289	0	1	0	0	CorrectCommission	1.018954	0.641362	1	1
166.094574	0.792474	city	7	1	0.744887	0.744887	0	1	0	0	CorrectCommission	1.628874	0.609420	1	1
166.886841	0.792055	city	5	1	0.662665	0.662665	0	1	0	0	CorrectCommission	0.617761	0.581474	1	1
167.678986	0.792254	city	3	1	0.596312	0.596312	0	1	0	0	CorrectCommission	0.198214	0.558695	1	1
168.471359	0.792484	city	9	1	0.600338	0.600338	0	1	0	0	CorrectCommission	0.148705	0.542051	1	1
169.263626	0.792050	city	1	1	0.596043	0.596043	0	1	0	0	CorrectCommission	0.201523	0.532164	1	1
170.055786	0.792264	city	10	1	0.613646	0.613646	0	1	0	0	CorrectCommission	0.014950	0.529127	1	1
170.848099	0.792371	city	5	1	0.607546	0.607546	0	1	0	0	CorrectCommission	0.060071	0.532449	1	1
171.640472	0.792374	city	6	1	0.661242	0.661242	0	1	0	0	CorrectCommission	0.600260	0.541020	1	1
172.432678	0.792048	city	5	1	0.645854	0.645854	0	1	0	0	CorrectCommission	0.411028	0.553239	1	1
173.224838	0.792264	city	4	1	0.603724	0.603724	0	1	0	0	CorrectCommission	0.107062	0.567239	1	1
174.017105	0.792265	mountain	1	0	0.000000	0.485676	1	0	0	0	CorrectOmission	1.558760	0.581152	1	1
174.809372	0.792268	mountain	3	1	0.447700	0.447700	0	0	1	0	CommissionError	2.025759	0.593291	1	1
175.601746	0.792478	city	6	1	0.645791	0.645791	0	1	0	0	CorrectCommission	0.410245	0.602438	1	1
176.394058	0.792157	city	4	1	0.610827	0.610827	0	1	0	0	CorrectCommission	0.019713	0.607904	1	1
177.186218	0.792161	city	8	1	0.645682	0.645682	0	1	0	0	CorrectCommission	0.408904	0.609514	1	1
177.978424	0.792259	city	7	1	0.605030	0.605030	0	1	0	0	CorrectCommission	0.091006	0.607530	1	1
178.770691	0.792268	city	5	1	0.695228	0.695228	0	1	0	0	CorrectCommission	1.018197	0.602557	1	1
179.562958	0.792261	city	6	1	0.695307	0.695307	0	1	0	0	CorrectCommission	1.019167	0.595390	1	1
180.355225	0.792268	city	5	1	0.652366	0.652366	0	1	0	0	CorrectCommission	0.491109	0.586943	1	1
181.147629	0.792534	city	6	1	0.652095	0.652095	0	1	0	0	CorrectCommission	0.487775	0.578188	1	1
181.939880	0.791996	city	3	1	0.561364	0.561364	0	1	0	0	CorrectCommission	0.627982	0.570089	1	1
182.732071	0.792370	city	6	1	0.645860	0.645860	0	1	0	0	CorrectCommission	0.411094	0.563549	1	1
183.524338	0.792168	city	10	1	0.562192	0.562192	0	1	0	0	CorrectCommission	0.617798	0.559378	1	1
184.316605	0.792362	city	2	1	0.548327	0.548327	0	1	0	0	CorrectCommission	0.788302	0.558259	1	1
185.108856	0.792154	city	5	1	0.596586	0.596586	0	1	0	0	CorrectCommission	0.194851	0.560677	1	1
185.901077	0.792266	city	2	1	0.655488	0.655488	0	1	0	0	CorrectCommission	0.529502	0.566867	1	1
186.693359	0.792318	city	3	1	0.602870	0.602870	0	1	0	0	CorrectCommission	0.117572	0.576740	1	0
187.485672	0.792298	city	9	1	0.646020	0.646020	0	1	0	0	CorrectCommission	0.413061	0.589897	1	0
188.278015	0.792396	city	10	1	0.645776	0.645776	0	1	0	0	CorrectCommission	0.410064	0.605621	1	0
189.070267	0.792087	city	5	1	0.744581	0.744581	0	1	0	0	CorrectCommission	1.625110	0.622924	1	0
189.862473	0.792332	city	2	1	0.645704	0.645704	0	1	0	0	CorrectCommission	0.409184	0.640611	1	0
190.654770	0.792267	city	6	1	0.646034	0.646034	0	1	0	0	CorrectCommission	0.413234	0.657484	1	0
191.446991	0.792190	city	8	1	0.596218	0.596218	0	1	0	0	CorrectCommission	0.199367	0.672318	0	0
192.239212	0.792229	city	7	1	0.710623	0.710623	0	1	0	0	CorrectCommission	1.207520	0.684050	0	0
193.031479	0.792301	city	2	1	0.695332	0.695332	0	1	0	0	CorrectCommission	1.019476	0.691869	0	0
193.823776	0.792296	city	7	1	0.695236	0.695236	0	1	0	0	CorrectCommission	1.018298	0.695304	0	0
194.616119	0.792414	city	4	1	0.660169	0.660169	0	1	0	0	CorrectCommission	0.587062	0.694253	0	0
195.408356	0.792049	city	3	1	0.645543	0.645543	0	1	0	0	CorrectCommission	0.407200	0.688993	0	0
196.200623	0.792481	city	4	1	0.695284	0.695284	0	1	0	0	CorrectCommission	1.018882	0.680119	0	0
196.992889	0.792047	city	3	1	0.695031	0.695031	0	1	0	0	CorrectCommission	1.015771	0.668495	0	0
197.785049	0.792266	mountain	1	0	0.000000	0.652036	1	0	0	0	CorrectOmission	0.487050	0.655198	1	0
198.577423	0.792482	city	4	1	0.596426	0.596426	0	1	0	0	CorrectCommission	0.196817	0.641398	1	0
199.369797	0.792265	city	5	1	0.558325	0.558325	0	1	0	0	CorrectCommission	0.665364	0.628286	1	0
200.161942	0.792050	city	10	1	0.546671	0.546671	0	1	0	0	CorrectCommission	0.808674	0.617015	1	0
200.954102	0.792262	city	6	1	0.661542	0.661542	0	1	0	0	CorrectCommission	0.603949	0.608622	1	0
201.746384	0.792296	city	10	1	0.645797	0.645797	0	1	0	0	CorrectCommission	0.410328	0.604001	1	0
202.538666	0.792266	city	5	1	0.645755	0.645755	0	1	0	0	CorrectCommission	0.409809	0.603867	1	0
203.330917	0.792233	city	8	1	0.658088	0.658088	0	1	0	0	CorrectCommission	0.561478	0.608666	1	0
204.123230	0.792400	city	9	1	0.646410	0.646410	0	1	0	0	CorrectCommission	0.417857	0.618573	1	0
204.915497	0.792128	city	3	1	0.646135	0.646135	0	1	0	0	CorrectCommission	0.414476	0.633431	1	0
205.707794	0.792483	city	2	1	0.744778	0.744778	0	1	0	0	CorrectCommission	1.627540	0.652704	1	0
206.500122	0.792157	city	1	1	0.608104	0.608104	0	1	0	0	CorrectCommission	0.053200	0.675458	0	0
207.292389	0.792373	city	5	1	0.646145	0.646145	0	1	0	0	CorrectCommission	0.414603	0.700447	0	0
208.084595	0.792062	city	10	1	0.650341	0.650341	0	1	0	0	CorrectCommission	0.466209	0.726157	0	0
208.876755	0.792252	city	3	1	0.602708	0.602708	0	1	0	0	CorrectCommission	0.119557	0.751001	0	0
209.669067	0.792373	city	8	1	0.711685	0.711685	0	1	0	0	CorrectCommission	1.220583	0.773542	0	0
210.461334	0.792156	mountain	8	0	0.000000	0.712331	1	0	0	0	CorrectOmission	1.228524	0.792724	0	0
211.253555	0.792300	city	10	1	0.695324	0.695324	0	1	0	0	CorrectCommission	1.019382	0.808142	0	0
212.045883	0.792335	mountain	8	0	0.000000	0.751343	1	0	0	0	CorrectOmission	1.708272	0.820146	0	0
212.838135	0.792159	city	6	1	0.760233	0.760233	0	1	0	0	CorrectCommission	1.817594	0.829813	0	0
213.630341	0.792261	city	9	1	0.601839	0.601839	0	1	0	0	CorrectCommission	0.130252	0.838786	0	0
214.422607	0.792283	city	10	1	0.599163	0.599163	0	1	0	0	CorrectCommission	0.163150	0.848957	0	0
215.214874	0.792247	city	4	1	0.695269	0.695269	0	1	0	0	CorrectCommission	1.018709	0.862031	0	0
216.007233	0.792483	city	8	1	0.596255	0.596255	0	1	0	0	CorrectCommission	0.198917	0.879157	0	0
216.799622	0.792265	city	5	1	0.596024	0.596024	0	1	0	0	CorrectCommission	0.201760	0.900681	0	0
217.591766	0.792046	city	2	1	0.546959	0.546959	0	1	0	0	CorrectCommission	0.805127	0.925985	0	0
218.383926	0.792270	city	9	1	0.599180	0.599180	0	1	0	0	CorrectCommission	0.162946	0.953617	0	0
219.176193	0.792263	city	2	1	0.510385	0.510385	0	1	0	0	CorrectCommission	1.254896	0.981615	0	0
219.968536	0.792425	city	8	1	0.452898	0.452898	0	1	0	0	CorrectCommission	1.961838	1.007842	0	0
220.760818	0.792142	city	5	1	0.497152	0.497152	0	1	0	0	CorrectCommission	1.417634	1.030421	0	0
221.553009	0.792226	city	2	1	0.365044	0.365044	0	1	0	0	CorrectCommission	3.042222	1.048068	0	0
222.345261	0.792266	city	10	1	0.645808	0.645808	0	1	0	0	CorrectCommission	0.410454	1.060132	0	0
223.137619	0.792478	city	2	1	0.698985	0.698985	0	1	0	0	CorrectCommission	1.064403	1.066626	0	0
223.929993	0.792264	city	3	1	0.564477	0.564477	0	1	0	0	CorrectCommission	0.589707	1.067886	0	0
224.722260	0.792264	city	1	1	0.645863	0.645863	0	1	0	0	CorrectCommission	0.411141	1.064313	0	0
225.514420	0.792048	city	10	1	0.645838	0.645838	0	1	0	0	CorrectCommission	0.410831	1.056063	0	0
226.306625	0.792372	city	3	1	0.695957	0.695957	0	1	0	0	CorrectCommission	1.027164	1.042901	0	0
227.098999	0.792376	city	1	1	0.695416	0.695416	0	1	0	0	CorrectCommission	1.020512	1.024171	0	0
227.891220	0.792050	city	10	1	0.744768	0.744768	0	1	0	0	CorrectCommission	1.627414	0.999014	0	0
228.683426	0.792369	city	6	1	0.794362	0.794362	0	1	0	0	CorrectCommission	2.237299	0.966634	0	0
229.475693	0.792156	mountain	10	0	0.000000	0.686338	1	0	0	0	CorrectOmission	0.908879	0.926618	0	0
230.267899	0.792267	city	4	1	0.547581	0.547581	0	1	0	0	CorrectCommission	0.797478	0.879209	0	0
231.060211	0.792371	city	2	1	0.504977	0.504977	0	1	0	0	CorrectCommission	1.321403	0.825391	0	0
231.852478	0.792159	city	5	1	0.498051	0.498051	0	1	0	0	CorrectCommission	1.406575	0.766845	0	0
232.644745	0.792371	city	3	1	0.596215	0.596215	0	1	0	0	CorrectCommission	0.199408	0.705747	0	0
233.437012	0.792164	mountain	1	0	0.000000	0.610286	1	0	0	0	CorrectOmission	0.026369	0.644540	1	0
234.229340	0.792475	city	2	1	0.596209	0.596209	0	1	0	0	CorrectCommission	0.199478	0.585566	1	0
235.021606	0.792070	city	4	1	0.609929	0.609929	0	1	0	0	CorrectCommission	0.030756	0.530790	1	0
235.813873	0.792459	city	7	1	0.596391	0.596391	0	1	0	0	CorrectCommission	0.197245	0.481683	1	0
236.606232	0.792264	city	9	1	0.547390	0.547390	0	1	0	0	CorrectCommission	0.799833	0.439140	1	0
237.398499	0.792264	city	10	1	0.558976	0.558976	0	1	0	0	CorrectCommission	0.657354	0.403537	1	0
238.190659	0.792049	city	5	1	0.645542	0.645542	0	1	0	0	CorrectCommission	0.407191	0.374914	1	0
238.982819	0.792288	city	9	1	0.646310	0.646310	0	1	0	0	CorrectCommission	0.416629	0.353031	1	0
239.775085	0.792241	mountain	9	0	0.000000	0.624552	1	0	0	0	CorrectOmission	0.149065	0.337594	1	0
240.567337	0.792265	city	9	1	0.601966	0.601966	0	1	0	0	CorrectCommission	0.128686	0.328259	1	0
241.359711	0.792482	city	8	1	0.600249	0.600249	0	1	0	0	CorrectCommission	0.149805	0.324676	1	0
242.152084	0.792265	mountain	10	0	0.000000	0.605174	1	0	0	0	CorrectOmission	0.089241	0.326495	1	0
242.944244	0.792046	city	9	1	0.607217	0.607217	0	1	0	0	CorrectCommission	0.064114	0.333332	1	0
243.736404	0.792265	city	6	1	0.596854	0.596854	0	1	0	0	CorrectCommission	0.191546	0.344741	1	0
244.528656	0.792264	city	5	1	0.546764	0.546764	0	1	0	0	CorrectCommission	0.807529	0.360231	1	0
245.320923	0.792266	city	3	1	0.564088	0.564088	0	1	0	0	CorrectCommission	0.594486	0.379236	1	0
246.113251	0.792371	mountain	4	0	0.000000	0.617009	1	0	0	0	CorrectOmission	0.056300	0.401151	1	1
246.905563	0.792265	city	1	1	0.647187	0.647187	0	1	0	0	CorrectCommission	0.427420	0.425342	1	1
247.697784	0.792192	city	2	1	0.596286	0.596286	0	1	0	0	CorrectCommission	0.198534	0.451085	1	1
248.490112	0.792447	city	10	1	0.558071	0.558071	0	1	0	0	CorrectCommission	0.668487	0.477564	1	1
249.282410	0.792157	city	3	1	0.695047	0.695047	0	1	0	0	CorrectCommission	1.015970	0.503797	1	1
250.074585	0.792191	city	1	1	0.596140	0.596140	0	1	0	0	CorrectCommission	0.200335	0.528649	1	1
250.866852	0.792338	mountain	7	0	0.000000	0.619685	1	0	0	0	CorrectOmission	0.089210	0.550828	1	1
251.659103	0.792159	city	3	1	0.645650	0.645650	0	1	0	0	CorrectCommission	0.408515	0.568901	1	1
252.451309	0.792265	city	2	1	0.554003	0.554003	0	1	0	0	CorrectCommission	0.718512	0.581422	1	1
253.243591	0.792287	city	5	1	0.504636	0.504636	0	1	0	0	CorrectCommission	1.325601	0.587074	1	1
254.035843	0.792240	mountain	1	1	0.646065	0.646065	0	0	1	0	CommissionError	0.413622	0.584852	1	1
254.828110	0.792265	city	9	1	0.504832	0.504832	0	1	0	0	CorrectCommission	1.323181	0.574305	1	1
255.620392	0.792316	city	1	1	0.546742	0.546742	0	1	0	0	CorrectCommission	0.807799	0.555606	1	1
256.412720	0.792321	city	5	1	0.645770	0.645770	0	1	0	0	CorrectCommission	0.409986	0.529699	1	1
257.204956	0.792158	city	10	1	0.547733	0.547733	0	1	0	0	CorrectCommission	0.795616	0.498266	1	1
257.997162	0.792268	city	6	1	0.645791	0.645791	0	1	0	0	CorrectCommission	0.410247	0.463607	1	1
258.789429	0.792264	city	10	1	0.596481	0.596481	0	1	0	0	CorrectCommission	0.196135	0.428476	1	1
259.581696	0.792264	city	6	1	0.645734	0.645734	0	1	0	0	CorrectCommission	0.409547	0.395809	1	1
260.373962	0.792277	mountain	9	0	0.000000	0.631412	1	0	0	0	CorrectOmission	0.233431	0.368397	1	1
261.166229	0.792249	city	5	1	0.602029	0.602029	0	1	0	0	CorrectCommission	0.127907	0.348642	1	1
261.958588	0.792482	mountain	10	1	0.606097	0.606097	0	0	1	0	CommissionError	0.077887	0.338240	1	1
262.750854	0.792057	mountain	3	0	0.000000	0.612086	1	0	0	0	CorrectOmission	0.004235	0.338018	1	1
263.543060	0.792317	city	8	1	0.614610	0.614610	0	1	0	0	CorrectCommission	0.026809	0.347844	1	1
264.335419	0.792421	mountain	3	0	0.000000	0.608284	1	0	0	0	CorrectOmission	0.050993	0.366598	1	1
265.127655	0.792046	city	9	1	0.599897	0.599897	0	1	0	0	CorrectCommission	0.154129	0.392355	1	1
265.919830	0.792306	city	4	1	0.596241	0.596241	0	1	0	0	CorrectCommission	0.199083	0.422612	1	1
266.712097	0.792223	city	3	1	0.645735	0.645735	0	1	0	0	CorrectCommission	0.409563	0.454647	1	1
267.504456	0.792483	city	4	1	0.707940	0.707940	0	1	0	0	CorrectCommission	1.174519	0.485861	1	1
268.296722	0.792083	city	10	1	0.546559	0.546559	0	1	0	0	CorrectCommission	0.810052	0.514106	1	1
269.088898	0.792229	city	5	1	0.546703	0.546703	0	1	0	0	CorrectCommission	0.808282	0.537956	1	1
269.881134	0.792264	city	9	1	0.503450	0.503450	0	1	0	0	CorrectCommission	1.340178	0.556786	1	1
270.673401	0.792270	city	7	1	0.550986	0.550986	0	1	0	0	CorrectCommission	0.755614	0.570722	1	1
271.465759	0.792479	city	1	1	0.596212	0.596212	0	1	0	0	CorrectCommission	0.199449	0.580504	1	1
272.258057	0.792086	city	9	1	0.596043	0.596043	0	1	0	0	CorrectCommission	0.201522	0.587178	1	1
273.050201	0.792226	mountain	5	0	0.000000	0.616036	1	0	0	0	CorrectOmission	0.044344	0.591798	1	1
273.842468	0.792273	city	9	1	0.651050	0.651050	0	1	0	0	CorrectCommission	0.474922	0.595189	1	1
274.634735	0.792256	city	2	1	0.695942	0.695942	0	1	0	0	CorrectCommission	1.026985	0.597750	1	1
275.427002	0.792321	city	4	1	0.605357	0.605357	0	1	0	0	CorrectCommission	0.086983	0.599452	1	1
276.219269	0.792209	city	7	1	0.698110	0.698110	0	1	0	0	CorrectCommission	1.053644	0.599914	1	1
277.011627	0.792484	city	2	1	0.561602	0.561602	0	1	0	0	CorrectCommission	0.625056	0.598518	1	1
277.803955	0.792154	city	7	1	0.546503	0.546503	0	1	0	0	CorrectCommission	0.810743	0.594652	1	1
278.596100	0.792156	city	5	1	0.497176	0.497176	0	1	0	0	CorrectCommission	1.417330	0.587871	1	1
279.388306	0.792269	city	7	1	0.596393	0.596393	0	1	0	0	CorrectCommission	0.197223	0.578035	1	1
280.180634	0.792368	city	3	1	0.600625	0.600625	0	1	0	0	CorrectCommission	0.145175	0.565431	1	1
280.972900	0.792158	city	9	1	0.596083	0.596083	0	1	0	0	CorrectCommission	0.201034	0.550760	1	1
281.765106	0.792266	city	2	1	0.498596	0.498596	0	1	0	0	CorrectCommission	1.399869	0.535031	1	1
282.557465	0.792479	mountain	9	0	0.000000	0.564001	1	0	0	0	CorrectOmission	0.595554	0.519491	1	1
283.349731	0.792048	city	8	1	0.645540	0.645540	0	1	0	0	CorrectCommission	0.407164	0.505527	1	1
284.141907	0.792268	city	1	1	0.596455	0.596455	0	1	0	0	CorrectCommission	0.196458	0.494474	1	1
284.934265	0.792478	city	9	1	0.596238	0.596238	0	1	0	0	CorrectCommission	0.199121	0.487484	1	1
285.726532	0.792049	city	6	1	0.645629	0.645629	0	1	0	0	CorrectCommission	0.408256	0.485420	1	1
286.518707	0.792266	city	10	1	0.599009	0.599009	0	1	0	0	CorrectCommission	0.165049	0.488754	1	1
287.311066	0.792481	city	3	1	0.661299	0.661299	0	1	0	0	CorrectCommission	0.600955	0.497544	1	1
288.103333	0.792045	city	5	1	0.645762	0.645762	0	1	0	0	CorrectCommission	0.409897	0.511408	1	1
288.895599	0.792483	city	7	1	0.645730	0.645730	0	1	0	0	CorrectCommission	0.409496	0.529592	1	1
289.687958	0.792266	city	5	1	0.645563	0.645563	0	1	0	0	CorrectCommission	0.407441	0.550998	1	1
290.480164	0.792153	city	4	1	0.695059	0.695059	0	1	0	0	CorrectCommission	1.016127	0.574281	1	1
291.272339	0.792166	city	10	1	0.646285	0.646285	0	1	0	0	CorrectCommission	0.416328	0.597915	1	1
292.064667	0.792473	city	7	1	0.695861	0.695861	0	1	0	0	CorrectCommission	1.025986	0.620299	1	1
292.856903	0.792050	city	9	1	0.646065	0.646065	0	1	0	0	CorrectCommission	0.413614	0.639839	1	1
293.649170	0.792480	city	2	1	0.596337	0.596337	0	1	0	0	CorrectCommission	0.197910	0.655103	1	1
294.441437	0.792046	city	3	1	0.645539	0.645539	0	1	0	0	CorrectCommission	0.407151	0.664911	0	1
295.233612	0.792271	city	8	1	0.660945	0.660945	0	1	0	0	CorrectCommission	0.596601	0.668465	0	1
296.025879	0.792265	city	1	1	0.844720	0.844720	0	1	0	0	CorrectCommission	2.856574	0.665496	0	1
296.818146	0.792259	city	2	1	0.646071	0.646071	0	1	0	0	CorrectCommission	0.413694	0.656328	1	1
297.610443	0.792373	city	5	1	0.546854	0.546854	0	1	0	0	CorrectCommission	0.806420	0.641979	1	1
298.402710	0.792160	city	6	1	0.646086	0.646086	0	1	0	0	CorrectCommission	0.413877	0.623986	1	1
299.194977	0.792370	city	3	1	0.596371	0.596371	0	1	0	0	CorrectCommission	0.197489	0.604290	1	1
299.987244	0.792155	city	7	1	0.596135	0.596135	0	1	0	0	CorrectCommission	0.200394	0.585053	1	1
300.779449	0.792271	city	4	1	0.561465	0.561465	0	1	0	0	CorrectCommission	0.626740	0.568438	1	1
301.571716	0.792259	city	9	1	0.601409	0.601409	0	1	0	0	CorrectCommission	0.135529	0.556393	1	1
302.364014	0.792331	city	8	1	0.546710	0.546710	0	1	0	0	CorrectCommission	0.808193	0.550516	1	1
303.156281	0.792224	city	1	1	0.555873	0.555873	0	1	0	0	CorrectCommission	0.695511	0.551846	1	1
303.948578	0.792348	city	3	1	0.546707	0.546707	0	1	0	0	CorrectCommission	0.808233	0.560845	1	1
304.740845	0.792211	city	9	1	0.608565	0.608565	0	1	0	0	CorrectCommission	0.047540	0.577260	1	1
305.533112	0.792320	city	10	1	0.596793	0.596793	0	1	0	0	CorrectCommission	0.192296	0.600145	1	0
306.325378	0.792160	city	4	1	0.596147	0.596147	0	1	0	0	CorrectCommission	0.200248	0.627877	1	0
307.117584	0.792284	city	1	1	0.596455	0.596455	0	1	0	0	CorrectCommission	0.196457	0.658310	1	0
307.909973	0.792459	city	4	1	0.596290	0.596290	0	1	0	0	CorrectCommission	0.198490	0.688974	0	0
308.702240	0.792117	city	5	1	0.794591	0.794591	0	1	0	0	CorrectCommission	2.240115	0.717368	0	0
309.494446	0.792301	mountain	9	0	0.000000	0.736647	1	0	0	0	CorrectOmission	1.527548	0.741219	0	0
310.286682	0.792158	city	7	1	0.596118	0.596118	0	1	0	0	CorrectCommission	0.200600	0.758871	0	0
311.078918	0.792294	city	5	1	0.546666	0.546666	0	1	0	0	CorrectCommission	0.808739	0.769452	0	0
311.871216	0.792343	city	2	1	0.497709	0.497709	0	1	0	0	CorrectCommission	1.410773	0.772914	0	0
312.663483	0.792182	mountain	1	1	0.560076	0.560076	0	0	1	0	CommissionError	0.643820	0.770044	0	0
313.455719	0.792243	city	8	1	0.497192	0.497192	0	1	0	0	CorrectCommission	1.417135	0.762278	0	0
314.247955	0.792266	city	6	1	0.547224	0.547224	0	1	0	0	CorrectCommission	0.801874	0.751444	0	0
315.040253	0.792328	mountain	9	0	0.000000	0.586855	1	0	0	0	CorrectOmission	0.314515	0.739462	0	0
315.832520	0.792196	mountain	2	0	0.000000	0.606417	1	0	0	0	CorrectOmission	0.073947	0.727994	0	0
316.624786	0.792326	city	7	1	0.596243	0.596243	0	1	0	0	CorrectCommission	0.199059	0.718210	0	0
317.417084	0.792255	city	9	1	0.546666	0.546666	0	1	0	0	CorrectCommission	0.808737	0.710621	0	0
318.209412	0.792430	city	5	1	0.603146	0.603146	0	1	0	0	CorrectCommission	0.114170	0.705077	0	0
319.001770	0.792267	city	3	1	0.757943	0.757943	0	1	0	0	CorrectCommission	1.789432	0.700900	0	0
319.793915	0.792047	city	8	1	0.695031	0.695031	0	1	0	0	CorrectCommission	1.015773	0.696985	0	0
320.586060	0.792262	city	7	1	0.646204	0.646204	0	1	0	0	CorrectCommission	0.415334	0.692171	0	0
321.378326	0.792268	mountain	3	0	0.000000	0.563587	1	0	0	0	CorrectOmission	0.600654	0.685397	0	0
322.170654	0.792369	city	5	1	0.546727	0.546727	0	1	0	0	CorrectCommission	0.807978	0.675891	0	0
322.962921	0.792160	city	4	1	0.695177	0.695177	0	1	0	0	CorrectCommission	1.017578	0.663315	1	0
323.755127	0.792267	city	7	1	0.596217	0.596217	0	1	0	0	CorrectCommission	0.199383	0.647811	1	0
324.547516	0.792477	city	4	1	0.547326	0.547326	0	1	0	0	CorrectCommission	0.800612	0.630001	1	0
325.339783	0.792103	mountain	2	0	0.000000	0.539111	1	0	0	0	CorrectOmission	0.901641	0.610857	1	0
326.131958	0.792207	city	7	1	0.548826	0.548826	0	1	0	0	CorrectCommission	0.782165	0.591562	1	0
326.924194	0.792266	city	5	1	0.553729	0.553729	0	1	0	0	CorrectCommission	0.721878	0.573370	1	0
327.716522	0.792373	city	2	1	0.602078	0.602078	0	1	0	0	CorrectCommission	0.127312	0.557404	1	0
328.508820	0.792264	city	7	1	0.596641	0.596641	0	1	0	0	CorrectCommission	0.194168	0.544459	1	0
329.301025	0.792157	city	4	1	0.609473	0.609473	0	1	0	0	CorrectCommission	0.036368	0.534869	1	0
330.093262	0.792267	city	3	1	0.555877	0.555877	0	1	0	0	CorrectCommission	0.695463	0.528472	1	0
330.885529	0.792264	city	10	1	0.646575	0.646575	0	1	0	0	CorrectCommission	0.419886	0.524630	1	0
331.677795	0.792267	city	4	1	0.662909	0.662909	0	1	0	0	CorrectCommission	0.620762	0.522400	1	0
332.470093	0.792369	city	9	1	0.596218	0.596218	0	1	0	0	CorrectCommission	0.199375	0.520669	1	0
333.262360	0.792156	city	6	1	0.513228	0.513228	0	1	0	0	CorrectCommission	1.219931	0.518431	1	0
334.054596	0.792327	city	10	1	0.560749	0.560749	0	1	0	0	CorrectCommission	0.635548	0.514937	1	0
334.846863	0.792207	city	2	1	0.596613	0.596613	0	1	0	0	CorrectCommission	0.194512	0.509923	1	0
335.639099	0.792265	city	1	1	0.696260	0.696260	0	1	0	0	CorrectCommission	1.030892	0.503658	1	0
336.431366	0.792264	city	6	1	0.695759	0.695759	0	1	0	0	CorrectCommission	1.024731	0.496847	1	0
337.223694	0.792369	city	1	1	0.613584	0.613584	0	1	0	0	CorrectCommission	0.014183	0.490582	1	0
338.015961	0.792155	city	6	1	0.596187	0.596187	0	1	0	0	CorrectCommission	0.199751	0.486130	1	0
338.808167	0.792267	city	8	1	0.596271	0.596271	0	1	0	0	CorrectCommission	0.198714	0.484640	1	0
339.600433	0.792266	city	3	1	0.652689	0.652689	0	1	0	0	CorrectCommission	0.495081	0.486940	1	0
340.392670	0.792239	city	7	1	0.613735	0.613735	0	1	0	0	CorrectCommission	0.016043	0.493334	1	0
341.184937	0.792289	city	3	1	0.596879	0.596879	0	1	0	0	CorrectCommission	0.191241	0.503570	1	0
341.977234	0.792268	city	9	1	0.695260	0.695260	0	1	0	0	CorrectCommission	1.018589	0.516781	1	0
342.769501	0.792262	city	2	1	0.661037	0.661037	0	1	0	0	CorrectCommission	0.597743	0.531624	1	0
343.561859	0.792482	mountain	9	0	0.000000	0.587569	1	0	0	0	CorrectOmission	0.305730	0.546499	1	0
344.354218	0.792264	city	1	1	0.546892	0.546892	0	1	0	0	CorrectCommission	0.805959	0.559760	1	0
345.146393	0.792046	city	9	1	0.611042	0.611042	0	1	0	0	CorrectCommission	0.017071	0.569987	1	0
345.938568	0.792324	mountain	4	0	0.000000	0.705003	1	0	0	0	CorrectOmission	1.138409	0.576254	1	0
346.730835	0.792205	city	2	1	0.744949	0.744949	0	1	0	0	CorrectCommission	1.629635	0.578221	1	0
347.523132	0.792374	city	6	1	0.647052	0.647052	0	1	0	0	CorrectCommission	0.425758	0.576242	1	0
348.315399	0.792159	city	4	1	0.645762	0.645762	0	1	0	0	CorrectCommission	0.409899	0.571375	1	0
349.107605	0.792265	city	10	1	0.596214	0.596214	0	1	0	0	CorrectCommission	0.199419	0.565142	1	0
349.899872	0.792262	city	7	1	0.695272	0.695272	0	1	0	0	CorrectCommission	1.018746	0.559346	1	0
350.692139	0.792300	mountain	1	0	0.000000	0.662797	1	0	0	0	CorrectOmission	0.619375	0.555720	1	0
351.484406	0.792231	city	10	1	0.600164	0.600164	0	1	0	0	CorrectCommission	0.150846	0.555667	1	0
352.276672	0.792263	city	7	1	0.608752	0.608752	0	1	0	0	CorrectCommission	0.045234	0.559985	1	0
353.068939	0.792274	city	6	1	0.596248	0.596248	0	1	0	0	CorrectCommission	0.199006	0.568686	1	0
353.861206	0.792263	city	4	1	0.645725	0.645725	0	1	0	0	CorrectCommission	0.409441	0.580961	1	0
354.653473	0.792259	city	1	1	0.655795	0.655795	0	1	0	0	CorrectCommission	0.533271	0.595313	1	0
355.445709	0.792266	city	8	1	0.645734	0.645734	0	1	0	0	CorrectCommission	0.409556	0.609771	1	0
356.238007	0.792324	city	3	1	0.695249	0.695249	0	1	0	0	CorrectCommission	1.018459	0.622216	1	0
357.030273	0.792208	city	10	1	0.705650	0.705650	0	1	0	0	CorrectCommission	1.146363	0.630711	1	0
357.822510	0.792262	mountain	2	0	0.000000	0.722877	1	0	0	0	CorrectOmission	1.358206	0.633818	1	0
358.614899	0.792480	city	9	1	0.702996	0.702996	0	1	0	0	CorrectCommission	1.113725	0.630817	1	0
359.407257	0.792264	city	7	1	0.602075	0.602075	0	1	0	0	CorrectCommission	0.127340	0.621792	1	0
360.199524	0.792265	mountain	3	0	0.000000	0.644868	1	0	0	0	CorrectOmission	0.398903	0.607609	1	0
360.991669	0.792048	city	7	1	0.702566	0.702566	0	1	0	0	CorrectCommission	1.108441	0.589742	1	0
361.783844	0.792267	city	5	1	0.646361	0.646361	0	1	0	0	CorrectCommission	0.417259	0.570053	1	0
362.576141	0.792314	city	4	1	0.607540	0.607540	0	1	0	0	CorrectCommission	0.060141	0.550585	1	0
363.368439	0.792321	city	6	1	0.645715	0.645715	0	1	0	0	CorrectCommission	0.409311	0.533323	1	0
364.160675	0.792158	city	3	1	0.596169	0.596169	0	1	0	0	CorrectCommission	0.199978	0.520032	1	0
364.952911	0.792266	city	8	1	0.660640	0.660640	0	1	0	0	CorrectCommission	0.592853	0.512190	1	1
365.745270	0.792480	city	9	1	0.700652	0.700652	0	1	0	0	CorrectCommission	1.084899	0.510917	1	1
366.537537	0.792057	city	3	1	0.645887	0.645887	0	1	0	0	CorrectCommission	0.411436	0.516981	1	1
367.329681	0.792253	city	5	1	0.612525	0.612525	0	1	0	0	CorrectCommission	0.001165	0.530817	1	1
368.122070	0.792483	mountain	1	0	0.000000	0.590438	1	0	0	0	CorrectOmission	0.270456	0.552544	1	1
368.914429	0.792265	city	6	1	0.595998	0.595998	0	1	0	0	CorrectCommission	0.202074	0.581963	1	1
369.706604	0.792048	city	8	1	0.645580	0.645580	0	1	0	0	CorrectCommission	0.407662	0.618579	1	1
370.498810	0.792372	mountain	3	1	0.546760	0.546760	0	0	1	0	CommissionError	0.807576	0.661584	1	1
371.291077	0.792156	city	1	1	0.546941	0.546941	0	1	0	0	CorrectCommission	0.805357	0.709855	0	1
372.083344	0.792373	city	3	1	0.497212	0.497212	0	1	0	0	CorrectCommission	1.416897	0.761944	0	1
372.875610	0.792159	mountain	2	1	0.653777	0.653777	0	0	1	0	CommissionError	0.508462	0.816043	0	1
373.667816	0.792269	city	2	1	0.645792	0.645792	0	1	0	0	CorrectCommission	0.410260	0.870019	0	1
374.460083	0.792259	city	8	1	0.561510	0.561510	0	1	0	0	CorrectCommission	0.626189	0.921433	0	1
375.252350	0.792268	city	6	1	0.554500	0.554500	0	1	0	0	CorrectCommission	0.712395	0.967672	0	1
376.044617	0.792261	mountain	5	1	0.497244	0.497244	0	0	1	0	CommissionError	1.416493	1.006149	0	1
376.836853	0.792264	city	2	1	0.447706	0.447706	0	1	0	0	CorrectCommission	2.025690	1.034545	0	1
377.629242	0.792482	city	10	1	0.559803	0.559803	0	1	0	0	CorrectCommission	0.647185	1.051156	0	1
378.421539	0.792088	city	2	1	0.497402	0.497402	0	1	0	0	CorrectCommission	1.414552	1.055285	0	1
379.213684	0.792252	city	8	1	0.447874	0.447874	0	1	0	0	CorrectCommission	2.023617	1.047416	0	1
380.005951	0.792236	city	3	1	0.497588	0.497588	0	1	0	0	CorrectCommission	1.412273	1.029407	0	1
380.798187	0.792269	city	1	1	0.504821	0.504821	0	1	0	0	CorrectCommission	1.323321	1.004443	0	1
381.590485	0.792301	city	5	1	0.546639	0.546639	0	1	0	0	CorrectCommission	0.809071	0.976718	0	1
382.382843	0.792444	city	1	1	0.559405	0.559405	0	1	0	0	CorrectCommission	0.652072	0.951008	0	1
383.175079	0.792047	city	9	1	0.546770	0.546770	0	1	0	0	CorrectCommission	0.807452	0.932038	0	1
383.967255	0.792270	city	2	1	0.560543	0.560543	0	1	0	0	CorrectCommission	0.638081	0.923811	0	1
384.759583	0.792368	city	6	1	0.645727	0.645727	0	1	0	0	CorrectCommission	0.409461	0.928983	0	1
385.551849	0.792160	city	8	1	0.599860	0.599860	0	1	0	0	CorrectCommission	0.154578	0.948335	0	1
386.344055	0.792273	city	2	1	0.596272	0.596272	0	1	0	0	CorrectCommission	0.198703	0.980537	0	1
387.136414	0.792472	city	4	1	0.645857	0.645857	0	1	0	0	CorrectCommission	0.411060	1.022195	0	1
387.928802	0.792263	city	10	1	0.646026	0.646026	0	1	0	0	CorrectCommission	0.413145	1.068252	0	1
388.720947	0.792048	city	8	1	0.654223	0.654223	0	1	0	0	CorrectCommission	0.513944	1.112699	0	1
389.513153	0.792373	city	1	1	0.758569	0.758569	0	1	0	0	CorrectCommission	1.797138	1.149426	0	1
390.305481	0.792265	mountain	7	0	0.000000	0.901229	1	0	0	0	CorrectOmission	3.551488	1.173156	0	1
391.097809	0.792373	city	9	1	0.943071	0.943071	0	1	0	0	CorrectCommission	4.066036	1.180220	0	1
391.890045	0.792155	city	5	1	0.744964	0.744964	0	1	0	0	CorrectCommission	1.629825	1.169064	0	1
392.682220	0.792155	mountain	7	0	0.000000	0.604804	1	0	0	0	CorrectOmission	0.093790	1.140373	0	1
393.474548	0.792484	city	3	1	0.547014	0.547014	0	1	0	0	CorrectCommission	0.804456	1.096763	0	1
394.266815	0.792051	city	4	1	0.596018	0.596018	0	1	0	0	CorrectCommission	0.201824	1.042197	0	1
395.058960	0.792298	city	2	1	0.547561	0.547561	0	1	0	0	CorrectCommission	0.797725	0.981376	0	1
395.851227	0.792231	city	8	1	0.497617	0.497617	0	1	0	0	CorrectCommission	1.411905	0.918973	0	1
396.643494	0.792264	city	9	1	0.596241	0.596241	0	1	0	0	CorrectCommission	0.199093	0.859076	0	1
397.435760	0.792270	city	6	1	0.554724	0.554724	0	1	0	0	CorrectCommission	0.709639	0.804868	0	1
398.228119	0.792474	city	2	1	0.546708	0.546708	0	1	0	0	CorrectCommission	0.808216	0.758366	0	1
399.020386	0.792050	city	10	1	0.563300	0.563300	0	1	0	0	CorrectCommission	0.604181	0.720486	0	1
399.812531	0.792264	mountain	7	1	0.563058	0.563058	0	0	1	0	CommissionError	0.607153	0.691187	0	1
400.604919	0.792482	city	4	1	0.596694	0.596694	0	1	0	0	CorrectCommission	0.193520	0.669716	0	1
401.397278	0.792264	mountain	9	0	0.000000	0.586094	1	0	0	0	CorrectOmission	0.323873	0.654875	1	1
402.189545	0.792265	city	8	1	0.551528	0.551528	0	1	0	0	CorrectCommission	0.748939	0.645293	1	1
402.981720	0.792093	mountain	4	0	0.000000	0.513268	1	0	0	0	CorrectOmission	1.219443	0.639636	1	1
403.773956	0.792327	city	7	1	0.513934	0.513934	0	1	0	0	CorrectCommission	1.211257	0.636775	1	1
404.566223	0.792205	city	8	1	0.596146	0.596146	0	1	0	0	CorrectCommission	0.200256	0.635836	1	1
405.358490	0.792325	city	2	1	0.617573	0.617573	0	1	0	0	CorrectCommission	0.063247	0.636210	1	1
406.150726	0.792155	city	3	1	0.664972	0.664972	0	1	0	0	CorrectCommission	0.646128	0.637466	1	1
406.942932	0.792264	city	10	1	0.704050	0.704050	0	1	0	0	CorrectCommission	1.126689	0.639296	1	1
407.735199	0.792294	mountain	2	0	0.000000	0.607140	1	0	0	0	CorrectOmission	0.065053	0.641448	1	1
408.527496	0.792264	city	8	1	0.546717	0.546717	0	1	0	0	CorrectCommission	0.808110	0.643724	1	1
409.319855	0.792455	city	9	1	0.695253	0.695253	0	1	0	0	CorrectCommission	1.018504	0.645953	1	1
410.112183	0.792209	city	6	1	0.645566	0.645566	0	1	0	0	CorrectCommission	0.407485	0.648060	1	1
410.904327	0.792106	city	9	1	0.646091	0.646091	0	1	0	0	CorrectCommission	0.413939	0.650090	1	1
411.696564	0.792368	mountain	5	0	0.000000	0.670682	1	0	0	0	CorrectOmission	0.716344	0.652264	1	1
412.488831	0.792156	city	1	1	0.695142	0.695142	0	1	0	0	CorrectCommission	1.017143	0.654974	1	1
413.281097	0.792401	city	4	1	0.695275	0.695275	0	1	0	0	CorrectCommission	1.018782	0.658753	1	1
414.073486	0.792346	city	7	1	0.663202	0.663202	0	1	0	0	CorrectCommission	0.624367	0.664228	0	1
414.865692	0.792048	city	9	1	0.596635	0.596635	0	1	0	0	CorrectCommission	0.194236	0.671963	0	1
415.657959	0.792483	city	6	1	0.546810	0.546810	0	1	0	0	CorrectCommission	0.806963	0.682308	0	1
416.450317	0.792264	city	7	1	0.610640	0.610640	0	1	0	0	CorrectCommission	0.022019	0.695248	0	1
417.242584	0.792264	city	10	1	0.650978	0.650978	0	1	0	0	CorrectCommission	0.474039	0.710355	0	1
418.034760	0.792087	city	5	1	0.649352	0.649352	0	1	0	0	CorrectCommission	0.454046	0.726722	0	1
418.827026	0.792444	city	8	1	0.744810	0.744810	0	1	0	0	CorrectCommission	1.627936	0.743058	0	1
419.619354	0.792210	city	7	1	0.708411	0.708411	0	1	0	0	CorrectCommission	1.180321	0.757794	0	1
420.411621	0.792319	city	9	1	0.646106	0.646106	0	1	0	0	CorrectCommission	0.414123	0.769328	0	1
421.203857	0.792155	city	5	1	0.612523	0.612523	0	1	0	0	CorrectCommission	0.001143	0.776217	0	1
421.996002	0.792157	city	10	1	0.698464	0.698464	0	1	0	0	CorrectCommission	1.057999	0.777400	0	1
422.788208	0.792267	city	9	1	0.744786	0.744786	0	1	0	0	CorrectCommission	1.627641	0.772332	0	1
423.580505	0.792287	mountain	2	0	0.000000	0.739060	1	0	0	0	CorrectOmission	1.557220	0.761089	0	1
424.372772	0.792239	mountain	7	0	0.000000	0.699928	1	0	0	0	CorrectOmission	1.075999	0.744368	0	0
425.165131	0.792484	city	10	1	0.646034	0.646034	0	1	0	0	CorrectCommission	0.413238	0.723447	0	0
425.957397	0.792048	city	9	1	0.596020	0.596020	0	1	0	0	CorrectCommission	0.201802	0.699934	0	0
426.749542	0.792264	city	8	1	0.651742	0.651742	0	1	0	0	CorrectCommission	0.483427	0.675620	0	0
427.541809	0.792279	city	4	1	0.645753	0.645753	0	1	0	0	CorrectCommission	0.409781	0.652236	1	0
428.334106	0.792305	city	1	1	0.596220	0.596220	0	1	0	0	CorrectCommission	0.199345	0.631361	1	0
429.126373	0.792211	city	8	1	0.553309	0.553309	0	1	0	0	CorrectCommission	0.727046	0.614329	1	0
429.918671	0.792373	city	10	1	0.695307	0.695307	0	1	0	0	CorrectCommission	1.019167	0.602186	1	0
430.710938	0.792210	city	8	1	0.552698	0.552698	0	1	0	0	CorrectCommission	0.734550	0.595748	1	0
431.503204	0.792321	city	1	1	0.560520	0.560520	0	1	0	0	CorrectCommission	0.638360	0.595625	1	0
432.295441	0.792159	city	7	1	0.645859	0.645859	0	1	0	0	CorrectCommission	0.411083	0.602198	1	0
433.087677	0.792284	city	10	1	0.596237	0.596237	0	1	0	0	CorrectCommission	0.199139	0.615560	1	0
433.879944	0.792269	city	3	1	0.596827	0.596827	0	1	0	0	CorrectCommission	0.191887	0.635471	1	0
434.672211	0.792256	mountain	10	0	0.000000	0.568927	1	0	0	0	CorrectOmission	0.534985	0.661246	1	0
435.464508	0.792354	city	8	1	0.546711	0.546711	0	1	0	0	CorrectCommission	0.808182	0.691751	0	0
436.256775	0.792159	city	6	1	0.564353	0.564353	0	1	0	0	CorrectCommission	0.591226	0.725396	0	0
437.048981	0.792263	city	5	1	0.547365	0.547365	0	1	0	0	CorrectCommission	0.800132	0.760220	0	0
437.841248	0.792263	city	7	1	0.699267	0.699267	0	1	0	0	CorrectCommission	1.067867	0.794086	0	0
438.633575	0.792374	city	10	1	0.647448	0.647448	0	1	0	0	CorrectCommission	0.430622	0.824923	0	0
439.425842	0.792154	city	2	1	0.597314	0.597314	0	1	0	0	CorrectCommission	0.185888	0.851002	0	0
440.218109	0.792374	city	4	1	0.794448	0.794448	0	1	0	0	CorrectCommission	2.238346	0.871200	0	0
441.010468	0.792374	city	9	1	0.702456	0.702456	0	1	0	0	CorrectCommission	1.107082	0.885147	0	0
441.802734	0.792155	city	4	1	0.794211	0.794211	0	1	0	0	CorrectCommission	2.235432	0.893400	0	0
442.594910	0.792185	city	9	1	0.647032	0.647032	0	1	0	0	CorrectCommission	0.425516	0.897254	0	0
443.387115	0.792243	mountain	5	0	0.000000	0.560529	1	0	0	0	CorrectOmission	0.638258	0.898596	0	0
444.179413	0.792366	city	8	1	0.553832	0.553832	0	1	0	0	CorrectCommission	0.720606	0.899441	0	0
444.971741	0.792265	city	10	1	0.646076	0.646076	0	1	0	0	CorrectCommission	0.413755	0.901566	0	0
445.764069	0.792373	city	1	1	0.658511	0.658511	0	1	0	0	CorrectCommission	0.566680	0.906104	0	0
446.556274	0.792053	city	7	1	0.695079	0.695079	0	1	0	0	CorrectCommission	1.016363	0.913251	0	0
447.348419	0.792260	city	1	1	0.659334	0.659334	0	1	0	0	CorrectCommission	0.576789	0.922187	0	0
448.140686	0.792264	mountain	9	0	0.000000	0.579571	1	0	0	0	CorrectOmission	0.404084	0.931170	0	0
448.933014	0.792375	city	1	1	0.547866	0.547866	0	1	0	0	CorrectCommission	0.793976	0.937854	0	0
449.725372	0.792372	city	10	1	0.656292	0.656292	0	1	0	0	CorrectCommission	0.539390	0.939734	0	0
450.517639	0.792158	mountain	8	0	0.000000	0.802504	1	0	0	0	CorrectOmission	2.337420	0.934680	0	0
451.309845	0.792264	city	6	1	0.858248	0.858248	0	1	0	0	CorrectCommission	3.022934	0.921319	0	0
452.102081	0.792184	city	2	1	0.695273	0.695273	0	1	0	0	CorrectCommission	1.018754	0.899379	0	0
452.894318	0.792311	mountain	7	0	0.000000	0.651766	1	0	0	0	CorrectOmission	0.483726	0.869804	0	0
453.686584	0.792227	city	7	1	0.646036	0.646036	0	1	0	0	CorrectCommission	0.413267	0.834538	0	0
454.478821	0.792228	city	4	1	0.596394	0.596394	0	1	0	0	CorrectCommission	0.197208	0.796159	0	0
455.271057	0.792264	city	8	1	0.546953	0.546953	0	1	0	0	CorrectCommission	0.805202	0.757466	0	0
456.063354	0.792298	city	5	1	0.546750	0.546750	0	1	0	0	CorrectCommission	0.807705	0.721014	0	0
456.855713	0.792450	mountain	6	0	0.000000	0.571315	1	0	0	0	CorrectOmission	0.505616	0.688772	0	0
457.647980	0.792048	city	5	1	0.596123	0.596123	0	1	0	0	CorrectCommission	0.200540	0.661845	1	0
458.440125	0.792266	city	1	1	0.596648	0.596648	0	1	0	0	CorrectCommission	0.194082	0.640469	1	0
459.232422	0.792333	city	5	1	0.647012	0.647012	0	1	0	0	CorrectCommission	0.425265	0.624092	1	0
460.024811	0.792413	mountain	9	0	0.000000	0.675724	1	0	0	0	CorrectOmission	0.778344	0.611668	1	0
460.817047	0.792085	city	4	1	0.652527	0.652527	0	1	0	0	CorrectCommission	0.493081	0.601907	1	0
461.609253	0.792335	city	1	1	0.547165	0.547165	0	1	0	0	CorrectCommission	0.802599	0.593646	1	0
462.401611	0.792372	city	10	1	0.794209	0.794209	0	1	0	0	CorrectCommission	2.235407	0.586064	1	0
463.193848	0.792102	city	4	1	0.654530	0.654530	0	1	0	0	CorrectCommission	0.517719	0.578775	1	0
463.986023	0.792216	city	8	1	0.596339	0.596339	0	1	0	0	CorrectCommission	0.197881	0.571941	1	0
464.778259	0.792261	city	1	1	0.610968	0.610968	0	1	0	0	CorrectCommission	0.017987	0.566046	1	0
465.570526	0.792265	city	10	1	0.612132	0.612132	0	1	0	0	CorrectCommission	0.003672	0.561755	1	0
466.362793	0.792262	city	2	1	0.611742	0.611742	0	1	0	0	CorrectCommission	0.008463	0.559759	1	0
467.155090	0.792374	city	8	1	0.609674	0.609674	0	1	0	0	CorrectCommission	0.033892	0.560699	1	0
467.947357	0.792161	city	9	1	0.695375	0.695375	0	1	0	0	CorrectCommission	1.020007	0.565109	1	0
468.739563	0.792261	city	6	1	0.794439	0.794439	0	1	0	0	CorrectCommission	2.238241	0.573444	1	0
469.531830	0.792263	city	4	1	0.658427	0.658427	0	1	0	0	CorrectCommission	0.565643	0.586179	1	0
470.324097	0.792267	city	5	1	0.597913	0.597913	0	1	0	0	CorrectCommission	0.178525	0.603856	1	0
471.116364	0.792267	mountain	3	0	0.000000	0.604081	1	0	0	0	CorrectOmission	0.102675	0.626945	1	0
471.908630	0.792265	mountain	9	0	0.000000	0.634282	1	0	0	0	CorrectOmission	0.268720	0.655732	1	0
472.700897	0.792259	city	3	1	0.645867	0.645867	0	1	0	0	CorrectCommission	0.411187	0.690133	0	0
473.493164	0.792266	city	1	1	0.596187	0.596187	0	1	0	0	CorrectCommission	0.199748	0.729532	0	0
474.285431	0.792271	city	5	1	0.696082	0.696082	0	1	0	0	CorrectCommission	1.028705	0.772653	0	0
475.077789	0.792478	city	1	1	0.745385	0.745385	0	1	0	0	CorrectCommission	1.635003	0.817478	0	0
475.870056	0.792047	mountain	1	0	0.000000	0.632059	1	0	0	0	CorrectOmission	0.241380	0.861317	0	0
476.662231	0.792266	city	8	1	0.550542	0.550542	0	1	0	0	CorrectCommission	0.761066	0.900994	0	0
477.454529	0.792374	city	3	1	0.695274	0.695274	0	1	0	0	CorrectCommission	1.018764	0.933031	0	0
478.246918	0.792373	city	8	1	0.645958	0.645958	0	1	0	0	CorrectCommission	0.412305	0.954012	0	0
479.039124	0.792051	city	4	1	0.794722	0.794722	0	1	0	0	CorrectCommission	2.241716	0.960921	0	0
479.831268	0.792265	city	8	1	0.757944	0.757944	0	1	0	0	CorrectCommission	1.789445	0.951368	0	0
480.623596	0.792333	city	6	1	0.710146	0.710146	0	1	0	0	CorrectCommission	1.201654	0.924006	0	0
481.415894	0.792261	city	2	1	0.711341	0.711341	0	1	0	0	CorrectCommission	1.216349	0.878543	0	0
482.208099	0.792195	city	1	1	0.744704	0.744704	0	1	0	0	CorrectCommission	1.626625	0.815738	0	0
483.000336	0.792268	city	2	1	0.695252	0.695252	0	1	0	0	CorrectCommission	1.018492	0.737257	0	0
483.792633	0.792303	mountain	5	0	0.000000	0.641297	1	0	0	0	CorrectOmission	0.354990	0.645417	1	0
484.584900	0.792226	city	6	1	0.603727	0.603727	0	1	0	0	CorrectCommission	0.107033	0.542917	1	0
485.377136	0.792264	city	9	1	0.603426	0.603426	0	1	0	0	CorrectCommission	0.110732	0.432565	1	0
486.169403	0.792263	city	6	1	0.646254	0.646254	0	1	0	0	CorrectCommission	0.415942	0.317075	1	0
486.961670	0.792267	city	1	1	0.596243	0.596243	0	1	0	0	CorrectCommission	0.199058	0.199058	1	0
