onset	duration	trial_type	image_type	Press	ReactionTime	ReactionTime_Interpolated	CorrectOmission	CorrectCommission	CommissionError	OmissionError	response_type	nonsmoothVarianceTimeCourse	VarianceTimeCourse	In_the_Zone	Reward_trial
8.433820	0.792371	city	4	1	0.747582	0.747582	0	1	0	0	CorrectCommission	0.698386	0.698386	0	0
9.226091	0.792172	city	5	1	0.508822	0.508822	0	1	0	0	CorrectCommission	0.728836	0.774767	0	0
10.018300	0.792246	city	3	1	0.403264	0.403264	0	1	0	0	CorrectCommission	1.359823	0.848939	0	0
10.810557	0.792269	city	9	1	0.355249	0.355249	0	1	0	0	CorrectCommission	1.646842	0.919003	0	0
11.602824	0.792263	city	7	1	0.398130	0.398130	0	1	0	0	CorrectCommission	1.390517	0.983620	0	0
12.395089	0.792267	city	1	1	0.447698	0.447698	0	1	0	0	CorrectCommission	1.094218	1.042113	0	0
13.187359	0.792272	city	2	1	0.454716	0.454716	0	1	0	0	CorrectCommission	1.052262	1.094460	0	0
13.979622	0.792255	city	10	1	0.454863	0.454863	0	1	0	0	CorrectCommission	1.051384	1.141134	0	0
14.771884	0.792269	city	4	1	0.459802	0.459802	0	1	0	0	CorrectCommission	1.021859	1.182895	0	0
15.564202	0.792369	city	6	1	0.454325	0.454325	0	1	0	0	CorrectCommission	1.054602	1.220549	0	0
16.356464	0.792156	city	9	1	0.398412	0.398412	0	1	0	0	CorrectCommission	1.388830	1.254723	0	0
17.148676	0.792266	city	1	1	0.447628	0.447628	0	1	0	0	CorrectCommission	1.094632	1.285773	0	0
17.941050	0.792481	city	3	1	0.447790	0.447790	0	1	0	0	CorrectCommission	1.093664	1.313803	0	0
18.733315	0.792051	mountain	7	1	0.310118	0.310118	0	0	1	0	CommissionError	1.916618	1.338741	0	0
19.525488	0.792295	city	10	1	0.398219	0.398219	0	1	0	0	CorrectCommission	1.389983	1.360510	0	0
20.326004	0.808737	city	2	1	0.430181	0.430181	0	1	0	0	CorrectCommission	1.198924	1.379272	0	0
21.126505	0.792265	city	3	1	0.398155	0.398155	0	1	0	0	CorrectCommission	1.390363	1.395590	0	0
21.918770	0.792265	city	6	1	0.348667	0.348667	0	1	0	0	CorrectCommission	1.686185	1.410561	0	0
22.711033	0.792261	city	7	1	1.041901	1.041901	0	1	0	0	CorrectCommission	2.457725	1.425785	0	0
23.503296	0.792266	city	4	1	0.896469	0.896469	0	1	0	0	CorrectCommission	1.588379	1.443220	0	0
24.295671	0.792483	city	6	1	0.856725	0.856725	0	1	0	0	CorrectCommission	1.350804	1.464945	0	0
25.087936	0.792046	mountain	4	0	0.000000	0.649892	1	0	0	0	CorrectOmission	0.114428	1.492791	0	0
25.880114	0.792310	city	10	1	0.454233	0.454233	0	1	0	0	CorrectCommission	1.055150	1.528031	0	0
26.672380	0.792224	city	8	1	0.448013	0.448013	0	1	0	0	CorrectCommission	1.092329	1.571077	0	0
27.464640	0.792294	city	10	1	0.447750	0.447750	0	1	0	0	CorrectCommission	1.093904	1.621427	0	0
28.256922	0.792272	city	4	1	0.299044	0.299044	0	1	0	0	CorrectCommission	1.982816	1.677713	0	0
29.049173	0.792228	city	6	1	0.299062	0.299062	0	1	0	0	CorrectCommission	1.982706	1.737880	0	0
29.841438	0.792303	city	8	1	1.041839	1.041839	0	1	0	0	CorrectCommission	2.457355	1.799590	0	0
30.633703	0.792225	city	3	1	0.992199	0.992199	0	1	0	0	CorrectCommission	2.160619	1.860515	0	0
31.426054	0.792480	city	2	1	0.893582	0.893582	0	1	0	0	CorrectCommission	1.571125	1.918664	0	0
32.218319	0.792049	city	3	1	0.947160	0.947160	0	1	0	0	CorrectCommission	1.891396	1.972565	0	0
33.010529	0.792372	city	6	1	1.044587	1.044587	0	1	0	0	CorrectCommission	2.473778	2.021297	0	0
33.802795	0.792158	city	8	1	1.058942	1.058942	0	1	0	0	CorrectCommission	2.559590	2.064400	0	0
34.595116	0.792480	city	6	1	1.041870	1.041870	0	1	0	0	CorrectCommission	2.457538	2.101719	0	0
35.387398	0.792088	city	1	1	0.893219	0.893219	0	1	0	0	CorrectCommission	1.568953	2.133158	0	0
36.179581	0.792278	city	8	1	0.850334	0.850334	0	1	0	0	CorrectCommission	1.312602	2.158453	0	0
36.971828	0.792214	city	7	1	1.092132	1.092132	0	1	0	0	CorrectCommission	2.757986	2.177028	0	0
37.764172	0.792479	city	3	1	1.000877	1.000877	0	1	0	0	CorrectCommission	2.212498	2.187936	0	0
38.556454	0.792082	city	1	1	0.992156	0.992156	0	1	0	0	CorrectCommission	2.160362	2.190042	0	0
39.348663	0.792338	city	9	1	0.945304	0.945304	0	1	0	0	CorrectCommission	1.880301	2.182206	0	0
40.140915	0.792161	city	5	1	1.091418	1.091418	0	1	0	0	CorrectCommission	2.753718	2.163610	0	0
40.933231	0.792478	city	10	1	1.105471	1.105471	0	1	0	0	CorrectCommission	2.837721	2.134058	0	0
41.725494	0.792045	city	3	1	1.092474	1.092474	0	1	0	0	CorrectCommission	2.760030	2.094232	0	0
42.517651	0.792268	city	6	1	1.140792	1.140792	0	1	0	0	CorrectCommission	3.048861	2.045782	0	0
43.309917	0.792262	city	8	1	1.055413	1.055413	0	1	0	0	CorrectCommission	2.538490	1.991153	0	0
44.102180	0.792268	mountain	4	0	0.000000	0.712582	1	0	0	0	CorrectOmission	0.489172	1.933349	0	0
44.894554	0.792482	city	3	1	0.398131	0.398131	0	1	0	0	CorrectCommission	1.390511	1.875532	0	0
45.686844	0.792098	city	8	1	0.397886	0.397886	0	1	0	0	CorrectCommission	1.391974	1.820468	0	0
46.479000	0.792213	city	4	1	0.398118	0.398118	0	1	0	0	CorrectCommission	1.390585	1.770205	0	0
47.271294	0.792374	city	6	1	0.351180	0.351180	0	1	0	0	CorrectCommission	1.671168	1.725759	0	0
48.063560	0.792157	city	8	1	0.348516	0.348516	0	1	0	0	CorrectCommission	1.687090	1.687000	0	0
48.855770	0.792264	city	3	1	0.357605	0.357605	0	1	0	0	CorrectCommission	1.632758	1.652718	0	0
49.648140	0.792482	city	10	1	0.348662	0.348662	0	1	0	0	CorrectCommission	1.686218	1.620816	0	0
50.440407	0.792048	city	1	1	0.348452	0.348452	0	1	0	0	CorrectCommission	1.687475	1.588613	0	0
51.232578	0.792292	city	3	1	0.349485	0.349485	0	1	0	0	CorrectCommission	1.681296	1.553208	0	0
52.024841	0.792237	city	2	1	0.353966	0.353966	0	1	0	0	CorrectCommission	1.654514	1.511855	0	0
52.817112	0.792305	city	8	1	0.349330	0.349330	0	1	0	0	CorrectCommission	1.682227	1.462297	0	0
53.609375	0.792224	city	5	1	0.358595	0.358595	0	1	0	0	CorrectCommission	1.626844	1.403044	0	0
54.401676	0.792375	city	3	1	0.357951	0.357951	0	1	0	0	CorrectCommission	1.630689	1.333529	0	0
55.193943	0.792159	city	6	1	0.365925	0.365925	0	1	0	0	CorrectCommission	1.583024	1.254223	0	0
55.986168	0.792289	city	2	1	0.409323	0.409323	0	1	0	0	CorrectCommission	1.323605	1.166607	0	0
56.778431	0.792236	city	6	1	0.398189	0.398189	0	1	0	0	CorrectCommission	1.390164	1.073034	0	0
57.570789	0.792482	city	2	1	0.402800	0.402800	0	1	0	0	CorrectCommission	1.362599	0.976473	0	0
58.363056	0.792050	city	1	1	0.547341	0.547341	0	1	0	0	CorrectCommission	0.498584	0.880230	0	0
59.155212	0.792265	city	7	1	0.546675	0.546675	0	1	0	0	CorrectCommission	0.502563	0.787643	0	0
59.947529	0.792370	city	1	1	0.596284	0.596284	0	1	0	0	CorrectCommission	0.206020	0.701706	0	0
60.739796	0.792159	city	3	1	0.663588	0.663588	0	1	0	0	CorrectCommission	0.196302	0.624845	0	0
61.532116	0.792482	city	8	1	0.656903	0.656903	0	1	0	0	CorrectCommission	0.156338	0.558772	0	0
62.324383	0.792053	city	10	1	0.645518	0.645518	0	1	0	0	CorrectCommission	0.088281	0.504390	1	0
63.116539	0.792257	city	3	1	0.547977	0.547977	0	1	0	0	CorrectCommission	0.494782	0.461860	1	0
63.908798	0.792267	city	10	1	0.546752	0.546752	0	1	0	0	CorrectCommission	0.502107	0.430725	1	0
64.701172	0.792480	city	7	1	0.548729	0.548729	0	1	0	0	CorrectCommission	0.490287	0.410068	1	0
65.493439	0.792045	city	6	1	0.513894	0.513894	0	1	0	0	CorrectCommission	0.698516	0.398663	1	0
66.285591	0.792271	city	10	1	0.596223	0.596223	0	1	0	0	CorrectCommission	0.206383	0.395097	1	0
67.077965	0.792478	city	4	1	0.606759	0.606759	0	1	0	0	CorrectCommission	0.143405	0.397826	1	0
67.870338	0.792264	city	1	1	0.645556	0.645556	0	1	0	0	CorrectCommission	0.088513	0.405213	1	1
68.662605	0.792265	city	2	1	0.603238	0.603238	0	1	0	0	CorrectCommission	0.164454	0.415565	1	1
69.454872	0.792266	city	5	1	0.605967	0.605967	0	1	0	0	CorrectCommission	0.148136	0.427170	1	1
70.247078	0.792155	city	8	1	0.546626	0.546626	0	1	0	0	CorrectCommission	0.502860	0.438399	1	1
71.039238	0.792159	city	10	1	0.454407	0.454407	0	1	0	0	CorrectCommission	1.054108	0.447815	1	1
71.831505	0.792371	city	1	1	0.506024	0.506024	0	1	0	0	CorrectCommission	0.745564	0.454329	1	1
72.623764	0.792158	mountain	7	0	0.000000	0.550312	1	0	0	0	CorrectOmission	0.480826	0.457340	1	1
73.415977	0.792263	city	10	1	0.546699	0.546699	0	1	0	0	CorrectCommission	0.502422	0.456805	1	1
74.208298	0.792374	city	2	1	0.454613	0.454613	0	1	0	0	CorrectCommission	1.052880	0.453229	1	1
75.000565	0.792160	city	8	1	0.556552	0.556552	0	1	0	0	CorrectCommission	0.443524	0.447565	1	1
75.792770	0.792260	city	4	1	0.597850	0.597850	0	1	0	0	CorrectCommission	0.196657	0.441096	1	1
76.585052	0.792307	city	1	1	0.606266	0.606266	0	1	0	0	CorrectCommission	0.146351	0.435157	1	1
77.377319	0.792223	city	6	1	0.645790	0.645790	0	1	0	0	CorrectCommission	0.089913	0.430929	1	1
78.169563	0.792266	city	10	1	0.606126	0.606126	0	1	0	0	CorrectCommission	0.147189	0.429238	1	1
78.961830	0.792263	city	2	1	0.555903	0.555903	0	1	0	0	CorrectCommission	0.447401	0.430425	1	1
79.754097	0.792272	city	9	1	0.554605	0.554605	0	1	0	0	CorrectCommission	0.455162	0.434306	1	1
80.546364	0.792261	city	3	1	0.564084	0.564084	0	1	0	0	CorrectCommission	0.398501	0.440223	1	1
81.338623	0.792263	city	6	1	0.794822	0.794822	0	1	0	0	CorrectCommission	0.980771	0.447157	1	1
82.130890	0.792265	city	4	1	0.596584	0.596584	0	1	0	0	CorrectCommission	0.204229	0.453868	1	1
82.923210	0.792373	city	7	1	0.598796	0.598796	0	1	0	0	CorrectCommission	0.191003	0.459110	1	1
83.715469	0.792155	city	3	1	0.515039	0.515039	0	1	0	0	CorrectCommission	0.691672	0.461764	1	1
84.507683	0.792265	city	1	1	0.550367	0.550367	0	1	0	0	CorrectCommission	0.480498	0.460976	1	1
85.299942	0.792265	city	4	1	0.497180	0.497180	0	1	0	0	CorrectCommission	0.798428	0.456284	1	1
86.092209	0.792265	city	3	1	0.547070	0.547070	0	1	0	0	CorrectCommission	0.500201	0.447638	1	1
86.884476	0.792263	city	1	1	0.497432	0.497432	0	1	0	0	CorrectCommission	0.796920	0.435414	1	1
87.676735	0.792265	city	10	1	0.546704	0.546704	0	1	0	0	CorrectCommission	0.502391	0.420321	1	1
88.469139	0.792538	city	7	1	0.570460	0.570460	0	1	0	0	CorrectCommission	0.360386	0.403321	1	1
89.261406	0.791996	mountain	8	0	0.000000	0.627396	1	0	0	0	CorrectOmission	0.020046	0.385500	1	1
90.053535	0.792259	city	9	1	0.645725	0.645725	0	1	0	0	CorrectCommission	0.089523	0.367945	1	1
90.845795	0.792266	city	10	1	0.553664	0.553664	0	1	0	0	CorrectCommission	0.460789	0.351627	1	1
91.638062	0.792266	city	5	1	0.596397	0.596397	0	1	0	0	CorrectCommission	0.205343	0.337342	1	1
92.430328	0.792265	city	9	1	0.561523	0.561523	0	1	0	0	CorrectCommission	0.413807	0.325724	1	1
93.222626	0.792322	city	1	1	0.547539	0.547539	0	1	0	0	CorrectCommission	0.497398	0.317224	1	1
94.014885	0.792205	city	3	1	0.657692	0.657692	0	1	0	0	CorrectCommission	0.161053	0.312157	1	1
94.807121	0.792265	mountain	4	1	0.645797	0.645797	0	0	1	0	CommissionError	0.089950	0.310718	1	1
95.599388	0.792270	mountain	9	0	0.000000	0.686636	1	0	0	0	CorrectOmission	0.334075	0.312993	1	1
96.391708	0.792367	city	6	1	0.702083	0.702083	0	1	0	0	CorrectCommission	0.426411	0.318935	1	1
97.183968	0.792159	city	3	1	0.614010	0.614010	0	1	0	0	CorrectCommission	0.100060	0.328362	1	1
97.976181	0.792265	city	4	1	0.553861	0.553861	0	1	0	0	CorrectCommission	0.459608	0.340941	1	1
98.768448	0.792263	city	8	1	0.596243	0.596243	0	1	0	0	CorrectCommission	0.206268	0.356113	1	1
99.560745	0.792326	city	4	1	0.596560	0.596560	0	1	0	0	CorrectCommission	0.204371	0.373151	1	1
100.353004	0.792206	city	9	1	0.596141	0.596141	0	1	0	0	CorrectCommission	0.206874	0.391169	1	1
101.145348	0.792479	city	7	1	0.562478	0.562478	0	1	0	0	CorrectCommission	0.408103	0.409179	1	1
101.937668	0.792156	city	10	1	0.552075	0.552075	0	1	0	0	CorrectCommission	0.470288	0.426199	1	1
102.729843	0.792192	city	5	1	0.546728	0.546728	0	1	0	0	CorrectCommission	0.502250	0.441351	1	1
103.522064	0.792251	city	2	1	0.503631	0.503631	0	1	0	0	CorrectCommission	0.759868	0.453967	1	1
104.314331	0.792290	city	10	1	0.452359	0.452359	0	1	0	0	CorrectCommission	1.066350	0.463627	1	1
105.106697	0.792434	city	6	1	0.754457	0.754457	0	1	0	0	CorrectCommission	0.739485	0.470158	1	1
105.898933	0.792047	city	5	1	0.595985	0.595985	0	1	0	0	CorrectCommission	0.207809	0.473595	1	1
106.691185	0.792456	city	4	1	0.612590	0.612590	0	1	0	0	CorrectCommission	0.108547	0.474079	1	1
107.483452	0.792075	city	8	1	0.596167	0.596167	0	1	0	0	CorrectCommission	0.206716	0.471751	1	1
108.275673	0.792373	city	2	1	0.596208	0.596208	0	1	0	0	CorrectCommission	0.206473	0.466666	1	1
109.067955	0.792189	city	4	1	0.497732	0.497732	0	1	0	0	CorrectCommission	0.795129	0.458806	1	1
109.860168	0.792236	city	3	1	0.546665	0.546665	0	1	0	0	CorrectCommission	0.502626	0.448097	1	1
110.652527	0.792477	city	6	1	0.503725	0.503725	0	1	0	0	CorrectCommission	0.759305	0.434603	1	1
111.444786	0.792047	city	9	1	0.546694	0.546694	0	1	0	0	CorrectCommission	0.502449	0.418602	1	1
112.236977	0.792337	city	1	1	0.549047	0.549047	0	1	0	0	CorrectCommission	0.488386	0.400763	1	1
113.029274	0.792244	city	3	1	0.794297	0.794297	0	1	0	0	CorrectCommission	0.977632	0.382205	1	1
113.821503	0.792216	city	9	1	0.647884	0.647884	0	1	0	0	CorrectCommission	0.102430	0.364528	1	1
114.613739	0.792264	city	7	1	0.619752	0.619752	0	1	0	0	CorrectCommission	0.065739	0.349848	1	1
115.406006	0.792264	city	8	1	0.651962	0.651962	0	1	0	0	CorrectCommission	0.126802	0.340613	1	1
116.198288	0.792298	city	9	1	0.653920	0.653920	0	1	0	0	CorrectCommission	0.138506	0.339454	1	1
116.990601	0.792338	mountain	4	0	0.000000	0.658346	1	0	0	0	CorrectOmission	0.164963	0.348959	1	1
117.782852	0.792158	city	3	1	0.645640	0.645640	0	1	0	0	CorrectCommission	0.089014	0.371412	1	1
118.575172	0.792480	city	6	1	0.596204	0.596204	0	1	0	0	CorrectCommission	0.206500	0.408513	1	1
119.367432	0.792047	city	10	1	0.557199	0.557199	0	1	0	0	CorrectCommission	0.439657	0.461091	1	1
120.159645	0.792376	city	4	1	0.605368	0.605368	0	1	0	0	CorrectCommission	0.151718	0.528870	0	1
120.951912	0.792153	city	3	1	0.655092	0.655092	0	1	0	0	CorrectCommission	0.145515	0.610313	0	1
121.744118	0.792267	city	7	1	0.697965	0.697965	0	1	0	0	CorrectCommission	0.401792	0.702518	0	1
122.536499	0.792483	city	8	1	0.756294	0.756294	0	1	0	0	CorrectCommission	0.750466	0.801319	0	1
123.328865	0.792263	city	4	1	0.695046	0.695046	0	1	0	0	CorrectCommission	0.384345	0.901536	0	1
124.121025	0.792048	city	8	1	0.695016	0.695016	0	1	0	0	CorrectCommission	0.384165	0.997438	0	1
124.913177	0.792266	city	10	1	0.645748	0.645748	0	1	0	0	CorrectCommission	0.089656	1.083307	0	1
125.705444	0.792268	city	3	1	1.140876	1.140876	0	1	0	0	CorrectCommission	3.049361	1.154121	0	1
126.497818	0.792477	city	1	1	1.197276	1.197276	0	1	0	0	CorrectCommission	3.386503	1.206102	0	1
127.290138	0.792156	city	5	1	1.194541	1.194541	0	1	0	0	CorrectCommission	3.370149	1.237260	0	0
128.082291	0.792157	city	4	0	0.000000	0.910649	0	0	0	1	OmissionError	1.673142	1.247525	0	0
128.874512	0.792283	city	5	1	0.599571	0.599571	0	1	0	0	CorrectCommission	0.186374	1.238641	0	0
129.666794	0.792264	city	7	1	0.515277	0.515277	0	1	0	0	CorrectCommission	0.690251	1.213735	0	0
130.459152	0.792464	city	4	1	0.502874	0.502874	0	1	0	0	CorrectCommission	0.764389	1.176694	0	0
131.251511	0.792267	city	7	1	0.505294	0.505294	0	1	0	0	CorrectCommission	0.749926	1.131591	0	0
132.043671	0.792048	city	3	1	0.496986	0.496986	0	1	0	0	CorrectCommission	0.799589	1.082138	0	0
132.835846	0.792302	city	5	1	0.398376	0.398376	0	1	0	0	CorrectCommission	1.389046	1.031306	0	0
133.628113	0.792228	mountain	9	1	0.398236	0.398236	0	0	1	0	CommissionError	1.389880	0.981155	0	0
134.420364	0.792266	city	7	1	0.460865	0.460865	0	1	0	0	CorrectCommission	1.015510	0.932873	0	0
135.212616	0.792261	city	6	1	0.549493	0.549493	0	1	0	0	CorrectCommission	0.485719	0.886926	0	0
136.004883	0.792268	city	4	1	0.794936	0.794936	0	1	0	0	CorrectCommission	0.981455	0.843281	0	0
136.797150	0.792265	city	1	1	0.546707	0.546707	0	1	0	0	CorrectCommission	0.502374	0.801613	0	0
137.589417	0.792262	city	2	1	0.497650	0.497650	0	1	0	0	CorrectCommission	0.795620	0.761556	0	0
138.381729	0.792373	city	1	1	0.497211	0.497211	0	1	0	0	CorrectCommission	0.798245	0.722815	0	0
139.174057	0.792266	city	2	1	0.464154	0.464154	0	1	0	0	CorrectCommission	0.995846	0.685267	0	0
139.966263	0.792159	city	8	1	0.511937	0.511937	0	1	0	0	CorrectCommission	0.710215	0.648946	0	0
140.758469	0.792259	city	7	1	0.558495	0.558495	0	1	0	0	CorrectCommission	0.431910	0.614018	0	0
141.550842	0.792484	mountain	1	1	0.497676	0.497676	0	0	1	0	CommissionError	0.795462	0.580677	0	0
142.343140	0.792110	city	3	1	0.607884	0.607884	0	1	0	0	CorrectCommission	0.136676	0.549072	0	0
143.135406	0.792418	city	5	1	0.653882	0.653882	0	1	0	0	CorrectCommission	0.138281	0.519194	1	0
143.927643	0.792047	city	7	1	0.655280	0.655280	0	1	0	0	CorrectCommission	0.146639	0.490888	1	0
144.719818	0.792320	city	1	1	0.759291	0.759291	0	1	0	0	CorrectCommission	0.768377	0.463893	1	0
145.512085	0.792209	city	6	1	0.794208	0.794208	0	1	0	0	CorrectCommission	0.977102	0.437921	1	0
146.304352	0.792322	mountain	5	0	0.000000	0.679806	1	0	0	0	CorrectOmission	0.293245	0.412783	1	0
147.096619	0.792213	city	7	1	0.556492	0.556492	0	1	0	0	CorrectCommission	0.443880	0.388478	1	0
147.888855	0.792262	city	9	1	0.564676	0.564676	0	1	0	0	CorrectCommission	0.394960	0.365212	1	0
148.681122	0.792263	city	7	1	0.551149	0.551149	0	1	0	0	CorrectCommission	0.475824	0.343425	1	0
149.473389	0.792269	city	3	1	0.596359	0.596359	0	1	0	0	CorrectCommission	0.205571	0.323735	1	0
150.265656	0.792259	city	4	1	0.611948	0.611948	0	1	0	0	CorrectCommission	0.112385	0.306857	1	0
151.057907	0.792267	city	10	1	0.613004	0.613004	0	1	0	0	CorrectCommission	0.106075	0.293457	1	0
151.850174	0.792267	city	2	1	0.645732	0.645732	0	1	0	0	CorrectCommission	0.089561	0.284076	1	0
152.642502	0.792371	city	3	1	0.645796	0.645796	0	1	0	0	CorrectCommission	0.089946	0.279046	1	0
153.434799	0.792233	mountain	2	0	0.000000	0.685658	1	0	0	0	CorrectOmission	0.328225	0.278437	1	0
154.227020	0.792207	city	1	1	0.706537	0.706537	0	1	0	0	CorrectCommission	0.453036	0.282065	1	0
155.019257	0.792248	city	7	1	0.649656	0.649656	0	1	0	0	CorrectCommission	0.113018	0.289531	1	0
155.811508	0.792266	city	5	1	0.657468	0.657468	0	1	0	0	CorrectCommission	0.159717	0.300292	1	0
156.603775	0.792263	city	2	1	0.646236	0.646236	0	1	0	0	CorrectCommission	0.092578	0.313707	1	0
157.396057	0.792303	city	1	1	0.794783	0.794783	0	1	0	0	CorrectCommission	0.980535	0.329113	1	0
158.188324	0.792222	city	5	1	0.597539	0.597539	0	1	0	0	CorrectCommission	0.198515	0.345825	1	0
158.980560	0.792267	city	8	1	0.649610	0.649610	0	1	0	0	CorrectCommission	0.112743	0.363199	1	0
159.772827	0.792265	mountain	3	0	0.000000	0.692717	1	0	0	0	CorrectOmission	0.370425	0.380597	1	0
160.565094	0.792268	city	3	1	0.700871	0.700871	0	1	0	0	CorrectCommission	0.419167	0.397359	1	0
161.357361	0.792262	city	10	1	0.648081	0.648081	0	1	0	0	CorrectCommission	0.103603	0.412814	1	0
162.149628	0.792264	city	6	1	0.801043	0.801043	0	1	0	0	CorrectCommission	1.017957	0.426268	1	0
162.941940	0.792372	mountain	10	0	0.000000	0.731661	1	0	0	0	CorrectOmission	0.603215	0.437001	1	0
163.734283	0.792319	city	10	1	0.607503	0.607503	0	1	0	0	CorrectCommission	0.138958	0.444356	1	0
164.526505	0.792102	city	1	1	0.596137	0.596137	0	1	0	0	CorrectCommission	0.206901	0.447760	1	0
165.318680	0.792267	city	10	1	0.794305	0.794305	0	1	0	0	CorrectCommission	0.977679	0.446809	1	0
166.110962	0.792287	city	8	1	0.596186	0.596186	0	1	0	0	CorrectCommission	0.206607	0.441318	1	0
166.903229	0.792237	city	10	1	0.511844	0.511844	0	1	0	0	CorrectCommission	0.710774	0.431447	1	0
167.695465	0.792264	city	3	1	0.506621	0.506621	0	1	0	0	CorrectCommission	0.741992	0.417673	1	0
168.487793	0.792377	city	8	1	0.498047	0.498047	0	1	0	0	CorrectCommission	0.793247	0.400814	1	0
169.280167	0.792373	city	2	1	0.596200	0.596200	0	1	0	0	CorrectCommission	0.206519	0.381962	1	0
170.072403	0.792097	city	6	1	0.645491	0.645491	0	1	0	0	CorrectCommission	0.088120	0.362397	1	0
170.864563	0.792215	city	7	1	0.605433	0.605433	0	1	0	0	CorrectCommission	0.151332	0.343419	1	0
171.656906	0.792481	city	3	1	0.596390	0.596390	0	1	0	0	CorrectCommission	0.205386	0.326227	1	0
172.449173	0.792052	mountain	5	1	0.556038	0.556038	0	0	1	0	CommissionError	0.446599	0.311815	1	0
173.241333	0.792264	city	8	1	0.645724	0.645724	0	1	0	0	CorrectCommission	0.089515	0.300877	1	0
174.033600	0.792262	city	7	1	0.648443	0.648443	0	1	0	0	CorrectCommission	0.105766	0.293796	1	0
174.825867	0.792286	city	3	1	0.699582	0.699582	0	1	0	0	CorrectCommission	0.411461	0.290649	1	0
175.618118	0.792224	city	5	1	0.646714	0.646714	0	1	0	0	CorrectCommission	0.095435	0.291295	1	0
176.410385	0.792287	city	7	1	0.596635	0.596635	0	1	0	0	CorrectCommission	0.203920	0.295474	1	0
177.202667	0.792296	city	8	1	0.611403	0.611403	0	1	0	0	CorrectCommission	0.115643	0.302867	1	0
177.994934	0.792230	city	5	1	0.497103	0.497103	0	1	0	0	CorrectCommission	0.798891	0.313184	1	0
178.787186	0.792267	city	4	1	0.562431	0.562431	0	1	0	0	CorrectCommission	0.408382	0.326177	1	0
179.579498	0.792370	city	1	1	0.596210	0.596210	0	1	0	0	CorrectCommission	0.206463	0.341620	1	0
180.371811	0.792266	city	5	1	0.546630	0.546630	0	1	0	0	CorrectCommission	0.502837	0.359256	1	0
181.164032	0.792160	city	3	1	0.650583	0.650583	0	1	0	0	CorrectCommission	0.118561	0.378673	1	0
181.956238	0.792267	city	2	1	0.602822	0.602822	0	1	0	0	CorrectCommission	0.166940	0.399262	1	0
182.748505	0.792261	city	4	1	0.649403	0.649403	0	1	0	0	CorrectCommission	0.111508	0.420129	1	0
183.540817	0.792373	city	5	1	0.695448	0.695448	0	1	0	0	CorrectCommission	0.386747	0.440153	1	0
184.333084	0.792155	city	7	1	0.552755	0.552755	0	1	0	0	CorrectCommission	0.466222	0.458056	1	0
185.125412	0.792482	city	3	1	0.497309	0.497309	0	1	0	0	CorrectCommission	0.797660	0.472637	1	0
185.917664	0.792048	city	6	1	0.546500	0.546500	0	1	0	0	CorrectCommission	0.503610	0.482917	1	0
186.709824	0.792269	city	5	1	0.503562	0.503562	0	1	0	0	CorrectCommission	0.760281	0.488401	1	1
187.502197	0.792479	city	4	1	0.417046	0.417046	0	1	0	0	CorrectCommission	1.277445	0.489202	1	1
188.294479	0.792077	city	10	1	0.463086	0.463086	0	1	0	0	CorrectCommission	1.002231	0.486100	1	1
189.086746	0.792454	city	9	1	0.596330	0.596330	0	1	0	0	CorrectCommission	0.205742	0.480529	1	1
189.878998	0.792045	city	3	1	0.607491	0.607491	0	1	0	0	CorrectCommission	0.139027	0.474423	1	1
190.671204	0.792372	city	2	1	0.645771	0.645771	0	1	0	0	CorrectCommission	0.089794	0.469967	1	1
191.463516	0.792266	city	9	1	0.608507	0.608507	0	1	0	0	CorrectCommission	0.132955	0.469343	1	1
192.255737	0.792177	city	7	1	0.645860	0.645860	0	1	0	0	CorrectCommission	0.090330	0.474487	1	1
193.047974	0.792283	city	10	1	0.698150	0.698150	0	1	0	0	CorrectCommission	0.402902	0.486902	1	1
193.840225	0.792225	city	6	1	0.744741	0.744741	0	1	0	0	CorrectCommission	0.681403	0.507491	1	1
194.632523	0.792374	city	2	1	0.546601	0.546601	0	1	0	0	CorrectCommission	0.503008	0.536514	0	1
195.424927	0.792429	mountain	9	1	0.455295	0.455295	0	0	1	0	CommissionError	1.048801	0.573549	0	1
196.217133	0.791992	city	4	1	0.600640	0.600640	0	1	0	0	CorrectCommission	0.179981	0.617505	0	1
197.009277	0.792268	city	8	1	0.564936	0.564936	0	1	0	0	CorrectCommission	0.393406	0.666742	0	1
197.801529	0.792265	city	1	1	0.596265	0.596265	0	1	0	0	CorrectCommission	0.206131	0.719136	0	1
198.593857	0.792370	city	2	1	0.650663	0.650663	0	1	0	0	CorrectCommission	0.119039	0.772318	0	1
199.386169	0.792265	city	5	1	0.647370	0.647370	0	1	0	0	CorrectCommission	0.099356	0.823899	0	1
200.178391	0.792159	mountain	9	1	1.060262	1.060262	0	0	1	0	CommissionError	2.567477	0.871775	0	1
200.970596	0.792259	city	9	1	0.947097	0.947097	0	1	0	0	CorrectCommission	1.891017	0.914320	0	1
201.762863	0.792267	city	3	1	0.893348	0.893348	0	1	0	0	CorrectCommission	1.569723	0.950657	0	1
202.555115	0.792263	city	4	1	0.843812	0.843812	0	1	0	0	CorrectCommission	1.273613	0.980619	0	1
203.347488	0.792484	mountain	3	0	0.000000	0.700326	1	0	0	0	CorrectOmission	0.415908	1.004640	0	1
204.139755	0.792044	city	8	1	0.546475	0.546475	0	1	0	0	CorrectCommission	0.503759	1.023503	0	1
204.931931	0.792301	city	2	1	0.465843	0.465843	0	1	0	0	CorrectCommission	0.985750	1.037975	0	1
205.724197	0.792234	city	3	1	0.447740	0.447740	0	1	0	0	CorrectCommission	1.093964	1.048506	0	1
206.516449	0.792261	city	5	1	0.546943	0.546943	0	1	0	0	CorrectCommission	0.500963	1.055023	0	1
207.308762	0.792372	city	2	1	0.456827	0.456827	0	1	0	0	CorrectCommission	1.039644	1.056838	0	1
208.101028	0.792167	city	4	1	0.400507	0.400507	0	1	0	0	CorrectCommission	1.376304	1.052721	0	1
208.893250	0.792257	city	3	1	0.455730	0.455730	0	1	0	0	CorrectCommission	1.046205	1.041146	0	1
209.685501	0.792265	city	5	1	0.359413	0.359413	0	1	0	0	CorrectCommission	1.621950	1.020671	0	1
210.477768	0.792265	city	8	1	0.356223	0.356223	0	1	0	0	CorrectCommission	1.641023	0.990253	0	1
211.270065	0.792325	city	2	1	0.457204	0.457204	0	1	0	0	CorrectCommission	1.037394	0.949647	0	1
212.062332	0.792203	city	6	1	0.416267	0.416267	0	1	0	0	CorrectCommission	1.282096	0.899674	0	1
212.854568	0.792262	city	7	1	0.451566	0.451566	0	1	0	0	CorrectCommission	1.071093	0.842318	0	1
213.646820	0.792268	mountain	3	1	0.447961	0.447961	0	0	1	0	CommissionError	1.092642	0.780769	0	1
214.439117	0.792327	city	3	1	0.603046	0.603046	0	1	0	0	CorrectCommission	0.165601	0.719267	0	1
215.231384	0.792202	city	2	1	0.554616	0.554616	0	1	0	0	CorrectCommission	0.455095	0.662831	0	1
216.023621	0.792263	city	7	1	0.522078	0.522078	0	1	0	0	CorrectCommission	0.649596	0.616887	0	1
216.815933	0.792352	city	3	1	0.617717	0.617717	0	1	0	0	CorrectCommission	0.077898	0.586883	0	1
217.608307	0.792396	city	2	1	0.596087	0.596087	0	1	0	0	CorrectCommission	0.207199	0.577792	0	1
218.400528	0.792051	city	3	1	0.611688	0.611688	0	1	0	0	CorrectCommission	0.113938	0.593660	0	1
219.192688	0.792265	city	8	1	0.663118	0.663118	0	1	0	0	CorrectCommission	0.193493	0.637164	0	1
219.984955	0.792265	city	10	1	0.645743	0.645743	0	1	0	0	CorrectCommission	0.089629	0.709215	0	1
220.777313	0.792478	city	7	1	0.662477	0.662477	0	1	0	0	CorrectCommission	0.189658	0.808705	0	1
221.569641	0.792155	mountain	9	0	0.000000	0.609698	1	0	0	0	CorrectOmission	0.125833	0.932328	0	1
222.361908	0.792374	city	4	1	0.612018	0.612018	0	1	0	0	CorrectCommission	0.111968	1.074710	0	1
223.154221	0.792264	city	1	1	0.794045	0.794045	0	1	0	0	CorrectCommission	0.976129	1.228733	0	1
223.946381	0.792050	city	6	1	0.450721	0.450721	0	1	0	0	CorrectCommission	1.076145	1.386101	0	1
224.738541	0.792268	city	7	1	1.041907	1.041907	0	1	0	0	CorrectCommission	2.457759	1.538094	0	1
225.530807	0.792268	city	5	1	1.001668	1.001668	0	1	0	0	CorrectCommission	2.217226	1.676372	0	1
226.323090	0.792293	city	9	1	1.091874	1.091874	0	1	0	0	CorrectCommission	2.756444	1.793847	0	1
227.115341	0.792227	city	6	1	1.141071	1.141071	0	1	0	0	CorrectCommission	3.050524	1.885275	0	1
227.907593	0.792280	city	4	1	1.140916	1.140916	0	1	0	0	CorrectCommission	3.049597	1.947659	0	1
228.699860	0.792249	city	3	1	1.105519	1.105519	0	1	0	0	CorrectCommission	2.838012	1.980317	0	1
229.492233	0.792484	city	7	1	1.201781	1.201781	0	1	0	0	CorrectCommission	3.413427	1.984582	0	1
230.284546	0.792155	city	2	0	0.000000	0.848528	0	0	0	1	OmissionError	1.301804	1.963258	0	1
231.076706	0.792158	city	9	1	0.447555	0.447555	0	1	0	0	CorrectCommission	1.095072	1.920002	0	1
231.868942	0.792320	mountain	9	1	0.400656	0.400656	0	0	1	0	CommissionError	1.375418	1.858589	0	1
232.661209	0.792211	city	4	1	0.400684	0.400684	0	1	0	0	CorrectCommission	1.375245	1.782428	0	1
233.453445	0.792261	city	8	1	0.410234	0.410234	0	1	0	0	CorrectCommission	1.318160	1.694317	0	1
234.245712	0.792273	city	7	1	0.363041	0.363041	0	1	0	0	CorrectCommission	1.600264	1.596479	0	1
235.037979	0.792259	city	2	1	1.055911	1.055911	0	1	0	0	CorrectCommission	2.541468	1.490778	0	1
235.830246	0.792266	city	3	1	1.199652	1.199652	0	1	0	0	CorrectCommission	3.400706	1.379079	0	1
236.622559	0.792369	city	2	0	0.000000	0.843097	0	0	0	1	OmissionError	1.269345	1.263574	0	1
237.414856	0.792227	city	3	1	0.465666	0.465666	0	1	0	0	CorrectCommission	0.986807	1.147034	0	1
238.207123	0.792304	city	7	1	0.546780	0.546780	0	1	0	0	CorrectCommission	0.501937	1.032711	0	1
238.999390	0.792221	city	5	1	0.546705	0.546705	0	1	0	0	CorrectCommission	0.502384	0.924166	0	1
239.791595	0.792203	city	2	1	0.598311	0.598311	0	1	0	0	CorrectCommission	0.193906	0.824905	0	1
240.583862	0.792323	city	5	1	0.602333	0.602333	0	1	0	0	CorrectCommission	0.169858	0.737974	0	1
241.376129	0.792202	city	1	1	0.596134	0.596134	0	1	0	0	CorrectCommission	0.206916	0.665591	0	1
242.168365	0.792273	city	10	1	0.558983	0.558983	0	1	0	0	CorrectCommission	0.428990	0.608892	0	1
242.960739	0.792474	city	4	1	0.697495	0.697495	0	1	0	0	CorrectCommission	0.398984	0.567868	0	1
243.753006	0.792083	city	8	1	0.695038	0.695038	0	1	0	0	CorrectCommission	0.384295	0.541426	0	1
244.545273	0.792448	city	4	1	0.699394	0.699394	0	1	0	0	CorrectCommission	0.410334	0.527589	0	1
245.337631	0.792264	city	3	1	0.709350	0.709350	0	1	0	0	CorrectCommission	0.469848	0.523798	1	1
246.129898	0.792264	city	10	1	0.708772	0.708772	0	1	0	0	CorrectCommission	0.466396	0.527247	0	0
246.922058	0.792049	city	3	1	0.700559	0.700559	0	1	0	0	CorrectCommission	0.417299	0.535194	0	0
247.714218	0.792264	city	1	1	0.744910	0.744910	0	1	0	0	CorrectCommission	0.682413	0.545271	0	0
248.506470	0.792262	city	3	1	0.757615	0.757615	0	1	0	0	CorrectCommission	0.758358	0.555629	0	0
249.298843	0.792483	city	10	1	0.794291	0.794291	0	1	0	0	CorrectCommission	0.977595	0.565035	0	0
250.091110	0.792045	city	1	1	0.744599	0.744599	0	1	0	0	CorrectCommission	0.680556	0.572838	0	0
250.883377	0.792484	city	8	1	0.756514	0.756514	0	1	0	0	CorrectCommission	0.751780	0.578861	0	0
251.675751	0.792265	city	2	1	0.711466	0.711466	0	1	0	0	CorrectCommission	0.482499	0.583198	0	0
252.468018	0.792265	mountain	1	0	0.000000	0.625786	1	0	0	0	CorrectOmission	0.029670	0.586013	0	0
253.260178	0.792049	city	10	1	0.553267	0.553267	0	1	0	0	CorrectCommission	0.463161	0.587343	0	0
254.052338	0.792291	mountain	4	1	0.547705	0.547705	0	0	1	0	CommissionError	0.496410	0.586995	0	0
254.844604	0.792238	city	3	1	0.744885	0.744885	0	1	0	0	CorrectCommission	0.682266	0.584502	0	0
255.636963	0.792481	city	2	1	0.794301	0.794301	0	1	0	0	CorrectCommission	0.977654	0.579176	0	0
256.429352	0.792264	city	8	1	0.694959	0.694959	0	1	0	0	CorrectCommission	0.383823	0.570231	0	0
257.221497	0.792047	city	7	1	0.709836	0.709836	0	1	0	0	CorrectCommission	0.472757	0.556982	0	0
258.013641	0.792266	city	6	1	0.799627	0.799627	0	1	0	0	CorrectCommission	1.009493	0.538992	0	0
258.805939	0.792280	city	10	1	0.799686	0.799686	0	1	0	0	CorrectCommission	1.009846	0.516232	1	0
259.598236	0.792358	city	3	1	0.745581	0.745581	0	1	0	0	CorrectCommission	0.686425	0.489175	1	0
260.390503	0.792164	city	7	1	0.695198	0.695198	0	1	0	0	CorrectCommission	0.385256	0.458800	1	0
261.182709	0.792255	city	1	1	0.649055	0.649055	0	1	0	0	CorrectCommission	0.109424	0.426499	1	0
261.975037	0.792374	city	9	1	0.695426	0.695426	0	1	0	0	CorrectCommission	0.386614	0.393928	1	0
262.767395	0.792374	city	5	1	0.695161	0.695161	0	1	0	0	CorrectCommission	0.385033	0.362813	1	0
263.559601	0.792047	city	7	1	0.645558	0.645558	0	1	0	0	CorrectCommission	0.088523	0.334757	1	0
264.351776	0.792269	city	2	1	0.596362	0.596362	0	1	0	0	CorrectCommission	0.205552	0.311067	1	0
265.144104	0.792369	city	9	1	0.600207	0.600207	0	1	0	0	CorrectCommission	0.182572	0.292602	1	0
265.936340	0.792159	city	5	1	0.596099	0.596099	0	1	0	0	CorrectCommission	0.207127	0.279703	1	0
266.728577	0.792267	city	9	1	0.611471	0.611471	0	1	0	0	CorrectCommission	0.115236	0.272169	1	0
267.520935	0.792478	city	5	1	0.614887	0.614887	0	1	0	0	CorrectCommission	0.094815	0.269337	1	0
268.313202	0.792069	city	6	1	0.645600	0.645600	0	1	0	0	CorrectCommission	0.088772	0.270182	1	0
269.105377	0.792244	city	3	1	0.596288	0.596288	0	1	0	0	CorrectCommission	0.205998	0.273489	1	0
269.897614	0.792266	city	7	1	0.596275	0.596275	0	1	0	0	CorrectCommission	0.206076	0.278030	1	0
270.689880	0.792263	city	4	1	0.508544	0.508544	0	1	0	0	CorrectCommission	0.730499	0.282733	1	0
271.482147	0.792263	city	6	1	0.514494	0.514494	0	1	0	0	CorrectCommission	0.694934	0.286804	1	0
272.274414	0.792267	mountain	5	1	0.546705	0.546705	0	0	1	0	CommissionError	0.502386	0.289817	1	0
273.066803	0.792482	city	5	1	0.612242	0.612242	0	1	0	0	CorrectCommission	0.110631	0.291691	1	0
273.859161	0.792264	city	8	1	0.645617	0.645617	0	1	0	0	CorrectCommission	0.088873	0.292635	1	0
274.651367	0.792157	city	6	1	0.654727	0.654727	0	1	0	0	CorrectCommission	0.143332	0.292994	1	0
275.443542	0.792157	city	10	1	0.564150	0.564150	0	1	0	0	CorrectCommission	0.398108	0.293112	1	0
276.235779	0.792370	city	8	1	0.598109	0.598109	0	1	0	0	CorrectCommission	0.195108	0.293209	1	0
277.028107	0.792231	city	1	1	0.599882	0.599882	0	1	0	0	CorrectCommission	0.184511	0.293327	1	0
277.820343	0.792241	city	3	1	0.600919	0.600919	0	1	0	0	CorrectCommission	0.178311	0.293298	1	0
278.612671	0.792431	mountain	3	1	0.615614	0.615614	0	0	1	0	CommissionError	0.090471	0.292812	1	0
279.404907	0.792046	city	10	1	0.697541	0.697541	0	1	0	0	CorrectCommission	0.399260	0.291509	1	0
280.197113	0.792373	city	5	1	0.762662	0.762662	0	1	0	0	CorrectCommission	0.788529	0.289110	1	0
280.989410	0.792211	city	4	1	0.744651	0.744651	0	1	0	0	CorrectCommission	0.680866	0.285556	1	0
281.781616	0.792209	city	2	1	0.609815	0.609815	0	1	0	0	CorrectCommission	0.125137	0.281087	1	0
282.573883	0.792291	city	10	1	0.604312	0.604312	0	1	0	0	CorrectCommission	0.158032	0.276262	1	0
283.366119	0.792242	city	2	1	0.651941	0.651941	0	1	0	0	CorrectCommission	0.126677	0.271906	1	0
284.158386	0.792261	city	4	1	0.695318	0.695318	0	1	0	0	CorrectCommission	0.385972	0.269014	1	0
284.950745	0.792484	city	6	1	0.663076	0.663076	0	1	0	0	CorrectCommission	0.193241	0.268617	1	0
285.743011	0.792049	city	8	1	0.648332	0.648332	0	1	0	0	CorrectCommission	0.105102	0.271640	1	0
286.535187	0.792267	city	3	1	0.614477	0.614477	0	1	0	0	CorrectCommission	0.097267	0.278763	1	0
287.327515	0.792370	city	9	1	0.646381	0.646381	0	1	0	0	CorrectCommission	0.093441	0.290327	1	0
288.119873	0.792373	city	10	1	0.645650	0.645650	0	1	0	0	CorrectCommission	0.089073	0.306293	1	0
288.912079	0.792047	city	6	1	0.702070	0.702070	0	1	0	0	CorrectCommission	0.426331	0.326242	1	0
289.704254	0.792268	city	2	1	0.696988	0.696988	0	1	0	0	CorrectCommission	0.395954	0.349436	1	0
290.496552	0.792369	city	9	1	0.662850	0.662850	0	1	0	0	CorrectCommission	0.191886	0.374894	1	0
291.288818	0.792156	city	3	1	0.695127	0.695127	0	1	0	0	CorrectCommission	0.384826	0.401505	1	0
292.081055	0.792319	city	10	1	0.748258	0.748258	0	1	0	0	CorrectCommission	0.702428	0.428120	1	0
292.873444	0.792428	city	7	1	0.744875	0.744875	0	1	0	0	CorrectCommission	0.682203	0.453642	1	0
293.665771	0.792264	city	6	1	0.755007	0.755007	0	1	0	0	CorrectCommission	0.742773	0.477095	1	0
294.458038	0.792267	city	2	1	0.648242	0.648242	0	1	0	0	CorrectCommission	0.104566	0.497672	1	0
295.250214	0.792071	city	10	1	0.645664	0.645664	0	1	0	0	CorrectCommission	0.089157	0.514759	1	0
296.042480	0.792457	city	3	1	0.744667	0.744667	0	1	0	0	CorrectCommission	0.680960	0.527930	0	0
296.834778	0.792155	city	6	1	0.794057	0.794057	0	1	0	0	CorrectCommission	0.976199	0.536960	0	0
297.626953	0.792156	city	4	1	0.751321	0.751321	0	1	0	0	CorrectCommission	0.720738	0.541837	0	0
298.419159	0.792267	city	6	1	0.794360	0.794360	0	1	0	0	CorrectCommission	0.978012	0.542752	0	0
299.211456	0.792337	city	3	1	0.706792	0.706792	0	1	0	0	CorrectCommission	0.454557	0.540053	0	0
300.003723	0.792191	city	5	1	0.744676	0.744676	0	1	0	0	CorrectCommission	0.681017	0.534204	0	0
300.795959	0.792275	mountain	9	0	0.000000	0.666828	1	0	0	0	CorrectOmission	0.215667	0.525697	0	0
301.588226	0.792256	city	3	1	0.596321	0.596321	0	1	0	0	CorrectCommission	0.205799	0.515024	1	0
302.380463	0.792265	city	1	1	0.656229	0.656229	0	1	0	0	CorrectCommission	0.152310	0.502643	1	0
303.172729	0.792265	city	5	1	0.745213	0.745213	0	1	0	0	CorrectCommission	0.684228	0.489012	1	0
303.964996	0.792261	city	2	1	0.744923	0.744923	0	1	0	0	CorrectCommission	0.682491	0.474660	1	0
304.757263	0.792267	city	10	1	0.866204	0.866204	0	1	0	0	CorrectCommission	1.407470	0.460309	1	0
305.549530	0.792264	city	1	1	0.647967	0.647967	0	1	0	0	CorrectCommission	0.102925	0.446928	1	1
306.341797	0.792265	city	10	1	0.596696	0.596696	0	1	0	0	CorrectCommission	0.203557	0.435841	1	1
307.134125	0.792374	city	2	1	0.604179	0.604179	0	1	0	0	CorrectCommission	0.158825	0.428661	1	1
307.926392	0.792155	city	8	1	0.553758	0.553758	0	1	0	0	CorrectCommission	0.460225	0.427244	1	1
308.718658	0.792375	mountain	3	1	0.645747	0.645747	0	0	1	0	CommissionError	0.089651	0.433502	1	1
309.510956	0.792263	city	3	1	0.751810	0.751810	0	1	0	0	CorrectCommission	0.723659	0.449212	1	1
310.303192	0.792162	city	9	1	0.702338	0.702338	0	1	0	0	CorrectCommission	0.427937	0.475717	1	1
311.095490	0.792477	city	1	1	0.647351	0.647351	0	1	0	0	CorrectCommission	0.099240	0.513671	1	1
311.887817	0.792155	city	8	1	0.645592	0.645592	0	1	0	0	CorrectCommission	0.088728	0.562798	0	1
312.679962	0.792161	city	10	1	0.605332	0.605332	0	1	0	0	CorrectCommission	0.151936	0.621721	0	1
313.472229	0.792369	city	7	1	0.605341	0.605341	0	1	0	0	CorrectCommission	0.151878	0.687904	0	1
314.264618	0.792374	city	3	1	0.546633	0.546633	0	1	0	0	CorrectCommission	0.502817	0.757784	0	1
315.056885	0.792155	city	4	1	0.497004	0.497004	0	1	0	0	CorrectCommission	0.799480	0.827042	0	1
315.849030	0.792172	city	5	1	0.398048	0.398048	0	1	0	0	CorrectCommission	1.391004	0.891012	0	1
316.641296	0.792358	city	6	1	0.358517	0.358517	0	1	0	0	CorrectCommission	1.627310	0.945189	0	1
317.433594	0.792215	city	8	1	0.358303	0.358303	0	1	0	0	CorrectCommission	1.628587	0.985707	0	1
318.225800	0.792205	city	5	1	0.407220	0.407220	0	1	0	0	CorrectCommission	1.336179	1.009806	0	1
319.018036	0.792270	city	2	1	0.400003	0.400003	0	1	0	0	CorrectCommission	1.379318	1.016085	0	1
319.810394	0.792478	mountain	5	1	0.303977	0.303977	0	0	1	0	CommissionError	1.953329	1.004618	0	1
320.602692	0.792117	city	8	1	0.402510	0.402510	0	1	0	0	CorrectCommission	1.364332	0.976853	0	1
321.394867	0.792235	city	3	1	0.499772	0.499772	0	1	0	0	CorrectCommission	0.782933	0.935417	0	1
322.187134	0.792242	city	2	1	0.745303	0.745303	0	1	0	0	CorrectCommission	0.684761	0.883706	0	1
322.979401	0.792323	city	5	1	0.512464	0.512464	0	1	0	0	CorrectCommission	0.707068	0.825496	0	1
323.771667	0.792190	city	9	1	0.650549	0.650549	0	1	0	0	CorrectCommission	0.118357	0.764537	0	1
324.563934	0.792372	city	3	1	0.497189	0.497189	0	1	0	0	CorrectCommission	0.798374	0.704249	0	1
325.356201	0.792156	mountain	5	0	0.000000	0.498415	1	0	0	0	CorrectOmission	0.791049	0.647453	0	1
326.148407	0.792270	city	1	1	0.563289	0.563289	0	1	0	0	CorrectCommission	0.403253	0.596301	0	1
326.940674	0.792259	city	2	1	0.600876	0.600876	0	1	0	0	CorrectCommission	0.178573	0.552231	0	1
327.733063	0.792483	city	10	1	0.497363	0.497363	0	1	0	0	CorrectCommission	0.797335	0.515990	1	1
328.525330	0.792047	city	2	1	0.552043	0.552043	0	1	0	0	CorrectCommission	0.470475	0.487707	1	1
329.317535	0.792375	mountain	10	1	0.596387	0.596387	0	0	1	0	CommissionError	0.205406	0.467011	1	1
330.109894	0.792373	city	10	1	0.646283	0.646283	0	1	0	0	CorrectCommission	0.092857	0.453100	1	1
330.902100	0.792046	city	4	1	0.655042	0.655042	0	1	0	0	CorrectCommission	0.145214	0.444845	1	1
331.694336	0.792375	mountain	9	1	0.546734	0.546734	0	0	1	0	CommissionError	0.502211	0.440897	1	1
332.486603	0.792187	city	2	1	0.596055	0.596055	0	1	0	0	CorrectCommission	0.207391	0.439801	1	1
333.278809	0.792238	city	8	1	0.794983	0.794983	0	1	0	0	CorrectCommission	0.981732	0.440133	1	1
334.071075	0.792264	city	9	1	0.550205	0.550205	0	1	0	0	CorrectCommission	0.481464	0.440596	1	1
334.863373	0.792369	city	6	1	0.550312	0.550312	0	1	0	0	CorrectCommission	0.480823	0.440156	1	1
335.655701	0.792266	city	8	1	0.557965	0.557965	0	1	0	0	CorrectCommission	0.435075	0.438077	1	1
336.447937	0.792178	city	3	1	0.511737	0.511737	0	1	0	0	CorrectCommission	0.711411	0.433947	1	1
337.240143	0.792241	city	10	1	0.501979	0.501979	0	1	0	0	CorrectCommission	0.769742	0.427634	1	1
338.032379	0.792283	city	6	1	0.645750	0.645750	0	1	0	0	CorrectCommission	0.089670	0.419246	1	1
338.824646	0.792250	city	1	1	0.605611	0.605611	0	1	0	0	CorrectCommission	0.150268	0.409062	1	1
339.616913	0.792274	city	5	1	0.606357	0.606357	0	1	0	0	CorrectCommission	0.145807	0.397441	1	1
340.409180	0.792250	city	1	1	0.695373	0.695373	0	1	0	0	CorrectCommission	0.386298	0.384789	1	1
341.201447	0.792269	city	7	1	0.709148	0.709148	0	1	0	0	CorrectCommission	0.468645	0.371560	1	1
341.993713	0.792262	city	9	1	0.794378	0.794378	0	1	0	0	CorrectCommission	0.978118	0.358274	1	1
342.786072	0.792483	city	10	1	0.695248	0.695248	0	1	0	0	CorrectCommission	0.385552	0.345538	1	1
343.578369	0.792076	city	1	1	0.602879	0.602879	0	1	0	0	CorrectCommission	0.166595	0.334087	1	1
344.370636	0.792454	city	9	1	0.597077	0.597077	0	1	0	0	CorrectCommission	0.201278	0.324784	1	1
345.162994	0.792264	city	1	1	0.612232	0.612232	0	1	0	0	CorrectCommission	0.110689	0.318560	1	1
345.955139	0.792046	city	7	1	0.596336	0.596336	0	1	0	0	CorrectCommission	0.205707	0.316400	1	1
346.747284	0.792267	city	3	1	0.603285	0.603285	0	1	0	0	CorrectCommission	0.164169	0.319268	1	1
347.539551	0.792263	city	9	1	0.563560	0.563560	0	1	0	0	CorrectCommission	0.401633	0.328063	1	1
348.331879	0.792376	city	8	1	0.609755	0.609755	0	1	0	0	CorrectCommission	0.125495	0.343547	1	1
349.124207	0.792263	city	1	1	0.713118	0.713118	0	1	0	0	CorrectCommission	0.492375	0.366305	1	1
349.916412	0.792156	mountain	4	0	0.000000	0.667960	1	0	0	0	CorrectOmission	0.222435	0.396693	1	1
350.708740	0.792483	city	8	1	0.605459	0.605459	0	1	0	0	CorrectCommission	0.151175	0.434796	1	1
351.501038	0.792155	city	7	1	0.656793	0.656793	0	1	0	0	CorrectCommission	0.155682	0.480383	1	1
352.293213	0.792157	city	10	1	0.704158	0.704158	0	1	0	0	CorrectCommission	0.438811	0.532852	0	1
353.085419	0.792290	city	8	1	0.744793	0.744793	0	1	0	0	CorrectCommission	0.681714	0.591181	0	1
353.877808	0.792464	city	5	1	0.751674	0.751674	0	1	0	0	CorrectCommission	0.722850	0.653894	0	1
354.670044	0.792045	city	8	1	0.753185	0.753185	0	1	0	0	CorrectCommission	0.731880	0.719057	0	1
355.462219	0.792264	city	4	1	0.751705	0.751705	0	1	0	0	CorrectCommission	0.723035	0.784326	0	1
356.254486	0.792259	city	10	1	0.705215	0.705215	0	1	0	0	CorrectCommission	0.445129	0.846980	0	1
357.046753	0.792282	city	6	1	0.794445	0.794445	0	1	0	0	CorrectCommission	0.978516	0.904128	0	1
357.839050	0.792321	city	9	1	0.843937	0.843937	0	1	0	0	CorrectCommission	1.274363	0.952916	0	1
358.631409	0.792410	city	2	1	0.744705	0.744705	0	1	0	0	CorrectCommission	0.681192	0.990841	0	1
359.423645	0.792050	city	9	1	0.951308	0.951308	0	1	0	0	CorrectCommission	1.916191	1.016116	0	1
360.215790	0.792263	city	2	1	0.893462	0.893462	0	1	0	0	CorrectCommission	1.570404	1.027977	0	1
361.008057	0.792263	city	1	1	0.893351	0.893351	0	1	0	0	CorrectCommission	1.569741	1.026987	0	1
361.800354	0.792321	city	8	1	0.846629	0.846629	0	1	0	0	CorrectCommission	1.290456	1.015133	0	1
362.592712	0.792427	city	9	1	0.893279	0.893279	0	1	0	0	CorrectCommission	1.569311	0.995786	0	1
363.384979	0.792050	city	7	1	0.797862	0.797862	0	1	0	0	CorrectCommission	0.998941	0.973438	0	1
364.177216	0.792479	city	1	1	0.744861	0.744861	0	1	0	0	CorrectCommission	0.682123	0.953281	0	1
364.969513	0.792089	city	2	1	0.695036	0.695036	0	1	0	0	CorrectCommission	0.384287	0.940618	0	0
365.761688	0.792288	city	1	1	0.695245	0.695245	0	1	0	0	CorrectCommission	0.385535	0.940250	0	0
366.553955	0.792225	city	9	1	0.695201	0.695201	0	1	0	0	CorrectCommission	0.385273	0.955834	0	0
367.346252	0.792348	city	10	1	0.695231	0.695231	0	1	0	0	CorrectCommission	0.385448	0.989410	0	0
368.138489	0.792157	city	3	1	0.695195	0.695195	0	1	0	0	CorrectCommission	0.385238	1.041071	0	0
368.930817	0.792482	city	6	1	0.695252	0.695252	0	1	0	0	CorrectCommission	0.385575	1.108886	0	0
369.723083	0.792062	mountain	6	1	0.794115	0.794115	0	0	1	0	CommissionError	0.976545	1.189049	0	0
370.515259	0.792252	city	2	1	0.992312	0.992312	0	1	0	0	CorrectCommission	2.161296	1.276242	0	0
371.307526	0.792316	city	5	1	0.497912	0.497912	0	1	0	0	CorrectCommission	0.794051	1.364193	0	0
372.099792	0.792212	city	10	1	0.362273	0.362273	0	1	0	0	CorrectCommission	1.604858	1.446423	0	0
372.892029	0.792262	city	4	1	1.042005	1.042005	0	1	0	0	CorrectCommission	2.458343	1.516803	0	0
373.684296	0.792264	city	7	1	0.942974	0.942974	0	1	0	0	CorrectCommission	1.866370	1.570242	0	0
374.476624	0.792374	mountain	2	1	0.961066	0.961066	0	0	1	0	CommissionError	1.974521	1.603197	0	0
375.268921	0.792265	city	2	1	1.100274	1.100274	0	1	0	0	CorrectCommission	2.806658	1.613937	0	0
376.061157	0.792158	city	7	1	1.042071	1.042071	0	1	0	0	CorrectCommission	2.458738	1.602620	0	0
376.853363	0.792267	city	3	1	0.961956	0.961956	0	1	0	0	CorrectCommission	1.979837	1.571158	0	0
377.645691	0.792367	city	10	1	0.893322	0.893322	0	1	0	0	CorrectCommission	1.569572	1.522851	0	0
378.437927	0.792158	city	8	1	0.900159	0.900159	0	1	0	0	CorrectCommission	1.610438	1.461869	0	0
379.230164	0.792285	mountain	10	0	0.000000	0.743442	1	0	0	0	CorrectOmission	0.673637	1.392710	0	0
380.022430	0.792250	city	10	1	0.550445	0.550445	0	1	0	0	CorrectCommission	0.480027	1.319666	0	0
380.814728	0.792368	city	7	1	0.448444	0.448444	0	1	0	0	CorrectCommission	1.089753	1.246429	0	0
381.607117	0.792373	city	6	1	0.447559	0.447559	0	1	0	0	CorrectCommission	1.095044	1.175842	0	0
382.399353	0.792108	city	3	1	0.398062	0.398062	0	1	0	0	CorrectCommission	1.390923	1.109880	0	0
383.191498	0.792219	city	7	1	0.448101	0.448101	0	1	0	0	CorrectCommission	1.091806	1.049719	0	0
383.983795	0.792357	mountain	9	1	0.410790	0.410790	0	0	1	0	CommissionError	1.314841	0.995930	0	0
384.776062	0.792156	city	9	1	0.448237	0.448237	0	1	0	0	CorrectCommission	1.090995	0.948698	0	0
385.568298	0.792306	city	7	1	0.646019	0.646019	0	1	0	0	CorrectCommission	0.091280	0.908045	0	0
386.360565	0.792227	city	5	1	0.652944	0.652944	0	1	0	0	CorrectCommission	0.132673	0.873991	0	0
387.152863	0.792369	city	10	1	0.893295	0.893295	0	1	0	0	CorrectCommission	1.569407	0.846599	0	0
387.945129	0.792162	city	1	1	0.804324	0.804324	0	1	0	0	CorrectCommission	1.037573	0.825979	0	0
388.737335	0.792263	city	4	1	0.748505	0.748505	0	1	0	0	CorrectCommission	0.703904	0.812350	0	0
389.529602	0.792264	city	8	1	0.748258	0.748258	0	1	0	0	CorrectCommission	0.702427	0.805887	0	0
390.321869	0.792265	city	9	1	0.752384	0.752384	0	1	0	0	CorrectCommission	0.727094	0.806633	0	0
391.114136	0.792261	city	8	1	0.645855	0.645855	0	1	0	0	CorrectCommission	0.090296	0.814453	0	0
391.906372	0.792270	mountain	6	0	0.000000	0.553300	1	0	0	0	CorrectOmission	0.462964	0.829023	0	0
392.698639	0.792263	city	9	1	0.497121	0.497121	0	1	0	0	CorrectCommission	0.798784	0.849787	0	0
393.490906	0.792262	city	2	1	0.499718	0.499718	0	1	0	0	CorrectCommission	0.783257	0.876044	0	0
394.283203	0.792292	mountain	5	1	0.349783	0.349783	0	0	1	0	CommissionError	1.679519	0.907002	0	0
395.075470	0.792258	city	8	1	0.511910	0.511910	0	1	0	0	CorrectCommission	0.710378	0.941804	0	0
395.867706	0.792244	city	6	1	0.468169	0.468169	0	1	0	0	CorrectCommission	0.971846	0.979569	0	0
396.659973	0.792270	city	8	1	0.447696	0.447696	0	1	0	0	CorrectCommission	1.094224	1.019276	0	0
397.452240	0.792263	city	2	1	0.398175	0.398175	0	1	0	0	CorrectCommission	1.390247	1.059657	0	0
398.244507	0.792260	city	10	1	0.409580	0.409580	0	1	0	0	CorrectCommission	1.322071	1.099044	0	0
399.036774	0.792269	city	8	1	0.596258	0.596258	0	1	0	0	CorrectCommission	0.206176	1.135278	0	0
399.829102	0.792368	city	10	1	0.546725	0.546725	0	1	0	0	CorrectCommission	0.502269	1.165706	0	0
400.621368	0.792162	city	7	1	0.447602	0.447602	0	1	0	0	CorrectCommission	1.094788	1.187300	0	0
401.413666	0.792478	city	5	1	0.407611	0.407611	0	1	0	0	CorrectCommission	1.333840	1.196978	0	0
402.205933	0.792049	city	4	1	0.355885	0.355885	0	1	0	0	CorrectCommission	1.643043	1.192061	0	0
402.998108	0.792316	city	3	1	1.041835	1.041835	0	1	0	0	CorrectCommission	2.457328	1.170766	0	0
403.790375	0.792213	city	5	1	1.055437	1.055437	0	1	0	0	CorrectCommission	2.538634	1.132602	0	0
404.582611	0.792241	city	1	1	0.998978	0.998978	0	1	0	0	CorrectCommission	2.201145	1.078636	0	0
405.374878	0.792287	city	9	0	0.000000	0.820403	0	0	0	1	OmissionError	1.133688	1.011504	0	0
406.167145	0.792264	city	3	1	0.646168	0.646168	0	1	0	0	CorrectCommission	0.092172	0.935146	0	0
406.959534	0.792481	city	8	1	0.602729	0.602729	0	1	0	0	CorrectCommission	0.167495	0.854323	0	0
407.751801	0.792078	city	2	1	0.551494	0.551494	0	1	0	0	CorrectCommission	0.473757	0.773975	0	0
408.543945	0.792234	mountain	10	1	0.502098	0.502098	0	0	1	0	CommissionError	0.769032	0.698634	0	0
409.336212	0.792269	city	4	1	0.645808	0.645808	0	1	0	0	CorrectCommission	0.090020	0.631883	0	0
410.128571	0.792477	city	6	1	0.605760	0.605760	0	1	0	0	CorrectCommission	0.149375	0.576019	0	0
410.920898	0.792155	city	10	1	0.596630	0.596630	0	1	0	0	CorrectCommission	0.203949	0.531904	0	0
411.713043	0.792157	city	4	1	0.645637	0.645637	0	1	0	0	CorrectCommission	0.088993	0.499035	1	0
412.505280	0.792265	city	1	1	0.645722	0.645722	0	1	0	0	CorrectCommission	0.089504	0.475852	1	0
413.297546	0.792266	city	9	1	0.500814	0.500814	0	1	0	0	CorrectCommission	0.776704	0.460076	1	0
414.089905	0.792482	city	2	1	0.452452	0.452452	0	1	0	0	CorrectCommission	1.065795	0.449142	1	0
414.882233	0.792155	city	9	1	0.508545	0.508545	0	1	0	0	CorrectCommission	0.730493	0.440611	1	0
415.674500	0.792374	city	4	1	0.515532	0.515532	0	1	0	0	CorrectCommission	0.688728	0.432479	1	0
416.466705	0.792048	mountain	10	1	0.572327	0.572327	0	0	1	0	CommissionError	0.349228	0.423358	1	0
417.258850	0.792265	city	4	1	0.645750	0.645750	0	1	0	0	CorrectCommission	0.089672	0.412530	1	0
418.051239	0.792480	city	3	1	0.596229	0.596229	0	1	0	0	CorrectCommission	0.206347	0.399899	1	0
418.843597	0.792266	city	10	1	0.598794	0.598794	0	1	0	0	CorrectCommission	0.191016	0.385875	1	0
419.635773	0.792048	city	2	1	0.505871	0.505871	0	1	0	0	CorrectCommission	0.746476	0.371241	1	0
420.427917	0.792264	city	6	1	0.505806	0.505806	0	1	0	0	CorrectCommission	0.746864	0.356969	1	0
421.220184	0.792262	city	9	1	0.596361	0.596361	0	1	0	0	CorrectCommission	0.205557	0.344097	1	0
422.012482	0.792328	city	10	1	0.601026	0.601026	0	1	0	0	CorrectCommission	0.177675	0.333590	1	0
422.804749	0.792205	city	5	1	0.656952	0.656952	0	1	0	0	CorrectCommission	0.156634	0.326197	1	0
423.597015	0.792368	city	8	1	0.656347	0.656347	0	1	0	0	CorrectCommission	0.153018	0.322366	1	0
424.389313	0.792218	city	3	1	0.596205	0.596205	0	1	0	0	CorrectCommission	0.206492	0.322144	1	1
425.181519	0.792204	city	9	1	0.645710	0.645710	0	1	0	0	CorrectCommission	0.089429	0.325154	1	1
425.973816	0.792372	city	5	1	0.695228	0.695228	0	1	0	0	CorrectCommission	0.385432	0.330611	1	1
426.766083	0.792165	city	2	1	0.601580	0.601580	0	1	0	0	CorrectCommission	0.174364	0.337405	1	1
427.558319	0.792272	city	6	1	0.744897	0.744897	0	1	0	0	CorrectCommission	0.682338	0.344243	1	1
428.350616	0.792320	city	10	1	0.651636	0.651636	0	1	0	0	CorrectCommission	0.124857	0.349772	1	1
429.142975	0.792411	city	1	1	0.596051	0.596051	0	1	0	0	CorrectCommission	0.207414	0.352817	1	1
429.935211	0.792048	city	6	1	0.758331	0.758331	0	1	0	0	CorrectCommission	0.762639	0.352505	1	1
430.727478	0.792482	city	5	1	0.794334	0.794334	0	1	0	0	CorrectCommission	0.977854	0.348381	1	1
431.519745	0.792085	city	7	1	0.744561	0.744561	0	1	0	0	CorrectCommission	0.680329	0.340483	1	1
432.311920	0.792265	city	3	1	0.645806	0.645806	0	1	0	0	CorrectCommission	0.090003	0.329325	1	1
433.104187	0.792251	city	4	1	0.614138	0.614138	0	1	0	0	CorrectCommission	0.099292	0.315796	1	1
433.896423	0.792244	city	10	1	0.614337	0.614337	0	1	0	0	CorrectCommission	0.098104	0.300987	1	1
434.688721	0.792319	city	1	1	0.601667	0.601667	0	1	0	0	CorrectCommission	0.173843	0.286036	1	1
435.480988	0.792261	city	5	1	0.558919	0.558919	0	1	0	0	CorrectCommission	0.429373	0.271945	1	1
436.273254	0.792264	city	7	1	0.605294	0.605294	0	1	0	0	CorrectCommission	0.152163	0.259452	1	1
437.065552	0.792292	city	6	1	0.597030	0.597030	0	1	0	0	CorrectCommission	0.201559	0.248952	1	1
437.857788	0.792182	city	10	1	0.645746	0.645746	0	1	0	0	CorrectCommission	0.089646	0.240476	1	1
438.649994	0.792265	city	1	1	0.596546	0.596546	0	1	0	0	CorrectCommission	0.204453	0.233738	1	1
439.442261	0.792275	city	6	1	0.655380	0.655380	0	1	0	0	CorrectCommission	0.147233	0.228228	1	1
440.234528	0.792255	city	4	1	0.596550	0.596550	0	1	0	0	CorrectCommission	0.204430	0.223343	1	1
441.026794	0.792273	city	10	1	0.572542	0.572542	0	1	0	0	CorrectCommission	0.347939	0.218528	1	1
441.819122	0.792367	mountain	8	0	0.000000	0.671255	1	0	0	0	CorrectOmission	0.242129	0.213423	1	1
442.611389	0.792154	city	9	1	0.744947	0.744947	0	1	0	0	CorrectCommission	0.682638	0.207998	1	1
443.403595	0.792278	city	6	1	0.645880	0.645880	0	1	0	0	CorrectCommission	0.090448	0.202610	1	1
444.195862	0.792256	city	3	1	0.603841	0.603841	0	1	0	0	CorrectCommission	0.160845	0.198092	1	1
444.988190	0.792369	mountain	6	0	0.000000	0.609312	1	0	0	0	CorrectOmission	0.128143	0.195693	1	1
445.780426	0.792158	mountain	5	0	0.000000	0.635790	1	0	0	0	CorrectOmission	0.030133	0.197038	1	1
446.572662	0.792267	city	6	1	0.656773	0.656773	0	1	0	0	CorrectCommission	0.155561	0.204011	1	1
447.364929	0.792259	city	7	1	0.645758	0.645758	0	1	0	0	CorrectCommission	0.089719	0.218605	1	1
448.157166	0.792265	city	4	1	0.605017	0.605017	0	1	0	0	CorrectCommission	0.153817	0.242746	1	1
448.949463	0.792324	mountain	5	0	0.000000	0.629698	1	0	0	0	CorrectOmission	0.006281	0.278071	1	1
449.741791	0.792293	city	5	1	0.650931	0.650931	0	1	0	0	CorrectCommission	0.120642	0.325688	1	1
450.534027	0.792181	city	1	1	0.599846	0.599846	0	1	0	0	CorrectCommission	0.184729	0.385930	1	1
451.326355	0.792480	city	3	1	0.604060	0.604060	0	1	0	0	CorrectCommission	0.159537	0.458133	1	1
452.118713	0.792266	city	9	1	0.596033	0.596033	0	1	0	0	CorrectCommission	0.207522	0.540488	0	1
452.910919	0.792101	city	3	1	0.555369	0.555369	0	1	0	0	CorrectCommission	0.450594	0.629975	0	1
453.703064	0.792212	city	6	1	0.645667	0.645667	0	1	0	0	CorrectCommission	0.089176	0.722458	0	1
454.495361	0.792371	city	3	1	0.504302	0.504302	0	1	0	0	CorrectCommission	0.755854	0.812932	0	1
455.287720	0.792373	city	4	1	0.447576	0.447576	0	1	0	0	CorrectCommission	1.094942	0.895895	0	1
456.080048	0.792264	city	8	1	0.401430	0.401430	0	1	0	0	CorrectCommission	1.370786	0.965888	0	1
456.872192	0.792048	city	7	1	0.357527	0.357527	0	1	0	0	CorrectCommission	1.633227	1.018071	0	1
457.664368	0.792306	city	8	1	0.309277	0.309277	0	1	0	0	CorrectCommission	1.921647	1.048771	0	1
458.456635	0.792223	city	7	1	0.299118	0.299118	0	1	0	0	CorrectCommission	1.982374	1.055915	0	1
459.248901	0.792268	city	10	1	0.299139	0.299139	0	1	0	0	CorrectCommission	1.982246	1.039277	0	1
460.041138	0.792261	mountain	7	1	0.299131	0.299131	0	0	1	0	CommissionError	1.982299	1.000482	0	1
460.833435	0.792309	mountain	5	1	0.459261	0.459261	0	0	1	0	CommissionError	1.025093	0.942751	0	1
461.625702	0.792224	city	8	1	0.645923	0.645923	0	1	0	0	CorrectCommission	0.090708	0.870500	0	1
462.417938	0.792263	city	4	1	0.598734	0.598734	0	1	0	0	CorrectCommission	0.191377	0.788779	0	1
463.210236	0.792325	city	1	1	0.546683	0.546683	0	1	0	0	CorrectCommission	0.502515	0.702703	0	1
464.002502	0.792206	city	10	1	0.497141	0.497141	0	1	0	0	CorrectCommission	0.798663	0.616977	0	1
464.794769	0.792297	city	4	1	0.596671	0.596671	0	1	0	0	CorrectCommission	0.203708	0.535550	0	1
465.587036	0.792234	city	10	1	0.555861	0.555861	0	1	0	0	CorrectCommission	0.447653	0.461431	1	1
466.379272	0.792284	city	9	1	0.598929	0.598929	0	1	0	0	CorrectCommission	0.190208	0.396604	1	1
467.171661	0.792460	city	8	1	0.598728	0.598728	0	1	0	0	CorrectCommission	0.191409	0.342113	1	1
467.963898	0.792047	city	10	1	0.645565	0.645565	0	1	0	0	CorrectCommission	0.088567	0.298188	1	1
468.756073	0.792264	city	3	1	0.654327	0.654327	0	1	0	0	CorrectCommission	0.140939	0.264423	1	1
469.548340	0.792287	city	2	1	0.610802	0.610802	0	1	0	0	CorrectCommission	0.119234	0.239934	1	1
470.340698	0.792460	city	7	1	0.610093	0.610093	0	1	0	0	CorrectCommission	0.123473	0.223537	1	1
471.132965	0.792048	city	8	1	0.656247	0.656247	0	1	0	0	CorrectCommission	0.152418	0.213918	1	1
471.925232	0.792482	city	4	1	0.645635	0.645635	0	1	0	0	CorrectCommission	0.088983	0.209743	1	1
472.717560	0.792156	city	9	1	0.647854	0.647854	0	1	0	0	CorrectCommission	0.102250	0.209803	1	1
473.509705	0.792171	city	1	1	0.658019	0.658019	0	1	0	0	CorrectCommission	0.163010	0.213145	1	1
474.301910	0.792249	city	4	1	0.648228	0.648228	0	1	0	0	CorrectCommission	0.104483	0.219187	1	1
475.094238	0.792373	city	10	1	0.794301	0.794301	0	1	0	0	CorrectCommission	0.977656	0.227780	1	1
475.886505	0.792159	city	6	1	0.655298	0.655298	0	1	0	0	CorrectCommission	0.146746	0.239266	1	1
476.678711	0.792265	city	9	1	0.645884	0.645884	0	1	0	0	CorrectCommission	0.090473	0.254502	1	1
477.470978	0.792261	city	1	1	0.596200	0.596200	0	1	0	0	CorrectCommission	0.206520	0.274745	1	1
478.263245	0.792268	city	7	1	0.656089	0.656089	0	1	0	0	CorrectCommission	0.151476	0.301549	1	1
479.055603	0.792479	city	1	1	0.664262	0.664262	0	1	0	0	CorrectCommission	0.200326	0.336601	1	1
479.847870	0.792048	city	8	1	0.596137	0.596137	0	1	0	0	CorrectCommission	0.206899	0.381503	1	1
480.640045	0.792264	city	10	1	0.650350	0.650350	0	1	0	0	CorrectCommission	0.117165	0.437584	1	1
481.432343	0.792373	city	7	1	0.662097	0.662097	0	1	0	0	CorrectCommission	0.187385	0.505732	1	1
482.224609	0.792155	city	2	1	0.661521	0.661521	0	1	0	0	CorrectCommission	0.183945	0.586281	0	1
483.016815	0.792274	city	9	1	0.695232	0.695232	0	1	0	0	CorrectCommission	0.385455	0.678940	0	1
483.809082	0.792256	city	7	1	0.794191	0.794191	0	1	0	0	CorrectCommission	0.976999	0.782777	0	1
484.601410	0.792376	city	2	1	0.699929	0.699929	0	1	0	0	CorrectCommission	0.413536	0.896290	0	1
485.393677	0.792157	city	10	1	0.794218	0.794218	0	1	0	0	CorrectCommission	0.977161	1.017509	0	1
486.185944	0.792371	city	6	1	0.893607	0.893607	0	1	0	0	CorrectCommission	1.571272	1.144067	0	1
486.978210	0.792174	city	4	1	0.843767	0.843767	0	1	0	0	CorrectCommission	1.273350	1.273350	0	1
