onset	duration	trial_type	image_type	Press	ReactionTime	ReactionTime_Interpolated	CorrectOmission	CorrectCommission	CommissionError	OmissionError	response_type	nonsmoothVarianceTimeCourse	VarianceTimeCourse	In_the_Zone	Reward_trial
8.438337	0.795694	city	10	1	0.847973	0.847973	0	1	0	0	CorrectCommission	2.814489	2.814489	0	1
9.234113	0.795856	city	5	1	0.648642	0.648642	0	1	0	0	CorrectCommission	0.041143	2.556350	0	1
10.029945	0.795809	city	4	1	0.608700	0.608700	0	1	0	0	CorrectCommission	0.514568	2.305763	0	1
10.825734	0.795769	city	5	1	0.549102	0.549102	0	1	0	0	CorrectCommission	1.343770	2.069476	0	1
11.621559	0.795882	city	3	1	0.549279	0.549279	0	1	0	0	CorrectCommission	1.341309	1.852893	0	1
12.417350	0.795699	city	10	1	0.509356	0.509356	0	1	0	0	CorrectCommission	1.896778	1.659761	0	1
13.213098	0.795797	city	9	1	0.562520	0.562520	0	1	0	0	CorrectCommission	1.157089	1.492037	0	1
14.008897	0.795800	city	10	1	0.549168	0.549168	0	1	0	0	CorrectCommission	1.342855	1.350103	0	1
14.804807	0.796020	city	9	1	0.598855	0.598855	0	1	0	0	CorrectCommission	0.651549	1.233103	0	1
15.600718	0.795802	city	1	1	0.599010	0.599010	0	1	0	0	CorrectCommission	0.649391	1.139380	0	1
16.396412	0.795586	city	3	1	0.556422	0.556422	0	1	0	0	CorrectCommission	1.241936	1.066833	0	1
17.192106	0.795800	mountain	3	0	0.000000	0.570559	1	0	0	0	CorrectOmission	1.045235	1.013219	0	1
17.987907	0.795802	city	1	1	0.598891	0.598891	0	1	0	0	CorrectCommission	0.651048	0.976374	0	1
18.783724	0.795835	city	9	1	0.598885	0.598885	0	1	0	0	CorrectCommission	0.651133	0.954227	0	1
19.579527	0.795768	city	1	1	0.549658	0.549658	0	1	0	0	CorrectCommission	1.336041	0.944735	0	1
20.375311	0.795801	city	6	1	0.649333	0.649333	0	1	0	0	CorrectCommission	0.050769	0.945799	0	1
21.171116	0.795810	mountain	9	0	0.000000	0.608031	1	0	0	0	CorrectOmission	0.523885	0.955175	0	1
21.966919	0.795795	city	10	1	0.549850	0.549850	0	1	0	0	CorrectCommission	1.333365	0.970356	0	1
22.762716	0.795802	city	2	1	0.598892	0.598892	0	1	0	0	CorrectCommission	0.651033	0.988623	0	1
23.558571	0.795906	city	6	1	0.598965	0.598965	0	1	0	0	CorrectCommission	0.650019	1.007220	0	1
24.354372	0.795695	city	8	1	0.509052	0.509052	0	1	0	0	CorrectCommission	1.900997	1.023521	0	1
25.150120	0.795800	city	4	1	0.562643	0.562643	0	1	0	0	CorrectCommission	1.155380	1.035272	0	1
25.946030	0.796021	city	7	1	0.549212	0.549212	0	1	0	0	CorrectCommission	1.342244	1.040939	0	1
26.741940	0.795800	city	4	1	0.549294	0.549294	0	1	0	0	CorrectCommission	1.341102	1.039841	0	1
27.537663	0.795645	city	2	1	0.548927	0.548927	0	1	0	0	CorrectCommission	1.346214	1.032206	0	1
28.333364	0.795759	city	8	1	0.549114	0.549114	0	1	0	0	CorrectCommission	1.343614	1.019094	0	1
29.129158	0.795828	mountain	5	0	0.000000	0.584880	1	0	0	0	CorrectOmission	0.845985	1.002216	0	1
29.925005	0.795866	city	6	1	0.602783	0.602783	0	1	0	0	CorrectCommission	0.596902	0.983614	0	1
30.720785	0.795696	city	7	1	0.549378	0.549378	0	1	0	0	CorrectCommission	1.339941	0.965293	0	1
31.516642	0.796016	mountain	5	0	0.000000	0.598296	1	0	0	0	CorrectOmission	0.659330	0.948827	0	1
32.312550	0.795803	city	5	1	0.648436	0.648436	0	1	0	0	CorrectCommission	0.038279	0.935146	0	1
33.108353	0.795800	city	4	1	0.598696	0.598696	0	1	0	0	CorrectCommission	0.653767	0.924328	0	1
33.904045	0.795582	city	1	1	0.566930	0.566930	0	1	0	0	CorrectCommission	1.095735	0.915608	0	1
34.699791	0.795913	city	5	1	0.599024	0.599024	0	1	0	0	CorrectCommission	0.649198	0.907569	0	1
35.495647	0.795801	city	2	1	0.549053	0.549053	0	1	0	0	CorrectCommission	1.344459	0.898443	0	1
36.291393	0.795693	city	7	1	0.549511	0.549511	0	1	0	0	CorrectCommission	1.338081	0.886477	0	1
37.087143	0.795801	city	1	1	0.599058	0.599058	0	1	0	0	CorrectCommission	0.648719	0.870351	0	1
37.882946	0.795806	city	5	1	0.556781	0.556781	0	1	0	0	CorrectCommission	1.236939	0.849530	0	1
38.678802	0.795907	city	10	1	0.549704	0.549704	0	1	0	0	CorrectCommission	1.335402	0.824383	0	1
39.474709	0.795909	city	1	1	0.553713	0.553713	0	1	0	0	CorrectCommission	1.279627	0.796298	0	1
40.270458	0.795584	mountain	2	0	0.000000	0.578537	1	0	0	0	CorrectOmission	0.934234	0.767502	0	1
41.066151	0.795801	mountain	7	0	0.000000	0.612514	1	0	0	0	CorrectOmission	0.461511	0.740752	0	1
41.861954	0.795806	mountain	2	0	0.000000	0.643978	1	0	0	0	CorrectOmission	0.023746	0.718924	0	1
42.657757	0.795801	mountain	3	0	0.000000	0.661265	1	0	0	0	CorrectOmission	0.216771	0.704661	1	1
43.453556	0.795797	city	2	1	0.652710	0.652710	0	1	0	0	CorrectCommission	0.097753	0.700009	1	1
44.249413	0.795914	city	1	1	0.606651	0.606651	0	1	0	0	CorrectCommission	0.543089	0.706210	1	1
45.045269	0.795800	city	3	1	0.601250	0.601250	0	1	0	0	CorrectCommission	0.618234	0.723604	0	1
45.841122	0.795910	city	7	1	0.598969	0.598969	0	1	0	0	CorrectCommission	0.649959	0.751706	0	1
46.636978	0.795802	city	3	1	0.611269	0.611269	0	1	0	0	CorrectCommission	0.478837	0.789345	0	1
47.432671	0.795584	city	7	1	0.710819	0.710819	0	1	0	0	CorrectCommission	0.906228	0.834895	0	1
48.228363	0.795802	city	6	1	0.698710	0.698710	0	1	0	0	CorrectCommission	0.737753	0.886415	0	1
49.024166	0.795801	mountain	8	0	0.000000	0.776429	1	0	0	0	CorrectOmission	1.819077	0.941825	0	1
49.819969	0.795805	city	6	1	0.797845	0.797845	0	1	0	0	CorrectCommission	2.117047	0.998917	0	1
50.615776	0.795808	city	3	1	0.616828	0.616828	0	1	0	0	CorrectCommission	0.401490	1.055366	0	1
51.411575	0.795794	city	6	1	0.648953	0.648953	0	1	0	0	CorrectCommission	0.045472	1.108699	0	1
52.207371	0.795798	mountain	1	0	0.000000	0.685352	1	0	0	0	CorrectOmission	0.551901	1.156269	0	1
53.003174	0.795804	city	8	1	0.698451	0.698451	0	1	0	0	CorrectCommission	0.734155	1.195361	0	1
53.798977	0.795800	city	3	1	0.660676	0.660676	0	1	0	0	CorrectCommission	0.208588	1.223440	0	1
54.594776	0.795804	city	6	1	0.897301	0.897301	0	1	0	0	CorrectCommission	3.500807	1.238480	0	1
55.390579	0.795802	mountain	6	0	0.000000	0.915942	1	0	0	0	CorrectOmission	3.760162	1.239200	0	1
56.186382	0.795800	mountain	7	0	0.000000	0.816372	1	0	0	0	CorrectOmission	2.374826	1.225419	0	1
56.982182	0.795803	city	3	1	0.698366	0.698366	0	1	0	0	CorrectCommission	0.732972	1.198094	0	1
57.778008	0.795848	city	4	1	0.661696	0.661696	0	1	0	0	CorrectCommission	0.222775	1.159154	0	1
58.573917	0.795974	city	2	1	0.605151	0.605151	0	1	0	0	CorrectCommission	0.563958	1.111167	0	1
59.369698	0.795582	city	8	1	0.599252	0.599252	0	1	0	0	CorrectCommission	0.646026	1.056942	0	1
60.165390	0.795804	city	1	1	0.598926	0.598926	0	1	0	0	CorrectCommission	0.650564	0.999146	0	1
60.961193	0.795798	city	8	1	0.559643	0.559643	0	1	0	0	CorrectCommission	1.197117	0.940013	0	1
61.756992	0.795801	city	7	1	0.599919	0.599919	0	1	0	0	CorrectCommission	0.636743	0.881185	0	1
62.552795	0.795805	city	9	1	0.549173	0.549173	0	1	0	0	CorrectCommission	1.342786	0.823763	0	1
63.348705	0.796018	city	2	1	0.549836	0.549836	0	1	0	0	CorrectCommission	1.333559	0.768358	0	1
64.144524	0.795621	city	5	1	0.598702	0.598702	0	1	0	0	CorrectCommission	0.653681	0.715290	0	1
64.940323	0.795981	city	9	1	0.610815	0.610815	0	1	0	0	CorrectCommission	0.485143	0.664716	1	1
65.736107	0.795585	city	2	1	0.603782	0.603782	0	1	0	0	CorrectCommission	0.583000	0.616720	1	1
66.531799	0.795802	city	5	1	0.651251	0.651251	0	1	0	0	CorrectCommission	0.077446	0.571366	1	1
67.327606	0.795803	city	9	1	0.655868	0.655868	0	1	0	0	CorrectCommission	0.141682	0.528732	1	1
68.123405	0.795798	city	1	1	0.698348	0.698348	0	1	0	0	CorrectCommission	0.732721	0.488929	1	0
68.919205	0.795803	mountain	10	0	0.000000	0.689036	1	0	0	0	CorrectOmission	0.603159	0.452094	1	0
69.715034	0.795849	city	7	1	0.649117	0.649117	0	1	0	0	CorrectCommission	0.047752	0.418410	1	0
70.510834	0.795752	city	1	1	0.599775	0.599775	0	1	0	0	CorrectCommission	0.638748	0.388129	1	0
71.306610	0.795800	city	8	1	0.601826	0.601826	0	1	0	0	CorrectCommission	0.610213	0.361570	1	0
72.102417	0.795808	city	7	1	0.608517	0.608517	0	1	0	0	CorrectCommission	0.517120	0.339062	1	0
72.898216	0.795796	city	10	1	0.649172	0.649172	0	1	0	0	CorrectCommission	0.048518	0.320923	1	0
73.694016	0.795803	city	8	1	0.648646	0.648646	0	1	0	0	CorrectCommission	0.041208	0.307418	1	0
74.489815	0.795802	city	9	1	0.654115	0.654115	0	1	0	0	CorrectCommission	0.117303	0.298660	1	0
75.285728	0.796019	city	3	1	0.648786	0.648786	0	1	0	0	CorrectCommission	0.043147	0.294545	1	0
76.081551	0.795629	city	6	1	0.651881	0.651881	0	1	0	0	CorrectCommission	0.086220	0.294745	1	0
76.877266	0.795802	city	7	1	0.649310	0.649310	0	1	0	0	CorrectCommission	0.050441	0.298760	1	0
77.673157	0.795975	city	6	1	0.614139	0.614139	0	1	0	0	CorrectCommission	0.438899	0.306028	1	0
78.468964	0.795636	city	5	1	0.611584	0.611584	0	1	0	0	CorrectCommission	0.474449	0.316031	1	0
79.264664	0.795767	city	10	1	0.598839	0.598839	0	1	0	0	CorrectCommission	0.651769	0.328440	1	0
80.060440	0.795782	city	9	1	0.606342	0.606342	0	1	0	0	CorrectCommission	0.547383	0.343154	1	0
80.856232	0.795803	city	10	1	0.616313	0.616313	0	1	0	0	CorrectCommission	0.408655	0.360296	1	0
81.652031	0.795804	city	2	1	0.611203	0.611203	0	1	0	0	CorrectCommission	0.479743	0.380146	1	0
82.447838	0.795797	city	6	1	0.649699	0.649699	0	1	0	0	CorrectCommission	0.055856	0.402963	1	0
83.243637	0.795806	mountain	2	0	0.000000	0.655995	1	0	0	0	CorrectOmission	0.143455	0.428779	1	0
84.039490	0.795907	city	10	1	0.649219	0.649219	0	1	0	0	CorrectCommission	0.049172	0.457266	1	0
84.835403	0.795910	city	2	1	0.648497	0.648497	0	1	0	0	CorrectCommission	0.039130	0.487636	1	0
85.631172	0.795627	city	10	1	0.608407	0.608407	0	1	0	0	CorrectCommission	0.518651	0.518655	1	0
86.426971	0.795981	city	3	1	0.698366	0.698366	0	1	0	0	CorrectCommission	0.732970	0.548781	1	0
87.222755	0.795579	city	9	1	0.707998	0.707998	0	1	0	0	CorrectCommission	0.866983	0.576427	1	0
88.018448	0.795804	city	2	1	0.599228	0.599228	0	1	0	0	CorrectCommission	0.646358	0.600175	1	0
88.814247	0.795804	city	8	1	0.549169	0.549169	0	1	0	0	CorrectCommission	1.342845	0.619047	1	0
89.610161	0.796015	city	9	1	0.748064	0.748064	0	1	0	0	CorrectCommission	1.424438	0.632623	1	0
90.405960	0.795583	city	3	1	0.699308	0.699308	0	1	0	0	CorrectCommission	0.746073	0.641118	1	0
91.201660	0.795822	city	2	1	0.665968	0.665968	0	1	0	0	CorrectCommission	0.282213	0.645282	1	0
91.997505	0.795863	city	7	1	0.649375	0.649375	0	1	0	0	CorrectCommission	0.051341	0.646194	1	0
92.793350	0.795828	city	3	1	0.665516	0.665516	0	1	0	0	CorrectCommission	0.275925	0.645050	1	0
93.589111	0.795697	city	8	1	0.698522	0.698522	0	1	0	0	CorrectCommission	0.735136	0.642920	1	0
94.384888	0.795856	city	4	1	0.701912	0.701912	0	1	0	0	CorrectCommission	0.782310	0.640634	1	0
95.180687	0.795745	city	10	1	0.698328	0.698328	0	1	0	0	CorrectCommission	0.732449	0.638681	1	0
95.976463	0.795803	city	7	1	0.663339	0.663339	0	1	0	0	CorrectCommission	0.245638	0.637268	1	0
96.772316	0.795907	city	5	1	0.715297	0.715297	0	1	0	0	CorrectCommission	0.968544	0.636375	1	0
97.568115	0.795692	city	9	1	0.748591	0.748591	0	1	0	0	CorrectCommission	1.431767	0.635861	1	0
98.363892	0.795858	city	1	1	0.648784	0.648784	0	1	0	0	CorrectCommission	0.043124	0.635596	1	0
99.159805	0.795965	city	3	1	0.598864	0.598864	0	1	0	0	CorrectCommission	0.651425	0.635539	1	0
99.955582	0.795587	city	5	1	0.615990	0.615990	0	1	0	0	CorrectCommission	0.413148	0.635717	1	0
100.751297	0.795859	city	6	1	0.615603	0.615603	0	1	0	0	CorrectCommission	0.418527	0.636260	1	0
101.547104	0.795743	city	9	1	0.599333	0.599333	0	1	0	0	CorrectCommission	0.644898	0.637363	1	0
102.342987	0.796020	city	10	1	0.550810	0.550810	0	1	0	0	CorrectCommission	1.320014	0.639231	1	0
103.138786	0.795580	city	8	1	0.598751	0.598751	0	1	0	0	CorrectCommission	0.653000	0.642006	1	0
103.934586	0.796022	city	4	1	0.608600	0.608600	0	1	0	0	CorrectCommission	0.515963	0.645745	1	0
104.730415	0.795641	city	8	1	0.648391	0.648391	0	1	0	0	CorrectCommission	0.037660	0.650350	1	0
105.526131	0.795788	city	6	1	0.605679	0.605679	0	1	0	0	CorrectCommission	0.556603	0.655592	1	0
106.321960	0.795865	city	9	1	0.598828	0.598828	0	1	0	0	CorrectCommission	0.651930	0.661141	1	0
107.117767	0.795757	city	1	1	0.599245	0.599245	0	1	0	0	CorrectCommission	0.646128	0.666630	1	0
107.913513	0.795739	city	7	1	0.561405	0.561405	0	1	0	0	CorrectCommission	1.172598	0.671776	1	0
108.709290	0.795802	city	1	1	0.598967	0.598967	0	1	0	0	CorrectCommission	0.649986	0.676448	1	0
109.505089	0.795799	city	10	1	0.549177	0.549177	0	1	0	0	CorrectCommission	1.342727	0.680773	1	0
110.300896	0.795824	mountain	4	0	0.000000	0.623702	1	0	0	0	CorrectOmission	0.305851	0.685111	1	0
111.096703	0.795781	city	2	1	0.698288	0.698288	0	1	0	0	CorrectCommission	0.731889	0.690094	1	0
111.892494	0.795800	city	9	1	0.648685	0.648685	0	1	0	0	CorrectCommission	0.041741	0.696495	1	0
112.688293	0.795803	city	2	1	0.616093	0.616093	0	1	0	0	CorrectCommission	0.411714	0.705183	1	0
113.484093	0.795799	city	4	1	0.749276	0.749276	0	1	0	0	CorrectCommission	1.441300	0.716985	0	0
114.280006	0.796022	city	9	1	0.698430	0.698430	0	1	0	0	CorrectCommission	0.733869	0.732572	0	0
115.075867	0.795693	city	2	1	0.603954	0.603954	0	1	0	0	CorrectCommission	0.580606	0.752419	0	0
115.871559	0.795691	city	7	1	0.648551	0.648551	0	1	0	0	CorrectCommission	0.039886	0.776704	0	0
116.667305	0.795809	city	1	1	0.598902	0.598902	0	1	0	0	CorrectCommission	0.650901	0.805241	0	0
117.463219	0.796013	city	8	1	0.549040	0.549040	0	1	0	0	CorrectCommission	1.344643	0.837442	0	0
118.259048	0.795653	city	2	1	0.549487	0.549487	0	1	0	0	CorrectCommission	1.338424	0.872301	0	0
119.054741	0.795735	city	5	1	0.598990	0.598990	0	1	0	0	CorrectCommission	0.649675	0.908421	0	0
119.850540	0.795857	city	4	1	0.617423	0.617423	0	1	0	0	CorrectCommission	0.393205	0.944048	0	0
120.646339	0.795742	city	6	1	0.648622	0.648622	0	1	0	0	CorrectCommission	0.040866	0.977176	0	0
121.442169	0.795913	city	3	1	0.499375	0.499375	0	1	0	0	CorrectCommission	2.035646	1.005677	0	0
122.237968	0.795694	city	7	1	0.549037	0.549037	0	1	0	0	CorrectCommission	1.344683	1.027461	0	0
123.033745	0.795858	city	10	1	0.549983	0.549983	0	1	0	0	CorrectCommission	1.331519	1.040763	0	0
123.829544	0.795741	city	1	1	0.552845	0.552845	0	1	0	0	CorrectCommission	1.291697	1.044264	0	0
124.625374	0.795911	city	4	1	0.549492	0.549492	0	1	0	0	CorrectCommission	1.338348	1.037285	0	0
125.421204	0.795759	city	7	1	0.554022	0.554022	0	1	0	0	CorrectCommission	1.275324	1.019840	0	0
126.216972	0.795780	city	2	1	0.549299	0.549299	0	1	0	0	CorrectCommission	1.341040	0.992666	0	0
127.012741	0.795756	city	1	1	0.566984	0.566984	0	1	0	0	CorrectCommission	1.094981	0.957122	0	0
127.808525	0.795803	city	5	1	0.598974	0.598974	0	1	0	0	CorrectCommission	0.649888	0.915069	0	1
128.604385	0.795911	city	10	1	0.598882	0.598882	0	1	0	0	CorrectCommission	0.651170	0.868674	0	1
129.400238	0.795803	city	7	1	0.599614	0.599614	0	1	0	0	CorrectCommission	0.640996	0.820241	0	1
130.195984	0.795694	city	8	1	0.551533	0.551533	0	1	0	0	CorrectCommission	1.309953	0.772035	0	1
130.991730	0.795801	mountain	6	0	0.000000	0.600557	1	0	0	0	CorrectOmission	0.627874	0.726157	0	1
131.787537	0.795803	city	1	1	0.648992	0.648992	0	1	0	0	CorrectCommission	0.046015	0.684514	1	1
132.583328	0.795798	city	2	1	0.599145	0.599145	0	1	0	0	CorrectCommission	0.647513	0.648728	1	1
133.379135	0.795803	city	9	1	0.602498	0.602498	0	1	0	0	CorrectCommission	0.600865	0.620112	1	1
134.174957	0.795851	city	10	1	0.599322	0.599322	0	1	0	0	CorrectCommission	0.645046	0.599655	1	1
134.970764	0.795753	city	9	1	0.616988	0.616988	0	1	0	0	CorrectCommission	0.399257	0.587974	1	1
135.766541	0.795803	city	7	1	0.599047	0.599047	0	1	0	0	CorrectCommission	0.648879	0.585292	1	1
136.562454	0.796018	city	2	1	0.648780	0.648780	0	1	0	0	CorrectCommission	0.043069	0.591391	1	1
137.358276	0.795619	city	5	1	0.616400	0.616400	0	1	0	0	CorrectCommission	0.407436	0.605613	1	1
138.154068	0.795984	city	10	1	0.601558	0.601558	0	1	0	0	CorrectCommission	0.613939	0.626806	1	1
138.949905	0.795693	city	3	1	0.616622	0.616622	0	1	0	0	CorrectCommission	0.404359	0.653341	1	1
139.745605	0.795693	city	7	1	0.698256	0.698256	0	1	0	0	CorrectCommission	0.731446	0.683252	1	1
140.541382	0.795854	city	4	1	0.614891	0.614891	0	1	0	0	CorrectCommission	0.428438	0.714340	1	1
141.337204	0.795802	city	6	1	0.602067	0.602067	0	1	0	0	CorrectCommission	0.606866	0.744386	0	1
142.133011	0.795810	city	2	1	0.551161	0.551161	0	1	0	0	CorrectCommission	1.315129	0.771363	0	1
142.928787	0.795740	city	7	1	0.549632	0.549632	0	1	0	0	CorrectCommission	1.336396	0.793590	0	1
143.724670	0.796019	city	8	1	0.554097	0.554097	0	1	0	0	CorrectCommission	1.274274	0.809897	0	1
144.520462	0.795583	city	7	1	0.549037	0.549037	0	1	0	0	CorrectCommission	1.344675	0.819690	0	1
145.316177	0.795838	mountain	3	0	0.000000	0.640719	1	0	0	0	CorrectOmission	0.069082	0.822908	0	1
146.112015	0.795826	city	9	1	0.700291	0.700291	0	1	0	0	CorrectCommission	0.759755	0.819990	0	1
146.907898	0.795958	city	5	1	0.598901	0.598901	0	1	0	0	CorrectCommission	0.650914	0.811645	0	1
147.703674	0.795586	city	6	1	0.598698	0.598698	0	1	0	0	CorrectCommission	0.653728	0.798819	0	1
148.499420	0.795909	city	1	1	0.549155	0.549155	0	1	0	0	CorrectCommission	1.343039	0.782535	0	1
149.295227	0.795696	city	10	1	0.549047	0.549047	0	1	0	0	CorrectCommission	1.344539	0.763857	0	1
150.090973	0.795803	city	7	1	0.599069	0.599069	0	1	0	0	CorrectCommission	0.648567	0.743787	0	1
150.886826	0.795905	mountain	3	0	0.000000	0.649953	1	0	0	0	CorrectOmission	0.059384	0.723336	0	1
151.682663	0.795752	city	9	1	0.651372	0.651372	0	1	0	0	CorrectCommission	0.079135	0.703466	1	1
152.478409	0.795768	city	2	1	0.553004	0.553004	0	1	0	0	CorrectCommission	1.289492	0.685107	1	1
153.274200	0.795810	city	7	1	0.568760	0.568760	0	1	0	0	CorrectCommission	1.070263	0.669138	1	1
154.070007	0.795783	city	9	1	0.598769	0.598769	0	1	0	0	CorrectCommission	0.652750	0.656452	1	1
154.865784	0.795788	city	6	1	0.599270	0.599270	0	1	0	0	CorrectCommission	0.645774	0.647835	1	1
155.661606	0.795862	mountain	1	0	0.000000	0.641215	1	0	0	0	CorrectOmission	0.062181	0.643893	1	1
156.457413	0.795744	city	10	1	0.650795	0.650795	0	1	0	0	CorrectCommission	0.071111	0.644996	1	1
157.253235	0.795908	city	3	1	0.554202	0.554202	0	1	0	0	CorrectCommission	1.272817	0.651160	1	1
158.049042	0.795694	city	8	1	0.599262	0.599262	0	1	0	0	CorrectCommission	0.645894	0.661968	1	1
158.844788	0.795802	city	9	1	0.648897	0.648897	0	1	0	0	CorrectCommission	0.044702	0.676622	1	1
159.640701	0.796017	city	5	1	0.599366	0.599366	0	1	0	0	CorrectCommission	0.644437	0.693906	1	1
160.436493	0.795582	mountain	4	0	0.000000	0.685826	1	0	0	0	CorrectOmission	0.558501	0.712322	1	1
161.232208	0.795840	city	5	1	0.753778	0.753778	0	1	0	0	CorrectCommission	1.503935	0.730295	0	1
162.028122	0.795982	city	9	1	0.648723	0.648723	0	1	0	0	CorrectCommission	0.042280	0.746342	0	1
162.823959	0.795693	city	3	1	0.551783	0.551783	0	1	0	0	CorrectCommission	1.306469	0.759406	0	1
163.619644	0.795690	mountain	7	0	0.000000	0.683634	1	0	0	0	CorrectOmission	0.528004	0.768915	0	1
164.415390	0.795803	city	9	1	0.798002	0.798002	0	1	0	0	CorrectCommission	2.119232	0.775012	0	1
165.211197	0.795804	city	10	1	0.648613	0.648613	0	1	0	0	CorrectCommission	0.040745	0.778469	0	1
166.007004	0.795814	city	3	1	0.748731	0.748731	0	1	0	0	CorrectCommission	1.433708	0.780711	0	1
166.802811	0.795801	city	6	1	0.698855	0.698855	0	1	0	0	CorrectCommission	0.739772	0.783433	0	1
167.598618	0.795791	city	4	1	0.649312	0.649312	0	1	0	0	CorrectCommission	0.050467	0.788415	0	1
168.394440	0.795853	city	5	1	0.660610	0.660610	0	1	0	0	CorrectCommission	0.207663	0.797154	0	1
169.190338	0.795964	city	6	1	0.753291	0.753291	0	1	0	0	CorrectCommission	1.497152	0.810520	0	1
169.986115	0.795588	city	10	1	0.698532	0.698532	0	1	0	0	CorrectCommission	0.735276	0.828501	0	1
170.781860	0.795909	city	5	1	0.648754	0.648754	0	1	0	0	CorrectCommission	0.042711	0.850213	0	1
171.577774	0.795909	city	3	1	0.651700	0.651700	0	1	0	0	CorrectCommission	0.083701	0.873947	0	1
172.373520	0.795587	city	1	1	0.598697	0.598697	0	1	0	0	CorrectCommission	0.653745	0.897396	0	1
173.169220	0.795800	city	5	1	0.549175	0.549175	0	1	0	0	CorrectCommission	1.342759	0.918044	0	1
173.965027	0.795803	city	2	1	0.469856	0.469856	0	1	0	0	CorrectCommission	2.446353	0.933581	0	1
174.760818	0.795800	city	1	1	0.549139	0.549139	0	1	0	0	CorrectCommission	1.343262	0.942265	0	1
175.556625	0.795804	city	2	1	0.549951	0.549951	0	1	0	0	CorrectCommission	1.331959	0.943260	0	1
176.352539	0.796015	city	10	1	0.556510	0.556510	0	1	0	0	CorrectCommission	1.240706	0.936663	0	1
177.148331	0.795585	city	7	1	0.598724	0.598724	0	1	0	0	CorrectCommission	0.653378	0.923409	0	1
177.944031	0.795799	city	5	1	0.599173	0.599173	0	1	0	0	CorrectCommission	0.647121	0.905046	0	1
178.739822	0.795803	city	9	1	0.698386	0.698386	0	1	0	0	CorrectCommission	0.733252	0.883327	0	1
179.535736	0.796021	city	7	1	0.698548	0.698548	0	1	0	0	CorrectCommission	0.735505	0.859920	0	1
180.331543	0.795582	city	5	1	0.648973	0.648973	0	1	0	0	CorrectCommission	0.045761	0.836087	0	1
181.127289	0.795909	city	2	1	0.563918	0.563918	0	1	0	0	CorrectCommission	1.137640	0.812586	0	1
181.923096	0.795696	city	4	1	0.598964	0.598964	0	1	0	0	CorrectCommission	0.650031	0.789602	0	1
182.718842	0.795802	city	2	1	0.598897	0.598897	0	1	0	0	CorrectCommission	0.650966	0.767012	0	1
183.514740	0.796017	city	5	1	0.549488	0.549488	0	1	0	0	CorrectCommission	1.338413	0.744487	0	1
184.310593	0.795664	city	9	1	0.549360	0.549360	0	1	0	0	CorrectCommission	1.340181	0.721751	0	1
185.106277	0.795721	city	4	1	0.608600	0.608600	0	1	0	0	CorrectCommission	0.515971	0.698794	1	1
185.902084	0.795876	city	6	1	0.609306	0.609306	0	1	0	0	CorrectCommission	0.506145	0.675970	1	1
186.697983	0.795946	city	9	1	0.598805	0.598805	0	1	0	0	CorrectCommission	0.652242	0.653950	1	1
187.493866	0.795803	city	5	1	0.598733	0.598733	0	1	0	0	CorrectCommission	0.653251	0.633631	1	0
188.289658	0.795801	city	6	1	0.698135	0.698135	0	1	0	0	CorrectCommission	0.729760	0.615975	1	0
189.085358	0.795585	city	4	1	0.655814	0.655814	0	1	0	0	CorrectCommission	0.140931	0.601806	1	0
189.881073	0.795836	mountain	5	0	0.000000	0.659154	1	0	0	0	CorrectOmission	0.187409	0.591672	1	0
190.676971	0.795982	city	2	1	0.658863	0.658863	0	1	0	0	CorrectCommission	0.183357	0.585731	1	0
191.472763	0.795588	city	1	1	0.605646	0.605646	0	1	0	0	CorrectCommission	0.557061	0.583753	1	0
192.268463	0.795800	city	3	1	0.601061	0.601061	0	1	0	0	CorrectCommission	0.620852	0.585231	1	0
193.064270	0.795811	city	7	1	0.566573	0.566573	0	1	0	0	CorrectCommission	1.100703	0.589460	1	0
193.860077	0.795819	mountain	4	0	0.000000	0.575017	1	0	0	0	CorrectOmission	0.983212	0.595673	1	0
194.655930	0.795879	city	10	1	0.598869	0.598869	0	1	0	0	CorrectCommission	0.651356	0.603160	1	0
195.451721	0.795700	city	7	1	0.610602	0.610602	0	1	0	0	CorrectCommission	0.488111	0.611293	1	0
196.247467	0.795799	city	2	1	0.648955	0.648955	0	1	0	0	CorrectCommission	0.045509	0.619526	1	0
197.043274	0.795816	city	7	1	0.609514	0.609514	0	1	0	0	CorrectCommission	0.503246	0.627348	1	0
197.839127	0.795892	city	10	1	0.561016	0.561016	0	1	0	0	CorrectCommission	1.178016	0.634259	1	0
198.634918	0.795691	city	8	1	0.598758	0.598758	0	1	0	0	CorrectCommission	0.652905	0.639683	1	0
199.430664	0.795805	city	7	1	0.655697	0.655697	0	1	0	0	CorrectCommission	0.139305	0.643071	1	0
200.226532	0.795909	city	9	1	0.661125	0.661125	0	1	0	0	CorrectCommission	0.214835	0.643931	1	0
201.022324	0.795698	city	7	1	0.598833	0.598833	0	1	0	0	CorrectCommission	0.651857	0.641958	1	0
201.818069	0.795799	city	4	1	0.504834	0.504834	0	1	0	0	CorrectCommission	1.959686	0.637174	1	0
202.613907	0.795861	city	8	1	0.549170	0.549170	0	1	0	0	CorrectCommission	1.342825	0.630030	1	0
203.409714	0.795739	city	4	1	0.598984	0.598984	0	1	0	0	CorrectCommission	0.649762	0.621473	1	0
204.205475	0.795802	city	3	1	0.648614	0.648614	0	1	0	0	CorrectCommission	0.040765	0.612826	1	0
205.001389	0.796020	city	8	1	0.648706	0.648706	0	1	0	0	CorrectCommission	0.042034	0.605664	1	0
205.797195	0.795587	city	7	1	0.648421	0.648421	0	1	0	0	CorrectCommission	0.038075	0.601624	1	0
206.592880	0.795798	city	3	1	0.618943	0.618943	0	1	0	0	CorrectCommission	0.372063	0.602191	1	0
207.388687	0.795821	city	2	1	0.553052	0.553052	0	1	0	0	CorrectCommission	1.288824	0.608506	1	0
208.184601	0.796000	city	9	1	0.598911	0.598911	0	1	0	0	CorrectCommission	0.650769	0.621226	1	0
208.980392	0.795585	city	6	1	0.606516	0.606516	0	1	0	0	CorrectCommission	0.544964	0.640426	1	0
209.776093	0.795799	city	2	1	0.599245	0.599245	0	1	0	0	CorrectCommission	0.646130	0.665527	1	0
210.571884	0.795801	city	10	1	0.648604	0.648604	0	1	0	0	CorrectCommission	0.040625	0.695334	1	0
211.367691	0.795806	city	7	1	0.649115	0.649115	0	1	0	0	CorrectCommission	0.047734	0.728119	0	0
212.163498	0.795801	city	2	1	0.663593	0.663593	0	1	0	0	CorrectCommission	0.249173	0.761752	0	0
212.959290	0.795799	city	4	1	0.798361	0.798361	0	1	0	0	CorrectCommission	2.124232	0.793897	0	0
213.755096	0.795801	city	2	1	0.748235	0.748235	0	1	0	0	CorrectCommission	1.426812	0.822210	0	0
214.550903	0.795806	city	7	1	0.750850	0.750850	0	1	0	0	CorrectCommission	1.463195	0.844637	0	0
215.346817	0.796017	city	10	1	0.660854	0.660854	0	1	0	0	CorrectCommission	0.211060	0.859530	0	0
216.142609	0.795582	city	9	1	0.668247	0.668247	0	1	0	0	CorrectCommission	0.313917	0.865870	0	0
216.938309	0.795803	city	7	1	0.713565	0.713565	0	1	0	0	CorrectCommission	0.944439	0.863297	0	0
217.734161	0.795910	city	10	1	0.758966	0.758966	0	1	0	0	CorrectCommission	1.576108	0.852117	0	0
218.529968	0.795692	city	3	1	0.797728	0.797728	0	1	0	0	CorrectCommission	2.115423	0.833262	0	0
219.325714	0.795812	city	9	1	0.698532	0.698532	0	1	0	0	CorrectCommission	0.735284	0.808131	0	0
220.121521	0.795791	mountain	1	0	0.000000	0.626723	1	0	0	0	CorrectOmission	0.263818	0.778486	0	0
220.917313	0.795803	city	2	1	0.603144	0.603144	0	1	0	0	CorrectCommission	0.591882	0.746183	0	0
221.713120	0.795802	city	10	1	0.648638	0.648638	0	1	0	0	CorrectCommission	0.041092	0.712952	1	0
222.508926	0.795810	city	3	1	0.665451	0.665451	0	1	0	0	CorrectCommission	0.275017	0.680267	1	0
223.304779	0.795901	city	9	1	0.748401	0.748401	0	1	0	0	CorrectCommission	1.429122	0.649216	1	0
224.100571	0.795694	city	6	1	0.706134	0.706134	0	1	0	0	CorrectCommission	0.841050	0.620465	1	0
224.896362	0.795884	city	5	1	0.648639	0.648639	0	1	0	0	CorrectCommission	0.041113	0.594354	1	0
225.692169	0.795730	city	1	1	0.598813	0.598813	0	1	0	0	CorrectCommission	0.652129	0.571003	1	0
226.487930	0.795787	city	4	1	0.611069	0.611069	0	1	0	0	CorrectCommission	0.481620	0.550392	1	0
227.283829	0.796021	city	1	1	0.612016	0.612016	0	1	0	0	CorrectCommission	0.468433	0.532522	1	0
228.079636	0.795585	city	3	1	0.598764	0.598764	0	1	0	0	CorrectCommission	0.652813	0.517487	1	0
228.875381	0.795911	city	9	1	0.598970	0.598970	0	1	0	0	CorrectCommission	0.649953	0.505482	1	0
229.671219	0.795754	city	3	1	0.598822	0.598822	0	1	0	0	CorrectCommission	0.652014	0.496780	1	0
230.466980	0.795788	city	10	1	0.650631	0.650631	0	1	0	0	CorrectCommission	0.068819	0.491617	1	0
231.262817	0.795861	city	4	1	0.668168	0.668168	0	1	0	0	CorrectCommission	0.312820	0.490114	1	0
232.058609	0.795720	city	7	1	0.698233	0.698233	0	1	0	0	CorrectCommission	0.731122	0.492107	1	0
232.854401	0.795883	city	10	1	0.668637	0.668637	0	1	0	0	CorrectCommission	0.319347	0.497058	1	0
233.650192	0.795698	city	4	1	0.648528	0.648528	0	1	0	0	CorrectCommission	0.039556	0.504053	1	0
234.445938	0.795802	city	8	1	0.648825	0.648825	0	1	0	0	CorrectCommission	0.043688	0.511839	1	0
235.241776	0.795869	city	3	1	0.605718	0.605718	0	1	0	0	CorrectCommission	0.556059	0.518971	1	0
236.037689	0.795946	city	10	1	0.552063	0.552063	0	1	0	0	CorrectCommission	1.302573	0.524027	1	0
236.833450	0.795590	city	5	1	0.599134	0.599134	0	1	0	0	CorrectCommission	0.647676	0.525901	1	0
237.629150	0.795807	city	8	1	0.601482	0.601482	0	1	0	0	CorrectCommission	0.615000	0.524058	1	0
238.424988	0.795846	city	1	1	0.565787	0.565787	0	1	0	0	CorrectCommission	1.111635	0.518635	1	0
239.220779	0.795746	city	3	1	0.607037	0.607037	0	1	0	0	CorrectCommission	0.537715	0.510474	1	0
240.016556	0.795803	city	8	1	0.599003	0.599003	0	1	0	0	CorrectCommission	0.649493	0.501049	1	0
240.812347	0.795799	city	1	1	0.602969	0.602969	0	1	0	0	CorrectCommission	0.594309	0.492164	1	0
241.608200	0.795911	city	4	1	0.649534	0.649534	0	1	0	0	CorrectCommission	0.053558	0.485688	1	0
242.404007	0.795695	city	5	1	0.648566	0.648566	0	1	0	0	CorrectCommission	0.040094	0.483211	1	0
243.199753	0.795803	city	6	1	0.649309	0.649309	0	1	0	0	CorrectCommission	0.050431	0.485704	1	0
243.995560	0.795799	city	7	1	0.649174	0.649174	0	1	0	0	CorrectCommission	0.048548	0.493372	1	0
244.791367	0.795826	city	1	1	0.649119	0.649119	0	1	0	0	CorrectCommission	0.047782	0.505624	1	0
245.587173	0.795779	city	9	1	0.698397	0.698397	0	1	0	0	CorrectCommission	0.733407	0.521185	1	0
246.382980	0.795819	city	4	1	0.708892	0.708892	0	1	0	0	CorrectCommission	0.879420	0.538306	1	0
247.178772	0.795782	city	9	1	0.748118	0.748118	0	1	0	0	CorrectCommission	1.425190	0.555100	1	1
247.974564	0.795800	city	6	1	0.668485	0.668485	0	1	0	0	CorrectCommission	0.317232	0.569837	1	1
248.770370	0.795819	mountain	9	0	0.000000	0.595607	1	0	0	0	CorrectOmission	0.696737	0.581197	1	1
249.566284	0.796005	city	9	1	0.561749	0.561749	0	1	0	0	CorrectCommission	1.167820	0.588350	1	1
250.362106	0.795648	city	2	1	0.599173	0.599173	0	1	0	0	CorrectCommission	0.647120	0.591036	1	1
251.157806	0.795744	mountain	3	0	0.000000	0.638712	1	0	0	0	CorrectOmission	0.097005	0.589490	1	1
251.953629	0.795901	city	2	1	0.649173	0.649173	0	1	0	0	CorrectCommission	0.048543	0.584350	1	1
252.749542	0.795913	city	8	1	0.599365	0.599365	0	1	0	0	CorrectCommission	0.644456	0.576490	1	1
253.545288	0.795581	city	3	1	0.559010	0.559010	0	1	0	0	CorrectCommission	1.205919	0.566905	1	1
254.341080	0.796021	city	1	1	0.599405	0.599405	0	1	0	0	CorrectCommission	0.643899	0.556669	1	1
255.136993	0.795802	city	5	1	0.598851	0.598851	0	1	0	0	CorrectCommission	0.651600	0.546882	1	1
255.932693	0.795582	city	1	1	0.648914	0.648914	0	1	0	0	CorrectCommission	0.044937	0.538569	1	1
256.728424	0.795875	city	6	1	0.698369	0.698369	0	1	0	0	CorrectCommission	0.733007	0.532696	1	1
257.524231	0.795733	city	5	1	0.698276	0.698276	0	1	0	0	CorrectCommission	0.731722	0.530057	1	1
258.319977	0.795801	city	9	1	0.648791	0.648791	0	1	0	0	CorrectCommission	0.043226	0.531261	1	1
259.115845	0.795907	city	8	1	0.648737	0.648737	0	1	0	0	CorrectCommission	0.042470	0.536687	1	1
259.911682	0.795747	city	1	1	0.598892	0.598892	0	1	0	0	CorrectCommission	0.651031	0.546383	1	1
260.707458	0.795854	city	6	1	0.563395	0.563395	0	1	0	0	CorrectCommission	1.144909	0.560049	1	1
261.503235	0.795693	city	9	1	0.648986	0.648986	0	1	0	0	CorrectCommission	0.045939	0.577020	1	1
262.298981	0.795805	city	3	1	0.660780	0.660780	0	1	0	0	CorrectCommission	0.210033	0.596335	1	1
263.094788	0.795802	city	1	1	0.706181	0.706181	0	1	0	0	CorrectCommission	0.841700	0.616729	1	1
263.890625	0.795843	city	6	1	0.699477	0.699477	0	1	0	0	CorrectCommission	0.748433	0.636742	1	1
264.686462	0.795867	city	4	1	0.599032	0.599032	0	1	0	0	CorrectCommission	0.649088	0.654840	1	1
265.482269	0.795710	city	1	1	0.549063	0.549063	0	1	0	0	CorrectCommission	1.344314	0.669549	1	1
266.278107	0.796002	city	3	1	0.648664	0.648664	0	1	0	0	CorrectCommission	0.041458	0.679560	1	1
267.073975	0.795692	city	8	1	0.562838	0.562838	0	1	0	0	CorrectCommission	1.152669	0.683944	1	1
267.869659	0.795693	city	3	1	0.598724	0.598724	0	1	0	0	CorrectCommission	0.653379	0.682171	1	1
268.665405	0.795805	city	6	1	0.615081	0.615081	0	1	0	0	CorrectCommission	0.425788	0.674339	1	1
269.461334	0.796017	city	8	1	0.561518	0.561518	0	1	0	0	CorrectCommission	1.171029	0.661184	1	1
270.257111	0.795591	city	3	1	0.548940	0.548940	0	1	0	0	CorrectCommission	1.346028	0.644105	1	1
271.052856	0.795857	city	2	1	0.598898	0.598898	0	1	0	0	CorrectCommission	0.650950	0.625133	1	1
271.848663	0.795749	city	10	1	0.598968	0.598968	0	1	0	0	CorrectCommission	0.649976	0.606816	1	1
272.644409	0.795798	city	4	1	0.649825	0.649825	0	1	0	0	CorrectCommission	0.057613	0.591971	1	1
273.440338	0.796014	city	6	1	0.648913	0.648913	0	1	0	0	CorrectCommission	0.044914	0.583476	1	1
274.236145	0.795628	city	2	1	0.601372	0.601372	0	1	0	0	CorrectCommission	0.616527	0.583930	1	1
275.031860	0.795774	city	6	1	0.619187	0.619187	0	1	0	0	CorrectCommission	0.368662	0.595385	1	1
275.827728	0.796002	city	2	1	0.600656	0.600656	0	1	0	0	CorrectCommission	0.626495	0.619183	1	1
276.623535	0.795613	city	4	1	0.648792	0.648792	0	1	0	0	CorrectCommission	0.043230	0.655651	1	1
277.419250	0.795771	city	6	1	0.650542	0.650542	0	1	0	0	CorrectCommission	0.067588	0.704103	1	1
278.215027	0.795828	city	1	1	0.599133	0.599133	0	1	0	0	CorrectCommission	0.647686	0.762816	0	1
279.010834	0.795780	city	9	1	0.706315	0.706315	0	1	0	0	CorrectCommission	0.843562	0.829183	0	1
279.806671	0.795905	mountain	5	0	0.000000	0.723283	1	0	0	0	CorrectOmission	1.079651	0.899949	0	1
280.602539	0.795803	mountain	2	0	0.000000	0.706611	1	0	0	0	CorrectOmission	0.847686	0.971475	0	1
281.398315	0.795762	city	2	1	0.712870	0.712870	0	1	0	0	CorrectCommission	0.934770	1.040117	0	1
282.194061	0.795736	city	9	1	0.798633	0.798633	0	1	0	0	CorrectCommission	2.128008	1.102571	0	1
282.989960	0.796016	city	5	1	0.713651	0.713651	0	1	0	0	CorrectCommission	0.945633	1.156152	0	1
283.785797	0.795694	city	1	1	0.753219	0.753219	0	1	0	0	CorrectCommission	1.496154	1.199147	0	1
284.581512	0.795724	city	10	1	0.718375	0.718375	0	1	0	0	CorrectCommission	1.011368	1.230853	0	1
285.377380	0.795990	city	2	1	0.798327	0.798327	0	1	0	0	CorrectCommission	2.123754	1.251666	0	1
286.173157	0.795588	mountain	10	0	0.000000	0.808283	1	0	0	0	CorrectOmission	2.262273	1.262907	0	1
286.968842	0.795796	mountain	6	0	0.000000	0.768280	1	0	0	0	CorrectOmission	1.705697	1.266538	0	1
287.764648	0.795800	city	2	1	0.698354	0.698354	0	1	0	0	CorrectCommission	0.732801	1.264834	0	1
288.560547	0.796018	city	1	1	0.618542	0.618542	0	1	0	0	CorrectCommission	0.377644	1.259964	0	1
289.356354	0.795588	city	7	1	0.651146	0.651146	0	1	0	0	CorrectCommission	0.075985	1.253587	0	1
290.152039	0.795796	city	5	1	0.698342	0.698342	0	1	0	0	CorrectCommission	0.732633	1.246611	0	1
290.947845	0.795808	city	6	1	0.897337	0.897337	0	1	0	0	CorrectCommission	3.501299	1.239054	0	1
291.743713	0.795905	city	3	1	0.698376	0.698376	0	1	0	0	CorrectCommission	0.733111	1.230048	0	1
292.539520	0.795694	city	2	1	0.698272	0.698272	0	1	0	0	CorrectCommission	0.731660	1.218208	0	1
293.335266	0.795806	city	6	1	0.702521	0.702521	0	1	0	0	CorrectCommission	0.790781	1.201778	0	1
294.131104	0.795907	city	8	1	0.748453	0.748453	0	1	0	0	CorrectCommission	1.429846	1.179067	0	1
294.927032	0.795909	city	1	1	0.797731	0.797731	0	1	0	0	CorrectCommission	2.115458	1.148803	0	1
295.722839	0.795692	city	4	1	0.764855	0.764855	0	1	0	0	CorrectCommission	1.658051	1.110415	0	1
296.518524	0.795692	city	3	1	0.748127	0.748127	0	1	0	0	CorrectCommission	1.425303	1.064281	0	1
297.314270	0.795832	city	7	1	0.748816	0.748816	0	1	0	0	CorrectCommission	1.434899	1.011751	0	1
298.110199	0.795991	city	9	1	0.698395	0.698395	0	1	0	0	CorrectCommission	0.733373	0.955067	0	1
298.905975	0.795587	city	10	1	0.650255	0.650255	0	1	0	0	CorrectCommission	0.063594	0.897244	0	1
299.701691	0.795822	city	1	1	0.669382	0.669382	0	1	0	0	CorrectCommission	0.329703	0.841762	0	1
300.497498	0.795777	city	6	1	0.599856	0.599856	0	1	0	0	CorrectCommission	0.637624	0.792296	0	1
301.293274	0.795801	city	2	1	0.513946	0.513946	0	1	0	0	CorrectCommission	1.832913	0.752372	0	1
302.089081	0.795801	city	6	1	0.648633	0.648633	0	1	0	0	CorrectCommission	0.041022	0.725046	0	1
302.884979	0.796021	city	3	1	0.599518	0.599518	0	1	0	0	CorrectCommission	0.642332	0.712644	1	1
303.680786	0.795586	city	5	1	0.615561	0.615561	0	1	0	0	CorrectCommission	0.419109	0.716363	0	1
304.476501	0.795863	city	7	1	0.648972	0.648972	0	1	0	0	CorrectCommission	0.045736	0.736120	0	1
305.272308	0.795737	city	10	1	0.648583	0.648583	0	1	0	0	CorrectCommission	0.040325	0.770382	0	1
306.068085	0.795801	mountain	5	0	0.000000	0.620615	1	0	0	0	CorrectOmission	0.348804	0.816110	0	1
306.863892	0.795806	city	2	1	0.619191	0.619191	0	1	0	0	CorrectCommission	0.368615	0.868979	0	0
307.659698	0.795833	city	3	1	0.698435	0.698435	0	1	0	0	CorrectCommission	0.733928	0.923769	0	0
308.455505	0.795768	city	7	1	0.748081	0.748081	0	1	0	0	CorrectCommission	1.424662	0.974865	0	0
309.251343	0.795910	city	5	1	0.761621	0.761621	0	1	0	0	CorrectCommission	1.613059	1.017022	0	0
310.047241	0.795910	city	8	1	0.797752	0.797752	0	1	0	0	CorrectCommission	2.115748	1.046012	0	0
310.843048	0.795691	city	5	1	0.760551	0.760551	0	1	0	0	CorrectCommission	1.598172	1.059140	0	0
311.638855	0.795911	city	6	1	0.797710	0.797710	0	1	0	0	CorrectCommission	2.115176	1.055641	0	0
312.434601	0.795587	city	5	1	0.798468	0.798468	0	1	0	0	CorrectCommission	2.125717	1.036657	0	0
313.230286	0.795798	city	2	1	0.662506	0.662506	0	1	0	0	CorrectCommission	0.234040	1.005069	0	0
314.026215	0.796020	city	1	1	0.698958	0.698958	0	1	0	0	CorrectCommission	0.741201	0.965015	0	0
314.822052	0.795693	city	9	1	0.698279	0.698279	0	1	0	0	CorrectCommission	0.731758	0.921115	0	0
315.617859	0.795910	city	6	1	0.698254	0.698254	0	1	0	0	CorrectCommission	0.731409	0.877866	0	0
316.413727	0.795804	city	1	1	0.665061	0.665061	0	1	0	0	CorrectCommission	0.269586	0.838979	0	0
317.209412	0.795585	city	2	1	0.648403	0.648403	0	1	0	0	CorrectCommission	0.037829	0.806955	0	0
318.005096	0.795798	mountain	1	0	0.000000	0.630407	1	0	0	0	CorrectOmission	0.212562	0.782864	0	0
318.800964	0.795911	city	1	1	0.649297	0.649297	0	1	0	0	CorrectCommission	0.050259	0.766388	0	0
319.596771	0.795704	mountain	8	0	0.000000	0.743299	1	0	0	0	CorrectOmission	1.358140	0.756146	0	0
320.392639	0.796010	city	7	1	0.797835	0.797835	0	1	0	0	CorrectCommission	2.116913	0.750029	0	0
321.188416	0.795582	city	6	1	0.698325	0.698325	0	1	0	0	CorrectCommission	0.732407	0.745708	0	0
321.984131	0.795807	mountain	1	0	0.000000	0.696042	1	0	0	0	CorrectOmission	0.700641	0.741062	0	0
322.779968	0.795867	city	9	1	0.698492	0.698492	0	1	0	0	CorrectCommission	0.734722	0.734377	0	0
323.575745	0.795732	city	8	1	0.613180	0.613180	0	1	0	0	CorrectCommission	0.452244	0.724529	0	0
324.371521	0.795800	city	10	1	0.598926	0.598926	0	1	0	0	CorrectCommission	0.650566	0.710993	1	0
325.167328	0.795843	city	6	1	0.748084	0.748084	0	1	0	0	CorrectCommission	1.424710	0.693734	1	0
325.963165	0.795816	city	8	1	0.648902	0.648902	0	1	0	0	CorrectCommission	0.044762	0.673058	1	0
326.759064	0.795965	city	6	1	0.712810	0.712810	0	1	0	0	CorrectCommission	0.933939	0.649507	1	0
327.554840	0.795581	city	8	1	0.652399	0.652399	0	1	0	0	CorrectCommission	0.093416	0.623661	1	0
328.350525	0.795807	mountain	1	0	0.000000	0.706736	1	0	0	0	CorrectOmission	0.849422	0.596134	1	0
329.146332	0.795816	city	7	1	0.748123	0.748123	0	1	0	0	CorrectCommission	1.425255	0.567470	1	0
329.942139	0.795783	city	5	1	0.648863	0.648863	0	1	0	0	CorrectCommission	0.044217	0.538144	1	0
330.737976	0.795910	city	10	1	0.609075	0.609075	0	1	0	0	CorrectCommission	0.509355	0.508680	1	0
331.533783	0.795693	city	4	1	0.648901	0.648901	0	1	0	0	CorrectCommission	0.044755	0.479555	1	0
332.329529	0.795803	city	2	1	0.599525	0.599525	0	1	0	0	CorrectCommission	0.642231	0.451317	1	0
333.125366	0.795856	city	4	1	0.609044	0.609044	0	1	0	0	CorrectCommission	0.509789	0.424576	1	0
333.921173	0.795745	city	2	1	0.598850	0.598850	0	1	0	0	CorrectCommission	0.651615	0.400081	1	0
334.716949	0.795806	city	3	1	0.648643	0.648643	0	1	0	0	CorrectCommission	0.041165	0.378675	1	0
335.512787	0.795873	city	5	1	0.649098	0.649098	0	1	0	0	CorrectCommission	0.047488	0.361285	1	0
336.308685	0.795945	mountain	3	0	0.000000	0.682080	1	0	0	0	CorrectOmission	0.506383	0.348857	1	0
337.104492	0.795660	city	8	1	0.698427	0.698427	0	1	0	0	CorrectCommission	0.733817	0.342219	1	0
337.900177	0.795722	city	1	1	0.648974	0.648974	0	1	0	0	CorrectCommission	0.045761	0.341991	1	0
338.696045	0.796022	city	9	1	0.649583	0.649583	0	1	0	0	CorrectCommission	0.054238	0.348488	1	0
339.491852	0.795585	city	3	1	0.652571	0.652571	0	1	0	0	CorrectCommission	0.095818	0.361578	1	0
340.287537	0.795797	city	4	1	0.649627	0.649627	0	1	0	0	CorrectCommission	0.054847	0.380609	1	0
341.083405	0.795912	city	1	1	0.665341	0.665341	0	1	0	0	CorrectCommission	0.273490	0.404436	1	0
341.879211	0.795694	city	3	1	0.649050	0.649050	0	1	0	0	CorrectCommission	0.046822	0.431483	1	0
342.674957	0.795803	city	4	1	0.609127	0.609127	0	1	0	0	CorrectCommission	0.508640	0.459911	1	0
343.470825	0.795909	city	6	1	0.598834	0.598834	0	1	0	0	CorrectCommission	0.651843	0.487837	1	0
344.266724	0.795910	city	9	1	0.549737	0.549737	0	1	0	0	CorrectCommission	1.334946	0.513552	1	0
345.062469	0.795587	city	1	1	0.598704	0.598704	0	1	0	0	CorrectCommission	0.653647	0.535708	1	0
345.858185	0.795862	city	3	1	0.566226	0.566226	0	1	0	0	CorrectCommission	1.105526	0.553472	1	0
346.654022	0.795805	city	2	1	0.598844	0.598844	0	1	0	0	CorrectCommission	0.651702	0.566506	1	0
347.449921	0.795952	mountain	9	0	0.000000	0.637225	1	0	0	0	CorrectOmission	0.117695	0.575004	1	0
348.245667	0.795588	city	7	1	0.648414	0.648414	0	1	0	0	CorrectCommission	0.037975	0.579520	1	0
349.041473	0.796017	city	2	1	0.599454	0.599454	0	1	0	0	CorrectCommission	0.643212	0.580868	1	0
349.837311	0.795661	city	3	1	0.599165	0.599165	0	1	0	0	CorrectCommission	0.647234	0.579995	1	0
350.633118	0.795942	city	7	1	0.598804	0.598804	0	1	0	0	CorrectCommission	0.652258	0.577939	1	0
351.428894	0.795590	city	4	1	0.549407	0.549407	0	1	0	0	CorrectCommission	1.339530	0.575747	1	0
352.224579	0.795794	city	10	1	0.614087	0.614087	0	1	0	0	CorrectCommission	0.439627	0.574438	1	0
353.020416	0.795868	city	1	1	0.610956	0.610956	0	1	0	0	CorrectCommission	0.483180	0.575023	1	0
353.816254	0.795846	city	4	1	0.648575	0.648575	0	1	0	0	CorrectCommission	0.040214	0.578425	1	0
354.612030	0.795697	city	10	1	0.599067	0.599067	0	1	0	0	CorrectCommission	0.648601	0.585453	1	0
355.407776	0.795799	city	4	1	0.616650	0.616650	0	1	0	0	CorrectCommission	0.403965	0.596728	1	0
356.203705	0.796018	city	3	1	0.600856	0.600856	0	1	0	0	CorrectCommission	0.623714	0.612661	1	0
356.999481	0.795587	mountain	5	0	0.000000	0.663858	1	0	0	0	CorrectOmission	0.252855	0.633372	1	0
357.795288	0.796017	city	5	1	0.701345	0.701345	0	1	0	0	CorrectCommission	0.774421	0.658702	1	0
358.591095	0.795584	city	8	1	0.609004	0.609004	0	1	0	0	CorrectCommission	0.510341	0.688145	1	0
359.386780	0.795798	city	10	1	0.549144	0.549144	0	1	0	0	CorrectCommission	1.343194	0.720905	0	0
360.182617	0.795831	city	1	1	0.608523	0.608523	0	1	0	0	CorrectCommission	0.517044	0.755829	0	0
360.978424	0.795798	city	4	1	0.614060	0.614060	0	1	0	0	CorrectCommission	0.439998	0.791495	0	0
361.774323	0.795997	city	10	1	0.598918	0.598918	0	1	0	0	CorrectCommission	0.650668	0.826207	0	0
362.570221	0.795802	city	9	1	0.548945	0.548945	0	1	0	0	CorrectCommission	1.345963	0.858098	0	0
363.366028	0.795801	city	7	1	0.613996	0.613996	0	1	0	0	CorrectCommission	0.440896	0.885246	0	0
364.161743	0.795653	city	3	1	0.599016	0.599016	0	1	0	0	CorrectCommission	0.649314	0.905878	0	0
364.957489	0.795840	city	5	1	0.554366	0.554366	0	1	0	0	CorrectCommission	1.270540	0.918530	0	0
365.753265	0.795694	city	4	1	0.499262	0.499262	0	1	0	0	CorrectCommission	2.037212	0.922218	0	0
366.549011	0.795801	city	5	1	0.518211	0.518211	0	1	0	0	CorrectCommission	1.773575	0.916571	0	1
367.344910	0.796021	city	7	1	0.599216	0.599216	0	1	0	0	CorrectCommission	0.646533	0.901915	0	1
368.140839	0.795802	city	3	1	0.611785	0.611785	0	1	0	0	CorrectCommission	0.471650	0.879259	0	1
368.936523	0.795587	city	4	1	0.715596	0.715596	0	1	0	0	CorrectCommission	0.972695	0.850106	0	1
369.732208	0.795801	city	3	1	0.715440	0.715440	0	1	0	0	CorrectCommission	0.970531	0.816333	0	1
370.528015	0.795797	city	1	1	0.599763	0.599763	0	1	0	0	CorrectCommission	0.638922	0.779987	0	1
371.323822	0.795804	city	9	1	0.698398	0.698398	0	1	0	0	CorrectCommission	0.733415	0.743138	0	1
372.119629	0.795816	city	7	1	0.655983	0.655983	0	1	0	0	CorrectCommission	0.143292	0.707716	1	1
372.915466	0.795865	city	6	1	0.698460	0.698460	0	1	0	0	CorrectCommission	0.734280	0.675467	1	1
373.711365	0.795939	city	8	1	0.608619	0.608619	0	1	0	0	CorrectCommission	0.515698	0.647862	1	1
374.507141	0.795586	city	1	1	0.563280	0.563280	0	1	0	0	CorrectCommission	1.146515	0.626155	1	1
375.302826	0.795801	city	10	1	0.598904	0.598904	0	1	0	0	CorrectCommission	0.650875	0.611300	1	1
376.098694	0.795910	city	8	1	0.648927	0.648927	0	1	0	0	CorrectCommission	0.045110	0.603956	1	1
376.894501	0.795752	city	1	1	0.698272	0.698272	0	1	0	0	CorrectCommission	0.731664	0.604381	1	1
377.690308	0.795849	city	2	1	0.650066	0.650066	0	1	0	0	CorrectCommission	0.060964	0.612355	1	1
378.486084	0.795694	city	1	1	0.698404	0.698404	0	1	0	0	CorrectCommission	0.733507	0.627149	1	1
379.281830	0.795803	city	2	1	0.649100	0.649100	0	1	0	0	CorrectCommission	0.047519	0.647444	1	1
380.077728	0.796018	city	1	1	0.699026	0.699026	0	1	0	0	CorrectCommission	0.742158	0.671412	1	1
380.873535	0.795586	city	4	1	0.614106	0.614106	0	1	0	0	CorrectCommission	0.439362	0.696813	1	1
381.669250	0.795854	city	7	1	0.598892	0.598892	0	1	0	0	CorrectCommission	0.651030	0.721253	0	1
382.465179	0.795965	city	5	1	0.598844	0.598844	0	1	0	0	CorrectCommission	0.651703	0.742552	0	1
383.260956	0.795590	city	4	1	0.506729	0.506729	0	1	0	0	CorrectCommission	1.933327	0.758960	0	1
384.056641	0.795797	city	1	1	0.549158	0.549158	0	1	0	0	CorrectCommission	1.342997	0.769439	0	1
384.852509	0.795908	city	3	1	0.552091	0.552091	0	1	0	0	CorrectCommission	1.302189	0.774027	0	1
385.648285	0.795691	mountain	4	0	0.000000	0.615415	1	0	0	0	CorrectOmission	0.421145	0.773831	0	1
386.444061	0.795867	mountain	1	0	0.000000	0.683456	1	0	0	0	CorrectOmission	0.525523	0.771010	0	1
387.239868	0.795735	city	5	1	0.700539	0.700539	0	1	0	0	CorrectCommission	0.763202	0.768546	0	1
388.035675	0.795832	city	2	1	0.610989	0.610989	0	1	0	0	CorrectCommission	0.482722	0.769959	0	1
388.831512	0.795882	city	5	1	0.648621	0.648621	0	1	0	0	CorrectCommission	0.040859	0.778858	0	1
389.627319	0.795695	mountain	10	0	0.000000	0.714710	1	0	0	0	CorrectOmission	0.960372	0.798494	0	1
390.423065	0.795801	city	4	1	0.750792	0.750792	0	1	0	0	CorrectCommission	1.462393	0.831196	0	1
391.218903	0.795883	city	8	1	0.698404	0.698404	0	1	0	0	CorrectCommission	0.733497	0.877937	0	1
392.014801	0.795935	city	2	1	0.655743	0.655743	0	1	0	0	CorrectCommission	0.139953	0.937972	0	1
392.810608	0.795694	mountain	10	0	0.000000	0.652320	1	0	0	0	CorrectOmission	0.092327	1.008579	0	1
393.606354	0.795802	mountain	1	0	0.000000	0.671688	1	0	0	0	CorrectOmission	0.361793	1.085078	0	1
394.402161	0.795800	mountain	10	0	0.000000	0.697399	1	0	0	0	CorrectOmission	0.719524	1.161122	0	1
395.198029	0.795912	city	10	1	0.713008	0.713008	0	1	0	0	CorrectCommission	0.936696	1.229367	0	1
395.993805	0.795670	city	7	1	0.702068	0.702068	0	1	0	0	CorrectCommission	0.784481	1.282349	0	1
396.789612	0.795935	city	2	1	0.718437	0.718437	0	1	0	0	CorrectCommission	1.012224	1.313564	0	1
397.585419	0.795689	city	9	1	1.145791	1.145791	0	1	0	0	CorrectCommission	6.958115	1.318439	0	1
398.381134	0.795698	mountain	9	0	0.000000	0.968943	1	0	0	0	CorrectOmission	4.497572	1.294966	0	1
399.176880	0.795800	city	2	1	0.661819	0.661819	0	1	0	0	CorrectCommission	0.224477	1.244294	0	1
399.972778	0.796018	city	1	1	0.698347	0.698347	0	1	0	0	CorrectCommission	0.732713	1.170464	0	1
400.768585	0.795583	mountain	1	0	0.000000	0.679790	1	0	0	0	CorrectOmission	0.474522	1.079648	0	1
401.564301	0.795830	city	8	1	0.648950	0.648950	0	1	0	0	CorrectCommission	0.045430	0.979361	0	1
402.360199	0.795992	city	9	1	0.648629	0.648629	0	1	0	0	CorrectCommission	0.040966	0.877392	0	1
403.155975	0.795585	city	1	1	0.611440	0.611440	0	1	0	0	CorrectCommission	0.476450	0.780860	0	1
403.951691	0.795801	city	4	1	0.655559	0.655559	0	1	0	0	CorrectCommission	0.137392	0.695482	1	1
404.747528	0.795863	city	5	1	0.603859	0.603859	0	1	0	0	CorrectCommission	0.581929	0.625217	1	1
405.543304	0.795738	city	1	1	0.698358	0.698358	0	1	0	0	CorrectCommission	0.732866	0.572170	1	1
406.339111	0.795845	city	10	1	0.648623	0.648623	0	1	0	0	CorrectCommission	0.040883	0.536812	1	1
407.134949	0.795867	city	9	1	0.599009	0.599009	0	1	0	0	CorrectCommission	0.649402	0.518319	1	1
407.930756	0.795697	city	7	1	0.613664	0.613664	0	1	0	0	CorrectCommission	0.445514	0.514927	1	1
408.726501	0.795801	city	10	1	0.661507	0.661507	0	1	0	0	CorrectCommission	0.220148	0.524382	1	1
409.522278	0.795796	city	8	1	0.650112	0.650112	0	1	0	0	CorrectCommission	0.061601	0.544246	1	1
410.318207	0.796022	mountain	10	0	0.000000	0.672609	1	0	0	0	CorrectOmission	0.374606	0.572112	1	1
411.114044	0.795638	city	1	1	0.698750	0.698750	0	1	0	0	CorrectCommission	0.738320	0.605734	1	1
411.909729	0.795749	city	9	1	0.698289	0.698289	0	1	0	0	CorrectCommission	0.731899	0.643087	1	1
412.705536	0.795843	city	6	1	0.748108	0.748108	0	1	0	0	CorrectCommission	1.425046	0.682348	1	1
413.501312	0.795760	city	9	1	0.698682	0.698682	0	1	0	0	CorrectCommission	0.737374	0.721838	0	1
414.297089	0.795802	city	2	1	0.661542	0.661542	0	1	0	0	CorrectCommission	0.220625	0.760019	0	1
415.092896	0.795797	city	7	1	0.698371	0.698371	0	1	0	0	CorrectCommission	0.733039	0.795308	0	1
415.888702	0.795804	city	2	1	0.698426	0.698426	0	1	0	0	CorrectCommission	0.733804	0.826176	0	1
416.684509	0.795799	city	3	1	0.698577	0.698577	0	1	0	0	CorrectCommission	0.735913	0.851263	0	1
417.480316	0.795807	city	2	1	0.710799	0.710799	0	1	0	0	CorrectCommission	0.905952	0.869378	0	1
418.276123	0.795796	city	4	1	0.748461	0.748461	0	1	0	0	CorrectCommission	1.429955	0.879673	0	1
419.071930	0.795838	city	9	1	0.750660	0.750660	0	1	0	0	CorrectCommission	1.460547	0.881800	0	1
419.867767	0.795826	city	2	1	0.748229	0.748229	0	1	0	0	CorrectCommission	1.426730	0.876010	0	1
420.663544	0.795754	mountain	1	0	0.000000	0.720473	1	0	0	0	CorrectOmission	1.040555	0.863136	0	1
421.459442	0.796007	city	10	1	0.698379	0.698379	0	1	0	0	CorrectCommission	0.733149	0.844550	0	1
422.255280	0.795694	city	4	1	0.712932	0.712932	0	1	0	0	CorrectCommission	0.935638	0.821932	0	1
423.051086	0.795910	city	3	1	0.660954	0.660954	0	1	0	0	CorrectCommission	0.212455	0.797077	0	1
423.846832	0.795582	city	10	1	0.663966	0.663966	0	1	0	0	CorrectCommission	0.254356	0.771670	0	1
424.642517	0.795806	city	5	1	0.698280	0.698280	0	1	0	0	CorrectCommission	0.731777	0.747041	0	1
425.438324	0.795799	city	10	1	0.698385	0.698385	0	1	0	0	CorrectCommission	0.733234	0.724105	0	1
426.234131	0.795803	city	6	1	0.716806	0.716806	0	1	0	0	CorrectCommission	0.989533	0.703332	1	0
427.030029	0.796019	city	5	1	0.712946	0.712946	0	1	0	0	CorrectCommission	0.935831	0.684800	1	0
427.825836	0.795581	city	10	1	0.617366	0.617366	0	1	0	0	CorrectCommission	0.394008	0.668318	1	0
428.621521	0.795813	city	1	1	0.601709	0.601709	0	1	0	0	CorrectCommission	0.611844	0.653549	1	0
429.417358	0.795859	mountain	6	0	0.000000	0.606988	1	0	0	0	CorrectOmission	0.538392	0.640151	1	0
430.213165	0.795736	city	1	1	0.612928	0.612928	0	1	0	0	CorrectCommission	0.455746	0.627868	1	0
431.008942	0.795799	city	9	1	0.599254	0.599254	0	1	0	0	CorrectCommission	0.646002	0.616593	1	0
431.804749	0.795803	city	5	1	0.549172	0.549172	0	1	0	0	CorrectCommission	1.342809	0.606386	1	0
432.600586	0.795909	mountain	3	0	0.000000	0.596558	1	0	0	0	CorrectOmission	0.683503	0.597399	1	0
433.396393	0.795704	city	3	1	0.648549	0.648549	0	1	0	0	CorrectCommission	0.039853	0.589834	1	0
434.192139	0.795793	city	9	1	0.612277	0.612277	0	1	0	0	CorrectCommission	0.464807	0.583819	1	0
434.987946	0.795802	city	3	1	0.604486	0.604486	0	1	0	0	CorrectCommission	0.573207	0.579296	1	0
435.783752	0.795820	city	1	1	0.648953	0.648953	0	1	0	0	CorrectCommission	0.045479	0.575999	1	0
436.579651	0.796001	city	7	1	0.698588	0.698588	0	1	0	0	CorrectCommission	0.736062	0.573448	1	0
437.375458	0.795585	city	10	1	0.648917	0.648917	0	1	0	0	CorrectCommission	0.044980	0.570977	1	0
438.171204	0.795907	city	4	1	0.755489	0.755489	0	1	0	0	CorrectCommission	1.527734	0.567893	1	0
438.967102	0.795911	mountain	5	0	0.000000	0.728081	1	0	0	0	CorrectOmission	1.146403	0.563520	1	0
439.762878	0.795620	city	1	1	0.648576	0.648576	0	1	0	0	CorrectCommission	0.040228	0.557362	1	0
440.558685	0.795985	city	8	1	0.598855	0.598855	0	1	0	0	CorrectCommission	0.651547	0.549153	1	0
441.354614	0.795856	city	3	1	0.601117	0.601117	0	1	0	0	CorrectCommission	0.620082	0.538810	1	0
442.150299	0.795532	city	9	1	0.616757	0.616757	0	1	0	0	CorrectCommission	0.402471	0.526460	1	0
442.945984	0.795846	city	8	1	0.599622	0.599622	0	1	0	0	CorrectCommission	0.640874	0.512381	1	0
443.741791	0.795756	city	2	1	0.648818	0.648818	0	1	0	0	CorrectCommission	0.043599	0.496921	1	0
444.537628	0.795909	city	9	1	0.698950	0.698950	0	1	0	0	CorrectCommission	0.741099	0.480517	1	0
445.333527	0.795912	city	2	1	0.603146	0.603146	0	1	0	0	CorrectCommission	0.591848	0.463681	1	0
446.129272	0.795605	mountain	10	0	0.000000	0.651378	1	0	0	0	CorrectOmission	0.079209	0.447080	1	0
446.925018	0.795887	city	5	1	0.698367	0.698367	0	1	0	0	CorrectCommission	0.732991	0.431600	1	0
447.720825	0.795693	city	10	1	0.598839	0.598839	0	1	0	0	CorrectCommission	0.651778	0.418386	1	0
448.516663	0.796021	mountain	10	0	0.000000	0.611753	1	0	0	0	CorrectOmission	0.472098	0.408897	1	0
449.312469	0.795582	city	7	1	0.655760	0.655760	0	1	0	0	CorrectCommission	0.140184	0.404832	1	0
450.108215	0.795871	city	3	1	0.649509	0.649509	0	1	0	0	CorrectCommission	0.053217	0.408042	1	0
450.904022	0.795739	city	1	1	0.702441	0.702441	0	1	0	0	CorrectCommission	0.789674	0.420294	1	0
451.699799	0.795812	city	10	1	0.648639	0.648639	0	1	0	0	CorrectCommission	0.041111	0.442998	1	0
452.495575	0.795786	city	4	1	0.648739	0.648739	0	1	0	0	CorrectCommission	0.042495	0.476966	1	0
453.291382	0.795806	mountain	2	0	0.000000	0.632304	1	0	0	0	CorrectOmission	0.186165	0.522075	1	0
454.087250	0.795906	mountain	9	0	0.000000	0.615907	1	0	0	0	CorrectOmission	0.414303	0.577084	1	0
454.883026	0.795691	city	10	1	0.616119	0.616119	0	1	0	0	CorrectCommission	0.411355	0.639587	1	0
455.678833	0.795913	city	7	1	0.649511	0.649511	0	1	0	0	CorrectCommission	0.053244	0.706094	1	0
456.474762	0.795909	city	6	1	0.651490	0.651490	0	1	0	0	CorrectCommission	0.080768	0.772327	0	0
457.270508	0.795583	city	10	1	0.561491	0.561491	0	1	0	0	CorrectCommission	1.171407	0.833666	0	0
458.066284	0.796022	city	6	1	0.805064	0.805064	0	1	0	0	CorrectCommission	2.217486	0.885665	0	0
458.862091	0.795584	city	2	1	0.760117	0.760117	0	1	0	0	CorrectCommission	1.592129	0.924670	0	0
459.657806	0.795800	city	3	1	0.756600	0.756600	0	1	0	0	CorrectCommission	1.543191	0.948355	0	0
460.453705	0.796019	city	9	1	0.758538	0.758538	0	1	0	0	CorrectCommission	1.570165	0.956015	0	0
461.249573	0.795693	city	8	1	0.747920	0.747920	0	1	0	0	CorrectCommission	1.422436	0.948735	0	0
462.045258	0.795695	city	6	1	0.718677	0.718677	0	1	0	0	CorrectCommission	1.015559	0.929267	0	0
462.841003	0.795810	city	2	1	0.701932	0.701932	0	1	0	0	CorrectCommission	0.782580	0.901723	0	0
463.636902	0.796009	city	7	1	0.698437	0.698437	0	1	0	0	CorrectCommission	0.733959	0.871084	0	0
464.432709	0.795598	city	3	1	0.662837	0.662837	0	1	0	0	CorrectCommission	0.238649	0.842601	0	0
465.228424	0.795816	city	6	1	0.698466	0.698466	0	1	0	0	CorrectCommission	0.734363	0.821254	0	0
466.024261	0.795836	city	9	1	0.649060	0.649060	0	1	0	0	CorrectCommission	0.046971	0.811220	0	0
466.820038	0.795739	city	6	1	0.610754	0.610754	0	1	0	0	CorrectCommission	0.485999	0.815525	0	0
467.615814	0.795807	city	10	1	0.549580	0.549580	0	1	0	0	CorrectCommission	1.337124	0.835764	0	0
468.411682	0.795905	city	4	1	0.649165	0.649165	0	1	0	0	CorrectCommission	0.048425	0.872024	0	0
469.207458	0.795693	city	7	1	0.668639	0.668639	0	1	0	0	CorrectCommission	0.319376	0.923014	0	0
470.003326	0.796020	city	1	1	0.661235	0.661235	0	1	0	0	CorrectCommission	0.216358	0.986201	0	0
470.799133	0.795585	city	5	1	0.748002	0.748002	0	1	0	0	CorrectCommission	1.423566	1.058141	0	0
471.594818	0.795808	city	10	1	0.748111	0.748111	0	1	0	0	CorrectCommission	1.425083	1.134840	0	0
472.390625	0.795797	mountain	4	0	0.000000	0.742430	1	0	0	0	CorrectOmission	1.346042	1.212189	0	0
473.186462	0.795871	city	6	1	0.748119	0.748119	0	1	0	0	CorrectCommission	1.425193	1.286278	0	0
473.982269	0.795731	mountain	5	0	0.000000	0.782337	1	0	0	0	CorrectOmission	1.901288	1.353682	0	0
474.778046	0.795826	city	7	1	0.798022	0.798022	0	1	0	0	CorrectCommission	2.119510	1.411581	0	0
475.573822	0.795774	city	10	1	0.748108	0.748108	0	1	0	0	CorrectCommission	1.425046	1.457809	0	0
476.369690	0.795913	mountain	7	0	0.000000	0.735559	1	0	0	0	CorrectOmission	1.250453	1.490803	0	0
477.165588	0.795909	city	10	1	0.751041	0.751041	0	1	0	0	CorrectCommission	1.465857	1.509404	0	0
477.961456	0.795802	mountain	1	0	0.000000	0.785219	1	0	0	0	CorrectOmission	1.941381	1.512683	0	0
478.757141	0.795606	city	1	1	0.797697	0.797697	0	1	0	0	CorrectCommission	2.114984	1.499779	0	0
479.552856	0.795777	city	2	1	0.748077	0.748077	0	1	0	0	CorrectCommission	1.424620	1.469814	0	0
480.348663	0.795862	city	1	1	0.748128	0.748128	0	1	0	0	CorrectCommission	1.425326	1.421910	0	0
481.144562	0.795961	city	4	1	0.748061	0.748061	0	1	0	0	CorrectCommission	1.424390	1.355264	0	0
481.940338	0.795586	city	2	1	0.748719	0.748719	0	1	0	0	CorrectCommission	1.433548	1.269366	0	0
482.736145	0.796017	city	3	1	0.750674	0.750674	0	1	0	0	CorrectCommission	1.460749	1.164234	0	0
483.531952	0.795587	city	9	1	0.797612	0.797612	0	1	0	0	CorrectCommission	2.113804	1.040677	0	0
484.327698	0.795908	city	2	1	0.750645	0.750645	0	1	0	0	CorrectCommission	1.460345	0.900490	0	0
485.123596	0.795910	city	6	1	0.748963	0.748963	0	1	0	0	CorrectCommission	1.436939	0.746558	0	0
485.919403	0.795699	city	2	1	0.667855	0.667855	0	1	0	0	CorrectCommission	0.308459	0.582788	1	0
486.715118	0.795687	city	10	1	0.615936	0.615936	0	1	0	0	CorrectCommission	0.413892	0.413892	1	0
