onset	duration	trial_type	image_type	Press	ReactionTime	ReactionTime_Interpolated	CorrectOmission	CorrectCommission	CommissionError	OmissionError	response_type	nonsmoothVarianceTimeCourse	VarianceTimeCourse	In_the_Zone	Reward_trial
8.433861	0.792374	city	5	1	0.696499	0.696499	0	1	0	0	CorrectCommission	0.228436	0.228436	1	1
9.226128	0.792159	city	1	1	0.645622	0.645622	0	1	0	0	CorrectCommission	1.001264	0.294367	1	1
10.018447	0.792481	city	2	1	0.695337	0.695337	0	1	0	0	CorrectCommission	0.246086	0.358995	1	1
10.810716	0.792056	city	3	1	0.746065	0.746065	0	1	0	0	CorrectCommission	0.524486	0.421111	1	1
11.611126	0.808763	city	8	1	0.761304	0.761304	0	1	0	0	CorrectCommission	0.755965	0.479657	1	1
12.411659	0.792304	mountain	7	0	0.000000	0.755595	1	0	0	0	CorrectOmission	0.669241	0.533790	1	1
13.203959	0.792295	city	9	1	0.744778	0.744778	0	1	0	0	CorrectCommission	0.504935	0.582895	1	1
13.996203	0.792194	city	4	1	0.744695	0.744695	0	1	0	0	CorrectCommission	0.503674	0.626517	1	1
14.788486	0.792372	mountain	2	0	0.000000	0.749288	1	0	0	0	CorrectOmission	0.573448	0.664350	1	1
15.580857	0.792372	city	5	1	0.762147	0.762147	0	1	0	0	CorrectCommission	0.768773	0.696195	1	1
16.373177	0.792266	mountain	2	0	0.000000	0.786860	1	0	0	0	CorrectOmission	1.144164	0.721916	1	1
17.165333	0.792048	city	5	1	0.794209	0.794209	0	1	0	0	CorrectCommission	1.255791	0.741426	0	1
17.957489	0.792262	city	10	1	0.754975	0.754975	0	1	0	0	CorrectCommission	0.659825	0.754695	0	1
18.749754	0.792268	mountain	10	1	0.744780	0.744780	0	0	1	0	CommissionError	0.504958	0.761755	0	1
19.542019	0.792264	mountain	7	0	0.000000	0.744541	1	0	0	0	CorrectOmission	0.501338	0.762740	0	1
20.334337	0.792373	city	10	1	0.761140	0.761140	0	1	0	0	CorrectCommission	0.753474	0.757907	0	1
21.126656	0.792264	city	1	1	0.801455	0.801455	0	1	0	0	CorrectCommission	1.365873	0.747709	0	1
21.918869	0.792160	city	10	1	0.801017	0.801017	0	1	0	0	CorrectCommission	1.359218	0.732801	0	1
22.711079	0.792262	city	9	1	0.695415	0.695415	0	1	0	0	CorrectCommission	0.244907	0.714089	1	1
23.503361	0.792299	city	4	1	0.695299	0.695299	0	1	0	0	CorrectCommission	0.246662	0.692700	1	1
24.295679	0.792339	city	5	1	0.607971	0.607971	0	1	0	0	CorrectCommission	1.573193	0.669871	1	1
25.087927	0.792155	city	2	1	0.655039	0.655039	0	1	0	0	CorrectCommission	0.858221	0.646829	1	1
25.880136	0.792267	city	5	1	0.710696	0.710696	0	1	0	0	CorrectCommission	0.012779	0.624699	1	1
26.672424	0.792309	city	4	1	0.700680	0.700680	0	1	0	0	CorrectCommission	0.164921	0.604358	1	1
27.464725	0.792292	city	8	1	0.702398	0.702398	0	1	0	0	CorrectCommission	0.138821	0.586356	1	1
28.256968	0.792191	city	9	1	0.645843	0.645843	0	1	0	0	CorrectCommission	0.997914	0.570847	1	1
29.049194	0.792264	city	4	1	0.695287	0.695287	0	1	0	0	CorrectCommission	0.246842	0.557676	1	1
29.841501	0.792349	mountain	10	0	0.000000	0.677188	1	0	0	0	CorrectOmission	0.521771	0.546557	1	1
30.633770	0.792189	city	8	1	0.645946	0.645946	0	1	0	0	CorrectCommission	0.996349	0.537213	1	1
31.426046	0.792365	mountain	4	0	0.000000	0.655960	1	0	0	0	CorrectOmission	0.844227	0.529545	1	1
32.218307	0.792157	city	8	1	0.696401	0.696401	0	1	0	0	CorrectCommission	0.229916	0.523796	1	1
33.010521	0.792267	city	4	1	0.756439	0.756439	0	1	0	0	CorrectCommission	0.682073	0.520606	1	1
33.802792	0.792277	city	9	1	0.702364	0.702364	0	1	0	0	CorrectCommission	0.139347	0.520915	1	1
34.595055	0.792250	city	3	1	0.660137	0.660137	0	1	0	0	CorrectCommission	0.780785	0.525889	1	1
35.387367	0.792374	city	8	1	0.695441	0.695441	0	1	0	0	CorrectCommission	0.244507	0.536651	1	1
36.179741	0.792371	city	9	1	0.652967	0.652967	0	1	0	0	CorrectCommission	0.889698	0.554046	1	1
36.972004	0.792157	city	2	1	0.703945	0.703945	0	1	0	0	CorrectCommission	0.115330	0.578346	1	1
37.764160	0.792158	city	8	1	0.700216	0.700216	0	1	0	0	CorrectCommission	0.171968	0.609080	1	1
38.556374	0.792267	city	3	1	0.695296	0.695296	0	1	0	0	CorrectCommission	0.246706	0.644884	1	1
39.348637	0.792260	city	5	1	0.744803	0.744803	0	1	0	0	CorrectCommission	0.505312	0.683554	1	1
40.140900	0.792267	mountain	6	0	0.000000	0.708850	1	0	0	0	CorrectOmission	0.040817	0.722259	1	1
40.933167	0.792263	city	6	1	0.703282	0.703282	0	1	0	0	CorrectCommission	0.125401	0.757883	0	1
41.725468	0.792340	city	7	1	0.843942	0.843942	0	1	0	0	CorrectCommission	2.011258	0.787379	0	1
42.517776	0.792278	city	4	1	0.942832	0.942832	0	1	0	0	CorrectCommission	3.513410	0.808188	0	1
43.310059	0.792287	city	10	1	0.645874	0.645874	0	1	0	0	CorrectCommission	0.997437	0.818601	0	1
44.102280	0.792157	city	7	1	0.695164	0.695164	0	1	0	0	CorrectCommission	0.248707	0.817955	0	1
44.894489	0.792264	city	4	1	0.701303	0.701303	0	1	0	0	CorrectCommission	0.155453	0.806572	0	1
45.686756	0.792263	city	10	1	0.645905	0.645905	0	1	0	0	CorrectCommission	0.996960	0.785639	0	1
46.479126	0.792482	city	7	1	0.746690	0.746690	0	1	0	0	CorrectCommission	0.533972	0.757002	0	1
47.271412	0.792089	city	5	1	0.744882	0.744882	0	1	0	0	CorrectCommission	0.506514	0.722952	1	1
48.063591	0.792270	city	6	1	0.799841	0.799841	0	1	0	0	CorrectCommission	1.341344	0.685966	1	1
48.855946	0.792434	city	7	1	0.695249	0.695249	0	1	0	0	CorrectCommission	0.247417	0.648538	1	1
49.648239	0.792156	city	10	1	0.645612	0.645612	0	1	0	0	CorrectCommission	1.001414	0.613107	1	1
50.440395	0.792154	city	5	1	0.656382	0.656382	0	1	0	0	CorrectCommission	0.837812	0.581849	1	1
51.232609	0.792271	city	2	1	0.695306	0.695306	0	1	0	0	CorrectCommission	0.246555	0.556645	1	1
52.024872	0.792259	city	7	1	0.695385	0.695385	0	1	0	0	CorrectCommission	0.245351	0.538922	1	1
52.817245	0.792484	city	10	1	0.695503	0.695503	0	1	0	0	CorrectCommission	0.243569	0.529533	1	1
53.609619	0.792264	city	3	1	0.702257	0.702257	0	1	0	0	CorrectCommission	0.140975	0.528617	1	1
54.401775	0.792051	city	5	1	0.709490	0.709490	0	1	0	0	CorrectCommission	0.031093	0.535585	1	1
55.193932	0.792262	city	6	1	0.696390	0.696390	0	1	0	0	CorrectCommission	0.230086	0.549137	1	1
55.986206	0.792283	mountain	10	0	0.000000	0.678785	1	0	0	0	CorrectOmission	0.497515	0.567383	1	1
56.778484	0.792279	city	7	1	0.660603	0.660603	0	1	0	0	CorrectCommission	0.773706	0.588030	1	1
57.570766	0.792280	city	9	1	0.645772	0.645772	0	1	0	0	CorrectCommission	0.998987	0.608662	1	1
58.363121	0.792434	city	8	1	0.598782	0.598782	0	1	0	0	CorrectCommission	1.712774	0.627007	1	1
59.155415	0.792154	city	5	1	0.695165	0.695165	0	1	0	0	CorrectCommission	0.248700	0.641162	1	1
59.947601	0.792216	city	8	1	0.695105	0.695105	0	1	0	0	CorrectCommission	0.249613	0.649803	1	1
60.739868	0.792315	city	3	1	0.652471	0.652471	0	1	0	0	CorrectCommission	0.897220	0.652280	1	1
61.532211	0.792374	city	10	1	0.651787	0.651787	0	1	0	0	CorrectCommission	0.907619	0.648621	1	1
62.324474	0.792157	city	2	1	0.659967	0.659967	0	1	0	0	CorrectCommission	0.783364	0.639484	1	1
63.116634	0.792157	city	7	1	0.658935	0.658935	0	1	0	0	CorrectCommission	0.799037	0.626023	1	1
63.908848	0.792271	city	5	1	0.763189	0.763189	0	1	0	0	CorrectCommission	0.784593	0.609738	1	1
64.701164	0.792364	city	4	1	0.747631	0.747631	0	1	0	0	CorrectCommission	0.548270	0.592284	1	1
65.493431	0.792167	city	3	1	0.696258	0.696258	0	1	0	0	CorrectCommission	0.232094	0.575276	1	1
66.285645	0.792253	city	10	1	0.697133	0.697133	0	1	0	0	CorrectCommission	0.218802	0.560131	1	1
67.077904	0.792268	city	1	1	0.744847	0.744847	0	1	0	0	CorrectCommission	0.505981	0.547953	1	1
67.870201	0.792333	city	6	1	0.654348	0.654348	0	1	0	0	CorrectCommission	0.868716	0.539444	1	0
68.662476	0.792218	city	3	1	0.699048	0.699048	0	1	0	0	CorrectCommission	0.189707	0.534932	1	0
69.454819	0.792458	city	7	1	0.712164	0.712164	0	1	0	0	CorrectCommission	0.009527	0.534421	1	0
70.247070	0.792046	mountain	9	1	0.744550	0.744550	0	0	1	0	CommissionError	0.501466	0.537652	1	0
71.039223	0.792266	city	9	1	0.794464	0.794464	0	1	0	0	CorrectCommission	1.259667	0.544187	1	0
71.831490	0.792263	city	6	1	0.744837	0.744837	0	1	0	0	CorrectCommission	0.505826	0.553498	1	0
72.623756	0.792269	city	7	1	0.744771	0.744771	0	1	0	0	CorrectCommission	0.504819	0.565027	1	0
73.416023	0.792263	city	1	1	0.695251	0.695251	0	1	0	0	CorrectCommission	0.247387	0.578146	1	0
74.208282	0.792264	city	2	1	0.648987	0.648987	0	1	0	0	CorrectCommission	0.950154	0.592153	1	0
75.000549	0.792264	city	7	1	0.745270	0.745270	0	1	0	0	CorrectCommission	0.512406	0.606198	1	0
75.792816	0.792277	city	4	1	0.744878	0.744878	0	1	0	0	CorrectCommission	0.506448	0.619278	1	0
76.585114	0.792313	city	7	1	0.744868	0.744868	0	1	0	0	CorrectCommission	0.506293	0.630279	1	0
77.377373	0.792202	city	9	1	0.717640	0.717640	0	1	0	0	CorrectCommission	0.092705	0.637990	1	0
78.169609	0.792265	city	2	1	0.752037	0.752037	0	1	0	0	CorrectCommission	0.615203	0.641310	1	0
78.961868	0.792266	city	9	1	0.794329	0.794329	0	1	0	0	CorrectCommission	1.257621	0.639429	1	0
79.754242	0.792481	city	7	1	0.794422	0.794422	0	1	0	0	CorrectCommission	1.259033	0.632039	1	0
80.546509	0.792048	city	3	1	0.812609	0.812609	0	1	0	0	CorrectCommission	1.535305	0.619518	1	0
81.338776	0.792483	city	4	1	0.708278	0.708278	0	1	0	0	CorrectCommission	0.049508	0.603000	1	0
82.131042	0.792046	city	8	1	0.646440	0.646440	0	1	0	0	CorrectCommission	0.988838	0.584347	1	0
82.923302	0.792482	city	4	1	0.695238	0.695238	0	1	0	0	CorrectCommission	0.247585	0.565890	1	0
83.715569	0.792052	city	6	1	0.695175	0.695175	0	1	0	0	CorrectCommission	0.248545	0.550210	1	0
84.507736	0.792275	city	3	1	0.697203	0.697203	0	1	0	0	CorrectCommission	0.217739	0.539716	1	0
85.300049	0.792358	city	7	1	0.695427	0.695427	0	1	0	0	CorrectCommission	0.244722	0.536306	1	0
86.092339	0.792213	city	5	1	0.701292	0.701292	0	1	0	0	CorrectCommission	0.155626	0.541077	1	0
86.884598	0.792315	city	9	1	0.666646	0.666646	0	1	0	0	CorrectCommission	0.681905	0.554116	1	0
87.676888	0.792264	city	8	1	0.695245	0.695245	0	1	0	0	CorrectCommission	0.247487	0.574421	1	0
88.469101	0.792158	city	3	1	0.695167	0.695167	0	1	0	0	CorrectCommission	0.248674	0.600006	1	0
89.261368	0.792372	city	4	1	0.745380	0.745380	0	1	0	0	CorrectCommission	0.514070	0.628124	1	0
90.053688	0.792264	city	5	1	0.744687	0.744687	0	1	0	0	CorrectCommission	0.503555	0.655598	1	0
90.845894	0.792156	mountain	9	1	0.649322	0.649322	0	0	1	0	CommissionError	0.945060	0.679196	1	0
91.638107	0.792268	city	4	1	0.850477	0.850477	0	1	0	0	CorrectCommission	2.110521	0.696040	1	0
92.430428	0.792370	city	6	1	0.695400	0.695400	0	1	0	0	CorrectCommission	0.245129	0.703973	1	0
93.222740	0.792265	city	2	1	0.646262	0.646262	0	1	0	0	CorrectCommission	0.991541	0.701865	1	0
94.014954	0.792155	city	3	1	0.602683	0.602683	0	1	0	0	CorrectCommission	1.653515	0.689645	1	0
94.807175	0.792280	city	6	1	0.658110	0.658110	0	1	0	0	CorrectCommission	0.811566	0.668342	1	0
95.599434	0.792250	city	3	1	0.704744	0.704744	0	1	0	0	CorrectCommission	0.103184	0.639935	1	0
96.391747	0.792374	city	1	1	0.664451	0.664451	0	1	0	0	CorrectCommission	0.715252	0.607087	1	0
97.184013	0.792156	mountain	9	1	0.695261	0.695261	0	0	1	0	CommissionError	0.247245	0.572795	1	0
97.976227	0.792266	city	8	1	0.751649	0.751649	0	1	0	0	CorrectCommission	0.609310	0.540128	1	0
98.768600	0.792483	city	1	1	0.748362	0.748362	0	1	0	0	CorrectCommission	0.559379	0.511880	1	0
99.560890	0.792098	mountain	5	0	0.000000	0.717721	1	0	0	0	CorrectOmission	0.093935	0.490336	1	0
100.353058	0.792241	city	3	1	0.702318	0.702318	0	1	0	0	CorrectCommission	0.140048	0.477112	1	0
101.145409	0.792454	city	2	1	0.744743	0.744743	0	1	0	0	CorrectCommission	0.504401	0.473018	1	0
101.937653	0.792046	city	3	1	0.695154	0.695154	0	1	0	0	CorrectCommission	0.248867	0.478043	1	0
102.729843	0.792336	city	2	1	0.703414	0.703414	0	1	0	0	CorrectCommission	0.123398	0.491438	1	0
103.522217	0.792411	city	5	1	0.709645	0.709645	0	1	0	0	CorrectCommission	0.028743	0.511858	1	0
104.314453	0.792051	city	9	1	0.744471	0.744471	0	1	0	0	CorrectCommission	0.500268	0.537498	1	0
105.106720	0.792479	city	7	1	0.812742	0.812742	0	1	0	0	CorrectCommission	1.537317	0.566348	1	0
105.898979	0.792045	city	6	1	0.699830	0.699830	0	1	0	0	CorrectCommission	0.177834	0.596406	1	0
106.691139	0.792272	mountain	1	0	0.000000	0.741953	1	0	0	0	CorrectOmission	0.462022	0.625961	1	0
107.483513	0.792479	city	2	1	0.803700	0.803700	0	1	0	0	CorrectCommission	1.399969	0.653676	1	0
108.275833	0.792156	city	7	1	0.749660	0.749660	0	1	0	0	CorrectCommission	0.579095	0.678717	1	0
109.067986	0.792155	city	8	1	0.757298	0.757298	0	1	0	0	CorrectCommission	0.695114	0.700838	1	0
109.860199	0.792273	mountain	7	0	0.000000	0.768428	1	0	0	0	CorrectOmission	0.864177	0.720342	1	0
110.652466	0.792265	city	4	1	0.744778	0.744778	0	1	0	0	CorrectCommission	0.504928	0.737951	0	0
111.444839	0.792472	city	10	1	0.648076	0.648076	0	1	0	0	CorrectCommission	0.963986	0.754670	0	0
112.237099	0.792047	mountain	9	1	0.744665	0.744665	0	0	1	0	CommissionError	0.503211	0.771631	0	0
113.029251	0.792264	city	3	1	0.796398	0.796398	0	1	0	0	CorrectCommission	1.289050	0.789902	0	0
113.821625	0.792483	city	1	1	0.699218	0.699218	0	1	0	0	CorrectCommission	0.187135	0.810244	0	0
114.613907	0.792083	city	9	1	0.650333	0.650333	0	1	0	0	CorrectCommission	0.929700	0.833028	0	0
115.406067	0.792232	mountain	2	0	0.000000	0.644812	1	0	0	0	CorrectOmission	1.013574	0.858015	0	0
116.198425	0.792480	mountain	5	0	0.000000	0.668304	1	0	0	0	CorrectOmission	0.656721	0.884370	0	0
116.990692	0.792055	city	7	1	0.706461	0.706461	0	1	0	0	CorrectCommission	0.077107	0.910672	0	0
117.782845	0.792257	city	3	1	0.744934	0.744934	0	1	0	0	CorrectCommission	0.507304	0.935046	0	0
118.575111	0.792268	city	4	1	0.846050	0.846050	0	1	0	0	CorrectCommission	2.043268	0.955326	0	0
119.367393	0.792303	city	7	1	0.795001	0.795001	0	1	0	0	CorrectCommission	1.267827	0.969341	0	0
120.159653	0.792223	city	10	1	0.794175	0.794175	0	1	0	0	CorrectCommission	1.255275	0.975255	0	0
120.951912	0.792295	city	1	1	0.799600	0.799600	0	1	0	0	CorrectCommission	1.337693	0.971749	0	0
121.744286	0.792454	city	4	1	0.607993	0.607993	0	1	0	0	CorrectCommission	1.572863	0.958219	0	0
122.536537	0.792049	city	6	1	0.649166	0.649166	0	1	0	0	CorrectCommission	0.947434	0.934829	0	0
123.328728	0.792321	city	1	1	0.695267	0.695267	0	1	0	0	CorrectCommission	0.247154	0.902562	0	0
124.120987	0.792205	city	4	1	0.654468	0.654468	0	1	0	0	CorrectCommission	0.866899	0.863070	0	0
124.913223	0.792263	city	8	1	0.606049	0.606049	0	1	0	0	CorrectCommission	1.602385	0.818469	0	0
125.705597	0.792484	mountain	3	0	0.000000	0.650855	1	0	0	0	CorrectOmission	0.921768	0.771178	0	0
126.497864	0.792048	city	8	1	0.695287	0.695287	0	1	0	0	CorrectCommission	0.246851	0.723690	1	0
127.290016	0.792266	city	6	1	0.645742	0.645742	0	1	0	0	CorrectCommission	0.999435	0.678311	1	1
128.082397	0.792481	city	9	1	0.695308	0.695308	0	1	0	0	CorrectCommission	0.246531	0.636984	1	1
128.874695	0.792128	city	10	1	0.709029	0.709029	0	1	0	0	CorrectCommission	0.038097	0.601132	1	1
129.666855	0.792185	city	1	1	0.695312	0.695312	0	1	0	0	CorrectCommission	0.246462	0.571608	1	1
130.459137	0.792370	city	9	1	0.695338	0.695338	0	1	0	0	CorrectCommission	0.246073	0.548698	1	1
131.251511	0.792375	city	10	1	0.652562	0.652562	0	1	0	0	CorrectCommission	0.895839	0.532205	1	1
132.043823	0.792265	city	2	1	0.749797	0.749797	0	1	0	0	CorrectCommission	0.581169	0.521607	1	1
132.835983	0.792046	city	7	1	0.757346	0.757346	0	1	0	0	CorrectCommission	0.695849	0.516275	1	1
133.628250	0.792482	city	2	1	0.700401	0.700401	0	1	0	0	CorrectCommission	0.169157	0.515620	1	1
134.420624	0.792265	city	7	1	0.744594	0.744594	0	1	0	0	CorrectCommission	0.502133	0.519266	1	1
135.212799	0.792085	mountain	3	0	0.000000	0.756907	1	0	0	0	CorrectOmission	0.689177	0.527095	1	1
136.005051	0.792443	city	3	1	0.754449	0.754449	0	1	0	0	CorrectCommission	0.651833	0.539272	1	1
136.797318	0.792072	city	4	1	0.754325	0.754325	0	1	0	0	CorrectCommission	0.649956	0.556203	1	1
137.589478	0.792241	city	6	1	0.695284	0.695284	0	1	0	0	CorrectCommission	0.246883	0.578406	1	1
138.381729	0.792264	mountain	1	0	0.000000	0.690734	1	0	0	0	CorrectOmission	0.316011	0.606341	1	1
139.173996	0.792267	mountain	8	0	0.000000	0.718200	1	0	0	0	CorrectOmission	0.101210	0.640221	1	1
139.966370	0.792481	mountain	3	0	0.000000	0.755211	1	0	0	0	CorrectOmission	0.663420	0.679879	1	1
140.758743	0.792265	city	8	0	0.000000	0.779295	0	0	0	1	OmissionError	1.029255	0.724629	1	1
141.550888	0.792048	city	5	1	0.767979	0.767979	0	1	0	0	CorrectCommission	0.857353	0.773177	0	1
142.343048	0.792275	city	6	1	0.698789	0.698789	0	1	0	0	CorrectCommission	0.193646	0.823636	0	1
143.135315	0.792255	city	5	1	0.596248	0.596248	0	1	0	0	CorrectCommission	1.751263	0.873630	0	1
143.927582	0.792263	city	1	1	0.705942	0.705942	0	1	0	0	CorrectCommission	0.084999	0.920386	0	1
144.719879	0.792334	city	10	1	0.750198	0.750198	0	1	0	0	CorrectCommission	0.587262	0.961053	0	1
145.512146	0.792196	city	3	1	0.855388	0.855388	0	1	0	0	CorrectCommission	2.185119	0.992929	0	1
146.304367	0.792265	city	4	1	0.744889	0.744889	0	1	0	0	CorrectCommission	0.506617	1.013765	0	1
147.096741	0.792481	city	9	1	0.794347	0.794347	0	1	0	0	CorrectCommission	1.257899	1.022159	0	1
147.889008	0.792051	city	7	1	0.862191	0.862191	0	1	0	0	CorrectCommission	2.288451	1.017673	0	1
148.681274	0.792478	city	5	1	0.843937	0.843937	0	1	0	0	CorrectCommission	2.011173	1.000939	0	1
149.473541	0.792061	city	2	1	0.794075	0.794075	0	1	0	0	CorrectCommission	1.253769	0.973655	0	1
150.265717	0.792270	city	4	1	0.744795	0.744795	0	1	0	0	CorrectCommission	0.505184	0.938306	0	1
151.058029	0.792356	city	3	1	0.758349	0.758349	0	1	0	0	CorrectCommission	0.711076	0.897822	0	1
151.850388	0.792372	city	9	1	0.695197	0.695197	0	1	0	0	CorrectCommission	0.248207	0.855121	0	1
152.642593	0.792048	city	8	1	0.668453	0.668453	0	1	0	0	CorrectCommission	0.654456	0.812757	0	1
153.434753	0.792278	city	7	1	0.702376	0.702376	0	1	0	0	CorrectCommission	0.139155	0.772631	0	1
154.227081	0.792359	city	4	1	0.697582	0.697582	0	1	0	0	CorrectCommission	0.211986	0.735916	0	1
155.019333	0.792157	city	9	1	0.652345	0.652345	0	1	0	0	CorrectCommission	0.899145	0.703077	1	1
155.811554	0.792267	city	2	1	0.612803	0.612803	0	1	0	0	CorrectCommission	1.499788	0.674063	1	1
156.603851	0.792345	city	5	1	0.652704	0.652704	0	1	0	0	CorrectCommission	0.893684	0.648566	1	1
157.396118	0.792185	city	3	1	0.744747	0.744747	0	1	0	0	CorrectCommission	0.504468	0.626288	1	1
158.188400	0.792370	mountain	2	0	0.000000	0.765976	1	0	0	0	CorrectOmission	0.826932	0.607076	1	1
158.980667	0.792156	city	10	1	0.744716	0.744716	0	1	0	0	CorrectCommission	0.503995	0.590982	1	1
159.772873	0.792267	city	3	1	0.709295	0.709295	0	1	0	0	CorrectCommission	0.034056	0.578262	1	1
160.565140	0.792261	city	5	1	0.764103	0.764103	0	1	0	0	CorrectCommission	0.798477	0.569167	1	1
161.357452	0.792376	city	9	1	0.695280	0.695280	0	1	0	0	CorrectCommission	0.246946	0.563856	1	1
162.149780	0.792264	city	5	1	0.695202	0.695202	0	1	0	0	CorrectCommission	0.248134	0.562190	1	1
162.941986	0.792160	city	7	1	0.744820	0.744820	0	1	0	0	CorrectCommission	0.505565	0.563672	1	1
163.734192	0.792265	city	2	1	0.712888	0.712888	0	1	0	0	CorrectCommission	0.020512	0.567546	1	1
164.526566	0.792478	mountain	6	0	0.000000	0.659090	1	0	0	0	CorrectOmission	0.796677	0.572855	1	1
165.318832	0.792049	city	8	1	0.663983	0.663983	0	1	0	0	CorrectCommission	0.722361	0.578645	1	1
166.110992	0.792262	city	4	1	0.808120	0.808120	0	1	0	0	CorrectCommission	1.467102	0.584244	1	1
166.903259	0.792265	city	1	1	0.648237	0.648237	0	1	0	0	CorrectCommission	0.961546	0.589397	1	1
167.695633	0.792510	city	9	1	0.701874	0.701874	0	1	0	0	CorrectCommission	0.146786	0.594431	1	1
168.487900	0.792019	city	7	1	0.695064	0.695064	0	1	0	0	CorrectCommission	0.250226	0.600193	1	1
169.280045	0.792268	city	3	1	0.649654	0.649654	0	1	0	0	CorrectCommission	0.940011	0.607917	1	1
170.072327	0.792279	city	7	1	0.744811	0.744811	0	1	0	0	CorrectCommission	0.505432	0.619025	1	1
170.864716	0.792522	mountain	10	0	0.000000	0.758312	1	0	0	0	CorrectOmission	0.710516	0.634899	1	1
171.657089	0.792209	mountain	1	0	0.000000	0.728872	1	0	0	0	CorrectOmission	0.263312	0.656556	1	1
172.449265	0.792156	city	1	1	0.695203	0.695203	0	1	0	0	CorrectCommission	0.248113	0.684450	1	1
173.241455	0.792202	city	7	1	0.696021	0.696021	0	1	0	0	CorrectCommission	0.235688	0.718309	1	1
174.033768	0.792438	city	4	1	0.696438	0.696438	0	1	0	0	CorrectCommission	0.229365	0.757131	0	1
174.826065	0.792154	city	6	1	0.645553	0.645553	0	1	0	0	CorrectCommission	1.002310	0.799273	0	1
175.618225	0.792161	city	7	1	0.660814	0.660814	0	1	0	0	CorrectCommission	0.770488	0.842553	0	1
176.410492	0.792368	city	3	1	0.893453	0.893453	0	1	0	0	CorrectCommission	2.763338	0.884548	0	1
177.202744	0.792161	city	2	1	0.700612	0.700612	0	1	0	0	CorrectCommission	0.165960	0.922749	0	1
177.994980	0.792287	mountain	8	0	0.000000	0.766666	1	0	0	0	CorrectOmission	0.837408	0.954870	0	1
178.787262	0.792298	city	2	1	0.849610	0.849610	0	1	0	0	CorrectCommission	2.097356	0.978894	0	1
179.579529	0.792240	city	6	1	0.707442	0.707442	0	1	0	0	CorrectCommission	0.062203	0.993230	0	1
180.371872	0.792447	city	4	1	0.695357	0.695357	0	1	0	0	CorrectCommission	0.245781	0.996890	0	1
181.164124	0.792052	city	8	1	0.612968	0.612968	0	1	0	0	CorrectCommission	1.497281	0.989535	0	1
181.956284	0.792261	city	6	1	0.610806	0.610806	0	1	0	0	CorrectCommission	1.530126	0.971555	0	1
182.748550	0.792264	city	9	1	0.556982	0.556982	0	1	0	0	CorrectCommission	2.347729	0.944188	0	1
183.540833	0.792304	city	10	1	0.610108	0.610108	0	1	0	0	CorrectCommission	1.540732	0.909495	0	1
184.333099	0.792226	city	6	1	0.695302	0.695302	0	1	0	0	CorrectCommission	0.246611	0.870254	0	1
185.125458	0.792482	city	7	1	0.744833	0.744833	0	1	0	0	CorrectCommission	0.505770	0.829767	0	1
185.917709	0.792046	city	6	1	0.657028	0.657028	0	1	0	0	CorrectCommission	0.828004	0.791480	0	1
186.709869	0.792266	city	3	1	0.695282	0.695282	0	1	0	0	CorrectCommission	0.246913	0.758605	0	0
187.502151	0.792289	city	1	1	0.699811	0.699811	0	1	0	0	CorrectCommission	0.178129	0.733806	0	0
188.294449	0.792313	city	5	1	0.699243	0.699243	0	1	0	0	CorrectCommission	0.186749	0.718873	1	0
189.086716	0.792235	city	2	1	0.744728	0.744728	0	1	0	0	CorrectCommission	0.504177	0.714557	1	0
189.878983	0.792275	city	5	1	0.794872	0.794872	0	1	0	0	CorrectCommission	1.265876	0.720541	1	0
190.671219	0.792217	city	2	1	0.711634	0.711634	0	1	0	0	CorrectCommission	0.001464	0.735493	0	0
191.463470	0.792289	city	6	1	0.744811	0.744811	0	1	0	0	CorrectCommission	0.505429	0.757391	0	0
192.255844	0.792453	city	2	1	0.649803	0.649803	0	1	0	0	CorrectCommission	0.937760	0.783742	0	0
193.048157	0.792157	city	7	1	0.648285	0.648285	0	1	0	0	CorrectCommission	0.960818	0.811958	0	0
193.840302	0.792154	city	8	1	0.604462	0.604462	0	1	0	0	CorrectCommission	1.626486	0.839659	0	0
194.632523	0.792265	city	2	1	0.645809	0.645809	0	1	0	0	CorrectCommission	0.998421	0.864961	0	0
195.424789	0.792267	city	7	1	0.695801	0.695801	0	1	0	0	CorrectCommission	0.239042	0.886610	0	0
196.217102	0.792373	city	4	1	0.794476	0.794476	0	1	0	0	CorrectCommission	1.259858	0.904002	0	0
197.009369	0.792158	city	7	1	0.794179	0.794179	0	1	0	0	CorrectCommission	1.255346	0.917162	0	0
197.801636	0.792371	city	1	1	0.747314	0.747314	0	1	0	0	CorrectCommission	0.543452	0.926577	0	0
198.593903	0.792155	city	7	1	0.853166	0.853166	0	1	0	0	CorrectCommission	2.151359	0.932992	0	0
199.386108	0.792266	city	6	1	0.701850	0.701850	0	1	0	0	CorrectCommission	0.147158	0.937113	0	0
200.178375	0.792265	city	2	1	0.650315	0.650315	0	1	0	0	CorrectCommission	0.929974	0.939500	0	0
200.970688	0.792374	city	10	1	0.645933	0.645933	0	1	0	0	CorrectCommission	0.996534	0.940294	0	0
201.763016	0.792265	city	8	1	0.709317	0.709317	0	1	0	0	CorrectCommission	0.033723	0.939251	0	0
202.555237	0.792176	city	5	1	0.702209	0.702209	0	1	0	0	CorrectCommission	0.141692	0.935770	0	0
203.347443	0.792248	city	4	1	0.794465	0.794465	0	1	0	0	CorrectCommission	1.259689	0.929037	0	0
204.139694	0.792260	city	9	1	0.844445	0.844445	0	1	0	0	CorrectCommission	2.018895	0.918272	0	0
204.932068	0.792481	city	7	1	0.893357	0.893357	0	1	0	0	CorrectCommission	2.761869	0.902977	0	0
205.724335	0.792049	city	10	1	0.744959	0.744959	0	1	0	0	CorrectCommission	0.507682	0.883110	0	0
206.516495	0.792264	city	3	1	0.707184	0.707184	0	1	0	0	CorrectCommission	0.066121	0.859230	0	0
207.308762	0.792265	city	5	1	0.653116	0.653116	0	1	0	0	CorrectCommission	0.887433	0.832329	0	0
208.101028	0.792297	city	6	1	0.707398	0.707398	0	1	0	0	CorrectCommission	0.062883	0.803741	0	0
208.893311	0.792239	mountain	4	0	0.000000	0.779584	1	0	0	0	CorrectOmission	1.033641	0.774966	0	0
209.685547	0.792256	city	9	1	0.799076	0.799076	0	1	0	0	CorrectCommission	1.329724	0.747410	0	0
210.477921	0.792484	city	10	1	0.695274	0.695274	0	1	0	0	CorrectCommission	0.247047	0.722267	1	0
211.270233	0.792156	city	2	1	0.713872	0.713872	0	1	0	0	CorrectCommission	0.035470	0.700402	1	0
212.062393	0.792157	city	3	1	0.794208	0.794208	0	1	0	0	CorrectCommission	1.255786	0.682334	1	0
212.854614	0.792269	city	2	1	0.744794	0.744794	0	1	0	0	CorrectCommission	0.505182	0.668264	1	0
213.646881	0.792259	city	4	1	0.765039	0.765039	0	1	0	0	CorrectCommission	0.812699	0.658157	1	0
214.439240	0.792482	city	9	1	0.701503	0.701503	0	1	0	0	CorrectCommission	0.152415	0.651828	1	0
215.231506	0.792046	city	10	1	0.663505	0.663505	0	1	0	0	CorrectCommission	0.729626	0.649093	1	0
216.023773	0.792483	city	6	1	0.744908	0.744908	0	1	0	0	CorrectCommission	0.506906	0.649763	1	0
216.816147	0.792265	city	10	1	0.794254	0.794254	0	1	0	0	CorrectCommission	1.256488	0.653771	1	0
217.608307	0.792047	city	7	1	0.745281	0.745281	0	1	0	0	CorrectCommission	0.512572	0.661078	1	0
218.400467	0.792266	mountain	7	0	0.000000	0.750293	1	0	0	0	CorrectOmission	0.588710	0.671659	1	0
219.192734	0.792265	city	1	1	0.752551	0.752551	0	1	0	0	CorrectCommission	0.623014	0.685388	1	0
219.984985	0.792262	city	3	1	0.695316	0.695316	0	1	0	0	CorrectCommission	0.246404	0.701915	1	0
220.777313	0.792375	city	8	1	0.696470	0.696470	0	1	0	0	CorrectCommission	0.228874	0.720587	1	0
221.569687	0.792371	city	5	1	0.794191	0.794191	0	1	0	0	CorrectCommission	1.255519	0.740432	0	0
222.361893	0.792052	city	7	1	0.762281	0.762281	0	1	0	0	CorrectCommission	0.770804	0.760166	0	0
223.154053	0.792261	city	10	1	0.758716	0.758716	0	1	0	0	CorrectCommission	0.716653	0.778426	0	0
223.946365	0.792373	city	3	1	0.748990	0.748990	0	1	0	0	CorrectCommission	0.568909	0.793836	0	0
224.738632	0.792158	city	6	1	0.796630	0.796630	0	1	0	0	CorrectCommission	1.292575	0.805245	0	0
225.530838	0.792262	city	4	1	0.801521	0.801521	0	1	0	0	CorrectCommission	1.366876	0.811971	0	0
226.323212	0.792482	city	3	1	0.702602	0.702602	0	1	0	0	CorrectCommission	0.135732	0.813931	0	0
227.115479	0.792051	city	5	1	0.794270	0.794270	0	1	0	0	CorrectCommission	1.256729	0.811775	0	0
227.907639	0.792264	city	7	1	0.844497	0.844497	0	1	0	0	CorrectCommission	2.019675	0.806784	0	0
228.699936	0.792344	city	8	1	0.744797	0.744797	0	1	0	0	CorrectCommission	0.505221	0.800764	0	0
229.492203	0.792186	city	7	1	0.695212	0.695212	0	1	0	0	CorrectCommission	0.247979	0.795797	0	0
230.284546	0.792478	city	1	1	0.695325	0.695325	0	1	0	0	CorrectCommission	0.246267	0.793882	0	0
231.076797	0.792047	city	4	1	0.660335	0.660335	0	1	0	0	CorrectCommission	0.777772	0.796563	0	0
231.868958	0.792267	city	6	1	0.748922	0.748922	0	1	0	0	CorrectCommission	0.567875	0.804655	0	0
232.661224	0.792264	city	9	1	0.747995	0.747995	0	1	0	0	CorrectCommission	0.553794	0.818048	0	0
233.453491	0.792268	city	1	1	0.751322	0.751322	0	1	0	0	CorrectCommission	0.604335	0.835645	0	0
234.245773	0.792292	city	7	1	0.794742	0.794742	0	1	0	0	CorrectCommission	1.263892	0.855470	0	0
235.038040	0.792235	city	6	1	0.744749	0.744749	0	1	0	0	CorrectCommission	0.504496	0.874935	0	0
235.830292	0.792267	city	4	1	0.698009	0.698009	0	1	0	0	CorrectCommission	0.205489	0.891289	0	0
236.622559	0.792287	city	9	1	0.645774	0.645774	0	1	0	0	CorrectCommission	0.998963	0.902030	0	0
237.414886	0.792346	city	7	1	0.596383	0.596383	0	1	0	0	CorrectCommission	1.749213	0.905347	0	0
238.207138	0.792159	city	5	1	0.503758	0.503758	0	1	0	0	CorrectCommission	3.156198	0.900499	0	0
238.999451	0.792481	city	10	1	0.645761	0.645761	0	1	0	0	CorrectCommission	0.999153	0.887884	0	0
239.791824	0.792264	city	3	1	0.700802	0.700802	0	1	0	0	CorrectCommission	0.163064	0.869098	0	0
240.583984	0.792046	city	7	1	0.794074	0.794074	0	1	0	0	CorrectCommission	1.253743	0.846545	0	0
241.376144	0.792269	city	9	1	0.705388	0.705388	0	1	0	0	CorrectCommission	0.093415	0.822977	0	0
242.168396	0.792263	mountain	10	0	0.000000	0.684465	1	0	0	0	CorrectOmission	0.411226	0.801039	0	0
242.960663	0.792264	city	2	1	0.695388	0.695388	0	1	0	0	CorrectCommission	0.245313	0.782729	0	0
243.752930	0.792268	city	1	1	0.702235	0.702235	0	1	0	0	CorrectCommission	0.141296	0.769125	0	0
244.545258	0.792370	city	2	1	0.744788	0.744788	0	1	0	0	CorrectCommission	0.505081	0.760231	0	0
245.337509	0.792159	city	3	1	0.794201	0.794201	0	1	0	0	CorrectCommission	1.255685	0.755056	0	0
246.129730	0.792259	city	8	1	0.757330	0.757330	0	1	0	0	CorrectCommission	0.695597	0.751925	0	1
246.921982	0.792265	mountain	9	0	0.000000	0.769234	1	0	0	0	CorrectOmission	0.876430	0.748888	0	1
247.714249	0.792266	city	4	1	0.794263	0.794263	0	1	0	0	CorrectCommission	1.256623	0.744088	0	1
248.506577	0.792373	city	10	1	0.796765	0.796765	0	1	0	0	CorrectCommission	1.294618	0.736107	0	1
249.298859	0.792210	city	5	1	0.798840	0.798840	0	1	0	0	CorrectCommission	1.326141	0.724213	1	1
250.091125	0.792320	city	10	1	0.695206	0.695206	0	1	0	0	CorrectCommission	0.248079	0.708386	1	1
250.883469	0.792374	mountain	6	0	0.000000	0.677840	1	0	0	0	CorrectOmission	0.511869	0.689274	1	1
251.675690	0.792057	city	3	1	0.695083	0.695083	0	1	0	0	CorrectCommission	0.249947	0.667944	1	1
252.467850	0.792253	city	9	1	0.695275	0.695275	0	1	0	0	CorrectCommission	0.247028	0.645675	1	1
253.260101	0.792267	city	5	1	0.603239	0.603239	0	1	0	0	CorrectCommission	1.645067	0.623723	1	1
254.052368	0.792265	city	9	1	0.701400	0.701400	0	1	0	0	CorrectCommission	0.153980	0.603111	1	1
254.844635	0.792265	city	2	1	0.703990	0.703990	0	1	0	0	CorrectCommission	0.114643	0.584609	1	1
255.636963	0.792372	city	9	1	0.750127	0.750127	0	1	0	0	CorrectCommission	0.586183	0.568630	1	1
256.429321	0.792374	city	8	1	0.763993	0.763993	0	1	0	0	CorrectCommission	0.796806	0.555321	1	1
257.221649	0.792264	city	4	1	0.744653	0.744653	0	1	0	0	CorrectCommission	0.503033	0.544672	1	1
258.013794	0.792050	city	6	1	0.744613	0.744613	0	1	0	0	CorrectCommission	0.502430	0.536552	1	1
258.805969	0.792299	city	9	1	0.695252	0.695252	0	1	0	0	CorrectCommission	0.247369	0.530845	1	1
259.598236	0.792230	city	6	1	0.651447	0.651447	0	1	0	0	CorrectCommission	0.912788	0.527452	1	1
260.390503	0.792267	city	2	1	0.654047	0.654047	0	1	0	0	CorrectCommission	0.873294	0.526292	1	1
261.182770	0.792258	city	4	1	0.695258	0.695258	0	1	0	0	CorrectCommission	0.247290	0.527302	1	1
261.975006	0.792269	city	1	1	0.695255	0.695255	0	1	0	0	CorrectCommission	0.247337	0.530347	1	1
262.767303	0.792304	city	5	1	0.695339	0.695339	0	1	0	0	CorrectCommission	0.246053	0.535155	1	1
263.559570	0.792225	city	4	1	0.695211	0.695211	0	1	0	0	CorrectCommission	0.247995	0.541339	1	1
264.351929	0.792479	city	8	1	0.657253	0.657253	0	1	0	0	CorrectCommission	0.824594	0.548402	1	1
265.144196	0.792051	city	1	1	0.695078	0.695078	0	1	0	0	CorrectCommission	0.250017	0.555834	1	1
265.936340	0.792264	mountain	2	0	0.000000	0.768096	1	0	0	0	CorrectOmission	0.859139	0.563255	1	1
266.728668	0.792370	city	4	1	0.807551	0.807551	0	1	0	0	CorrectCommission	1.458469	0.570486	1	1
267.520935	0.792155	city	2	1	0.744688	0.744688	0	1	0	0	CorrectCommission	0.503566	0.577674	1	1
268.313141	0.792269	city	10	1	0.695332	0.695332	0	1	0	0	CorrectCommission	0.246158	0.585310	1	1
269.105408	0.792263	city	6	1	0.747716	0.747716	0	1	0	0	CorrectCommission	0.549556	0.594136	1	1
269.897705	0.792372	city	7	1	0.695456	0.695456	0	1	0	0	CorrectCommission	0.244274	0.605025	1	1
270.690125	0.792429	city	9	1	0.647639	0.647639	0	1	0	0	CorrectCommission	0.970621	0.618807	1	1
271.482330	0.791995	city	3	1	0.695007	0.695007	0	1	0	0	CorrectCommission	0.251104	0.636093	1	1
272.274475	0.792263	city	6	1	0.646135	0.646135	0	1	0	0	CorrectCommission	0.993478	0.657156	1	1
273.066711	0.792264	city	4	1	0.708329	0.708329	0	1	0	0	CorrectCommission	0.048739	0.681820	1	1
273.859039	0.792374	city	3	1	0.754035	0.754035	0	1	0	0	CorrectCommission	0.645545	0.709583	1	1
274.651306	0.792169	city	5	1	0.695070	0.695070	0	1	0	0	CorrectCommission	0.250139	0.739706	0	1
275.443512	0.792249	city	6	1	0.755530	0.755530	0	1	0	0	CorrectCommission	0.668251	0.771514	0	1
276.235840	0.792374	city	8	1	0.612865	0.612865	0	1	0	0	CorrectCommission	1.498851	0.804567	0	1
277.028198	0.792374	city	5	1	0.645628	0.645628	0	1	0	0	CorrectCommission	1.001168	0.838914	0	1
277.820435	0.792047	city	4	1	0.645558	0.645558	0	1	0	0	CorrectCommission	1.002232	0.875230	0	1
278.612610	0.792306	city	9	1	0.603555	0.603555	0	1	0	0	CorrectCommission	1.640271	0.914759	0	1
279.404907	0.792305	city	1	1	0.658039	0.658039	0	1	0	0	CorrectCommission	0.812646	0.959060	0	1
280.197266	0.792401	city	3	1	0.794511	0.794511	0	1	0	0	CorrectCommission	1.260386	1.009629	0	1
280.989502	0.792110	city	7	1	0.753948	0.753948	0	1	0	0	CorrectCommission	0.644225	1.067359	0	1
281.781677	0.792201	city	10	1	0.713810	0.713810	0	1	0	0	CorrectCommission	0.034523	1.132055	0	1
282.573914	0.792265	city	1	1	0.713257	0.713257	0	1	0	0	CorrectCommission	0.026120	1.202082	0	1
283.366272	0.792483	city	4	1	0.695322	0.695322	0	1	0	0	CorrectCommission	0.246312	1.274226	0	1
284.158539	0.792047	city	7	1	0.656506	0.656506	0	1	0	0	CorrectCommission	0.835930	1.343929	0	1
284.950714	0.792285	city	6	1	0.843856	0.843856	0	1	0	0	CorrectCommission	2.009949	1.405833	0	1
285.742981	0.792246	mountain	2	0	0.000000	0.946211	1	0	0	0	CorrectOmission	3.564738	1.454473	0	1
286.535217	0.792263	mountain	3	0	0.000000	0.953820	1	0	0	0	CorrectOmission	3.680323	1.485086	0	1
287.327484	0.792267	city	3	1	0.856933	0.856933	0	1	0	0	CorrectCommission	2.208590	1.494337	0	1
288.119751	0.792277	city	9	1	0.645799	0.645799	0	1	0	0	CorrectCommission	0.998576	1.480767	0	1
288.912140	0.792468	city	1	1	0.648633	0.648633	0	1	0	0	CorrectCommission	0.955523	1.444966	0	1
289.704407	0.792097	mountain	4	0	0.000000	0.794302	1	0	0	0	CorrectOmission	1.257215	1.389392	0	1
290.496582	0.792240	city	2	1	0.902847	0.902847	0	1	0	0	CorrectCommission	2.906035	1.318046	0	1
291.288818	0.792240	city	6	1	0.794310	0.794310	0	1	0	0	CorrectCommission	1.257332	1.235837	0	1
292.081085	0.792267	city	9	1	0.648862	0.648862	0	1	0	0	CorrectCommission	0.952042	1.148112	0	1
292.873352	0.792264	city	2	1	0.699796	0.699796	0	1	0	0	CorrectCommission	0.178354	1.059968	0	1
293.665619	0.792266	city	3	1	0.752177	0.752177	0	1	0	0	CorrectCommission	0.617327	0.975791	0	1
294.457977	0.792478	city	6	1	0.744945	0.744945	0	1	0	0	CorrectCommission	0.507473	0.898941	0	1
295.250305	0.792156	city	1	1	0.695185	0.695185	0	1	0	0	CorrectCommission	0.248401	0.831655	0	1
296.042511	0.792263	city	8	1	0.652955	0.652955	0	1	0	0	CorrectCommission	0.889869	0.775059	0	1
296.834717	0.792162	city	5	1	0.645983	0.645983	0	1	0	0	CorrectCommission	0.995778	0.729347	0	1
297.626923	0.792261	city	4	1	0.652512	0.652512	0	1	0	0	CorrectCommission	0.896601	0.694031	1	1
298.419189	0.792263	city	1	1	0.695296	0.695296	0	1	0	0	CorrectCommission	0.246701	0.668221	1	1
299.211456	0.792265	city	4	1	0.695279	0.695279	0	1	0	0	CorrectCommission	0.246961	0.650821	1	1
300.003723	0.792268	city	8	1	0.645852	0.645852	0	1	0	0	CorrectCommission	0.997766	0.640661	1	1
300.796051	0.792371	city	4	1	0.695488	0.695488	0	1	0	0	CorrectCommission	0.243794	0.636579	1	1
301.588318	0.792156	city	9	1	0.645646	0.645646	0	1	0	0	CorrectCommission	1.000893	0.637402	1	1
302.380524	0.792265	city	1	1	0.651103	0.651103	0	1	0	0	CorrectCommission	0.918013	0.641857	1	1
303.172791	0.792266	city	10	1	0.695467	0.695467	0	1	0	0	CorrectCommission	0.244110	0.648561	1	1
303.965057	0.792263	city	5	1	0.700937	0.700937	0	1	0	0	CorrectCommission	0.161025	0.656016	1	1
304.757324	0.792265	city	9	1	0.697705	0.697705	0	1	0	0	CorrectCommission	0.210110	0.662671	1	1
305.549591	0.792267	city	5	1	0.645942	0.645942	0	1	0	0	CorrectCommission	0.996398	0.667063	1	0
306.341888	0.792372	city	7	1	0.695240	0.695240	0	1	0	0	CorrectCommission	0.247555	0.667996	1	0
307.134155	0.792156	mountain	6	0	0.000000	0.812755	1	0	0	0	CorrectOmission	1.537522	0.664832	1	0
307.926422	0.792372	city	4	1	0.846816	0.846816	0	1	0	0	CorrectCommission	2.054916	0.657594	1	0
308.718689	0.792180	city	1	1	0.645752	0.645752	0	1	0	0	CorrectCommission	0.999294	0.647166	1	0
309.510925	0.792243	city	4	1	0.695230	0.695230	0	1	0	0	CorrectCommission	0.247707	0.635259	1	0
310.303284	0.792482	city	7	1	0.695700	0.695700	0	1	0	0	CorrectCommission	0.240575	0.624229	1	0
311.095581	0.792104	city	5	1	0.711862	0.711862	0	1	0	0	CorrectCommission	0.004933	0.616796	1	0
311.887787	0.792314	city	8	1	0.695359	0.695359	0	1	0	0	CorrectCommission	0.245754	0.615692	1	0
312.680023	0.792155	city	7	1	0.695240	0.695240	0	1	0	0	CorrectCommission	0.247562	0.623285	1	0
313.472229	0.792267	city	8	1	0.655255	0.655255	0	1	0	0	CorrectCommission	0.854942	0.641345	1	0
314.264557	0.792374	city	3	1	0.710790	0.710790	0	1	0	0	CorrectCommission	0.011344	0.670824	1	0
315.056915	0.792373	city	1	1	0.699742	0.699742	0	1	0	0	CorrectCommission	0.179178	0.711817	1	0
315.849121	0.792046	city	3	1	0.847336	0.847336	0	1	0	0	CorrectCommission	2.062813	0.763530	0	0
316.641327	0.792374	city	8	1	0.663060	0.663060	0	1	0	0	CorrectCommission	0.736375	0.824344	0	0
317.433624	0.792182	city	9	1	0.705060	0.705060	0	1	0	0	CorrectCommission	0.098391	0.892017	0	0
318.225891	0.792348	mountain	1	0	0.000000	0.725947	1	0	0	0	CorrectOmission	0.218881	0.963801	0	0
319.018188	0.792263	city	3	1	0.749543	0.749543	0	1	0	0	CorrectCommission	0.577312	1.036627	0	0
319.810455	0.792266	mountain	4	0	0.000000	0.799671	1	0	0	0	CorrectOmission	1.338773	1.107353	0	0
320.602661	0.792156	city	5	1	0.844543	0.844543	0	1	0	0	CorrectCommission	2.020377	1.172976	0	0
321.394867	0.792262	city	7	1	0.852368	0.852368	0	1	0	0	CorrectCommission	2.139238	1.230837	0	0
322.187134	0.792268	city	4	1	0.843886	0.843886	0	1	0	0	CorrectCommission	2.010407	1.278776	0	0
322.979462	0.792372	city	6	1	0.843978	0.843978	0	1	0	0	CorrectCommission	2.011796	1.315191	0	0
323.771729	0.792158	city	8	1	0.757852	0.757852	0	1	0	0	CorrectCommission	0.703529	1.339051	0	0
324.563995	0.792371	mountain	3	0	0.000000	0.709998	1	0	0	0	CorrectOmission	0.023378	1.349884	0	0
325.356262	0.792191	mountain	1	1	0.745010	0.745010	0	0	1	0	CommissionError	0.508451	1.347703	0	0
326.148529	0.792338	city	6	1	0.907479	0.907479	0	1	0	0	CorrectCommission	2.976391	1.333015	0	0
326.940826	0.792265	city	4	1	0.893354	0.893354	0	1	0	0	CorrectCommission	2.761831	1.306792	0	0
327.733032	0.792156	city	1	1	0.659737	0.659737	0	1	0	0	CorrectCommission	0.786859	1.270557	0	0
328.525269	0.792319	city	9	1	0.603344	0.603344	0	1	0	0	CorrectCommission	1.643475	1.226330	0	0
329.317566	0.792233	city	1	1	0.598825	0.598825	0	1	0	0	CorrectCommission	1.712119	1.176426	0	0
330.109894	0.792462	city	10	1	0.794321	0.794321	0	1	0	0	CorrectCommission	1.257496	1.123295	0	0
330.902161	0.792044	city	2	1	0.744595	0.744595	0	1	0	0	CorrectCommission	0.502160	1.069236	0	0
331.694305	0.792265	city	8	1	0.698060	0.698060	0	1	0	0	CorrectCommission	0.204718	1.016118	0	0
332.486694	0.792484	city	3	1	0.695333	0.695333	0	1	0	0	CorrectCommission	0.246141	0.965174	0	0
333.279053	0.792264	city	5	1	0.695033	0.695033	0	1	0	0	CorrectCommission	0.250699	0.916899	0	0
334.071228	0.792047	city	3	1	0.645762	0.645762	0	1	0	0	CorrectCommission	0.999144	0.871189	0	0
334.863464	0.792481	city	1	1	0.596221	0.596221	0	1	0	0	CorrectCommission	1.751680	0.827544	0	0
335.655762	0.792055	mountain	1	0	0.000000	0.617460	1	0	0	0	CorrectOmission	1.429049	0.785378	0	0
336.447998	0.792476	city	8	1	0.655128	0.655128	0	1	0	0	CorrectCommission	0.856873	0.744317	0	0
337.240387	0.792263	city	1	1	0.654871	0.654871	0	1	0	0	CorrectCommission	0.860771	0.704394	1	0
338.032654	0.792265	city	8	1	0.656664	0.656664	0	1	0	0	CorrectCommission	0.833535	0.666122	1	0
338.824860	0.792155	city	2	1	0.695255	0.695255	0	1	0	0	CorrectCommission	0.247333	0.630414	1	0
339.617004	0.792164	city	8	1	0.695508	0.695508	0	1	0	0	CorrectCommission	0.243482	0.598417	1	0
340.409241	0.792259	city	2	1	0.695407	0.695407	0	1	0	0	CorrectCommission	0.245020	0.571304	1	0
341.201599	0.792482	city	3	1	0.696264	0.696264	0	1	0	0	CorrectCommission	0.232009	0.550030	1	0
341.993958	0.792263	city	2	1	0.702344	0.702344	0	1	0	0	CorrectCommission	0.139643	0.535252	1	0
342.786163	0.792135	city	8	1	0.695068	0.695068	0	1	0	0	CorrectCommission	0.250168	0.527295	1	0
343.578369	0.792241	city	4	1	0.695547	0.695547	0	1	0	0	CorrectCommission	0.242899	0.526218	1	0
344.370605	0.792251	city	10	1	0.612757	0.612757	0	1	0	0	CorrectCommission	1.500487	0.532029	1	0
345.162842	0.792219	city	9	1	0.659975	0.659975	0	1	0	0	CorrectCommission	0.783241	0.544824	1	0
345.955200	0.792480	city	2	1	0.645820	0.645820	0	1	0	0	CorrectCommission	0.998251	0.564932	1	0
346.747437	0.792046	city	5	1	0.709646	0.709646	0	1	0	0	CorrectCommission	0.028729	0.592843	1	0
347.539673	0.792375	city	9	1	0.700083	0.700083	0	1	0	0	CorrectCommission	0.173992	0.629115	1	0
348.331970	0.792263	city	6	1	0.744677	0.744677	0	1	0	0	CorrectCommission	0.503392	0.674112	1	0
349.124176	0.792157	city	5	1	0.699060	0.699060	0	1	0	0	CorrectCommission	0.189528	0.727743	0	0
349.916412	0.792264	city	10	1	0.695414	0.695414	0	1	0	0	CorrectCommission	0.244911	0.789179	0	0
350.708679	0.792290	city	2	1	0.648623	0.648623	0	1	0	0	CorrectCommission	0.955675	0.856705	0	0
351.500946	0.792245	mountain	1	0	0.000000	0.654052	1	0	0	0	CorrectOmission	0.873218	0.927659	0	0
352.293182	0.792259	city	5	1	0.655413	0.655413	0	1	0	0	CorrectCommission	0.852537	0.998593	0	0
353.085571	0.792484	city	9	1	0.596422	0.596422	0	1	0	0	CorrectCommission	1.748628	1.065612	0	0
353.877930	0.792265	city	6	1	0.650453	0.650453	0	1	0	0	CorrectCommission	0.927879	1.124728	0	0
354.670105	0.792047	city	2	1	0.695204	0.695204	0	1	0	0	CorrectCommission	0.248103	1.172405	0	0
355.462280	0.792304	city	6	1	0.513617	0.513617	0	1	0	0	CorrectCommission	3.006447	1.206009	0	0
356.254547	0.792233	city	7	1	0.596171	0.596171	0	1	0	0	CorrectCommission	1.752439	1.224128	0	0
357.046783	0.792261	city	6	1	0.560616	0.560616	0	1	0	0	CorrectCommission	2.292524	1.226889	0	0
357.839203	0.792559	city	9	1	0.596279	0.596279	0	1	0	0	CorrectCommission	1.750799	1.215864	0	0
358.631470	0.791982	city	7	1	0.648136	0.648136	0	1	0	0	CorrectCommission	0.963082	1.193871	0	0
359.423615	0.792287	city	3	1	0.799987	0.799987	0	1	0	0	CorrectCommission	1.343574	1.164524	0	0
360.215851	0.792225	city	4	1	0.695471	0.695471	0	1	0	0	CorrectCommission	0.244056	1.131635	0	0
361.008148	0.792375	mountain	3	0	0.000000	0.654026	1	0	0	0	CorrectOmission	0.873605	1.098686	0	0
361.800476	0.792266	city	8	1	0.663704	0.663704	0	1	0	0	CorrectCommission	0.726596	1.068263	0	0
362.592804	0.792372	city	1	1	0.712554	0.712554	0	1	0	0	CorrectCommission	0.015451	1.041818	0	0
363.385010	0.792047	city	8	1	0.745289	0.745289	0	1	0	0	CorrectCommission	0.512701	1.019551	0	0
364.177185	0.792328	city	1	1	0.843942	0.843942	0	1	0	0	CorrectCommission	2.011248	1.000549	0	0
364.969482	0.792229	city	8	1	0.645703	0.645703	0	1	0	0	CorrectCommission	1.000034	0.983107	0	1
365.761749	0.792345	city	2	1	0.596244	0.596244	0	1	0	0	CorrectCommission	1.751321	0.965221	0	1
366.554047	0.792200	mountain	2	1	0.645629	0.645629	0	0	1	0	CommissionError	1.001155	0.944929	0	1
367.346252	0.792226	city	9	1	0.695645	0.695645	0	1	0	0	CorrectCommission	0.241407	0.920773	0	1
368.138489	0.792266	city	4	1	0.843829	0.843829	0	1	0	0	CorrectCommission	2.009535	0.892002	0	1
368.930756	0.792257	city	8	1	0.645729	0.645729	0	1	0	0	CorrectCommission	0.999646	0.858619	0	1
369.723022	0.792285	city	5	1	0.695281	0.695281	0	1	0	0	CorrectCommission	0.246932	0.821470	0	1
370.515289	0.792245	mountain	3	0	0.000000	0.767965	1	0	0	0	CorrectOmission	0.857143	0.782001	0	1
371.307556	0.792266	city	1	1	0.794346	0.794346	0	1	0	0	CorrectCommission	1.257880	0.742034	0	1
372.099854	0.792373	city	7	1	0.704992	0.704992	0	1	0	0	CorrectCommission	0.099424	0.703548	1	1
372.892242	0.792375	city	1	1	0.745014	0.745014	0	1	0	0	CorrectCommission	0.508513	0.668382	1	1
373.684509	0.792154	city	5	1	0.744596	0.744596	0	1	0	0	CorrectCommission	0.502169	0.638029	1	1
374.476654	0.792160	city	7	1	0.744816	0.744816	0	1	0	0	CorrectCommission	0.505514	0.613471	1	1
375.268860	0.792262	city	4	1	0.747281	0.747281	0	1	0	0	CorrectCommission	0.542955	0.595124	1	1
376.061127	0.792267	city	5	1	0.707102	0.707102	0	1	0	0	CorrectCommission	0.067368	0.582792	1	1
376.853424	0.792316	mountain	6	0	0.000000	0.661580	1	0	0	0	CorrectOmission	0.758852	0.575742	1	1
377.645813	0.792429	city	10	1	0.645857	0.645857	0	1	0	0	CorrectCommission	0.997696	0.572821	1	1
378.438080	0.792157	city	3	1	0.695073	0.695073	0	1	0	0	CorrectCommission	0.250095	0.572594	1	1
379.230255	0.792157	city	5	1	0.713073	0.713073	0	1	0	0	CorrectCommission	0.023321	0.573574	1	1
380.022522	0.792371	city	4	1	0.745390	0.745390	0	1	0	0	CorrectCommission	0.514222	0.574374	1	1
380.814880	0.792374	city	7	1	0.795087	0.795087	0	1	0	0	CorrectCommission	1.269142	0.573897	1	1
381.607086	0.792046	city	1	1	0.745106	0.745106	0	1	0	0	CorrectCommission	0.509920	0.571463	1	1
382.399261	0.792284	mountain	8	0	0.000000	0.777902	1	0	0	0	CorrectOmission	1.008092	0.566961	1	1
383.191528	0.792245	city	4	1	0.794342	0.794342	0	1	0	0	CorrectCommission	1.257817	0.560749	1	1
383.983795	0.792298	city	9	1	0.695293	0.695293	0	1	0	0	CorrectCommission	0.246746	0.553650	1	1
384.776184	0.792451	city	7	1	0.695267	0.695267	0	1	0	0	CorrectCommission	0.247141	0.546864	1	1
385.568420	0.792046	city	9	1	0.696009	0.696009	0	1	0	0	CorrectCommission	0.235884	0.541664	1	1
386.360565	0.792266	city	10	1	0.705096	0.705096	0	1	0	0	CorrectCommission	0.097845	0.539304	1	1
387.152832	0.792264	city	5	1	0.696222	0.696222	0	1	0	0	CorrectCommission	0.232643	0.540868	1	1
387.945221	0.792487	city	9	1	0.744972	0.744972	0	1	0	0	CorrectCommission	0.507877	0.547158	1	1
388.737488	0.792046	city	6	1	0.752313	0.752313	0	1	0	0	CorrectCommission	0.619386	0.558661	1	1
389.529633	0.792262	city	9	1	0.661616	0.661616	0	1	0	0	CorrectCommission	0.758320	0.575600	1	1
390.321960	0.792371	city	1	1	0.608198	0.608198	0	1	0	0	CorrectCommission	1.569739	0.597899	1	1
391.114258	0.792265	city	2	1	0.695315	0.695315	0	1	0	0	CorrectCommission	0.246419	0.625150	1	1
391.906525	0.792264	city	4	1	0.709072	0.709072	0	1	0	0	CorrectCommission	0.037448	0.656640	1	1
392.698761	0.792209	city	10	1	0.751352	0.751352	0	1	0	0	CorrectCommission	0.604797	0.691234	1	1
393.491028	0.792274	city	3	1	0.709547	0.709547	0	1	0	0	CorrectCommission	0.030231	0.727367	0	1
394.283295	0.792310	city	4	1	0.744757	0.744757	0	1	0	0	CorrectCommission	0.504621	0.763099	0	1
395.075531	0.792163	city	2	1	0.744747	0.744747	0	1	0	0	CorrectCommission	0.504457	0.796215	0	1
395.867767	0.792262	mountain	5	0	0.000000	0.802684	1	0	0	0	CorrectOmission	1.384541	0.824487	0	1
396.660034	0.792262	mountain	4	0	0.000000	0.856856	1	0	0	0	CorrectOmission	2.207414	0.845858	0	1
397.452271	0.792268	city	3	1	0.845546	0.845546	0	1	0	0	CorrectCommission	2.035618	0.858714	0	1
398.244568	0.792325	city	4	1	0.707041	0.707041	0	1	0	0	CorrectCommission	0.068305	0.862096	0	1
399.036835	0.792201	city	3	1	0.706868	0.706868	0	1	0	0	CorrectCommission	0.070932	0.855842	0	1
399.829071	0.792264	city	9	1	0.610403	0.610403	0	1	0	0	CorrectCommission	1.536253	0.840469	0	1
400.621460	0.792483	city	6	1	0.648003	0.648003	0	1	0	0	CorrectCommission	0.965098	0.817144	0	1
401.413727	0.792058	city	2	1	0.645599	0.645599	0	1	0	0	CorrectCommission	1.001610	0.787641	0	1
402.205994	0.792471	city	10	1	0.652086	0.652086	0	1	0	0	CorrectCommission	0.903081	0.754105	0	1
402.998260	0.792050	city	6	1	0.744650	0.744650	0	1	0	0	CorrectCommission	0.502988	0.718874	1	1
403.790405	0.792263	city	10	1	0.699517	0.699517	0	1	0	0	CorrectCommission	0.182594	0.684362	1	1
404.582672	0.792263	city	2	1	0.657541	0.657541	0	1	0	0	CorrectCommission	0.820209	0.652903	1	1
405.374939	0.792270	city	6	1	0.645915	0.645915	0	1	0	0	CorrectCommission	0.996821	0.626585	1	1
406.167236	0.792335	city	3	1	0.705206	0.705206	0	1	0	0	CorrectCommission	0.096167	0.607172	1	1
406.959595	0.792406	city	5	1	0.695326	0.695326	0	1	0	0	CorrectCommission	0.246247	0.596017	1	1
407.751953	0.792266	city	2	1	0.664084	0.664084	0	1	0	0	CorrectCommission	0.720827	0.593869	1	1
408.544098	0.792048	city	4	1	0.745824	0.745824	0	1	0	0	CorrectCommission	0.520815	0.600869	1	1
409.336243	0.792270	city	7	1	0.711893	0.711893	0	1	0	0	CorrectCommission	0.005404	0.616491	1	1
410.128540	0.792310	city	5	1	0.695928	0.695928	0	1	0	0	CorrectCommission	0.237112	0.639555	1	1
410.920929	0.792429	city	1	1	0.794332	0.794332	0	1	0	0	CorrectCommission	1.257669	0.668295	1	1
411.713165	0.792048	city	7	1	0.702114	0.702114	0	1	0	0	CorrectCommission	0.143139	0.700506	1	1
412.505310	0.792272	city	4	1	0.695236	0.695236	0	1	0	0	CorrectCommission	0.247626	0.733811	0	1
413.297699	0.792475	mountain	4	0	0.000000	0.793248	1	0	0	0	CorrectOmission	1.241203	0.765871	0	1
414.089966	0.792067	city	2	1	0.844073	0.844073	0	1	0	0	CorrectCommission	2.013243	0.794647	0	1
414.882233	0.792461	city	7	1	0.695632	0.695632	0	1	0	0	CorrectCommission	0.241609	0.818654	0	1
415.674500	0.792066	city	3	1	0.744781	0.744781	0	1	0	0	CorrectCommission	0.504971	0.837195	0	1
416.466644	0.792246	mountain	2	0	0.000000	0.833589	1	0	0	0	CorrectOmission	1.853982	0.850274	0	1
417.258911	0.792266	city	1	1	0.853345	0.853345	0	1	0	0	CorrectCommission	2.154091	0.858520	0	1
418.051178	0.792265	city	2	1	0.695340	0.695340	0	1	0	0	CorrectCommission	0.246034	0.863056	0	1
418.843475	0.792371	city	10	1	0.697486	0.697486	0	1	0	0	CorrectCommission	0.213438	0.865283	0	1
419.635742	0.792154	city	3	1	0.695169	0.695169	0	1	0	0	CorrectCommission	0.248633	0.866534	0	1
420.427948	0.792265	mountain	10	0	0.000000	0.708089	1	0	0	0	CorrectOmission	0.052375	0.867925	0	1
421.220337	0.792485	city	10	1	0.752254	0.752254	0	1	0	0	CorrectCommission	0.618501	0.870278	0	1
422.012604	0.792046	city	1	1	0.843672	0.843672	0	1	0	0	CorrectCommission	2.007158	0.874090	0	1
422.804749	0.792266	city	5	1	0.799995	0.799995	0	1	0	0	CorrectCommission	1.343682	0.879610	0	1
423.597015	0.792264	mountain	2	0	0.000000	0.788017	1	0	0	0	CorrectOmission	1.161737	0.886995	0	1
424.389404	0.792481	city	3	1	0.755593	0.755593	0	1	0	0	CorrectCommission	0.669220	0.896301	0	0
425.181641	0.792048	city	10	1	0.650579	0.650579	0	1	0	0	CorrectCommission	0.925971	0.907498	0	0
425.973846	0.792329	city	4	1	0.750467	0.750467	0	1	0	0	CorrectCommission	0.591355	0.920379	0	0
426.766205	0.792419	city	2	1	0.646540	0.646540	0	1	0	0	CorrectCommission	0.987323	0.934443	0	0
427.558472	0.792101	city	4	1	0.695064	0.695064	0	1	0	0	CorrectCommission	0.250233	0.948773	0	0
428.350647	0.792231	city	3	1	0.664437	0.664437	0	1	0	0	CorrectCommission	0.715464	0.962036	0	0
429.142883	0.792244	mountain	5	0	0.000000	0.658254	1	0	0	0	CorrectOmission	0.809388	0.972543	0	0
429.935150	0.792266	city	10	1	0.645762	0.645762	0	1	0	0	CorrectCommission	0.999135	0.978512	0	0
430.727448	0.792326	city	9	1	0.596210	0.596210	0	1	0	0	CorrectCommission	1.751836	0.978350	0	0
431.519684	0.792200	city	1	1	0.604630	0.604630	0	1	0	0	CorrectCommission	1.623935	0.970978	0	0
432.311981	0.792373	city	3	1	0.608595	0.608595	0	1	0	0	CorrectCommission	1.563710	0.956192	0	0
433.104279	0.792225	city	8	1	0.656857	0.656857	0	1	0	0	CorrectCommission	0.830596	0.934772	0	0
433.896545	0.792304	city	5	1	0.608042	0.608042	0	1	0	0	CorrectCommission	1.572110	0.908493	0	0
434.688812	0.792204	city	3	1	0.646316	0.646316	0	1	0	0	CorrectCommission	0.990715	0.879918	0	0
435.481049	0.792308	city	4	1	0.696841	0.696841	0	1	0	0	CorrectCommission	0.223240	0.852129	0	0
436.273285	0.792178	city	8	1	0.717773	0.717773	0	1	0	0	CorrectCommission	0.094727	0.828250	0	0
437.065521	0.792260	city	1	1	0.744882	0.744882	0	1	0	0	CorrectCommission	0.506506	0.810993	0	0
437.857788	0.792267	city	8	1	0.749688	0.749688	0	1	0	0	CorrectCommission	0.579511	0.802303	0	0
438.650116	0.792372	city	9	1	0.747523	0.747523	0	1	0	0	CorrectCommission	0.546627	0.803111	0	0
439.442383	0.792209	mountain	3	0	0.000000	0.709393	1	0	0	0	CorrectOmission	0.032577	0.813270	0	0
440.234711	0.792429	city	7	1	0.653086	0.653086	0	1	0	0	CorrectCommission	0.887883	0.831651	0	0
441.027069	0.792264	city	5	1	0.596393	0.596393	0	1	0	0	CorrectCommission	1.749067	0.856330	0	0
441.819275	0.792156	city	3	1	0.645538	0.645538	0	1	0	0	CorrectCommission	1.002539	0.884905	0	0
442.611450	0.792183	city	6	1	0.660998	0.660998	0	1	0	0	CorrectCommission	0.767696	0.914817	0	0
443.403656	0.792237	city	4	1	0.645781	0.645781	0	1	0	0	CorrectCommission	0.998856	0.943619	0	0
444.195892	0.792268	city	9	1	0.695428	0.695428	0	1	0	0	CorrectCommission	0.244705	0.969200	0	0
444.988159	0.792264	city	2	1	0.645946	0.645946	0	1	0	0	CorrectCommission	0.996344	0.989990	0	0
445.780426	0.792262	city	9	1	0.596413	0.596413	0	1	0	0	CorrectCommission	1.748759	1.004977	0	0
446.572693	0.792266	city	3	1	0.596250	0.596250	0	1	0	0	CorrectCommission	1.751235	1.013762	0	0
447.364960	0.792266	city	8	1	0.596247	0.596247	0	1	0	0	CorrectCommission	1.751276	1.016476	0	0
448.157288	0.792373	city	5	1	0.659537	0.659537	0	1	0	0	CorrectCommission	0.789890	1.013661	0	0
448.949585	0.792263	city	10	1	0.695184	0.695184	0	1	0	0	CorrectCommission	0.248407	1.006110	0	0
449.741821	0.792160	city	2	1	0.649917	0.649917	0	1	0	0	CorrectCommission	0.936019	0.994713	0	0
450.534058	0.792333	city	10	1	0.745419	0.745419	0	1	0	0	CorrectCommission	0.514667	0.980342	0	0
451.326324	0.792191	city	4	1	0.656905	0.656905	0	1	0	0	CorrectCommission	0.829868	0.963823	0	0
452.118652	0.792485	city	10	1	0.645766	0.645766	0	1	0	0	CorrectCommission	0.999072	0.946050	0	0
452.910919	0.792048	city	8	1	0.601197	0.601197	0	1	0	0	CorrectCommission	1.676084	0.928024	0	0
453.703064	0.792263	city	9	1	0.648221	0.648221	0	1	0	0	CorrectCommission	0.961786	0.910993	0	0
454.495331	0.792268	city	4	1	0.597985	0.597985	0	1	0	0	CorrectCommission	1.724886	0.896538	0	0
455.287628	0.792294	mountain	1	0	0.000000	0.664968	1	0	0	0	CorrectOmission	0.707389	0.886467	0	0
456.079926	0.792340	city	7	1	0.747705	0.747705	0	1	0	0	CorrectCommission	0.549400	0.882701	0	0
456.872253	0.792264	city	3	1	0.744728	0.744728	0	1	0	0	CorrectCommission	0.504176	0.886956	0	0
457.664490	0.792204	city	6	1	0.710701	0.710701	0	1	0	0	CorrectCommission	0.012699	0.900400	0	0
458.456787	0.792435	city	5	1	0.695414	0.695414	0	1	0	0	CorrectCommission	0.244914	0.923345	0	0
459.249146	0.792265	city	4	1	0.655606	0.655606	0	1	0	0	CorrectCommission	0.849612	0.955041	0	0
460.041351	0.792157	city	8	1	0.646236	0.646236	0	1	0	0	CorrectCommission	0.991937	0.993597	0	0
460.833527	0.792158	city	9	1	0.645641	0.645641	0	1	0	0	CorrectCommission	1.000974	1.036082	0	0
461.625732	0.792264	city	1	1	0.603257	0.603257	0	1	0	0	CorrectCommission	1.644799	1.078802	0	0
462.418030	0.792371	city	7	1	0.651397	0.651397	0	1	0	0	CorrectCommission	0.913544	1.117607	0	0
463.210297	0.792156	city	1	1	0.602709	0.602709	0	1	0	0	CorrectCommission	1.653116	1.148389	0	0
464.002625	0.792482	city	7	1	0.650122	0.650122	0	1	0	0	CorrectCommission	0.932909	1.167526	0	0
464.794891	0.792049	city	3	1	0.596130	0.596130	0	1	0	0	CorrectCommission	1.753059	1.172294	0	0
465.587036	0.792262	mountain	10	1	0.596874	0.596874	0	0	1	0	CommissionError	1.741761	1.161208	0	0
466.379425	0.792484	city	4	1	0.753677	0.753677	0	1	0	0	CorrectCommission	0.640113	1.134237	0	0
467.171783	0.792264	city	6	1	0.950240	0.950240	0	1	0	0	CorrectCommission	3.625941	1.092820	0	0
467.963989	0.792154	city	5	1	0.797787	0.797787	0	1	0	0	CorrectCommission	1.310149	1.039643	0	0
468.756226	0.792266	city	4	1	0.695177	0.695177	0	1	0	0	CorrectCommission	0.248510	0.978474	0	0
469.548492	0.792265	city	6	1	0.695350	0.695350	0	1	0	0	CorrectCommission	0.245886	0.913590	0	0
470.340729	0.792222	city	10	1	0.696668	0.696668	0	1	0	0	CorrectCommission	0.225870	0.849269	0	0
471.132996	0.792308	city	6	1	0.744842	0.744842	0	1	0	0	CorrectCommission	0.505910	0.789405	0	0
471.925262	0.792265	city	3	1	0.655769	0.655769	0	1	0	0	CorrectCommission	0.847125	0.737061	0	0
472.717590	0.792373	city	7	1	0.665699	0.665699	0	1	0	0	CorrectCommission	0.696295	0.694282	1	0
473.509796	0.792051	city	8	1	0.695101	0.695101	0	1	0	0	CorrectCommission	0.249665	0.662037	1	0
474.302063	0.792479	city	1	1	0.695234	0.695234	0	1	0	0	CorrectCommission	0.247644	0.640260	1	0
475.094330	0.792054	city	3	1	0.695127	0.695127	0	1	0	0	CorrectCommission	0.249274	0.628025	1	0
475.886536	0.792321	city	6	1	0.750315	0.750315	0	1	0	0	CorrectCommission	0.589038	0.623801	1	0
476.678894	0.792418	city	4	1	0.794424	0.794424	0	1	0	0	CorrectCommission	1.259059	0.625699	1	0
477.471130	0.792052	city	10	1	0.744551	0.744551	0	1	0	0	CorrectCommission	0.501485	0.631697	1	0
478.263336	0.792342	city	9	1	0.695264	0.695264	0	1	0	0	CorrectCommission	0.247195	0.639853	1	0
479.055573	0.792182	city	2	1	0.843796	0.843796	0	1	0	0	CorrectCommission	2.009036	0.648380	1	0
479.847809	0.792272	city	9	1	0.711445	0.711445	0	1	0	0	CorrectCommission	0.001408	0.655644	1	0
480.640198	0.792476	city	3	1	0.745579	0.745579	0	1	0	0	CorrectCommission	0.517094	0.660313	1	0
481.432556	0.792264	city	2	1	0.695337	0.695337	0	1	0	0	CorrectCommission	0.246079	0.661223	1	0
482.224823	0.792267	city	8	1	0.695380	0.695380	0	1	0	0	CorrectCommission	0.245432	0.657435	1	0
483.016998	0.792054	city	1	1	0.646057	0.646057	0	1	0	0	CorrectCommission	0.994658	0.648300	1	0
483.809235	0.792475	city	2	1	0.605716	0.605716	0	1	0	0	CorrectCommission	1.607439	0.633561	1	0
484.601532	0.792097	city	7	1	0.645525	0.645525	0	1	0	0	CorrectCommission	1.002744	0.613372	1	0
485.393738	0.792291	city	10	1	0.695207	0.695207	0	1	0	0	CorrectCommission	0.248063	0.588466	1	0
486.185974	0.792207	city	3	1	0.794247	0.794247	0	1	0	0	CorrectCommission	1.256382	0.560083	1	0
486.978302	0.792463	city	1	1	0.746417	0.746417	0	1	0	0	CorrectCommission	0.529830	0.529830	1	0
