onset	duration	trial_type	image_type	Press	ReactionTime	ReactionTime_Interpolated	CorrectOmission	CorrectCommission	CommissionError	OmissionError	response_type	nonsmoothVarianceTimeCourse	VarianceTimeCourse	In_the_Zone	Reward_trial
8.438416	0.796022	mountain	1	1	0.649497	0.649497	0	0	1	0	CommissionError	0.003707	0.003707	1	1
9.234221	0.795585	city	6	1	0.548958	0.548958	0	1	0	0	CorrectCommission	0.843595	0.135771	1	1
10.029911	0.795797	city	10	1	0.549602	0.549602	0	1	0	0	CorrectCommission	0.838171	0.266477	1	1
10.825821	0.796022	city	3	1	0.549729	0.549729	0	1	0	0	CorrectCommission	0.837101	0.394507	1	1
11.621677	0.795693	city	2	1	0.648446	0.648446	0	1	0	0	CorrectCommission	0.005154	0.518596	1	1
12.417370	0.795691	city	5	1	0.549071	0.549071	0	1	0	0	CorrectCommission	0.842647	0.637494	1	1
13.213118	0.795806	city	2	1	0.549154	0.549154	0	1	0	0	CorrectCommission	0.841945	0.749801	0	1
14.008928	0.795815	city	6	1	0.499329	0.499329	0	1	0	0	CorrectCommission	1.261847	0.853922	0	1
14.804729	0.795788	city	7	1	0.658205	0.658205	0	1	0	0	CorrectCommission	0.077096	0.948045	0	1
15.600523	0.795799	city	1	1	0.506058	0.506058	0	1	0	0	CorrectCommission	1.205144	1.030014	0	1
16.396324	0.795802	city	4	1	0.499482	0.499482	0	1	0	0	CorrectCommission	1.260557	1.097511	0	1
17.192125	0.795801	city	10	1	0.499554	0.499554	0	1	0	0	CorrectCommission	1.259957	1.148316	0	1
17.987928	0.795805	mountain	2	0	0.000000	0.455089	1	0	0	0	CorrectOmission	1.634689	1.180654	0	1
18.783840	0.796018	city	6	1	0.648766	0.648766	0	1	0	0	CorrectCommission	0.002455	1.193548	0	1
19.579721	0.795745	mountain	2	1	1.363264	1.363264	0	0	1	0	CommissionError	6.019044	1.187166	0	1
20.375412	0.795640	city	1	1	0.797663	0.797663	0	1	0	0	CorrectCommission	1.252390	1.162824	0	1
21.171135	0.795806	city	7	1	0.649454	0.649454	0	1	0	0	CorrectCommission	0.003344	1.123296	0	1
21.966991	0.795905	city	10	1	0.549210	0.549210	0	1	0	0	CorrectCommission	0.841474	1.072299	0	1
22.762815	0.795745	city	3	1	0.556027	0.556027	0	1	0	0	CorrectCommission	0.784024	1.014126	0	1
23.558563	0.795750	city	6	1	0.604836	0.604836	0	1	0	0	CorrectCommission	0.372683	0.953245	0	1
24.354376	0.795875	city	5	1	0.518004	0.518004	0	1	0	0	CorrectCommission	1.104462	0.893798	0	1
25.150286	0.795947	city	10	1	0.598836	0.598836	0	1	0	0	CorrectCommission	0.423243	0.839185	0	1
25.946051	0.795584	city	8	1	0.698725	0.698725	0	1	0	0	CorrectCommission	0.418579	0.791839	0	1
26.741745	0.795803	mountain	3	0	0.000000	0.748354	1	0	0	0	CorrectOmission	0.836829	0.753090	0	1
27.537601	0.795908	city	4	1	0.748114	0.748114	0	1	0	0	CorrectCommission	0.834812	0.723205	0	1
28.333401	0.795693	city	2	1	0.698399	0.698399	0	1	0	0	CorrectCommission	0.415834	0.701558	0	1
29.129202	0.795910	city	8	1	0.598896	0.598896	0	1	0	0	CorrectCommission	0.422736	0.686854	0	1
29.925005	0.795694	city	9	1	0.599827	0.599827	0	1	0	0	CorrectCommission	0.414897	0.677344	0	1
30.720753	0.795805	city	1	1	0.549173	0.549173	0	1	0	0	CorrectCommission	0.841789	0.671101	0	1
31.516665	0.796016	city	2	1	0.506008	0.506008	0	1	0	0	CorrectCommission	1.205558	0.666226	0	1
32.312466	0.795585	city	8	1	0.599610	0.599610	0	1	0	0	CorrectCommission	0.416722	0.661073	1	1
33.108212	0.795910	city	4	1	0.550950	0.550950	0	1	0	0	CorrectCommission	0.826810	0.654371	1	1
33.904007	0.795681	city	7	1	0.598859	0.598859	0	1	0	0	CorrectCommission	0.423051	0.645261	1	1
34.699757	0.795816	city	2	1	0.549172	0.549172	0	1	0	0	CorrectCommission	0.841791	0.633364	1	1
35.495575	0.795826	city	1	1	0.549631	0.549631	0	1	0	0	CorrectCommission	0.837923	0.618660	1	1
36.291378	0.795775	mountain	5	1	0.499397	0.499397	0	0	1	0	CommissionError	1.261280	0.601511	1	1
37.087166	0.795802	city	1	1	0.700887	0.700887	0	1	0	0	CorrectCommission	0.436795	0.582374	1	1
37.882969	0.795801	city	7	1	0.649930	0.649930	0	1	0	0	CorrectCommission	0.007359	0.561904	1	1
38.678883	0.796025	city	6	1	0.648814	0.648814	0	1	0	0	CorrectCommission	0.002053	0.540763	1	1
39.474792	0.795795	city	9	1	0.599200	0.599200	0	1	0	0	CorrectCommission	0.420175	0.519531	1	1
40.270481	0.795584	city	7	1	0.548948	0.548948	0	1	0	0	CorrectCommission	0.843681	0.498737	1	1
41.066227	0.795911	city	3	1	0.549268	0.549268	0	1	0	0	CorrectCommission	0.840983	0.478877	1	1
41.862041	0.795717	city	5	1	0.549139	0.549139	0	1	0	0	CorrectCommission	0.842071	0.460440	1	1
42.657791	0.795780	city	4	1	0.648601	0.648601	0	1	0	0	CorrectCommission	0.003845	0.443948	1	1
43.453613	0.795864	city	9	1	0.598931	0.598931	0	1	0	0	CorrectCommission	0.422442	0.429957	1	1
44.249466	0.795846	city	3	1	0.605740	0.605740	0	1	0	0	CorrectCommission	0.365059	0.418972	1	1
45.045292	0.795800	city	4	1	0.602703	0.602703	0	1	0	0	CorrectCommission	0.390653	0.411395	1	1
45.841064	0.795744	city	2	1	0.610218	0.610218	0	1	0	0	CorrectCommission	0.327319	0.407448	1	1
46.636810	0.795749	city	7	1	0.648583	0.648583	0	1	0	0	CorrectCommission	0.004001	0.407073	1	1
47.432602	0.795838	city	10	1	0.650596	0.650596	0	1	0	0	CorrectCommission	0.012963	0.409895	1	1
48.228436	0.795823	city	6	1	0.698407	0.698407	0	1	0	0	CorrectCommission	0.415901	0.415250	1	1
49.024273	0.795852	city	1	1	0.598814	0.598814	0	1	0	0	CorrectCommission	0.423434	0.422250	1	1
49.820045	0.795695	city	3	1	0.503491	0.503491	0	1	0	0	CorrectCommission	1.226774	0.429936	1	1
50.615849	0.795910	city	2	1	0.598970	0.598970	0	1	0	0	CorrectCommission	0.422118	0.437358	1	1
51.411758	0.795911	city	1	1	0.611127	0.611127	0	1	0	0	CorrectCommission	0.319658	0.443770	1	1
52.207508	0.795586	city	10	1	0.615168	0.615168	0	1	0	0	CorrectCommission	0.285609	0.448678	1	1
53.003307	0.796016	city	7	1	0.707898	0.707898	0	1	0	0	CorrectCommission	0.495888	0.451891	1	1
53.799107	0.795584	city	3	1	0.747869	0.747869	0	1	0	0	CorrectCommission	0.832747	0.453546	1	1
54.594803	0.795804	city	5	1	0.648645	0.648645	0	1	0	0	CorrectCommission	0.003474	0.454048	1	1
55.390606	0.795803	city	6	1	0.748529	0.748529	0	1	0	0	CorrectCommission	0.838303	0.454035	1	1
56.186459	0.795906	city	7	1	0.712186	0.712186	0	1	0	0	CorrectCommission	0.532019	0.454210	1	1
56.982258	0.795695	city	5	1	0.608229	0.608229	0	1	0	0	CorrectCommission	0.344084	0.455302	1	1
57.778008	0.795799	city	4	1	0.698407	0.698407	0	1	0	0	CorrectCommission	0.415899	0.457944	1	1
58.573807	0.795803	city	3	1	0.649234	0.649234	0	1	0	0	CorrectCommission	0.001493	0.462615	1	1
59.369637	0.795856	city	10	1	0.598939	0.598939	0	1	0	0	CorrectCommission	0.422376	0.469627	1	1
60.165440	0.795751	city	4	1	0.658590	0.658590	0	1	0	0	CorrectCommission	0.080339	0.479136	1	1
60.961323	0.796017	city	8	1	0.517585	0.517585	0	1	0	0	CorrectCommission	1.107998	0.491202	1	1
61.757126	0.795587	city	3	1	0.548910	0.548910	0	1	0	0	CorrectCommission	0.844003	0.505863	1	1
62.552925	0.796016	city	6	1	0.648631	0.648631	0	1	0	0	CorrectCommission	0.003592	0.523231	1	1
63.348782	0.795692	city	9	1	0.599313	0.599313	0	1	0	0	CorrectCommission	0.419224	0.543536	1	1
64.144508	0.795757	city	3	1	0.554862	0.554862	0	1	0	0	CorrectCommission	0.793839	0.567104	1	1
64.940269	0.795774	city	7	1	0.549433	0.549433	0	1	0	0	CorrectCommission	0.839595	0.594333	1	1
65.736038	0.795768	city	8	1	0.598856	0.598856	0	1	0	0	CorrectCommission	0.423080	0.625596	1	1
66.531937	0.796021	city	5	1	0.614861	0.614861	0	1	0	0	CorrectCommission	0.288193	0.661105	1	1
67.327843	0.795799	city	8	1	0.562920	0.562920	0	1	0	0	CorrectCommission	0.725926	0.700762	0	1
68.123589	0.795690	city	6	1	0.652247	0.652247	0	1	0	0	CorrectCommission	0.026877	0.744054	0	0
68.919395	0.795912	city	1	1	0.513485	0.513485	0	1	0	0	CorrectCommission	1.142547	0.789984	0	0
69.715172	0.795643	city	3	1	0.548945	0.548945	0	1	0	0	CorrectCommission	0.843709	0.837008	0	0
70.510880	0.795770	city	6	1	0.550260	0.550260	0	1	0	0	CorrectCommission	0.832625	0.883187	0	0
71.306648	0.795776	city	8	1	0.549860	0.549860	0	1	0	0	CorrectCommission	0.835996	0.926253	0	0
72.102440	0.795803	city	3	1	0.798015	0.798015	0	1	0	0	CorrectCommission	1.255357	0.963854	0	0
72.898346	0.796015	city	1	1	0.499993	0.499993	0	1	0	0	CorrectCommission	1.256250	0.993724	0	0
73.694199	0.795694	city	5	1	0.501954	0.501954	0	1	0	0	CorrectCommission	1.239724	1.013969	0	0
74.490005	0.795911	city	4	1	0.499311	0.499311	0	1	0	0	CorrectCommission	1.262000	1.023240	0	0
75.285751	0.795583	city	8	1	0.499704	0.499704	0	1	0	0	CorrectCommission	1.258691	1.020873	0	0
76.081444	0.795800	city	7	1	0.549224	0.549224	0	1	0	0	CorrectCommission	0.841357	1.006986	0	0
76.877243	0.795804	city	2	1	0.399954	0.399954	0	1	0	0	CorrectCommission	2.099338	0.982447	0	0
77.673103	0.795909	city	4	1	0.499682	0.499682	0	1	0	0	CorrectCommission	1.258874	0.948741	0	0
78.468956	0.795802	city	10	1	0.549212	0.549212	0	1	0	0	CorrectCommission	0.841457	0.907831	0	0
79.264702	0.795695	city	8	1	0.598828	0.598828	0	1	0	0	CorrectCommission	0.423312	0.861878	0	0
80.060493	0.795883	city	2	1	0.600514	0.600514	0	1	0	0	CorrectCommission	0.409107	0.813027	0	0
80.856293	0.795718	city	8	1	0.555204	0.555204	0	1	0	0	CorrectCommission	0.790960	0.763154	0	0
81.652161	0.796020	mountain	8	0	0.000000	0.634624	1	0	0	0	CorrectOmission	0.121639	0.713751	0	0
82.448074	0.795803	mountain	4	0	0.000000	0.747990	1	0	0	0	CorrectOmission	0.833768	0.665903	0	0
83.243774	0.795592	city	2	1	0.804519	0.804519	0	1	0	0	CorrectCommission	1.310171	0.620314	1	0
84.039490	0.795840	city	7	1	0.713427	0.713427	0	1	0	0	CorrectCommission	0.542479	0.577450	1	0
84.835396	0.795973	city	6	1	0.648758	0.648758	0	1	0	0	CorrectCommission	0.002524	0.537708	1	0
85.631172	0.795583	city	10	1	0.548920	0.548920	0	1	0	0	CorrectCommission	0.843919	0.501584	1	0
86.426865	0.795804	mountain	4	0	0.000000	0.615393	1	0	0	0	CorrectOmission	0.283712	0.469736	1	0
87.222664	0.795799	city	8	1	0.698510	0.698510	0	1	0	0	CorrectCommission	0.416770	0.443138	1	0
88.018471	0.795803	city	6	1	0.648606	0.648606	0	1	0	0	CorrectCommission	0.003802	0.423008	1	0
88.814293	0.795854	city	2	1	0.553148	0.553148	0	1	0	0	CorrectCommission	0.808284	0.410756	1	0
89.610207	0.795965	mountain	1	0	0.000000	0.585375	1	0	0	0	CorrectOmission	0.536685	0.407789	1	0
90.405991	0.795603	city	2	1	0.652549	0.652549	0	1	0	0	CorrectCommission	0.029426	0.415403	1	0
91.201683	0.795784	mountain	2	0	0.000000	0.661929	1	0	0	0	CorrectOmission	0.108479	0.434462	1	0
91.997475	0.795803	city	8	1	0.648958	0.648958	0	1	0	0	CorrectCommission	0.000836	0.465240	1	0
92.793320	0.795874	city	4	1	0.649078	0.649078	0	1	0	0	CorrectCommission	0.000175	0.507272	1	0
93.589119	0.795729	mountain	2	0	0.000000	0.632387	1	0	0	0	CorrectOmission	0.140492	0.559338	1	0
94.384933	0.795907	city	8	1	0.599005	0.599005	0	1	0	0	CorrectCommission	0.421819	0.619514	1	0
95.180794	0.795803	city	1	1	0.549054	0.549054	0	1	0	0	CorrectCommission	0.842788	0.685402	0	0
95.976540	0.795692	city	6	1	0.549190	0.549190	0	1	0	0	CorrectCommission	0.841638	0.754421	0	0
96.772285	0.795801	city	9	1	0.499428	0.499428	0	1	0	0	CorrectCommission	1.261013	0.824163	0	0
97.568085	0.795800	city	1	1	0.504754	0.504754	0	1	0	0	CorrectCommission	1.216133	0.892671	0	0
98.363914	0.795855	city	9	1	0.499437	0.499437	0	1	0	0	CorrectCommission	1.260938	0.958661	0	0
99.159760	0.795831	city	7	1	0.511135	0.511135	0	1	0	0	CorrectCommission	1.162354	1.021570	0	0
99.955643	0.795940	city	9	1	0.555581	0.555581	0	1	0	0	CorrectCommission	0.787783	1.081469	0	0
100.751511	0.795799	city	6	1	0.797602	0.797602	0	1	0	0	CorrectCommission	1.251875	1.138804	0	0
101.547310	0.795802	mountain	6	1	0.499221	0.499221	0	0	1	0	CommissionError	1.262759	1.194075	0	0
102.343010	0.795586	city	6	1	0.465118	0.465118	0	1	0	0	CorrectCommission	1.550167	1.247473	0	0
103.138695	0.795797	city	4	1	0.519857	0.519857	0	1	0	0	CorrectCommission	1.088851	1.298503	0	0
103.934494	0.795802	city	7	1	0.698396	0.698396	0	1	0	0	CorrectCommission	0.415804	1.345809	0	0
104.730316	0.795831	city	1	1	0.598903	0.598903	0	1	0	0	CorrectCommission	0.422680	1.387124	0	0
105.526115	0.795776	city	10	1	0.996900	0.996900	0	1	0	0	CorrectCommission	2.931472	1.419455	0	0
106.321907	0.795800	city	7	1	0.748540	0.748540	0	1	0	0	CorrectCommission	0.838396	1.439417	0	0
107.117706	0.795810	city	1	1	0.847693	0.847693	0	1	0	0	CorrectCommission	1.674018	1.443903	0	0
107.913513	0.795792	city	10	1	0.905963	0.905963	0	1	0	0	CorrectCommission	2.165097	1.430588	0	0
108.709305	0.795804	city	4	0	0.000000	0.998406	0	0	0	1	OmissionError	2.944171	1.398507	0	0
109.505226	0.796025	city	10	1	1.015404	1.015404	0	1	0	0	CorrectCommission	3.087416	1.348445	0	0
110.301025	0.795578	city	6	1	0.847336	0.847336	0	1	0	0	CorrectCommission	1.671010	1.283074	0	0
111.096825	0.796021	city	8	1	0.610140	0.610140	0	1	0	0	CorrectCommission	0.327981	1.206804	0	0
111.892731	0.795801	city	9	1	0.698193	0.698193	0	1	0	0	CorrectCommission	0.414094	1.125301	0	0
112.688423	0.795584	city	3	1	0.598684	0.598684	0	1	0	0	CorrectCommission	0.424522	1.044909	0	0
113.484230	0.796019	city	2	1	0.797836	0.797836	0	1	0	0	CorrectCommission	1.253848	0.971894	0	0
114.280029	0.795587	city	5	1	0.598714	0.598714	0	1	0	0	CorrectCommission	0.424271	0.911768	0	0
115.075722	0.795797	city	9	1	0.707638	0.707638	0	1	0	0	CorrectCommission	0.493690	0.868798	0	0
115.871574	0.795910	city	10	1	0.655744	0.655744	0	1	0	0	CorrectCommission	0.056356	0.845564	0	0
116.667397	0.795724	city	4	1	0.701320	0.701320	0	1	0	0	CorrectCommission	0.440445	0.842816	0	0
117.463142	0.795770	city	2	1	0.560875	0.560875	0	1	0	0	CorrectCommission	0.743167	0.859467	0	0
118.258926	0.795806	city	5	1	0.698369	0.698369	0	1	0	0	CorrectCommission	0.415581	0.892824	0	0
119.054733	0.795799	city	10	1	0.648861	0.648861	0	1	0	0	CorrectCommission	0.001655	0.938954	0	0
119.850533	0.795804	city	1	1	0.711999	0.711999	0	1	0	0	CorrectCommission	0.530451	0.993120	0	0
120.646446	0.796018	city	6	1	0.856799	0.856799	0	1	0	0	CorrectCommission	1.750761	1.050274	0	0
121.442245	0.795585	city	1	1	0.965480	0.965480	0	1	0	0	CorrectCommission	2.666677	1.105511	0	0
122.237991	0.795910	mountain	6	1	0.450264	0.450264	0	0	1	0	CommissionError	1.675345	1.154465	0	0
123.033806	0.795715	city	8	1	0.413953	0.413953	0	1	0	0	CorrectCommission	1.981361	1.193498	0	0
123.829552	0.795779	city	3	1	0.550153	0.550153	0	1	0	0	CorrectCommission	0.833522	1.219814	0	0
124.625450	0.796019	city	4	1	0.598929	0.598929	0	1	0	0	CorrectCommission	0.422462	1.231455	0	0
125.421280	0.795637	city	1	1	0.549450	0.549450	0	1	0	0	CorrectCommission	0.839448	1.227249	0	0
126.217079	0.795966	city	5	1	0.517524	0.517524	0	1	0	0	CorrectCommission	1.108510	1.206801	0	0
127.012863	0.795594	city	10	1	0.551437	0.551437	0	1	0	0	CorrectCommission	0.822700	1.170547	0	0
127.808609	0.795900	city	3	1	1.148443	1.148443	0	1	0	0	CorrectCommission	4.208620	1.119857	0	1
128.604507	0.795911	city	9	1	0.897227	0.897227	0	1	0	0	CorrectCommission	2.091472	1.057005	0	1
129.400253	0.795584	city	1	1	0.710933	0.710933	0	1	0	0	CorrectCommission	0.521465	0.985307	0	1
130.195953	0.795802	city	2	1	0.599870	0.599870	0	1	0	0	CorrectCommission	0.414528	0.908851	0	1
130.991776	0.795849	city	5	1	0.599033	0.599033	0	1	0	0	CorrectCommission	0.421587	0.832162	0	1
131.787628	0.795863	city	8	1	0.598981	0.598981	0	1	0	0	CorrectCommission	0.422023	0.759850	0	1
132.583420	0.795693	city	9	1	0.648543	0.648543	0	1	0	0	CorrectCommission	0.004338	0.696129	0	1
133.379181	0.795837	city	7	1	0.599471	0.599471	0	1	0	0	CorrectCommission	0.417893	0.644418	1	1
134.174988	0.795769	city	2	1	0.598921	0.598921	0	1	0	0	CorrectCommission	0.422528	0.606958	1	1
134.970764	0.795800	mountain	2	0	0.000000	0.656834	1	0	0	0	CorrectOmission	0.065541	0.584651	1	1
135.766571	0.795797	city	1	1	0.698461	0.698461	0	1	0	0	CorrectCommission	0.416350	0.577059	1	1
136.562363	0.795804	city	8	1	0.649049	0.649049	0	1	0	0	CorrectCommission	0.000066	0.582465	1	1
137.358200	0.795864	city	1	1	0.549199	0.549199	0	1	0	0	CorrectCommission	0.841564	0.598172	1	1
138.154022	0.795784	city	7	1	0.566699	0.566699	0	1	0	0	CorrectCommission	0.694085	0.620797	1	1
138.949799	0.795775	city	4	1	0.550163	0.550163	0	1	0	0	CorrectCommission	0.833442	0.646704	1	1
139.745590	0.795793	city	7	1	0.599919	0.599919	0	1	0	0	CorrectCommission	0.414119	0.672404	0	1
140.541382	0.795794	mountain	8	0	0.000000	0.714582	1	0	0	0	CorrectOmission	0.552213	0.694921	0	1
141.337173	0.795802	city	2	1	0.809747	0.809747	0	1	0	0	CorrectCommission	1.354224	0.712077	0	1
142.133011	0.795861	mountain	10	0	0.000000	0.801009	1	0	0	0	CorrectOmission	1.280587	0.722659	0	1
142.928864	0.795848	city	3	1	0.761851	0.761851	0	1	0	0	CorrectCommission	0.950576	0.726474	0	1
143.724747	0.795910	mountain	5	0	0.000000	0.765753	1	0	0	0	CorrectOmission	0.983466	0.724241	0	1
144.520599	0.795801	mountain	3	0	0.000000	0.773998	1	0	0	0	CorrectOmission	1.052946	0.717344	0	1
145.316299	0.795587	city	4	1	0.747865	0.747865	0	1	0	0	CorrectCommission	0.832708	0.707455	0	1
146.111984	0.795802	city	5	1	0.648635	0.648635	0	1	0	0	CorrectCommission	0.003560	0.696246	0	1
146.907791	0.795797	city	6	1	0.649049	0.649049	0	1	0	0	CorrectCommission	0.000073	0.685054	0	1
147.703583	0.795805	city	5	1	0.648847	0.648847	0	1	0	0	CorrectCommission	0.001769	0.674614	0	1
148.499390	0.795799	city	1	1	0.549150	0.549150	0	1	0	0	CorrectCommission	0.841980	0.665012	1	1
149.295227	0.795871	city	10	1	0.561668	0.561668	0	1	0	0	CorrectCommission	0.736483	0.655742	1	1
150.091034	0.795732	mountain	7	0	0.000000	0.743074	1	0	0	0	CorrectOmission	0.792333	0.645967	1	1
150.886902	0.796019	city	7	1	0.867877	0.867877	0	1	0	0	CorrectCommission	1.844124	0.634795	1	1
151.682709	0.795584	city	5	1	0.710586	0.710586	0	1	0	0	CorrectCommission	0.518542	0.621532	1	1
152.478394	0.795801	city	1	1	0.599161	0.599161	0	1	0	0	CorrectCommission	0.420507	0.606021	1	1
153.274200	0.795803	city	6	1	0.561078	0.561078	0	1	0	0	CorrectCommission	0.741456	0.588633	1	1
154.070023	0.795854	city	8	1	0.550113	0.550113	0	1	0	0	CorrectCommission	0.833865	0.570275	1	1
154.865829	0.795751	mountain	1	0	0.000000	0.628558	1	0	0	0	CorrectOmission	0.172757	0.552263	1	1
155.661713	0.796016	city	1	1	0.698763	0.698763	0	1	0	0	CorrectCommission	0.418902	0.536130	1	1
156.457520	0.795585	city	7	1	0.663077	0.663077	0	1	0	0	CorrectCommission	0.118150	0.523347	1	1
157.253204	0.795804	city	6	1	0.598899	0.598899	0	1	0	0	CorrectCommission	0.422712	0.515140	1	1
158.049072	0.795908	city	4	1	0.598875	0.598875	0	1	0	0	CorrectCommission	0.422913	0.512279	1	1
158.844864	0.795695	city	10	1	0.549073	0.549073	0	1	0	0	CorrectCommission	0.842629	0.514985	1	1
159.640656	0.795880	city	3	1	0.649248	0.649248	0	1	0	0	CorrectCommission	0.001609	0.522887	1	1
160.436569	0.795936	city	6	1	0.698332	0.698332	0	1	0	0	CorrectCommission	0.415264	0.535107	1	1
161.232330	0.795588	city	10	1	0.608582	0.608582	0	1	0	0	CorrectCommission	0.341110	0.550298	1	1
162.028061	0.795882	city	5	1	0.698490	0.698490	0	1	0	0	CorrectCommission	0.416594	0.566824	1	1
162.823914	0.795827	mountain	4	0	0.000000	0.771273	1	0	0	0	CorrectOmission	1.029983	0.582906	1	1
163.619675	0.795693	city	2	1	0.797760	0.797760	0	1	0	0	CorrectCommission	1.253205	0.596815	1	1
164.415421	0.795800	city	4	1	0.748778	0.748778	0	1	0	0	CorrectCommission	0.840408	0.606975	1	1
165.211227	0.795808	city	6	1	0.660756	0.660756	0	1	0	0	CorrectCommission	0.098593	0.612137	1	1
166.007034	0.795796	city	2	1	0.598877	0.598877	0	1	0	0	CorrectCommission	0.422896	0.611469	1	1
166.802933	0.796019	city	3	1	0.648629	0.648629	0	1	0	0	CorrectCommission	0.003606	0.604624	1	1
167.598740	0.795583	city	6	1	0.847399	0.847399	0	1	0	0	CorrectCommission	1.671542	0.591848	1	1
168.394531	0.796021	mountain	5	0	0.000000	0.821269	1	0	0	0	CorrectOmission	1.451330	0.573940	1	1
169.190338	0.795585	city	7	1	0.698180	0.698180	0	1	0	0	CorrectCommission	0.413986	0.552299	1	1
169.986038	0.795817	city	3	1	0.606072	0.606072	0	1	0	0	CorrectCommission	0.362262	0.528814	1	1
170.781952	0.796003	city	7	1	0.602941	0.602941	0	1	0	0	CorrectCommission	0.388652	0.505664	1	1
171.577744	0.795584	city	10	1	0.605757	0.605757	0	1	0	0	CorrectCommission	0.364917	0.485072	1	1
172.373489	0.795909	city	8	1	0.698343	0.698343	0	1	0	0	CorrectCommission	0.415360	0.469074	1	1
173.169296	0.795696	city	9	1	0.662343	0.662343	0	1	0	0	CorrectCommission	0.111967	0.459217	1	1
173.965042	0.795803	mountain	5	0	0.000000	0.657830	1	0	0	0	CorrectOmission	0.073936	0.456376	1	1
174.760895	0.795905	city	6	1	0.648680	0.648680	0	1	0	0	CorrectCommission	0.003176	0.460615	1	1
175.556702	0.795702	city	7	1	0.598768	0.598768	0	1	0	0	CorrectCommission	0.423815	0.471197	1	1
176.352448	0.795792	city	6	1	0.614965	0.614965	0	1	0	0	CorrectCommission	0.287319	0.486686	1	1
177.148270	0.795837	city	5	1	0.598951	0.598951	0	1	0	0	CorrectCommission	0.422275	0.505217	1	1
177.944077	0.795782	city	2	1	0.599313	0.599313	0	1	0	0	CorrectCommission	0.419229	0.524756	1	1
178.739899	0.795866	city	8	1	0.897434	0.897434	0	1	0	0	CorrectCommission	2.093217	0.543433	1	1
179.535751	0.795832	city	3	1	0.608341	0.608341	0	1	0	0	CorrectCommission	0.343139	0.559753	1	1
180.331512	0.795691	city	9	1	0.600337	0.600337	0	1	0	0	CorrectCommission	0.410598	0.572912	1	1
181.127258	0.795804	city	6	1	0.560706	0.560706	0	1	0	0	CorrectCommission	0.744590	0.582770	1	1
181.923050	0.795800	city	1	1	0.698507	0.698507	0	1	0	0	CorrectCommission	0.416743	0.589859	1	1
182.718857	0.795802	city	10	1	0.599058	0.599058	0	1	0	0	CorrectCommission	0.421374	0.595279	1	1
183.514664	0.795805	city	6	1	0.797858	0.797858	0	1	0	0	CorrectCommission	1.254027	0.600451	1	1
184.310455	0.795798	city	3	1	0.648820	0.648820	0	1	0	0	CorrectCommission	0.001997	0.606878	1	1
185.106369	0.796020	city	2	1	0.606095	0.606095	0	1	0	0	CorrectCommission	0.362071	0.615933	1	1
185.902176	0.795582	city	9	1	0.508365	0.508365	0	1	0	0	CorrectCommission	1.185699	0.628580	1	1
186.697922	0.795912	city	3	1	0.606160	0.606160	0	1	0	0	CorrectCommission	0.361522	0.645241	1	1
187.493729	0.795696	city	9	1	0.698688	0.698688	0	1	0	0	CorrectCommission	0.418267	0.665715	0	0
188.289474	0.795804	city	10	1	0.649063	0.649063	0	1	0	0	CorrectCommission	0.000049	0.689125	0	0
189.085281	0.795797	city	4	1	0.598836	0.598836	0	1	0	0	CorrectCommission	0.423243	0.714062	0	0
189.881073	0.795799	city	9	1	0.549536	0.549536	0	1	0	0	CorrectCommission	0.838728	0.738762	0	0
190.676880	0.795812	city	3	1	0.499867	0.499867	0	1	0	0	CorrectCommission	1.257319	0.761405	0	0
191.472687	0.795797	city	2	1	0.511228	0.511228	0	1	0	0	CorrectCommission	1.161570	0.780433	0	0
192.268539	0.795904	city	3	1	0.499564	0.499564	0	1	0	0	CorrectCommission	1.259865	0.794828	0	0
193.064346	0.795716	city	4	1	0.499725	0.499725	0	1	0	0	CorrectCommission	1.258514	0.804276	0	0
193.860138	0.795887	city	8	1	0.499846	0.499846	0	1	0	0	CorrectCommission	1.257490	0.809259	0	0
194.655991	0.795802	city	7	1	0.655546	0.655546	0	1	0	0	CorrectCommission	0.054687	0.810978	0	0
195.451736	0.795692	city	8	1	0.598966	0.598966	0	1	0	0	CorrectCommission	0.422147	0.811180	0	0
196.247482	0.795806	city	2	1	0.549196	0.549196	0	1	0	0	CorrectCommission	0.841592	0.811820	0	0
197.043289	0.795803	city	9	1	0.549157	0.549157	0	1	0	0	CorrectCommission	0.841918	0.814819	0	0
197.839096	0.795800	mountain	1	1	0.511897	0.511897	0	0	1	0	CommissionError	1.155934	0.821742	0	0
198.634995	0.796017	city	1	1	0.549168	0.549168	0	1	0	0	CorrectCommission	0.841826	0.833519	0	0
199.430801	0.795582	city	4	1	0.648553	0.648553	0	1	0	0	CorrectCommission	0.004248	0.850279	0	0
200.226486	0.795802	city	7	1	0.600769	0.600769	0	1	0	0	CorrectCommission	0.406955	0.871276	0	0
201.022308	0.795829	city	4	1	0.598905	0.598905	0	1	0	0	CorrectCommission	0.422666	0.894887	0	0
201.818222	0.795994	city	1	1	0.499605	0.499605	0	1	0	0	CorrectCommission	1.259524	0.918827	0	0
202.614014	0.795585	city	10	1	0.465735	0.465735	0	1	0	0	CorrectCommission	1.544969	0.940366	0	0
203.409805	0.796019	city	9	1	0.499931	0.499931	0	1	0	0	CorrectCommission	1.256780	0.956656	0	0
204.205643	0.795642	city	4	1	0.499832	0.499832	0	1	0	0	CorrectCommission	1.257611	0.965101	0	0
205.001328	0.795740	city	7	1	0.517985	0.517985	0	1	0	0	CorrectCommission	1.104628	0.963641	0	0
205.797119	0.795846	city	9	1	0.549296	0.549296	0	1	0	0	CorrectCommission	0.840745	0.951014	0	0
206.592957	0.795818	city	5	1	0.499819	0.499819	0	1	0	0	CorrectCommission	1.257719	0.926907	0	0
207.388733	0.795742	city	10	1	0.469850	0.469850	0	1	0	0	CorrectCommission	1.510289	0.891977	0	0
208.184509	0.795800	mountain	5	1	0.549304	0.549304	0	0	1	0	CommissionError	0.840679	0.847832	0	0
208.980362	0.795913	city	2	1	0.506555	0.506555	0	1	0	0	CorrectCommission	1.200954	0.796875	0	0
209.776199	0.795743	city	6	1	0.499662	0.499662	0	1	0	0	CorrectCommission	1.259043	0.742029	0	0
210.572052	0.795968	city	7	1	0.648659	0.648659	0	1	0	0	CorrectCommission	0.003361	0.686450	0	0
211.367935	0.795803	city	4	1	0.666191	0.666191	0	1	0	0	CorrectCommission	0.144392	0.633225	1	0
212.163620	0.795581	city	2	1	0.649119	0.649119	0	1	0	0	CorrectCommission	0.000521	0.585042	1	0
212.959335	0.795826	city	3	1	0.598929	0.598929	0	1	0	0	CorrectCommission	0.422459	0.543971	1	0
213.755249	0.795997	city	10	1	0.565744	0.565744	0	1	0	0	CorrectCommission	0.702132	0.511290	1	0
214.551025	0.795581	mountain	3	0	0.000000	0.595700	1	0	0	0	CorrectOmission	0.449670	0.487480	1	0
215.346725	0.795802	mountain	2	0	0.000000	0.652168	1	0	0	0	CorrectOmission	0.026218	0.472251	1	0
216.142639	0.796020	city	10	1	0.698517	0.698517	0	1	0	0	CorrectCommission	0.416824	0.464681	1	0
216.938431	0.795583	city	6	1	0.698115	0.698115	0	1	0	0	CorrectCommission	0.413441	0.463378	1	0
217.734131	0.795805	city	8	1	0.601617	0.601617	0	1	0	0	CorrectCommission	0.399809	0.466692	1	0
218.529938	0.795799	city	2	1	0.599239	0.599239	0	1	0	0	CorrectCommission	0.419850	0.472893	1	0
219.325729	0.795805	city	9	1	0.599200	0.599200	0	1	0	0	CorrectCommission	0.420173	0.480345	1	0
220.121582	0.795907	city	10	1	0.549226	0.549226	0	1	0	0	CorrectCommission	0.841339	0.487648	1	0
220.917389	0.795691	city	7	1	0.552688	0.552688	0	1	0	0	CorrectCommission	0.812159	0.493712	1	0
221.713150	0.795845	city	1	1	0.549181	0.549181	0	1	0	0	CorrectCommission	0.841719	0.497810	1	0
222.509018	0.795870	city	7	1	0.649302	0.649302	0	1	0	0	CorrectCommission	0.002065	0.499536	1	0
223.304901	0.795911	city	2	1	0.598861	0.598861	0	1	0	0	CorrectCommission	0.423032	0.498781	1	0
224.100647	0.795580	city	9	1	0.598684	0.598684	0	1	0	0	CorrectCommission	0.424526	0.495605	1	0
224.896393	0.795911	city	1	1	0.558493	0.558493	0	1	0	0	CorrectCommission	0.763243	0.490208	1	0
225.692200	0.795696	city	6	1	0.602471	0.602471	0	1	0	0	CorrectCommission	0.392614	0.482878	1	0
226.487946	0.795803	city	8	1	0.599611	0.599611	0	1	0	0	CorrectCommission	0.416714	0.473976	1	0
227.283752	0.795801	mountain	6	1	0.598883	0.598883	0	0	1	0	CommissionError	0.422851	0.463885	1	0
228.079559	0.795833	mountain	7	1	0.553639	0.553639	0	0	1	0	CommissionError	0.804143	0.453073	1	0
228.875366	0.795767	city	5	1	0.698450	0.698450	0	1	0	0	CorrectCommission	0.416261	0.442035	1	0
229.671158	0.795806	city	6	1	0.751676	0.751676	0	1	0	0	CorrectCommission	0.864827	0.431314	1	0
230.466949	0.795800	city	5	1	0.656596	0.656596	0	1	0	0	CorrectCommission	0.063537	0.421445	1	0
231.262863	0.796018	city	9	1	0.649009	0.649009	0	1	0	0	CorrectCommission	0.000409	0.412936	1	0
232.058670	0.795582	city	3	1	0.648464	0.648464	0	1	0	0	CorrectCommission	0.005000	0.406224	1	0
232.854462	0.796022	city	1	1	0.550462	0.550462	0	1	0	0	CorrectCommission	0.830923	0.401634	1	0
233.650269	0.795581	city	4	1	0.612394	0.612394	0	1	0	0	CorrectCommission	0.308985	0.399376	1	0
234.445999	0.795876	city	8	1	0.599040	0.599040	0	1	0	0	CorrectCommission	0.421523	0.399599	1	0
235.241821	0.795767	city	4	1	0.598795	0.598795	0	1	0	0	CorrectCommission	0.423588	0.402371	1	0
236.037689	0.795980	city	9	1	0.698684	0.698684	0	1	0	0	CorrectCommission	0.418231	0.407709	1	0
236.833481	0.795583	mountain	4	0	0.000000	0.719134	1	0	0	0	CorrectOmission	0.590576	0.415584	1	0
237.629166	0.795802	city	8	1	0.698660	0.698660	0	1	0	0	CorrectCommission	0.418031	0.425884	1	0
238.425018	0.795911	mountain	7	0	0.000000	0.675776	1	0	0	0	CorrectOmission	0.225176	0.438416	1	0
239.220825	0.795695	city	9	1	0.648581	0.648581	0	1	0	0	CorrectCommission	0.004018	0.452850	1	0
240.016571	0.795797	city	1	1	0.615171	0.615171	0	1	0	0	CorrectCommission	0.285581	0.468754	1	0
240.812485	0.796022	city	7	1	0.598880	0.598880	0	1	0	0	CorrectCommission	0.422877	0.485554	1	0
241.608292	0.795593	city	10	1	0.510628	0.510628	0	1	0	0	CorrectCommission	1.166630	0.502610	1	0
242.403976	0.795793	city	7	1	0.602541	0.602541	0	1	0	0	CorrectCommission	0.392024	0.519231	1	0
243.199799	0.795826	mountain	3	1	0.759640	0.759640	0	0	1	0	CommissionError	0.931942	0.534787	1	0
243.995605	0.795805	city	5	1	0.598873	0.598873	0	1	0	0	CorrectCommission	0.422932	0.548678	1	0
244.791412	0.795800	city	10	1	0.665352	0.665352	0	1	0	0	CorrectCommission	0.137323	0.560398	1	0
245.587311	0.795991	city	6	1	0.760847	0.760847	0	1	0	0	CorrectCommission	0.942117	0.569502	1	0
246.383209	0.795802	city	8	1	0.607895	0.607895	0	1	0	0	CorrectCommission	0.346896	0.575578	1	0
247.179001	0.795802	city	7	1	0.797598	0.797598	0	1	0	0	CorrectCommission	1.251841	0.578266	1	1
247.974701	0.795584	city	8	1	0.648390	0.648390	0	1	0	0	CorrectCommission	0.005621	0.577229	1	1
248.770386	0.795801	city	10	1	0.598910	0.598910	0	1	0	0	CorrectCommission	0.422618	0.572235	1	1
249.566193	0.795816	city	9	1	0.554095	0.554095	0	1	0	0	CorrectCommission	0.800302	0.563161	1	1
250.362030	0.795855	city	8	1	0.549579	0.549579	0	1	0	0	CorrectCommission	0.838364	0.550069	1	1
251.157837	0.795745	city	10	1	0.549361	0.549361	0	1	0	0	CorrectCommission	0.840199	0.533302	1	1
251.953598	0.795794	city	5	1	0.565268	0.565268	0	1	0	0	CorrectCommission	0.706144	0.513494	1	1
252.749512	0.796017	city	7	1	0.599316	0.599316	0	1	0	0	CorrectCommission	0.419199	0.491571	1	1
253.545303	0.795584	city	2	1	0.598986	0.598986	0	1	0	0	CorrectCommission	0.421983	0.468711	1	1
254.341049	0.795884	city	6	1	0.649690	0.649690	0	1	0	0	CorrectCommission	0.005332	0.446227	1	1
255.136856	0.795753	city	10	1	0.567553	0.567553	0	1	0	0	CorrectCommission	0.686889	0.425458	1	1
255.932617	0.795768	city	7	1	0.698574	0.698574	0	1	0	0	CorrectCommission	0.417303	0.407599	1	1
256.728424	0.795807	city	4	1	0.698428	0.698428	0	1	0	0	CorrectCommission	0.416079	0.393587	1	1
257.524200	0.795797	city	5	1	0.648640	0.648640	0	1	0	0	CorrectCommission	0.003520	0.383980	1	1
258.320007	0.795804	city	9	1	0.648620	0.648620	0	1	0	0	CorrectCommission	0.003685	0.378903	1	1
259.115936	0.796016	city	1	1	0.648974	0.648974	0	1	0	0	CorrectCommission	0.000703	0.378023	1	1
259.911774	0.795692	city	8	1	0.599406	0.599406	0	1	0	0	CorrectCommission	0.418443	0.380632	1	1
260.707520	0.795802	city	5	1	0.556277	0.556277	0	1	0	0	CorrectCommission	0.781914	0.385720	1	1
261.503265	0.795692	city	3	1	0.560568	0.560568	0	1	0	0	CorrectCommission	0.745754	0.392146	1	1
262.299133	0.796021	city	5	1	0.698382	0.698382	0	1	0	0	CorrectCommission	0.415690	0.398768	1	1
263.095032	0.795801	city	7	1	0.698156	0.698156	0	1	0	0	CorrectCommission	0.413785	0.404537	1	1
263.890717	0.795583	city	10	1	0.651669	0.651669	0	1	0	0	CorrectCommission	0.022008	0.408629	1	1
264.686462	0.795911	city	3	1	0.698400	0.698400	0	1	0	0	CorrectCommission	0.415836	0.410493	1	1
265.482300	0.795753	city	7	1	0.700690	0.700690	0	1	0	0	CorrectCommission	0.435135	0.409895	1	1
266.278046	0.795740	city	4	1	0.748658	0.748658	0	1	0	0	CorrectCommission	0.839390	0.406929	1	1
267.073853	0.795836	city	9	1	0.710696	0.710696	0	1	0	0	CorrectCommission	0.519468	0.402001	1	1
267.869751	0.795988	city	2	1	0.698353	0.698353	0	1	0	0	CorrectCommission	0.415444	0.395822	1	1
268.665527	0.795585	city	6	1	0.698498	0.698498	0	1	0	0	CorrectCommission	0.416668	0.389319	1	1
269.461243	0.795798	city	1	1	0.599415	0.599415	0	1	0	0	CorrectCommission	0.418367	0.383527	1	1
270.257050	0.795806	city	6	1	0.648634	0.648634	0	1	0	0	CorrectCommission	0.003567	0.379481	1	1
271.052856	0.795809	city	3	1	0.598949	0.598949	0	1	0	0	CorrectCommission	0.422290	0.378070	1	1
271.848694	0.795898	city	6	1	0.649100	0.649100	0	1	0	0	CorrectCommission	0.000363	0.379898	1	1
272.644562	0.795804	mountain	9	0	0.000000	0.693385	1	0	0	0	CorrectOmission	0.373574	0.385196	1	1
273.440308	0.795714	mountain	6	0	0.000000	0.717677	1	0	0	0	CorrectOmission	0.578299	0.393745	1	1
274.236053	0.795806	city	2	1	0.707852	0.707852	0	1	0	0	CorrectCommission	0.495495	0.404894	1	1
275.031891	0.795851	city	1	1	0.649783	0.649783	0	1	0	0	CorrectCommission	0.006116	0.417620	1	1
275.827728	0.795835	city	6	1	0.648567	0.648567	0	1	0	0	CorrectCommission	0.004136	0.430630	1	1
276.623505	0.795691	city	9	1	0.552156	0.552156	0	1	0	0	CorrectCommission	0.816645	0.442523	1	1
277.419312	0.795910	city	1	1	0.549753	0.549753	0	1	0	0	CorrectCommission	0.836899	0.451969	1	1
278.215118	0.795696	mountain	8	0	0.000000	0.633277	1	0	0	0	CorrectOmission	0.132990	0.457931	1	1
279.010956	0.796019	mountain	1	0	0.000000	0.737604	1	0	0	0	CorrectOmission	0.746232	0.459834	1	1
279.806763	0.795584	city	9	1	0.797607	0.797607	0	1	0	0	CorrectCommission	1.251918	0.457624	1	1
280.602448	0.795799	city	5	1	0.748163	0.748163	0	1	0	0	CorrectCommission	0.835220	0.451795	1	1
281.398254	0.795801	city	8	1	0.658081	0.658081	0	1	0	0	CorrectCommission	0.076047	0.443336	1	1
282.194153	0.796021	city	9	1	0.659376	0.659376	0	1	0	0	CorrectCommission	0.086962	0.433547	1	1
282.990021	0.795693	city	5	1	0.614735	0.614735	0	1	0	0	CorrectCommission	0.289259	0.423833	1	1
283.785767	0.795801	city	6	1	0.698256	0.698256	0	1	0	0	CorrectCommission	0.414626	0.415490	1	1
284.581573	0.795802	city	9	1	0.654177	0.654177	0	1	0	0	CorrectCommission	0.043142	0.409591	1	1
285.377350	0.795744	city	6	1	0.613724	0.613724	0	1	0	0	CorrectCommission	0.297773	0.406912	1	1
286.173096	0.795748	city	7	1	0.598900	0.598900	0	1	0	0	CorrectCommission	0.422706	0.407909	1	1
286.968933	0.795911	city	3	1	0.599045	0.599045	0	1	0	0	CorrectCommission	0.421484	0.412840	1	1
287.764740	0.795754	city	4	1	0.598920	0.598920	0	1	0	0	CorrectCommission	0.422540	0.421922	1	1
288.560486	0.795742	mountain	1	0	0.000000	0.677780	1	0	0	0	CorrectOmission	0.242066	0.435473	1	1
289.356262	0.795802	city	2	1	0.754551	0.754551	0	1	0	0	CorrectCommission	0.889057	0.454002	1	1
290.152069	0.795799	city	8	1	0.748156	0.748156	0	1	0	0	CorrectCommission	0.835159	0.478220	1	1
290.947998	0.796021	city	9	1	0.664536	0.664536	0	1	0	0	CorrectCommission	0.130446	0.509008	1	1
291.743774	0.795582	city	5	1	0.617863	0.617863	0	1	0	0	CorrectCommission	0.262895	0.547243	1	1
292.539520	0.795914	city	1	1	0.613324	0.613324	0	1	0	0	CorrectCommission	0.301144	0.593554	1	1
293.335327	0.795690	city	10	1	0.698319	0.698319	0	1	0	0	CorrectCommission	0.415160	0.648062	1	1
294.131073	0.795803	city	5	1	0.698515	0.698515	0	1	0	0	CorrectCommission	0.416813	0.710138	0	1
294.927002	0.796021	city	8	1	0.712032	0.712032	0	1	0	0	CorrectCommission	0.530728	0.778276	0	1
295.722809	0.795583	city	4	1	0.698209	0.698209	0	1	0	0	CorrectCommission	0.414233	0.850103	0	1
296.518494	0.795801	mountain	1	0	0.000000	0.737976	1	0	0	0	CorrectOmission	0.749373	0.922486	0	1
297.314301	0.795802	city	5	1	0.798641	0.798641	0	1	0	0	CorrectCommission	1.260627	0.991798	0	1
298.110138	0.795908	city	9	1	0.847509	0.847509	0	1	0	0	CorrectCommission	1.672473	1.054336	0	1
298.905945	0.795696	city	10	1	0.797813	0.797813	0	1	0	0	CorrectCommission	1.253648	1.106684	0	1
299.701752	0.795908	mountain	5	0	0.000000	0.859015	1	0	0	0	CorrectOmission	1.769440	1.146146	0	1
300.497650	0.795910	city	5	1	0.901992	0.901992	0	1	0	0	CorrectCommission	2.131628	1.171054	0	1
301.293518	0.795804	city	4	1	0.797616	0.797616	0	1	0	0	CorrectCommission	1.251993	1.180935	0	1
302.089233	0.795616	city	7	1	0.749262	0.749262	0	1	0	0	CorrectCommission	0.844486	1.176624	0	1
302.884918	0.795769	city	2	1	0.797828	0.797828	0	1	0	0	CorrectCommission	1.253780	1.160148	0	1
303.680695	0.795799	city	9	1	0.947575	0.947575	0	1	0	0	CorrectCommission	2.515788	1.134493	0	1
304.476501	0.795816	city	4	1	0.748682	0.748682	0	1	0	0	CorrectCommission	0.839595	1.103330	0	1
305.272339	0.795851	city	2	1	0.663137	0.663137	0	1	0	0	CorrectCommission	0.118658	1.070733	0	1
306.068146	0.795737	city	7	1	0.698286	0.698286	0	1	0	0	CorrectCommission	0.414882	1.040726	0	1
306.863892	0.795802	city	10	1	0.748600	0.748600	0	1	0	0	CorrectCommission	0.838906	1.016964	0	0
307.659790	0.795939	city	6	1	0.847602	0.847602	0	1	0	0	CorrectCommission	1.673256	1.002483	0	0
308.455627	0.795774	city	1	1	0.797705	0.797705	0	1	0	0	CorrectCommission	1.252738	0.999463	0	0
309.251434	0.795802	city	7	0	0.000000	0.718122	0	0	0	1	OmissionError	0.582046	1.009056	0	0
310.047180	0.795695	city	10	0	0.000000	0.638626	0	0	0	1	OmissionError	0.087913	1.031270	0	0
310.842926	0.795826	mountain	1	0	0.000000	0.588989	1	0	0	0	CorrectOmission	0.506235	1.064908	0	0
311.638733	0.795778	city	2	1	0.598982	0.598982	0	1	0	0	CorrectCommission	0.422015	1.107639	0	0
312.434509	0.795798	city	10	1	0.698378	0.698378	0	1	0	0	CorrectCommission	0.415652	1.156176	0	0
313.230316	0.795804	mountain	3	1	0.300635	0.300635	0	0	1	0	CommissionError	2.936362	1.206512	0	0
314.026154	0.795863	city	7	1	0.798388	0.798388	0	1	0	0	CorrectCommission	1.258495	1.254254	0	0
314.821960	0.795736	city	10	1	0.797953	0.797953	0	1	0	0	CorrectCommission	1.254836	1.295139	0	0
315.617828	0.796021	city	6	1	0.300598	0.300598	0	1	0	0	CorrectCommission	2.936676	1.325278	0	0
316.413666	0.795644	city	7	1	0.798121	0.798121	0	1	0	0	CorrectCommission	1.256245	1.341525	0	0
317.209412	0.795851	city	2	1	0.599012	0.599012	0	1	0	0	CorrectCommission	0.421762	1.341829	0	0
318.005188	0.795693	city	8	1	0.798167	0.798167	0	1	0	0	CorrectCommission	1.256638	1.325343	0	0
318.801056	0.796018	city	4	1	0.797935	0.797935	0	1	0	0	CorrectCommission	1.254677	1.292537	0	0
319.596893	0.795697	city	7	0	0.000000	0.961861	0	0	0	1	OmissionError	2.636185	1.245227	0	0
320.392578	0.795690	city	3	1	1.046459	1.046459	0	1	0	0	CorrectCommission	3.349137	1.186390	0	0
321.188385	0.795909	city	8	1	0.808238	0.808238	0	1	0	0	CorrectCommission	1.341508	1.119880	0	0
321.984314	0.795911	city	1	1	0.649401	0.649401	0	1	0	0	CorrectCommission	0.002900	1.050121	0	0
322.780060	0.795617	city	2	1	0.648428	0.648428	0	1	0	0	CorrectCommission	0.005303	0.981504	0	0
323.575745	0.795767	city	10	1	0.615055	0.615055	0	1	0	0	CorrectCommission	0.286560	0.917869	0	0
324.371552	0.795804	city	5	1	0.648698	0.648698	0	1	0	0	CorrectCommission	0.003031	0.862086	0	0
325.167450	0.796017	city	6	1	0.698405	0.698405	0	1	0	0	CorrectCommission	0.415880	0.815847	0	0
325.963257	0.795588	city	7	1	0.598699	0.598699	0	1	0	0	CorrectCommission	0.424395	0.779632	0	0
326.759064	0.796015	city	9	1	0.816038	0.816038	0	1	0	0	CorrectCommission	1.407247	0.752890	0	0
327.554871	0.795583	city	7	1	0.852196	0.852196	0	1	0	0	CorrectCommission	1.711972	0.734356	0	0
328.350647	0.796020	city	8	1	0.648683	0.648683	0	1	0	0	CorrectCommission	0.003157	0.722454	0	0
329.146454	0.795587	city	1	1	0.600142	0.600142	0	1	0	0	CorrectCommission	0.412237	0.715688	0	0
329.942169	0.795816	city	7	1	0.847934	0.847934	0	1	0	0	CorrectCommission	1.676052	0.712804	0	0
330.737976	0.795787	city	8	1	0.717001	0.717001	0	1	0	0	CorrectCommission	0.572606	0.712876	0	0
331.533813	0.795906	city	5	1	0.599007	0.599007	0	1	0	0	CorrectCommission	0.421800	0.715391	0	0
332.329620	0.795698	city	10	1	0.598770	0.598770	0	1	0	0	CorrectCommission	0.423804	0.720037	0	0
333.125458	0.796016	city	3	1	0.599034	0.599034	0	1	0	0	CorrectCommission	0.421578	0.726506	0	0
333.921265	0.795585	city	9	1	0.558422	0.558422	0	1	0	0	CorrectCommission	0.763840	0.734384	0	0
334.717010	0.795909	city	8	1	0.549385	0.549385	0	1	0	0	CorrectCommission	0.840000	0.743028	0	0
335.512970	0.795966	city	5	1	0.558657	0.558657	0	1	0	0	CorrectCommission	0.761856	0.751545	0	0
336.308716	0.795532	city	9	1	0.649084	0.649084	0	1	0	0	CorrectCommission	0.000228	0.758905	0	0
337.104370	0.795797	city	2	1	0.499470	0.499470	0	1	0	0	CorrectCommission	1.260665	0.764109	0	0
337.900177	0.795805	city	5	1	0.499568	0.499568	0	1	0	0	CorrectCommission	1.259834	0.766367	0	0
338.695984	0.795798	mountain	6	1	0.459693	0.459693	0	0	1	0	CommissionError	1.595881	0.765431	0	0
339.491791	0.795844	city	4	1	0.613010	0.613010	0	1	0	0	CorrectCommission	0.303791	0.761725	0	0
340.287659	0.795868	city	8	1	0.549817	0.549817	0	1	0	0	CorrectCommission	0.836357	0.756429	0	0
341.083435	0.795728	city	4	1	0.499343	0.499343	0	1	0	0	CorrectCommission	1.261733	0.751367	0	0
341.879303	0.795986	city	7	1	0.598925	0.598925	0	1	0	0	CorrectCommission	0.422497	0.748915	0	0
342.675079	0.795582	city	1	1	0.656544	0.656544	0	1	0	0	CorrectCommission	0.063095	0.751730	0	0
343.470795	0.795809	city	4	1	0.598917	0.598917	0	1	0	0	CorrectCommission	0.422561	0.762395	0	0
344.266571	0.795793	city	7	1	0.549980	0.549980	0	1	0	0	CorrectCommission	0.834979	0.783061	0	0
345.062500	0.796021	city	3	1	0.554104	0.554104	0	1	0	0	CorrectCommission	0.800224	0.815072	0	0
345.858307	0.795593	city	7	1	0.549171	0.549171	0	1	0	0	CorrectCommission	0.841803	0.858748	0	0
346.654022	0.795852	city	4	1	0.599028	0.599028	0	1	0	0	CorrectCommission	0.421625	0.913146	0	0
347.449860	0.795851	city	8	1	0.599036	0.599036	0	1	0	0	CorrectCommission	0.421557	0.975996	0	0
348.245636	0.795693	city	9	1	0.705237	0.705237	0	1	0	0	CorrectCommission	0.473461	1.043799	0	0
349.041412	0.795830	city	3	1	0.749244	0.749244	0	1	0	0	CorrectCommission	0.844335	1.112179	0	0
349.837219	0.795776	mountain	3	0	0.000000	0.806420	1	0	0	0	CorrectOmission	1.326188	1.176298	0	0
350.632996	0.795812	mountain	4	0	0.000000	0.860791	1	0	0	0	CorrectOmission	1.784403	1.231498	0	0
351.428833	0.795850	mountain	5	0	0.000000	0.896384	1	0	0	0	CorrectOmission	2.084364	1.273909	0	0
352.224731	0.795958	city	9	1	0.897225	0.897225	0	1	0	0	CorrectCommission	2.091453	1.301081	0	0
353.020630	0.795801	city	5	1	0.847341	0.847341	0	1	0	0	CorrectCommission	1.671053	1.312366	0	0
353.816315	0.795585	mountain	10	0	0.000000	0.911511	1	0	0	0	CorrectOmission	2.211855	1.309087	0	0
354.612000	0.795801	city	1	1	0.947282	0.947282	0	1	0	0	CorrectCommission	2.513318	1.294270	0	0
355.407806	0.795804	mountain	4	0	0.000000	0.812200	1	0	0	0	CorrectOmission	1.374897	1.272195	0	0
356.203613	0.795796	city	1	1	0.648686	0.648686	0	1	0	0	CorrectCommission	0.003133	1.247650	0	0
356.999420	0.795857	city	9	1	0.599162	0.599162	0	1	0	0	CorrectCommission	0.420497	1.225076	0	0
357.795227	0.795749	city	10	1	0.598821	0.598821	0	1	0	0	CorrectCommission	0.423369	1.207729	0	0
358.591003	0.795809	city	5	1	0.608712	0.608712	0	1	0	0	CorrectCommission	0.340011	1.197150	0	0
359.386810	0.795796	city	1	1	0.797877	0.797877	0	1	0	0	CorrectCommission	1.254189	1.192912	0	0
360.182617	0.795803	city	10	1	0.698661	0.698661	0	1	0	0	CorrectCommission	0.418038	1.192744	0	0
360.978455	0.795871	city	9	0	0.000000	0.781544	0	0	0	1	OmissionError	1.116546	1.193037	0	0
361.774353	0.795946	mountain	1	0	0.000000	0.910446	1	0	0	0	CorrectOmission	2.202874	1.189550	0	0
362.570190	0.795692	city	7	1	0.949284	0.949284	0	1	0	0	CorrectCommission	2.530185	1.178275	0	0
363.365875	0.795707	city	10	1	0.761977	0.761977	0	1	0	0	CorrectCommission	0.951643	1.156233	0	0
364.161652	0.795855	city	4	1	0.947053	0.947053	0	1	0	0	CorrectCommission	2.511389	1.122070	0	0
364.957520	0.795843	city	3	1	0.449667	0.449667	0	1	0	0	CorrectCommission	1.680379	1.076197	0	0
365.753326	0.795757	city	8	0	0.000000	0.457944	0	0	0	1	OmissionError	1.610624	1.020778	0	0
366.549072	0.795740	city	3	1	0.648642	0.648642	0	1	0	0	CorrectCommission	0.003499	0.959239	0	1
367.344879	0.795909	city	4	1	0.698519	0.698519	0	1	0	0	CorrectCommission	0.416842	0.895668	0	1
368.140686	0.795694	city	9	1	0.648666	0.648666	0	1	0	0	CorrectCommission	0.003302	0.834041	0	1
368.936432	0.795799	city	5	1	0.599062	0.599062	0	1	0	0	CorrectCommission	0.421344	0.777618	0	1
369.732239	0.795803	mountain	5	0	0.000000	0.673408	1	0	0	0	CorrectOmission	0.205219	0.728458	0	1
370.528046	0.795802	city	3	1	0.760252	0.760252	0	1	0	0	CorrectCommission	0.937104	0.687243	0	1
371.323853	0.795806	city	4	1	0.748140	0.748140	0	1	0	0	CorrectCommission	0.835029	0.653286	1	1
372.119629	0.795796	city	1	1	0.648778	0.648778	0	1	0	0	CorrectCommission	0.002358	0.624860	1	1
372.915558	0.796022	city	4	1	0.601446	0.601446	0	1	0	0	CorrectCommission	0.401250	0.599641	1	1
373.711365	0.795583	city	9	1	0.512040	0.512040	0	1	0	0	CorrectCommission	1.154724	0.575194	1	1
374.507141	0.796020	city	1	1	0.517706	0.517706	0	1	0	0	CorrectCommission	1.106972	0.549436	1	1
375.302948	0.795581	city	10	1	0.499233	0.499233	0	1	0	0	CorrectCommission	1.262660	0.521015	1	1
376.098694	0.795913	city	7	1	0.602684	0.602684	0	1	0	0	CorrectCommission	0.390813	0.489482	1	1
376.894623	0.795918	city	3	1	0.599809	0.599809	0	1	0	0	CorrectCommission	0.415041	0.455305	1	1
377.690369	0.795578	city	5	1	0.614061	0.614061	0	1	0	0	CorrectCommission	0.294932	0.419712	1	1
378.486084	0.795851	city	9	1	0.658066	0.658066	0	1	0	0	CorrectCommission	0.075923	0.384408	1	1
379.281891	0.795751	city	7	1	0.658877	0.658877	0	1	0	0	CorrectCommission	0.082758	0.351232	1	1
380.077667	0.795799	city	10	1	0.599188	0.599188	0	1	0	0	CorrectCommission	0.420278	0.321842	1	1
380.873505	0.795911	city	1	1	0.653450	0.653450	0	1	0	0	CorrectCommission	0.037017	0.297483	1	1
381.669312	0.795722	city	9	1	0.654398	0.654398	0	1	0	0	CorrectCommission	0.045011	0.278797	1	1
382.465088	0.795776	city	3	1	0.652365	0.652365	0	1	0	0	CorrectCommission	0.027879	0.265810	1	1
383.260864	0.795799	city	2	1	0.611715	0.611715	0	1	0	0	CorrectCommission	0.314708	0.257988	1	1
384.056671	0.795803	city	8	1	0.649148	0.649148	0	1	0	0	CorrectCommission	0.000762	0.254408	1	1
384.852478	0.795800	city	2	1	0.698392	0.698392	0	1	0	0	CorrectCommission	0.415773	0.253953	1	1
385.648254	0.795806	city	6	1	0.702038	0.702038	0	1	0	0	CorrectCommission	0.446502	0.255535	1	1
386.444061	0.795803	mountain	9	1	0.698288	0.698288	0	0	1	0	CommissionError	0.414894	0.258304	1	1
387.239868	0.795798	city	8	1	0.716851	0.716851	0	1	0	0	CorrectCommission	0.571341	0.261795	1	1
388.035736	0.795909	city	10	1	0.648740	0.648740	0	1	0	0	CorrectCommission	0.002672	0.265977	1	1
388.831543	0.795696	mountain	6	0	0.000000	0.662805	1	0	0	0	CorrectOmission	0.115863	0.271278	1	1
389.627289	0.795799	city	7	1	0.699353	0.699353	0	1	0	0	CorrectCommission	0.423873	0.278479	1	1
390.423065	0.795805	city	3	1	0.698690	0.698690	0	1	0	0	CorrectCommission	0.418285	0.288582	1	1
391.218872	0.795797	city	1	1	0.648625	0.648625	0	1	0	0	CorrectCommission	0.003647	0.302625	1	1
392.014679	0.795824	city	9	1	0.648879	0.648879	0	1	0	0	CorrectCommission	0.001504	0.321519	1	1
392.810516	0.795831	city	8	1	0.613647	0.613647	0	1	0	0	CorrectCommission	0.298427	0.345861	1	1
393.606415	0.795967	city	10	1	0.600420	0.600420	0	1	0	0	CorrectCommission	0.409892	0.375805	1	1
394.402191	0.795583	city	9	1	0.648589	0.648589	0	1	0	0	CorrectCommission	0.003949	0.410980	1	1
395.197937	0.795912	city	5	1	0.601461	0.601461	0	1	0	0	CorrectCommission	0.401118	0.450453	1	1
395.993774	0.795746	city	7	1	0.699057	0.699057	0	1	0	0	CorrectCommission	0.421381	0.492752	1	1
396.789612	0.795967	city	10	1	0.598842	0.598842	0	1	0	0	CorrectCommission	0.423194	0.535997	1	1
397.585449	0.795691	city	8	1	0.548943	0.548943	0	1	0	0	CorrectCommission	0.843723	0.577983	1	1
398.381195	0.795770	city	2	1	0.549541	0.549541	0	1	0	0	CorrectCommission	0.838684	0.616389	1	1
399.176941	0.795724	city	7	1	0.549699	0.549699	0	1	0	0	CorrectCommission	0.837351	0.649011	1	1
399.972778	0.795967	city	3	1	0.698330	0.698330	0	1	0	0	CorrectCommission	0.415254	0.673953	0	1
400.768585	0.795640	city	8	1	0.747926	0.747926	0	1	0	0	CorrectCommission	0.833223	0.689849	0	1
401.564301	0.795801	city	1	1	0.802731	0.802731	0	1	0	0	CorrectCommission	1.295095	0.696001	0	1
402.360107	0.795799	city	10	0	0.000000	0.782318	0	0	0	1	OmissionError	1.123066	0.692499	0	1
403.156006	0.796018	city	8	1	0.748184	0.748184	0	1	0	0	CorrectCommission	0.835398	0.680281	0	1
403.951813	0.795584	city	1	1	0.761824	0.761824	0	1	0	0	CorrectCommission	0.950353	0.661061	1	1
404.747559	0.795912	city	8	1	0.599404	0.599404	0	1	0	0	CorrectCommission	0.418458	0.637151	1	1
405.543365	0.795709	city	5	1	0.748531	0.748531	0	1	0	0	CorrectCommission	0.838326	0.611253	1	1
406.339142	0.795821	city	6	0	0.000000	0.715163	0	0	0	1	OmissionError	0.557111	0.586131	1	1
407.134918	0.795765	city	2	1	0.648652	0.648652	0	1	0	0	CorrectCommission	0.003416	0.564340	1	1
407.930817	0.796021	city	6	1	0.698352	0.698352	0	1	0	0	CorrectCommission	0.415433	0.547932	1	1
408.726685	0.795693	city	3	1	0.648596	0.648596	0	1	0	0	CorrectCommission	0.003888	0.538236	1	1
409.522369	0.795709	city	8	1	0.605998	0.605998	0	1	0	0	CorrectCommission	0.362884	0.535831	1	1
410.318176	0.795892	city	7	1	0.648753	0.648753	0	1	0	0	CorrectCommission	0.002561	0.540497	1	1
411.113983	0.795702	city	10	1	0.599109	0.599109	0	1	0	0	CorrectCommission	0.420941	0.551384	1	1
411.909729	0.795795	city	3	1	0.865964	0.865964	0	1	0	0	CorrectCommission	1.827998	0.567225	1	1
412.705536	0.795804	city	1	1	0.699572	0.699572	0	1	0	0	CorrectCommission	0.425717	0.586519	1	1
413.501312	0.795797	city	2	1	0.648610	0.648610	0	1	0	0	CorrectCommission	0.003769	0.607883	1	1
414.297119	0.795805	city	8	1	0.554693	0.554693	0	1	0	0	CorrectCommission	0.795261	0.630153	1	1
415.092926	0.795800	city	3	1	0.549190	0.549190	0	1	0	0	CorrectCommission	0.841638	0.652482	1	1
415.888824	0.796018	city	2	1	0.500395	0.500395	0	1	0	0	CorrectCommission	1.252864	0.674404	0	1
416.684753	0.795802	city	7	1	0.598655	0.598655	0	1	0	0	CorrectCommission	0.424767	0.695747	0	1
417.480560	0.795801	city	4	1	0.648839	0.648839	0	1	0	0	CorrectCommission	0.001838	0.716573	0	1
418.276245	0.795584	mountain	8	0	0.000000	0.731661	1	0	0	0	CorrectOmission	0.696152	0.736972	0	1
419.071991	0.795911	city	2	1	0.797881	0.797881	0	1	0	0	CorrectCommission	1.254226	0.756909	0	1
419.867828	0.795776	city	3	1	0.798258	0.798258	0	1	0	0	CorrectCommission	1.257405	0.776140	0	1
420.663574	0.795720	city	10	1	0.701373	0.701373	0	1	0	0	CorrectCommission	0.440899	0.794112	0	1
421.459381	0.795909	mountain	7	0	0.000000	0.716833	1	0	0	0	CorrectOmission	0.571189	0.809950	0	1
422.255249	0.795800	city	5	1	0.748000	0.748000	0	1	0	0	CorrectCommission	0.833852	0.822484	0	1
423.051117	0.795911	city	9	1	0.698237	0.698237	0	1	0	0	CorrectCommission	0.414465	0.830400	0	1
423.846863	0.795586	city	4	1	0.669526	0.669526	0	1	0	0	CorrectCommission	0.172503	0.832475	0	1
424.642548	0.795800	city	2	1	0.897921	0.897921	0	1	0	0	CorrectCommission	2.097318	0.827832	0	1
425.438446	0.796019	city	9	1	0.848191	0.848191	0	1	0	0	CorrectCommission	1.678219	0.816132	0	1
426.234253	0.795586	city	5	1	0.765023	0.765023	0	1	0	0	CorrectCommission	0.977310	0.797877	0	0
427.030060	0.796017	city	1	1	0.847587	0.847587	0	1	0	0	CorrectCommission	1.673127	0.774440	0	0
427.825958	0.795802	city	2	1	0.648825	0.648825	0	1	0	0	CorrectCommission	0.001954	0.748000	0	0
428.621674	0.795586	city	1	1	0.598898	0.598898	0	1	0	0	CorrectCommission	0.422724	0.721396	0	0
429.417358	0.795798	city	6	1	0.599395	0.599395	0	1	0	0	CorrectCommission	0.418534	0.697711	0	0
430.213165	0.795806	city	8	1	0.598961	0.598961	0	1	0	0	CorrectCommission	0.422192	0.679983	0	0
431.009064	0.796015	city	10	1	0.599182	0.599182	0	1	0	0	CorrectCommission	0.420326	0.670797	0	0
431.804932	0.795695	mountain	10	0	0.000000	0.684660	1	0	0	0	CorrectOmission	0.300041	0.671945	0	0
432.600616	0.795704	city	3	1	0.752130	0.752130	0	1	0	0	CorrectCommission	0.868651	0.684192	0	0
433.396484	0.796008	city	7	1	0.698329	0.698329	0	1	0	0	CorrectCommission	0.415245	0.707129	0	0
434.192291	0.795631	city	10	1	0.648547	0.648547	0	1	0	0	CorrectCommission	0.004300	0.739192	0	0
434.987976	0.795752	city	3	1	0.549833	0.549833	0	1	0	0	CorrectCommission	0.836219	0.777766	0	0
435.783875	0.796020	city	2	1	0.563981	0.563981	0	1	0	0	CorrectCommission	0.716988	0.819371	0	0
436.579712	0.795636	city	9	1	0.548966	0.548966	0	1	0	0	CorrectCommission	0.843525	0.860044	0	0
437.375397	0.795750	city	2	1	0.551354	0.551354	0	1	0	0	CorrectCommission	0.823400	0.895715	0	0
438.171234	0.795911	city	10	1	0.468188	0.468188	0	1	0	0	CorrectCommission	1.524295	0.922657	0	0
438.967041	0.795692	city	6	1	0.450090	0.450090	0	1	0	0	CorrectCommission	1.676816	0.937877	0	0
439.762787	0.795814	mountain	5	1	0.451873	0.451873	0	0	1	0	CommissionError	1.661791	0.939484	0	0
440.558594	0.795791	mountain	2	1	0.499411	0.499411	0	0	1	0	CommissionError	1.261160	0.926881	0	0
441.354431	0.795908	city	8	1	0.549149	0.549149	0	1	0	0	CorrectCommission	0.841986	0.900893	0	0
442.150269	0.795742	city	7	1	0.552159	0.552159	0	1	0	0	CorrectCommission	0.816623	0.863621	0	0
442.946045	0.795860	city	5	1	0.508533	0.508533	0	1	0	0	CorrectCommission	1.184284	0.818296	0	0
443.741852	0.795706	city	9	1	0.549167	0.549167	0	1	0	0	CorrectCommission	0.841835	0.768948	0	0
444.537598	0.795790	city	2	1	0.549379	0.549379	0	1	0	0	CorrectCommission	0.840052	0.720027	0	0
445.333374	0.795802	city	1	1	0.601261	0.601261	0	1	0	0	CorrectCommission	0.402804	0.676024	0	0
446.129242	0.795910	mountain	5	0	0.000000	0.637206	1	0	0	0	CorrectOmission	0.099879	0.641101	1	0
446.925049	0.795695	city	10	1	0.657487	0.657487	0	1	0	0	CorrectCommission	0.071043	0.618807	1	0
447.720795	0.795796	city	3	1	0.662381	0.662381	0	1	0	0	CorrectCommission	0.112283	0.611931	1	0
448.516632	0.795865	city	6	1	0.698432	0.698432	0	1	0	0	CorrectCommission	0.416107	0.622416	1	0
449.312531	0.795958	city	2	1	0.649025	0.649025	0	1	0	0	CorrectCommission	0.000275	0.651371	1	0
450.108307	0.795582	city	6	1	0.698159	0.698159	0	1	0	0	CorrectCommission	0.413811	0.699156	0	0
450.903992	0.795801	city	5	1	0.557064	0.557064	0	1	0	0	CorrectCommission	0.775283	0.765433	0	0
451.699799	0.795810	city	8	1	0.516137	0.516137	0	1	0	0	CorrectCommission	1.120198	0.849197	0	0
452.495728	0.796014	city	1	1	0.499447	0.499447	0	1	0	0	CorrectCommission	1.260855	0.948730	0	0
453.291534	0.795600	city	8	1	0.549261	0.549261	0	1	0	0	CorrectCommission	0.841045	1.061476	0	0
454.087219	0.795786	city	3	1	0.550048	0.550048	0	1	0	0	CorrectCommission	0.834407	1.183893	0	0
454.883118	0.796017	city	8	1	0.508684	0.508684	0	1	0	0	CorrectCommission	1.183010	1.311309	0	0
455.678925	0.795586	city	9	1	0.649588	0.649588	0	1	0	0	CorrectCommission	0.004475	1.437940	0	0
456.474609	0.795802	city	2	1	0.748617	0.748617	0	1	0	0	CorrectCommission	0.839047	1.557180	0	0
457.270477	0.795908	city	1	1	0.750660	0.750660	0	1	0	0	CorrectCommission	0.856264	1.662043	0	0
458.066254	0.795691	city	5	1	0.997611	0.997611	0	1	0	0	CorrectCommission	2.937465	1.745958	0	0
458.862000	0.795805	city	9	0	0.000000	1.141020	0	0	0	1	OmissionError	4.146059	1.803522	0	0
459.657806	0.795800	city	6	0	0.000000	1.175645	0	0	0	1	OmissionError	4.437864	1.831301	0	0
460.453644	0.795857	city	5	1	1.096243	1.096243	0	1	0	0	CorrectCommission	3.768701	1.828311	0	0
461.249512	0.795856	city	3	1	0.897573	0.897573	0	1	0	0	CorrectCommission	2.094390	1.796134	0	0
462.045288	0.795691	city	6	1	0.698241	0.698241	0	1	0	0	CorrectCommission	0.414503	1.738589	0	0
462.841034	0.795806	city	7	1	0.503210	0.503210	0	1	0	0	CorrectCommission	1.229143	1.661087	0	0
463.636932	0.796016	city	3	1	0.499927	0.499927	0	1	0	0	CorrectCommission	1.256811	1.569699	0	0
464.432831	0.795803	city	9	1	0.548912	0.548912	0	1	0	0	CorrectCommission	0.843980	1.470350	0	0
465.228638	0.795801	city	4	1	0.500099	0.500099	0	1	0	0	CorrectCommission	1.255361	1.368093	0	0
466.024323	0.795582	city	6	1	0.797624	0.797624	0	1	0	0	CorrectCommission	1.252058	1.266672	0	0
466.820038	0.795801	mountain	10	1	0.598874	0.598874	0	0	1	0	CommissionError	0.422921	1.168454	0	0
467.615845	0.795863	city	1	1	0.798522	0.798522	0	1	0	0	CorrectCommission	1.259623	1.074619	0	0
468.411774	0.795961	city	6	1	0.798130	0.798130	0	1	0	0	CorrectCommission	1.256326	0.985486	0	0
469.207642	0.795801	city	8	1	0.457057	0.457057	0	1	0	0	CorrectCommission	1.618098	0.901029	0	0
470.003357	0.795622	city	1	1	0.499382	0.499382	0	1	0	0	CorrectCommission	1.261406	0.821238	0	0
470.799164	0.795981	city	7	1	0.549135	0.549135	0	1	0	0	CorrectCommission	0.842106	0.746413	0	0
471.595062	0.795801	city	4	1	0.612727	0.612727	0	1	0	0	CorrectCommission	0.306180	0.677223	0	0
472.390747	0.795586	city	9	1	0.648392	0.648392	0	1	0	0	CorrectCommission	0.005606	0.614597	1	0
473.186432	0.795802	city	10	1	0.613607	0.613607	0	1	0	0	CorrectCommission	0.298762	0.559534	1	0
473.982239	0.795805	city	4	1	0.658056	0.658056	0	1	0	0	CorrectCommission	0.075838	0.512794	1	0
474.778046	0.795795	city	7	1	0.648938	0.648938	0	1	0	0	CorrectCommission	0.001005	0.474737	1	0
475.573914	0.795910	city	6	1	0.698399	0.698399	0	1	0	0	CorrectCommission	0.415827	0.445155	1	0
476.369690	0.795699	city	9	1	0.698233	0.698233	0	1	0	0	CorrectCommission	0.414429	0.423305	1	0
477.165497	0.795905	city	1	1	0.657788	0.657788	0	1	0	0	CorrectCommission	0.073579	0.408075	1	0
477.961365	0.795803	city	10	1	0.755535	0.755535	0	1	0	0	CorrectCommission	0.897353	0.398197	1	0
478.757111	0.795694	city	6	1	0.755249	0.755249	0	1	0	0	CorrectCommission	0.894938	0.392453	1	0
479.552856	0.795800	mountain	1	0	0.000000	0.707885	1	0	0	0	CorrectOmission	0.495774	0.389906	1	0
480.348663	0.795805	city	6	1	0.649295	0.649295	0	1	0	0	CorrectCommission	0.002000	0.389964	1	0
481.144501	0.795882	city	2	1	0.615329	0.615329	0	1	0	0	CorrectCommission	0.284247	0.392409	1	0
481.940308	0.795719	city	6	1	0.602607	0.602607	0	1	0	0	CorrectCommission	0.391465	0.397288	1	0
482.736084	0.795819	city	4	1	0.598943	0.598943	0	1	0	0	CorrectCommission	0.422343	0.404775	1	0
483.531860	0.795785	city	10	1	0.648780	0.648780	0	1	0	0	CorrectCommission	0.002339	0.415015	1	0
484.327667	0.795819	mountain	10	1	0.598883	0.598883	0	0	1	0	CommissionError	0.422846	0.427992	1	0
485.123535	0.795890	city	7	1	0.603569	0.603569	0	1	0	0	CorrectCommission	0.383357	0.443386	1	0
485.919373	0.795804	city	5	1	0.698241	0.698241	0	1	0	0	CorrectCommission	0.414501	0.460605	1	0
486.715240	0.795910	city	6	1	0.705871	0.705871	0	1	0	0	CorrectCommission	0.478806	0.478806	1	0
