onset	duration	trial_type	image_type	Press	ReactionTime	ReactionTime_Interpolated	CorrectOmission	CorrectCommission	CommissionError	OmissionError	response_type	nonsmoothVarianceTimeCourse	VarianceTimeCourse	In_the_Zone	Reward_trial
8.433735	0.792265	mountain	6	1	0.596212	0.596212	0	0	1	0	CommissionError	1.282243	1.282243	0	1
9.226001	0.792266	city	2	1	0.695243	0.695243	0	1	0	0	CorrectCommission	0.127581	1.161201	0	1
10.018319	0.792371	city	4	1	0.704477	0.704477	0	1	0	0	CorrectCommission	0.259040	1.045188	0	1
10.810693	0.792375	city	9	1	0.645791	0.645791	0	1	0	0	CorrectCommission	0.576425	0.938785	0	1
11.603012	0.792263	city	7	1	0.744577	0.744577	0	1	0	0	CorrectCommission	0.829922	0.845806	0	1
12.395211	0.792136	city	8	1	0.645696	0.645696	0	1	0	0	CorrectCommission	0.577781	0.769049	0	1
13.187476	0.792394	city	9	1	0.645677	0.645677	0	1	0	0	CorrectCommission	0.578049	0.710114	1	1
13.979698	0.792050	city	10	1	0.701677	0.701677	0	1	0	0	CorrectCommission	0.219185	0.669345	1	1
14.771854	0.792263	city	2	1	0.695646	0.695646	0	1	0	0	CorrectCommission	0.133321	0.645922	1	1
15.564226	0.792481	city	10	1	0.702529	0.702529	0	1	0	0	CorrectCommission	0.231317	0.638024	1	1
16.356493	0.792050	city	5	1	0.695529	0.695529	0	1	0	0	CorrectCommission	0.131661	0.643058	1	1
17.148647	0.792261	city	1	1	0.702219	0.702219	0	1	0	0	CorrectCommission	0.226898	0.657969	1	1
17.940912	0.792270	mountain	3	0	0.000000	0.779506	1	0	0	0	CorrectOmission	1.327175	0.679578	1	1
18.733179	0.792264	city	2	1	0.794293	0.794293	0	1	0	0	CorrectCommission	1.537688	0.704900	1	1
19.525497	0.792371	city	3	1	0.613483	0.613483	0	1	0	0	CorrectCommission	1.036369	0.731379	0	1
20.317759	0.792154	city	8	1	0.645670	0.645670	0	1	0	0	CorrectCommission	0.578146	0.757061	0	1
21.109972	0.792269	city	4	1	0.652737	0.652737	0	1	0	0	CorrectCommission	0.477543	0.780633	0	1
21.902235	0.792260	city	1	1	0.606185	0.606185	0	1	0	0	CorrectCommission	1.140270	0.801339	0	1
22.694498	0.792265	city	4	1	0.653382	0.653382	0	1	0	0	CorrectCommission	0.468363	0.818862	0	1
23.486765	0.792269	city	3	1	0.646563	0.646563	0	1	0	0	CorrectCommission	0.565432	0.833199	0	1
24.279087	0.792376	city	8	1	0.596841	0.596841	0	1	0	0	CorrectCommission	1.273293	0.844474	0	1
25.071459	0.792370	city	2	1	0.603211	0.603211	0	1	0	0	CorrectCommission	1.182599	0.852823	0	1
25.863722	0.792156	city	8	1	0.650151	0.650151	0	1	0	0	CorrectCommission	0.514350	0.858364	0	1
26.655933	0.792265	city	3	1	0.645954	0.645954	0	1	0	0	CorrectCommission	0.574105	0.861177	0	1
27.448143	0.792154	city	1	1	0.597293	0.597293	0	1	0	0	CorrectCommission	1.266856	0.861248	0	1
28.240353	0.792268	city	6	1	0.597911	0.597911	0	1	0	0	CorrectCommission	1.258051	0.858490	0	1
29.032726	0.792481	mountain	2	0	0.000000	0.630016	1	0	0	0	CorrectOmission	0.801006	0.852800	0	1
29.825100	0.792264	city	6	1	0.645446	0.645446	0	1	0	0	CorrectCommission	0.581332	0.844053	0	1
30.617256	0.792048	city	5	1	0.596044	0.596044	0	1	0	0	CorrectCommission	1.284637	0.832133	0	1
31.409424	0.792289	mountain	3	1	0.648340	0.648340	0	0	1	0	CommissionError	0.540134	0.816917	0	1
32.201706	0.792274	city	3	1	0.657766	0.657766	0	1	0	0	CorrectCommission	0.405945	0.798382	0	1
32.993958	0.792234	city	5	1	0.648098	0.648098	0	1	0	0	CorrectCommission	0.543588	0.776606	0	1
33.786263	0.792370	city	6	1	0.551398	0.551398	0	1	0	0	CorrectCommission	1.920233	0.751856	0	1
34.578632	0.792375	city	5	1	0.645822	0.645822	0	1	0	0	CorrectCommission	0.575978	0.724632	1	1
35.370846	0.792045	city	7	1	0.645609	0.645609	0	1	0	0	CorrectCommission	0.579009	0.695792	1	1
36.162998	0.792266	city	4	1	0.751093	0.751093	0	1	0	0	CorrectCommission	0.922683	0.666481	1	1
36.955265	0.792264	city	8	1	0.645803	0.645803	0	1	0	0	CorrectCommission	0.576258	0.638114	1	1
37.747543	0.792291	city	7	1	0.646049	0.646049	0	1	0	0	CorrectCommission	0.572746	0.612289	1	1
38.539825	0.792276	city	2	1	0.645792	0.645792	0	1	0	0	CorrectCommission	0.576406	0.590594	1	1
39.332188	0.792445	mountain	4	0	0.000000	0.674728	1	0	0	0	CorrectOmission	0.164470	0.574395	1	1
40.124458	0.792096	city	5	1	0.701632	0.701632	0	1	0	0	CorrectCommission	0.218536	0.564696	1	1
40.916649	0.792287	city	3	1	0.695278	0.695278	0	1	0	0	CorrectCommission	0.128089	0.561948	1	1
41.708889	0.792192	city	4	1	0.744885	0.744885	0	1	0	0	CorrectCommission	0.834296	0.565967	1	1
42.501125	0.792281	city	8	1	0.645760	0.645760	0	1	0	0	CorrectCommission	0.576873	0.575928	1	1
43.293411	0.792291	city	1	1	0.695753	0.695753	0	1	0	0	CorrectCommission	0.134839	0.590478	1	1
44.085720	0.792332	city	2	1	0.750203	0.750203	0	1	0	0	CorrectCommission	0.910015	0.607865	1	1
44.877975	0.792177	city	3	1	0.695176	0.695176	0	1	0	0	CorrectCommission	0.126626	0.626112	1	1
45.670223	0.792316	city	10	1	0.611955	0.611955	0	1	0	0	CorrectCommission	1.058128	0.643327	1	1
46.462475	0.792191	city	5	1	0.645963	0.645963	0	1	0	0	CorrectCommission	0.573982	0.657842	1	1
47.254711	0.792279	city	8	1	0.607394	0.607394	0	1	0	0	CorrectCommission	1.123053	0.668494	1	1
48.047031	0.792362	city	9	1	0.596817	0.596817	0	1	0	0	CorrectCommission	1.273629	0.674633	1	1
48.839291	0.792156	city	3	1	0.614993	0.614993	0	1	0	0	CorrectCommission	1.014870	0.676207	1	1
49.631554	0.792372	city	2	1	0.645798	0.645798	0	1	0	0	CorrectCommission	0.576328	0.673705	1	1
50.423817	0.792154	city	8	1	0.646108	0.646108	0	1	0	0	CorrectCommission	0.571914	0.668006	1	1
51.216030	0.792267	mountain	1	0	0.000000	0.680621	1	0	0	0	CorrectOmission	0.080582	0.660185	1	1
52.008404	0.792481	city	1	1	0.697686	0.697686	0	1	0	0	CorrectCommission	0.162358	0.651428	1	1
52.800667	0.792046	city	7	1	0.645652	0.645652	0	1	0	0	CorrectCommission	0.578401	0.642863	1	1
53.592876	0.792374	city	2	1	0.603411	0.603411	0	1	0	0	CorrectCommission	1.179764	0.635521	1	1
54.385250	0.792375	city	8	1	0.645552	0.645552	0	1	0	0	CorrectCommission	0.579824	0.630343	1	1
55.177517	0.792155	city	7	1	0.600766	0.600766	0	1	0	0	CorrectCommission	1.217412	0.628204	1	1
55.969673	0.792156	city	4	1	0.645892	0.645892	0	1	0	0	CorrectCommission	0.574988	0.629872	1	1
56.761902	0.792304	city	6	1	0.659256	0.659256	0	1	0	0	CorrectCommission	0.384734	0.636002	1	1
57.554184	0.792255	city	4	1	0.657337	0.657337	0	1	0	0	CorrectCommission	0.412059	0.647013	1	1
58.346535	0.792452	city	6	1	0.663943	0.663943	0	1	0	0	CorrectCommission	0.318009	0.662995	1	1
59.138786	0.792051	city	5	1	0.695075	0.695075	0	1	0	0	CorrectCommission	0.125196	0.683597	1	1
59.930946	0.792264	city	4	1	0.663925	0.663925	0	1	0	0	CorrectCommission	0.318258	0.707994	1	1
60.723263	0.792370	city	8	1	0.596589	0.596589	0	1	0	0	CorrectCommission	1.276872	0.734893	0	1
61.515636	0.792374	city	4	1	0.646300	0.646300	0	1	0	0	CorrectCommission	0.569181	0.762602	0	1
62.307953	0.792264	city	9	1	0.557935	0.557935	0	1	0	0	CorrectCommission	1.827163	0.789251	0	1
63.100124	0.792076	city	2	1	0.645558	0.645558	0	1	0	0	CorrectCommission	0.579748	0.812867	0	1
63.892284	0.792242	city	3	1	0.695208	0.695208	0	1	0	0	CorrectCommission	0.127093	0.831699	0	1
64.684532	0.792257	city	1	1	0.596222	0.596222	0	1	0	0	CorrectCommission	1.282096	0.844317	0	1
65.476791	0.792263	city	7	1	0.605604	0.605604	0	1	0	0	CorrectCommission	1.148535	0.849752	0	1
66.269058	0.792272	city	1	1	0.599774	0.599774	0	1	0	0	CorrectCommission	1.231540	0.847661	0	1
67.061325	0.792259	city	3	1	0.794790	0.794790	0	1	0	0	CorrectCommission	1.544761	0.838331	0	1
67.853592	0.792264	city	5	1	0.645843	0.645843	0	1	0	0	CorrectCommission	0.575683	0.822664	0	0
68.645958	0.792483	city	9	1	0.645758	0.645758	0	1	0	0	CorrectCommission	0.576895	0.802131	0	0
69.438255	0.792111	city	10	1	0.645534	0.645534	0	1	0	0	CorrectCommission	0.580085	0.778609	0	0
70.230415	0.792200	city	1	1	0.647056	0.647056	0	1	0	0	CorrectCommission	0.558418	0.754240	0	0
71.022697	0.792373	city	8	1	0.603070	0.603070	0	1	0	0	CorrectCommission	1.184611	0.731219	0	0
71.814980	0.792191	mountain	6	0	0.000000	0.626397	1	0	0	0	CorrectOmission	0.852520	0.711616	1	0
72.607231	0.792313	city	9	1	0.659710	0.659710	0	1	0	0	CorrectCommission	0.378266	0.697189	1	0
73.399536	0.792290	city	10	1	0.645682	0.645682	0	1	0	0	CorrectCommission	0.577973	0.689219	1	0
74.191757	0.792156	city	2	1	0.659637	0.659637	0	1	0	0	CorrectCommission	0.379306	0.688327	1	0
74.983971	0.792265	city	8	1	0.706862	0.706862	0	1	0	0	CorrectCommission	0.292992	0.694430	1	0
75.776237	0.792267	city	5	1	0.695393	0.695393	0	1	0	0	CorrectCommission	0.129725	0.706688	1	0
76.568504	0.792267	mountain	8	0	0.000000	0.740709	1	0	0	0	CorrectOmission	0.774853	0.723620	1	0
77.360779	0.792289	city	8	1	0.753814	0.753814	0	1	0	0	CorrectCommission	0.961420	0.743264	0	0
78.153152	0.792453	city	7	1	0.645713	0.645713	0	1	0	0	CorrectCommission	0.577530	0.763426	0	0
78.945457	0.792157	city	3	1	0.609545	0.609545	0	1	0	0	CorrectCommission	1.092431	0.782046	0	0
79.737617	0.792160	city	2	1	0.597468	0.597468	0	1	0	0	CorrectCommission	1.264362	0.797401	0	0
80.529877	0.792372	city	7	1	0.601060	0.601060	0	1	0	0	CorrectCommission	1.213222	0.808417	0	0
81.322197	0.792263	city	6	1	0.596868	0.596868	0	1	0	0	CorrectCommission	1.272899	0.814799	0	0
82.114464	0.792264	city	3	1	0.645852	0.645852	0	1	0	0	CorrectCommission	0.575556	0.816994	0	0
82.906670	0.792157	city	2	1	0.645624	0.645624	0	1	0	0	CorrectCommission	0.578808	0.816131	0	0
83.698914	0.792334	city	8	1	0.654991	0.654991	0	1	0	0	CorrectCommission	0.445455	0.813796	0	0
84.491180	0.792196	mountain	10	0	0.000000	0.750992	1	0	0	0	CorrectOmission	0.921243	0.811773	0	0
85.283417	0.792270	city	6	1	0.794453	0.794453	0	1	0	0	CorrectCommission	1.539962	0.811777	0	0
86.075691	0.792290	city	5	1	0.646198	0.646198	0	1	0	0	CorrectCommission	0.570625	0.815186	0	0
86.867958	0.792232	city	2	1	0.695269	0.695269	0	1	0	0	CorrectCommission	0.127962	0.822876	0	0
87.660202	0.792266	city	4	1	0.695758	0.695758	0	1	0	0	CorrectCommission	0.134921	0.835053	0	0
88.452522	0.792375	city	7	1	0.744776	0.744776	0	1	0	0	CorrectCommission	0.832756	0.851213	0	0
89.244789	0.792155	city	2	1	0.645701	0.645701	0	1	0	0	CorrectCommission	0.577707	0.870226	0	0
90.037003	0.792264	city	3	1	0.796875	0.796875	0	1	0	0	CorrectCommission	1.574444	0.890504	0	0
90.829262	0.792263	city	5	1	0.615604	0.615604	0	1	0	0	CorrectCommission	1.006176	0.910161	0	0
91.621529	0.792266	city	6	1	0.596384	0.596384	0	1	0	0	CorrectCommission	1.279802	0.927267	0	0
92.413811	0.792299	city	7	1	0.565280	0.565280	0	1	0	0	CorrectCommission	1.722594	0.939965	0	0
93.206184	0.792447	city	1	1	0.652157	0.652157	0	1	0	0	CorrectCommission	0.485803	0.946664	0	0
93.998459	0.792106	city	3	1	0.744550	0.744550	0	1	0	0	CorrectCommission	0.829536	0.946136	0	0
94.790726	0.792423	city	1	1	0.659298	0.659298	0	1	0	0	CorrectCommission	0.384138	0.937552	0	0
95.582985	0.792101	city	2	1	0.645513	0.645513	0	1	0	0	CorrectCommission	0.580390	0.920603	0	0
96.375145	0.792211	city	5	1	0.556091	0.556091	0	1	0	0	CorrectCommission	1.853409	0.895517	0	0
97.167381	0.792268	city	8	1	0.562432	0.562432	0	1	0	0	CorrectCommission	1.763148	0.863116	0	0
97.959648	0.792261	city	1	1	0.603044	0.603044	0	1	0	0	CorrectCommission	1.184983	0.824820	0	0
98.751968	0.792374	city	10	1	0.603884	0.603884	0	1	0	0	CorrectCommission	1.173026	0.782550	0	0
99.544281	0.792266	city	7	1	0.706568	0.706568	0	1	0	0	CorrectCommission	0.288808	0.738557	0	0
100.336494	0.792156	city	4	1	0.695261	0.695261	0	1	0	0	CorrectCommission	0.127848	0.695189	1	0
101.128708	0.792272	city	1	1	0.695279	0.695279	0	1	0	0	CorrectCommission	0.128092	0.654610	1	0
101.921082	0.792475	city	6	1	0.646211	0.646211	0	1	0	0	CorrectCommission	0.570449	0.618527	1	0
102.713455	0.792263	city	2	1	0.646007	0.646007	0	1	0	0	CorrectCommission	0.573349	0.588027	1	0
103.505608	0.792050	city	7	1	0.695030	0.695030	0	1	0	0	CorrectCommission	0.124559	0.563536	1	0
104.297821	0.792372	mountain	10	0	0.000000	0.718143	1	0	0	0	CorrectOmission	0.453592	0.544891	1	0
105.090080	0.792156	city	4	1	0.695598	0.695598	0	1	0	0	CorrectCommission	0.132633	0.531431	1	0
105.882347	0.792374	city	9	1	0.607648	0.607648	0	1	0	0	CorrectCommission	1.119432	0.522275	1	0
106.674644	0.792213	city	1	1	0.600017	0.600017	0	1	0	0	CorrectCommission	1.228078	0.516542	1	0
107.466866	0.792241	city	10	1	0.695183	0.695183	0	1	0	0	CorrectCommission	0.126731	0.513508	1	0
108.259109	0.792235	city	7	1	0.745247	0.745247	0	1	0	0	CorrectCommission	0.839461	0.512823	1	0
109.051353	0.792262	city	8	1	0.695559	0.695559	0	1	0	0	CorrectCommission	0.132090	0.514455	1	0
109.843727	0.792480	city	5	1	0.664326	0.664326	0	1	0	0	CorrectCommission	0.312558	0.518724	1	0
110.636047	0.792155	city	2	1	0.695048	0.695048	0	1	0	0	CorrectCommission	0.124809	0.526257	1	0
111.428200	0.792160	city	10	1	0.695661	0.695661	0	1	0	0	CorrectCommission	0.133543	0.537742	1	0
112.220413	0.792263	city	4	1	0.794280	0.794280	0	1	0	0	CorrectCommission	1.537498	0.553867	1	0
113.012711	0.792339	city	10	1	0.646437	0.646437	0	1	0	0	CorrectCommission	0.567226	0.575153	1	0
113.804977	0.792190	city	9	1	0.695182	0.695182	0	1	0	0	CorrectCommission	0.126715	0.601888	1	0
114.597313	0.792483	city	7	1	0.652632	0.652632	0	1	0	0	CorrectCommission	0.479041	0.633991	1	0
115.389580	0.792046	city	6	1	0.659874	0.659874	0	1	0	0	CorrectCommission	0.375934	0.670933	1	0
116.181847	0.792481	city	1	1	0.611865	0.611865	0	1	0	0	CorrectCommission	1.059406	0.711718	1	0
116.974106	0.792051	city	7	1	0.695204	0.695204	0	1	0	0	CorrectCommission	0.127025	0.754871	0	0
117.766266	0.792264	city	1	1	0.645760	0.645760	0	1	0	0	CorrectCommission	0.576867	0.798533	0	0
118.558548	0.792291	city	8	1	0.645924	0.645924	0	1	0	0	CorrectCommission	0.574539	0.840542	0	0
119.350807	0.792234	city	7	1	0.546750	0.546750	0	1	0	0	CorrectCommission	1.986397	0.878634	0	0
120.143059	0.792267	mountain	7	0	0.000000	0.642888	1	0	0	0	CorrectOmission	0.617759	0.910620	0	0
120.935326	0.792266	mountain	8	0	0.000000	0.793572	1	0	0	0	CorrectOmission	1.527420	0.934655	0	0
121.727592	0.792263	city	3	1	0.858039	0.858039	0	1	0	0	CorrectCommission	2.445188	0.949291	0	0
122.519936	0.792426	city	1	1	0.695524	0.695524	0	1	0	0	CorrectCommission	0.131591	0.953636	0	0
123.312309	0.792320	city	2	1	0.660507	0.660507	0	1	0	0	CorrectCommission	0.366922	0.947483	0	0
124.104492	0.792046	city	9	1	0.695154	0.695154	0	1	0	0	CorrectCommission	0.126324	0.931215	0	0
124.896645	0.792264	city	1	1	0.645668	0.645668	0	1	0	0	CorrectCommission	0.578182	0.905890	0	0
125.689018	0.792483	city	3	1	0.992376	0.992376	0	1	0	0	CorrectCommission	4.357643	0.873161	0	0
126.481285	0.792053	city	7	1	0.744698	0.744698	0	1	0	0	CorrectCommission	0.831632	0.835152	0	0
127.273445	0.792259	mountain	2	0	0.000000	0.682414	1	0	0	0	CorrectOmission	0.055054	0.794432	0	1
128.065811	0.792482	city	5	1	0.700870	0.700870	0	1	0	0	CorrectCommission	0.207693	0.753683	0	1
128.858139	0.792155	city	8	1	0.695412	0.695412	0	1	0	0	CorrectCommission	0.129985	0.715503	1	1
129.650284	0.792156	city	6	1	0.714597	0.714597	0	1	0	0	CorrectCommission	0.403112	0.682139	1	1
130.442551	0.792374	city	2	1	0.695560	0.695560	0	1	0	0	CorrectCommission	0.132105	0.655394	1	1
131.234833	0.792172	city	8	1	0.645652	0.645652	0	1	0	0	CorrectCommission	0.578409	0.636519	1	1
132.027145	0.792468	city	6	1	0.608023	0.608023	0	1	0	0	CorrectCommission	1.114105	0.626221	1	1
132.819412	0.792074	city	4	1	0.645707	0.645707	0	1	0	0	CorrectCommission	0.577619	0.624753	1	1
133.611633	0.792346	city	6	1	0.646316	0.646316	0	1	0	0	CorrectCommission	0.568958	0.632013	1	1
134.403885	0.792158	mountain	7	0	0.000000	0.712472	1	0	0	0	CorrectOmission	0.372859	0.647641	1	1
135.196136	0.792372	city	6	1	0.745292	0.745292	0	1	0	0	CorrectCommission	0.840092	0.671043	1	1
135.988434	0.792209	city	7	1	0.645891	0.645891	0	1	0	0	CorrectCommission	0.575000	0.701389	1	1
136.780670	0.792259	city	6	1	0.646480	0.646480	0	1	0	0	CorrectCommission	0.566611	0.737586	0	1
137.572906	0.792217	mountain	5	0	0.000000	0.713091	1	0	0	0	CorrectOmission	0.381672	0.778263	0	1
138.365189	0.792356	city	6	1	0.748630	0.748630	0	1	0	0	CorrectCommission	0.887611	0.821732	0	1
139.157455	0.792175	city	5	1	0.656004	0.656004	0	1	0	0	CorrectCommission	0.431030	0.866004	0	1
139.949783	0.792481	mountain	4	0	0.000000	0.693347	1	0	0	0	CorrectOmission	0.100596	0.909024	0	1
140.742157	0.792264	city	7	1	0.794457	0.794457	0	1	0	0	CorrectCommission	1.540021	0.948764	0	1
141.534317	0.792047	city	2	1	0.893132	0.893132	0	1	0	0	CorrectCommission	2.944778	0.983429	0	1
142.326584	0.792482	city	3	1	0.652404	0.652404	0	1	0	0	CorrectCommission	0.482280	1.011658	0	1
143.118851	0.792050	city	1	1	0.596059	0.596059	0	1	0	0	CorrectCommission	1.284428	1.032634	0	1
143.911026	0.792310	city	10	1	0.546869	0.546869	0	1	0	0	CorrectCommission	1.984702	1.046081	0	1
144.703308	0.792250	city	7	1	0.695326	0.695326	0	1	0	0	CorrectCommission	0.128770	1.052189	0	1
145.495651	0.792448	mountain	5	0	0.000000	0.744182	1	0	0	0	CorrectOmission	0.824292	1.051497	0	1
146.287964	0.792158	city	4	1	0.707137	0.707137	0	1	0	0	CorrectCommission	0.296918	1.044788	0	1
147.080109	0.792156	city	7	1	0.597894	0.597894	0	1	0	0	CorrectCommission	1.258301	1.032937	0	1
147.872330	0.792267	city	8	1	0.547281	0.547281	0	1	0	0	CorrectCommission	1.978842	1.016860	0	1
148.664673	0.792424	city	1	1	0.596213	0.596213	0	1	0	0	CorrectCommission	1.282232	0.997684	0	1
149.456940	0.792105	city	8	1	0.596070	0.596070	0	1	0	0	CorrectCommission	1.284268	0.976773	0	1
150.249222	0.792479	city	4	1	0.646096	0.646096	0	1	0	0	CorrectCommission	0.572083	0.955834	0	1
151.041550	0.792157	city	8	1	0.695092	0.695092	0	1	0	0	CorrectCommission	0.125439	0.936993	0	1
151.833694	0.792158	city	9	1	0.760434	0.760434	0	1	0	0	CorrectCommission	1.055661	0.922762	0	1
152.625931	0.792313	city	4	1	0.796319	0.796319	0	1	0	0	CorrectCommission	1.566527	0.915854	0	1
153.418304	0.792432	city	1	1	0.760815	0.760815	0	1	0	0	CorrectCommission	1.061085	0.918992	0	1
154.210556	0.792047	city	10	1	0.663821	0.663821	0	1	0	0	CorrectCommission	0.319739	0.934564	0	1
155.002716	0.792284	city	3	1	0.646085	0.646085	0	1	0	0	CorrectCommission	0.572237	0.964193	0	1
155.795090	0.792464	mountain	6	1	0.655143	0.655143	0	0	1	0	CommissionError	0.443294	1.008295	0	1
156.587357	0.792062	city	6	1	0.744908	0.744908	0	1	0	0	CorrectCommission	0.834623	1.065772	0	1
157.379517	0.792253	mountain	1	0	0.000000	0.721564	1	0	0	0	CorrectOmission	0.502299	1.133862	0	1
158.171768	0.792260	city	6	1	0.654958	0.654958	0	1	0	0	CorrectCommission	0.445915	1.208200	0	1
158.964035	0.792274	city	4	1	0.614937	0.614937	0	1	0	0	CorrectCommission	1.015666	1.283149	0	1
159.756317	0.792295	city	3	1	0.606269	0.606269	0	1	0	0	CorrectCommission	1.139070	1.352475	0	1
160.548584	0.792228	city	5	1	0.695203	0.695203	0	1	0	0	CorrectCommission	0.127009	1.410090	0	1
161.340820	0.792266	city	4	1	1.104007	1.104007	0	1	0	0	CorrectCommission	5.946852	1.450878	0	1
162.133087	0.792261	city	2	0	0.000000	0.934853	0	0	0	1	OmissionError	3.538737	1.471291	0	1
162.925461	0.792483	city	8	1	0.695363	0.695363	0	1	0	0	CorrectCommission	0.129297	1.470035	0	1
163.717773	0.792155	city	9	1	0.893159	0.893159	0	1	0	0	CorrectCommission	2.945166	1.448031	0	1
164.509933	0.792159	mountain	6	0	0.000000	0.802750	1	0	0	0	CorrectOmission	1.658082	1.407994	0	1
165.302155	0.792263	city	8	1	0.646282	0.646282	0	1	0	0	CorrectCommission	0.569430	1.354043	0	1
166.094406	0.792265	city	3	1	0.645902	0.645902	0	1	0	0	CorrectCommission	0.574840	1.290890	0	1
166.886673	0.792268	city	10	1	0.646157	0.646157	0	1	0	0	CorrectCommission	0.571219	1.223075	0	1
167.678940	0.792259	city	7	1	0.695387	0.695387	0	1	0	0	CorrectCommission	0.129632	1.154417	0	1
168.471237	0.792320	mountain	7	0	0.000000	0.754619	1	0	0	0	CorrectOmission	0.972879	1.087682	0	1
169.263504	0.792211	mountain	5	0	0.000000	0.804050	1	0	0	0	CorrectOmission	1.676584	1.024464	0	1
170.055786	0.792373	mountain	4	0	0.000000	0.823874	1	0	0	0	CorrectOmission	1.958807	0.965391	0	1
170.848053	0.792157	city	1	1	0.794287	0.794287	0	1	0	0	CorrectCommission	1.537607	0.910399	0	1
171.640350	0.792429	city	6	1	0.695486	0.695486	0	1	0	0	CorrectCommission	0.131046	0.859089	0	1
172.432617	0.792103	city	9	1	0.645594	0.645594	0	1	0	0	CorrectCommission	0.579227	0.810990	0	1
173.224792	0.792264	city	6	1	0.695432	0.695432	0	1	0	0	CorrectCommission	0.130282	0.765736	0	1
174.017059	0.792263	city	4	1	0.713467	0.713467	0	1	0	0	CorrectCommission	0.387034	0.723200	1	1
174.809326	0.792265	mountain	5	1	0.601045	0.601045	0	0	1	0	CommissionError	1.213445	0.683506	1	1
175.601593	0.792268	city	2	1	0.597655	0.597655	0	1	0	0	CorrectCommission	1.261705	0.646982	1	1
176.393860	0.792264	city	10	1	0.645760	0.645760	0	1	0	0	CorrectCommission	0.576872	0.614074	1	1
177.186111	0.792260	city	3	1	0.695961	0.695961	0	1	0	0	CorrectCommission	0.137806	0.585257	1	1
177.978394	0.792292	city	5	1	0.658432	0.658432	0	1	0	0	CorrectCommission	0.396465	0.560947	1	1
178.770767	0.792456	city	3	1	0.695358	0.695358	0	1	0	0	CorrectCommission	0.129224	0.541294	1	1
179.563034	0.792073	city	6	1	0.654759	0.654759	0	1	0	0	CorrectCommission	0.448749	0.526261	1	1
180.355194	0.792250	city	3	1	0.645743	0.645743	0	1	0	0	CorrectCommission	0.577104	0.515639	1	1
181.147446	0.792254	city	5	1	0.655091	0.655091	0	1	0	0	CorrectCommission	0.444023	0.509004	1	1
181.939713	0.792282	city	2	1	0.646186	0.646186	0	1	0	0	CorrectCommission	0.570800	0.505882	1	1
182.731995	0.792278	city	1	1	0.646067	0.646067	0	1	0	0	CorrectCommission	0.572503	0.505823	1	1
183.524353	0.792450	city	5	1	0.645902	0.645902	0	1	0	0	CorrectCommission	0.574849	0.508484	1	1
184.316605	0.792052	city	3	1	0.695540	0.695540	0	1	0	0	CorrectCommission	0.131815	0.513659	1	1
185.108765	0.792261	city	9	1	0.613220	0.613220	0	1	0	0	CorrectCommission	1.040114	0.521265	1	1
185.901031	0.792263	city	3	1	0.655862	0.655862	0	1	0	0	CorrectCommission	0.433054	0.531245	1	1
186.693405	0.792483	city	1	1	0.645914	0.645914	0	1	0	0	CorrectCommission	0.574677	0.543522	1	0
187.485672	0.792051	city	3	1	0.711671	0.711671	0	1	0	0	CorrectCommission	0.361462	0.557839	1	0
188.277817	0.792260	city	5	1	0.652902	0.652902	0	1	0	0	CorrectCommission	0.475185	0.573692	1	0
189.070114	0.792328	mountain	2	1	0.696060	0.696060	0	0	1	0	CommissionError	0.139213	0.590300	1	0
189.862381	0.792204	city	3	1	0.704120	0.704120	0	1	0	0	CorrectCommission	0.253966	0.606640	1	0
190.654678	0.792372	city	4	1	0.744840	0.744840	0	1	0	0	CorrectCommission	0.833664	0.621555	1	0
191.446930	0.792156	city	9	1	0.645627	0.645627	0	1	0	0	CorrectCommission	0.578762	0.633949	1	0
192.239151	0.792277	city	6	1	0.596913	0.596913	0	1	0	0	CorrectCommission	1.272262	0.643037	1	0
193.031525	0.792472	city	8	1	0.596237	0.596237	0	1	0	0	CorrectCommission	1.281883	0.648497	1	0
193.823792	0.792047	city	2	1	0.596362	0.596362	0	1	0	0	CorrectCommission	1.280105	0.650626	1	0
194.615997	0.792372	city	8	1	0.647329	0.647329	0	1	0	0	CorrectCommission	0.554524	0.650298	1	0
195.408264	0.792157	city	4	1	0.706767	0.706767	0	1	0	0	CorrectCommission	0.291650	0.648853	1	0
196.200531	0.792372	city	5	1	0.695273	0.695273	0	1	0	0	CorrectCommission	0.128015	0.647845	1	0
196.992783	0.792160	mountain	8	0	0.000000	0.707394	1	0	0	0	CorrectOmission	0.300568	0.648772	1	0
197.785004	0.792262	city	1	1	0.695427	0.695427	0	1	0	0	CorrectCommission	0.130205	0.652792	1	0
198.577271	0.792263	city	6	1	0.611670	0.611670	0	1	0	0	CorrectCommission	1.062177	0.660522	1	0
199.369522	0.792265	city	8	1	0.601348	0.601348	0	1	0	0	CorrectCommission	1.209119	0.671903	1	0
200.161789	0.792269	city	6	1	0.695368	0.695368	0	1	0	0	CorrectCommission	0.129370	0.686256	1	0
200.954117	0.792370	city	9	1	0.658991	0.658991	0	1	0	0	CorrectCommission	0.388505	0.702323	1	0
201.746399	0.792188	city	10	1	0.744700	0.744700	0	1	0	0	CorrectCommission	0.831664	0.718462	1	0
202.538605	0.792235	city	6	1	0.744733	0.744733	0	1	0	0	CorrectCommission	0.832130	0.732883	0	0
203.330902	0.792372	city	2	1	0.744839	0.744839	0	1	0	0	CorrectCommission	0.833650	0.743959	0	0
204.123230	0.792264	city	1	1	0.745198	0.745198	0	1	0	0	CorrectCommission	0.838761	0.750458	0	0
204.915466	0.792213	city	2	1	0.795876	0.795876	0	1	0	0	CorrectCommission	1.560221	0.751758	0	0
205.707672	0.792208	city	1	1	0.745216	0.745216	0	1	0	0	CorrectCommission	0.839013	0.747965	0	0
206.499924	0.792278	city	4	1	0.711407	0.711407	0	1	0	0	CorrectCommission	0.357706	0.739941	0	0
207.292191	0.792255	city	7	1	0.758352	0.758352	0	1	0	0	CorrectCommission	1.026026	0.729172	1	0
208.084503	0.792370	mountain	10	0	0.000000	0.767592	1	0	0	0	CorrectOmission	1.157563	0.717515	1	0
208.876862	0.792375	city	1	1	0.744682	0.744682	0	1	0	0	CorrectCommission	0.831407	0.706918	1	0
209.669189	0.792263	city	6	1	0.695177	0.695177	0	1	0	0	CorrectCommission	0.126647	0.699073	1	0
210.461349	0.792051	city	1	1	0.695066	0.695066	0	1	0	0	CorrectCommission	0.125068	0.695123	1	0
211.253616	0.792479	city	4	1	0.695778	0.695778	0	1	0	0	CorrectCommission	0.135205	0.695403	1	0
212.045868	0.792048	city	9	1	0.646140	0.646140	0	1	0	0	CorrectCommission	0.571455	0.699423	1	0
212.838089	0.792372	city	8	1	0.645793	0.645793	0	1	0	0	CorrectCommission	0.576389	0.705951	1	0
213.630371	0.792202	mountain	2	0	0.000000	0.670628	1	0	0	0	CorrectOmission	0.222836	0.713246	1	0
214.422638	0.792328	city	9	1	0.745122	0.745122	0	1	0	0	CorrectCommission	0.837669	0.719428	1	0
215.214874	0.792156	city	1	1	0.893751	0.893751	0	1	0	0	CorrectCommission	2.953590	0.722858	1	0
216.007095	0.792266	city	5	1	0.744772	0.744772	0	1	0	0	CorrectCommission	0.832686	0.722369	1	0
216.799347	0.792262	city	8	1	0.650568	0.650568	0	1	0	0	CorrectCommission	0.508413	0.717604	1	0
217.591721	0.792482	city	2	1	0.645771	0.645771	0	1	0	0	CorrectCommission	0.576710	0.708928	1	0
218.383987	0.792046	city	6	1	0.645991	0.645991	0	1	0	0	CorrectCommission	0.573581	0.697333	1	0
219.176147	0.792267	city	7	1	0.657820	0.657820	0	1	0	0	CorrectCommission	0.405181	0.684171	1	0
219.968414	0.792268	city	8	1	0.695315	0.695315	0	1	0	0	CorrectCommission	0.128604	0.670918	1	0
220.760681	0.792261	city	10	1	0.611900	0.611900	0	1	0	0	CorrectCommission	1.058906	0.658893	1	0
221.553055	0.792483	city	2	1	0.707965	0.707965	0	1	0	0	CorrectCommission	0.308693	0.649121	1	0
222.345306	0.792045	city	5	1	0.657097	0.657097	0	1	0	0	CorrectCommission	0.415464	0.642245	1	0
223.137466	0.792272	city	9	1	0.608236	0.608236	0	1	0	0	CorrectCommission	1.111061	0.638568	1	0
223.929840	0.792476	city	10	1	0.646276	0.646276	0	1	0	0	CorrectCommission	0.569520	0.638184	1	0
224.722168	0.792156	city	3	1	0.645536	0.645536	0	1	0	0	CorrectCommission	0.580054	0.641103	1	0
225.514374	0.792264	city	6	1	0.745636	0.745636	0	1	0	0	CorrectCommission	0.844998	0.647380	1	0
226.306580	0.792159	city	3	1	0.695229	0.695229	0	1	0	0	CorrectCommission	0.127384	0.657202	1	0
227.098907	0.792481	city	4	1	0.648673	0.648673	0	1	0	0	CorrectCommission	0.535394	0.670954	1	0
227.891281	0.792263	city	2	1	0.802275	0.802275	0	1	0	0	CorrectCommission	1.651320	0.689071	1	0
228.683441	0.792062	city	6	1	0.695261	0.695261	0	1	0	0	CorrectCommission	0.127837	0.711920	1	0
229.475708	0.792469	city	3	1	0.705982	0.705982	0	1	0	0	CorrectCommission	0.280474	0.739668	0	0
230.268021	0.792155	city	7	1	0.794105	0.794105	0	1	0	0	CorrectCommission	1.535009	0.771987	0	0
231.060287	0.792372	mountain	9	1	0.696656	0.696656	0	0	1	0	CommissionError	0.147706	0.807922	0	0
231.852600	0.792265	city	8	1	0.695796	0.695796	0	1	0	0	CorrectCommission	0.135462	0.845840	0	0
232.644760	0.792051	city	10	1	0.664055	0.664055	0	1	0	0	CorrectCommission	0.316410	0.883376	0	0
233.437027	0.792478	city	7	1	0.794307	0.794307	0	1	0	0	CorrectCommission	1.537885	0.917706	0	0
234.229279	0.792049	city	1	1	0.744617	0.744617	0	1	0	0	CorrectCommission	0.830490	0.945808	0	0
235.021545	0.792480	city	3	1	0.806511	0.806511	0	1	0	0	CorrectCommission	1.711629	0.964932	0	0
235.813812	0.792052	city	10	1	0.748522	0.748522	0	1	0	0	CorrectCommission	0.886079	0.972917	0	0
236.606079	0.792479	city	6	1	0.893463	0.893463	0	1	0	0	CorrectCommission	2.949488	0.968617	0	0
237.398392	0.792156	city	8	1	0.606438	0.606438	0	1	0	0	CorrectCommission	1.136671	0.952014	0	0
238.190659	0.792375	city	10	1	0.645677	0.645677	0	1	0	0	CorrectCommission	0.578045	0.924330	0	0
238.982986	0.792263	city	8	1	0.596417	0.596417	0	1	0	0	CorrectCommission	1.279323	0.887773	0	0
239.775131	0.792049	city	4	1	0.653623	0.653623	0	1	0	0	CorrectCommission	0.464931	0.845215	0	0
240.567291	0.792263	city	9	1	0.695319	0.695319	0	1	0	0	CorrectCommission	0.128671	0.799840	0	0
241.359558	0.792267	city	6	1	0.661585	0.661585	0	1	0	0	CorrectCommission	0.351571	0.754702	0	0
242.151871	0.792372	city	8	1	0.596215	0.596215	0	1	0	0	CorrectCommission	1.282199	0.712392	1	0
242.944138	0.792162	city	3	1	0.645718	0.645718	0	1	0	0	CorrectCommission	0.577458	0.674802	1	0
243.736359	0.792259	mountain	3	0	0.000000	0.695219	1	0	0	0	CorrectOmission	0.127248	0.643091	1	0
244.528610	0.792266	city	9	0	0.000000	0.719982	0	0	0	1	OmissionError	0.479779	0.617674	1	0
245.320877	0.792264	city	7	1	0.695272	0.695272	0	1	0	0	CorrectCommission	0.127996	0.598315	1	0
246.113144	0.792274	city	10	1	0.596353	0.596353	0	1	0	0	CorrectCommission	1.280241	0.584385	1	1
246.905472	0.792363	city	5	1	0.649493	0.649493	0	1	0	0	CorrectCommission	0.523723	0.575021	1	1
247.697739	0.792164	city	8	1	0.659600	0.659600	0	1	0	0	CorrectCommission	0.379840	0.569361	1	1
248.490051	0.792476	city	3	1	0.645784	0.645784	0	1	0	0	CorrectCommission	0.576519	0.566703	1	1
249.282364	0.792154	city	7	1	0.645804	0.645804	0	1	0	0	CorrectCommission	0.576234	0.566594	1	1
250.074631	0.792374	city	5	1	0.607504	0.607504	0	1	0	0	CorrectCommission	1.121481	0.568869	1	1
250.866837	0.792048	city	4	1	0.695274	0.695274	0	1	0	0	CorrectCommission	0.128026	0.573595	1	1
251.658997	0.792266	city	5	1	0.695630	0.695630	0	1	0	0	CorrectCommission	0.133094	0.581090	1	1
252.451324	0.792371	city	2	1	0.645904	0.645904	0	1	0	0	CorrectCommission	0.574811	0.591776	1	1
253.243637	0.792267	city	6	1	0.744664	0.744664	0	1	0	0	CorrectCommission	0.831158	0.606101	1	1
254.035843	0.792154	city	1	1	0.655605	0.655605	0	1	0	0	CorrectCommission	0.436714	0.624408	1	1
254.828064	0.792268	city	3	1	0.646332	0.646332	0	1	0	0	CorrectCommission	0.568720	0.646917	1	1
255.620377	0.792370	city	2	1	0.605482	0.605482	0	1	0	0	CorrectCommission	1.150278	0.673602	1	1
256.412750	0.792374	mountain	1	0	0.000000	0.656359	1	0	0	0	CorrectOmission	0.425983	0.704086	1	1
257.204956	0.792052	city	7	1	0.702179	0.702179	0	1	0	0	CorrectCommission	0.226334	0.737664	0	1
257.997223	0.792478	city	6	1	0.646161	0.646161	0	1	0	0	CorrectCommission	0.571158	0.773231	0	1
258.789490	0.792048	city	2	1	0.645532	0.645532	0	1	0	0	CorrectCommission	0.580109	0.809326	0	1
259.581635	0.792270	city	4	1	0.596656	0.596656	0	1	0	0	CorrectCommission	1.275922	0.844182	0	1
260.373932	0.792309	city	7	1	0.596217	0.596217	0	1	0	0	CorrectCommission	1.282173	0.875879	0	1
261.166199	0.792214	city	4	1	0.646133	0.646133	0	1	0	0	CorrectCommission	0.571559	0.902535	0	1
261.958496	0.792402	city	2	1	0.612090	0.612090	0	1	0	0	CorrectCommission	1.056206	0.922485	0	1
262.750824	0.792238	city	1	1	0.596257	0.596257	0	1	0	0	CorrectCommission	1.281604	0.934432	0	1
263.543030	0.792153	city	6	1	0.596169	0.596169	0	1	0	0	CorrectCommission	1.282853	0.937616	0	1
264.335236	0.792265	city	9	1	0.565653	0.565653	0	1	0	0	CorrectCommission	1.717294	0.931910	0	1
265.127502	0.792269	city	1	1	0.613477	0.613477	0	1	0	0	CorrectCommission	1.036457	0.917825	0	1
265.919769	0.792259	city	5	1	0.695283	0.695283	0	1	0	0	CorrectCommission	0.128153	0.896484	0	1
266.712036	0.792271	city	10	1	0.653534	0.653534	0	1	0	0	CorrectCommission	0.466197	0.869507	0	1
267.504303	0.792264	city	9	1	0.563529	0.563529	0	1	0	0	CorrectCommission	1.747527	0.838848	0	1
268.296570	0.792260	city	10	1	0.610522	0.610522	0	1	0	0	CorrectCommission	1.078518	0.806643	0	1
269.088867	0.792374	city	1	1	0.646615	0.646615	0	1	0	0	CorrectCommission	0.564693	0.775071	0	1
269.881165	0.792187	city	10	1	0.649255	0.649255	0	1	0	0	CorrectCommission	0.527115	0.746126	0	1
270.673370	0.792235	city	6	1	0.645691	0.645691	0	1	0	0	CorrectCommission	0.577843	0.721436	1	1
271.465729	0.792481	city	7	1	0.695626	0.695626	0	1	0	0	CorrectCommission	0.133044	0.702137	1	1
272.257996	0.792045	city	1	1	0.658861	0.658861	0	1	0	0	CorrectCommission	0.390357	0.688771	1	1
273.050201	0.792375	city	5	1	0.648192	0.648192	0	1	0	0	CorrectCommission	0.542248	0.681197	1	1
273.842468	0.792156	city	9	1	0.596518	0.596518	0	1	0	0	CorrectCommission	1.277883	0.678645	1	1
274.634705	0.792326	city	2	1	0.645770	0.645770	0	1	0	0	CorrectCommission	0.576725	0.679761	1	1
275.427032	0.792312	city	4	1	0.655021	0.655021	0	1	0	0	CorrectCommission	0.445028	0.682768	1	1
276.219269	0.792155	city	7	1	0.645738	0.645738	0	1	0	0	CorrectCommission	0.577175	0.685608	1	1
277.011475	0.792270	city	4	1	0.745170	0.745170	0	1	0	0	CorrectCommission	0.838353	0.686187	1	1
277.803741	0.792268	city	6	1	0.695364	0.695364	0	1	0	0	CorrectCommission	0.129301	0.682612	1	1
278.596039	0.792317	city	10	1	0.608979	0.608979	0	1	0	0	CorrectCommission	1.100492	0.673507	1	1
279.388336	0.792314	city	4	1	0.599005	0.599005	0	1	0	0	CorrectCommission	1.242478	0.658156	1	1
280.180573	0.792157	city	10	1	0.596105	0.596105	0	1	0	0	CorrectCommission	1.283760	0.636705	1	1
280.972809	0.792266	city	5	1	0.596783	0.596783	0	1	0	0	CorrectCommission	1.274109	0.610199	1	1
281.765106	0.792371	city	4	1	0.695949	0.695949	0	1	0	0	CorrectCommission	0.137642	0.580483	1	1
282.557495	0.792372	city	1	1	0.645823	0.645823	0	1	0	0	CorrectCommission	0.575971	0.550028	1	1
283.349731	0.792116	city	9	1	0.695054	0.695054	0	1	0	0	CorrectCommission	0.124900	0.521554	1	1
284.141998	0.792413	city	6	1	0.696221	0.696221	0	1	0	0	CorrectCommission	0.141504	0.497733	1	1
284.934235	0.792047	city	2	1	0.703139	0.703139	0	1	0	0	CorrectCommission	0.239999	0.480751	1	1
285.726410	0.792347	city	1	1	0.695840	0.695840	0	1	0	0	CorrectCommission	0.136081	0.472104	1	1
286.518799	0.792401	city	2	1	0.695318	0.695318	0	1	0	0	CorrectCommission	0.128648	0.472425	1	1
287.311035	0.792049	city	5	1	0.698521	0.698521	0	1	0	0	CorrectCommission	0.174259	0.481545	1	1
288.103180	0.792267	city	10	1	0.695337	0.695337	0	1	0	0	CorrectCommission	0.128928	0.498492	1	1
288.895538	0.792479	mountain	3	0	0.000000	0.749087	1	0	0	0	CorrectOmission	0.894118	0.521854	1	1
289.687866	0.792156	city	3	1	0.753575	0.753575	0	1	0	0	CorrectCommission	0.958008	0.550004	1	1
290.480042	0.792175	city	10	1	0.602606	0.602606	0	1	0	0	CorrectCommission	1.191219	0.581444	1	1
291.272247	0.792244	city	4	1	0.695224	0.695224	0	1	0	0	CorrectCommission	0.127309	0.615005	1	1
292.064514	0.792287	city	6	1	0.649765	0.649765	0	1	0	0	CorrectCommission	0.519845	0.650033	1	1
292.856781	0.792246	city	4	1	0.700350	0.700350	0	1	0	0	CorrectCommission	0.200296	0.686385	1	1
293.649139	0.792479	mountain	3	0	0.000000	0.754099	1	0	0	0	CorrectOmission	0.965480	0.724405	1	1
294.441437	0.792120	mountain	7	0	0.000000	0.782219	1	0	0	0	CorrectOmission	1.365803	0.764719	0	1
295.233582	0.792191	city	4	1	0.755917	0.755917	0	1	0	0	CorrectCommission	0.991359	0.808030	0	1
296.025848	0.792321	city	5	1	0.646400	0.646400	0	1	0	0	CorrectCommission	0.567756	0.854826	0	1
296.818176	0.792320	city	1	1	0.658879	0.658879	0	1	0	0	CorrectCommission	0.390099	0.905102	0	1
297.610504	0.792371	city	8	1	0.646304	0.646304	0	1	0	0	CorrectCommission	0.569122	0.958141	0	1
298.402710	0.792049	city	3	1	0.663518	0.663518	0	1	0	0	CorrectCommission	0.324062	1.012364	0	1
299.194885	0.792263	city	8	1	0.562138	0.562138	0	1	0	0	CorrectCommission	1.767326	1.065402	0	1
299.987152	0.792271	city	4	1	0.646455	0.646455	0	1	0	0	CorrectCommission	0.566967	1.114180	0	1
300.779419	0.792261	city	9	1	0.598626	0.598626	0	1	0	0	CorrectCommission	1.247881	1.155328	0	1
301.571686	0.792264	mountain	9	1	0.615012	0.615012	0	0	1	0	CommissionError	1.014604	1.185487	0	1
302.363953	0.792265	city	9	1	1.005806	1.005806	0	1	0	0	CorrectCommission	4.548835	1.201785	0	1
303.156219	0.792311	city	7	1	0.696336	0.696336	0	1	0	0	CorrectCommission	0.143150	1.202125	0	1
303.948486	0.792219	city	1	1	0.614356	0.614356	0	1	0	0	CorrectCommission	1.023941	1.185720	0	1
304.740723	0.792265	city	6	1	0.596260	0.596260	0	1	0	0	CorrectCommission	1.281559	1.152942	0	1
305.533051	0.792373	city	10	1	0.558569	0.558569	0	1	0	0	CorrectCommission	1.818139	1.105459	0	0
306.325317	0.792157	city	9	1	0.546612	0.546612	0	1	0	0	CorrectCommission	1.988363	1.046038	0	0
307.117584	0.792374	mountain	8	0	0.000000	0.637225	1	0	0	0	CorrectOmission	0.698369	0.978288	0	0
307.909851	0.792180	city	2	1	0.712074	0.712074	0	1	0	0	CorrectCommission	0.367189	0.906339	0	0
308.702057	0.792239	city	1	1	0.652821	0.652821	0	1	0	0	CorrectCommission	0.476344	0.834430	0	0
309.494385	0.792373	city	6	1	0.744719	0.744719	0	1	0	0	CorrectCommission	0.831938	0.766522	0	0
310.286652	0.792161	city	8	1	0.645696	0.645696	0	1	0	0	CorrectCommission	0.577776	0.706020	1	0
311.078949	0.792480	city	5	1	0.706688	0.706688	0	1	0	0	CorrectCommission	0.290521	0.655502	1	0
311.871216	0.792050	city	9	1	0.695114	0.695114	0	1	0	0	CorrectCommission	0.125755	0.616600	1	0
312.663483	0.792478	city	6	1	0.652935	0.652935	0	1	0	0	CorrectCommission	0.474725	0.589933	1	0
313.455750	0.792048	city	9	1	0.695220	0.695220	0	1	0	0	CorrectCommission	0.127263	0.575177	1	0
314.247925	0.792269	city	2	1	0.646438	0.646438	0	1	0	0	CorrectCommission	0.567220	0.571214	1	0
315.040192	0.792262	city	8	1	0.646116	0.646116	0	1	0	0	CorrectCommission	0.571796	0.576291	1	0
315.832550	0.792481	city	5	1	0.645866	0.645866	0	1	0	0	CorrectCommission	0.575352	0.588272	1	0
316.624817	0.792046	city	3	1	0.645515	0.645515	0	1	0	0	CorrectCommission	0.580350	0.604826	1	0
317.416962	0.792271	city	5	1	0.645732	0.645732	0	1	0	0	CorrectCommission	0.577259	0.623686	1	0
318.209229	0.792265	city	3	1	0.704330	0.704330	0	1	0	0	CorrectCommission	0.256950	0.642819	1	0
319.001495	0.792260	city	5	1	0.794301	0.794301	0	1	0	0	CorrectCommission	1.537803	0.660608	1	0
319.793762	0.792265	city	3	1	0.744792	0.744792	0	1	0	0	CorrectCommission	0.832984	0.675805	1	0
320.586029	0.792263	city	10	1	0.744799	0.744799	0	1	0	0	CorrectCommission	0.833076	0.687757	1	0
321.378357	0.792373	city	3	1	0.745371	0.745371	0	1	0	0	CorrectCommission	0.841217	0.696284	1	0
322.170624	0.792156	city	2	1	0.695200	0.695200	0	1	0	0	CorrectCommission	0.126971	0.701629	1	0
322.962891	0.792374	city	4	1	0.744967	0.744967	0	1	0	0	CorrectCommission	0.835473	0.704418	1	0
323.755157	0.792158	city	10	1	0.645772	0.645772	0	1	0	0	CorrectCommission	0.576691	0.705518	1	0
324.547363	0.792273	city	9	1	0.645782	0.645782	0	1	0	0	CorrectCommission	0.576551	0.706011	1	0
325.339630	0.792276	city	10	1	0.596208	0.596208	0	1	0	0	CorrectCommission	1.282305	0.707056	1	0
326.131897	0.792247	city	6	1	0.646184	0.646184	0	1	0	0	CorrectCommission	0.570828	0.709770	1	0
326.924133	0.792260	city	2	1	0.596356	0.596356	0	1	0	0	CorrectCommission	1.280198	0.715137	1	0
327.716431	0.792325	city	4	1	0.695299	0.695299	0	1	0	0	CorrectCommission	0.128381	0.723817	1	0
328.508698	0.792210	city	2	1	0.656694	0.656694	0	1	0	0	CorrectCommission	0.421201	0.736079	0	0
329.300934	0.792264	mountain	9	0	0.000000	0.710938	1	0	0	0	CorrectOmission	0.351019	0.751623	0	0
330.093323	0.792478	city	4	1	0.744970	0.744970	0	1	0	0	CorrectCommission	0.835517	0.769564	0	0
330.885590	0.792049	city	5	1	0.645734	0.645734	0	1	0	0	CorrectCommission	0.577231	0.788471	0	0
331.677795	0.792373	city	1	1	0.652351	0.652351	0	1	0	0	CorrectCommission	0.483035	0.806535	0	0
332.470062	0.792155	city	10	1	0.646161	0.646161	0	1	0	0	CorrectCommission	0.571156	0.821832	0	0
333.262268	0.792267	city	4	1	0.794516	0.794516	0	1	0	0	CorrectCommission	1.540859	0.832586	0	0
334.054535	0.792294	mountain	8	0	0.000000	0.835733	1	0	0	0	CorrectOmission	2.127640	0.837472	0	0
334.846863	0.792342	city	6	1	0.794430	0.794430	0	1	0	0	CorrectCommission	1.539631	0.835827	0	0
335.639160	0.792264	city	5	1	0.695221	0.695221	0	1	0	0	CorrectCommission	0.127274	0.827807	0	0
336.431366	0.792158	city	4	1	0.745313	0.745313	0	1	0	0	CorrectCommission	0.840393	0.814340	0	0
337.223602	0.792265	city	2	1	0.659598	0.659598	0	1	0	0	CorrectCommission	0.379866	0.796939	0	0
338.015869	0.792288	city	5	1	0.744801	0.744801	0	1	0	0	CorrectCommission	0.833101	0.777546	0	0
338.808136	0.792243	city	2	1	0.749689	0.749689	0	1	0	0	CorrectCommission	0.902690	0.758220	0	0
339.600494	0.792479	city	8	1	0.645863	0.645863	0	1	0	0	CorrectCommission	0.575404	0.740913	0	0
340.392822	0.792156	city	9	1	0.645618	0.645618	0	1	0	0	CorrectCommission	0.578881	0.727247	1	0
341.184967	0.792155	city	6	1	0.645549	0.645549	0	1	0	0	CorrectCommission	0.579867	0.718376	1	0
341.977173	0.792267	city	9	1	0.646216	0.646216	0	1	0	0	CorrectCommission	0.570371	0.714911	1	0
342.769562	0.792482	city	6	1	0.658560	0.658560	0	1	0	0	CorrectCommission	0.394643	0.716901	1	0
343.561859	0.792113	city	3	1	0.745237	0.745237	0	1	0	0	CorrectCommission	0.839316	0.723992	1	0
344.354004	0.792198	city	10	1	0.744750	0.744750	0	1	0	0	CorrectCommission	0.832373	0.735521	0	0
345.146332	0.792484	city	2	1	0.745969	0.745969	0	1	0	0	CorrectCommission	0.849737	0.750756	0	0
345.938599	0.792046	city	5	1	0.714462	0.714462	0	1	0	0	CorrectCommission	0.401191	0.769008	0	0
346.730774	0.792276	city	3	1	0.695802	0.695802	0	1	0	0	CorrectCommission	0.135543	0.789846	0	0
347.523163	0.792499	city	5	1	0.794324	0.794324	0	1	0	0	CorrectCommission	1.538123	0.813142	0	0
348.315430	0.792021	city	7	1	0.758272	0.758272	0	1	0	0	CorrectCommission	1.024881	0.839043	0	0
349.107605	0.792341	city	2	1	0.802034	0.802034	0	1	0	0	CorrectCommission	1.647885	0.867965	0	0
349.899872	0.792187	city	3	1	0.646104	0.646104	0	1	0	0	CorrectCommission	0.571966	0.900287	0	0
350.692200	0.792483	city	5	1	0.645831	0.645831	0	1	0	0	CorrectCommission	0.575856	0.936161	0	0
351.484467	0.792045	city	8	1	0.599223	0.599223	0	1	0	0	CorrectCommission	1.239377	0.975173	0	0
352.276733	0.792484	city	10	1	0.695787	0.695787	0	1	0	0	CorrectCommission	0.135324	1.016209	0	0
353.069000	0.792045	city	3	1	0.695237	0.695237	0	1	0	0	CorrectCommission	0.127500	1.057380	0	0
353.861145	0.792266	city	6	1	0.661559	0.661559	0	1	0	0	CorrectCommission	0.351955	1.096162	0	0
354.653412	0.792267	mountain	7	0	0.000000	0.740687	1	0	0	0	CorrectOmission	0.774531	1.129815	0	0
355.445679	0.792268	mountain	3	0	0.000000	0.856463	1	0	0	0	CorrectOmission	2.422753	1.155873	0	0
356.237946	0.792259	mountain	4	0	0.000000	0.932730	1	0	0	0	CorrectOmission	3.508510	1.172669	0	0
357.030304	0.792482	city	4	1	0.893330	0.893330	0	1	0	0	CorrectCommission	2.947600	1.179832	0	0
357.822632	0.792155	city	8	1	0.662105	0.662105	0	1	0	0	CorrectCommission	0.344181	1.178480	0	0
358.614777	0.792157	city	4	1	0.652419	0.652419	0	1	0	0	CorrectCommission	0.482072	1.171126	0	0
359.407043	0.792336	mountain	6	0	0.000000	0.738307	1	0	0	0	CorrectOmission	0.740661	1.161177	0	0
360.199310	0.792197	city	4	1	0.794391	0.794391	0	1	0	0	CorrectCommission	1.539077	1.152359	0	0
360.991577	0.792371	city	5	1	0.695289	0.695289	0	1	0	0	CorrectCommission	0.128235	1.147989	0	0
361.783844	0.792160	city	2	1	0.745024	0.745024	0	1	0	0	CorrectCommission	0.836275	1.150336	0	0
362.576050	0.792263	city	3	1	0.745267	0.745267	0	1	0	0	CorrectCommission	0.839745	1.160072	0	0
363.368439	0.792479	city	4	1	0.706939	0.706939	0	1	0	0	CorrectCommission	0.294087	1.176127	0	0
364.160706	0.792048	city	6	1	0.794100	0.794100	0	1	0	0	CorrectCommission	1.534943	1.195818	0	0
364.952850	0.792268	city	9	1	0.645893	0.645893	0	1	0	0	CorrectCommission	0.574969	1.215199	0	1
365.745117	0.792262	city	7	1	0.604639	0.604639	0	1	0	0	CorrectCommission	1.162270	1.229837	0	1
366.537445	0.792371	city	5	1	0.563745	0.563745	0	1	0	0	CorrectCommission	1.744449	1.235443	0	1
367.329712	0.792155	city	3	1	0.992240	0.992240	0	1	0	0	CorrectCommission	4.355712	1.228713	0	1
368.121918	0.792268	city	4	1	0.760973	0.760973	0	1	0	0	CorrectCommission	1.063336	1.207819	0	1
368.914276	0.792481	city	7	1	0.760562	0.760562	0	1	0	0	CorrectCommission	1.057489	1.172866	0	1
369.706604	0.792155	city	4	1	0.810846	0.810846	0	1	0	0	CorrectCommission	1.773338	1.125763	0	1
370.498749	0.792154	mountain	6	0	0.000000	0.769667	1	0	0	0	CorrectOmission	1.187104	1.069941	0	1
371.291016	0.792375	city	3	1	0.695274	0.695274	0	1	0	0	CorrectCommission	0.128022	1.009827	0	1
372.083282	0.792158	city	7	1	0.645914	0.645914	0	1	0	0	CorrectCommission	0.574670	0.950212	0	1
372.875610	0.792507	city	1	1	0.645785	0.645785	0	1	0	0	CorrectCommission	0.576505	0.895531	0	1
373.667877	0.792019	city	5	1	0.645489	0.645489	0	1	0	0	CorrectCommission	0.580726	0.849375	0	1
374.460022	0.792270	mountain	6	0	0.000000	0.664932	1	0	0	0	CorrectOmission	0.303924	0.814086	0	1
375.252289	0.792259	city	1	1	0.662465	0.662465	0	1	0	0	CorrectCommission	0.339045	0.790688	0	1
376.044556	0.792266	city	3	1	0.596437	0.596437	0	1	0	0	CorrectCommission	1.279039	0.778826	0	1
376.836853	0.792309	city	2	1	0.656825	0.656825	0	1	0	0	CorrectCommission	0.419347	0.777010	0	1
377.629150	0.792295	city	7	1	0.645712	0.645712	0	1	0	0	CorrectCommission	0.577551	0.782959	0	1
378.421448	0.792301	mountain	8	0	0.000000	0.718103	1	0	0	0	CorrectOmission	0.453024	0.793981	0	1
379.213776	0.792373	city	1	1	0.744650	0.744650	0	1	0	0	CorrectCommission	0.830961	0.807363	0	1
380.006073	0.792182	city	9	1	0.596008	0.596008	0	1	0	0	CorrectCommission	1.285155	0.820689	0	1
380.798218	0.792130	mountain	10	1	0.546604	0.546604	0	0	1	0	CommissionError	1.988476	0.832112	0	1
381.590424	0.792311	city	6	1	0.652056	0.652056	0	1	0	0	CorrectCommission	0.487234	0.840464	0	1
382.382721	0.792271	city	10	1	0.612335	0.612335	0	1	0	0	CorrectCommission	1.052710	0.845344	0	1
383.175018	0.792318	city	3	1	0.646470	0.646470	0	1	0	0	CorrectCommission	0.566754	0.846863	0	1
383.967316	0.792264	city	6	1	0.700040	0.700040	0	1	0	0	CorrectCommission	0.195882	0.845620	0	1
384.759521	0.792158	mountain	7	0	0.000000	0.772773	1	0	0	0	CorrectOmission	1.231325	0.842401	0	1
385.551727	0.792268	city	7	1	0.794592	0.794592	0	1	0	0	CorrectCommission	1.541944	0.838094	0	1
386.343994	0.792261	city	2	1	0.695420	0.695420	0	1	0	0	CorrectCommission	0.130108	0.833516	0	1
387.136261	0.792263	city	10	1	0.645991	0.645991	0	1	0	0	CorrectCommission	0.573574	0.829356	0	1
387.928528	0.792271	mountain	7	0	0.000000	0.728502	1	0	0	0	CorrectOmission	0.601069	0.826093	0	1
388.720825	0.792320	mountain	10	1	0.794441	0.794441	0	0	1	0	CommissionError	1.539790	0.824062	0	1
389.513092	0.792207	city	1	1	0.695296	0.695296	0	1	0	0	CorrectCommission	0.128347	0.823436	0	1
390.305328	0.792265	city	3	1	0.808771	0.808771	0	1	0	0	CorrectCommission	1.743799	0.824333	0	1
391.097656	0.792371	mountain	7	0	0.000000	0.721012	1	0	0	0	CorrectOmission	0.494437	0.826653	0	1
391.889954	0.792264	city	8	1	0.607976	0.607976	0	1	0	0	CorrectCommission	1.114771	0.830245	0	1
392.682159	0.792158	city	1	1	0.645620	0.645620	0	1	0	0	CorrectCommission	0.578858	0.834763	0	1
393.474396	0.792264	mountain	10	1	0.658778	0.658778	0	0	1	0	CommissionError	0.391538	0.839706	0	1
394.266663	0.792311	city	7	1	0.744807	0.744807	0	1	0	0	CorrectCommission	0.833187	0.844451	0	1
395.058929	0.792220	city	6	1	0.706553	0.706553	0	1	0	0	CorrectCommission	0.288593	0.848301	0	1
395.851166	0.792261	city	7	1	0.695351	0.695351	0	1	0	0	CorrectCommission	0.129123	0.850671	0	1
396.643555	0.792483	city	5	0	0.000000	0.825403	0	0	0	1	OmissionError	1.980570	0.851205	0	1
397.435913	0.792264	city	8	1	0.893158	0.893158	0	1	0	0	CorrectCommission	2.945150	0.849870	0	1
398.228088	0.792046	city	5	1	0.695067	0.695067	0	1	0	0	CorrectCommission	0.125079	0.847020	0	1
399.020264	0.792319	city	2	1	0.746214	0.746214	0	1	0	0	CorrectCommission	0.853221	0.843418	0	1
399.812531	0.792209	city	3	1	0.709290	0.709290	0	1	0	0	CorrectCommission	0.327562	0.839861	0	1
400.604767	0.792267	city	2	1	0.744828	0.744828	0	1	0	0	CorrectCommission	0.833484	0.837016	0	1
401.397034	0.792302	city	9	1	0.661922	0.661922	0	1	0	0	CorrectCommission	0.346778	0.835106	0	1
402.189423	0.792444	city	3	1	0.695602	0.695602	0	1	0	0	CorrectCommission	0.132691	0.833732	0	1
402.981720	0.792158	city	8	1	0.661650	0.661650	0	1	0	0	CorrectCommission	0.350651	0.831810	0	1
403.773865	0.792160	city	2	1	0.645660	0.645660	0	1	0	0	CorrectCommission	0.578291	0.827722	0	1
404.566101	0.792315	mountain	3	0	0.000000	0.799796	1	0	0	0	CorrectOmission	1.616026	0.819567	0	1
405.358368	0.792210	city	9	1	0.893260	0.893260	0	1	0	0	CorrectCommission	2.946601	0.805521	0	1
406.150726	0.792482	city	10	1	0.695253	0.695253	0	1	0	0	CorrectCommission	0.127732	0.784188	0	1
406.942993	0.792054	city	7	1	0.746949	0.746949	0	1	0	0	CorrectCommission	0.863683	0.755022	0	1
407.735138	0.792256	city	6	1	0.744790	0.744790	0	1	0	0	CorrectCommission	0.832950	0.718286	1	1
408.527466	0.792376	city	9	1	0.745513	0.745513	0	1	0	0	CorrectCommission	0.843244	0.675179	1	1
409.319733	0.792158	city	3	1	0.747433	0.747433	0	1	0	0	CorrectCommission	0.870581	0.627639	1	1
410.111938	0.792266	city	9	1	0.701039	0.701039	0	1	0	0	CorrectCommission	0.210104	0.578115	1	1
410.904205	0.792283	city	7	1	0.695335	0.695335	0	1	0	0	CorrectCommission	0.128892	0.529273	1	1
411.696472	0.792247	city	5	1	0.705518	0.705518	0	1	0	0	CorrectCommission	0.273861	0.483669	1	1
412.488861	0.792532	city	1	1	0.645672	0.645672	0	1	0	0	CorrectCommission	0.578125	0.443524	1	1
413.281128	0.791996	city	7	1	0.695058	0.695058	0	1	0	0	CorrectCommission	0.124955	0.410560	1	1
414.073273	0.792262	city	10	1	0.695242	0.695242	0	1	0	0	CorrectCommission	0.127567	0.385878	1	1
414.865631	0.792482	city	2	1	0.645765	0.645765	0	1	0	0	CorrectCommission	0.576790	0.369914	1	1
415.657898	0.792049	city	10	1	0.695227	0.695227	0	1	0	0	CorrectCommission	0.127361	0.362545	1	1
416.450165	0.792479	city	6	1	0.695273	0.695273	0	1	0	0	CorrectCommission	0.128014	0.363116	1	1
417.242432	0.792050	city	2	1	0.695694	0.695694	0	1	0	0	CorrectCommission	0.134007	0.370566	1	1
418.034607	0.792282	city	7	1	0.695260	0.695260	0	1	0	0	CorrectCommission	0.127833	0.383512	1	1
418.826874	0.792247	city	2	1	0.646015	0.646015	0	1	0	0	CorrectCommission	0.573229	0.400444	1	1
419.619110	0.792265	city	10	1	0.646327	0.646327	0	1	0	0	CorrectCommission	0.568791	0.419764	1	1
420.411438	0.792370	city	8	1	0.645771	0.645771	0	1	0	0	CorrectCommission	0.576704	0.439956	1	1
421.203796	0.792373	city	10	1	0.654971	0.654971	0	1	0	0	CorrectCommission	0.445734	0.459673	1	1
421.996063	0.792119	city	8	1	0.711919	0.711919	0	1	0	0	CorrectCommission	0.364985	0.477803	1	1
422.788208	0.792198	city	4	1	0.751573	0.751573	0	1	0	0	CorrectCommission	0.929511	0.493497	1	1
423.580444	0.792260	city	5	1	0.655797	0.655797	0	1	0	0	CorrectCommission	0.433976	0.506228	1	1
424.372711	0.792269	city	9	1	0.646210	0.646210	0	1	0	0	CorrectCommission	0.570459	0.515754	1	0
425.165039	0.792369	city	5	1	0.656628	0.656628	0	1	0	0	CorrectCommission	0.422140	0.522060	1	0
425.957306	0.792184	city	9	1	0.652617	0.652617	0	1	0	0	CorrectCommission	0.479254	0.525361	1	0
426.749573	0.792346	city	10	1	0.646638	0.646638	0	1	0	0	CorrectCommission	0.564371	0.525977	1	0
427.541840	0.792214	city	1	1	0.646788	0.646788	0	1	0	0	CorrectCommission	0.562233	0.524345	1	0
428.334167	0.792424	city	6	1	0.606873	0.606873	0	1	0	0	CorrectCommission	1.130465	0.520936	1	0
429.126434	0.792097	mountain	2	0	0.000000	0.647513	1	0	0	0	CorrectOmission	0.551909	0.516223	1	0
429.918579	0.792214	city	8	1	0.699909	0.699909	0	1	0	0	CorrectCommission	0.194018	0.510653	1	0
430.710938	0.792484	city	7	1	0.695265	0.695265	0	1	0	0	CorrectCommission	0.127902	0.504627	1	0
431.503204	0.792047	city	1	1	0.695756	0.695756	0	1	0	0	CorrectCommission	0.134882	0.498500	1	0
432.295349	0.792263	city	5	1	0.647046	0.647046	0	1	0	0	CorrectCommission	0.558552	0.492603	1	0
433.087616	0.792264	city	1	1	0.695177	0.695177	0	1	0	0	CorrectCommission	0.126644	0.487291	1	0
433.879883	0.792299	city	3	1	0.845028	0.845028	0	1	0	0	CorrectCommission	2.259968	0.482983	1	0
434.672211	0.792339	city	5	1	0.706678	0.706678	0	1	0	0	CorrectCommission	0.290375	0.480089	1	0
435.464478	0.792160	city	9	1	0.695275	0.695275	0	1	0	0	CorrectCommission	0.128034	0.479087	1	0
436.256683	0.792264	city	1	1	0.700946	0.700946	0	1	0	0	CorrectCommission	0.208771	0.480336	1	0
437.048981	0.792312	city	8	1	0.695288	0.695288	0	1	0	0	CorrectCommission	0.128224	0.484041	1	0
437.841217	0.792219	mountain	2	0	0.000000	0.699535	1	0	0	0	CorrectOmission	0.188693	0.490181	1	0
438.633514	0.792370	city	3	1	0.695242	0.695242	0	1	0	0	CorrectCommission	0.127578	0.498552	1	0
439.425842	0.792263	city	9	1	0.663963	0.663963	0	1	0	0	CorrectCommission	0.317719	0.508808	1	0
440.218048	0.792156	city	10	1	0.713295	0.713295	0	1	0	0	CorrectCommission	0.384579	0.520639	1	0
441.010284	0.792325	city	7	1	0.844160	0.844160	0	1	0	0	CorrectCommission	2.247601	0.533944	1	0
441.802551	0.792206	city	5	1	0.705187	0.705187	0	1	0	0	CorrectCommission	0.269151	0.548931	1	0
442.594849	0.792373	city	2	1	0.745671	0.745671	0	1	0	0	CorrectCommission	0.845496	0.566281	1	0
443.387207	0.792374	city	6	1	0.695286	0.695286	0	1	0	0	CorrectCommission	0.128202	0.586939	1	0
444.179443	0.792047	city	10	1	0.744735	0.744735	0	1	0	0	CorrectCommission	0.832165	0.612002	1	0
444.971588	0.792281	city	8	1	0.701959	0.701959	0	1	0	0	CorrectCommission	0.223189	0.642391	1	0
445.763855	0.792248	mountain	6	0	0.000000	0.691338	1	0	0	0	CorrectOmission	0.071990	0.678588	1	0
446.556122	0.792263	city	2	1	0.695275	0.695275	0	1	0	0	CorrectCommission	0.128047	0.720406	1	0
447.348389	0.792274	city	8	1	0.696174	0.696174	0	1	0	0	CorrectCommission	0.140837	0.766853	0	0
448.140656	0.792257	city	5	1	0.757385	0.757385	0	1	0	0	CorrectCommission	1.012258	0.816164	0	0
448.932922	0.792263	city	4	1	0.794318	0.794318	0	1	0	0	CorrectCommission	1.538038	0.865966	0	0
449.725220	0.792374	city	6	1	0.794279	0.794279	0	1	0	0	CorrectCommission	1.537489	0.913553	0	0
450.517609	0.792373	city	5	1	0.744845	0.744845	0	1	0	0	CorrectCommission	0.833728	0.956247	0	0
451.309937	0.792266	city	2	1	0.744903	0.744903	0	1	0	0	CorrectCommission	0.834556	0.991656	0	0
452.102081	0.792049	city	6	1	0.794243	0.794243	0	1	0	0	CorrectCommission	1.536980	1.017971	0	0
452.894348	0.792480	city	1	1	0.757232	0.757232	0	1	0	0	CorrectCommission	1.010081	1.034071	0	0
453.686707	0.792264	city	9	1	0.843690	0.843690	0	1	0	0	CorrectCommission	2.240913	1.039607	0	0
454.478882	0.792050	mountain	5	0	0.000000	0.730656	1	0	0	0	CorrectOmission	0.631731	1.034888	0	0
455.271027	0.792266	city	6	1	0.603161	0.603161	0	1	0	0	CorrectCommission	1.183315	1.020822	0	0
456.063324	0.792299	city	5	1	0.646237	0.646237	0	1	0	0	CorrectCommission	0.570077	0.998691	0	0
456.855591	0.792227	city	3	1	0.745126	0.745126	0	1	0	0	CorrectCommission	0.837733	0.970028	0	0
457.647827	0.792265	city	6	1	0.763135	0.763135	0	1	0	0	CorrectCommission	1.094109	0.936461	0	0
458.440155	0.792373	city	9	1	0.762867	0.762867	0	1	0	0	CorrectCommission	1.090303	0.899615	0	0
459.232452	0.792266	mountain	3	0	0.000000	0.769449	1	0	0	0	CorrectOmission	1.183994	0.861112	0	0
460.024658	0.792159	city	1	1	0.745100	0.745100	0	1	0	0	CorrectCommission	0.837364	0.822498	0	0
460.816895	0.792262	city	6	1	0.652044	0.652044	0	1	0	0	CorrectCommission	0.487406	0.785219	0	0
461.609192	0.792372	city	7	1	0.745570	0.745570	0	1	0	0	CorrectCommission	0.844054	0.750583	0	0
462.401459	0.792158	city	6	1	0.744770	0.744770	0	1	0	0	CorrectCommission	0.832661	0.719684	1	0
463.193665	0.792263	city	8	1	0.704389	0.704389	0	1	0	0	CorrectCommission	0.257791	0.693343	1	0
463.985931	0.792270	city	6	1	0.649682	0.649682	0	1	0	0	CorrectCommission	0.521034	0.672055	1	0
464.778229	0.792322	city	4	1	0.704929	0.704929	0	1	0	0	CorrectCommission	0.265476	0.655900	1	0
465.570618	0.792420	city	5	1	0.714693	0.714693	0	1	0	0	CorrectCommission	0.404487	0.644579	1	0
466.362854	0.792050	mountain	4	0	0.000000	0.731187	1	0	0	0	CorrectOmission	0.639288	0.637451	1	0
467.155121	0.792479	city	10	1	0.744790	0.744790	0	1	0	0	CorrectCommission	0.832951	0.633622	1	0
467.947418	0.792115	mountain	8	0	0.000000	0.745885	1	0	0	0	CorrectOmission	0.848543	0.632070	1	0
468.739563	0.792200	city	6	1	0.744725	0.744725	0	1	0	0	CorrectCommission	0.832027	0.631748	1	0
469.531799	0.792264	city	4	1	0.751563	0.751563	0	1	0	0	CorrectCommission	0.929365	0.631652	1	0
470.324066	0.792267	city	6	1	0.695324	0.695324	0	1	0	0	CorrectCommission	0.128735	0.630891	1	0
471.116364	0.792312	city	7	1	0.745312	0.745312	0	1	0	0	CorrectCommission	0.840382	0.628685	1	0
471.908661	0.792323	city	3	1	0.661742	0.661742	0	1	0	0	CorrectCommission	0.349349	0.624371	1	0
472.700897	0.792153	city	2	1	0.695319	0.695319	0	1	0	0	CorrectCommission	0.128673	0.617416	1	0
473.493103	0.792269	city	1	1	0.745373	0.745373	0	1	0	0	CorrectCommission	0.841253	0.607439	1	0
474.285431	0.792370	city	5	1	0.759637	0.759637	0	1	0	0	CorrectCommission	1.044311	0.594208	1	0
475.077698	0.792159	city	2	1	0.794678	0.794678	0	1	0	0	CorrectCommission	1.543167	0.577702	1	0
475.869904	0.792266	city	9	1	0.695313	0.695313	0	1	0	0	CorrectCommission	0.128582	0.558099	1	0
476.662292	0.792479	city	1	1	0.652545	0.652545	0	1	0	0	CorrectCommission	0.480274	0.535791	1	0
477.454559	0.792078	city	9	1	0.659267	0.659267	0	1	0	0	CorrectCommission	0.384577	0.511251	1	0
478.246735	0.792237	city	7	1	0.695554	0.695554	0	1	0	0	CorrectCommission	0.132011	0.485010	1	0
479.039093	0.792479	city	1	1	0.744817	0.744817	0	1	0	0	CorrectCommission	0.833336	0.457532	1	0
479.831390	0.792155	city	4	1	0.706306	0.706306	0	1	0	0	CorrectCommission	0.285084	0.429122	1	0
480.623566	0.792157	mountain	10	0	0.000000	0.667448	1	0	0	0	CorrectOmission	0.268107	0.399945	1	0
481.415771	0.792266	city	10	1	0.646321	0.646321	0	1	0	0	CorrectCommission	0.568881	0.369969	1	0
482.208038	0.792261	city	4	1	0.661002	0.661002	0	1	0	0	CorrectCommission	0.359882	0.339023	1	0
483.000336	0.792376	city	10	1	0.695264	0.695264	0	1	0	0	CorrectCommission	0.127888	0.306891	1	0
483.792603	0.792158	city	4	1	0.695179	0.695179	0	1	0	0	CorrectCommission	0.126668	0.273370	1	0
484.584839	0.792262	city	7	1	0.652160	0.652160	0	1	0	0	CorrectCommission	0.485758	0.238379	1	0
485.377075	0.792264	city	8	1	0.646112	0.646112	0	1	0	0	CorrectCommission	0.571848	0.202013	1	0
486.169403	0.792372	city	3	1	0.651751	0.651751	0	1	0	0	CorrectCommission	0.491575	0.164584	1	0
486.961731	0.792265	city	1	1	0.695171	0.695171	0	1	0	0	CorrectCommission	0.126567	0.126567	1	0
