onset	duration	trial_type	image_type	Press	ReactionTime	ReactionTime_Interpolated	CorrectOmission	CorrectCommission	CommissionError	OmissionError	response_type	nonsmoothVarianceTimeCourse	VarianceTimeCourse	In_the_Zone	Reward_trial
8.433869	0.792166	city	2	1	0.674266	0.674266	0	1	0	0	CorrectCommission	0.045578	0.045578	1	1
9.226135	0.792364	city	9	1	0.605319	0.605319	0	1	0	0	CorrectCommission	0.510045	0.165644	1	1
10.018395	0.792157	mountain	1	0	0.000000	0.537885	1	0	0	0	CorrectOmission	0.964320	0.281684	1	1
10.810714	0.792480	city	5	1	0.497117	0.497117	0	1	0	0	CorrectCommission	1.238956	0.390148	1	1
11.603016	0.792123	city	4	1	0.508169	0.508169	0	1	0	0	CorrectCommission	1.164504	0.488353	1	1
12.395198	0.792243	city	2	1	0.547109	0.547109	0	1	0	0	CorrectCommission	0.902182	0.574683	1	1
13.187427	0.792214	city	4	1	0.596558	0.596558	0	1	0	0	CorrectCommission	0.569059	0.648630	1	1
13.979664	0.792261	city	9	1	0.563627	0.563627	0	1	0	0	CorrectCommission	0.790906	0.710602	1	1
14.772036	0.792483	city	4	1	0.596343	0.596343	0	1	0	0	CorrectCommission	0.570512	0.761659	0	1
15.564329	0.792103	city	2	1	0.596034	0.596034	0	1	0	0	CorrectCommission	0.572591	0.803175	0	1
16.356514	0.792269	city	6	1	0.596308	0.596308	0	1	0	0	CorrectCommission	0.570746	0.836542	0	1
17.148752	0.792207	mountain	6	0	0.000000	0.549642	1	0	0	0	CorrectOmission	0.885117	0.862955	0	1
17.941042	0.792372	city	7	1	0.501453	0.501453	0	1	0	0	CorrectCommission	1.209742	0.883291	0	1
18.733307	0.792159	city	5	1	0.497161	0.497161	0	1	0	0	CorrectCommission	1.238655	0.898119	0	1
19.525518	0.792262	city	8	1	0.447725	0.447725	0	1	0	0	CorrectCommission	1.571685	0.907777	0	1
20.317781	0.792264	city	7	1	0.597007	0.597007	0	1	0	0	CorrectCommission	0.566038	0.912467	0	1
21.110126	0.792428	city	5	1	0.552953	0.552953	0	1	0	0	CorrectCommission	0.862808	0.912397	0	1
21.902391	0.792102	city	9	1	0.546583	0.546583	0	1	0	0	CorrectCommission	0.905721	0.907834	0	1
22.694576	0.792267	city	1	1	0.548203	0.548203	0	1	0	0	CorrectCommission	0.894809	0.899163	0	1
23.486897	0.792372	mountain	5	0	0.000000	0.547488	1	0	0	0	CorrectOmission	0.899629	0.886909	0	1
24.279188	0.792213	city	10	1	0.546580	0.546580	0	1	0	0	CorrectCommission	0.905743	0.871731	0	1
25.071453	0.792314	city	7	1	0.547623	0.547623	0	1	0	0	CorrectCommission	0.898714	0.854375	0	1
25.863689	0.792160	city	9	1	0.546727	0.546727	0	1	0	0	CorrectCommission	0.904750	0.835686	0	1
26.655901	0.792262	city	1	1	0.497625	0.497625	0	1	0	0	CorrectCommission	1.235530	0.816549	0	1
27.448164	0.792267	city	7	1	0.596213	0.596213	0	1	0	0	CorrectCommission	0.571385	0.797783	0	1
28.240437	0.792276	city	2	1	0.546690	0.546690	0	1	0	0	CorrectCommission	0.905001	0.780163	0	1
29.032701	0.792254	city	1	1	0.596636	0.596636	0	1	0	0	CorrectCommission	0.568539	0.764347	0	1
29.824959	0.792262	city	9	1	0.645828	0.645828	0	1	0	0	CorrectCommission	0.237153	0.750930	0	1
30.617222	0.792264	city	6	1	0.645708	0.645708	0	1	0	0	CorrectCommission	0.237961	0.740455	1	1
31.409487	0.792265	mountain	4	0	0.000000	0.571600	1	0	0	0	CorrectOmission	0.737192	0.733471	1	1
32.201763	0.792290	city	8	1	0.497522	0.497522	0	1	0	0	CorrectCommission	1.236226	0.730591	1	1
32.994030	0.792239	city	9	1	0.497489	0.497489	0	1	0	0	CorrectCommission	1.236445	0.732502	1	1
33.786282	0.792269	city	3	1	0.547008	0.547008	0	1	0	0	CorrectCommission	0.902857	0.739920	1	1
34.578548	0.792264	city	10	1	0.596203	0.596203	0	1	0	0	CorrectCommission	0.571455	0.753442	0	1
35.370865	0.792371	city	5	1	0.646299	0.646299	0	1	0	0	CorrectCommission	0.233979	0.773308	0	1
36.163132	0.792156	city	6	1	0.745082	0.745082	0	1	0	0	CorrectCommission	0.431482	0.799156	0	1
36.955341	0.792267	city	2	1	0.843800	0.843800	0	1	0	0	CorrectCommission	1.096501	0.829766	0	1
37.747604	0.792261	city	6	1	0.744745	0.744745	0	1	0	0	CorrectCommission	0.429214	0.862949	0	1
38.539978	0.792484	city	3	1	0.695285	0.695285	0	1	0	0	CorrectCommission	0.096022	0.895613	0	1
39.332268	0.792100	city	6	1	0.645519	0.645519	0	1	0	0	CorrectCommission	0.239231	0.923999	0	1
40.124424	0.792211	city	8	1	0.695247	0.695247	0	1	0	0	CorrectCommission	0.095768	0.944136	0	1
40.916687	0.792316	city	1	0	0.000000	1.060454	0	0	0	1	OmissionError	2.556008	0.952440	0	1
41.709061	0.792431	city	8	1	1.293505	1.293505	0	1	0	0	CorrectCommission	4.125980	0.946233	0	1
42.501308	0.792061	mountain	6	0	0.000000	0.946770	1	0	0	0	CorrectOmission	1.790172	0.924247	0	1
43.293472	0.792268	city	7	1	0.556274	0.556274	0	1	0	0	CorrectCommission	0.840441	0.886915	0	1
44.085758	0.792301	city	9	1	0.658040	0.658040	0	1	0	0	CorrectCommission	0.154884	0.836204	0	1
44.878124	0.792430	city	7	1	0.753825	0.753825	0	1	0	0	CorrectCommission	0.490379	0.775321	0	1
45.670361	0.792049	city	5	1	0.702107	0.702107	0	1	0	0	CorrectCommission	0.141975	0.708201	1	1
46.462532	0.792287	city	3	1	0.645657	0.645657	0	1	0	0	CorrectCommission	0.238304	0.639014	1	1
47.254902	0.792457	city	9	1	0.604738	0.604738	0	1	0	0	CorrectCommission	0.513956	0.571597	1	1
48.047157	0.792052	city	1	1	0.597886	0.597886	0	1	0	0	CorrectCommission	0.560117	0.509128	1	1
48.839325	0.792283	city	9	1	0.650596	0.650596	0	1	0	0	CorrectCommission	0.205028	0.453935	1	1
49.631588	0.792244	city	7	1	0.597521	0.597521	0	1	0	0	CorrectCommission	0.562577	0.407486	1	1
50.423859	0.792301	city	4	1	0.695246	0.695246	0	1	0	0	CorrectCommission	0.095759	0.370450	1	1
51.216232	0.792444	city	8	1	0.645716	0.645716	0	1	0	0	CorrectCommission	0.237904	0.342903	1	1
52.008587	0.792265	city	9	1	0.745284	0.745284	0	1	0	0	CorrectCommission	0.432844	0.324441	1	1
52.800774	0.792113	city	10	1	0.695167	0.695167	0	1	0	0	CorrectCommission	0.095223	0.314347	1	1
53.592983	0.792307	city	9	1	0.654701	0.654701	0	1	0	0	CorrectCommission	0.177376	0.311693	1	1
54.385216	0.792157	city	4	1	0.695449	0.695449	0	1	0	0	CorrectCommission	0.097128	0.315378	1	1
55.177429	0.792266	city	8	1	0.696176	0.696176	0	1	0	0	CorrectCommission	0.102026	0.324191	1	1
55.969696	0.792269	city	9	1	0.744767	0.744767	0	1	0	0	CorrectCommission	0.429362	0.336823	1	1
56.761963	0.792264	city	5	1	0.744778	0.744778	0	1	0	0	CorrectCommission	0.429434	0.351930	1	1
57.554256	0.792324	city	1	1	0.696567	0.696567	0	1	0	0	CorrectCommission	0.104660	0.368219	1	1
58.346626	0.792418	mountain	2	0	0.000000	0.604806	1	0	0	0	CorrectOmission	0.513502	0.384535	1	1
59.138893	0.792112	city	10	1	0.559818	0.559818	0	1	0	0	CorrectCommission	0.816562	0.400004	1	1
59.931087	0.792276	city	7	1	0.651932	0.651932	0	1	0	0	CorrectCommission	0.196033	0.414221	1	1
60.723320	0.792191	city	2	1	0.695336	0.695336	0	1	0	0	CorrectCommission	0.096361	0.427328	1	1
61.515549	0.792264	city	8	1	0.943414	0.943414	0	1	0	0	CorrectCommission	1.767561	0.440047	1	1
62.307812	0.792267	city	5	1	0.709624	0.709624	0	1	0	0	CorrectCommission	0.192615	0.453564	1	1
63.100082	0.792267	city	9	1	0.695757	0.695757	0	1	0	0	CorrectCommission	0.099203	0.469460	1	1
63.892452	0.792475	city	4	1	0.645863	0.645863	0	1	0	0	CorrectCommission	0.236913	0.489376	1	1
64.684715	0.792048	city	10	1	0.596100	0.596100	0	1	0	0	CorrectCommission	0.572144	0.514750	1	1
65.476921	0.792374	city	7	1	0.645751	0.645751	0	1	0	0	CorrectCommission	0.237666	0.546510	1	1
66.269188	0.792158	city	10	1	0.603248	0.603248	0	1	0	0	CorrectCommission	0.523996	0.584826	1	1
67.061508	0.792479	city	1	1	0.699385	0.699385	0	1	0	0	CorrectCommission	0.123639	0.628954	1	1
67.853783	0.792074	city	2	1	0.697893	0.697893	0	1	0	0	CorrectCommission	0.113591	0.677259	1	0
68.645943	0.792238	city	3	1	0.748787	0.748787	0	1	0	0	CorrectCommission	0.456440	0.727396	1	0
69.438194	0.792265	city	1	1	0.804866	0.804866	0	1	0	0	CorrectCommission	0.834219	0.776622	0	0
70.230461	0.792264	city	7	1	0.893496	0.893496	0	1	0	0	CorrectCommission	1.431283	0.822279	0	0
71.022774	0.792372	city	3	1	0.843832	0.843832	0	1	0	0	CorrectCommission	1.096716	0.862186	0	0
71.815041	0.792155	mountain	6	1	0.992248	0.992248	0	0	1	0	CommissionError	2.096536	0.895041	0	0
72.607307	0.792375	mountain	2	0	0.000000	0.911018	1	0	0	0	CorrectOmission	1.549326	0.920605	0	0
73.399597	0.792215	city	9	1	0.796231	0.796231	0	1	0	0	CorrectCommission	0.776052	0.939766	0	0
74.191811	0.792208	city	3	1	0.843974	0.843974	0	1	0	0	CorrectCommission	1.097676	0.954309	0	0
74.984047	0.792265	city	5	1	0.794627	0.794627	0	1	0	0	CorrectCommission	0.765248	0.966541	0	0
75.776314	0.792260	mountain	6	0	0.000000	0.676384	1	0	0	0	CorrectOmission	0.031310	0.978853	0	0
76.568611	0.792334	city	5	1	0.558863	0.558863	0	1	0	0	CorrectCommission	0.823000	0.993251	0	0
77.360985	0.792414	city	6	1	0.511684	0.511684	0	1	0	0	CorrectCommission	1.140823	1.010988	0	0
78.153168	0.791964	city	2	1	0.645628	0.645628	0	1	0	0	CorrectCommission	0.238500	1.032415	0	0
78.945328	0.792348	city	5	1	0.665267	0.665267	0	1	0	0	CorrectCommission	0.106200	1.056996	0	0
79.737633	0.792265	mountain	6	0	0.000000	0.468964	1	0	0	0	CorrectOmission	1.428607	1.083494	0	0
80.530006	0.792482	city	2	1	0.299127	0.299127	0	1	0	0	CorrectCommission	2.572727	1.110266	0	0
81.322273	0.792051	city	6	1	0.398163	0.398163	0	1	0	0	CorrectCommission	1.905563	1.135647	0	0
82.114433	0.792264	city	7	1	0.404588	0.404588	0	1	0	0	CorrectCommission	1.862283	1.158269	0	0
82.906693	0.792262	city	10	1	0.646596	0.646596	0	1	0	0	CorrectCommission	0.231977	1.177226	0	0
83.698959	0.792263	city	8	0	0.000000	0.624989	0	0	0	1	OmissionError	0.377535	1.192207	0	0
84.491333	0.792483	city	9	1	0.652502	0.652502	0	1	0	0	CorrectCommission	0.192193	1.203428	0	0
85.283707	0.792265	city	2	1	1.041870	1.041870	0	1	0	0	CorrectCommission	2.430816	1.211552	0	0
86.075859	0.792046	city	9	1	0.992350	0.992350	0	1	0	0	CorrectCommission	2.097221	1.217463	0	0
86.868126	0.792482	city	10	1	0.860474	0.860474	0	1	0	0	CorrectCommission	1.208831	1.222198	0	0
87.660393	0.792051	city	9	1	0.859261	0.859261	0	1	0	0	CorrectCommission	1.200658	1.226685	0	0
88.452553	0.792267	city	3	1	0.844355	0.844355	0	1	0	0	CorrectCommission	1.100241	1.231547	0	0
89.244812	0.792260	city	10	1	0.794290	0.794290	0	1	0	0	CorrectCommission	0.762979	1.236936	0	0
90.037079	0.792265	city	8	1	0.794372	0.794372	0	1	0	0	CorrectCommission	0.763527	1.242450	0	0
90.829346	0.792269	city	3	1	0.844789	0.844789	0	1	0	0	CorrectCommission	1.103167	1.247098	0	0
91.621613	0.792279	city	9	1	0.843855	0.843855	0	1	0	0	CorrectCommission	1.096871	1.249404	0	0
92.413918	0.792316	city	7	1	0.497341	0.497341	0	1	0	0	CorrectCommission	1.237443	1.247643	0	0
93.206223	0.792303	city	5	1	0.447632	0.447632	0	1	0	0	CorrectCommission	1.572311	1.240136	0	0
93.998474	0.792198	city	8	1	1.057497	1.057497	0	1	0	0	CorrectCommission	2.536094	1.225539	0	0
94.790688	0.792226	mountain	5	0	0.000000	0.885880	1	0	0	0	CorrectOmission	1.379981	1.203090	0	0
95.582932	0.792260	city	8	1	0.497462	0.497462	0	1	0	0	CorrectCommission	1.236629	1.172843	0	0
96.375244	0.792374	city	2	1	0.456924	0.456924	0	1	0	0	CorrectCommission	1.509719	1.135587	0	0
97.167549	0.792226	city	9	1	0.503830	0.503830	0	1	0	0	CorrectCommission	1.193734	1.092720	0	0
97.959808	0.792303	city	3	1	0.744891	0.744891	0	1	0	0	CorrectCommission	0.430194	1.046078	0	0
98.752151	0.792374	city	9	1	0.607451	0.607451	0	1	0	0	CorrectCommission	0.495678	0.997670	0	0
99.544357	0.792045	city	8	1	0.498588	0.498588	0	1	0	0	CorrectCommission	1.229044	0.949418	0	0
100.336624	0.792484	city	1	1	0.547143	0.547143	0	1	0	0	CorrectCommission	0.901951	0.903043	0	0
101.128899	0.792069	city	9	1	0.646060	0.646060	0	1	0	0	CorrectCommission	0.235584	0.859991	0	0
101.921059	0.792246	mountain	3	1	0.546709	0.546709	0	0	1	0	CommissionError	0.904871	0.821500	0	0
102.713417	0.792480	city	8	1	0.794653	0.794653	0	1	0	0	CorrectCommission	0.765420	0.788612	0	0
103.505791	0.792265	city	9	1	0.547030	0.547030	0	1	0	0	CorrectCommission	0.902714	0.762368	0	0
104.297951	0.792049	mountain	10	1	0.498925	0.498925	0	0	1	0	CommissionError	1.226775	0.743841	1	0
105.090126	0.792306	city	9	1	0.501945	0.501945	0	1	0	0	CorrectCommission	1.206433	0.734086	1	0
105.882393	0.792220	city	5	1	0.696638	0.696638	0	1	0	0	CorrectCommission	0.105137	0.734030	1	0
106.674629	0.792265	city	1	1	0.695272	0.695272	0	1	0	0	CorrectCommission	0.095934	0.744266	1	0
107.466896	0.792266	city	8	1	0.646009	0.646009	0	1	0	0	CorrectCommission	0.235931	0.764755	0	0
108.259163	0.792264	mountain	1	1	0.645746	0.645746	0	0	1	0	CommissionError	0.237706	0.794639	0	0
109.051430	0.792267	city	5	1	0.745580	0.745580	0	1	0	0	CorrectCommission	0.434837	0.832147	0	0
109.843697	0.792262	mountain	7	1	0.747245	0.747245	0	0	1	0	CommissionError	0.446055	0.874622	0	0
110.635956	0.792270	city	7	1	0.943891	0.943891	0	1	0	0	CorrectCommission	1.770776	0.918742	0	0
111.428223	0.792263	city	1	1	0.854972	0.854972	0	1	0	0	CorrectCommission	1.171762	0.960788	0	0
112.220490	0.792265	mountain	9	0	0.000000	0.562402	1	0	0	0	CorrectOmission	0.799158	0.997141	0	0
113.012772	0.792297	city	3	1	0.348902	0.348902	0	1	0	0	CorrectCommission	2.237417	1.024625	0	0
113.805031	0.792227	city	9	1	0.497192	0.497192	0	1	0	0	CorrectCommission	1.238452	1.040798	0	0
114.597305	0.792315	city	2	1	0.506204	0.506204	0	1	0	0	CorrectCommission	1.177737	1.044234	0	0
115.389572	0.792219	city	7	1	0.458989	0.458989	0	1	0	0	CorrectCommission	1.495808	1.034542	0	0
116.181824	0.792278	city	9	1	0.553444	0.553444	0	1	0	0	CorrectCommission	0.859502	1.012295	0	0
116.974136	0.792357	mountain	3	1	0.497295	0.497295	0	0	1	0	CommissionError	1.237755	0.978874	0	0
117.766396	0.792161	city	1	1	0.561320	0.561320	0	1	0	0	CorrectCommission	0.806446	0.936212	0	0
118.558609	0.792258	city	2	1	0.546880	0.546880	0	1	0	0	CorrectCommission	0.903718	0.886578	0	0
119.350868	0.792270	city	8	1	0.546683	0.546683	0	1	0	0	CorrectCommission	0.905051	0.832301	0	0
120.143135	0.792260	city	4	1	0.596476	0.596476	0	1	0	0	CorrectCommission	0.569613	0.775629	0	0
120.935394	0.792263	city	8	1	0.546699	0.546699	0	1	0	0	CorrectCommission	0.904940	0.718589	1	0
121.727768	0.792485	city	5	1	0.548343	0.548343	0	1	0	0	CorrectCommission	0.893865	0.662898	1	0
122.520142	0.792264	city	4	1	0.645865	0.645865	0	1	0	0	CorrectCommission	0.236904	0.609952	1	0
123.312302	0.792048	city	6	1	0.654546	0.654546	0	1	0	0	CorrectCommission	0.178423	0.560880	1	0
124.104515	0.792374	city	4	1	0.598446	0.598446	0	1	0	0	CorrectCommission	0.556341	0.516542	1	0
124.896782	0.792160	city	1	1	0.645643	0.645643	0	1	0	0	CorrectCommission	0.238394	0.477585	1	0
125.688995	0.792270	city	3	1	0.794847	0.794847	0	1	0	0	CorrectCommission	0.766728	0.444514	1	0
126.481262	0.792263	city	6	1	0.745149	0.745149	0	1	0	0	CorrectCommission	0.431931	0.417686	1	0
127.273521	0.792257	city	9	1	0.695238	0.695238	0	1	0	0	CorrectCommission	0.095703	0.397356	1	1
128.065781	0.792266	city	10	1	0.655130	0.655130	0	1	0	0	CorrectCommission	0.174486	0.383632	1	1
128.858154	0.792480	city	4	1	0.749323	0.749323	0	1	0	0	CorrectCommission	0.460052	0.376437	1	1
129.650421	0.792052	city	3	1	0.712114	0.712114	0	1	0	0	CorrectCommission	0.209389	0.375488	1	1
130.442581	0.792264	city	2	1	0.708476	0.708476	0	1	0	0	CorrectCommission	0.184883	0.380204	1	1
131.234848	0.792264	city	8	1	0.645874	0.645874	0	1	0	0	CorrectCommission	0.236838	0.389723	1	1
132.027100	0.792261	city	4	1	0.745370	0.745370	0	1	0	0	CorrectCommission	0.433420	0.402894	1	1
132.819366	0.792267	city	8	1	0.744833	0.744833	0	1	0	0	CorrectCommission	0.429802	0.418322	1	1
133.611633	0.792262	city	4	1	0.695723	0.695723	0	1	0	0	CorrectCommission	0.098971	0.434485	1	1
134.403900	0.792266	city	3	1	0.660418	0.660418	0	1	0	0	CorrectCommission	0.138862	0.449845	1	1
135.196274	0.792481	city	9	1	0.843895	0.843895	0	1	0	0	CorrectCommission	1.097144	0.462993	1	1
135.988541	0.792047	city	4	1	0.514673	0.514673	0	1	0	0	CorrectCommission	1.120685	0.472748	1	1
136.780701	0.792268	city	2	1	0.546795	0.546795	0	1	0	0	CorrectCommission	0.904294	0.478290	1	1
137.572952	0.792261	city	5	1	0.654573	0.654573	0	1	0	0	CorrectCommission	0.178236	0.479177	1	1
138.365280	0.792375	city	8	1	0.695318	0.695318	0	1	0	0	CorrectCommission	0.096245	0.475343	1	1
139.157547	0.792155	city	7	1	0.603861	0.603861	0	1	0	0	CorrectCommission	0.519867	0.467021	1	1
139.949799	0.792374	city	9	1	0.744773	0.744773	0	1	0	0	CorrectCommission	0.429401	0.454701	1	1
140.742065	0.792156	city	6	1	0.794161	0.794161	0	1	0	0	CorrectCommission	0.762105	0.439060	1	1
141.534286	0.792268	city	2	1	0.744783	0.744783	0	1	0	0	CorrectCommission	0.429468	0.420897	1	1
142.326553	0.792267	city	3	1	0.645909	0.645909	0	1	0	0	CorrectCommission	0.236603	0.401144	1	1
143.118820	0.792283	city	9	1	0.597129	0.597129	0	1	0	0	CorrectCommission	0.565213	0.380825	1	1
143.911118	0.792319	city	7	1	0.646041	0.646041	0	1	0	0	CorrectCommission	0.235717	0.361062	1	1
144.703400	0.792217	city	4	1	0.794209	0.794209	0	1	0	0	CorrectCommission	0.762428	0.343053	1	1
145.495621	0.792235	city	2	1	0.695626	0.695626	0	1	0	0	CorrectCommission	0.098317	0.327991	1	1
146.287872	0.792268	city	10	1	0.695280	0.695280	0	1	0	0	CorrectCommission	0.095986	0.317004	1	1
147.080154	0.792297	city	7	1	0.695955	0.695955	0	1	0	0	CorrectCommission	0.100531	0.311025	1	1
147.872421	0.792232	city	4	1	0.655322	0.655322	0	1	0	0	CorrectCommission	0.173194	0.310686	1	1
148.664673	0.792289	city	10	1	0.650031	0.650031	0	1	0	0	CorrectCommission	0.208836	0.316204	1	1
149.456940	0.792238	city	3	1	0.649803	0.649803	0	1	0	0	CorrectCommission	0.210376	0.327326	1	1
150.249191	0.792269	city	7	1	0.646007	0.646007	0	1	0	0	CorrectCommission	0.235942	0.343306	1	1
151.041458	0.792261	city	4	1	0.695397	0.695397	0	1	0	0	CorrectCommission	0.096774	0.362960	1	1
151.833725	0.792267	city	3	1	0.605495	0.605495	0	1	0	0	CorrectCommission	0.508859	0.384787	1	1
152.626038	0.792372	city	6	1	0.656737	0.656737	0	1	0	0	CorrectCommission	0.163658	0.407096	1	1
153.418304	0.792155	city	2	1	0.596716	0.596716	0	1	0	0	CorrectCommission	0.567996	0.428257	1	1
154.210617	0.792483	city	4	1	0.596206	0.596206	0	1	0	0	CorrectCommission	0.571433	0.446841	1	1
155.002884	0.792046	city	3	1	0.508045	0.508045	0	1	0	0	CorrectCommission	1.165339	0.461817	1	1
155.795044	0.792264	city	5	1	0.564252	0.564252	0	1	0	0	CorrectCommission	0.786694	0.472617	1	1
156.587357	0.792375	city	3	1	0.596521	0.596521	0	1	0	0	CorrectCommission	0.569308	0.479168	1	1
157.379730	0.792374	city	6	1	0.645633	0.645633	0	1	0	0	CorrectCommission	0.238464	0.481809	1	1
158.171951	0.792054	city	5	1	0.645956	0.645956	0	1	0	0	CorrectCommission	0.236289	0.481156	1	1
158.964111	0.792264	city	7	1	0.596928	0.596928	0	1	0	0	CorrectCommission	0.566567	0.477938	1	1
159.756378	0.792261	city	9	1	0.645757	0.645757	0	1	0	0	CorrectCommission	0.237630	0.472845	1	1
160.548737	0.792480	city	3	1	0.602962	0.602962	0	1	0	0	CorrectCommission	0.525922	0.466435	1	1
161.341003	0.792052	city	7	1	0.645522	0.645522	0	1	0	0	CorrectCommission	0.239211	0.459071	1	1
162.133163	0.792262	city	5	1	0.602819	0.602819	0	1	0	0	CorrectCommission	0.526884	0.450948	1	1
162.925430	0.792266	city	7	1	0.546714	0.546714	0	1	0	0	CorrectCommission	0.904839	0.442159	1	1
163.717743	0.792370	city	2	1	0.611229	0.611229	0	1	0	0	CorrectCommission	0.470229	0.432782	1	1
164.510117	0.792373	city	10	1	0.596157	0.596157	0	1	0	0	CorrectCommission	0.571762	0.422973	1	1
165.302444	0.792266	city	5	1	0.657740	0.657740	0	1	0	0	CorrectCommission	0.156903	0.412999	1	1
166.094620	0.792084	mountain	1	1	0.646096	0.646096	0	0	1	0	CommissionError	0.235347	0.403273	1	1
166.886780	0.792235	city	1	1	0.744910	0.744910	0	1	0	0	CorrectCommission	0.430320	0.394305	1	1
167.679016	0.792259	city	7	1	0.646235	0.646235	0	1	0	0	CorrectCommission	0.234409	0.386643	1	1
168.471313	0.792329	city	5	1	0.546779	0.546779	0	1	0	0	CorrectCommission	0.904404	0.380801	1	1
169.263626	0.792307	city	1	1	0.645646	0.645646	0	1	0	0	CorrectCommission	0.238379	0.377132	1	1
170.055923	0.792265	city	10	1	0.695427	0.695427	0	1	0	0	CorrectCommission	0.096978	0.375803	1	1
170.848236	0.792373	city	2	1	0.695113	0.695113	0	1	0	0	CorrectCommission	0.094859	0.376677	1	1
171.640457	0.792052	city	3	1	0.645589	0.645589	0	1	0	0	CorrectCommission	0.238760	0.379327	1	1
172.432602	0.792265	city	1	1	0.645933	0.645933	0	1	0	0	CorrectCommission	0.236444	0.383057	1	1
173.224899	0.792303	city	8	1	0.596261	0.596261	0	1	0	0	CorrectCommission	0.571061	0.387007	1	1
174.017151	0.792224	city	2	1	0.609662	0.609662	0	1	0	0	CorrectCommission	0.480788	0.390251	1	1
174.809402	0.792267	city	4	1	0.609178	0.609178	0	1	0	0	CorrectCommission	0.484049	0.391960	1	1
175.601669	0.792259	city	5	1	0.555494	0.555494	0	1	0	0	CorrectCommission	0.845692	0.391524	1	1
176.393921	0.792269	city	1	1	0.600643	0.600643	0	1	0	0	CorrectCommission	0.541541	0.388599	1	1
177.186188	0.792263	city	9	1	0.614115	0.614115	0	1	0	0	CorrectCommission	0.450786	0.383187	1	1
177.978455	0.792268	city	2	1	0.661778	0.661778	0	1	0	0	CorrectCommission	0.129705	0.375589	1	1
178.770721	0.792263	city	6	1	0.646535	0.646535	0	1	0	0	CorrectCommission	0.232388	0.366352	1	1
179.562988	0.792262	city	3	1	0.646258	0.646258	0	1	0	0	CorrectCommission	0.234252	0.356185	1	1
180.355255	0.792264	city	5	1	0.645717	0.645717	0	1	0	0	CorrectCommission	0.237897	0.345898	1	1
181.147522	0.792269	city	1	1	0.596272	0.596272	0	1	0	0	CorrectCommission	0.570990	0.336353	1	1
181.939789	0.792264	city	4	1	0.596446	0.596446	0	1	0	0	CorrectCommission	0.569819	0.328428	1	1
182.732040	0.792264	city	5	1	0.645732	0.645732	0	1	0	0	CorrectCommission	0.237799	0.323054	1	1
183.524353	0.792340	city	7	1	0.695270	0.695270	0	1	0	0	CorrectCommission	0.095918	0.321210	1	1
184.316620	0.792196	city	4	1	0.695214	0.695214	0	1	0	0	CorrectCommission	0.095545	0.323910	1	1
185.108948	0.792474	city	3	1	0.747220	0.747220	0	1	0	0	CorrectCommission	0.445882	0.332231	1	1
185.901321	0.792264	city	1	1	0.695028	0.695028	0	1	0	0	CorrectCommission	0.094290	0.347258	1	1
186.693527	0.792156	city	8	1	0.646167	0.646167	0	1	0	0	CorrectCommission	0.234866	0.370067	1	0
187.485687	0.792157	mountain	4	0	0.000000	0.605485	1	0	0	0	CorrectOmission	0.508925	0.401576	1	0
188.277893	0.792267	city	8	1	0.609687	0.609687	0	1	0	0	CorrectCommission	0.480618	0.442422	1	0
189.070160	0.792261	city	5	1	0.695478	0.695478	0	1	0	0	CorrectCommission	0.097321	0.492813	1	0
189.862427	0.792269	city	7	1	0.700979	0.700979	0	1	0	0	CorrectCommission	0.134381	0.552389	1	0
190.654694	0.792262	city	6	1	0.794985	0.794985	0	1	0	0	CorrectCommission	0.767657	0.620108	1	0
191.447006	0.792374	city	3	1	0.646021	0.646021	0	1	0	0	CorrectCommission	0.235852	0.694231	1	0
192.239380	0.792374	city	6	1	0.646018	0.646018	0	1	0	0	CorrectCommission	0.235869	0.772458	0	0
193.031601	0.792051	city	2	1	0.546481	0.546481	0	1	0	0	CorrectCommission	0.906412	0.852116	0	0
193.823746	0.792258	city	4	1	0.548259	0.548259	0	1	0	0	CorrectCommission	0.894435	0.930475	0	0
194.616043	0.792334	city	3	1	0.497428	0.497428	0	1	0	0	CorrectCommission	1.236861	1.005103	0	0
195.408310	0.792198	city	9	1	0.398254	0.398254	0	1	0	0	CorrectCommission	1.904952	1.074204	0	0
196.200607	0.792374	city	4	1	0.448626	0.448626	0	1	0	0	CorrectCommission	1.565618	1.136824	0	0
196.992874	0.792164	city	8	1	0.454318	0.454318	0	1	0	0	CorrectCommission	1.527273	1.192918	0	0
197.785080	0.792270	city	7	1	0.353831	0.353831	0	1	0	0	CorrectCommission	2.204211	1.243172	0	0
198.577362	0.792290	mountain	2	1	0.408214	0.408214	0	0	1	0	CommissionError	1.837860	1.288617	0	0
199.369675	0.792335	city	7	1	0.645696	0.645696	0	1	0	0	CorrectCommission	0.238043	1.330192	0	0
200.161972	0.792265	city	9	1	0.695173	0.695173	0	1	0	0	CorrectCommission	0.095266	1.368253	0	0
200.954193	0.792154	city	5	1	0.645924	0.645924	0	1	0	0	CorrectCommission	0.236506	1.402179	0	0
201.746429	0.792327	city	4	1	0.449576	0.449576	0	1	0	0	CorrectCommission	1.559217	1.430263	0	0
202.538696	0.792202	city	8	1	0.447684	0.447684	0	1	0	0	CorrectCommission	1.571962	1.449849	0	0
203.330933	0.792269	city	2	1	0.348674	0.348674	0	1	0	0	CorrectCommission	2.238953	1.457872	0	0
204.123245	0.792370	city	8	1	0.299301	0.299301	0	1	0	0	CorrectCommission	2.571554	1.451375	0	0
204.915543	0.792207	city	2	1	0.299018	0.299018	0	1	0	0	CorrectCommission	2.573465	1.428221	0	0
205.707748	0.792212	city	5	1	0.348729	0.348729	0	1	0	0	CorrectCommission	2.238582	1.387630	0	0
206.499985	0.792267	city	10	1	0.448123	0.448123	0	1	0	0	CorrectCommission	1.569004	1.330515	0	0
207.292252	0.792267	city	7	1	0.546728	0.546728	0	1	0	0	CorrectCommission	0.904745	1.259504	0	0
208.084564	0.792370	city	4	0	0.000000	0.478229	0	0	0	1	OmissionError	1.366196	1.178654	0	0
208.876938	0.792376	city	5	1	0.447473	0.447473	0	1	0	0	CorrectCommission	1.573388	1.092944	0	0
209.669159	0.792049	city	8	1	0.659307	0.659307	0	1	0	0	CorrectCommission	0.146350	1.007647	0	0
210.461426	0.792480	city	6	1	0.745065	0.745065	0	1	0	0	CorrectCommission	0.431368	0.927693	0	0
211.253693	0.792051	mountain	8	0	0.000000	0.716641	1	0	0	0	CorrectOmission	0.239886	0.857020	0	0
212.045837	0.792263	city	3	1	0.647245	0.647245	0	1	0	0	CorrectCommission	0.227603	0.798227	0	0
212.838211	0.792481	city	9	1	0.610090	0.610090	0	1	0	0	CorrectCommission	0.477905	0.752390	0	0
213.630478	0.792054	city	2	1	0.595996	0.595996	0	1	0	0	CorrectCommission	0.572850	0.719137	1	0
214.422638	0.792261	city	6	1	0.553260	0.553260	0	1	0	0	CorrectCommission	0.860743	0.696943	1	0
215.214951	0.792371	city	10	1	0.608147	0.608147	0	1	0	0	CorrectCommission	0.490994	0.683505	1	0
216.007248	0.792222	city	8	1	0.546678	0.546678	0	1	0	0	CorrectCommission	0.905085	0.676266	1	0
216.799469	0.792203	city	7	1	0.597522	0.597522	0	1	0	0	CorrectCommission	0.562569	0.672861	1	0
217.591690	0.792263	city	4	1	0.645847	0.645847	0	1	0	0	CorrectCommission	0.237026	0.671497	1	0
218.383957	0.792261	city	8	1	0.992621	0.992621	0	1	0	0	CorrectCommission	2.099046	0.671167	1	0
219.176224	0.792269	city	4	1	0.798763	0.798763	0	1	0	0	CorrectCommission	0.793108	0.671646	1	0
219.968491	0.792260	city	10	1	0.794421	0.794421	0	1	0	0	CorrectCommission	0.763857	0.673485	1	0
220.760742	0.792264	city	1	1	0.745671	0.745671	0	1	0	0	CorrectCommission	0.435451	0.677660	1	0
221.553131	0.792484	city	7	1	0.665609	0.665609	0	1	0	0	CorrectCommission	0.103893	0.685284	1	0
222.345505	0.792266	city	2	1	0.705679	0.705679	0	1	0	0	CorrectCommission	0.166044	0.697289	1	0
223.137650	0.792046	city	10	1	0.695074	0.695074	0	1	0	0	CorrectCommission	0.094596	0.714261	1	0
223.929810	0.792267	city	7	1	0.747162	0.747162	0	1	0	0	CorrectCommission	0.445494	0.736249	1	0
224.722137	0.792372	city	10	1	0.797655	0.797655	0	1	0	0	CorrectCommission	0.785641	0.762884	0	0
225.514389	0.792153	city	2	1	0.943577	0.943577	0	1	0	0	CorrectCommission	1.768659	0.793524	0	0
226.306610	0.792268	city	3	1	0.844302	0.844302	0	1	0	0	CorrectCommission	1.099885	0.827457	0	0
227.098984	0.792483	city	9	1	0.798389	0.798389	0	1	0	0	CorrectCommission	0.790589	0.864180	0	0
227.891296	0.792154	city	1	1	0.794117	0.794117	0	1	0	0	CorrectCommission	0.761811	0.903431	0	0
228.683563	0.792374	city	3	1	0.794180	0.794180	0	1	0	0	CorrectCommission	0.762237	0.945190	0	0
229.475769	0.792048	city	2	1	0.893247	0.893247	0	1	0	0	CorrectCommission	1.429609	0.989537	0	0
230.267929	0.792264	city	9	1	0.794282	0.794282	0	1	0	0	CorrectCommission	0.762922	1.036414	0	0
231.060196	0.792263	city	1	1	0.794325	0.794325	0	1	0	0	CorrectCommission	0.763215	1.085383	0	0
231.852463	0.792266	city	7	1	0.794621	0.794621	0	1	0	0	CorrectCommission	0.765203	1.135364	0	0
232.644836	0.792482	city	5	1	0.794359	0.794359	0	1	0	0	CorrectCommission	0.763440	1.184516	0	0
233.437149	0.792156	city	2	1	0.813495	0.813495	0	1	0	0	CorrectCommission	0.892350	1.230258	0	0
234.229309	0.792159	city	8	1	0.948177	0.948177	0	1	0	0	CorrectCommission	1.799650	1.269440	0	0
235.021515	0.792266	city	7	1	0.942860	0.942860	0	1	0	0	CorrectCommission	1.763828	1.298675	0	0
235.813782	0.792263	city	10	1	0.943243	0.943243	0	1	0	0	CorrectCommission	1.766407	1.314759	0	0
236.606049	0.792262	city	4	1	0.898321	0.898321	0	1	0	0	CorrectCommission	1.463789	1.315137	0	0
237.398346	0.792329	city	10	1	0.844277	0.844277	0	1	0	0	CorrectCommission	1.099719	1.298282	0	0
238.190598	0.792194	city	8	1	1.345468	1.345468	0	1	0	0	CorrectCommission	4.476029	1.263952	0	0
238.982834	0.792273	city	5	1	0.794299	0.794299	0	1	0	0	CorrectCommission	0.763036	1.213197	0	0
239.775101	0.792261	city	9	1	0.597671	0.597671	0	1	0	0	CorrectCommission	0.561567	1.148467	0	0
240.567368	0.792281	city	5	1	0.596731	0.596731	0	1	0	0	CorrectCommission	0.567898	1.073157	0	0
241.359634	0.792250	mountain	10	1	0.598349	0.598349	0	0	1	0	CommissionError	0.556999	0.991333	0	0
242.151947	0.792374	city	10	1	0.893568	0.893568	0	1	0	0	CorrectCommission	1.431767	0.907354	0	0
242.944229	0.792168	city	1	1	0.843816	0.843816	0	1	0	0	CorrectCommission	1.096615	0.825468	0	0
243.736496	0.792362	city	5	1	0.762261	0.762261	0	1	0	0	CorrectCommission	0.547213	0.749579	0	0
244.528809	0.792265	mountain	10	0	0.000000	0.661260	1	0	0	0	CorrectOmission	0.133194	0.682977	1	0
245.321014	0.792155	city	5	1	0.609857	0.609857	0	1	0	0	CorrectCommission	0.479474	0.628187	1	0
246.113220	0.792267	mountain	6	0	0.000000	0.677099	1	0	0	0	CorrectOmission	0.026490	0.586890	1	1
246.905548	0.792369	city	9	1	0.744901	0.744901	0	1	0	0	CorrectCommission	0.430263	0.559919	1	1
247.697861	0.792267	city	2	1	0.695177	0.695177	0	1	0	0	CorrectCommission	0.095296	0.547291	1	1
248.490128	0.792264	city	7	1	0.614122	0.614122	0	1	0	0	CorrectCommission	0.450737	0.548301	1	1
249.282333	0.792155	city	3	1	0.646141	0.646141	0	1	0	0	CorrectCommission	0.235044	0.561619	1	1
250.074554	0.792272	city	9	1	0.596217	0.596217	0	1	0	0	CorrectCommission	0.571356	0.585448	1	1
250.866821	0.792265	city	5	1	0.559832	0.559832	0	1	0	0	CorrectCommission	0.816468	0.617633	1	1
251.659180	0.792475	city	3	1	0.559556	0.559556	0	1	0	0	CorrectCommission	0.818330	0.655794	1	1
252.451477	0.792111	city	6	1	0.600507	0.600507	0	1	0	0	CorrectCommission	0.542461	0.697443	1	1
253.243637	0.792199	mountain	10	1	0.596232	0.596232	0	0	1	0	CommissionError	0.571261	0.740084	1	1
254.035980	0.792483	city	8	1	0.596249	0.596249	0	1	0	0	CorrectCommission	0.571143	0.781284	0	1
254.828247	0.792047	city	9	1	0.546485	0.546485	0	1	0	0	CorrectCommission	0.906382	0.818799	0	1
255.620453	0.792373	city	5	1	0.547147	0.547147	0	1	0	0	CorrectCommission	0.901924	0.850583	0	1
256.412720	0.792149	city	1	1	0.497213	0.497213	0	1	0	0	CorrectCommission	1.238306	0.875006	0	1
257.204926	0.792277	city	5	1	0.458815	0.458815	0	1	0	0	CorrectCommission	1.496982	0.890872	0	1
257.997314	0.792477	city	9	1	0.497202	0.497202	0	1	0	0	CorrectCommission	1.238385	0.897465	0	1
258.789581	0.792071	city	5	1	0.496944	0.496944	0	1	0	0	CorrectCommission	1.240121	0.894607	0	1
259.581848	0.792459	city	10	1	0.794242	0.794242	0	1	0	0	CorrectCommission	0.762650	0.882606	0	1
260.374084	0.792045	city	4	1	0.604456	0.604456	0	1	0	0	CorrectCommission	0.515856	0.862191	0	1
261.166260	0.792267	city	6	1	0.561481	0.561481	0	1	0	0	CorrectCommission	0.805360	0.834497	0	1
261.958557	0.792372	city	8	1	0.553741	0.553741	0	1	0	0	CorrectCommission	0.857503	0.800991	0	1
262.750824	0.792160	city	9	1	0.546741	0.546741	0	1	0	0	CorrectCommission	0.904658	0.763452	0	1
263.543060	0.792260	city	2	1	0.546719	0.546719	0	1	0	0	CorrectCommission	0.904804	0.723956	1	1
264.335419	0.792484	city	1	1	0.547896	0.547896	0	1	0	0	CorrectCommission	0.896878	0.684820	1	1
265.127747	0.792155	city	9	1	0.548180	0.548180	0	1	0	0	CorrectCommission	0.894963	0.648526	1	1
265.920013	0.792373	city	10	1	0.607944	0.607944	0	1	0	0	CorrectCommission	0.492357	0.617566	1	1
266.712219	0.792047	city	3	1	0.645914	0.645914	0	1	0	0	CorrectCommission	0.236570	0.594230	1	1
267.504364	0.792265	city	2	1	0.649163	0.649163	0	1	0	0	CorrectCommission	0.214685	0.580326	1	1
268.296631	0.792266	city	1	1	0.651836	0.651836	0	1	0	0	CorrectCommission	0.196678	0.576909	1	1
269.088898	0.792264	city	4	1	0.654958	0.654958	0	1	0	0	CorrectCommission	0.175643	0.584064	1	1
269.881287	0.792483	city	8	1	0.645752	0.645752	0	1	0	0	CorrectCommission	0.237663	0.600782	1	1
270.673584	0.792156	city	9	1	0.613943	0.613943	0	1	0	0	CorrectCommission	0.451948	0.624980	1	1
271.465759	0.792155	mountain	7	1	0.646193	0.646193	0	0	1	0	CommissionError	0.234695	0.653670	1	1
272.257965	0.792269	city	5	1	0.800773	0.800773	0	1	0	0	CorrectCommission	0.806648	0.683293	1	1
273.050323	0.792480	city	2	1	0.745397	0.745397	0	1	0	0	CorrectCommission	0.433607	0.710116	1	1
273.842590	0.792047	mountain	10	0	0.000000	0.443147	1	0	0	0	CorrectOmission	1.602528	0.730723	1	1
274.634766	0.792266	city	10	1	0.305708	0.305708	0	1	0	0	CorrectCommission	2.528395	0.742367	1	1
275.427002	0.792262	city	6	1	0.744768	0.744768	0	1	0	0	CorrectCommission	0.429369	0.743311	1	1
276.219299	0.792288	city	8	1	0.547275	0.547275	0	1	0	0	CorrectCommission	0.901062	0.733004	1	1
277.011566	0.792241	city	9	1	0.564827	0.564827	0	1	0	0	CorrectCommission	0.782820	0.711935	1	1
277.803833	0.792323	city	8	1	0.564670	0.564670	0	1	0	0	CorrectCommission	0.783879	0.681510	1	1
278.596100	0.792208	city	9	1	0.596163	0.596163	0	1	0	0	CorrectCommission	0.571725	0.643733	1	1
279.388336	0.792266	city	3	1	0.647680	0.647680	0	1	0	0	CorrectCommission	0.224675	0.600915	1	1
280.180603	0.792263	city	6	1	0.645777	0.645777	0	1	0	0	CorrectCommission	0.237491	0.555384	1	1
280.972870	0.792266	city	8	1	0.596205	0.596205	0	1	0	0	CorrectCommission	0.571442	0.509291	1	1
281.765198	0.792378	city	1	1	0.596363	0.596363	0	1	0	0	CorrectCommission	0.570378	0.464490	1	1
282.557495	0.792257	city	2	1	0.596129	0.596129	0	1	0	0	CorrectCommission	0.571951	0.422536	1	1
283.349731	0.792163	city	10	1	0.597428	0.597428	0	1	0	0	CorrectCommission	0.563203	0.384720	1	1
284.141998	0.792367	mountain	2	0	0.000000	0.646487	1	0	0	0	CorrectOmission	0.232709	0.352115	1	1
284.934235	0.792156	city	2	1	0.695150	0.695150	0	1	0	0	CorrectCommission	0.095112	0.325607	1	1
285.726501	0.792373	city	6	1	0.695259	0.695259	0	1	0	0	CorrectCommission	0.095842	0.305889	1	1
286.518768	0.792156	city	9	1	0.698575	0.698575	0	1	0	0	CorrectCommission	0.118187	0.293429	1	1
287.311035	0.792373	city	5	1	0.695711	0.695711	0	1	0	0	CorrectCommission	0.098890	0.288409	1	1
288.103302	0.792160	city	2	1	0.695314	0.695314	0	1	0	0	CorrectCommission	0.096217	0.290657	1	1
288.895508	0.792248	city	8	1	0.645951	0.645951	0	1	0	0	CorrectCommission	0.236324	0.299607	1	1
289.687897	0.792495	city	3	1	0.651676	0.651676	0	1	0	0	CorrectCommission	0.197753	0.314258	1	1
290.480164	0.792063	city	5	1	0.645498	0.645498	0	1	0	0	CorrectCommission	0.239374	0.333255	1	1
291.272369	0.792357	city	6	1	0.609558	0.609558	0	1	0	0	CorrectCommission	0.481483	0.354926	1	1
292.064636	0.792158	city	4	1	0.645652	0.645652	0	1	0	0	CorrectCommission	0.238338	0.377432	1	1
292.856873	0.792331	city	7	1	0.596227	0.596227	0	1	0	0	CorrectCommission	0.571290	0.398996	1	1
293.649231	0.792360	city	9	1	0.695189	0.695189	0	1	0	0	CorrectCommission	0.095372	0.418046	1	1
294.441559	0.792319	city	3	1	0.794138	0.794138	0	1	0	0	CorrectCommission	0.761955	0.433464	1	1
295.233734	0.792047	city	4	1	0.794127	0.794127	0	1	0	0	CorrectCommission	0.761880	0.444711	1	1
296.025909	0.792305	city	6	1	0.843850	0.843850	0	1	0	0	CorrectCommission	1.096842	0.451977	1	1
296.818207	0.792245	mountain	3	0	0.000000	0.769948	1	0	0	0	CorrectOmission	0.598995	0.456169	1	1
297.610443	0.792246	city	2	1	0.695795	0.695795	0	1	0	0	CorrectCommission	0.099458	0.458842	1	1
298.402679	0.792264	city	3	1	0.744766	0.744766	0	1	0	0	CorrectCommission	0.429351	0.461978	1	1
299.194946	0.792265	city	6	1	0.746087	0.746087	0	1	0	0	CorrectCommission	0.438255	0.467705	1	1
299.987213	0.792265	city	8	1	0.744763	0.744763	0	1	0	0	CorrectCommission	0.429335	0.477974	1	1
300.779480	0.792264	city	9	1	0.695610	0.695610	0	1	0	0	CorrectCommission	0.098211	0.494251	1	1
301.571869	0.792483	city	5	1	0.695273	0.695273	0	1	0	0	CorrectCommission	0.095938	0.517239	1	1
302.364136	0.792051	city	7	1	0.646066	0.646066	0	1	0	0	CorrectCommission	0.235549	0.546708	1	1
303.156281	0.792259	city	6	1	0.744780	0.744780	0	1	0	0	CorrectCommission	0.429448	0.581473	1	1
303.948547	0.792295	city	5	1	0.756231	0.756231	0	1	0	0	CorrectCommission	0.506588	0.619544	1	1
304.740814	0.792242	city	8	1	0.744810	0.744810	0	1	0	0	CorrectCommission	0.429649	0.658387	1	1
305.533142	0.792369	city	7	1	0.843815	0.843815	0	1	0	0	CorrectCommission	1.096608	0.695326	1	0
306.325409	0.792184	city	8	1	0.809850	0.809850	0	1	0	0	CorrectCommission	0.867794	0.727965	1	0
307.117615	0.792234	city	2	1	0.893272	0.893272	0	1	0	0	CorrectCommission	1.429778	0.754644	0	0
307.909912	0.792375	city	5	1	0.857092	0.857092	0	1	0	0	CorrectCommission	1.186044	0.774726	0	0
308.702301	0.792373	city	8	1	0.844120	0.844120	0	1	0	0	CorrectCommission	1.098656	0.788799	0	0
309.494629	0.792265	city	4	1	0.843644	0.843644	0	1	0	0	CorrectCommission	1.095452	0.798617	0	0
310.286835	0.792156	city	5	1	0.794213	0.794213	0	1	0	0	CorrectCommission	0.762459	0.806814	0	0
311.078979	0.792160	city	3	1	0.794564	0.794564	0	1	0	0	CorrectCommission	0.764818	0.816490	0	0
311.871216	0.792321	city	7	1	0.745645	0.745645	0	1	0	0	CorrectCommission	0.435272	0.830620	0	0
312.663544	0.792311	city	5	1	0.744737	0.744737	0	1	0	0	CorrectCommission	0.429160	0.851478	0	0
313.455780	0.792164	city	7	1	0.695196	0.695196	0	1	0	0	CorrectCommission	0.095420	0.880114	0	0
314.248047	0.792367	city	3	1	0.596161	0.596161	0	1	0	0	CorrectCommission	0.571735	0.916046	0	0
315.040314	0.792158	city	2	1	0.645708	0.645708	0	1	0	0	CorrectCommission	0.237956	0.957139	0	0
315.832520	0.792292	city	6	1	0.512004	0.512004	0	1	0	0	CorrectCommission	1.138665	0.999897	0	0
316.624847	0.792343	city	9	1	0.505406	0.505406	0	1	0	0	CorrectCommission	1.183112	1.039769	0	0
317.417145	0.792229	city	1	1	0.497239	0.497239	0	1	0	0	CorrectCommission	1.238133	1.071931	0	0
318.209412	0.792301	city	4	1	0.454147	0.454147	0	1	0	0	CorrectCommission	1.528427	1.091997	0	0
319.001648	0.792221	city	5	1	1.042636	1.042636	0	1	0	0	CorrectCommission	2.435981	1.096742	0	0
319.793884	0.792203	city	8	1	0.992322	0.992322	0	1	0	0	CorrectCommission	2.097035	1.084646	0	0
320.586121	0.792266	city	2	1	0.942974	0.942974	0	1	0	0	CorrectCommission	1.764598	1.056263	0	0
321.378357	0.792262	city	4	1	0.893449	0.893449	0	1	0	0	CorrectCommission	1.430966	1.014127	0	0
322.170746	0.792482	city	6	1	0.794308	0.794308	0	1	0	0	CorrectCommission	0.763095	0.962430	0	0
322.963013	0.792045	city	10	1	0.695019	0.695019	0	1	0	0	CorrectCommission	0.094231	0.906451	0	0
323.755157	0.792269	city	6	1	0.744875	0.744875	0	1	0	0	CorrectCommission	0.430087	0.851842	0	0
324.547546	0.792479	city	1	1	0.794264	0.794264	0	1	0	0	CorrectCommission	0.762798	0.803834	0	0
325.339813	0.792049	city	6	1	0.647741	0.647741	0	1	0	0	CorrectCommission	0.224266	0.766613	0	0
326.132019	0.792372	city	7	1	0.715446	0.715446	0	1	0	0	CorrectCommission	0.231840	0.742846	1	0
326.924286	0.792160	city	2	1	0.744690	0.744690	0	1	0	0	CorrectCommission	0.428841	0.733416	1	0
327.716522	0.792306	city	10	1	0.700588	0.700588	0	1	0	0	CorrectCommission	0.131747	0.737471	1	0
328.508789	0.792244	city	8	1	0.700638	0.700638	0	1	0	0	CorrectCommission	0.132084	0.752687	0	0
329.301025	0.792241	city	10	1	0.744976	0.744976	0	1	0	0	CorrectCommission	0.430770	0.775711	0	0
330.093292	0.792262	city	7	1	0.748137	0.748137	0	1	0	0	CorrectCommission	0.452059	0.802711	0	0
330.885590	0.792373	mountain	1	1	1.299308	1.299308	0	0	1	0	CommissionError	4.165068	0.829914	0	0
331.677917	0.792265	city	2	1	0.794238	0.794238	0	1	0	0	CorrectCommission	0.762624	0.853973	0	0
332.470154	0.792193	city	6	1	0.794643	0.794643	0	1	0	0	CorrectCommission	0.765354	0.872490	0	0
333.262360	0.792230	city	8	1	0.650716	0.650716	0	1	0	0	CorrectCommission	0.204224	0.883913	0	0
334.054596	0.792266	city	9	1	0.704763	0.704763	0	1	0	0	CorrectCommission	0.159867	0.887614	0	0
334.846863	0.792264	mountain	7	1	0.611935	0.611935	0	0	1	0	CommissionError	0.465476	0.883735	0	0
335.639130	0.792266	city	8	1	1.048707	1.048707	0	1	0	0	CorrectCommission	2.476877	0.873011	0	0
336.431427	0.792310	mountain	8	0	0.000000	0.919012	1	0	0	0	CorrectOmission	1.603173	0.856560	0	0
337.223755	0.792325	city	4	1	0.645670	0.645670	0	1	0	0	CorrectCommission	0.238213	0.835821	0	0
338.016022	0.792264	city	2	1	0.651505	0.651505	0	1	0	0	CorrectCommission	0.198908	0.812382	0	0
338.808289	0.792266	city	7	1	0.546996	0.546996	0	1	0	0	CorrectCommission	0.902937	0.787842	0	0
339.600525	0.792158	mountain	3	1	0.546603	0.546603	0	0	1	0	CommissionError	0.905587	0.763730	0	0
340.392731	0.792267	city	3	1	0.843905	0.843905	0	1	0	0	CorrectCommission	1.097210	0.741435	1	0
341.184998	0.792263	mountain	2	0	0.000000	0.790749	1	0	0	0	CorrectOmission	0.739120	0.722097	1	0
341.977356	0.792479	mountain	10	1	0.665014	0.665014	0	0	1	0	CommissionError	0.107900	0.706540	1	0
342.769623	0.792066	city	8	1	0.744581	0.744581	0	1	0	0	CorrectCommission	0.428108	0.695261	1	0
343.561829	0.792354	city	5	1	0.614095	0.614095	0	1	0	0	CorrectCommission	0.450922	0.688397	1	0
344.354095	0.792170	city	9	1	0.613063	0.613063	0	1	0	0	CorrectCommission	0.457875	0.685804	1	0
345.146362	0.792360	city	7	1	0.501992	0.501992	0	1	0	0	CorrectCommission	1.206114	0.687138	1	0
345.938751	0.792375	city	4	1	0.596475	0.596475	0	1	0	0	CorrectCommission	0.569619	0.691943	1	0
346.730957	0.792052	city	6	1	0.596011	0.596011	0	1	0	0	CorrectCommission	0.572746	0.699803	1	0
347.523102	0.792262	city	1	1	0.546824	0.546824	0	1	0	0	CorrectCommission	0.904099	0.710405	1	0
348.315430	0.792371	city	6	1	0.546958	0.546958	0	1	0	0	CorrectCommission	0.903194	0.723492	1	0
349.107727	0.792263	city	5	1	0.555634	0.555634	0	1	0	0	CorrectCommission	0.844752	0.738972	1	0
349.899963	0.792160	city	9	1	0.794600	0.794600	0	1	0	0	CorrectCommission	0.765066	0.756740	0	0
350.692169	0.792266	city	8	1	0.645788	0.645788	0	1	0	0	CorrectCommission	0.237421	0.776591	0	0
351.484436	0.792264	city	10	1	0.563211	0.563211	0	1	0	0	CorrectCommission	0.793707	0.798143	0	0
352.276794	0.792479	city	7	1	0.613945	0.613945	0	1	0	0	CorrectCommission	0.451931	0.820736	0	0
353.069061	0.792049	city	1	1	0.596542	0.596542	0	1	0	0	CorrectCommission	0.569172	0.843494	0	0
353.861237	0.792262	mountain	4	0	0.000000	0.544191	1	0	0	0	CorrectOmission	0.921837	0.865449	0	0
354.653595	0.792482	city	2	1	0.497530	0.497530	0	1	0	0	CorrectCommission	1.236174	0.885723	0	0
355.445862	0.792048	city	8	1	0.497195	0.497195	0	1	0	0	CorrectCommission	1.238430	0.903740	0	0
356.238007	0.792265	city	1	1	0.453546	0.453546	0	1	0	0	CorrectCommission	1.532472	0.919353	0	0
357.030273	0.792266	city	7	1	0.516155	0.516155	0	1	0	0	CorrectCommission	1.110701	0.932939	0	0
357.822540	0.792278	city	4	1	0.553387	0.553387	0	1	0	0	CorrectCommission	0.859887	0.945343	0	0
358.614807	0.792254	city	3	1	0.562093	0.562093	0	1	0	0	CorrectCommission	0.801240	0.957677	0	0
359.407196	0.792479	city	2	1	0.546819	0.546819	0	1	0	0	CorrectCommission	0.904135	0.971046	0	0
360.199463	0.792053	city	6	1	0.559905	0.559905	0	1	0	0	CorrectCommission	0.815980	0.986208	0	0
360.991730	0.792476	city	3	1	0.611247	0.611247	0	1	0	0	CorrectCommission	0.470109	1.003306	0	0
361.783966	0.792052	city	1	1	0.597254	0.597254	0	1	0	0	CorrectCommission	0.564371	1.021707	0	0
362.576202	0.792368	city	2	1	0.548171	0.548171	0	1	0	0	CorrectCommission	0.895026	1.039947	0	0
363.368469	0.792168	city	8	1	0.546896	0.546896	0	1	0	0	CorrectCommission	0.903611	1.055956	0	0
364.160675	0.792263	city	6	1	0.447807	0.447807	0	1	0	0	CorrectCommission	1.571137	1.067346	0	0
364.953033	0.792474	city	2	1	0.497174	0.497174	0	1	0	0	CorrectCommission	1.238567	1.071829	0	1
365.745422	0.792263	mountain	8	1	0.893693	0.893693	0	0	1	0	CommissionError	1.432615	1.067688	0	1
366.537567	0.792080	city	1	1	1.042019	1.042019	0	1	0	0	CorrectCommission	2.431819	1.054105	0	1
367.329742	0.792235	city	2	1	0.902388	0.902388	0	1	0	0	CorrectCommission	1.491189	1.031350	0	1
368.121979	0.792262	city	5	1	0.843772	0.843772	0	1	0	0	CorrectCommission	1.096318	1.000837	0	1
368.914276	0.792304	city	1	1	0.794766	0.794766	0	1	0	0	CorrectCommission	0.766180	0.964859	0	1
369.706635	0.792444	city	8	1	0.708450	0.708450	0	1	0	0	CorrectCommission	0.184705	0.926253	0	1
370.498901	0.792046	city	2	1	0.794070	0.794070	0	1	0	0	CorrectCommission	0.761496	0.887952	0	1
371.291107	0.792375	mountain	1	0	0.000000	0.688248	1	0	0	0	CorrectOmission	0.048618	0.852532	0	1
372.083466	0.792373	city	4	1	0.552042	0.552042	0	1	0	0	CorrectCommission	0.868950	0.821918	0	1
372.875732	0.792154	city	6	1	0.546508	0.546508	0	1	0	0	CorrectCommission	0.906227	0.797120	0	1
373.667999	0.792375	city	9	1	0.565562	0.565562	0	1	0	0	CorrectCommission	0.777868	0.778210	0	1
374.460205	0.792046	city	5	1	0.546525	0.546525	0	1	0	0	CorrectCommission	0.906116	0.764398	0	1
375.252411	0.792324	city	8	1	0.596364	0.596364	0	1	0	0	CorrectCommission	0.570371	0.754227	0	1
376.044678	0.792205	city	7	1	0.744711	0.744711	0	1	0	0	CorrectCommission	0.428985	0.745844	1	1
376.836884	0.792266	city	4	1	0.794299	0.794299	0	1	0	0	CorrectCommission	0.763038	0.737290	1	1
377.629211	0.792371	city	1	1	0.744769	0.744769	0	1	0	0	CorrectCommission	0.429375	0.726782	1	1
378.421539	0.792266	city	10	1	0.946473	0.946473	0	1	0	0	CorrectCommission	1.788167	0.713012	1	1
379.213745	0.792159	city	4	1	0.805944	0.805944	0	1	0	0	CorrectCommission	0.841482	0.695283	1	1
380.006073	0.792481	city	10	1	0.794689	0.794689	0	1	0	0	CorrectCommission	0.765665	0.673673	1	1
380.798431	0.792263	city	7	1	0.800702	0.800702	0	1	0	0	CorrectCommission	0.806174	0.648962	1	1
381.590607	0.792048	mountain	4	0	0.000000	0.789797	1	0	0	0	CorrectOmission	0.732706	0.622499	1	1
382.382751	0.792268	city	9	1	0.744745	0.744745	0	1	0	0	CorrectCommission	0.429210	0.595989	1	1
383.175018	0.792261	mountain	1	0	0.000000	0.648320	1	0	0	0	CorrectOmission	0.220364	0.571199	1	1
383.967316	0.792310	city	7	1	0.611461	0.611461	0	1	0	0	CorrectCommission	0.468670	0.549638	1	1
384.759674	0.792436	city	2	1	0.745105	0.745105	0	1	0	0	CorrectCommission	0.431635	0.532315	1	1
385.551971	0.792157	city	3	1	0.695081	0.695081	0	1	0	0	CorrectCommission	0.094647	0.519563	1	1
386.344177	0.792264	city	4	1	0.664152	0.664152	0	1	0	0	CorrectCommission	0.113707	0.510987	1	1
387.136414	0.792194	city	3	1	0.596254	0.596254	0	1	0	0	CorrectCommission	0.571111	0.505516	1	1
387.928619	0.792229	mountain	10	0	0.000000	0.578146	1	0	0	0	CorrectOmission	0.693096	0.501566	1	1
388.720917	0.792370	city	3	1	0.598485	0.598485	0	1	0	0	CorrectCommission	0.556082	0.497400	1	1
389.513306	0.792374	city	2	1	0.645927	0.645927	0	1	0	0	CorrectCommission	0.236487	0.491366	1	1
390.305511	0.792048	city	7	1	0.549926	0.549926	0	1	0	0	CorrectCommission	0.883205	0.482261	1	1
391.097778	0.792483	city	3	1	0.510846	0.510846	0	1	0	0	CorrectCommission	1.146466	0.469567	1	1
391.890045	0.792047	city	10	1	0.510577	0.510577	0	1	0	0	CorrectCommission	1.148279	0.453624	1	1
392.682312	0.792481	city	5	1	0.645787	0.645787	0	1	0	0	CorrectCommission	0.237429	0.435638	1	1
393.474609	0.792156	city	3	1	0.695048	0.695048	0	1	0	0	CorrectCommission	0.094425	0.417592	1	1
394.266815	0.792220	city	2	1	0.656285	0.656285	0	1	0	0	CorrectCommission	0.166708	0.402011	1	1
395.059021	0.792203	city	10	1	0.696367	0.696367	0	1	0	0	CorrectCommission	0.103308	0.391644	1	1
395.851257	0.792296	mountain	10	0	0.000000	0.677715	1	0	0	0	CorrectOmission	0.022343	0.389139	1	1
396.643524	0.792234	city	5	1	0.645747	0.645747	0	1	0	0	CorrectCommission	0.237696	0.396774	1	1
397.435791	0.792305	city	8	1	0.645882	0.645882	0	1	0	0	CorrectCommission	0.236785	0.416170	1	1
398.228058	0.792222	city	10	1	0.645973	0.645973	0	1	0	0	CorrectCommission	0.236174	0.448123	1	1
399.020325	0.792291	city	7	1	0.744771	0.744771	0	1	0	0	CorrectCommission	0.429385	0.492492	1	1
399.812622	0.792284	city	8	1	0.748517	0.748517	0	1	0	0	CorrectCommission	0.454624	0.548155	1	1
400.604858	0.792240	city	9	1	0.654758	0.654758	0	1	0	0	CorrectCommission	0.176992	0.613048	1	1
401.397156	0.792353	city	7	1	0.610209	0.610209	0	1	0	0	CorrectCommission	0.477103	0.684270	1	1
402.189423	0.792156	city	4	1	0.646467	0.646467	0	1	0	0	CorrectCommission	0.232843	0.758239	0	1
402.981628	0.792271	city	2	1	0.697622	0.697622	0	1	0	0	CorrectCommission	0.111764	0.830989	0	1
403.773956	0.792367	city	1	1	1.059225	1.059225	0	1	0	0	CorrectCommission	2.547731	0.898440	0	1
404.566254	0.792226	city	4	1	0.893248	0.893248	0	1	0	0	CorrectCommission	1.429616	0.956679	0	1
405.358582	0.792412	city	1	1	0.893371	0.893371	0	1	0	0	CorrectCommission	1.430445	1.002418	0	1
406.150787	0.792050	city	8	1	0.893211	0.893211	0	1	0	0	CorrectCommission	1.429367	1.033137	0	1
406.942963	0.792266	city	6	1	0.893297	0.893297	0	1	0	0	CorrectCommission	1.429945	1.047332	0	1
407.735229	0.792265	mountain	10	0	0.000000	0.769661	1	0	0	0	CorrectOmission	0.597060	1.044613	0	1
408.527496	0.792261	mountain	4	1	0.745131	0.745131	0	0	1	0	CommissionError	0.431809	1.025826	0	1
409.319763	0.792264	city	4	1	1.042533	1.042533	0	1	0	0	CorrectCommission	2.435284	0.992979	0	1
410.112000	0.792263	city	2	1	0.893442	0.893442	0	1	0	0	CorrectCommission	1.430921	0.949152	0	1
410.904266	0.792271	city	7	1	0.843918	0.843918	0	1	0	0	CorrectCommission	1.097298	0.898450	0	1
411.696655	0.792479	city	3	1	0.844342	0.844342	0	1	0	0	CorrectCommission	1.100154	0.845667	0	1
412.488953	0.792117	mountain	6	0	0.000000	0.756514	1	0	0	0	CorrectOmission	0.508494	0.795977	0	1
413.281158	0.792302	city	1	1	0.665149	0.665149	0	1	0	0	CorrectCommission	0.106996	0.754548	0	1
414.073395	0.792162	city	10	1	0.654960	0.654960	0	1	0	0	CorrectCommission	0.175635	0.726072	1	1
414.865601	0.792264	city	8	1	0.646271	0.646271	0	1	0	0	CorrectCommission	0.234166	0.714310	1	1
415.657867	0.792260	city	10	1	0.645962	0.645962	0	1	0	0	CorrectCommission	0.236248	0.721740	1	1
416.450165	0.792309	mountain	9	0	0.000000	0.628148	1	0	0	0	CorrectOmission	0.356254	0.749253	0	1
417.242432	0.792223	city	7	1	0.656396	0.656396	0	1	0	0	CorrectCommission	0.165959	0.796027	0	1
418.034668	0.792262	city	3	1	0.794273	0.794273	0	1	0	0	CorrectCommission	0.762863	0.859562	0	1
418.827026	0.792482	city	8	1	0.745372	0.745372	0	1	0	0	CorrectCommission	0.433435	0.935916	0	1
419.619354	0.792156	city	10	1	0.757110	0.757110	0	1	0	0	CorrectCommission	0.512508	1.020067	0	1
420.411499	0.792159	city	5	1	0.992375	0.992375	0	1	0	0	CorrectCommission	2.097392	1.106394	0	1
421.203827	0.792479	city	7	1	0.893324	0.893324	0	1	0	0	CorrectCommission	1.430125	1.189185	0	1
421.996094	0.792072	city	1	1	0.893392	0.893392	0	1	0	0	CorrectCommission	1.430582	1.263335	0	1
422.788300	0.792305	city	7	1	0.794803	0.794803	0	1	0	0	CorrectCommission	0.766431	1.324785	0	1
423.580536	0.792203	city	10	1	1.092509	1.092509	0	1	0	0	CorrectCommission	2.771952	1.370970	0	1
424.372894	0.792479	city	9	1	1.041890	1.041890	0	1	0	0	CorrectCommission	2.430956	1.400972	0	0
425.165192	0.792096	city	10	1	0.942622	0.942622	0	1	0	0	CorrectCommission	1.762229	1.415646	0	0
425.957336	0.792217	city	3	1	0.992300	0.992300	0	1	0	0	CorrectCommission	2.096885	1.417351	0	0
426.749634	0.792370	city	6	1	0.895454	0.895454	0	1	0	0	CorrectCommission	1.444473	1.409469	0	0
427.541901	0.792156	city	4	1	0.804868	0.804868	0	1	0	0	CorrectCommission	0.834238	1.395914	0	0
428.334198	0.792483	city	6	1	0.762297	0.762297	0	1	0	0	CorrectCommission	0.547450	1.380509	0	0
429.126587	0.792264	city	4	1	0.794123	0.794123	0	1	0	0	CorrectCommission	0.761850	1.366406	0	0
429.918732	0.792047	city	10	1	0.596188	0.596188	0	1	0	0	CorrectCommission	0.571557	1.355674	0	0
430.710938	0.792326	city	4	1	0.409565	0.409565	0	1	0	0	CorrectCommission	1.828754	1.349101	0	0
431.503204	0.792204	city	9	1	0.398143	0.398143	0	1	0	0	CorrectCommission	1.905701	1.346205	0	0
432.295532	0.792484	mountain	6	1	0.447683	0.447683	0	0	1	0	CommissionError	1.571969	1.345508	0	0
433.087830	0.792083	city	9	1	0.695425	0.695425	0	1	0	0	CorrectCommission	0.096962	1.344908	0	0
433.880035	0.792337	city	5	1	0.993159	0.993159	0	1	0	0	CorrectCommission	2.102673	1.342181	0	0
434.672302	0.792189	city	6	1	0.952652	0.952652	0	1	0	0	CorrectCommission	1.829794	1.335300	0	0
435.464508	0.792233	city	2	1	0.855695	0.855695	0	1	0	0	CorrectCommission	1.176638	1.322976	0	0
436.256744	0.792264	city	8	1	0.942839	0.942839	0	1	0	0	CorrectCommission	1.763687	1.304870	0	0
437.049072	0.792372	city	1	1	0.942984	0.942984	0	1	0	0	CorrectCommission	1.764664	1.281634	0	0
437.841339	0.792159	city	6	1	0.902305	0.902305	0	1	0	0	CorrectCommission	1.490629	1.254842	0	0
438.633667	0.792480	city	4	1	0.893756	0.893756	0	1	0	0	CorrectCommission	1.433034	1.226748	0	0
439.426025	0.792265	city	2	1	0.843592	0.843592	0	1	0	0	CorrectCommission	1.095104	1.199876	0	0
440.218170	0.792046	city	5	0	0.000000	0.799815	0	0	0	1	OmissionError	0.800197	1.176604	0	0
441.010345	0.792269	city	7	1	0.744794	0.744794	0	1	0	0	CorrectCommission	0.429539	1.158694	0	0
441.802612	0.792269	city	10	1	0.660896	0.660896	0	1	0	0	CorrectCommission	0.135645	1.147016	0	0
442.594879	0.792261	city	9	1	0.695337	0.695337	0	1	0	0	CorrectCommission	0.096370	1.141417	0	0
443.387177	0.792324	city	2	0	0.000000	0.887651	0	0	0	1	OmissionError	1.391912	1.140759	0	0
444.179443	0.792212	city	7	1	1.053696	1.053696	0	1	0	0	CorrectCommission	2.510485	1.143151	0	0
444.979919	0.808781	city	9	1	1.009328	1.009328	0	1	0	0	CorrectCommission	2.211595	1.146288	0	0
445.780487	0.792354	city	5	1	0.794350	0.794350	0	1	0	0	CorrectCommission	0.763382	1.147839	0	0
446.572754	0.792157	city	8	1	0.844703	0.844703	0	1	0	0	CorrectCommission	1.102587	1.145727	0	0
447.364990	0.792323	city	5	1	0.804035	0.804035	0	1	0	0	CorrectCommission	0.828621	1.138308	0	0
448.157257	0.792211	city	1	1	0.794566	0.794566	0	1	0	0	CorrectCommission	0.764837	1.124514	0	0
448.949615	0.792476	city	7	1	0.994833	0.994833	0	1	0	0	CorrectCommission	2.113950	1.103888	0	0
449.741882	0.792070	mountain	10	0	0.000000	0.663867	1	0	0	0	CorrectOmission	0.115626	1.076515	0	0
450.534027	0.792245	mountain	7	1	0.447787	0.447787	0	0	1	0	CommissionError	1.571269	1.043083	0	0
451.326294	0.792266	city	8	1	0.992709	0.992709	0	1	0	0	CorrectCommission	2.099640	1.004602	0	0
452.118652	0.792478	city	1	1	0.843962	0.843962	0	1	0	0	CorrectCommission	1.097596	0.962418	0	0
452.910919	0.792049	city	3	1	0.794181	0.794181	0	1	0	0	CorrectCommission	0.762242	0.918093	0	0
453.703125	0.792332	city	8	1	0.695271	0.695271	0	1	0	0	CorrectCommission	0.095927	0.873204	0	0
454.495392	0.792197	city	4	1	0.695509	0.695509	0	1	0	0	CorrectCommission	0.097528	0.829245	0	0
455.287628	0.792272	city	6	1	0.548380	0.548380	0	1	0	0	CorrectCommission	0.893619	0.787502	0	0
456.079987	0.792474	city	3	1	0.504228	0.504228	0	1	0	0	CorrectCommission	1.191052	0.748986	1	0
456.872314	0.792155	city	4	1	0.497149	0.497149	0	1	0	0	CorrectCommission	1.238741	0.714429	1	0
457.664459	0.792155	city	5	1	0.762319	0.762319	0	1	0	0	CorrectCommission	0.547602	0.684289	1	0
458.456665	0.792265	city	8	1	0.663809	0.663809	0	1	0	0	CorrectCommission	0.116023	0.658795	1	0
459.248932	0.792270	city	5	1	0.596237	0.596237	0	1	0	0	CorrectCommission	0.571223	0.637960	1	0
460.041321	0.792478	city	3	1	0.657094	0.657094	0	1	0	0	CorrectCommission	0.161258	0.621619	1	0
460.833557	0.792046	city	5	1	0.794111	0.794111	0	1	0	0	CorrectCommission	0.761771	0.609525	1	0
461.625793	0.792375	city	9	1	0.596393	0.596393	0	1	0	0	CorrectCommission	0.570170	0.601381	1	0
462.418030	0.792154	mountain	2	1	0.596593	0.596593	0	0	1	0	CommissionError	0.568827	0.596965	1	0
463.210266	0.792268	city	3	1	0.596251	0.596251	0	1	0	0	CorrectCommission	0.571128	0.596199	1	0
464.002533	0.792290	city	7	1	0.844447	0.844447	0	1	0	0	CorrectCommission	1.100859	0.599122	1	0
464.794800	0.792243	city	5	1	0.794314	0.794314	0	1	0	0	CorrectCommission	0.763138	0.605869	1	0
465.587158	0.792478	city	1	1	0.745091	0.745091	0	1	0	0	CorrectCommission	0.431542	0.616583	1	0
466.379425	0.792048	mountain	6	0	0.000000	0.691858	1	0	0	0	CorrectOmission	0.072932	0.631230	1	0
467.171631	0.792371	mountain	9	0	0.000000	0.640303	1	0	0	0	CorrectOmission	0.274373	0.649527	1	0
467.963898	0.792157	city	7	1	0.596114	0.596114	0	1	0	0	CorrectCommission	0.572052	0.670737	1	0
468.756104	0.792253	city	1	1	0.564981	0.564981	0	1	0	0	CorrectCommission	0.781782	0.693662	1	0
469.548370	0.792280	city	9	1	0.546705	0.546705	0	1	0	0	CorrectCommission	0.904903	0.716706	1	0
470.340698	0.792369	city	10	1	0.597309	0.597309	0	1	0	0	CorrectCommission	0.564001	0.738038	1	0
471.133026	0.792264	city	8	1	0.562684	0.562684	0	1	0	0	CorrectCommission	0.797255	0.755849	0	0
471.925232	0.792190	city	10	1	0.596184	0.596184	0	1	0	0	CorrectCommission	0.571583	0.768616	0	0
472.717499	0.792341	mountain	8	1	0.844018	0.844018	0	0	1	0	CommissionError	1.097974	0.775411	0	0
473.509766	0.792159	mountain	7	0	0.000000	0.934663	1	0	0	0	CorrectOmission	1.708611	0.776110	0	0
474.301971	0.792263	city	4	1	0.907302	0.907302	0	1	0	0	CorrectCommission	1.524293	0.771483	0	0
475.094238	0.792261	city	7	1	0.801120	0.801120	0	1	0	0	CorrectCommission	0.808986	0.763099	0	0
475.886505	0.792265	city	9	1	0.762159	0.762159	0	1	0	0	CorrectCommission	0.546519	0.753036	0	0
476.678772	0.792280	mountain	2	0	0.000000	0.722671	1	0	0	0	CorrectOmission	0.280511	0.743383	1	0
477.471069	0.792358	city	10	1	0.660487	0.660487	0	1	0	0	CorrectCommission	0.138402	0.735758	1	0
478.263336	0.792166	mountain	3	1	0.553433	0.553433	0	0	1	0	CommissionError	0.859580	0.730754	1	0
479.055542	0.792256	city	6	1	0.645787	0.645787	0	1	0	0	CorrectCommission	0.237426	0.727556	1	0
479.847870	0.792372	city	2	1	0.600562	0.600562	0	1	0	0	CorrectCommission	0.542090	0.723844	1	0
480.640137	0.792162	city	6	1	0.655513	0.655513	0	1	0	0	CorrectCommission	0.171904	0.715885	1	0
481.432343	0.792260	city	3	1	0.662607	0.662607	0	1	0	0	CorrectCommission	0.124121	0.699037	1	0
482.224609	0.792266	mountain	5	1	0.893299	0.893299	0	0	1	0	CommissionError	1.429956	0.668447	1	0
483.016876	0.792265	city	2	1	0.893454	0.893454	0	1	0	0	CorrectCommission	1.431001	0.619899	1	0
483.809143	0.792262	city	6	1	0.942869	0.942869	0	1	0	0	CorrectCommission	1.763892	0.550733	1	0
484.601440	0.792326	city	1	1	0.893326	0.893326	0	1	0	0	CorrectCommission	1.430138	0.460485	1	0
485.393707	0.792226	city	8	1	0.954640	0.954640	0	1	0	0	CorrectCommission	1.843183	0.351274	1	0
486.185944	0.792247	city	6	1	0.893278	0.893278	0	1	0	0	CorrectCommission	1.429818	0.227715	1	0
486.978302	0.792478	city	2	1	0.695345	0.695345	0	1	0	0	CorrectCommission	0.096427	0.096427	1	0
