onset	duration	trial_type	image_type	Press	ReactionTime	ReactionTime_Interpolated	CorrectOmission	CorrectCommission	CommissionError	OmissionError	response_type	nonsmoothVarianceTimeCourse	VarianceTimeCourse	In_the_Zone	Reward_trial
8.433782	0.792266	city	4	1	1.041945	1.041945	0	1	0	0	CorrectCommission	2.569850	2.569850	0	1
9.226048	0.792267	city	10	1	0.652520	0.652520	0	1	0	0	CorrectCommission	0.583018	2.452784	0	1
10.018315	0.792268	city	5	1	0.511130	0.511130	0	1	0	0	CorrectCommission	1.727748	2.334875	0	1
10.810687	0.792476	city	10	1	0.356155	0.356155	0	1	0	0	CorrectCommission	2.982459	2.215587	0	1
11.602948	0.792047	city	1	1	0.348664	0.348664	0	1	0	0	CorrectCommission	3.043105	2.095044	0	1
12.395160	0.792376	mountain	8	1	0.299323	0.299323	0	0	1	0	CommissionError	3.442576	1.974199	0	1
13.187479	0.792262	mountain	1	1	0.546667	0.546667	0	0	1	0	CommissionError	1.440033	1.854771	0	1
13.979693	0.792167	city	5	1	0.596155	0.596155	0	1	0	0	CorrectCommission	1.039364	1.739101	0	1
14.771905	0.792256	mountain	9	1	0.501466	0.501466	0	0	1	0	CommissionError	1.805987	1.629715	0	1
15.564219	0.792372	city	10	1	0.646660	0.646660	0	1	0	0	CorrectCommission	0.630462	1.528909	0	1
16.356483	0.792155	city	8	1	0.645722	0.645722	0	1	0	0	CorrectCommission	0.638057	1.438364	0	1
17.148726	0.792331	mountain	1	0	0.000000	0.628985	1	0	0	0	CorrectOmission	0.773569	1.358757	0	1
17.940990	0.792199	city	8	1	0.596270	0.596270	0	1	0	0	CorrectCommission	1.038436	1.289653	0	1
18.733278	0.792374	city	5	1	0.547400	0.547400	0	1	0	0	CorrectCommission	1.434095	1.229575	0	1
19.525578	0.792228	city	7	1	0.596193	0.596193	0	1	0	0	CorrectCommission	1.039056	1.176291	0	1
20.317810	0.792235	city	2	1	0.548943	0.548943	0	1	0	0	CorrectCommission	1.421606	1.127200	0	1
21.110039	0.792224	city	5	1	0.555923	0.555923	0	1	0	0	CorrectCommission	1.365093	1.079762	0	1
21.902283	0.792263	city	7	1	0.551934	0.551934	0	1	0	0	CorrectCommission	1.397384	1.031972	0	1
22.694601	0.792373	city	6	1	0.547061	0.547061	0	1	0	0	CorrectCommission	1.436844	0.982599	0	1
23.486866	0.792159	mountain	5	0	0.000000	0.595578	1	0	0	0	CorrectOmission	1.044033	0.931354	0	1
24.279079	0.792267	city	4	1	0.645816	0.645816	0	1	0	0	CorrectCommission	0.637301	0.878877	0	1
25.071398	0.792369	city	8	1	0.646100	0.646100	0	1	0	0	CorrectCommission	0.634997	0.826504	0	1
25.863770	0.792375	city	1	1	0.645788	0.645788	0	1	0	0	CorrectCommission	0.637526	0.776041	0	1
26.655979	0.792046	city	5	1	0.655853	0.655853	0	1	0	0	CorrectCommission	0.556035	0.729431	0	1
27.448149	0.792292	city	2	1	0.602106	0.602106	0	1	0	0	CorrectCommission	0.991188	0.688396	1	1
28.240414	0.792237	city	6	1	0.696701	0.696701	0	1	0	0	CorrectCommission	0.225320	0.654163	1	1
29.032772	0.792480	mountain	6	0	0.000000	0.725938	1	0	0	0	CorrectOmission	0.011388	0.627351	1	1
29.825146	0.792265	city	4	1	0.704172	0.704172	0	1	0	0	CorrectCommission	0.164837	0.607866	1	1
30.617411	0.792266	city	5	1	0.645758	0.645758	0	1	0	0	CorrectCommission	0.637771	0.595001	1	1
31.409622	0.792154	city	10	1	0.615008	0.615008	0	1	0	0	CorrectCommission	0.886725	0.587557	1	1
32.201778	0.792158	city	9	1	0.667417	0.667417	0	1	0	0	CorrectCommission	0.462413	0.584053	1	1
32.994041	0.792372	city	3	1	0.645833	0.645833	0	1	0	0	CorrectCommission	0.637158	0.583014	1	1
33.786362	0.792264	city	5	1	0.607089	0.607089	0	1	0	0	CorrectCommission	0.950844	0.583130	1	1
34.578602	0.792216	city	2	1	0.596157	0.596157	0	1	0	0	CorrectCommission	1.039351	0.583429	1	1
35.370811	0.792205	city	4	1	0.645878	0.645878	0	1	0	0	CorrectCommission	0.636794	0.583374	1	1
36.163048	0.792263	city	7	1	0.707338	0.707338	0	1	0	0	CorrectCommission	0.139200	0.582870	1	1
36.955311	0.792265	city	10	1	0.744855	0.744855	0	1	0	0	CorrectCommission	0.164542	0.582271	1	1
37.747612	0.792340	city	1	1	0.695372	0.695372	0	1	0	0	CorrectCommission	0.236086	0.582309	1	1
38.539879	0.792195	city	6	1	0.657733	0.657733	0	1	0	0	CorrectCommission	0.540815	0.584026	1	1
39.332108	0.792259	city	8	1	0.513797	0.513797	0	1	0	0	CorrectCommission	1.706154	0.588694	1	1
40.124477	0.792483	city	9	1	0.646317	0.646317	0	1	0	0	CorrectCommission	0.633239	0.597671	1	1
40.916798	0.792155	city	3	1	0.652382	0.652382	0	1	0	0	CorrectCommission	0.584139	0.612313	1	1
41.708954	0.792160	city	10	1	0.744838	0.744838	0	1	0	0	CorrectCommission	0.164404	0.633695	1	1
42.501205	0.792345	city	4	1	0.750165	0.750165	0	1	0	0	CorrectCommission	0.207532	0.662409	1	1
43.293491	0.792226	city	3	1	0.745012	0.745012	0	1	0	0	CorrectCommission	0.165814	0.698344	1	1
44.085739	0.792265	mountain	9	0	0.000000	0.782497	1	0	0	0	CorrectOmission	0.469299	0.740546	0	1
44.878090	0.792436	mountain	10	0	0.000000	0.826960	1	0	0	0	CorrectOmission	0.829285	0.787150	0	1
45.670441	0.792266	mountain	1	0	0.000000	0.842744	1	0	0	0	CorrectOmission	0.957069	0.835508	0	1
46.462708	0.792266	city	9	1	0.794187	0.794187	0	1	0	0	CorrectCommission	0.563945	0.882406	0	1
47.254917	0.792155	city	5	1	0.645632	0.645632	0	1	0	0	CorrectCommission	0.638789	0.924432	0	1
48.047180	0.792374	city	3	1	0.550409	0.550409	0	1	0	0	CorrectCommission	1.409731	0.958355	0	1
48.839390	0.792046	city	5	1	0.497075	0.497075	0	1	0	0	CorrectCommission	1.841538	0.981523	0	1
49.631546	0.792263	city	1	1	0.992901	0.992901	0	1	0	0	CorrectCommission	2.172778	0.992215	0	1
50.423809	0.792265	city	2	1	0.942897	0.942897	0	1	0	0	CorrectCommission	1.767930	0.989792	0	1
51.216091	0.792301	city	4	1	0.795612	0.795612	0	1	0	0	CorrectCommission	0.575486	0.974748	0	1
52.008377	0.792266	city	1	1	0.645857	0.645857	0	1	0	0	CorrectCommission	0.636963	0.948514	0	1
52.800625	0.792236	city	2	1	0.600574	0.600574	0	1	0	0	CorrectCommission	1.003584	0.913184	0	1
53.592873	0.792258	city	4	1	0.646202	0.646202	0	1	0	0	CorrectCommission	0.634176	0.871188	0	1
54.385246	0.792484	mountain	2	0	0.000000	0.662565	1	0	0	0	CorrectOmission	0.501692	0.824996	0	1
55.177525	0.792075	city	2	1	0.646862	0.646862	0	1	0	0	CorrectCommission	0.628832	0.776865	0	1
55.969692	0.792258	city	5	1	0.596287	0.596287	0	1	0	0	CorrectCommission	1.038297	0.728692	0	1
56.761940	0.792244	city	8	1	0.615451	0.615451	0	1	0	0	CorrectCommission	0.883136	0.681949	1	1
57.554207	0.792288	city	6	1	0.659987	0.659987	0	1	0	0	CorrectCommission	0.522570	0.637782	1	1
58.346500	0.792299	city	9	1	0.646254	0.646254	0	1	0	0	CorrectCommission	0.633749	0.597056	1	1
59.138756	0.792206	city	5	1	0.660035	0.660035	0	1	0	0	CorrectCommission	0.522179	0.560437	1	1
59.930988	0.792266	city	9	1	0.695777	0.695777	0	1	0	0	CorrectCommission	0.232805	0.528473	1	1
60.723362	0.792480	city	2	1	0.661958	0.661958	0	1	0	0	CorrectCommission	0.506612	0.501603	1	1
61.515629	0.792051	city	7	1	0.695097	0.695097	0	1	0	0	CorrectCommission	0.238311	0.480140	1	1
62.307812	0.792319	city	5	1	0.647964	0.647964	0	1	0	0	CorrectCommission	0.619905	0.464263	1	1
63.100075	0.792205	city	7	1	0.695286	0.695286	0	1	0	0	CorrectCommission	0.236782	0.453942	1	1
63.892418	0.792483	mountain	2	0	0.000000	0.694790	1	0	0	0	CorrectOmission	0.240793	0.448933	1	1
64.684692	0.792067	city	5	1	0.695098	0.695098	0	1	0	0	CorrectCommission	0.238303	0.448726	1	1
65.476959	0.792463	city	10	1	0.744827	0.744827	0	1	0	0	CorrectCommission	0.164320	0.452592	1	1
66.269211	0.792048	city	6	1	0.893789	0.893789	0	1	0	0	CorrectCommission	1.370347	0.459551	1	1
67.061401	0.792326	city	3	1	0.704803	0.704803	0	1	0	0	CorrectCommission	0.159727	0.468475	1	1
67.853722	0.792311	city	6	1	0.699777	0.699777	0	1	0	0	CorrectCommission	0.200422	0.478215	1	0
68.645958	0.792162	mountain	1	1	0.695734	0.695734	0	0	1	0	CommissionError	0.233153	0.487682	1	0
69.438164	0.792262	mountain	9	0	0.000000	0.775164	1	0	0	0	CorrectOmission	0.409933	0.495956	1	0
70.230537	0.792480	city	6	1	0.855723	0.855723	0	1	0	0	CorrectCommission	1.062154	0.502400	1	0
71.022858	0.792157	mountain	1	0	0.000000	0.855065	1	0	0	0	CorrectOmission	1.056829	0.506714	1	0
71.815010	0.792157	city	6	1	0.794576	0.794576	0	1	0	0	CorrectCommission	0.567096	0.508983	1	0
72.607330	0.792481	city	8	1	0.695640	0.695640	0	1	0	0	CorrectCommission	0.233909	0.509651	1	0
73.399704	0.792265	city	9	1	0.695304	0.695304	0	1	0	0	CorrectCommission	0.236630	0.509403	1	0
74.191864	0.792047	mountain	6	0	0.000000	0.777731	1	0	0	0	CorrectOmission	0.430712	0.509058	1	0
74.984123	0.792483	city	3	1	0.843883	0.843883	0	1	0	0	CorrectCommission	0.966292	0.509434	1	0
75.776390	0.792049	city	4	1	0.794723	0.794723	0	1	0	0	CorrectCommission	0.568285	0.511216	1	0
76.568657	0.792481	mountain	6	0	0.000000	0.736787	1	0	0	0	CorrectOmission	0.099223	0.514895	1	0
77.360924	0.792045	city	8	1	0.695622	0.695622	0	1	0	0	CorrectCommission	0.234059	0.520735	1	0
78.153130	0.792373	city	5	1	0.696774	0.696774	0	1	0	0	CorrectCommission	0.224728	0.528816	1	0
78.945396	0.792161	city	3	1	0.695713	0.695713	0	1	0	0	CorrectCommission	0.233323	0.539158	1	0
79.737610	0.792261	city	1	1	0.745059	0.745059	0	1	0	0	CorrectCommission	0.166193	0.551843	1	0
80.529922	0.792374	city	9	1	1.041923	1.041923	0	1	0	0	CorrectCommission	2.569667	0.567122	1	0
81.322189	0.792159	city	4	1	0.749187	0.749187	0	1	0	0	CorrectCommission	0.199612	0.585387	1	0
82.114403	0.792266	city	5	1	0.603584	0.603584	0	1	0	0	CorrectCommission	0.979214	0.607240	1	0
82.906723	0.792368	city	6	1	0.744855	0.744855	0	1	0	0	CorrectCommission	0.164541	0.633170	1	0
83.699013	0.792215	city	1	1	0.695230	0.695230	0	1	0	0	CorrectCommission	0.237229	0.663348	1	0
84.491219	0.792206	city	10	1	0.745387	0.745387	0	1	0	0	CorrectCommission	0.168851	0.697343	1	0
85.283455	0.792267	city	6	1	0.794659	0.794659	0	1	0	0	CorrectCommission	0.567767	0.733914	0	0
86.075722	0.792263	city	7	1	0.744859	0.744859	0	1	0	0	CorrectCommission	0.164578	0.770954	0	0
86.868095	0.792482	city	2	1	0.695294	0.695294	0	1	0	0	CorrectCommission	0.236714	0.805672	0	0
87.660362	0.792046	city	1	1	0.895209	0.895209	0	1	0	0	CorrectCommission	1.381837	0.834901	0	0
88.452621	0.792484	city	3	1	0.897238	0.897238	0	1	0	0	CorrectCommission	1.398264	0.855573	0	0
89.244896	0.792051	city	10	1	0.947385	0.947385	0	1	0	0	CorrectCommission	1.804268	0.865300	0	0
90.037155	0.792479	city	8	1	0.943242	0.943242	0	1	0	0	CorrectCommission	1.770726	0.862813	0	0
90.829475	0.792155	city	7	1	0.948550	0.948550	0	1	0	0	CorrectCommission	1.813701	0.848247	0	0
91.621628	0.792156	mountain	3	0	0.000000	0.859928	1	0	0	0	CorrectOmission	1.096195	0.823162	0	0
92.413841	0.792265	city	4	1	0.763370	0.763370	0	1	0	0	CorrectCommission	0.314443	0.790336	0	0
93.206100	0.792264	city	10	1	0.744872	0.744872	0	1	0	0	CorrectCommission	0.164680	0.753329	0	0
93.998367	0.792269	city	6	1	0.760452	0.760452	0	1	0	0	CorrectCommission	0.290821	0.715907	0	0
94.790642	0.792281	city	7	1	0.794520	0.794520	0	1	0	0	CorrectCommission	0.566644	0.681481	1	0
95.582939	0.792309	city	3	1	0.744974	0.744974	0	1	0	0	CorrectCommission	0.165505	0.652630	1	0
96.375214	0.792240	city	6	1	0.745049	0.745049	0	1	0	0	CorrectCommission	0.166114	0.630807	1	0
97.167557	0.792445	city	1	1	0.695295	0.695295	0	1	0	0	CorrectCommission	0.236707	0.616260	1	0
97.959915	0.792266	city	2	1	0.596301	0.596301	0	1	0	0	CorrectCommission	1.038185	0.608084	1	0
98.752121	0.792152	city	3	1	0.601910	0.601910	0	1	0	0	CorrectCommission	0.992771	0.604553	1	0
99.544304	0.792213	city	5	1	0.645721	0.645721	0	1	0	0	CorrectCommission	0.638067	0.603458	1	0
100.336571	0.792319	city	8	1	0.695288	0.695288	0	1	0	0	CorrectCommission	0.236760	0.602513	1	0
101.128815	0.792173	mountain	7	0	0.000000	0.781555	1	0	0	0	CorrectOmission	0.461676	0.599696	1	0
101.921036	0.792261	city	7	1	0.861889	0.861889	0	1	0	0	CorrectCommission	1.112073	0.593526	1	0
102.713287	0.792251	city	3	1	0.893656	0.893656	0	1	0	0	CorrectCommission	1.369263	0.583196	1	0
103.505547	0.792270	city	1	1	0.794446	0.794446	0	1	0	0	CorrectCommission	0.566045	0.568665	1	0
104.297829	0.792284	city	2	1	0.695309	0.695309	0	1	0	0	CorrectCommission	0.236597	0.550582	1	0
105.090088	0.792240	city	3	1	0.646246	0.646246	0	1	0	0	CorrectCommission	0.633818	0.530082	1	0
105.882339	0.792264	city	4	1	0.645921	0.645921	0	1	0	0	CorrectCommission	0.636448	0.508571	1	0
106.674606	0.792269	city	8	1	0.695850	0.695850	0	1	0	0	CorrectCommission	0.232212	0.487530	1	0
107.466873	0.792261	city	1	1	0.745315	0.745315	0	1	0	0	CorrectCommission	0.168270	0.468311	1	0
108.259171	0.792331	city	7	1	0.699197	0.699197	0	1	0	0	CorrectCommission	0.205116	0.451976	1	0
109.051437	0.792200	city	6	1	0.744745	0.744745	0	1	0	0	CorrectCommission	0.163652	0.439238	1	0
109.843674	0.792271	city	2	1	0.646161	0.646161	0	1	0	0	CorrectCommission	0.634506	0.430490	1	0
110.635986	0.792363	city	10	1	0.646566	0.646566	0	1	0	0	CorrectCommission	0.631226	0.425818	1	0
111.428299	0.792265	city	9	1	0.695260	0.695260	0	1	0	0	CorrectCommission	0.236988	0.425112	1	0
112.220512	0.792159	city	1	1	0.646051	0.646051	0	1	0	0	CorrectCommission	0.635396	0.428127	1	0
113.012726	0.792266	city	3	1	0.646316	0.646316	0	1	0	0	CorrectCommission	0.633250	0.434521	1	0
113.804993	0.792262	city	4	1	0.744951	0.744951	0	1	0	0	CorrectCommission	0.165318	0.443893	1	0
114.597359	0.792481	city	5	1	0.695616	0.695616	0	1	0	0	CorrectCommission	0.234103	0.455742	1	0
115.389626	0.792047	city	10	1	0.699740	0.699740	0	1	0	0	CorrectCommission	0.200721	0.469436	1	0
116.181801	0.792310	city	5	1	0.752107	0.752107	0	1	0	0	CorrectCommission	0.223260	0.484221	1	0
116.974083	0.792257	city	6	1	0.844518	0.844518	0	1	0	0	CorrectCommission	0.971434	0.499224	1	0
117.766357	0.792290	city	8	1	0.695451	0.695451	0	1	0	0	CorrectCommission	0.235439	0.513515	1	0
118.558609	0.792206	city	5	1	0.645922	0.645922	0	1	0	0	CorrectCommission	0.636442	0.526227	1	0
119.350899	0.792372	city	10	1	0.596865	0.596865	0	1	0	0	CorrectCommission	1.033615	0.536612	1	0
120.143158	0.792155	mountain	6	1	0.610206	0.610206	0	0	1	0	CommissionError	0.925606	0.544147	1	0
120.935478	0.792483	city	10	1	0.745300	0.745300	0	1	0	0	CorrectCommission	0.168145	0.548628	1	0
121.727745	0.792046	city	9	1	0.657558	0.657558	0	1	0	0	CorrectCommission	0.542235	0.550174	1	0
122.519897	0.792264	city	4	1	0.646194	0.646194	0	1	0	0	CorrectCommission	0.634241	0.549157	1	0
123.312164	0.792265	city	9	1	0.645801	0.645801	0	1	0	0	CorrectCommission	0.637423	0.546149	1	0
124.104485	0.792373	mountain	7	0	0.000000	0.753101	1	0	0	0	CorrectOmission	0.231301	0.541845	1	0
124.896751	0.792157	city	4	1	0.844002	0.844002	0	1	0	0	CorrectCommission	0.967260	0.536957	1	0
125.689064	0.792481	city	3	1	0.794414	0.794414	0	1	0	0	CorrectCommission	0.565785	0.532078	1	0
126.481384	0.792157	mountain	10	0	0.000000	0.763961	1	0	0	0	CorrectOmission	0.319231	0.527668	1	0
127.273544	0.792154	city	4	1	0.748739	0.748739	0	1	0	0	CorrectCommission	0.195986	0.524005	1	1
128.065750	0.792266	mountain	9	1	0.744843	0.744843	0	0	1	0	CommissionError	0.164443	0.521191	1	1
128.858017	0.792267	city	7	1	0.860833	0.860833	0	1	0	0	CorrectCommission	1.103527	0.519238	1	1
129.650284	0.792269	city	5	1	0.744963	0.744963	0	1	0	0	CorrectCommission	0.165419	0.518140	1	1
130.442551	0.792260	city	10	1	0.646256	0.646256	0	1	0	0	CorrectCommission	0.633733	0.518009	1	1
131.234818	0.792260	city	2	1	0.603092	0.603092	0	1	0	0	CorrectCommission	0.983203	0.519123	1	1
132.027130	0.792375	city	3	1	0.660635	0.660635	0	1	0	0	CorrectCommission	0.517323	0.521953	1	1
132.819427	0.792227	city	2	1	0.804405	0.804405	0	1	0	0	CorrectCommission	0.646674	0.527149	1	1
133.611694	0.792303	city	10	1	0.745110	0.745110	0	1	0	0	CorrectCommission	0.166610	0.535399	1	1
134.403946	0.792192	city	5	1	0.794337	0.794337	0	1	0	0	CorrectCommission	0.565158	0.547295	1	1
135.196152	0.792242	city	2	1	0.745046	0.745046	0	1	0	0	CorrectCommission	0.166087	0.563148	1	1
135.988464	0.792360	mountain	6	0	0.000000	0.764866	1	0	0	0	CorrectOmission	0.326556	0.582874	1	1
136.780716	0.792161	mountain	2	0	0.000000	0.799429	1	0	0	0	CorrectOmission	0.606386	0.605895	1	1
137.572937	0.792264	city	6	1	0.794367	0.794367	0	1	0	0	CorrectCommission	0.565400	0.631161	1	1
138.365219	0.792315	city	3	1	0.695310	0.695310	0	1	0	0	CorrectCommission	0.236581	0.657300	1	1
139.157486	0.792212	city	10	1	0.645829	0.645829	0	1	0	0	CorrectCommission	0.637192	0.682785	1	1
139.949829	0.792481	city	7	1	0.548043	0.548043	0	1	0	0	CorrectCommission	1.428890	0.706170	1	1
140.742096	0.792048	city	10	1	0.596194	0.596194	0	1	0	0	CorrectCommission	1.039052	0.726345	0	1
141.534302	0.792372	city	3	1	0.844797	0.844797	0	1	0	0	CorrectCommission	0.973691	0.742767	0	1
142.326569	0.792156	city	4	1	0.893350	0.893350	0	1	0	0	CorrectCommission	1.366789	0.755506	0	1
143.118805	0.792319	city	2	1	0.655571	0.655571	0	1	0	0	CorrectCommission	0.558316	0.765256	0	1
143.911118	0.792290	city	5	1	0.695248	0.695248	0	1	0	0	CorrectCommission	0.237084	0.773243	0	1
144.703369	0.792235	city	2	1	0.596166	0.596166	0	1	0	0	CorrectCommission	1.039272	0.780989	0	1
145.495605	0.792217	mountain	3	0	0.000000	0.736536	1	0	0	0	CorrectOmission	0.097192	0.790063	0	1
146.287949	0.792481	city	4	1	0.843975	0.843975	0	1	0	0	CorrectCommission	0.967035	0.801875	0	1
147.080215	0.792061	city	2	1	0.646098	0.646098	0	1	0	0	CorrectCommission	0.635016	0.817428	0	1
147.872375	0.792249	city	7	1	0.596465	0.596465	0	1	0	0	CorrectCommission	1.036855	0.837206	0	1
148.664658	0.792311	city	9	1	0.646346	0.646346	0	1	0	0	CorrectCommission	0.633011	0.861039	0	1
149.456970	0.792326	city	5	1	0.596474	0.596474	0	1	0	0	CorrectCommission	1.036782	0.888138	0	1
150.249222	0.792160	city	6	1	0.646123	0.646123	0	1	0	0	CorrectCommission	0.634813	0.917092	0	1
151.041534	0.792479	city	5	1	0.646016	0.646016	0	1	0	0	CorrectCommission	0.635679	0.946009	0	1
151.833801	0.792049	city	3	1	0.596104	0.596104	0	1	0	0	CorrectCommission	1.039780	0.972633	0	1
152.626007	0.792371	city	2	1	0.596277	0.596277	0	1	0	0	CorrectCommission	1.038376	0.994573	0	1
153.418274	0.792155	city	9	1	0.546676	0.546676	0	1	0	0	CorrectCommission	1.439958	1.009533	0	1
154.210480	0.792266	city	2	1	0.547243	0.547243	0	1	0	0	CorrectCommission	1.435363	1.015535	0	1
155.002747	0.792268	city	6	1	0.596279	0.596279	0	1	0	0	CorrectCommission	1.038361	1.011158	0	1
155.795013	0.792264	city	5	1	0.547369	0.547369	0	1	0	0	CorrectCommission	1.434346	0.995715	0	1
156.587280	0.792266	city	10	1	0.546958	0.546958	0	1	0	0	CorrectCommission	1.437675	0.969304	0	1
157.379547	0.792260	city	6	1	0.596618	0.596618	0	1	0	0	CorrectCommission	1.035613	0.932841	0	1
158.171814	0.792267	city	4	1	0.597985	0.597985	0	1	0	0	CorrectCommission	1.024551	0.887982	0	1
158.964081	0.792264	mountain	9	0	0.000000	0.620229	1	0	0	0	CorrectOmission	0.844458	0.836952	0	1
159.756393	0.792373	city	2	1	0.646080	0.646080	0	1	0	0	CorrectCommission	0.635158	0.782328	0	1
160.548706	0.792266	mountain	5	0	0.000000	0.658269	1	0	0	0	CorrectOmission	0.536475	0.726797	0	1
161.340927	0.792156	city	1	1	0.657835	0.657835	0	1	0	0	CorrectCommission	0.539991	0.672928	1	1
162.133133	0.792267	city	7	1	0.645817	0.645817	0	1	0	0	CorrectCommission	0.637287	0.622935	1	1
162.925400	0.792261	city	3	1	0.657793	0.657793	0	1	0	0	CorrectCommission	0.540329	0.578552	1	1
163.717667	0.792270	city	5	1	0.745280	0.745280	0	1	0	0	CorrectCommission	0.167985	0.540906	1	1
164.510040	0.792478	city	7	1	0.695857	0.695857	0	1	0	0	CorrectCommission	0.232159	0.510493	1	1
165.302307	0.792044	city	6	1	0.795409	0.795409	0	1	0	0	CorrectCommission	0.573841	0.487175	1	1
166.094498	0.792352	city	3	1	0.746070	0.746070	0	1	0	0	CorrectCommission	0.174382	0.470271	1	1
166.886765	0.792181	city	2	1	0.744758	0.744758	0	1	0	0	CorrectCommission	0.163758	0.458695	1	1
167.679001	0.792284	city	5	1	0.655470	0.655470	0	1	0	0	CorrectCommission	0.559140	0.451096	1	1
168.471313	0.792352	city	8	1	0.645803	0.645803	0	1	0	0	CorrectCommission	0.637405	0.446013	1	1
169.263565	0.792158	city	1	1	0.645758	0.645758	0	1	0	0	CorrectCommission	0.637766	0.442052	1	1
170.055832	0.792371	city	2	1	0.645781	0.645781	0	1	0	0	CorrectCommission	0.637582	0.438027	1	1
170.848099	0.792159	city	7	1	0.794417	0.794417	0	1	0	0	CorrectCommission	0.565805	0.433047	1	1
171.640427	0.792480	city	9	1	0.744846	0.744846	0	1	0	0	CorrectCommission	0.164473	0.426575	1	1
172.432678	0.792047	city	1	1	0.756951	0.756951	0	1	0	0	CorrectCommission	0.262472	0.418473	1	1
173.224838	0.792267	city	5	1	0.695353	0.695353	0	1	0	0	CorrectCommission	0.236236	0.408960	1	1
174.017105	0.792262	city	2	1	0.646311	0.646311	0	1	0	0	CorrectCommission	0.633287	0.398585	1	1
174.809372	0.792276	city	8	1	0.596631	0.596631	0	1	0	0	CorrectCommission	1.035512	0.388172	1	1
175.601639	0.792258	city	5	1	0.695298	0.695298	0	1	0	0	CorrectCommission	0.236678	0.378743	1	1
176.393951	0.792370	city	3	1	0.745145	0.745145	0	1	0	0	CorrectCommission	0.166891	0.371439	1	1
177.186218	0.792156	city	5	1	0.745062	0.745062	0	1	0	0	CorrectCommission	0.166219	0.367356	1	1
177.978424	0.792265	city	4	1	0.747444	0.747444	0	1	0	0	CorrectCommission	0.185500	0.367419	1	1
178.770752	0.792372	city	2	1	0.759875	0.759875	0	1	0	0	CorrectCommission	0.286148	0.372257	1	1
179.563049	0.792238	city	8	1	0.744748	0.744748	0	1	0	0	CorrectCommission	0.163680	0.382075	1	1
180.355270	0.792186	city	10	1	0.744758	0.744758	0	1	0	0	CorrectCommission	0.163758	0.396608	1	1
181.147598	0.792480	city	6	1	0.745458	0.745458	0	1	0	0	CorrectCommission	0.169425	0.415106	1	1
181.939865	0.792050	mountain	1	0	0.000000	0.809622	1	0	0	0	CorrectOmission	0.688906	0.436382	1	1
182.732040	0.792291	city	6	1	0.843890	0.843890	0	1	0	0	CorrectCommission	0.966349	0.458893	1	1
183.524353	0.792345	city	3	1	0.754904	0.754904	0	1	0	0	CorrectCommission	0.245900	0.480911	1	1
184.316650	0.792264	city	10	1	0.745456	0.745456	0	1	0	0	CorrectCommission	0.169410	0.500695	1	1
185.108902	0.792223	city	9	1	0.801321	0.801321	0	1	0	0	CorrectCommission	0.621707	0.516643	1	1
185.901154	0.792282	city	5	1	0.794840	0.794840	0	1	0	0	CorrectCommission	0.569231	0.527497	1	1
186.693436	0.792288	city	6	1	0.801406	0.801406	0	1	0	0	CorrectCommission	0.622390	0.532517	1	0
187.485657	0.792159	mountain	8	0	0.000000	0.865061	1	0	0	0	CorrectOmission	1.137756	0.531580	1	0
188.277924	0.792371	city	10	1	0.893452	0.893452	0	1	0	0	CorrectCommission	1.367617	0.525221	1	0
189.070236	0.792265	city	9	1	0.794226	0.794226	0	1	0	0	CorrectCommission	0.564263	0.514594	1	0
189.862457	0.792158	city	7	1	0.744854	0.744854	0	1	0	0	CorrectCommission	0.164537	0.501349	1	0
190.654770	0.792481	city	6	1	0.706684	0.706684	0	1	0	0	CorrectCommission	0.144501	0.487415	1	0
191.447037	0.792051	city	2	1	0.695514	0.695514	0	1	0	0	CorrectCommission	0.234932	0.474787	1	0
192.239304	0.792478	mountain	2	0	0.000000	0.702304	1	0	0	0	CorrectOmission	0.179958	0.465306	1	0
193.031586	0.792089	city	4	1	0.696205	0.696205	0	1	0	0	CorrectCommission	0.229336	0.460519	1	0
193.823792	0.792332	city	10	1	0.646368	0.646368	0	1	0	0	CorrectCommission	0.632827	0.461581	1	0
194.616043	0.792160	city	4	1	0.695193	0.695193	0	1	0	0	CorrectCommission	0.237533	0.469246	1	0
195.408249	0.792262	mountain	7	0	0.000000	0.777660	1	0	0	0	CorrectOmission	0.430136	0.483899	1	0
196.200516	0.792266	city	1	1	0.794428	0.794428	0	1	0	0	CorrectCommission	0.565896	0.505587	1	0
196.992813	0.792321	city	9	1	0.646157	0.646157	0	1	0	0	CorrectCommission	0.634537	0.534073	1	0
197.785080	0.792208	city	1	1	0.653346	0.653346	0	1	0	0	CorrectCommission	0.576338	0.568815	1	0
198.577316	0.792275	city	6	1	0.646722	0.646722	0	1	0	0	CorrectCommission	0.629960	0.608923	1	0
199.369629	0.792361	city	10	1	0.695343	0.695343	0	1	0	0	CorrectCommission	0.236314	0.653112	1	0
200.161926	0.792229	city	5	1	0.704133	0.704133	0	1	0	0	CorrectCommission	0.165148	0.699656	1	0
200.954147	0.792190	mountain	8	0	0.000000	0.783128	1	0	0	0	CorrectOmission	0.474412	0.746410	0	0
201.746429	0.792375	city	3	1	0.855330	0.855330	0	1	0	0	CorrectCommission	1.058975	0.790893	0	0
202.538803	0.792373	city	1	1	0.843742	0.843742	0	1	0	0	CorrectCommission	0.965149	0.830449	0	0
203.331009	0.792046	city	9	1	0.893150	0.893150	0	1	0	0	CorrectCommission	1.365172	0.862528	0	0
204.123215	0.792375	mountain	4	0	0.000000	0.881172	1	0	0	0	CorrectOmission	1.268191	0.884919	0	0
204.915497	0.792174	city	9	1	0.850911	0.850911	0	1	0	0	CorrectCommission	1.023195	0.896041	0	0
205.707703	0.792249	city	1	1	0.845473	0.845473	0	1	0	0	CorrectCommission	0.979171	0.895133	0	0
206.499954	0.792266	mountain	6	1	0.943923	0.943923	0	0	1	0	CommissionError	1.776242	0.882357	0	0
207.292282	0.792368	city	4	1	0.909257	0.909257	0	1	0	0	CorrectCommission	1.495576	0.858753	0	0
208.084549	0.792159	city	8	1	0.809095	0.809095	0	1	0	0	CorrectCommission	0.684639	0.826124	0	0
208.876755	0.792262	city	10	1	0.761465	0.761465	0	1	0	0	CorrectCommission	0.299024	0.786765	0	0
209.669022	0.792266	city	6	1	0.808693	0.808693	0	1	0	0	CorrectCommission	0.681388	0.743180	0	0
210.461395	0.792480	city	2	1	0.696010	0.696010	0	1	0	0	CorrectCommission	0.230921	0.697795	1	0
211.253647	0.792046	city	9	1	0.695233	0.695233	0	1	0	0	CorrectCommission	0.237211	0.652751	1	0
212.045807	0.792267	city	4	1	0.856037	0.856037	0	1	0	0	CorrectCommission	1.064697	0.609754	1	0
212.838181	0.792482	mountain	2	0	0.000000	0.843631	1	0	0	0	CorrectOmission	0.964256	0.570019	1	0
213.630447	0.792044	city	1	1	0.745920	0.745920	0	1	0	0	CorrectCommission	0.173165	0.534323	1	0
214.422653	0.792375	city	10	1	0.650809	0.650809	0	1	0	0	CorrectCommission	0.596876	0.503064	1	0
215.214981	0.792265	city	8	1	0.695897	0.695897	0	1	0	0	CorrectCommission	0.231831	0.476370	1	0
216.007187	0.792155	city	1	1	0.744714	0.744714	0	1	0	0	CorrectCommission	0.163399	0.454281	1	0
216.799515	0.792484	city	10	1	0.751753	0.751753	0	1	0	0	CorrectCommission	0.220391	0.436858	1	0
217.591888	0.792264	mountain	10	1	0.794133	0.794133	0	0	1	0	CommissionError	0.563511	0.424317	1	0
218.384033	0.792049	city	3	1	0.843808	0.843808	0	1	0	0	CorrectCommission	0.965685	0.417133	1	0
219.176300	0.792480	city	10	1	0.744888	0.744888	0	1	0	0	CorrectCommission	0.164810	0.416112	1	0
219.968567	0.792051	city	1	1	0.746705	0.746705	0	1	0	0	CorrectCommission	0.179517	0.422464	1	0
220.760727	0.792262	city	4	1	0.702591	0.702591	0	1	0	0	CorrectCommission	0.177635	0.437716	1	0
221.553040	0.792372	city	2	1	0.704840	0.704840	0	1	0	0	CorrectCommission	0.159428	0.463611	1	0
222.345322	0.792183	mountain	7	0	0.000000	0.790396	1	0	0	0	CorrectOmission	0.533252	0.501909	1	0
223.137589	0.792347	city	1	1	0.844288	0.844288	0	1	0	0	CorrectCommission	0.969570	0.554087	1	0
223.929947	0.792375	city	5	1	0.751544	0.751544	0	1	0	0	CorrectCommission	0.218695	0.620994	1	0
224.722153	0.792052	city	3	1	0.744745	0.744745	0	1	0	0	CorrectCommission	0.163648	0.702578	1	0
225.514313	0.792259	city	5	1	0.699647	0.699647	0	1	0	0	CorrectCommission	0.201474	0.797542	0	0
226.306686	0.792484	city	6	1	0.707194	0.707194	0	1	0	0	CorrectCommission	0.140369	0.903206	0	0
227.098969	0.792101	city	2	1	0.744874	0.744874	0	1	0	0	CorrectCommission	0.164695	1.015526	0	0
227.891190	0.792319	mountain	7	0	0.000000	0.899420	1	0	0	0	CorrectOmission	1.415937	1.129332	0	0
228.683426	0.792157	city	7	1	0.992330	0.992330	0	1	0	0	CorrectCommission	2.168155	1.238741	0	0
229.475632	0.792263	city	8	1	0.845100	0.845100	0	1	0	0	CorrectCommission	0.976148	1.337781	0	0
230.268005	0.792483	city	1	1	0.906016	0.906016	0	1	0	0	CorrectCommission	1.469336	1.421113	0	0
231.060318	0.792128	city	10	1	1.091258	1.091258	0	1	0	0	CorrectCommission	2.969096	1.484640	0	0
231.852463	0.792185	mountain	4	0	0.000000	1.124390	1	0	0	0	CorrectOmission	3.237335	1.526007	0	0
232.644730	0.792329	city	3	1	1.057806	1.057806	0	1	0	0	CorrectCommission	2.698260	1.544913	0	0
233.437103	0.792417	city	1	1	0.943903	0.943903	0	1	0	0	CorrectCommission	1.776081	1.543060	0	0
234.229355	0.792096	city	6	1	0.843998	0.843998	0	1	0	0	CorrectCommission	0.967229	1.523829	0	0
235.021622	0.792433	city	7	1	0.646285	0.646285	0	1	0	0	CorrectCommission	0.633501	1.491719	0	0
235.813858	0.792049	city	3	1	0.596251	0.596251	0	1	0	0	CorrectCommission	1.038591	1.451675	0	0
236.606018	0.792267	city	7	1	0.563323	0.563323	0	1	0	0	CorrectCommission	1.305179	1.408420	0	0
237.398331	0.792369	city	10	1	0.504866	0.504866	0	1	0	0	CorrectCommission	1.778458	1.365863	0	0
238.190628	0.792226	city	7	1	0.548245	0.548245	0	1	0	0	CorrectCommission	1.427252	1.326662	0	0
238.982849	0.792200	city	4	1	0.610645	0.610645	0	1	0	0	CorrectCommission	0.922051	1.292011	0	0
239.775085	0.792266	mountain	1	1	0.547255	0.547255	0	0	1	0	CommissionError	1.435268	1.261593	0	0
240.567398	0.792369	city	10	1	0.662511	0.662511	0	1	0	0	CorrectCommission	0.502131	1.233720	0	0
241.359665	0.792164	city	4	1	0.746193	0.746193	0	1	0	0	CorrectCommission	0.175376	1.205763	0	0
242.151871	0.792256	city	5	1	0.596341	0.596341	0	1	0	0	CorrectCommission	1.037860	1.174610	0	0
242.944138	0.792269	city	2	1	0.497588	0.497588	0	1	0	0	CorrectCommission	1.837380	1.137248	0	0
243.736450	0.792370	city	9	1	0.416324	0.416324	0	1	0	0	CorrectCommission	2.495311	1.091395	0	0
244.528763	0.792235	city	3	1	0.992394	0.992394	0	1	0	0	CorrectCommission	2.168669	1.035987	0	0
245.320984	0.792224	city	4	1	0.894052	0.894052	0	1	0	0	CorrectCommission	1.372472	0.971505	0	0
246.113220	0.792225	city	2	1	0.844365	0.844365	0	1	0	0	CorrectCommission	0.970196	0.900051	0	1
246.905457	0.792266	city	10	1	0.794381	0.794381	0	1	0	0	CorrectCommission	0.565513	0.825161	0	1
247.697754	0.792327	city	5	1	0.757603	0.757603	0	1	0	0	CorrectCommission	0.267750	0.751373	0	1
248.490021	0.792200	city	3	1	0.695281	0.695281	0	1	0	0	CorrectCommission	0.236822	0.683624	1	1
249.282288	0.792336	city	7	1	0.695613	0.695613	0	1	0	0	CorrectCommission	0.234129	0.626609	1	1
250.074661	0.792413	mountain	9	0	0.000000	0.728289	1	0	0	0	CorrectOmission	0.030417	0.584192	1	1
250.866928	0.792113	city	1	1	0.744811	0.744811	0	1	0	0	CorrectCommission	0.164187	0.558932	1	1
251.659073	0.792201	city	4	1	0.696685	0.696685	0	1	0	0	CorrectCommission	0.225451	0.551781	1	1
252.451431	0.792508	city	6	1	0.744882	0.744882	0	1	0	0	CorrectCommission	0.164758	0.561985	1	1
253.243713	0.792038	city	3	1	0.744813	0.744813	0	1	0	0	CorrectCommission	0.164203	0.587181	1	1
254.035858	0.792255	city	9	1	0.794550	0.794550	0	1	0	0	CorrectCommission	0.566885	0.623694	1	1
254.828110	0.792259	city	5	1	0.794443	0.794443	0	1	0	0	CorrectCommission	0.566014	0.666963	1	1
255.620377	0.792261	city	8	1	0.794335	0.794335	0	1	0	0	CorrectCommission	0.565144	0.712133	0	1
256.412628	0.792266	city	3	1	0.801133	0.801133	0	1	0	0	CorrectCommission	0.620178	0.754615	0	1
257.205017	0.792483	city	9	1	0.893773	0.893773	0	1	0	0	CorrectCommission	1.370214	0.790620	0	1
257.997375	0.792264	city	7	1	0.943168	0.943168	0	1	0	0	CorrectCommission	1.770129	0.817567	0	1
258.789581	0.792154	city	3	1	1.041933	1.041933	0	1	0	0	CorrectCommission	2.569751	0.834341	0	1
259.581757	0.792194	city	7	1	0.848928	0.848928	0	1	0	0	CorrectCommission	1.007136	0.841205	0	1
260.374084	0.792445	city	3	1	0.752314	0.752314	0	1	0	0	CorrectCommission	0.224934	0.839655	0	1
261.166351	0.792064	city	6	1	0.744796	0.744796	0	1	0	0	CorrectCommission	0.164065	0.831984	0	1
261.958496	0.792254	city	4	1	0.695922	0.695922	0	1	0	0	CorrectCommission	0.231627	0.820761	0	1
262.750854	0.792478	city	2	1	0.610891	0.610891	0	1	0	0	CorrectCommission	0.920055	0.808409	0	1
263.543121	0.792049	city	7	1	0.596116	0.596116	0	1	0	0	CorrectCommission	1.039684	0.796792	0	1
264.335327	0.792326	city	4	1	0.646395	0.646395	0	1	0	0	CorrectCommission	0.632607	0.787040	0	1
265.127563	0.792200	city	6	1	0.752094	0.752094	0	1	0	0	CorrectCommission	0.223154	0.779512	0	1
265.919861	0.792374	city	10	1	0.753403	0.753403	0	1	0	0	CorrectCommission	0.233749	0.773912	0	1
266.712189	0.792266	city	2	1	0.853696	0.853696	0	1	0	0	CorrectCommission	1.045739	0.769526	0	1
267.504517	0.792374	city	4	1	0.942800	0.942800	0	1	0	0	CorrectCommission	1.767144	0.765486	0	1
268.296814	0.792264	city	8	1	0.893149	0.893149	0	1	0	0	CorrectCommission	1.365159	0.761021	0	1
269.089020	0.792107	city	7	1	0.853218	0.853218	0	1	0	0	CorrectCommission	1.041868	0.755624	0	1
269.881287	0.792421	mountain	2	0	0.000000	0.736504	1	0	0	0	CorrectOmission	0.096932	0.749076	0	1
270.673492	0.792047	city	6	1	0.652775	0.652775	0	1	0	0	CorrectCommission	0.580955	0.741403	0	1
271.465668	0.792266	city	4	1	0.711798	0.711798	0	1	0	0	CorrectCommission	0.103098	0.732681	0	1
272.257935	0.792267	city	5	1	0.803990	0.803990	0	1	0	0	CorrectCommission	0.643310	0.722982	0	1
273.050201	0.792265	city	4	1	0.794487	0.794487	0	1	0	0	CorrectCommission	0.566375	0.712229	0	1
273.842468	0.792300	city	1	1	0.943036	0.943036	0	1	0	0	CorrectCommission	1.769062	0.700219	1	1
274.634735	0.792229	city	2	1	0.696050	0.696050	0	1	0	0	CorrectCommission	0.230597	0.686610	1	1
275.427002	0.792264	city	4	1	0.744865	0.744865	0	1	0	0	CorrectCommission	0.164626	0.671157	1	1
276.219238	0.792264	city	10	1	0.954996	0.954996	0	1	0	0	CorrectCommission	1.865890	0.653731	1	1
277.011566	0.792372	city	3	1	0.658282	0.658282	0	1	0	0	CorrectCommission	0.536374	0.634480	1	1
277.803864	0.792224	city	2	1	0.646716	0.646716	0	1	0	0	CorrectCommission	0.630011	0.613946	1	1
278.596130	0.792305	city	1	1	0.695172	0.695172	0	1	0	0	CorrectCommission	0.237705	0.592968	1	1
279.388367	0.792158	city	8	1	0.657592	0.657592	0	1	0	0	CorrectCommission	0.541957	0.572640	1	1
280.180603	0.792296	city	1	1	0.649843	0.649843	0	1	0	0	CorrectCommission	0.604697	0.554128	1	1
280.972870	0.792232	city	2	1	0.794337	0.794337	0	1	0	0	CorrectCommission	0.565155	0.538524	1	1
281.765106	0.792296	city	8	1	0.794554	0.794554	0	1	0	0	CorrectCommission	0.566914	0.526643	1	1
282.557373	0.792235	city	3	1	0.744792	0.744792	0	1	0	0	CorrectCommission	0.164030	0.518870	1	1
283.349701	0.792372	city	2	1	0.744882	0.744882	0	1	0	0	CorrectCommission	0.164761	0.515053	1	1
284.141968	0.792158	city	6	1	0.745150	0.745150	0	1	0	0	CorrectCommission	0.166929	0.514452	1	1
284.934265	0.792480	city	1	1	0.794443	0.794443	0	1	0	0	CorrectCommission	0.566016	0.515806	1	1
285.726532	0.792052	city	7	1	0.843729	0.843729	0	1	0	0	CorrectCommission	0.965044	0.517486	1	1
286.518707	0.792263	city	1	1	0.744886	0.744886	0	1	0	0	CorrectCommission	0.164791	0.517709	1	1
287.310944	0.792262	city	3	1	0.794325	0.794325	0	1	0	0	CorrectCommission	0.565059	0.514822	1	1
288.103210	0.792249	mountain	10	1	0.843786	0.843786	0	0	1	0	CommissionError	0.965511	0.507489	1	1
288.895599	0.792499	city	4	1	0.893576	0.893576	0	1	0	0	CorrectCommission	1.368618	0.494925	1	1
289.687897	0.792111	city	7	1	0.759194	0.759194	0	1	0	0	CorrectCommission	0.280633	0.476988	1	1
290.480042	0.792205	city	3	1	0.794343	0.794343	0	1	0	0	CorrectCommission	0.565210	0.454291	1	1
291.272278	0.792258	city	8	1	0.745011	0.745011	0	1	0	0	CorrectCommission	0.165803	0.428047	1	1
292.064545	0.792270	city	10	1	0.645831	0.645831	0	1	0	0	CorrectCommission	0.637177	0.400038	1	1
292.856934	0.792478	city	6	1	0.710537	0.710537	0	1	0	0	CorrectCommission	0.113301	0.372367	1	1
293.649170	0.792048	city	2	1	0.695245	0.695245	0	1	0	0	CorrectCommission	0.237107	0.347351	1	1
294.441345	0.792263	city	3	1	0.700261	0.700261	0	1	0	0	CorrectCommission	0.196501	0.327261	1	1
295.233612	0.792267	city	8	1	0.704527	0.704527	0	1	0	0	CorrectCommission	0.161964	0.314230	1	1
296.025909	0.792316	city	9	1	0.696827	0.696827	0	1	0	0	CorrectCommission	0.224304	0.310121	1	1
296.818176	0.792272	city	6	1	0.711280	0.711280	0	1	0	0	CorrectCommission	0.107289	0.316413	1	1
297.610443	0.792206	city	10	1	0.695239	0.695239	0	1	0	0	CorrectCommission	0.237163	0.334167	1	1
298.402710	0.792373	city	6	1	0.707886	0.707886	0	1	0	0	CorrectCommission	0.134763	0.363978	1	1
299.194977	0.792153	city	9	1	0.700701	0.700701	0	1	0	0	CorrectCommission	0.192936	0.405953	1	1
299.987244	0.792376	city	4	1	0.709734	0.709734	0	1	0	0	CorrectCommission	0.119804	0.459702	1	1
300.779510	0.792160	city	6	1	0.708188	0.708188	0	1	0	0	CorrectCommission	0.132322	0.524316	1	1
301.571747	0.792295	city	8	1	0.695242	0.695242	0	1	0	0	CorrectCommission	0.237135	0.598376	1	1
302.364014	0.792230	mountain	3	0	0.000000	0.796272	1	0	0	0	CorrectOmission	0.580827	0.679955	1	1
303.156311	0.792371	mountain	7	0	0.000000	0.902486	1	0	0	0	CorrectOmission	1.440760	0.766620	0	1
303.948578	0.792160	city	3	1	0.905092	0.905092	0	1	0	0	CorrectCommission	1.461859	0.855455	0	1
304.740784	0.792263	city	2	1	0.695298	0.695298	0	1	0	0	CorrectCommission	0.236682	0.943107	0	1
305.533051	0.792264	city	5	1	0.612394	0.612394	0	1	0	0	CorrectCommission	0.907892	1.025878	0	0
306.325317	0.792267	city	2	1	0.596334	0.596334	0	1	0	0	CorrectCommission	1.037914	1.099776	0	0
307.117584	0.792267	city	6	1	0.563818	0.563818	0	1	0	0	CorrectCommission	1.301168	1.160823	0	0
307.909851	0.792263	city	2	1	0.695371	0.695371	0	1	0	0	CorrectCommission	0.236092	1.205317	0	0
308.702209	0.792479	city	6	1	1.141465	1.141465	0	1	0	0	CorrectCommission	3.375579	1.230249	0	0
309.494476	0.792049	city	10	0	0.000000	0.877191	0	0	0	1	OmissionError	1.235964	1.233578	0	0
310.286621	0.792265	city	1	1	0.447888	0.447888	0	1	0	0	CorrectCommission	2.239766	1.214749	0	0
311.078949	0.792374	city	6	1	0.398893	0.398893	0	1	0	0	CorrectCommission	2.636437	1.174715	0	0
311.871216	0.792158	city	1	1	0.547437	0.547437	0	1	0	0	CorrectCommission	1.433798	1.116000	0	0
312.663544	0.792479	city	6	1	0.610038	0.610038	0	1	0	0	CorrectCommission	0.926963	1.042502	0	0
313.455811	0.792050	city	8	1	0.645617	0.645617	0	1	0	0	CorrectCommission	0.638906	0.959088	0	0
314.247955	0.792261	city	1	1	0.695302	0.695302	0	1	0	0	CorrectCommission	0.236649	0.871023	0	0
315.040344	0.792482	city	9	1	0.662796	0.662796	0	1	0	0	CorrectCommission	0.499826	0.783474	0	0
315.832611	0.792087	city	1	1	0.695118	0.695118	0	1	0	0	CorrectCommission	0.238138	0.701039	1	0
316.624878	0.792443	city	10	1	0.753364	0.753364	0	1	0	0	CorrectCommission	0.233431	0.627441	1	0
317.417114	0.792050	city	6	1	0.794094	0.794094	0	1	0	0	CorrectCommission	0.563193	0.565336	1	0
318.209290	0.792262	city	1	1	0.794376	0.794376	0	1	0	0	CorrectCommission	0.565473	0.516328	1	0
319.001556	0.792265	city	10	1	0.748759	0.748759	0	1	0	0	CorrectCommission	0.196154	0.481044	1	0
319.793915	0.792482	city	6	1	0.748967	0.748967	0	1	0	0	CorrectCommission	0.197835	0.459350	1	0
320.586182	0.792052	city	4	1	0.794359	0.794359	0	1	0	0	CorrectCommission	0.565333	0.450498	1	0
321.378357	0.792264	city	6	1	0.744874	0.744874	0	1	0	0	CorrectCommission	0.164698	0.453281	1	0
322.170624	0.792308	city	4	1	0.695400	0.695400	0	1	0	0	CorrectCommission	0.235854	0.466217	1	0
322.962952	0.792329	city	1	1	0.647143	0.647143	0	1	0	0	CorrectCommission	0.626553	0.487586	1	0
323.755188	0.792156	city	4	1	0.702261	0.702261	0	1	0	0	CorrectCommission	0.180309	0.515485	1	0
324.547455	0.792372	city	10	1	0.806070	0.806070	0	1	0	0	CorrectCommission	0.660154	0.547923	1	0
325.339722	0.792160	city	4	1	0.695131	0.695131	0	1	0	0	CorrectCommission	0.238036	0.582843	1	0
326.132050	0.792480	city	6	1	0.654301	0.654301	0	1	0	0	CorrectCommission	0.568600	0.618241	1	0
326.924316	0.792046	city	7	1	0.695529	0.695529	0	1	0	0	CorrectCommission	0.234808	0.652342	1	0
327.716492	0.792317	city	4	1	0.794853	0.794853	0	1	0	0	CorrectCommission	0.569338	0.683728	1	0
328.508759	0.792238	city	7	1	1.094179	1.094179	0	1	0	0	CorrectCommission	2.992740	0.711455	0	0
329.300995	0.792242	city	3	1	0.596306	0.596306	0	1	0	0	CorrectCommission	1.038141	0.735159	0	0
330.093262	0.792263	city	9	1	0.744840	0.744840	0	1	0	0	CorrectCommission	0.164425	0.755182	0	0
330.885529	0.792265	city	5	1	0.745339	0.745339	0	1	0	0	CorrectCommission	0.168458	0.772405	0	0
331.677826	0.792341	city	10	1	0.646292	0.646292	0	1	0	0	CorrectCommission	0.633441	0.788109	0	0
332.470093	0.792227	city	7	1	0.695644	0.695644	0	1	0	0	CorrectCommission	0.233882	0.803794	0	0
333.262360	0.792263	city	1	1	0.903707	0.903707	0	1	0	0	CorrectCommission	1.450642	0.820993	0	0
334.054596	0.792225	city	8	1	0.695790	0.695790	0	1	0	0	CorrectCommission	0.232697	0.841021	0	0
334.846954	0.792483	city	10	1	0.893391	0.893391	0	1	0	0	CorrectCommission	1.367124	0.864843	0	0
335.639221	0.792047	city	7	1	0.943039	0.943039	0	1	0	0	CorrectCommission	1.769085	0.892803	0	0
336.431488	0.792489	city	10	1	0.794661	0.794661	0	1	0	0	CorrectCommission	0.567781	0.924546	0	0
337.223755	0.792071	city	1	1	0.759271	0.759271	0	1	0	0	CorrectCommission	0.281254	0.958900	0	0
338.016022	0.792454	city	7	1	0.800121	0.800121	0	1	0	0	CorrectCommission	0.611984	0.993801	0	0
338.808258	0.792047	city	10	1	0.711318	0.711318	0	1	0	0	CorrectCommission	0.106979	1.026420	0	0
339.600433	0.792264	city	4	1	0.910352	0.910352	0	1	0	0	CorrectCommission	1.504439	1.053461	0	0
340.392792	0.792483	city	6	0	0.000000	0.728472	0	0	0	1	OmissionError	0.031901	1.071504	0	0
341.185059	0.792046	city	10	1	0.447499	0.447499	0	1	0	0	CorrectCommission	2.242916	1.077685	0	0
341.977264	0.792375	city	2	1	0.349253	0.349253	0	1	0	0	CorrectCommission	3.038332	1.070089	0	0
342.769531	0.792156	city	4	1	1.042567	1.042567	0	1	0	0	CorrectCommission	2.574880	1.048297	0	0
343.561768	0.792268	city	10	1	0.855788	0.855788	0	1	0	0	CorrectCommission	1.062678	1.013635	0	0
344.354065	0.792371	city	6	1	0.811780	0.811780	0	1	0	0	CorrectCommission	0.706384	0.969117	0	0
345.146393	0.792262	city	3	1	0.794218	0.794218	0	1	0	0	CorrectCommission	0.564192	0.919103	0	0
345.938721	0.792375	city	2	1	0.798842	0.798842	0	1	0	0	CorrectCommission	0.601633	0.868730	0	0
346.730927	0.792079	city	7	1	0.745326	0.745326	0	1	0	0	CorrectCommission	0.168353	0.823304	0	0
347.523193	0.792450	mountain	5	0	0.000000	0.752443	1	0	0	0	CorrectOmission	0.225980	0.787615	0	0
348.315460	0.792049	city	2	1	0.744896	0.744896	0	1	0	0	CorrectCommission	0.164871	0.765330	0	0
349.107635	0.792329	city	7	1	0.647382	0.647382	0	1	0	0	CorrectCommission	0.624620	0.758592	0	0
349.899963	0.792308	city	3	1	0.650806	0.650806	0	1	0	0	CorrectCommission	0.596895	0.767808	0	0
350.692230	0.792266	city	9	1	0.695808	0.695808	0	1	0	0	CorrectCommission	0.232549	0.791672	0	0
351.484497	0.792265	city	3	1	0.600978	0.600978	0	1	0	0	CorrectCommission	1.000318	0.827407	0	0
352.276703	0.792137	city	1	1	0.645765	0.645765	0	1	0	0	CorrectCommission	0.637714	0.871049	0	0
353.068909	0.792287	city	8	1	0.646473	0.646473	0	1	0	0	CorrectCommission	0.631982	0.917957	0	0
353.861206	0.792265	city	7	1	0.601672	0.601672	0	1	0	0	CorrectCommission	0.994697	0.963334	0	0
354.653503	0.792369	city	9	1	0.504630	0.504630	0	1	0	0	CorrectCommission	1.780374	1.002704	0	0
355.445801	0.792207	city	4	1	0.596187	0.596187	0	1	0	0	CorrectCommission	1.039104	1.032340	0	0
356.238068	0.792321	city	5	1	0.504733	0.504733	0	1	0	0	CorrectCommission	1.779540	1.049680	0	0
357.030304	0.792166	city	1	1	0.498463	0.498463	0	1	0	0	CorrectCommission	1.830299	1.053451	0	0
357.822510	0.792259	city	3	1	0.596307	0.596307	0	1	0	0	CorrectCommission	1.038136	1.043803	0	0
358.614838	0.792372	city	8	1	0.499466	0.499466	0	1	0	0	CorrectCommission	1.822182	1.022130	0	0
359.407166	0.792264	city	4	1	0.610594	0.610594	0	1	0	0	CorrectCommission	0.922461	0.990801	0	0
360.199432	0.792265	city	5	1	0.645932	0.645932	0	1	0	0	CorrectCommission	0.636358	0.952885	0	0
360.991669	0.792263	city	4	1	0.655501	0.655501	0	1	0	0	CorrectCommission	0.558889	0.911768	0	0
361.783905	0.792160	city	7	1	0.695720	0.695720	0	1	0	0	CorrectCommission	0.233267	0.870787	0	0
362.576111	0.792266	city	8	1	0.658068	0.658068	0	1	0	0	CorrectCommission	0.538101	0.832972	0	0
363.368378	0.792260	city	3	1	0.596292	0.596292	0	1	0	0	CorrectCommission	1.038256	0.800846	0	0
364.160645	0.792267	city	5	1	0.549322	0.549322	0	1	0	0	CorrectCommission	1.418532	0.776314	0	0
364.953003	0.792481	mountain	2	0	0.000000	0.689327	1	0	0	0	CorrectOmission	0.285025	0.760614	0	1
365.745270	0.792047	city	2	1	0.796976	0.796976	0	1	0	0	CorrectCommission	0.586523	0.754354	0	1
366.537537	0.792481	city	5	1	0.652939	0.652939	0	1	0	0	CorrectCommission	0.579632	0.757425	0	1
367.329834	0.792088	mountain	9	0	0.000000	0.666604	1	0	0	0	CorrectOmission	0.468996	0.769109	0	1
368.122040	0.792332	city	1	1	0.695487	0.695487	0	1	0	0	CorrectCommission	0.235151	0.788124	0	1
368.914398	0.792375	city	3	1	0.597104	0.597104	0	1	0	0	CorrectCommission	1.031680	0.812697	0	1
369.706696	0.792263	city	1	1	0.603281	0.603281	0	1	0	0	CorrectCommission	0.981667	0.840682	0	1
370.498901	0.792122	city	7	1	0.754710	0.754710	0	1	0	0	CorrectCommission	0.244332	0.869795	0	1
371.291046	0.792194	city	1	1	0.695557	0.695557	0	1	0	0	CorrectCommission	0.234587	0.897836	0	1
372.083282	0.792267	city	10	1	0.943062	0.943062	0	1	0	0	CorrectCommission	1.769266	0.922864	0	1
372.875549	0.792264	mountain	2	0	0.000000	1.010858	1	0	0	0	CorrectOmission	2.318162	0.943390	0	1
373.667816	0.792261	mountain	7	0	0.000000	0.959861	1	0	0	0	CorrectOmission	1.905275	0.958475	0	1
374.460144	0.792371	city	7	1	0.850983	0.850983	0	1	0	0	CorrectCommission	1.023777	0.967687	0	1
375.252380	0.792158	mountain	4	0	0.000000	0.745139	1	0	0	0	CorrectOmission	0.166844	0.970972	0	1
376.044708	0.792482	city	8	1	0.695386	0.695386	0	1	0	0	CorrectCommission	0.235968	0.968449	0	1
376.837128	0.792320	city	7	1	0.754780	0.754780	0	1	0	0	CorrectCommission	0.244898	0.960240	0	1
377.629272	0.791997	city	3	1	0.652011	0.652011	0	1	0	0	CorrectCommission	0.587140	0.946391	0	1
378.421509	0.792479	city	2	1	0.516078	0.516078	0	1	0	0	CorrectCommission	1.687686	0.926889	0	1
379.213837	0.792154	city	6	1	0.497211	0.497211	0	1	0	0	CorrectCommission	1.840435	0.901760	0	1
380.006042	0.792266	city	2	1	0.547015	0.547015	0	1	0	0	CorrectCommission	1.437216	0.871291	0	1
380.798248	0.792160	mountain	1	1	0.512501	0.512501	0	0	1	0	CommissionError	1.716644	0.836133	0	1
381.590454	0.792279	city	5	1	0.712312	0.712312	0	1	0	0	CorrectCommission	0.098935	0.797362	0	1
382.382721	0.792249	city	9	1	0.695969	0.695969	0	1	0	0	CorrectCommission	0.231245	0.756521	0	1
383.174988	0.792260	city	2	1	0.645837	0.645837	0	1	0	0	CorrectCommission	0.637125	0.715381	0	1
383.967255	0.792266	city	1	1	0.600840	0.600840	0	1	0	0	CorrectCommission	1.001436	0.675757	1	1
384.759521	0.792300	city	7	1	0.695477	0.695477	0	1	0	0	CorrectCommission	0.235231	0.639281	1	1
385.551819	0.792262	city	5	1	0.713629	0.713629	0	1	0	0	CorrectCommission	0.088269	0.607248	1	1
386.344086	0.792253	city	2	1	0.663623	0.663623	0	1	0	0	CorrectCommission	0.493129	0.580441	1	1
387.136322	0.792243	city	9	1	0.695274	0.695274	0	1	0	0	CorrectCommission	0.236873	0.559110	1	1
387.928619	0.792373	mountain	8	1	0.646129	0.646129	0	0	1	0	CommissionError	0.634766	0.543075	1	1
388.720886	0.792157	city	7	1	0.860519	0.860519	0	1	0	0	CorrectCommission	1.100984	0.531784	1	1
389.513123	0.792318	city	8	1	0.808629	0.808629	0	1	0	0	CorrectCommission	0.680868	0.524427	1	1
390.305389	0.792213	city	7	1	0.746414	0.746414	0	1	0	0	CorrectCommission	0.177164	0.520109	1	1
391.097626	0.792264	city	4	1	0.794703	0.794703	0	1	0	0	CorrectCommission	0.568124	0.517928	1	1
391.889954	0.792372	mountain	2	0	0.000000	0.763812	1	0	0	0	CorrectOmission	0.318019	0.517031	1	1
392.682220	0.792160	city	5	1	0.699113	0.699113	0	1	0	0	CorrectCommission	0.205796	0.516703	1	1
393.474548	0.792478	city	10	1	0.645981	0.645981	0	1	0	0	CorrectCommission	0.635965	0.516356	1	1
394.266846	0.792157	city	1	1	0.754548	0.754548	0	1	0	0	CorrectCommission	0.243020	0.515541	1	1
395.059021	0.792159	city	6	1	0.894903	0.894903	0	1	0	0	CorrectCommission	1.379359	0.514016	1	1
395.851318	0.792480	city	1	1	0.794362	0.794362	0	1	0	0	CorrectCommission	0.565363	0.511695	1	1
396.643707	0.792263	city	5	1	0.745253	0.745253	0	1	0	0	CorrectCommission	0.167768	0.508732	1	1
397.435852	0.792052	city	4	1	0.794180	0.794180	0	1	0	0	CorrectCommission	0.563885	0.505443	1	1
398.228119	0.792478	mountain	2	0	0.000000	0.809248	1	0	0	0	CorrectOmission	0.685879	0.502221	1	1
399.020386	0.792052	city	5	1	0.794580	0.794580	0	1	0	0	CorrectCommission	0.567126	0.499498	1	1
399.812561	0.792300	city	4	1	0.754299	0.754299	0	1	0	0	CorrectCommission	0.241005	0.497615	1	1
400.604889	0.792335	mountain	7	0	0.000000	0.754018	1	0	0	0	CorrectOmission	0.238732	0.496734	1	1
401.397247	0.792372	city	2	1	0.761531	0.761531	0	1	0	0	CorrectCommission	0.299554	0.496757	1	1
402.189514	0.792155	city	10	1	0.744630	0.744630	0	1	0	0	CorrectCommission	0.162719	0.497355	1	1
402.981659	0.792160	city	7	1	0.843802	0.843802	0	1	0	0	CorrectCommission	0.965640	0.497988	1	1
403.773865	0.792262	city	1	1	0.855895	0.855895	0	1	0	0	CorrectCommission	1.063549	0.497959	1	1
404.566162	0.792325	city	2	1	0.745528	0.745528	0	1	0	0	CorrectCommission	0.169988	0.496564	1	1
405.358490	0.792313	city	7	1	0.808228	0.808228	0	1	0	0	CorrectCommission	0.677623	0.493211	1	1
406.150757	0.792204	city	8	1	0.695275	0.695275	0	1	0	0	CorrectCommission	0.236871	0.487467	1	1
406.942963	0.792216	city	10	1	0.695343	0.695343	0	1	0	0	CorrectCommission	0.236318	0.479189	1	1
407.735199	0.792265	city	7	1	0.596268	0.596268	0	1	0	0	CorrectCommission	1.038450	0.468538	1	1
408.527466	0.792270	city	5	1	0.606220	0.606220	0	1	0	0	CorrectCommission	0.957874	0.455960	1	1
409.319733	0.792259	city	10	1	0.744839	0.744839	0	1	0	0	CorrectCommission	0.164409	0.442175	1	1
410.112000	0.792268	city	7	1	0.749766	0.749766	0	1	0	0	CorrectCommission	0.204304	0.428095	1	1
410.904266	0.792264	city	9	1	0.761228	0.761228	0	1	0	0	CorrectCommission	0.297102	0.414674	1	1
411.696625	0.792481	city	6	1	0.794515	0.794515	0	1	0	0	CorrectCommission	0.566602	0.402817	1	1
412.488983	0.792264	city	4	1	0.744744	0.744744	0	1	0	0	CorrectCommission	0.163646	0.393264	1	1
413.281158	0.792079	city	6	1	0.702244	0.702244	0	1	0	0	CorrectCommission	0.180446	0.386530	1	1
414.073334	0.792238	city	10	1	0.744814	0.744814	0	1	0	0	CorrectCommission	0.164208	0.382860	1	1
414.865692	0.792479	city	4	1	0.794770	0.794770	0	1	0	0	CorrectCommission	0.568668	0.382262	1	1
415.657990	0.792100	city	7	1	0.794681	0.794681	0	1	0	0	CorrectCommission	0.567944	0.384580	1	1
416.450134	0.792214	city	2	1	0.711206	0.711206	0	1	0	0	CorrectCommission	0.107891	0.389651	1	1
417.242371	0.792261	city	10	1	0.646265	0.646265	0	1	0	0	CorrectCommission	0.633665	0.397472	1	1
418.034729	0.792483	mountain	10	1	0.695319	0.695319	0	0	1	0	CommissionError	0.236514	0.408332	1	1
418.826996	0.792049	city	8	1	0.702300	0.702300	0	1	0	0	CorrectCommission	0.179994	0.423018	1	1
419.619171	0.792264	city	4	1	0.699332	0.699332	0	1	0	0	CorrectCommission	0.204020	0.442879	1	1
420.411530	0.792481	city	10	1	0.610680	0.610680	0	1	0	0	CorrectCommission	0.921766	0.469828	1	1
421.203796	0.792050	city	8	1	0.611060	0.611060	0	1	0	0	CorrectCommission	0.918691	0.506213	1	1
421.995972	0.792266	city	9	1	0.657772	0.657772	0	1	0	0	CorrectCommission	0.540498	0.554617	1	1
422.788239	0.792263	city	1	1	0.695482	0.695482	0	1	0	0	CorrectCommission	0.235188	0.617426	1	1
423.580505	0.792305	city	7	1	0.713055	0.713055	0	1	0	0	CorrectCommission	0.092915	0.696371	1	1
424.372833	0.792330	city	3	1	0.744807	0.744807	0	1	0	0	CorrectCommission	0.164153	0.792005	0	0
425.165070	0.792158	city	4	1	0.745244	0.745244	0	1	0	0	CorrectCommission	0.167694	0.903279	0	0
425.957397	0.792482	city	6	1	0.744833	0.744833	0	1	0	0	CorrectCommission	0.164363	1.027295	0	0
426.749756	0.792264	city	9	1	0.695712	0.695712	0	1	0	0	CorrectCommission	0.233328	1.159304	0	0
427.542023	0.792263	city	3	1	0.947509	0.947509	0	1	0	0	CorrectCommission	1.805272	1.293024	0	0
428.334198	0.792048	city	10	1	0.943079	0.943079	0	1	0	0	CorrectCommission	1.769407	1.421144	0	0
429.126343	0.792264	city	4	1	0.992412	0.992412	0	1	0	0	CorrectCommission	2.168816	1.536212	0	0
429.918701	0.792482	city	6	1	1.042581	1.042581	0	1	0	0	CorrectCommission	2.574996	1.631471	0	0
430.710999	0.792069	city	3	1	1.050231	1.050231	0	1	0	0	CorrectCommission	2.636928	1.701693	0	0
431.503143	0.792245	city	7	1	1.042070	1.042070	0	1	0	0	CorrectCommission	2.570859	1.743867	0	0
432.295410	0.792265	city	8	1	1.042499	1.042499	0	1	0	0	CorrectCommission	2.574332	1.757576	0	0
433.087677	0.792265	city	10	1	0.992693	0.992693	0	1	0	0	CorrectCommission	2.171093	1.745046	0	0
433.879944	0.792261	city	2	1	1.042310	1.042310	0	1	0	0	CorrectCommission	2.572803	1.710845	0	0
434.672180	0.792265	city	6	1	0.992668	0.992668	0	1	0	0	CorrectCommission	2.170890	1.661185	0	0
435.464447	0.792265	city	1	1	0.893380	0.893380	0	1	0	0	CorrectCommission	1.367034	1.603113	0	0
436.256836	0.792483	city	5	1	0.794522	0.794522	0	1	0	0	CorrectCommission	0.566656	1.543510	0	0
437.049133	0.792099	city	2	1	0.652329	0.652329	0	1	0	0	CorrectCommission	0.584566	1.488197	0	0
437.841278	0.792211	mountain	9	1	0.746784	0.746784	0	0	1	0	CommissionError	0.180161	1.441215	0	0
438.633545	0.792327	city	5	1	0.596746	0.596746	0	1	0	0	CorrectCommission	1.034581	1.404453	0	0
439.425873	0.792312	city	1	1	0.615532	0.615532	0	1	0	0	CorrectCommission	0.882483	1.377598	0	0
440.218109	0.792170	city	2	1	0.509607	0.509607	0	1	0	0	CorrectCommission	1.740072	1.358519	0	0
441.010315	0.792254	city	9	1	0.497274	0.497274	0	1	0	0	CorrectCommission	1.839926	1.343833	0	0
441.802582	0.792265	city	10	1	0.546777	0.546777	0	1	0	0	CorrectCommission	1.439138	1.329663	0	0
442.594849	0.792265	city	7	1	0.448160	0.448160	0	1	0	0	CorrectCommission	2.237560	1.312387	0	0
443.387115	0.792262	city	9	1	0.596293	0.596293	0	1	0	0	CorrectCommission	1.038248	1.289216	0	0
444.179413	0.792342	city	2	1	0.497476	0.497476	0	1	0	0	CorrectCommission	1.838294	1.258695	0	0
444.971771	0.792404	city	7	1	0.461695	0.461695	0	1	0	0	CorrectCommission	2.127978	1.220677	0	0
445.764130	0.792265	mountain	7	1	0.547007	0.547007	0	0	1	0	CommissionError	1.437281	1.176280	0	0
446.556274	0.792051	city	2	1	0.646475	0.646475	0	1	0	0	CorrectCommission	0.631965	1.127568	0	0
447.348480	0.792368	city	5	1	0.695233	0.695233	0	1	0	0	CorrectCommission	0.237205	1.077066	0	0
448.140747	0.792156	city	6	1	0.645837	0.645837	0	1	0	0	CorrectCommission	0.637126	1.027319	0	0
448.932953	0.792264	city	2	1	0.597952	0.597952	0	1	0	0	CorrectCommission	1.024816	0.980509	0	0
449.725220	0.792266	city	3	1	0.649733	0.649733	0	1	0	0	CorrectCommission	0.605585	0.938250	0	0
450.517487	0.792265	city	5	1	0.609268	0.609268	0	1	0	0	CorrectCommission	0.933202	0.901522	0	0
451.309753	0.792266	city	6	1	0.646251	0.646251	0	1	0	0	CorrectCommission	0.633774	0.870719	0	0
452.102020	0.792263	city	7	0	0.000000	0.821671	0	0	0	1	OmissionError	0.786462	0.845868	0	0
452.894287	0.792279	city	3	1	0.952486	0.952486	0	1	0	0	CorrectCommission	1.845568	0.826829	0	0
453.686584	0.792313	city	9	1	0.855656	0.855656	0	1	0	0	CorrectCommission	1.061608	0.813480	0	0
454.478851	0.792205	city	8	1	0.745352	0.745352	0	1	0	0	CorrectCommission	0.168570	0.805849	0	0
455.271088	0.792263	city	6	1	0.695339	0.695339	0	1	0	0	CorrectCommission	0.236346	0.804099	0	0
456.063354	0.792266	city	5	1	0.844776	0.844776	0	1	0	0	CorrectCommission	0.973522	0.808391	0	0
456.855591	0.792262	city	1	1	0.796329	0.796329	0	1	0	0	CorrectCommission	0.581288	0.818764	0	0
457.647858	0.792266	city	8	1	0.749766	0.749766	0	1	0	0	CorrectCommission	0.204305	0.834992	0	0
458.440125	0.792267	city	2	1	0.745904	0.745904	0	1	0	0	CorrectCommission	0.173035	0.856413	0	0
459.232452	0.792369	city	10	1	0.999528	0.999528	0	1	0	0	CorrectCommission	2.226426	0.881849	0	0
460.024719	0.792157	city	7	1	0.893518	0.893518	0	1	0	0	CorrectCommission	1.368151	0.909517	0	0
460.816925	0.792280	city	2	1	0.794892	0.794892	0	1	0	0	CorrectCommission	0.569653	0.937196	0	0
461.609222	0.792318	city	9	1	0.844414	0.844414	0	1	0	0	CorrectCommission	0.970593	0.962254	0	0
462.401611	0.792413	city	10	1	0.744769	0.744769	0	1	0	0	CorrectCommission	0.163844	0.981827	0	0
463.193939	0.792266	city	5	1	0.744980	0.744980	0	1	0	0	CorrectCommission	0.165554	0.993212	0	0
463.986084	0.792048	city	9	1	0.596099	0.596099	0	1	0	0	CorrectCommission	1.039817	0.994205	0	0
464.778320	0.792372	city	2	1	0.398374	0.398374	0	1	0	0	CorrectCommission	2.640644	0.983483	0	0
465.570618	0.792264	city	9	1	1.041876	1.041876	0	1	0	0	CorrectCommission	2.569284	0.960932	0	0
466.362946	0.792372	city	1	1	0.943119	0.943119	0	1	0	0	CorrectCommission	1.769729	0.927905	0	0
467.155151	0.792049	city	9	1	0.843629	0.843629	0	1	0	0	CorrectCommission	0.964237	0.887175	0	0
467.947357	0.792372	city	2	1	0.745467	0.745467	0	1	0	0	CorrectCommission	0.169495	0.842630	0	0
468.739624	0.792157	city	9	1	0.754205	0.754205	0	1	0	0	CorrectCommission	0.240239	0.798794	0	0
469.531830	0.792264	city	7	1	0.744872	0.744872	0	1	0	0	CorrectCommission	0.164679	0.760189	0	0
470.324127	0.792283	mountain	2	0	0.000000	0.762599	1	0	0	0	CorrectOmission	0.308203	0.730691	0	0
471.116394	0.792249	city	1	1	0.761427	0.761427	0	1	0	0	CorrectCommission	0.298713	0.712984	0	0
471.908661	0.792291	city	5	1	0.695396	0.695396	0	1	0	0	CorrectCommission	0.235888	0.708199	0	0
472.701019	0.792455	city	1	1	0.652754	0.652754	0	1	0	0	CorrectCommission	0.581127	0.715789	0	0
473.493286	0.792057	city	7	1	0.695238	0.695238	0	1	0	0	CorrectCommission	0.237167	0.733629	0	0
474.285431	0.792257	city	5	1	0.695433	0.695433	0	1	0	0	CorrectCommission	0.235585	0.758423	0	0
475.077698	0.792261	city	6	1	0.596756	0.596756	0	1	0	0	CorrectCommission	1.034495	0.786173	0	0
475.869965	0.792295	city	9	1	0.497959	0.497959	0	1	0	0	CorrectCommission	1.834381	0.812748	0	0
476.662262	0.792288	city	4	1	0.511412	0.511412	0	1	0	0	CorrectCommission	1.725463	0.834409	0	0
477.454529	0.792228	city	3	1	0.645800	0.645800	0	1	0	0	CorrectCommission	0.637430	0.848307	0	0
478.246765	0.792247	city	5	1	0.844527	0.844527	0	1	0	0	CorrectCommission	0.971511	0.852775	0	0
479.039062	0.792376	mountain	10	0	0.000000	0.904641	1	0	0	0	CorrectOmission	1.458202	0.847317	0	0
479.831329	0.792157	city	4	1	0.847720	0.847720	0	1	0	0	CorrectCommission	0.997359	0.832561	0	0
480.623535	0.792263	city	10	1	0.695345	0.695345	0	1	0	0	CorrectCommission	0.236299	0.810031	0	0
481.415833	0.792287	city	7	1	0.844200	0.844200	0	1	0	0	CorrectCommission	0.968857	0.781797	0	0
482.208099	0.792257	city	3	1	0.846837	0.846837	0	1	0	0	CorrectCommission	0.990211	0.750044	0	0
483.000336	0.792251	mountain	6	0	0.000000	0.804782	1	0	0	0	CorrectOmission	0.649727	0.716812	0	0
483.792603	0.792271	city	2	1	0.745221	0.745221	0	1	0	0	CorrectCommission	0.167505	0.683743	1	0
484.584869	0.792260	city	5	1	0.695339	0.695339	0	1	0	0	CorrectCommission	0.236353	0.651906	1	0
485.377228	0.792480	city	10	1	0.606459	0.606459	0	1	0	0	CorrectCommission	0.955941	0.621723	1	0
486.169556	0.792159	mountain	1	1	0.645722	0.645722	0	0	1	0	CommissionError	0.638057	0.593009	1	0
486.961731	0.792157	city	4	1	0.794336	0.794336	0	1	0	0	CorrectCommission	0.565154	0.565154	1	0
