onset	duration	trial_type	image_type	Press	ReactionTime	ReactionTime_Interpolated	CorrectOmission	CorrectCommission	CommissionError	OmissionError	response_type	nonsmoothVarianceTimeCourse	VarianceTimeCourse	In_the_Zone	Reward_trial
8.433851	0.792375	city	2	1	0.794362	0.794362	0	1	0	0	CorrectCommission	1.052986	1.052986	0	1
9.226116	0.792156	city	6	1	0.596700	0.596700	0	1	0	0	CorrectCommission	1.044481	1.041816	0	1
10.018380	0.792373	city	4	1	0.645794	0.645794	0	1	0	0	CorrectCommission	0.523526	1.031554	0	1
10.810648	0.792163	city	3	1	0.596169	0.596169	0	1	0	0	CorrectCommission	1.050120	1.022915	0	1
11.602861	0.792263	city	10	1	0.646254	0.646254	0	1	0	0	CorrectCommission	0.518647	1.016304	0	1
12.395231	0.792476	city	1	1	0.596292	0.596292	0	1	0	0	CorrectCommission	1.048811	1.011760	0	1
13.187493	0.792049	city	7	1	0.596145	0.596145	0	1	0	0	CorrectCommission	1.050370	1.008947	0	1
13.979705	0.792374	city	3	1	0.605054	0.605054	0	1	0	0	CorrectCommission	0.955838	1.007303	0	1
14.771971	0.792158	city	1	1	0.596163	0.596163	0	1	0	0	CorrectCommission	1.050185	1.006212	0	1
15.564183	0.792268	city	3	1	0.548607	0.548607	0	1	0	0	CorrectCommission	1.554819	1.005172	0	1
16.356501	0.792365	city	5	1	0.596996	0.596996	0	1	0	0	CorrectCommission	1.041344	1.003943	0	1
17.148762	0.792159	city	7	1	0.599660	0.599660	0	1	0	0	CorrectCommission	1.013071	1.002687	0	1
17.941082	0.792481	city	8	1	0.596351	0.596351	0	1	0	0	CorrectCommission	1.048182	1.001946	0	1
18.733400	0.792156	city	3	1	0.596174	0.596174	0	1	0	0	CorrectCommission	1.050066	1.002583	0	1
19.525665	0.792375	city	8	1	0.598611	0.598611	0	1	0	0	CorrectCommission	1.024207	1.005632	0	1
20.317877	0.792046	city	5	1	0.645564	0.645564	0	1	0	0	CorrectCommission	0.525972	1.012119	0	1
21.110140	0.792481	city	7	1	0.695266	0.695266	0	1	0	0	CorrectCommission	0.001442	1.022905	0	1
21.902460	0.792157	mountain	8	0	0.000000	0.827161	1	0	0	0	CorrectOmission	1.401034	1.038517	0	1
22.694616	0.792159	city	6	1	0.893276	0.893276	0	1	0	0	CorrectCommission	2.102606	1.058947	0	1
23.486828	0.792262	city	4	1	0.745638	0.745638	0	1	0	0	CorrectCommission	0.535959	1.083663	0	1
24.279118	0.792319	city	6	1	0.646243	0.646243	0	1	0	0	CorrectCommission	0.518762	1.111590	0	1
25.071438	0.792319	city	1	1	0.546910	0.546910	0	1	0	0	CorrectCommission	1.572817	1.141101	0	1
25.863674	0.792156	city	10	1	0.615833	0.615833	0	1	0	0	CorrectCommission	0.841451	1.170089	0	1
26.655993	0.792481	city	8	1	0.605589	0.605589	0	1	0	0	CorrectCommission	0.950160	1.196179	0	1
27.448259	0.792050	city	6	1	0.596464	0.596464	0	1	0	0	CorrectCommission	1.046990	1.216887	0	1
28.240414	0.792260	city	10	1	0.497271	0.497271	0	1	0	0	CorrectCommission	2.099560	1.229846	0	1
29.032732	0.792375	city	2	1	0.547039	0.547039	0	1	0	0	CorrectCommission	1.571450	1.233064	0	1
29.825106	0.792374	city	4	1	0.546619	0.546619	0	1	0	0	CorrectCommission	1.575907	1.225147	0	1
30.617315	0.792046	city	3	1	0.546531	0.546531	0	1	0	0	CorrectCommission	1.576845	1.205443	0	1
31.409525	0.792373	city	9	1	0.596259	0.596259	0	1	0	0	CorrectCommission	1.049160	1.174105	0	1
32.201790	0.792156	city	4	1	0.546663	0.546663	0	1	0	0	CorrectCommission	1.575448	1.132072	0	1
32.994110	0.792485	city	2	1	0.546731	0.546731	0	1	0	0	CorrectCommission	1.574726	1.080902	0	1
33.786377	0.792046	mountain	3	0	0.000000	0.587958	1	0	0	0	CorrectOmission	1.137249	1.022617	0	1
34.578533	0.792264	city	8	1	0.645743	0.645743	0	1	0	0	CorrectCommission	0.524062	0.959462	0	1
35.370850	0.792373	city	1	1	0.695487	0.695487	0	1	0	0	CorrectCommission	0.003788	0.893687	0	1
36.163116	0.792159	city	7	1	0.764322	0.764322	0	1	0	0	CorrectCommission	0.734221	0.827381	0	1
36.955437	0.792479	city	8	1	0.843808	0.843808	0	1	0	0	CorrectCommission	1.577682	0.762369	0	1
37.747753	0.792157	city	6	1	0.744546	0.744546	0	1	0	0	CorrectCommission	0.524370	0.700201	1	1
38.539909	0.792155	city	7	1	0.659635	0.659635	0	1	0	0	CorrectCommission	0.376656	0.642261	1	1
39.332123	0.792268	city	10	1	0.645769	0.645769	0	1	0	0	CorrectCommission	0.523795	0.589742	1	1
40.124420	0.792327	city	9	1	0.607811	0.607811	0	1	0	0	CorrectCommission	0.926580	0.543771	1	1
40.916683	0.792201	city	2	1	0.658835	0.658835	0	1	0	0	CorrectCommission	0.385147	0.505502	1	1
41.708916	0.792261	mountain	8	0	0.000000	0.683791	1	0	0	0	CorrectOmission	0.120321	0.476118	1	1
42.501179	0.792266	city	10	1	0.695318	0.695318	0	1	0	0	CorrectCommission	0.001995	0.456742	1	1
43.293446	0.792267	city	6	1	0.706053	0.706053	0	1	0	0	CorrectCommission	0.115900	0.448365	1	1
44.085712	0.792267	city	3	1	0.752166	0.752166	0	1	0	0	CorrectCommission	0.605224	0.451698	1	1
44.878029	0.792369	city	5	1	0.706074	0.706074	0	1	0	0	CorrectCommission	0.116131	0.467011	1	1
45.670292	0.792155	city	9	1	0.753076	0.753076	0	1	0	0	CorrectCommission	0.614885	0.493976	1	1
46.462532	0.792327	city	8	1	0.661808	0.661808	0	1	0	0	CorrectCommission	0.353593	0.531537	1	1
47.254852	0.792311	city	1	1	0.675021	0.675021	0	1	0	0	CorrectCommission	0.213384	0.577850	1	1
48.047089	0.792165	mountain	5	0	0.000000	0.659778	1	0	0	0	CorrectOmission	0.375137	0.630252	1	1
48.839409	0.792475	city	6	1	0.646005	0.646005	0	1	0	0	CorrectCommission	0.521287	0.685375	1	1
49.631668	0.792047	city	3	1	0.663630	0.663630	0	1	0	0	CorrectCommission	0.334267	0.739398	1	1
50.423882	0.792375	city	1	1	0.646260	0.646260	0	1	0	0	CorrectCommission	0.518586	0.788406	0	1
51.216255	0.792372	city	7	1	0.794220	0.794220	0	1	0	0	CorrectCommission	1.051480	0.828805	0	1
52.008465	0.792051	city	1	1	0.893182	0.893182	0	1	0	0	CorrectCommission	2.101609	0.857782	0	1
52.800640	0.792302	city	9	1	0.900167	0.900167	0	1	0	0	CorrectCommission	2.175723	0.873677	0	1
53.592903	0.792223	city	8	1	0.893347	0.893347	0	1	0	0	CorrectCommission	2.103354	0.876205	0	1
54.385151	0.792274	city	3	1	0.745172	0.745172	0	1	0	0	CorrectCommission	0.531007	0.866448	0	1
55.177471	0.792364	city	5	1	0.707010	0.707010	0	1	0	0	CorrectCommission	0.126060	0.846707	0	1
55.969734	0.792158	mountain	2	0	0.000000	0.735747	1	0	0	0	CorrectOmission	0.431000	0.820051	0	1
56.761944	0.792266	mountain	9	0	0.000000	0.773748	1	0	0	0	CorrectOmission	0.834241	0.789877	0	1
57.554264	0.792370	city	1	1	0.763377	0.763377	0	1	0	0	CorrectCommission	0.724192	0.759426	0	1
58.346527	0.792156	city	10	1	0.646999	0.646999	0	1	0	0	CorrectCommission	0.510736	0.731395	1	1
59.138737	0.792268	city	2	1	0.749014	0.749014	0	1	0	0	CorrectCommission	0.571786	0.707643	1	1
59.931004	0.792261	city	7	1	0.657205	0.657205	0	1	0	0	CorrectCommission	0.402442	0.689109	1	1
60.723297	0.792330	city	3	1	0.695475	0.695475	0	1	0	0	CorrectCommission	0.003658	0.675879	1	1
61.515579	0.792229	mountain	9	0	0.000000	0.628423	1	0	0	0	CorrectOmission	0.707856	0.667378	1	1
62.307812	0.792236	city	3	1	0.560648	0.560648	0	1	0	0	CorrectCommission	1.427041	0.662629	1	1
63.100063	0.792269	city	10	1	0.596750	0.596750	0	1	0	0	CorrectCommission	1.043955	0.660526	1	1
63.892326	0.792259	city	2	1	0.695306	0.695306	0	1	0	0	CorrectCommission	0.001862	0.660103	1	1
64.684601	0.792287	city	1	1	0.607897	0.607897	0	1	0	0	CorrectCommission	0.925666	0.660674	1	1
65.476868	0.792243	city	5	1	0.596291	0.596291	0	1	0	0	CorrectCommission	1.048825	0.661821	1	1
66.269173	0.792375	city	4	1	0.649788	0.649788	0	1	0	0	CorrectCommission	0.481141	0.663371	1	1
67.061440	0.792157	city	10	1	0.744753	0.744753	0	1	0	0	CorrectCommission	0.526566	0.665279	1	1
67.853706	0.792373	mountain	2	0	0.000000	0.760530	1	0	0	0	CorrectOmission	0.693983	0.667429	1	0
68.645966	0.792156	city	5	1	0.744692	0.744692	0	1	0	0	CorrectCommission	0.525919	0.669488	1	0
69.438232	0.792371	city	8	1	0.744811	0.744811	0	1	0	0	CorrectCommission	0.527181	0.670834	1	0
70.230499	0.792166	city	7	1	0.710562	0.710562	0	1	0	0	CorrectCommission	0.163751	0.670602	1	0
71.022713	0.792258	city	1	1	0.695239	0.695239	0	1	0	0	CorrectCommission	0.001154	0.667817	1	0
71.814972	0.792263	city	10	1	0.794311	0.794311	0	1	0	0	CorrectCommission	1.052450	0.661617	1	0
72.607239	0.792263	city	7	1	0.893830	0.893830	0	1	0	0	CorrectCommission	2.108479	0.651468	1	0
73.399612	0.792483	city	3	1	0.864813	0.864813	0	1	0	0	CorrectCommission	1.800567	0.637347	1	0
74.191879	0.792049	city	10	1	0.744571	0.744571	0	1	0	0	CorrectCommission	0.524634	0.619840	1	0
74.984032	0.792262	city	1	1	0.695246	0.695246	0	1	0	0	CorrectCommission	0.001230	0.600092	1	0
75.776299	0.792263	city	5	1	0.696275	0.696275	0	1	0	0	CorrectCommission	0.012148	0.579591	1	0
76.568573	0.792285	city	2	1	0.699963	0.699963	0	1	0	0	CorrectCommission	0.051280	0.559887	1	0
77.360855	0.792289	city	1	1	0.646735	0.646735	0	1	0	0	CorrectCommission	0.513543	0.542335	1	0
78.153114	0.792223	city	7	1	0.647784	0.647784	0	1	0	0	CorrectCommission	0.502411	0.527876	1	0
78.945358	0.792264	city	1	1	0.646080	0.646080	0	1	0	0	CorrectCommission	0.520493	0.516913	1	0
79.737671	0.792374	mountain	6	0	0.000000	0.637489	1	0	0	0	CorrectOmission	0.611652	0.509298	1	0
80.529945	0.792170	city	10	1	0.645928	0.645928	0	1	0	0	CorrectCommission	0.522103	0.504508	1	0
81.322159	0.792251	city	7	1	0.695313	0.695313	0	1	0	0	CorrectCommission	0.001940	0.501859	1	0
82.114410	0.792264	city	3	1	0.745145	0.745145	0	1	0	0	CorrectCommission	0.530723	0.500723	1	0
82.906677	0.792268	city	5	1	0.794299	0.794299	0	1	0	0	CorrectCommission	1.052314	0.500739	1	0
83.698959	0.792291	mountain	5	0	0.000000	0.777629	1	0	0	0	CorrectOmission	0.875421	0.502080	1	0
84.491333	0.792452	city	7	1	0.744782	0.744782	0	1	0	0	CorrectCommission	0.526876	0.505520	1	0
85.283607	0.792108	city	6	1	0.745407	0.745407	0	1	0	0	CorrectCommission	0.533510	0.512421	1	0
86.075874	0.792423	mountain	6	0	0.000000	0.726894	1	0	0	0	CorrectOmission	0.337059	0.524572	1	0
86.868118	0.792063	city	10	1	0.695399	0.695399	0	1	0	0	CorrectCommission	0.002856	0.543955	1	0
87.660278	0.792251	mountain	9	0	0.000000	0.657080	1	0	0	0	CorrectOmission	0.403766	0.572426	1	0
88.452530	0.792263	city	3	1	0.645766	0.645766	0	1	0	0	CorrectCommission	0.523818	0.611394	1	0
89.244797	0.792265	city	6	1	0.695289	0.695289	0	1	0	0	CorrectCommission	0.001688	0.661535	1	0
90.037064	0.792262	city	2	1	0.646126	0.646126	0	1	0	0	CorrectCommission	0.520004	0.722617	1	0
90.829323	0.792271	city	3	1	0.794378	0.794378	0	1	0	0	CorrectCommission	1.053151	0.793379	0	0
91.621704	0.792478	city	10	1	0.744832	0.744832	0	1	0	0	CorrectCommission	0.527407	0.871615	0	0
92.414070	0.792264	city	4	1	0.744545	0.744545	0	1	0	0	CorrectCommission	0.524360	0.954374	0	0
93.206230	0.792046	mountain	5	0	0.000000	0.795055	1	0	0	0	CorrectOmission	1.060339	1.038230	0	0
93.998390	0.792273	city	8	1	0.794347	0.794347	0	1	0	0	CorrectCommission	1.052830	1.119670	0	0
94.790764	0.792477	mountain	5	0	0.000000	0.640408	1	0	0	0	CorrectOmission	0.580678	1.195504	0	0
95.583076	0.792154	city	8	1	0.462149	0.462149	0	1	0	0	CorrectCommission	2.472250	1.263223	0	0
96.375237	0.792157	mountain	5	0	0.000000	0.388484	1	0	0	0	CorrectOmission	3.253946	1.321163	0	0
97.167496	0.792373	city	10	1	0.456564	0.456564	0	1	0	0	CorrectCommission	2.531516	1.368597	0	0
97.959763	0.792158	city	3	1	0.703545	0.703545	0	1	0	0	CorrectCommission	0.089291	1.405593	0	0
98.752029	0.792371	city	2	1	0.596352	0.596352	0	1	0	0	CorrectCommission	1.048174	1.432737	0	0
99.544289	0.792154	city	9	1	0.612948	0.612948	0	1	0	0	CorrectCommission	0.872066	1.450638	0	0
100.336502	0.792269	city	3	1	0.547104	0.547104	0	1	0	0	CorrectCommission	1.570769	1.459677	0	0
101.128769	0.792261	city	5	1	0.550717	0.550717	0	1	0	0	CorrectCommission	1.532425	1.459757	0	0
101.921028	0.792263	city	6	1	0.556569	0.556569	0	1	0	0	CorrectCommission	1.470323	1.450315	0	0
102.713326	0.792327	city	7	1	0.603243	0.603243	0	1	0	0	CorrectCommission	0.975052	1.430473	0	0
103.505646	0.792313	city	10	1	0.558501	0.558501	0	1	0	0	CorrectCommission	1.449829	1.399417	0	0
104.297882	0.792155	city	5	1	0.497072	0.497072	0	1	0	0	CorrectCommission	2.101674	1.356784	0	0
105.090141	0.792374	city	10	1	0.398205	0.398205	0	1	0	0	CorrectCommission	3.150785	1.303031	0	0
105.882515	0.792372	city	4	1	0.459367	0.459367	0	1	0	0	CorrectCommission	2.501777	1.239648	0	0
106.674728	0.792047	city	5	1	0.597224	0.597224	0	1	0	0	CorrectCommission	1.038918	1.169185	0	0
107.466934	0.792376	city	4	1	0.646575	0.646575	0	1	0	0	CorrectCommission	0.515237	1.094982	0	0
108.259209	0.792159	city	6	1	0.697799	0.697799	0	1	0	0	CorrectCommission	0.028322	1.020726	0	0
109.051430	0.792289	city	9	1	0.695304	0.695304	0	1	0	0	CorrectCommission	0.001842	0.949978	0	0
109.843689	0.792237	mountain	8	0	0.000000	0.711349	1	0	0	0	CorrectOmission	0.172106	0.885730	0	0
110.635971	0.792319	city	6	1	0.744852	0.744852	0	1	0	0	CorrectCommission	0.527619	0.830084	0	0
111.428253	0.792255	city	9	1	0.794730	0.794730	0	1	0	0	CorrectCommission	1.056887	0.784160	0	0
112.220551	0.792331	mountain	7	0	0.000000	0.802747	1	0	0	0	CorrectOmission	1.141963	0.748167	1	0
113.012901	0.792372	city	8	1	0.794288	0.794288	0	1	0	0	CorrectCommission	1.052201	0.721572	1	0
113.805145	0.792112	city	9	1	0.794736	0.794736	0	1	0	0	CorrectCommission	1.056956	0.703343	1	0
114.597351	0.792308	city	7	1	0.745064	0.745064	0	1	0	0	CorrectCommission	0.529862	0.692143	1	0
115.389587	0.792156	mountain	1	1	0.695387	0.695387	0	0	1	0	CommissionError	0.002725	0.686497	1	0
116.181831	0.792340	mountain	4	0	0.000000	0.659535	1	0	0	0	CorrectOmission	0.377717	0.684798	1	0
116.974098	0.792192	city	10	1	0.645974	0.645974	0	1	0	0	CorrectCommission	0.521619	0.685344	1	0
117.766335	0.792281	city	4	1	0.663170	0.663170	0	1	0	0	CorrectCommission	0.339139	0.686354	1	0
118.558655	0.792356	city	8	1	0.596239	0.596239	0	1	0	0	CorrectCommission	1.049378	0.686054	1	0
119.351021	0.792372	city	5	1	0.600462	0.600462	0	1	0	0	CorrectCommission	1.004561	0.682738	1	0
120.143227	0.792052	city	4	1	0.605462	0.605462	0	1	0	0	CorrectCommission	0.951503	0.674962	1	0
120.935387	0.792264	city	2	1	0.596388	0.596388	0	1	0	0	CorrectCommission	1.047793	0.661679	1	0
121.727661	0.792281	city	3	1	0.645899	0.645899	0	1	0	0	CorrectCommission	0.522407	0.642363	1	0
122.519981	0.792353	mountain	10	0	0.000000	0.620992	1	0	0	0	CorrectOmission	0.786707	0.617101	1	0
123.312233	0.792159	city	8	1	0.596139	0.596139	0	1	0	0	CorrectCommission	1.050434	0.586606	1	0
124.104469	0.792317	city	10	1	0.645812	0.645812	0	1	0	0	CorrectCommission	0.523330	0.552165	1	0
124.896736	0.792213	city	5	1	0.745305	0.745305	0	1	0	0	CorrectCommission	0.532425	0.515488	1	0
125.689079	0.792479	city	4	1	0.696910	0.696910	0	1	0	0	CorrectCommission	0.018881	0.478534	1	0
126.481400	0.792155	city	3	1	0.744560	0.744560	0	1	0	0	CorrectCommission	0.524517	0.443320	1	0
127.273613	0.792266	city	7	1	0.706636	0.706636	0	1	0	0	CorrectCommission	0.122093	0.411689	1	1
128.065857	0.792219	city	4	1	0.695747	0.695747	0	1	0	0	CorrectCommission	0.006548	0.385216	1	1
128.858093	0.792257	city	6	1	0.747385	0.747385	0	1	0	0	CorrectCommission	0.554490	0.365110	1	1
129.650330	0.792213	city	7	1	0.745032	0.745032	0	1	0	0	CorrectCommission	0.529523	0.352180	1	1
130.442566	0.792261	city	1	1	0.695421	0.695421	0	1	0	0	CorrectCommission	0.003090	0.346873	1	1
131.234818	0.792266	city	5	1	0.697710	0.697710	0	1	0	0	CorrectCommission	0.027379	0.349332	1	1
132.027115	0.792309	city	6	1	0.744920	0.744920	0	1	0	0	CorrectCommission	0.528337	0.359450	1	1
132.819412	0.792294	city	2	1	0.695255	0.695255	0	1	0	0	CorrectCommission	0.001326	0.376938	1	1
133.611664	0.792197	city	4	1	0.744872	0.744872	0	1	0	0	CorrectCommission	0.527825	0.401419	1	1
134.403946	0.792369	city	8	1	0.695818	0.695818	0	1	0	0	CorrectCommission	0.007293	0.432423	1	1
135.196228	0.792218	city	5	1	0.645857	0.645857	0	1	0	0	CorrectCommission	0.522858	0.469454	1	1
135.988449	0.792201	city	8	1	0.599706	0.599706	0	1	0	0	CorrectCommission	1.012585	0.511968	1	1
136.780685	0.792268	city	1	1	0.646168	0.646168	0	1	0	0	CorrectCommission	0.519552	0.559339	1	1
137.572952	0.792265	city	6	1	0.714493	0.714493	0	1	0	0	CorrectCommission	0.205464	0.610890	1	1
138.365311	0.792479	city	7	1	0.744788	0.744788	0	1	0	0	CorrectCommission	0.526934	0.665819	1	1
139.157578	0.792052	city	3	1	0.744679	0.744679	0	1	0	0	CorrectCommission	0.525780	0.723196	1	1
139.949738	0.792260	city	10	1	0.695778	0.695778	0	1	0	0	CorrectCommission	0.006869	0.781989	0	1
140.742050	0.792372	city	4	1	0.809955	0.809955	0	1	0	0	CorrectCommission	1.218452	0.841056	0	1
141.534317	0.792167	city	7	1	0.893291	0.893291	0	1	0	0	CorrectCommission	2.102758	0.899195	0	1
142.326645	0.792475	mountain	7	0	0.000000	0.791558	1	0	0	0	CorrectOmission	1.023233	0.955173	0	1
143.119019	0.792264	city	5	1	0.645569	0.645569	0	1	0	0	CorrectCommission	0.525919	1.007767	0	1
143.911179	0.792050	city	8	1	0.596133	0.596133	0	1	0	0	CorrectCommission	1.050494	1.055717	0	1
144.703323	0.792265	city	9	1	0.560127	0.560127	0	1	0	0	CorrectCommission	1.432573	1.097714	0	1
145.495590	0.792261	city	1	1	0.596248	0.596248	0	1	0	0	CorrectCommission	1.049282	1.132434	0	1
146.287857	0.792265	city	3	1	0.596404	0.596404	0	1	0	0	CorrectCommission	1.047621	1.158575	0	1
147.080124	0.792264	mountain	10	1	0.596222	0.596222	0	0	1	0	CommissionError	1.049551	1.174948	0	1
147.872498	0.792482	city	5	1	0.612640	0.612640	0	1	0	0	CorrectCommission	0.875337	1.180653	0	1
148.664764	0.792053	city	10	1	0.512041	0.512041	0	1	0	0	CorrectCommission	1.942831	1.175276	0	1
149.456970	0.792368	city	1	1	0.499938	0.499938	0	1	0	0	CorrectCommission	2.071259	1.159050	0	1
150.249237	0.792159	city	6	1	0.564309	0.564309	0	1	0	0	CorrectCommission	1.388195	1.132984	0	1
151.041443	0.792269	city	10	1	0.459674	0.459674	0	1	0	0	CorrectCommission	2.498516	1.098827	0	1
151.833710	0.792260	city	4	1	0.645763	0.645763	0	1	0	0	CorrectCommission	0.523853	1.058891	0	1
152.626083	0.792480	city	1	1	0.650825	0.650825	0	1	0	0	CorrectCommission	0.470145	1.015859	0	1
153.418350	0.792046	mountain	6	0	0.000000	0.665061	1	0	0	0	CorrectOmission	0.319080	0.972358	0	1
154.210495	0.792266	city	6	1	0.706880	0.706880	0	1	0	0	CorrectCommission	0.124681	0.930696	0	1
155.002792	0.792318	city	1	1	0.794691	0.794691	0	1	0	0	CorrectCommission	1.056478	0.892641	0	1
155.795059	0.792219	city	5	1	0.704929	0.704929	0	1	0	0	CorrectCommission	0.103983	0.859305	0	1
156.587326	0.792314	city	6	1	0.844001	0.844001	0	1	0	0	CorrectCommission	1.579724	0.831235	0	1
157.379593	0.792210	city	7	1	0.844181	0.844181	0	1	0	0	CorrectCommission	1.581634	0.808509	0	1
158.171875	0.792372	city	5	1	0.745263	0.745263	0	1	0	0	CorrectCommission	0.531973	0.790958	0	1
158.964142	0.792155	city	2	1	0.645651	0.645651	0	1	0	0	CorrectCommission	0.525046	0.778316	0	1
159.756378	0.792309	mountain	1	1	0.645758	0.645758	0	0	1	0	CommissionError	0.523912	0.770307	0	1
160.548660	0.792259	city	2	1	0.596592	0.596592	0	1	0	0	CorrectCommission	1.045633	0.766648	0	1
161.340958	0.792335	city	9	1	0.607985	0.607985	0	1	0	0	CorrectCommission	0.924729	0.766955	0	1
162.133224	0.792205	city	8	1	0.646086	0.646086	0	1	0	0	CorrectCommission	0.520428	0.770638	0	1
162.925446	0.792220	city	5	1	0.695427	0.695427	0	1	0	0	CorrectCommission	0.003147	0.776796	0	1
163.717789	0.792479	city	10	1	0.707015	0.707015	0	1	0	0	CorrectCommission	0.126111	0.784176	0	1
164.510101	0.792155	city	6	1	0.843587	0.843587	0	1	0	0	CorrectCommission	1.575332	0.791194	0	1
165.302261	0.792157	city	10	1	0.603123	0.603123	0	1	0	0	CorrectCommission	0.976329	0.796101	0	1
166.094467	0.792265	city	6	1	0.645843	0.645843	0	1	0	0	CorrectCommission	0.523004	0.797255	0	1
166.886734	0.792264	city	4	1	0.596271	0.596271	0	1	0	0	CorrectCommission	1.049032	0.793390	0	1
167.679001	0.792265	city	5	1	0.558338	0.558338	0	1	0	0	CorrectCommission	1.451554	0.783862	0	1
168.471283	0.792293	city	2	1	0.551418	0.551418	0	1	0	0	CorrectCommission	1.524986	0.768803	0	1
169.263550	0.792239	city	10	1	0.612517	0.612517	0	1	0	0	CorrectCommission	0.876640	0.749256	1	1
170.055832	0.792336	city	9	1	0.744765	0.744765	0	1	0	0	CorrectCommission	0.526690	0.727026	1	1
170.848099	0.792195	city	6	1	0.748791	0.748791	0	1	0	0	CorrectCommission	0.569417	0.704440	1	1
171.640320	0.792260	city	7	1	0.709554	0.709554	0	1	0	0	CorrectCommission	0.153056	0.684038	1	1
172.432617	0.792328	city	10	1	0.744771	0.744771	0	1	0	0	CorrectCommission	0.526753	0.668198	1	1
173.224884	0.792201	city	8	1	0.744727	0.744727	0	1	0	0	CorrectCommission	0.526290	0.658843	1	1
174.017136	0.792291	city	3	1	0.695895	0.695895	0	1	0	0	CorrectCommission	0.008113	0.657199	1	1
174.809509	0.792457	city	8	1	0.655194	0.655194	0	1	0	0	CorrectCommission	0.423781	0.663709	1	1
175.601761	0.792049	city	4	1	0.745187	0.745187	0	1	0	0	CorrectCommission	0.531171	0.678068	1	1
176.394028	0.792479	city	1	1	0.596652	0.596652	0	1	0	0	CorrectCommission	1.044995	0.699354	1	1
177.186325	0.792116	mountain	7	1	0.596019	0.596019	0	0	1	0	CommissionError	1.051705	0.726200	1	1
177.978485	0.792199	city	2	1	0.647766	0.647766	0	1	0	0	CorrectCommission	0.502597	0.757051	1	1
178.770706	0.792264	city	10	1	0.610547	0.610547	0	1	0	0	CorrectCommission	0.897548	0.790339	0	1
179.562973	0.792263	city	8	1	0.645732	0.645732	0	1	0	0	CorrectCommission	0.524181	0.824632	0	1
180.355240	0.792265	city	10	1	0.612819	0.612819	0	1	0	0	CorrectCommission	0.873438	0.858732	0	1
181.147507	0.792264	city	6	1	0.598841	0.598841	0	1	0	0	CorrectCommission	1.021767	0.891672	0	1
181.939758	0.792263	city	8	1	0.546793	0.546793	0	1	0	0	CorrectCommission	1.574064	0.922685	0	1
182.732086	0.792376	city	5	1	0.597973	0.597973	0	1	0	0	CorrectCommission	1.030973	0.951139	0	1
183.524353	0.792157	city	9	1	0.704784	0.704784	0	1	0	0	CorrectCommission	0.102443	0.976488	0	1
184.316559	0.792268	city	7	1	0.794323	0.794323	0	1	0	0	CorrectCommission	1.052571	0.998163	0	1
185.108826	0.792260	city	8	1	0.808309	0.808309	0	1	0	0	CorrectCommission	1.200982	1.015495	0	1
185.901123	0.792347	city	3	1	0.794865	0.794865	0	1	0	0	CorrectCommission	1.058322	1.027751	0	1
186.693451	0.792291	city	7	1	0.843742	0.843742	0	1	0	0	CorrectCommission	1.576976	1.034165	0	0
187.485672	0.792160	city	6	1	0.810387	0.810387	0	1	0	0	CorrectCommission	1.223037	1.033976	0	0
188.277893	0.792275	city	1	1	0.794404	0.794404	0	1	0	0	CorrectCommission	1.053428	1.026530	0	0
189.070206	0.792360	city	3	1	0.794334	0.794334	0	1	0	0	CorrectCommission	1.052693	1.011379	0	0
189.862473	0.792155	city	8	1	0.645938	0.645938	0	1	0	0	CorrectCommission	0.521994	0.988354	0	0
190.654709	0.792312	city	4	1	0.558363	0.558363	0	1	0	0	CorrectCommission	1.451286	0.957714	0	0
191.446960	0.792219	city	3	1	0.550127	0.550127	0	1	0	0	CorrectCommission	1.538681	0.920185	0	0
192.239212	0.792265	city	9	1	0.645740	0.645740	0	1	0	0	CorrectCommission	0.524095	0.877083	0	0
193.031479	0.792261	city	2	1	0.564679	0.564679	0	1	0	0	CorrectCommission	1.384272	0.830348	0	0
193.823853	0.792484	city	3	1	0.645769	0.645769	0	1	0	0	CorrectCommission	0.523791	0.782412	0	0
194.616104	0.792046	city	1	1	0.596034	0.596034	0	1	0	0	CorrectCommission	1.051547	0.736180	1	0
195.408325	0.792375	city	4	1	0.645768	0.645768	0	1	0	0	CorrectCommission	0.523805	0.694734	1	0
196.200638	0.792266	city	6	1	0.700142	0.700142	0	1	0	0	CorrectCommission	0.053180	0.661092	1	0
196.992905	0.792262	city	1	1	0.645637	0.645637	0	1	0	0	CorrectCommission	0.525194	0.637845	1	0
197.785126	0.792182	city	9	1	0.648233	0.648233	0	1	0	0	CorrectCommission	0.497645	0.626799	1	0
198.577332	0.792239	city	5	1	0.646278	0.646278	0	1	0	0	CorrectCommission	0.518392	0.628683	1	0
199.369644	0.792376	city	3	1	0.695305	0.695305	0	1	0	0	CorrectCommission	0.001850	0.642935	1	0
200.161911	0.792153	city	8	1	0.695162	0.695162	0	1	0	0	CorrectCommission	0.000338	0.667669	1	0
200.954117	0.792267	city	4	1	0.695292	0.695292	0	1	0	0	CorrectCommission	0.001718	0.699805	1	0
201.746445	0.792373	city	2	1	0.744753	0.744753	0	1	0	0	CorrectCommission	0.526561	0.735374	1	0
202.538712	0.792159	city	4	1	0.794196	0.794196	0	1	0	0	CorrectCommission	1.051227	0.770019	0	0
203.330933	0.792309	city	10	1	0.843862	0.843862	0	1	0	0	CorrectCommission	1.578245	0.799595	0	0
204.123199	0.792223	city	5	1	0.893639	0.893639	0	1	0	0	CorrectCommission	2.106449	0.820727	0	0
204.915451	0.792258	city	10	1	0.801405	0.801405	0	1	0	0	CorrectCommission	1.127725	0.831296	0	0
205.707703	0.792267	city	2	1	0.844115	0.844115	0	1	0	0	CorrectCommission	1.580932	0.830723	0	0
206.499969	0.792266	city	8	1	0.744937	0.744937	0	1	0	0	CorrectCommission	0.528518	0.819924	0	0
207.292236	0.792262	mountain	7	0	0.000000	0.779693	1	0	0	0	CorrectOmission	0.897327	0.801158	0	0
208.084534	0.792336	city	7	1	0.809472	0.809472	0	1	0	0	CorrectCommission	1.213327	0.777521	0	0
208.876801	0.792196	city	8	1	0.695365	0.695365	0	1	0	0	CorrectCommission	0.002487	0.752458	1	0
209.669037	0.792266	city	3	1	0.652580	0.652580	0	1	0	0	CorrectCommission	0.451520	0.729284	1	0
210.461304	0.792265	city	5	1	0.695655	0.695655	0	1	0	0	CorrectCommission	0.005565	0.710617	1	0
211.253571	0.792264	city	6	1	0.711472	0.711472	0	1	0	0	CorrectCommission	0.173411	0.698190	1	0
212.045837	0.792290	city	10	1	0.666161	0.666161	0	1	0	0	CorrectCommission	0.307401	0.692700	1	0
212.838150	0.792314	city	8	1	0.596804	0.596804	0	1	0	0	CorrectCommission	1.043381	0.693915	1	0
213.630386	0.792187	city	9	1	0.598912	0.598912	0	1	0	0	CorrectCommission	1.021011	0.700865	1	0
214.422623	0.792265	city	5	1	0.596949	0.596949	0	1	0	0	CorrectCommission	1.041842	0.712152	1	0
215.214890	0.792284	city	3	1	0.596378	0.596378	0	1	0	0	CorrectCommission	1.047897	0.726162	1	0
216.007187	0.792287	city	8	1	0.600860	0.600860	0	1	0	0	CorrectCommission	1.000337	0.741283	1	0
216.799438	0.792226	city	9	1	0.745408	0.745408	0	1	0	0	CorrectCommission	0.533520	0.756035	1	0
217.591675	0.792265	city	2	1	0.695248	0.695248	0	1	0	0	CorrectCommission	0.001245	0.769108	0	0
218.383942	0.792264	city	9	1	0.652478	0.652478	0	1	0	0	CorrectCommission	0.452595	0.779400	0	0
219.176208	0.792264	city	4	1	0.749820	0.749820	0	1	0	0	CorrectCommission	0.580335	0.786001	0	0
219.968506	0.792335	city	6	1	0.812966	0.812966	0	1	0	0	CorrectCommission	1.250404	0.788305	0	0
220.760788	0.792221	city	1	1	0.843868	0.843868	0	1	0	0	CorrectCommission	1.578310	0.786071	0	0
221.553040	0.792269	mountain	2	0	0.000000	0.823353	1	0	0	0	CorrectOmission	1.360623	0.779525	0	0
222.345291	0.792235	mountain	3	0	0.000000	0.780596	1	0	0	0	CorrectOmission	0.906907	0.769416	0	0
223.137558	0.792315	city	1	1	0.744768	0.744768	0	1	0	0	CorrectCommission	0.526727	0.756932	1	0
223.929825	0.792210	city	5	1	0.745043	0.745043	0	1	0	0	CorrectCommission	0.529646	0.743594	1	0
224.722061	0.792268	city	10	1	0.794315	0.794315	0	1	0	0	CorrectCommission	1.052487	0.731011	1	0
225.514328	0.792261	city	3	1	0.713650	0.713650	0	1	0	0	CorrectCommission	0.196524	0.720606	1	0
226.306625	0.792347	city	5	1	0.707192	0.707192	0	1	0	0	CorrectCommission	0.127989	0.713423	1	0
227.098892	0.792182	city	9	1	0.745419	0.745419	0	1	0	0	CorrectCommission	0.533635	0.709935	1	0
227.891220	0.792483	city	6	1	0.645763	0.645763	0	1	0	0	CorrectCommission	0.523854	0.710055	1	0
228.683487	0.792051	mountain	9	0	0.000000	0.744727	1	0	0	0	CorrectOmission	0.526295	0.713173	1	0
229.475647	0.792261	city	3	1	0.843876	0.843876	0	1	0	0	CorrectCommission	1.578402	0.718400	1	0
230.267914	0.792265	city	4	1	0.744774	0.744774	0	1	0	0	CorrectCommission	0.526784	0.724792	1	0
231.060226	0.792373	city	7	1	0.648254	0.648254	0	1	0	0	CorrectCommission	0.497417	0.731678	1	0
231.852524	0.792215	city	1	1	0.596431	0.596431	0	1	0	0	CorrectCommission	1.047332	0.738848	1	0
232.644760	0.792260	city	9	1	0.596772	0.596772	0	1	0	0	CorrectCommission	1.043715	0.746666	1	0
233.437103	0.792429	city	3	1	0.559434	0.559434	0	1	0	0	CorrectCommission	1.439921	0.756047	1	0
234.229401	0.792155	city	2	1	0.648092	0.648092	0	1	0	0	CorrectCommission	0.499137	0.768317	0	0
235.021591	0.792221	city	7	1	0.745416	0.745416	0	1	0	0	CorrectCommission	0.533596	0.784963	0	0
235.813797	0.792200	city	6	1	0.711651	0.711651	0	1	0	0	CorrectCommission	0.175307	0.807262	0	0
236.606049	0.792295	city	4	1	0.655388	0.655388	0	1	0	0	CorrectCommission	0.421724	0.835992	0	0
237.398315	0.792235	city	7	1	0.662366	0.662366	0	1	0	0	CorrectCommission	0.347671	0.871182	0	0
238.190567	0.792263	city	5	1	0.710253	0.710253	0	1	0	0	CorrectCommission	0.160468	0.912011	0	0
238.982941	0.792481	city	3	1	0.794263	0.794263	0	1	0	0	CorrectCommission	1.051935	0.956842	0	0
239.775299	0.792265	city	5	1	0.893883	0.893883	0	1	0	0	CorrectCommission	2.109039	1.003361	0	0
240.567459	0.792047	city	2	1	0.893452	0.893452	0	1	0	0	CorrectCommission	2.104464	1.048827	0	0
241.359619	0.792268	mountain	3	0	0.000000	0.720034	1	0	0	0	CorrectOmission	0.264268	1.090366	0	0
242.151993	0.792481	city	9	1	0.645737	0.645737	0	1	0	0	CorrectCommission	0.524127	1.125236	0	0
242.944366	0.792263	city	7	1	0.942666	0.942666	0	1	0	0	CorrectCommission	2.626702	1.151006	0	0
243.736526	0.792047	city	1	1	0.744472	0.744472	0	1	0	0	CorrectCommission	0.523584	1.165739	0	0
244.528732	0.792376	city	9	1	0.801115	0.801115	0	1	0	0	CorrectCommission	1.124647	1.168233	0	0
245.321106	0.792373	city	10	1	0.843726	0.843726	0	1	0	0	CorrectCommission	1.576812	1.158027	0	0
246.113327	0.792082	city	5	1	0.794137	0.794137	0	1	0	0	CorrectCommission	1.050600	1.135511	0	1
246.905487	0.792231	mountain	7	0	0.000000	0.886177	1	0	0	0	CorrectOmission	2.027276	1.101940	0	1
247.697739	0.792265	city	8	1	0.907526	0.907526	0	1	0	0	CorrectCommission	2.253816	1.059365	0	1
248.490005	0.792262	city	1	1	0.645862	0.645862	0	1	0	0	CorrectCommission	0.522800	1.010495	0	1
249.282318	0.792374	city	3	1	0.607513	0.607513	0	1	0	0	CorrectCommission	0.929739	0.958474	0	1
250.074585	0.792159	city	8	1	0.650664	0.650664	0	1	0	0	CorrectCommission	0.471848	0.906505	0	1
250.866821	0.792313	city	9	1	0.745416	0.745416	0	1	0	0	CorrectCommission	0.533597	0.857549	0	1
251.659195	0.792429	city	3	1	0.713691	0.713691	0	1	0	0	CorrectCommission	0.196960	0.814012	0	1
252.451431	0.792051	city	5	1	0.651949	0.651949	0	1	0	0	CorrectCommission	0.458211	0.777537	0	1
253.243591	0.792259	mountain	9	1	0.745483	0.745483	0	0	1	0	CommissionError	0.534310	0.748910	1	1
254.035965	0.792484	city	5	1	0.646260	0.646260	0	1	0	0	CorrectCommission	0.518578	0.728112	1	1
254.828339	0.792265	city	10	1	0.596629	0.596629	0	1	0	0	CorrectCommission	1.045233	0.714483	1	1
255.620529	0.792117	city	7	1	0.596005	0.596005	0	1	0	0	CorrectCommission	1.051854	0.706947	1	1
256.412689	0.792196	city	2	1	0.600214	0.600214	0	1	0	0	CorrectCommission	1.007193	0.704277	1	1
257.204956	0.792372	city	6	1	0.645734	0.645734	0	1	0	0	CorrectCommission	0.524166	0.705316	1	1
257.997223	0.792156	mountain	1	0	0.000000	0.702718	1	0	0	0	CorrectOmission	0.080512	0.709155	1	1
258.789520	0.792428	city	6	1	0.745250	0.745250	0	1	0	0	CorrectCommission	0.531845	0.715278	1	1
259.581909	0.792318	city	1	1	0.747417	0.747417	0	1	0	0	CorrectCommission	0.554837	0.723501	1	1
260.374084	0.792052	city	8	1	0.847457	0.847457	0	1	0	0	CorrectCommission	1.616396	0.733935	1	1
261.166290	0.792369	city	2	1	0.794619	0.794619	0	1	0	0	CorrectCommission	1.055711	0.746859	1	1
261.958679	0.792375	city	1	1	0.758741	0.758741	0	1	0	0	CorrectCommission	0.674997	0.762576	0	1
262.750885	0.792048	city	8	1	0.744709	0.744709	0	1	0	0	CorrectCommission	0.526103	0.781153	0	1
263.543030	0.792266	city	1	1	0.709011	0.709011	0	1	0	0	CorrectCommission	0.147290	0.802248	0	1
264.335297	0.792272	city	7	1	0.713959	0.713959	0	1	0	0	CorrectCommission	0.199798	0.824969	0	1
265.127686	0.792472	city	1	1	0.794216	0.794216	0	1	0	0	CorrectCommission	1.051432	0.847848	0	1
265.919922	0.792050	city	9	1	0.796526	0.796526	0	1	0	0	CorrectCommission	1.075951	0.868975	0	1
266.712097	0.792269	city	5	1	0.756294	0.756294	0	1	0	0	CorrectCommission	0.649028	0.886230	0	1
267.504364	0.792266	city	1	1	0.797003	0.797003	0	1	0	0	CorrectCommission	1.081016	0.897607	0	1
268.296631	0.792261	mountain	10	0	0.000000	0.833361	1	0	0	0	CorrectOmission	1.466815	0.901566	0	1
269.088898	0.792262	mountain	8	0	0.000000	0.853080	1	0	0	0	CorrectOmission	1.676064	0.897353	0	1
269.881165	0.792311	city	7	1	0.843876	0.843876	0	1	0	0	CorrectCommission	1.578402	0.885194	0	1
270.673431	0.792216	mountain	5	0	0.000000	0.793465	1	0	0	0	CorrectOmission	1.043468	0.866334	0	1
271.465668	0.792268	city	6	1	0.747508	0.747508	0	1	0	0	CorrectCommission	0.555795	0.842925	0	1
272.257935	0.792262	city	5	1	0.751665	0.751665	0	1	0	0	CorrectCommission	0.599916	0.817704	0	1
273.050201	0.792265	city	10	1	0.709563	0.709563	0	1	0	0	CorrectCommission	0.153150	0.793618	0	1
273.842468	0.792269	city	5	1	0.794317	0.794317	0	1	0	0	CorrectCommission	1.052510	0.773422	0	1
274.634735	0.792263	city	3	1	0.709428	0.709428	0	1	0	0	CorrectCommission	0.151723	0.759271	1	1
275.427063	0.792370	city	2	1	0.744859	0.744859	0	1	0	0	CorrectCommission	0.527689	0.752529	1	1
276.219330	0.792169	city	3	1	0.695376	0.695376	0	1	0	0	CorrectCommission	0.002606	0.753585	1	1
277.011658	0.792470	city	10	1	0.597522	0.597522	0	1	0	0	CorrectCommission	1.035764	0.761920	0	1
277.804016	0.792265	mountain	1	0	0.000000	0.580387	1	0	0	0	CorrectOmission	1.217581	0.776181	0	1
278.596191	0.792071	city	8	1	0.608453	0.608453	0	1	0	0	CorrectCommission	0.919769	0.794463	0	1
279.388336	0.792246	city	4	1	0.646197	0.646197	0	1	0	0	CorrectCommission	0.519253	0.814559	0	1
280.180603	0.792257	city	6	1	0.648440	0.648440	0	1	0	0	CorrectCommission	0.495452	0.834208	0	1
280.972870	0.792294	city	2	1	0.607776	0.607776	0	1	0	0	CorrectCommission	0.926946	0.851305	0	1
281.765137	0.792239	city	10	1	0.549027	0.549027	0	1	0	0	CorrectCommission	1.550355	0.864063	0	1
282.557495	0.792481	city	7	1	0.608060	0.608060	0	1	0	0	CorrectCommission	0.923940	0.871101	0	1
283.349792	0.792105	city	1	1	0.550222	0.550222	0	1	0	0	CorrectCommission	1.537682	0.871505	0	1
284.141998	0.792315	city	4	1	0.596119	0.596119	0	1	0	0	CorrectCommission	1.050647	0.864759	0	1
284.934235	0.792175	city	3	1	0.645742	0.645742	0	1	0	0	CorrectCommission	0.524082	0.850701	0	1
285.726440	0.792251	city	10	1	0.695429	0.695429	0	1	0	0	CorrectCommission	0.003170	0.829465	0	1
286.518768	0.792370	city	2	1	0.605788	0.605788	0	1	0	0	CorrectCommission	0.948041	0.801407	0	1
287.311127	0.792373	city	4	1	0.596237	0.596237	0	1	0	0	CorrectCommission	1.049392	0.767101	0	1
288.103333	0.792045	city	5	1	0.551027	0.551027	0	1	0	0	CorrectCommission	1.529131	0.727407	1	1
288.895569	0.792374	mountain	3	0	0.000000	0.583128	1	0	0	0	CorrectOmission	1.188498	0.683472	1	1
289.687836	0.792157	city	1	1	0.646542	0.646542	0	1	0	0	CorrectCommission	0.515592	0.636787	1	1
290.480133	0.792481	city	9	1	0.695270	0.695270	0	1	0	0	CorrectCommission	0.001485	0.589179	1	1
291.272522	0.792265	city	2	1	0.745089	0.745089	0	1	0	0	CorrectCommission	0.530128	0.542700	1	1
292.064789	0.792265	mountain	2	0	0.000000	0.749579	1	0	0	0	CorrectOmission	0.577777	0.499526	1	1
292.856934	0.792074	mountain	7	0	0.000000	0.730292	1	0	0	0	CorrectOmission	0.373117	0.461777	1	1
293.649109	0.792264	mountain	5	0	0.000000	0.708779	1	0	0	0	CorrectOmission	0.144833	0.431344	1	1
294.441406	0.792347	city	10	1	0.706591	0.706591	0	1	0	0	CorrectCommission	0.121611	0.409677	1	1
295.233734	0.792266	city	3	1	0.745278	0.745278	0	1	0	0	CorrectCommission	0.532135	0.397639	1	1
296.026001	0.792264	city	6	1	0.702557	0.702557	0	1	0	0	CorrectCommission	0.078810	0.395398	1	1
296.818298	0.792373	city	5	1	0.695187	0.695187	0	1	0	0	CorrectCommission	0.000603	0.402419	1	1
297.610535	0.792076	city	7	1	0.695038	0.695038	0	1	0	0	CorrectCommission	0.000977	0.417476	1	1
298.402679	0.792236	city	1	1	0.713754	0.713754	0	1	0	0	CorrectCommission	0.197625	0.438789	1	1
299.195007	0.792374	city	5	1	0.647615	0.647615	0	1	0	0	CorrectCommission	0.504203	0.464221	1	1
299.987274	0.792157	city	2	1	0.645837	0.645837	0	1	0	0	CorrectCommission	0.523065	0.491545	1	1
300.779480	0.792267	city	8	1	0.565180	0.565180	0	1	0	0	CorrectCommission	1.378956	0.518684	1	1
301.571808	0.792370	city	9	1	0.645764	0.645764	0	1	0	0	CorrectCommission	0.523841	0.543943	1	1
302.364075	0.792185	city	2	1	0.605529	0.605529	0	1	0	0	CorrectCommission	0.950791	0.566185	1	1
303.156342	0.792345	city	7	1	0.596869	0.596869	0	1	0	0	CorrectCommission	1.042693	0.584824	1	1
303.948639	0.792262	city	5	1	0.695876	0.695876	0	1	0	0	CorrectCommission	0.007917	0.599818	1	1
304.740845	0.792158	city	7	1	0.664071	0.664071	0	1	0	0	CorrectCommission	0.329584	0.611570	1	1
305.533173	0.792482	city	6	1	0.652581	0.652581	0	1	0	0	CorrectCommission	0.451502	0.620718	1	0
306.325500	0.792156	city	3	1	0.645552	0.645552	0	1	0	0	CorrectCommission	0.526091	0.628049	1	0
307.117645	0.792158	city	2	1	0.596307	0.596307	0	1	0	0	CorrectCommission	1.048650	0.634359	1	0
307.909973	0.792481	city	10	1	0.596389	0.596389	0	1	0	0	CorrectCommission	1.047780	0.640350	1	0
308.702240	0.792046	city	9	1	0.645728	0.645728	0	1	0	0	CorrectCommission	0.524227	0.646560	1	0
309.494446	0.792373	city	2	1	0.646168	0.646168	0	1	0	0	CorrectCommission	0.519555	0.653347	1	0
310.286804	0.792373	mountain	3	0	0.000000	0.646385	1	0	0	0	CorrectOmission	0.517251	0.660852	1	0
311.079071	0.792117	city	9	1	0.646290	0.646290	0	1	0	0	CorrectCommission	0.518267	0.669018	1	0
311.871277	0.792304	city	6	1	0.645791	0.645791	0	1	0	0	CorrectCommission	0.523553	0.677602	1	0
312.663544	0.792266	city	1	1	0.645849	0.645849	0	1	0	0	CorrectCommission	0.522943	0.686200	1	0
313.455872	0.792374	mountain	6	0	0.000000	0.619037	1	0	0	0	CorrectOmission	0.807459	0.694330	1	0
314.248108	0.792124	city	1	1	0.596067	0.596067	0	1	0	0	CorrectCommission	1.051199	0.701483	1	0
315.040283	0.792187	city	5	1	0.607652	0.607652	0	1	0	0	CorrectCommission	0.928263	0.707179	1	0
315.832520	0.792304	city	6	1	0.745419	0.745419	0	1	0	0	CorrectCommission	0.533633	0.711015	1	0
316.624786	0.792226	city	7	1	0.794402	0.794402	0	1	0	0	CorrectCommission	1.053406	0.712660	1	0
317.417023	0.792262	city	1	1	0.794284	0.794284	0	1	0	0	CorrectCommission	1.052162	0.711812	1	0
318.209412	0.792490	city	7	1	0.695829	0.695829	0	1	0	0	CorrectCommission	0.007415	0.708184	1	0
319.001678	0.792045	city	3	1	0.614217	0.614217	0	1	0	0	CorrectCommission	0.858606	0.701516	1	0
319.793945	0.792479	city	7	1	0.647288	0.647288	0	1	0	0	CorrectCommission	0.507675	0.691528	1	0
320.586304	0.792263	city	9	1	0.695526	0.695526	0	1	0	0	CorrectCommission	0.004194	0.678053	1	0
321.378510	0.792156	city	3	1	0.600906	0.600906	0	1	0	0	CorrectCommission	0.999854	0.661149	1	0
322.170715	0.792225	city	8	1	0.553561	0.553561	0	1	0	0	CorrectCommission	1.502247	0.641161	1	0
322.963013	0.792413	city	10	1	0.546768	0.546768	0	1	0	0	CorrectCommission	1.574330	0.618867	1	0
323.755249	0.792051	city	4	1	0.645523	0.645523	0	1	0	0	CorrectCommission	0.526406	0.595515	1	0
324.547516	0.792478	city	9	1	0.709319	0.709319	0	1	0	0	CorrectCommission	0.150557	0.572802	1	0
325.339813	0.792077	city	6	1	0.695267	0.695267	0	1	0	0	CorrectCommission	0.001446	0.552686	1	0
326.132080	0.792453	city	9	1	0.744918	0.744918	0	1	0	0	CorrectCommission	0.528318	0.537220	1	0
326.924347	0.792082	city	3	1	0.660410	0.660410	0	1	0	0	CorrectCommission	0.368432	0.528324	1	0
327.716492	0.792231	city	1	1	0.695238	0.695238	0	1	0	0	CorrectCommission	0.001144	0.527640	1	0
328.508789	0.792345	city	3	1	0.706729	0.706729	0	1	0	0	CorrectCommission	0.123074	0.536379	1	0
329.301147	0.792402	city	1	1	0.745217	0.745217	0	1	0	0	CorrectCommission	0.531485	0.555261	1	0
330.093384	0.792046	city	7	1	0.645548	0.645548	0	1	0	0	CorrectCommission	0.526136	0.584484	1	0
330.885529	0.792265	city	9	1	0.611749	0.611749	0	1	0	0	CorrectCommission	0.884787	0.623739	1	0
331.677826	0.792295	mountain	4	1	0.596279	0.596279	0	0	1	0	CommissionError	1.048944	0.672203	1	0
332.470093	0.792256	city	6	1	0.657189	0.657189	0	1	0	0	CorrectCommission	0.402613	0.728543	1	0
333.262390	0.792351	city	5	1	0.645723	0.645723	0	1	0	0	CorrectCommission	0.524274	0.790895	0	0
334.054657	0.792160	mountain	7	0	0.000000	0.682905	1	0	0	0	CorrectOmission	0.129725	0.856834	0	0
334.846954	0.792480	city	6	1	0.745175	0.745175	0	1	0	0	CorrectCommission	0.531044	0.923418	0	0
335.639252	0.792085	city	3	1	0.808974	0.808974	0	1	0	0	CorrectCommission	1.208040	0.987381	0	0
336.431396	0.792228	city	4	1	0.843761	0.843761	0	1	0	0	CorrectCommission	1.577182	1.045333	0	0
337.223663	0.792265	city	3	1	0.809315	0.809315	0	1	0	0	CorrectCommission	1.211653	1.094126	0	0
338.015930	0.792271	city	5	1	0.794349	0.794349	0	1	0	0	CorrectCommission	1.052849	1.131266	0	0
338.808258	0.792406	city	3	1	0.843860	0.843860	0	1	0	0	CorrectCommission	1.578233	1.155267	0	0
339.600525	0.792113	city	7	1	0.944476	0.944476	0	1	0	0	CorrectCommission	2.645909	1.165902	0	0
340.392761	0.792375	city	2	1	0.907215	0.907215	0	1	0	0	CorrectCommission	2.250514	1.164257	0	0
341.185028	0.792160	city	9	1	0.800761	0.800761	0	1	0	0	CorrectCommission	1.120883	1.152685	0	0
341.977295	0.792369	city	6	1	0.744690	0.744690	0	1	0	0	CorrectCommission	0.525895	1.134445	0	0
342.769562	0.792158	city	3	1	0.763190	0.763190	0	1	0	0	CorrectCommission	0.722211	1.113191	0	0
343.561890	0.792482	city	10	1	0.744839	0.744839	0	1	0	0	CorrectCommission	0.527483	1.092412	0	0
344.354248	0.792263	city	6	1	0.794063	0.794063	0	1	0	0	CorrectCommission	1.049813	1.074957	0	0
345.146393	0.792046	mountain	9	0	0.000000	0.753404	1	0	0	0	CorrectOmission	0.618368	1.062639	0	0
345.938568	0.792267	city	6	1	0.713558	0.713558	0	1	0	0	CorrectCommission	0.195543	1.056083	0	0
346.730835	0.792262	city	2	1	0.765218	0.765218	0	1	0	0	CorrectCommission	0.743732	1.054761	0	0
347.523102	0.792319	city	5	1	0.844508	0.844508	0	1	0	0	CorrectCommission	1.585105	1.057239	0	0
348.315430	0.792322	city	7	1	0.844117	0.844117	0	1	0	0	CorrectCommission	1.580960	1.061547	0	0
349.107666	0.792159	city	10	1	0.893269	0.893269	0	1	0	0	CorrectCommission	2.102522	1.065615	0	0
349.899933	0.792341	mountain	8	0	0.000000	0.727701	1	0	0	0	CorrectOmission	0.345622	1.067610	0	0
350.692230	0.792293	city	8	1	0.548905	0.548905	0	1	0	0	CorrectCommission	1.551657	1.066248	0	0
351.484467	0.792157	mountain	10	0	0.000000	0.558368	1	0	0	0	CorrectOmission	1.451235	1.060797	0	0
352.276794	0.792481	city	5	1	0.648410	0.648410	0	1	0	0	CorrectCommission	0.495771	1.051162	0	0
353.069061	0.792048	city	10	1	0.711346	0.711346	0	1	0	0	CorrectCommission	0.172074	1.037709	0	0
353.861267	0.792374	city	1	1	0.843856	0.843856	0	1	0	0	CorrectCommission	1.578189	1.021089	0	0
354.653534	0.792154	city	3	1	0.893397	0.893397	0	1	0	0	CorrectCommission	2.103886	1.002013	0	0
355.445740	0.792267	city	10	1	0.744789	0.744789	0	1	0	0	CorrectCommission	0.526945	0.981145	0	0
356.238068	0.792373	mountain	2	0	0.000000	0.656458	1	0	0	0	CorrectOmission	0.410371	0.959009	0	0
357.030334	0.792180	city	4	1	0.614676	0.614676	0	1	0	0	CorrectCommission	0.853733	0.935856	0	0
357.822540	0.792239	city	1	1	0.605716	0.605716	0	1	0	0	CorrectCommission	0.948811	0.911765	0	0
358.614807	0.792265	city	6	1	0.605413	0.605413	0	1	0	0	CorrectCommission	0.952027	0.886670	0	0
359.407104	0.792339	city	8	1	0.798557	0.798557	0	1	0	0	CorrectCommission	1.097497	0.860522	0	0
360.199402	0.792299	city	1	1	0.794244	0.794244	0	1	0	0	CorrectCommission	1.051735	0.833345	0	0
360.991638	0.792155	city	3	1	0.756278	0.756278	0	1	0	0	CorrectCommission	0.648867	0.805373	0	0
361.783966	0.792484	city	8	1	0.756915	0.756915	0	1	0	0	CorrectCommission	0.655619	0.777114	0	0
362.576263	0.792097	city	6	1	0.794276	0.794276	0	1	0	0	CorrectCommission	1.052073	0.749346	1	0
363.368408	0.792217	city	7	1	0.794265	0.794265	0	1	0	0	CorrectCommission	1.051960	0.723056	1	0
364.160645	0.792275	mountain	10	0	0.000000	0.758584	1	0	0	0	CorrectOmission	0.673330	0.699333	1	0
364.952972	0.792331	city	8	1	0.711227	0.711227	0	1	0	0	CorrectCommission	0.170814	0.679204	1	1
365.745209	0.792185	mountain	6	0	0.000000	0.676193	1	0	0	0	CorrectOmission	0.200955	0.663526	1	1
366.537445	0.792265	city	1	1	0.695279	0.695279	0	1	0	0	CorrectCommission	0.001575	0.652842	1	1
367.329773	0.792373	city	3	1	0.810285	0.810285	0	1	0	0	CorrectCommission	1.221953	0.647377	1	1
368.122070	0.792265	city	8	1	0.645801	0.645801	0	1	0	0	CorrectCommission	0.523447	0.646968	1	1
368.914307	0.792157	mountain	9	0	0.000000	0.601953	1	0	0	0	CorrectOmission	0.988741	0.651198	1	1
369.706512	0.792267	city	1	1	0.645895	0.645895	0	1	0	0	CorrectCommission	0.522459	0.659442	1	1
370.498779	0.792266	city	7	1	0.744782	0.744782	0	1	0	0	CorrectCommission	0.526870	0.670992	1	1
371.291077	0.792368	city	4	1	0.745091	0.745091	0	1	0	0	CorrectCommission	0.530155	0.685081	1	1
372.083466	0.792374	city	8	1	0.695196	0.695196	0	1	0	0	CorrectCommission	0.000698	0.700960	1	1
372.875671	0.792046	city	9	1	0.893121	0.893121	0	1	0	0	CorrectCommission	2.100961	0.717941	1	1
373.667816	0.792269	city	3	1	0.695766	0.695766	0	1	0	0	CorrectCommission	0.006747	0.735256	1	1
374.460083	0.792262	city	9	1	0.548525	0.548525	0	1	0	0	CorrectCommission	1.555689	0.752176	1	1
375.252380	0.792297	city	6	1	0.645768	0.645768	0	1	0	0	CorrectCommission	0.523803	0.767812	0	1
376.044678	0.792302	city	7	1	0.695669	0.695669	0	1	0	0	CorrectCommission	0.005718	0.781229	0	1
376.836914	0.792194	mountain	9	0	0.000000	0.753560	1	0	0	0	CorrectOmission	0.620015	0.791421	0	1
377.629150	0.792266	city	1	1	0.794690	0.794690	0	1	0	0	CorrectCommission	1.056471	0.797397	0	1
378.421417	0.792267	city	10	1	0.794313	0.794313	0	1	0	0	CorrectCommission	1.052466	0.798385	0	1
379.213684	0.792254	city	4	1	0.811186	0.811186	0	1	0	0	CorrectCommission	1.231509	0.794022	0	1
380.005951	0.792272	city	3	1	0.758566	0.758566	0	1	0	0	CorrectCommission	0.673142	0.784505	0	1
380.798248	0.792373	mountain	6	0	0.000000	0.801072	1	0	0	0	CorrectOmission	1.124189	0.770702	0	1
381.590637	0.792372	city	8	1	0.844366	0.844366	0	1	0	0	CorrectCommission	1.583600	0.754100	1	1
382.382843	0.792052	city	6	1	0.794111	0.794111	0	1	0	0	CorrectCommission	1.050323	0.736642	1	1
383.175018	0.792266	mountain	1	0	0.000000	0.736458	1	0	0	0	CorrectOmission	0.438542	0.720427	1	1
383.967377	0.792477	city	2	1	0.695427	0.695427	0	1	0	0	CorrectCommission	0.003149	0.707312	1	1
384.759644	0.792046	city	6	1	0.695039	0.695039	0	1	0	0	CorrectCommission	0.000967	0.698489	1	1
385.551910	0.792484	city	4	1	0.695384	0.695384	0	1	0	0	CorrectCommission	0.002695	0.694213	1	1
386.344177	0.792047	city	5	1	0.696928	0.696928	0	1	0	0	CorrectCommission	0.019076	0.693714	1	1
387.136444	0.792481	city	6	1	0.794298	0.794298	0	1	0	0	CorrectCommission	1.052306	0.695240	1	1
387.928711	0.792052	city	3	1	0.843617	0.843617	0	1	0	0	CorrectCommission	1.575646	0.696397	1	1
388.720856	0.792278	city	8	1	0.660409	0.660409	0	1	0	0	CorrectCommission	0.368442	0.694622	1	1
389.513245	0.792466	city	1	1	0.596589	0.596589	0	1	0	0	CorrectCommission	1.045657	0.687790	1	1
390.305481	0.792047	city	7	1	0.562614	0.562614	0	1	0	0	CorrectCommission	1.406176	0.674561	1	1
391.097656	0.792264	city	9	1	0.547072	0.547072	0	1	0	0	CorrectCommission	1.571103	0.654885	1	1
391.889923	0.792282	mountain	2	1	0.596224	0.596224	0	0	1	0	CommissionError	1.049535	0.630122	1	1
392.682251	0.792356	city	2	1	0.695778	0.695778	0	1	0	0	CorrectCommission	0.006875	0.603042	1	1
393.474518	0.792199	city	10	1	0.695168	0.695168	0	1	0	0	CorrectCommission	0.000401	0.577564	1	1
394.266724	0.792222	city	5	1	0.745247	0.745247	0	1	0	0	CorrectCommission	0.531809	0.558299	1	1
395.058960	0.792266	city	1	1	0.744808	0.744808	0	1	0	0	CorrectCommission	0.527151	0.550032	1	1
395.851227	0.792262	city	8	1	0.697930	0.697930	0	1	0	0	CorrectCommission	0.029705	0.557161	1	1
396.643524	0.792323	city	3	1	0.695287	0.695287	0	1	0	0	CorrectCommission	0.001661	0.583152	1	1
397.435822	0.792262	city	6	1	0.695593	0.695593	0	1	0	0	CorrectCommission	0.004907	0.630049	1	1
398.228180	0.792428	mountain	2	0	0.000000	0.672826	1	0	0	0	CorrectOmission	0.236677	0.698112	1	1
399.020447	0.792156	city	5	1	0.645577	0.645577	0	1	0	0	CorrectCommission	0.525827	0.785635	0	1
399.812622	0.792157	mountain	6	0	0.000000	0.632435	1	0	0	0	CorrectOmission	0.665279	0.888931	0	1
400.604828	0.792267	city	8	1	0.695275	0.695275	0	1	0	0	CorrectCommission	0.001531	1.002532	0	1
401.397095	0.792265	city	9	1	0.895968	0.895968	0	1	0	0	CorrectCommission	2.131170	1.119580	0	1
402.189362	0.792287	city	1	1	0.695341	0.695341	0	1	0	0	CorrectCommission	0.002231	1.232320	0	1
402.981628	0.792237	city	6	1	0.563012	0.563012	0	1	0	0	CorrectCommission	1.401956	1.332970	0	1
403.773895	0.792266	city	2	1	0.497376	0.497376	0	1	0	0	CorrectCommission	2.098442	1.414376	0	1
404.566162	0.792305	city	6	1	0.349224	0.349224	0	1	0	0	CorrectCommission	3.670544	1.470843	0	1
405.358551	0.792442	city	9	1	0.414597	0.414597	0	1	0	0	CorrectCommission	2.976850	1.498721	0	1
406.150787	0.792050	city	4	1	0.497167	0.497167	0	1	0	0	CorrectCommission	2.100666	1.496891	0	1
406.942932	0.792267	city	2	1	0.497706	0.497706	0	1	0	0	CorrectCommission	2.094946	1.466760	0	1
407.735260	0.792369	city	10	1	0.546723	0.546723	0	1	0	0	CorrectCommission	1.574804	1.412021	0	1
408.527588	0.792262	city	4	1	0.596437	0.596437	0	1	0	0	CorrectCommission	1.047273	1.338136	0	1
409.319885	0.792375	city	9	1	0.596139	0.596139	0	1	0	0	CorrectCommission	1.050435	1.251623	0	1
410.112213	0.792264	city	3	1	0.596494	0.596494	0	1	0	0	CorrectCommission	1.046671	1.159269	0	1
410.904419	0.792156	city	5	1	0.645565	0.645565	0	1	0	0	CorrectCommission	0.525958	1.067348	0	1
411.696594	0.792159	city	8	1	0.616161	0.616161	0	1	0	0	CorrectCommission	0.837973	0.981028	0	1
412.488831	0.792300	city	5	1	0.645887	0.645887	0	1	0	0	CorrectCommission	0.522542	0.903959	0	1
413.281128	0.792334	city	3	1	0.695306	0.695306	0	1	0	0	CorrectCommission	0.001864	0.838147	0	1
414.073364	0.792158	city	7	1	0.744677	0.744677	0	1	0	0	CorrectCommission	0.525757	0.784012	0	1
414.865601	0.792267	city	2	1	0.747209	0.747209	0	1	0	0	CorrectCommission	0.552622	0.740636	1	1
415.657959	0.792479	mountain	3	0	0.000000	0.795976	1	0	0	0	CorrectOmission	1.070113	0.706181	1	1
416.450256	0.792082	city	6	1	0.794391	0.794391	0	1	0	0	CorrectCommission	1.053289	0.678297	1	1
417.242401	0.792229	city	10	1	0.645863	0.645863	0	1	0	0	CorrectCommission	0.522792	0.654578	1	1
418.034698	0.792375	city	6	1	0.645760	0.645760	0	1	0	0	CorrectCommission	0.523883	0.632947	1	1
418.826965	0.792160	city	3	1	0.598763	0.598763	0	1	0	0	CorrectCommission	1.022587	0.611788	1	1
419.619171	0.792259	city	6	1	0.610615	0.610615	0	1	0	0	CorrectCommission	0.896819	0.590126	1	1
420.411560	0.792484	city	2	1	0.649356	0.649356	0	1	0	0	CorrectCommission	0.485729	0.567581	1	1
421.203827	0.792048	city	4	1	0.649754	0.649754	0	1	0	0	CorrectCommission	0.481509	0.544268	1	1
421.996033	0.792374	city	8	1	0.700146	0.700146	0	1	0	0	CorrectCommission	0.053224	0.520619	1	1
422.788300	0.792186	city	5	1	0.648541	0.648541	0	1	0	0	CorrectCommission	0.494381	0.497279	1	1
423.580505	0.792234	city	9	1	0.695222	0.695222	0	1	0	0	CorrectCommission	0.000977	0.474974	1	1
424.372864	0.792481	city	2	1	0.648420	0.648420	0	1	0	0	CorrectCommission	0.495661	0.454448	1	0
425.165131	0.792049	city	7	1	0.556559	0.556559	0	1	0	0	CorrectCommission	1.470428	0.436401	1	0
425.957306	0.792264	city	3	1	0.645813	0.645813	0	1	0	0	CorrectCommission	0.523321	0.421474	1	0
426.749573	0.792263	city	1	1	0.695257	0.695257	0	1	0	0	CorrectCommission	0.001343	0.410274	1	0
427.541809	0.792264	city	3	1	0.702191	0.702191	0	1	0	0	CorrectCommission	0.074920	0.403304	1	0
428.334076	0.792269	city	9	1	0.695765	0.695765	0	1	0	0	CorrectCommission	0.006733	0.400939	1	0
429.126343	0.792264	city	2	1	0.695460	0.695460	0	1	0	0	CorrectCommission	0.003496	0.403379	1	0
429.918732	0.792479	city	1	1	0.744818	0.744818	0	1	0	0	CorrectCommission	0.527253	0.410640	1	0
430.711090	0.792266	city	4	1	0.794095	0.794095	0	1	0	0	CorrectCommission	1.050155	0.422521	1	0
431.503265	0.792047	city	7	1	0.704146	0.704146	0	1	0	0	CorrectCommission	0.095671	0.438624	1	0
432.295441	0.792332	city	4	1	0.695277	0.695277	0	1	0	0	CorrectCommission	0.001561	0.458415	1	0
433.087769	0.792305	city	2	1	0.794143	0.794143	0	1	0	0	CorrectCommission	1.050658	0.481222	1	0
433.880005	0.792160	city	10	1	0.744693	0.744693	0	1	0	0	CorrectCommission	0.525934	0.506257	1	0
434.672272	0.792372	city	5	1	0.704714	0.704714	0	1	0	0	CorrectCommission	0.101696	0.532727	1	0
435.464539	0.792210	city	8	1	0.744667	0.744667	0	1	0	0	CorrectCommission	0.525650	0.559848	1	0
436.256775	0.792213	city	2	1	0.756280	0.756280	0	1	0	0	CorrectCommission	0.648883	0.586891	1	0
437.049103	0.792480	city	1	1	0.744921	0.744921	0	1	0	0	CorrectCommission	0.528354	0.613268	1	0
437.841370	0.792047	city	9	1	0.744493	0.744493	0	1	0	0	CorrectCommission	0.523810	0.638610	1	0
438.633575	0.792323	city	7	1	0.794411	0.794411	0	1	0	0	CorrectCommission	1.053504	0.662844	1	0
439.425873	0.792315	city	2	1	0.794664	0.794664	0	1	0	0	CorrectCommission	1.056192	0.686182	1	0
440.218231	0.792373	city	10	1	0.794331	0.794331	0	1	0	0	CorrectCommission	1.052655	0.709125	1	0
441.010437	0.792048	city	1	1	0.744672	0.744672	0	1	0	0	CorrectCommission	0.525702	0.732400	1	0
441.802612	0.792288	mountain	6	0	0.000000	0.734929	1	0	0	0	CorrectOmission	0.422322	0.756841	1	0
442.594910	0.792307	city	2	1	0.744792	0.744792	0	1	0	0	CorrectCommission	0.526979	0.783236	0	0
443.387268	0.792416	city	10	1	0.753948	0.753948	0	1	0	0	CorrectCommission	0.624135	0.812215	0	0
444.179504	0.792051	city	2	1	0.744999	0.744999	0	1	0	0	CorrectCommission	0.529180	0.844173	0	0
444.971649	0.792287	city	9	1	0.801331	0.801331	0	1	0	0	CorrectCommission	1.126938	0.879226	0	0
445.763916	0.792245	city	8	1	0.763091	0.763091	0	1	0	0	CorrectCommission	0.721160	0.917198	0	0
446.556183	0.792259	city	9	1	0.794308	0.794308	0	1	0	0	CorrectCommission	1.052417	0.957696	0	0
447.348450	0.792269	city	8	1	0.794321	0.794321	0	1	0	0	CorrectCommission	1.052550	1.000082	0	0
448.140717	0.792264	city	5	1	0.844412	0.844412	0	1	0	0	CorrectCommission	1.584084	1.043502	0	0
448.932983	0.792261	city	9	1	0.794282	0.794282	0	1	0	0	CorrectCommission	1.052134	1.086855	0	0
449.725250	0.792264	city	8	1	0.763555	0.763555	0	1	0	0	CorrectCommission	0.726086	1.128759	0	0
450.517487	0.792265	city	5	1	0.794371	0.794371	0	1	0	0	CorrectCommission	1.053084	1.167452	0	0
451.309753	0.792264	city	9	1	0.843811	0.843811	0	1	0	0	CorrectCommission	1.577711	1.200817	0	0
452.102020	0.792266	mountain	5	0	0.000000	0.777913	1	0	0	0	CorrectOmission	0.878437	1.226446	0	0
452.894287	0.792269	city	1	1	0.744992	0.744992	0	1	0	0	CorrectCommission	0.529106	1.241874	0	0
453.686615	0.792369	city	2	1	0.893366	0.893366	0	1	0	0	CorrectCommission	2.103559	1.244883	0	0
454.478882	0.792155	city	10	1	0.843777	0.843777	0	1	0	0	CorrectCommission	1.577344	1.233881	0	0
455.271149	0.792376	city	5	1	0.844452	0.844452	0	1	0	0	CorrectCommission	1.584507	1.208402	0	0
456.063507	0.792373	city	3	1	0.893770	0.893770	0	1	0	0	CorrectCommission	2.107841	1.169371	0	0
456.855713	0.792046	city	7	1	0.893124	0.893124	0	1	0	0	CorrectCommission	2.100983	1.119259	0	0
457.647888	0.792267	city	4	1	0.893399	0.893399	0	1	0	0	CorrectCommission	2.103907	1.061967	0	0
458.440155	0.792264	city	3	1	0.748636	0.748636	0	1	0	0	CorrectCommission	0.567771	1.002429	0	0
459.232422	0.792297	city	4	1	0.698157	0.698157	0	1	0	0	CorrectCommission	0.032117	0.946025	0	0
460.024811	0.792449	city	2	1	0.695253	0.695253	0	1	0	0	CorrectCommission	0.001305	0.897752	0	0
460.817047	0.792047	city	5	1	0.695090	0.695090	0	1	0	0	CorrectCommission	0.000423	0.861506	0	0
461.609314	0.792482	city	6	1	0.744944	0.744944	0	1	0	0	CorrectCommission	0.528588	0.839489	0	0
462.401581	0.792049	city	2	1	0.698886	0.698886	0	1	0	0	CorrectCommission	0.039854	0.831875	0	0
463.193848	0.792482	mountain	10	0	0.000000	0.706081	1	0	0	0	CorrectOmission	0.116206	0.836863	0	0
463.986176	0.792154	city	9	1	0.745032	0.745032	0	1	0	0	CorrectCommission	0.529528	0.851016	0	0
464.778442	0.792373	city	1	1	0.794241	0.794241	0	1	0	0	CorrectCommission	1.051701	0.869874	0	0
465.570740	0.792265	city	6	1	0.850660	0.850660	0	1	0	0	CorrectCommission	1.650384	0.888720	0	0
466.362946	0.792156	city	7	1	0.942620	0.942620	0	1	0	0	CorrectCommission	2.626207	0.903313	0	0
467.155121	0.792194	city	9	1	0.850933	0.850933	0	1	0	0	CorrectCommission	1.653285	0.910468	0	0
467.947357	0.792266	city	6	1	0.794308	0.794308	0	1	0	0	CorrectCommission	1.052414	0.908417	0	0
468.739624	0.792228	city	1	1	0.755842	0.755842	0	1	0	0	CorrectCommission	0.644238	0.896792	0	0
469.531952	0.792479	city	5	1	0.745175	0.745175	0	1	0	0	CorrectCommission	0.531046	0.876433	0	0
470.324219	0.792046	city	6	1	0.648031	0.648031	0	1	0	0	CorrectCommission	0.499785	0.848993	0	0
471.116516	0.792510	city	5	1	0.646149	0.646149	0	1	0	0	CorrectCommission	0.519756	0.816450	0	0
471.908813	0.792129	city	10	1	0.596112	0.596112	0	1	0	0	CorrectCommission	1.050718	0.780761	0	0
472.700958	0.792156	city	8	1	0.652842	0.652842	0	1	0	0	CorrectCommission	0.448737	0.743575	1	0
473.493195	0.792273	city	1	1	0.645893	0.645893	0	1	0	0	CorrectCommission	0.522480	0.706134	1	0
474.285553	0.792474	city	5	1	0.596314	0.596314	0	1	0	0	CorrectCommission	1.048573	0.669295	1	0
475.077820	0.792061	city	3	1	0.758631	0.758631	0	1	0	0	CorrectCommission	0.673826	0.633660	1	0
475.869965	0.792252	city	1	1	0.796619	0.796619	0	1	0	0	CorrectCommission	1.076938	0.599770	1	0
476.662292	0.792374	city	7	1	0.747377	0.747377	0	1	0	0	CorrectCommission	0.554405	0.568199	1	0
477.454651	0.792372	city	5	1	0.744759	0.744759	0	1	0	0	CorrectCommission	0.526632	0.539630	1	0
478.246918	0.792156	city	10	1	0.695063	0.695063	0	1	0	0	CorrectCommission	0.000714	0.514812	1	0
479.039093	0.792158	city	6	1	0.747469	0.747469	0	1	0	0	CorrectCommission	0.555387	0.494487	1	0
479.831299	0.792264	city	2	1	0.709125	0.709125	0	1	0	0	CorrectCommission	0.148506	0.479234	1	0
480.623566	0.792267	city	3	1	0.744793	0.744793	0	1	0	0	CorrectCommission	0.526994	0.469388	1	0
481.415863	0.792336	city	5	1	0.709081	0.709081	0	1	0	0	CorrectCommission	0.148039	0.464910	1	0
482.208130	0.792189	city	6	1	0.695203	0.695203	0	1	0	0	CorrectCommission	0.000771	0.465406	1	0
483.000458	0.792483	city	9	1	0.652725	0.652725	0	1	0	0	CorrectCommission	0.449977	0.470174	1	0
483.792725	0.792046	city	3	1	0.645526	0.645526	0	1	0	0	CorrectCommission	0.526371	0.478309	1	0
484.584869	0.792269	city	7	1	0.607617	0.607617	0	1	0	0	CorrectCommission	0.928633	0.488880	1	0
485.377167	0.792265	city	3	1	0.602857	0.602857	0	1	0	0	CorrectCommission	0.979146	0.501045	1	0
486.169403	0.792259	city	5	1	0.663396	0.663396	0	1	0	0	CorrectCommission	0.336746	0.514132	1	0
486.961700	0.792319	city	4	1	0.744853	0.744853	0	1	0	0	CorrectCommission	0.527631	0.527631	1	0
