onset	duration	trial_type	image_type	Press	ReactionTime	ReactionTime_Interpolated	CorrectOmission	CorrectCommission	CommissionError	OmissionError	response_type	nonsmoothVarianceTimeCourse	VarianceTimeCourse	In_the_Zone	Reward_trial
8.433807	0.792263	city	7	1	0.610196	0.610196	0	1	0	0	CorrectCommission	0.113547	0.113547	1	0
9.226073	0.792268	city	4	1	0.600969	0.600969	0	1	0	0	CorrectCommission	0.205820	0.151204	1	0
10.018447	0.792480	city	10	1	0.600814	0.600814	0	1	0	0	CorrectCommission	0.207372	0.186765	1	0
10.810711	0.792047	city	6	1	0.695098	0.695098	0	1	0	0	CorrectCommission	0.735520	0.218372	1	0
11.602859	0.792249	city	5	1	0.648115	0.648115	0	1	0	0	CorrectCommission	0.265659	0.244588	1	0
12.395125	0.792285	city	7	1	0.645853	0.645853	0	1	0	0	CorrectCommission	0.243039	0.264568	1	0
13.187507	0.792479	mountain	10	1	0.721378	0.721378	0	0	1	0	CommissionError	0.998329	0.278101	1	0
13.979824	0.792154	city	2	1	0.652482	0.652482	0	1	0	0	CorrectCommission	0.309334	0.285594	1	0
14.771992	0.792182	city	6	1	0.604540	0.604540	0	1	0	0	CorrectCommission	0.170106	0.288033	1	0
15.564312	0.792457	mountain	2	0	0.000000	0.593839	1	0	0	0	CorrectOmission	0.277123	0.286783	1	0
16.356579	0.792078	city	4	1	0.599745	0.599745	0	1	0	0	CorrectCommission	0.218060	0.283427	1	0
17.148790	0.792343	mountain	7	0	0.000000	0.601625	1	0	0	0	CorrectOmission	0.199262	0.279598	1	0
17.941046	0.792169	city	5	1	0.602583	0.602583	0	1	0	0	CorrectCommission	0.189678	0.276834	1	0
18.733257	0.792253	mountain	4	0	0.000000	0.605725	1	0	0	0	CorrectOmission	0.158254	0.276458	1	0
19.525623	0.792481	city	4	1	0.605395	0.605395	0	1	0	0	CorrectCommission	0.161556	0.279511	1	0
20.317888	0.792047	city	3	1	0.595937	0.595937	0	1	0	0	CorrectCommission	0.256147	0.286762	1	0
21.110098	0.792373	city	1	1	0.596246	0.596246	0	1	0	0	CorrectCommission	0.253051	0.298730	1	0
21.902365	0.792161	city	7	1	0.602076	0.602076	0	1	0	0	CorrectCommission	0.194746	0.315780	1	0
22.694590	0.792290	city	2	1	0.605612	0.605612	0	1	0	0	CorrectCommission	0.159392	0.338177	1	0
23.486872	0.792273	city	5	1	0.564869	0.564869	0	1	0	0	CorrectCommission	0.566839	0.366150	1	0
24.279230	0.792445	city	8	1	0.563460	0.563460	0	1	0	0	CorrectCommission	0.580924	0.399914	1	0
25.071529	0.792155	city	9	1	0.613201	0.613201	0	1	0	0	CorrectCommission	0.083496	0.439717	1	0
25.863701	0.792188	city	3	1	0.600973	0.600973	0	1	0	0	CorrectCommission	0.205780	0.485789	1	0
26.655912	0.792233	city	10	1	0.555886	0.555886	0	1	0	0	CorrectCommission	0.656677	0.538264	1	0
27.448215	0.792373	mountain	5	0	0.000000	0.579421	1	0	0	0	CorrectOmission	0.421307	0.597089	1	0
28.240534	0.792265	city	4	1	0.600154	0.600154	0	1	0	0	CorrectCommission	0.213973	0.661904	1	0
29.032854	0.792374	city	8	1	0.546656	0.546656	0	1	0	0	CorrectCommission	0.748978	0.731951	1	0
29.825064	0.792047	city	9	1	0.496886	0.496886	0	1	0	0	CorrectCommission	1.246697	0.805969	0	0
30.617220	0.792265	city	8	1	0.546839	0.546839	0	1	0	0	CorrectCommission	0.747143	0.882131	0	0
31.409513	0.792321	mountain	6	0	0.000000	0.572843	1	0	0	0	CorrectOmission	0.487090	0.958116	0	0
32.201778	0.792209	city	4	1	0.553100	0.553100	0	1	0	0	CorrectCommission	0.684536	1.031164	0	0
32.994015	0.792263	city	3	1	0.465810	0.465810	0	1	0	0	CorrectCommission	1.557475	1.098263	0	0
33.786388	0.792484	mountain	4	1	0.457180	0.457180	0	0	1	0	CommissionError	1.643783	1.156393	0	0
34.578655	0.792048	city	10	1	0.502537	0.502537	0	1	0	0	CorrectCommission	1.190188	1.202850	0	0
35.370811	0.792264	mountain	5	0	0.000000	0.473935	1	0	0	0	CorrectOmission	1.476219	1.235563	0	0
36.163074	0.792266	city	6	1	0.546894	0.546894	0	1	0	0	CorrectCommission	0.746602	1.253378	0	0
36.955391	0.792370	city	9	1	0.896930	0.896930	0	1	0	0	CorrectCommission	2.753934	1.256281	0	0
37.747658	0.792162	city	2	0	0.000000	0.921622	0	0	0	1	OmissionError	3.000864	1.245377	0	0
38.539871	0.792262	mountain	5	0	0.000000	0.771280	1	0	0	0	CorrectOmission	1.497369	1.222829	0	0
39.332134	0.792265	city	10	1	0.596214	0.596214	0	1	0	0	CorrectCommission	0.253371	1.191580	0	0
40.124401	0.792272	city	2	1	0.546736	0.546736	0	1	0	0	CorrectCommission	0.748174	1.154868	0	0
40.916664	0.792256	city	4	1	0.596270	0.596270	0	1	0	0	CorrectCommission	0.252809	1.115757	0	0
41.708954	0.792323	mountain	5	0	0.000000	0.549882	1	0	0	0	CorrectOmission	0.716717	1.076774	0	0
42.501221	0.792207	city	9	1	0.501925	0.501925	0	1	0	0	CorrectCommission	1.196312	1.039601	0	0
43.293510	0.792373	city	4	1	0.546753	0.546753	0	1	0	0	CorrectCommission	0.748009	1.004984	0	0
44.085773	0.792156	city	1	1	0.498984	0.498984	0	1	0	0	CorrectCommission	1.225718	0.972796	0	0
44.877995	0.792286	city	6	1	0.454009	0.454009	0	1	0	0	CorrectCommission	1.675495	0.942235	0	0
45.670368	0.792462	city	5	1	0.546723	0.546723	0	1	0	0	CorrectCommission	0.748310	0.912126	0	0
46.462624	0.792048	city	10	1	0.550101	0.550101	0	1	0	0	CorrectCommission	0.714527	0.881240	0	0
47.254833	0.792373	city	7	1	0.596401	0.596401	0	1	0	0	CorrectCommission	0.251506	0.848544	0	0
48.047100	0.792155	city	3	1	0.497301	0.497301	0	1	0	0	CorrectCommission	1.242556	0.813434	0	0
48.839310	0.792266	city	8	1	0.449565	0.449565	0	1	0	0	CorrectCommission	1.719938	0.775816	1	0
49.631577	0.792267	city	5	1	0.515237	0.515237	0	1	0	0	CorrectCommission	1.063179	0.736153	1	0
50.423893	0.792369	city	7	1	0.596244	0.596244	0	1	0	0	CorrectCommission	0.253069	0.695388	1	0
51.216156	0.792156	city	1	1	0.597042	0.597042	0	1	0	0	CorrectCommission	0.245094	0.654781	1	0
52.008389	0.792305	city	9	1	0.645793	0.645793	0	1	0	0	CorrectCommission	0.242441	0.615736	1	0
52.800671	0.792258	city	3	1	0.556428	0.556428	0	1	0	0	CorrectCommission	0.651248	0.579595	1	0
53.592968	0.792338	city	5	1	0.596215	0.596215	0	1	0	0	CorrectCommission	0.253366	0.547506	1	0
54.385216	0.792158	city	2	1	0.503205	0.503205	0	1	0	0	CorrectCommission	1.183511	0.520298	1	0
55.177429	0.792266	city	9	1	0.602703	0.602703	0	1	0	0	CorrectCommission	0.188480	0.498362	1	0
55.969692	0.792261	city	5	1	0.645824	0.645824	0	1	0	0	CorrectCommission	0.242748	0.481734	1	0
56.762009	0.792376	city	3	1	0.598910	0.598910	0	1	0	0	CorrectCommission	0.226410	0.470057	1	0
57.554276	0.792159	city	9	1	0.601990	0.601990	0	1	0	0	CorrectCommission	0.195613	0.462629	1	0
58.346596	0.792479	city	7	1	0.558654	0.558654	0	1	0	0	CorrectCommission	0.628996	0.458511	1	0
59.138969	0.792265	city	5	1	0.596060	0.596060	0	1	0	0	CorrectCommission	0.254917	0.456607	1	0
59.931122	0.792044	city	8	1	0.546571	0.546571	0	1	0	0	CorrectCommission	0.749829	0.455794	1	0
60.723278	0.792269	city	2	1	0.546804	0.546804	0	1	0	0	CorrectCommission	0.747498	0.455019	1	0
61.515575	0.792324	city	7	1	0.601778	0.601778	0	1	0	0	CorrectCommission	0.197726	0.453417	1	0
62.307949	0.792420	city	10	1	0.546770	0.546770	0	1	0	0	CorrectCommission	0.747837	0.450357	1	0
63.100235	0.792156	city	3	1	0.596032	0.596032	0	1	0	0	CorrectCommission	0.255193	0.445480	1	0
63.892391	0.792159	mountain	6	0	0.000000	0.582271	1	0	0	0	CorrectOmission	0.392810	0.438742	1	0
64.684601	0.792261	city	10	1	0.551632	0.551632	0	1	0	0	CorrectCommission	0.699217	0.430358	1	0
65.476906	0.792344	mountain	7	1	0.550259	0.550259	0	0	1	0	CommissionError	0.712942	0.420765	1	0
66.269173	0.792185	city	10	1	0.605681	0.605681	0	1	0	0	CorrectCommission	0.158699	0.410582	1	0
67.061394	0.792266	city	4	1	0.596266	0.596266	0	1	0	0	CorrectCommission	0.252853	0.400573	1	0
67.853661	0.792267	mountain	9	0	0.000000	0.614926	1	0	0	0	CorrectOmission	0.066241	0.391582	1	1
68.646034	0.792481	city	3	1	0.602228	0.602228	0	1	0	0	CorrectCommission	0.193228	0.384499	1	1
69.438301	0.792051	city	10	1	0.498739	0.498739	0	1	0	0	CorrectCommission	1.228175	0.380206	1	1
70.230461	0.792265	city	2	1	0.602018	0.602018	0	1	0	0	CorrectCommission	0.195333	0.379497	1	1
71.022827	0.792477	city	1	1	0.605648	0.605648	0	1	0	0	CorrectCommission	0.159029	0.383087	1	1
71.815102	0.792068	city	3	1	0.596296	0.596296	0	1	0	0	CorrectCommission	0.252553	0.391440	1	1
72.607262	0.792244	city	1	1	0.601612	0.601612	0	1	0	0	CorrectCommission	0.199387	0.404718	1	1
73.399567	0.792374	city	3	1	0.603086	0.603086	0	1	0	0	CorrectCommission	0.184646	0.422707	1	1
74.191833	0.792160	city	2	1	0.652257	0.652257	0	1	0	0	CorrectCommission	0.307080	0.444761	1	1
74.984062	0.792301	city	4	1	0.659281	0.659281	0	1	0	0	CorrectCommission	0.377323	0.469844	1	1
75.776436	0.792442	city	5	1	0.653354	0.653354	0	1	0	0	CorrectCommission	0.318051	0.496571	1	1
76.568787	0.792265	city	6	1	0.744453	0.744453	0	1	0	0	CorrectCommission	1.229089	0.523412	1	1
77.360947	0.792050	city	2	1	0.647714	0.647714	0	1	0	0	CorrectCommission	0.261652	0.548889	1	1
78.153107	0.792265	city	9	1	0.645765	0.645765	0	1	0	0	CorrectCommission	0.242164	0.571882	1	1
78.945427	0.792370	city	7	1	0.716322	0.716322	0	1	0	0	CorrectCommission	0.947765	0.591805	1	1
79.737686	0.792157	city	4	1	0.695014	0.695014	0	1	0	0	CorrectCommission	0.734674	0.608792	1	1
80.529915	0.792300	city	7	1	0.744749	0.744749	0	1	0	0	CorrectCommission	1.232048	0.623818	1	1
81.322235	0.792336	mountain	4	0	0.000000	0.736519	1	0	0	0	CorrectOmission	1.149746	0.638590	1	1
82.114586	0.792373	city	9	1	0.695170	0.695170	0	1	0	0	CorrectCommission	0.736232	0.655336	1	1
82.906853	0.792155	city	7	1	0.645546	0.645546	0	1	0	0	CorrectCommission	0.239966	0.676429	1	1
83.699120	0.792376	city	8	1	0.596132	0.596132	0	1	0	0	CorrectCommission	0.254194	0.703935	1	1
84.491364	0.792110	city	9	1	0.599606	0.599606	0	1	0	0	CorrectCommission	0.219451	0.739103	1	1
85.283569	0.792311	city	7	1	0.645698	0.645698	0	1	0	0	CorrectCommission	0.241486	0.781991	1	1
86.075806	0.792159	city	8	1	0.608008	0.608008	0	1	0	0	CorrectCommission	0.135426	0.831239	0	1
86.868019	0.792266	city	2	1	0.700537	0.700537	0	1	0	0	CorrectCommission	0.789908	0.884087	0	1
87.660301	0.792297	city	8	1	0.664071	0.664071	0	1	0	0	CorrectCommission	0.425232	0.936680	0	1
88.452667	0.792445	mountain	10	0	0.000000	0.475425	1	0	0	0	CorrectOmission	1.461319	0.984567	0	1
89.245026	0.792265	mountain	2	1	0.447490	0.447490	0	0	1	0	CommissionError	1.740690	1.023322	0	1
90.037186	0.792048	city	4	1	0.893154	0.893154	0	1	0	0	CorrectCommission	2.716174	1.049256	0	1
90.829376	0.792334	city	2	1	0.754152	0.754152	0	1	0	0	CorrectCommission	1.326087	1.059958	0	1
91.621674	0.792263	city	5	1	0.547095	0.547095	0	1	0	0	CorrectCommission	0.744584	1.054712	0	1
92.413902	0.792196	city	7	1	0.447678	0.447678	0	1	0	0	CorrectCommission	1.738803	1.034554	0	1
93.206184	0.792373	mountain	10	1	0.414168	0.414168	0	0	1	0	CommissionError	2.073920	1.002067	0	1
93.998482	0.792218	mountain	4	0	0.000000	0.532539	1	0	0	0	CorrectOmission	0.890155	0.960981	0	1
94.790695	0.792206	city	4	1	0.645683	0.645683	0	1	0	0	CorrectCommission	0.241341	0.915629	0	1
95.582985	0.792370	city	7	1	0.596493	0.596493	0	1	0	0	CorrectCommission	0.250581	0.870243	0	1
96.375351	0.792373	mountain	5	0	0.000000	0.591068	1	0	0	0	CorrectOmission	0.304832	0.828364	0	1
97.167564	0.792047	city	3	1	0.600925	0.600925	0	1	0	0	CorrectCommission	0.206258	0.792436	0	1
97.959724	0.792268	city	9	1	0.597581	0.597581	0	1	0	0	CorrectCommission	0.239706	0.763608	1	1
98.751984	0.792264	city	1	1	0.547505	0.547505	0	1	0	0	CorrectCommission	0.740484	0.741770	1	1
99.544289	0.792340	city	3	1	0.499694	0.499694	0	1	0	0	CorrectCommission	1.218624	0.725810	1	1
100.336662	0.792405	mountain	2	0	0.000000	0.520232	1	0	0	0	CorrectOmission	1.013234	0.713990	1	1
101.128944	0.792154	city	10	1	0.546515	0.546515	0	1	0	0	CorrectCommission	0.750388	0.704383	1	1
101.921097	0.792162	city	9	1	0.515939	0.515939	0	1	0	0	CorrectCommission	1.056166	0.695238	1	1
102.713341	0.792323	city	2	1	0.497382	0.497382	0	1	0	0	CorrectCommission	1.241741	0.685261	1	1
103.505714	0.792421	city	10	1	0.608903	0.608903	0	1	0	0	CorrectCommission	0.126473	0.673790	1	1
104.297951	0.792055	city	5	1	0.603240	0.603240	0	1	0	0	CorrectCommission	0.183106	0.660806	1	1
105.090103	0.792255	city	9	1	0.553378	0.553378	0	1	0	0	CorrectCommission	0.681756	0.646844	1	1
105.882362	0.792264	city	6	1	0.518825	0.518825	0	1	0	0	CorrectCommission	1.027302	0.632848	1	1
106.674736	0.792483	city	1	1	0.560315	0.560315	0	1	0	0	CorrectCommission	0.612383	0.620031	1	1
107.467056	0.792155	city	3	1	0.546657	0.546657	0	1	0	0	CorrectCommission	0.748964	0.609687	1	1
108.259239	0.792211	city	4	1	0.596114	0.596114	0	1	0	0	CorrectCommission	0.254370	0.603035	1	1
109.051453	0.792216	city	5	1	0.645755	0.645755	0	1	0	0	CorrectCommission	0.242061	0.601090	1	1
109.843689	0.792260	city	9	1	0.558838	0.558838	0	1	0	0	CorrectCommission	0.627155	0.604504	1	1
110.635956	0.792264	city	7	1	0.553357	0.553357	0	1	0	0	CorrectCommission	0.681964	0.613480	1	1
111.428223	0.792269	city	10	1	0.546740	0.546740	0	1	0	0	CorrectCommission	0.748134	0.627776	1	1
112.220520	0.792324	city	4	1	0.646006	0.646006	0	1	0	0	CorrectCommission	0.244566	0.646673	1	1
113.012894	0.792421	city	1	1	0.596157	0.596157	0	1	0	0	CorrectCommission	0.253941	0.669035	1	1
113.805138	0.792078	city	2	1	0.598810	0.598810	0	1	0	0	CorrectCommission	0.227411	0.693413	1	1
114.597298	0.792241	city	10	1	0.506646	0.506646	0	1	0	0	CorrectCommission	1.149097	0.718218	1	1
115.389549	0.792257	city	1	1	0.511700	0.511700	0	1	0	0	CorrectCommission	1.098553	0.741839	1	1
116.181824	0.792298	city	9	1	0.499174	0.499174	0	1	0	0	CorrectCommission	1.223822	0.762888	1	1
116.974091	0.792232	city	1	1	0.547316	0.547316	0	1	0	0	CorrectCommission	0.742379	0.780325	1	1
117.766373	0.792323	city	6	1	0.546763	0.546763	0	1	0	0	CorrectCommission	0.747907	0.793571	0	1
118.558662	0.792262	city	9	1	0.455047	0.455047	0	1	0	0	CorrectCommission	1.665116	0.802505	0	1
119.350899	0.792211	city	10	1	0.553738	0.553738	0	1	0	0	CorrectCommission	0.678156	0.807397	0	1
120.143242	0.792477	city	3	1	0.596227	0.596227	0	1	0	0	CorrectCommission	0.253247	0.808852	0	1
120.935509	0.792052	city	4	1	0.596001	0.596001	0	1	0	0	CorrectCommission	0.255499	0.807679	0	1
121.727715	0.792371	mountain	5	0	0.000000	0.547148	1	0	0	0	CorrectOmission	0.744052	0.804753	0	1
122.519997	0.792185	city	3	1	0.499745	0.499745	0	1	0	0	CorrectCommission	1.218109	0.800950	0	1
123.312317	0.792451	mountain	10	1	0.503869	0.503869	0	0	1	0	CommissionError	1.176867	0.797099	0	1
124.104568	0.792052	city	10	1	0.503604	0.503604	0	1	0	0	CorrectCommission	1.179523	0.793968	0	1
124.896828	0.792479	mountain	4	0	0.000000	0.538017	1	0	0	0	CorrectOmission	0.835369	0.792204	0	1
125.689201	0.792264	city	5	1	0.603156	0.603156	0	1	0	0	CorrectCommission	0.183949	0.792319	0	1
126.481384	0.792104	city	9	1	0.695066	0.695066	0	1	0	0	CorrectCommission	0.735193	0.794609	0	1
127.273552	0.792227	city	10	1	0.645717	0.645717	0	1	0	0	CorrectCommission	0.241679	0.799088	0	0
128.065781	0.792246	city	6	1	0.647159	0.647159	0	1	0	0	CorrectCommission	0.256100	0.805508	0	0
128.858093	0.792374	mountain	4	1	0.744916	0.744916	0	0	1	0	CommissionError	1.233716	0.813340	0	0
129.650360	0.792156	city	2	1	0.843710	0.843710	0	1	0	0	CorrectCommission	2.221706	0.821802	0	0
130.442581	0.792297	city	7	1	0.657279	0.657279	0	1	0	0	CorrectCommission	0.357310	0.829935	0	0
131.234848	0.792231	city	3	1	0.596361	0.596361	0	1	0	0	CorrectCommission	0.251907	0.836738	0	0
132.027161	0.792374	city	1	1	0.546717	0.546717	0	1	0	0	CorrectCommission	0.748371	0.841141	0	0
132.819427	0.792161	mountain	6	0	0.000000	0.524351	1	0	0	0	CorrectOmission	0.972033	0.842142	0	0
133.611633	0.792265	city	8	1	0.513372	0.513372	0	1	0	0	CorrectCommission	1.081835	0.838896	0	0
134.403900	0.792265	city	5	1	0.497884	0.497884	0	1	0	0	CorrectCommission	1.236717	0.830791	0	0
135.196274	0.792479	city	9	1	0.546758	0.546758	0	1	0	0	CorrectCommission	0.747955	0.817510	0	0
135.988541	0.792046	city	5	1	0.512706	0.512706	0	1	0	0	CorrectCommission	1.088491	0.799126	0	0
136.780685	0.792265	city	3	1	0.552406	0.552406	0	1	0	0	CorrectCommission	0.691473	0.776164	1	0
137.572952	0.792266	city	10	1	0.547550	0.547550	0	1	0	0	CorrectCommission	0.740035	0.749666	1	0
138.365326	0.792482	city	8	1	0.546699	0.546699	0	1	0	0	CorrectCommission	0.748546	0.721129	1	0
139.157700	0.792265	city	1	1	0.557776	0.557776	0	1	0	0	CorrectCommission	0.637771	0.692457	1	0
139.949875	0.792067	city	3	1	0.549011	0.549011	0	1	0	0	CorrectCommission	0.725429	0.665844	1	0
140.742050	0.792310	city	4	1	0.500658	0.500658	0	1	0	0	CorrectCommission	1.208984	0.643593	1	0
141.534317	0.792200	city	6	1	0.596175	0.596175	0	1	0	0	CorrectCommission	0.253764	0.627847	1	0
142.326645	0.792480	city	7	1	0.596164	0.596164	0	1	0	0	CorrectCommission	0.253877	0.620359	1	0
143.119019	0.792266	city	5	1	0.611608	0.611608	0	1	0	0	CorrectCommission	0.099423	0.622168	1	0
143.911179	0.792045	city	4	1	0.665305	0.665305	0	1	0	0	CorrectCommission	0.437572	0.633361	1	0
144.703384	0.792374	city	1	1	0.652888	0.652888	0	1	0	0	CorrectCommission	0.313398	0.652957	1	0
145.495712	0.792265	city	7	1	0.596788	0.596788	0	1	0	0	CorrectCommission	0.247632	0.678897	1	0
146.287918	0.792163	city	5	1	0.645688	0.645688	0	1	0	0	CorrectCommission	0.241390	0.708230	1	0
147.080139	0.792262	city	8	1	0.661081	0.661081	0	1	0	0	CorrectCommission	0.395331	0.737410	1	0
147.872452	0.792371	city	3	1	0.749155	0.749155	0	1	0	0	CorrectCommission	1.276112	0.762775	1	0
148.664719	0.792160	mountain	7	0	0.000000	0.844268	1	0	0	0	CorrectOmission	2.227288	0.780987	1	0
149.456924	0.792264	city	9	1	0.845334	0.845334	0	1	0	0	CorrectCommission	2.237948	0.789463	0	0
150.249191	0.792261	city	7	1	0.651267	0.651267	0	1	0	0	CorrectCommission	0.297182	0.786675	0	0
151.041565	0.792482	mountain	5	0	0.000000	0.589616	1	0	0	0	CorrectOmission	0.319355	0.772329	1	0
151.833832	0.792047	city	7	1	0.560945	0.560945	0	1	0	0	CorrectCommission	0.606082	0.747233	1	0
152.626038	0.792374	city	8	1	0.465816	0.465816	0	1	0	0	CorrectCommission	1.557416	0.713177	1	0
153.418411	0.792373	city	7	1	0.546686	0.546686	0	1	0	0	CorrectCommission	0.748675	0.672611	1	0
154.210617	0.792049	city	8	1	0.596045	0.596045	0	1	0	0	CorrectCommission	0.255062	0.628357	1	0
155.002777	0.792269	city	6	1	0.598127	0.598127	0	1	0	0	CorrectCommission	0.234245	0.583264	1	0
155.795105	0.792367	mountain	10	1	0.696000	0.696000	0	0	1	0	CommissionError	0.744539	0.539964	1	0
156.587357	0.792156	city	1	1	0.596171	0.596171	0	1	0	0	CorrectCommission	0.253804	0.500670	1	0
157.379578	0.792262	city	9	1	0.596357	0.596357	0	1	0	0	CorrectCommission	0.251948	0.467135	1	0
158.171860	0.792321	city	1	1	0.604274	0.604274	0	1	0	0	CorrectCommission	0.172769	0.440561	1	0
158.964127	0.792196	city	5	1	0.596164	0.596164	0	1	0	0	CorrectCommission	0.253871	0.421683	1	0
159.756363	0.792276	city	10	1	0.695320	0.695320	0	1	0	0	CorrectCommission	0.737734	0.410794	1	0
160.548630	0.792270	mountain	9	0	0.000000	0.623440	1	0	0	0	CorrectOmission	0.018903	0.407810	1	0
161.340897	0.792261	city	3	1	0.550335	0.550335	0	1	0	0	CorrectCommission	0.712186	0.412342	1	0
162.133163	0.792273	city	7	1	0.645813	0.645813	0	1	0	0	CorrectCommission	0.242646	0.423669	1	0
162.925430	0.792258	city	1	1	0.617242	0.617242	0	1	0	0	CorrectCommission	0.043082	0.440801	1	0
163.717743	0.792372	city	9	1	0.645750	0.645750	0	1	0	0	CorrectCommission	0.242012	0.462486	1	0
164.510117	0.792374	city	6	1	0.701949	0.701949	0	1	0	0	CorrectCommission	0.804023	0.487187	1	0
165.302322	0.792048	city	3	1	0.605453	0.605453	0	1	0	0	CorrectCommission	0.160974	0.513208	1	0
166.094498	0.792300	city	10	1	0.596316	0.596316	0	1	0	0	CorrectCommission	0.252351	0.538806	1	0
166.886765	0.792228	city	6	1	0.655901	0.655901	0	1	0	0	CorrectCommission	0.343522	0.562344	1	0
167.679123	0.792483	mountain	8	0	0.000000	0.751085	1	0	0	0	CorrectOmission	1.295416	0.582522	1	0
168.471390	0.792046	city	7	1	0.794133	0.794133	0	1	0	0	CorrectCommission	1.725910	0.598471	1	0
169.263550	0.792265	city	9	1	0.697305	0.697305	0	1	0	0	CorrectCommission	0.757585	0.609871	1	0
170.055832	0.792309	city	6	1	0.597201	0.597201	0	1	0	0	CorrectCommission	0.243507	0.616961	1	0
170.848099	0.792221	city	1	1	0.552458	0.552458	0	1	0	0	CorrectCommission	0.690955	0.620436	1	0
171.640442	0.792481	mountain	7	0	0.000000	0.632787	1	0	0	0	CorrectOmission	0.112376	0.621267	1	0
172.432755	0.792125	city	9	1	0.695059	0.695059	0	1	0	0	CorrectCommission	0.735127	0.620534	1	0
173.224899	0.792191	city	8	1	0.596145	0.596145	0	1	0	0	CorrectCommission	0.254063	0.619183	1	0
174.017136	0.792265	city	7	1	0.546719	0.546719	0	1	0	0	CorrectCommission	0.748349	0.617999	1	0
174.809387	0.792246	city	9	1	0.546735	0.546735	0	1	0	0	CorrectCommission	0.748184	0.617421	1	0
175.601654	0.792278	city	4	1	0.546760	0.546760	0	1	0	0	CorrectCommission	0.747933	0.617631	1	0
176.393982	0.792374	city	8	1	0.563180	0.563180	0	1	0	0	CorrectCommission	0.583727	0.618604	1	0
177.186249	0.792158	city	3	1	0.596197	0.596197	0	1	0	0	CorrectCommission	0.253544	0.620192	1	0
177.978455	0.792266	city	2	1	0.596252	0.596252	0	1	0	0	CorrectCommission	0.252995	0.622278	1	0
178.770721	0.792261	mountain	5	1	0.797897	0.797897	0	0	1	0	CommissionError	1.763552	0.624802	1	0
179.563095	0.792484	city	8	1	0.601125	0.601125	0	1	0	0	CorrectCommission	0.204261	0.627818	1	0
180.355362	0.792046	city	2	1	0.503285	0.503285	0	1	0	0	CorrectCommission	1.182705	0.631540	1	0
181.147568	0.792372	city	5	1	0.645732	0.645732	0	1	0	0	CorrectCommission	0.241827	0.636173	1	0
181.939835	0.792159	city	4	1	0.596105	0.596105	0	1	0	0	CorrectCommission	0.254466	0.641886	1	0
182.732056	0.792286	city	9	1	0.553389	0.553389	0	1	0	0	CorrectCommission	0.681639	0.648664	1	0
183.524323	0.792242	city	5	1	0.555702	0.555702	0	1	0	0	CorrectCommission	0.658515	0.656205	1	0
184.316605	0.792320	city	3	1	0.645740	0.645740	0	1	0	0	CorrectCommission	0.241913	0.663920	1	0
185.108871	0.792212	city	4	1	0.550244	0.550244	0	1	0	0	CorrectCommission	0.713099	0.670977	1	0
185.901215	0.792479	city	2	1	0.546764	0.546764	0	1	0	0	CorrectCommission	0.747900	0.676398	1	0
186.693497	0.792089	city	8	1	0.509069	0.509069	0	1	0	0	CorrectCommission	1.124866	0.679265	1	1
187.485657	0.792222	city	2	1	0.546734	0.546734	0	1	0	0	CorrectCommission	0.748195	0.678948	1	1
188.277908	0.792282	city	7	1	0.596266	0.596266	0	1	0	0	CorrectCommission	0.252852	0.675250	1	1
189.070175	0.792247	city	3	1	0.843701	0.843701	0	1	0	0	CorrectCommission	2.221619	0.668549	1	1
189.862427	0.792269	city	4	1	0.652866	0.652866	0	1	0	0	CorrectCommission	0.313170	0.659746	1	1
190.654694	0.792266	city	6	1	0.596279	0.596279	0	1	0	0	CorrectCommission	0.252726	0.650316	1	1
191.446960	0.792280	city	3	1	0.553384	0.553384	0	1	0	0	CorrectCommission	0.681693	0.642004	1	1
192.239227	0.792252	mountain	6	0	0.000000	0.637757	1	0	0	0	CorrectOmission	0.162072	0.636637	1	1
193.031494	0.792259	city	10	1	0.701376	0.701376	0	1	0	0	CorrectCommission	0.798294	0.635866	1	1
193.823761	0.792294	city	8	1	0.596221	0.596221	0	1	0	0	CorrectCommission	0.253305	0.640890	1	1
194.616058	0.792288	city	2	1	0.546933	0.546933	0	1	0	0	CorrectCommission	0.746203	0.652320	1	1
195.408325	0.792238	city	8	1	0.645742	0.645742	0	1	0	0	CorrectCommission	0.241935	0.670081	1	1
196.200668	0.792455	city	2	1	0.645706	0.645706	0	1	0	0	CorrectCommission	0.241573	0.693415	1	1
196.992920	0.792049	city	7	1	0.547519	0.547519	0	1	0	0	CorrectCommission	0.740344	0.721060	1	1
197.785187	0.792481	city	1	1	0.514450	0.514450	0	1	0	0	CorrectCommission	1.071055	0.751377	1	1
198.577454	0.792049	city	8	1	0.546811	0.546811	0	1	0	0	CorrectCommission	0.747422	0.782651	1	1
199.369598	0.792267	city	10	1	0.553452	0.553452	0	1	0	0	CorrectCommission	0.681016	0.813317	0	1
200.161880	0.792297	mountain	6	0	0.000000	0.481496	1	0	0	0	CorrectOmission	1.400611	0.842125	0	1
200.954147	0.792233	city	1	1	0.456923	0.456923	0	1	0	0	CorrectCommission	1.646351	0.868243	0	1
201.746399	0.792262	city	9	1	0.605713	0.605713	0	1	0	0	CorrectCommission	0.158377	0.891281	0	1
202.538666	0.792263	city	4	1	0.466427	0.466427	0	1	0	0	CorrectCommission	1.551308	0.911204	0	1
203.330933	0.792265	city	2	1	0.546734	0.546734	0	1	0	0	CorrectCommission	0.748196	0.928068	0	1
204.123199	0.792280	mountain	4	0	0.000000	0.561693	1	0	0	0	CorrectOmission	0.598597	0.941933	0	1
204.915466	0.792250	mountain	9	1	0.553788	0.553788	0	0	1	0	CommissionError	0.677655	0.952619	0	1
205.707718	0.792268	mountain	1	0	0.000000	0.565501	1	0	0	0	CorrectOmission	0.560514	0.959679	0	1
206.500046	0.792369	city	2	1	0.546869	0.546869	0	1	0	0	CorrectCommission	0.746843	0.962349	0	1
207.292328	0.792198	city	1	1	0.447927	0.447927	0	1	0	0	CorrectCommission	1.736311	0.959750	0	1
208.084595	0.792332	city	5	1	0.455279	0.455279	0	1	0	0	CorrectCommission	1.662793	0.951056	0	1
208.876831	0.792160	city	1	1	0.497070	0.497070	0	1	0	0	CorrectCommission	1.244858	0.935752	0	1
209.669067	0.792291	city	3	1	0.558213	0.558213	0	1	0	0	CorrectCommission	0.633399	0.913856	0	1
210.461380	0.792344	city	7	1	0.497195	0.497195	0	1	0	0	CorrectCommission	1.243615	0.886002	0	1
211.253677	0.792263	city	3	1	0.559601	0.559601	0	1	0	0	CorrectCommission	0.619524	0.853463	0	1
212.045898	0.792157	city	8	1	0.501955	0.501955	0	1	0	0	CorrectCommission	1.196012	0.818058	0	1
212.838150	0.792375	city	1	1	0.554145	0.554145	0	1	0	0	CorrectCommission	0.674079	0.781918	1	1
213.630447	0.792204	city	6	1	0.546614	0.546614	0	1	0	0	CorrectCommission	0.749402	0.747259	1	1
214.422653	0.792207	city	5	1	0.554031	0.554031	0	1	0	0	CorrectCommission	0.675225	0.716048	1	1
215.214890	0.792273	city	10	1	0.596182	0.596182	0	1	0	0	CorrectCommission	0.253689	0.689734	1	1
216.007156	0.792267	city	6	1	0.645768	0.645768	0	1	0	0	CorrectCommission	0.242192	0.669070	1	1
216.799438	0.792279	city	8	1	0.649064	0.649064	0	1	0	0	CorrectCommission	0.275151	0.654014	1	1
217.591751	0.792356	city	10	1	0.652286	0.652286	0	1	0	0	CorrectCommission	0.307371	0.643776	1	1
218.384033	0.792193	city	3	1	0.645824	0.645824	0	1	0	0	CorrectCommission	0.242754	0.636987	1	1
219.176239	0.792228	mountain	10	1	0.763549	0.763549	0	0	1	0	CommissionError	1.420054	0.632010	1	1
219.968491	0.792270	city	1	1	0.695340	0.695340	0	1	0	0	CorrectCommission	0.737932	0.627184	1	1
220.760757	0.792259	city	10	1	0.794283	0.794283	0	1	0	0	CorrectCommission	1.727414	0.621192	1	1
221.553116	0.792483	city	7	1	0.695269	0.695269	0	1	0	0	CorrectCommission	0.737224	0.613185	1	1
222.345383	0.792051	city	9	1	0.657115	0.657115	0	1	0	0	CorrectCommission	0.355662	0.602955	1	1
223.137543	0.792271	city	10	1	0.612432	0.612432	0	1	0	0	CorrectCommission	0.091183	0.590856	1	1
223.929810	0.792258	city	5	1	0.609898	0.609898	0	1	0	0	CorrectCommission	0.116522	0.577746	1	1
224.722122	0.792369	city	6	1	0.695324	0.695324	0	1	0	0	CorrectCommission	0.737774	0.564735	1	1
225.514420	0.792200	city	8	1	0.695014	0.695014	0	1	0	0	CorrectCommission	0.734672	0.553088	1	1
226.306656	0.792295	city	1	1	0.702118	0.702118	0	1	0	0	CorrectCommission	0.805718	0.544069	1	1
227.098907	0.792190	city	6	1	0.663618	0.663618	0	1	0	0	CorrectCommission	0.420698	0.538811	1	1
227.891190	0.792375	city	10	1	0.607779	0.607779	0	1	0	0	CorrectCommission	0.137719	0.538221	1	1
228.683456	0.792155	city	8	1	0.663645	0.663645	0	1	0	0	CorrectCommission	0.420964	0.542948	1	1
229.475693	0.792332	city	5	1	0.695272	0.695272	0	1	0	0	CorrectCommission	0.737254	0.553291	1	1
230.267960	0.792197	city	3	1	0.654820	0.654820	0	1	0	0	CorrectCommission	0.332711	0.569207	1	1
231.060226	0.792336	city	4	1	0.646340	0.646340	0	1	0	0	CorrectCommission	0.247913	0.590300	1	1
231.852509	0.792221	mountain	10	0	0.000000	0.574116	1	0	0	0	CorrectOmission	0.474359	0.615820	1	1
232.644760	0.792301	city	5	1	0.552361	0.552361	0	1	0	0	CorrectCommission	0.691925	0.644688	1	1
233.437073	0.792310	city	2	1	0.695286	0.695286	0	1	0	0	CorrectCommission	0.737395	0.675563	1	1
234.229355	0.792267	city	8	1	0.546754	0.546754	0	1	0	0	CorrectCommission	0.748001	0.706929	1	1
235.021576	0.792156	city	2	1	0.497153	0.497153	0	1	0	0	CorrectCommission	1.244029	0.737182	1	1
235.813782	0.792278	city	7	1	0.549158	0.549158	0	1	0	0	CorrectCommission	0.723954	0.764780	1	1
236.606049	0.792259	city	2	1	0.645726	0.645726	0	1	0	0	CorrectCommission	0.241774	0.788381	0	1
237.398361	0.792363	mountain	6	0	0.000000	0.559260	1	0	0	0	CorrectOmission	0.622933	0.807013	0	1
238.190628	0.792166	city	10	1	0.553973	0.553973	0	1	0	0	CorrectCommission	0.675804	0.820224	0	1
238.982849	0.792258	city	6	1	0.894080	0.894080	0	1	0	0	CorrectCommission	2.725432	0.828202	0	1
239.775101	0.792266	city	10	1	0.596288	0.596288	0	1	0	0	CorrectCommission	0.252631	0.831821	0	1
240.567368	0.792262	city	8	1	0.499654	0.499654	0	1	0	0	CorrectCommission	1.219019	0.832770	0	1
241.359634	0.792266	city	3	1	0.509424	0.509424	0	1	0	0	CorrectCommission	1.121312	0.833286	0	1
242.151947	0.792372	city	10	1	0.552731	0.552731	0	1	0	0	CorrectCommission	0.688220	0.836009	0	1
242.944214	0.792156	city	6	1	0.616322	0.616322	0	1	0	0	CorrectCommission	0.052286	0.843680	0	1
243.736526	0.792483	city	8	1	0.564037	0.564037	0	1	0	0	CorrectCommission	0.575161	0.858793	0	1
244.528793	0.792048	city	2	1	0.597888	0.597888	0	1	0	0	CorrectCommission	0.236629	0.883241	0	1
245.320953	0.792267	city	1	1	0.562973	0.562973	0	1	0	0	CorrectCommission	0.585800	0.918091	0	1
246.113220	0.792263	city	9	1	0.703141	0.703141	0	1	0	0	CorrectCommission	0.815945	0.963391	0	0
246.905594	0.792481	city	10	1	0.465380	0.465380	0	1	0	0	CorrectCommission	1.561779	1.018113	0	0
247.697861	0.792049	city	5	1	0.506308	0.506308	0	1	0	0	CorrectCommission	1.152480	1.080211	0	0
248.490021	0.792260	city	2	1	0.513019	0.513019	0	1	0	0	CorrectCommission	1.085361	1.146778	0	0
249.282272	0.792267	city	4	1	0.713540	0.713540	0	1	0	0	CorrectCommission	0.919940	1.214273	0	0
250.074539	0.792267	city	3	1	0.596287	0.596287	0	1	0	0	CorrectCommission	0.252645	1.278859	0	0
250.866806	0.792266	city	1	1	0.497378	0.497378	0	1	0	0	CorrectCommission	1.241779	1.336812	0	0
251.659073	0.792265	city	5	1	0.447693	0.447693	0	1	0	0	CorrectCommission	1.738655	1.384904	0	0
252.451401	0.792369	city	3	1	0.400612	0.400612	0	1	0	0	CorrectCommission	2.209491	1.420826	0	0
253.243668	0.792168	city	8	1	1.049406	1.049406	0	1	0	0	CorrectCommission	4.278769	1.443484	0	0
254.035873	0.792253	city	2	1	0.808102	0.808102	0	1	0	0	CorrectCommission	1.865606	1.453096	0	0
254.828125	0.792264	city	3	1	0.695259	0.695259	0	1	0	0	CorrectCommission	0.737122	1.451204	0	0
255.620453	0.792376	city	9	1	0.546718	0.546718	0	1	0	0	CorrectCommission	0.748356	1.440297	0	0
256.412720	0.792153	mountain	4	1	0.512229	0.512229	0	0	1	0	CommissionError	1.093266	1.423370	0	0
257.204987	0.792375	city	2	1	0.511143	0.511143	0	1	0	0	CorrectCommission	1.104120	1.403546	0	0
257.997284	0.792266	city	8	1	0.497077	0.497077	0	1	0	0	CorrectCommission	1.244794	1.383562	0	0
258.789520	0.792159	city	3	1	0.497078	0.497078	0	1	0	0	CorrectCommission	1.244777	1.365497	0	0
259.581787	0.792368	city	2	1	0.497361	0.497361	0	1	0	0	CorrectCommission	1.241956	1.350607	0	0
260.374054	0.792162	city	6	1	0.503307	0.503307	0	1	0	0	CorrectCommission	1.182488	1.339329	0	0
261.166321	0.792368	city	3	1	0.455071	0.455071	0	1	0	0	CorrectCommission	1.664869	1.331386	0	0
261.958588	0.792198	mountain	9	1	0.450009	0.450009	0	0	1	0	CommissionError	1.715495	1.325984	0	0
262.750793	0.792227	city	1	1	0.453856	0.453856	0	1	0	0	CorrectCommission	1.677019	1.322017	0	0
263.543152	0.792479	city	7	1	0.547310	0.547310	0	1	0	0	CorrectCommission	0.742441	1.318270	0	0
264.335510	0.792264	city	1	1	0.546551	0.546551	0	1	0	0	CorrectCommission	0.750025	1.313629	0	0
265.127716	0.792093	city	9	1	0.504457	0.504457	0	1	0	0	CorrectCommission	1.170986	1.307183	0	0
265.919861	0.792219	city	5	1	0.448959	0.448959	0	1	0	0	CorrectCommission	1.725993	1.298369	0	0
266.712097	0.792266	mountain	2	1	0.447805	0.447805	0	0	1	0	CommissionError	1.737530	1.287030	0	0
267.504364	0.792269	city	6	1	0.459703	0.459703	0	1	0	0	CorrectCommission	1.618552	1.273447	0	0
268.296631	0.792258	city	8	1	0.497055	0.497055	0	1	0	0	CorrectCommission	1.245008	1.258261	0	0
269.088928	0.792327	city	10	1	0.459089	0.459089	0	1	0	0	CorrectCommission	1.624694	1.242364	0	0
269.881195	0.792202	city	2	1	0.497184	0.497184	0	1	0	0	CorrectCommission	1.243723	1.226707	0	0
270.673523	0.792485	city	9	1	0.603725	0.603725	0	1	0	0	CorrectCommission	0.178258	1.212041	0	0
271.465820	0.792080	mountain	4	0	0.000000	0.530658	1	0	0	0	CorrectOmission	0.908962	1.198850	0	0
272.257965	0.792230	city	7	1	0.457294	0.457294	0	1	0	0	CorrectCommission	1.642641	1.187106	0	0
273.050232	0.792266	city	10	1	0.562943	0.562943	0	1	0	0	CorrectCommission	0.586104	1.176304	0	0
273.842499	0.792269	city	1	1	0.506384	0.506384	0	1	0	0	CorrectCommission	1.151715	1.165567	0	0
274.634857	0.792477	city	10	1	0.497415	0.497415	0	1	0	0	CorrectCommission	1.241410	1.153797	0	0
275.427124	0.792047	city	8	1	0.501687	0.501687	0	1	0	0	CorrectCommission	1.198691	1.139958	0	0
276.219269	0.792268	city	9	1	0.463291	0.463291	0	1	0	0	CorrectCommission	1.582668	1.123289	0	0
277.011536	0.792267	mountain	9	1	0.415350	0.415350	0	0	1	0	CommissionError	2.062102	1.103508	0	0
277.803864	0.792368	city	4	1	0.497178	0.497178	0	1	0	0	CorrectCommission	1.243778	1.080874	0	0
278.596130	0.792157	city	1	1	0.546570	0.546570	0	1	0	0	CorrectCommission	0.749838	1.056188	0	0
279.388336	0.792266	city	10	1	0.497965	0.497965	0	1	0	0	CorrectCommission	1.235912	1.030598	0	0
280.180603	0.792262	city	3	1	0.596356	0.596356	0	1	0	0	CorrectCommission	0.251949	1.005382	0	0
280.972931	0.792373	city	4	1	0.554937	0.554937	0	1	0	0	CorrectCommission	0.666163	0.981802	0	0
281.765198	0.792157	mountain	7	1	0.546736	0.546736	0	0	1	0	CommissionError	0.748176	0.960861	0	0
282.557465	0.792375	city	2	1	0.645757	0.645757	0	1	0	0	CorrectCommission	0.242079	0.943319	0	0
283.349701	0.792156	city	5	1	0.699154	0.699154	0	1	0	0	CorrectCommission	0.776080	0.929709	0	0
284.141937	0.792264	city	1	1	0.802027	0.802027	0	1	0	0	CorrectCommission	1.804859	0.920418	0	0
284.934235	0.792373	city	9	1	0.843964	0.843964	0	1	0	0	CorrectCommission	2.224251	0.915805	0	0
285.726562	0.792265	mountain	9	0	0.000000	0.659307	1	0	0	0	CorrectOmission	0.377591	0.916320	0	0
286.518768	0.792159	city	10	1	0.497151	0.497151	0	1	0	0	CorrectCommission	1.244049	0.922492	0	0
287.311096	0.792479	city	8	1	0.606591	0.606591	0	1	0	0	CorrectCommission	0.149594	0.934712	0	0
288.103424	0.792156	city	9	1	0.645630	0.645630	0	1	0	0	CorrectCommission	0.240806	0.953172	0	0
288.895569	0.792159	city	7	1	0.614698	0.614698	0	1	0	0	CorrectCommission	0.068521	0.977589	0	0
289.687836	0.792369	city	6	1	0.698098	0.698098	0	1	0	0	CorrectCommission	0.765519	1.007097	0	0
290.480103	0.792159	city	2	1	0.794201	0.794201	0	1	0	0	CorrectCommission	1.726590	1.040208	0	0
291.272308	0.792265	city	1	1	0.704096	0.704096	0	1	0	0	CorrectCommission	0.825501	1.074892	0	0
292.064575	0.792261	city	5	1	0.794308	0.794308	0	1	0	0	CorrectCommission	1.727668	1.108804	0	0
292.856903	0.792373	city	4	1	0.763022	0.763022	0	1	0	0	CorrectCommission	1.414791	1.139433	0	0
293.649170	0.792156	city	6	1	0.810166	0.810166	0	1	0	0	CorrectCommission	1.886247	1.164381	0	0
294.441376	0.792269	city	10	1	0.744793	0.744793	0	1	0	0	CorrectCommission	1.232491	1.181546	0	0
295.233673	0.792371	city	4	1	0.695381	0.695381	0	1	0	0	CorrectCommission	0.738344	1.189285	0	0
296.025970	0.792216	city	2	1	0.698711	0.698711	0	1	0	0	CorrectCommission	0.771649	1.186548	0	0
296.818207	0.792206	city	5	1	0.657191	0.657191	0	1	0	0	CorrectCommission	0.356428	1.172949	0	0
297.610535	0.792479	city	2	1	0.857855	0.857855	0	1	0	0	CorrectCommission	2.363164	1.148893	0	0
298.402802	0.792047	city	10	1	0.898456	0.898456	0	1	0	0	CorrectCommission	2.769193	1.115543	0	0
299.194946	0.792258	city	3	1	0.794941	0.794941	0	1	0	0	CorrectCommission	1.733997	1.074870	0	0
299.987213	0.792271	city	4	1	0.650404	0.650404	0	1	0	0	CorrectCommission	0.288551	1.029518	0	0
300.779510	0.792309	city	6	1	0.556585	0.556585	0	1	0	0	CorrectCommission	0.649684	0.982571	0	0
301.571777	0.792226	city	10	1	0.695234	0.695234	0	1	0	0	CorrectCommission	0.736876	0.937176	0	0
302.364014	0.792263	city	8	1	0.600127	0.600127	0	1	0	0	CorrectCommission	0.214245	0.896255	0	0
303.156281	0.792261	city	7	1	0.663796	0.663796	0	1	0	0	CorrectCommission	0.422475	0.862236	0	0
303.948639	0.792484	city	4	1	0.711530	0.711530	0	1	0	0	CorrectCommission	0.899845	0.836727	0	0
304.740967	0.792154	city	8	1	0.744601	0.744601	0	1	0	0	CorrectCommission	1.230565	0.820424	0	0
305.533173	0.792265	city	4	1	0.645690	0.645690	0	1	0	0	CorrectCommission	0.241408	0.813076	0	1
306.325500	0.792374	city	7	1	0.645588	0.645588	0	1	0	0	CorrectCommission	0.240386	0.813622	0	1
307.117706	0.792046	city	5	1	0.702100	0.702100	0	1	0	0	CorrectCommission	0.805533	0.820298	0	1
307.909973	0.792486	city	4	1	0.695793	0.695793	0	1	0	0	CorrectCommission	0.742465	0.830887	0	1
308.702240	0.792046	city	5	1	0.702748	0.702748	0	1	0	0	CorrectCommission	0.812019	0.843020	0	1
309.494385	0.792268	city	8	1	0.843948	0.843948	0	1	0	0	CorrectCommission	2.224090	0.854358	0	1
310.286652	0.792261	city	5	1	0.709067	0.709067	0	1	0	0	CorrectCommission	0.875211	0.862775	0	1
311.078979	0.792373	city	1	1	0.695262	0.695262	0	1	0	0	CorrectCommission	0.737158	0.866549	0	1
311.871246	0.792160	city	3	1	0.695223	0.695223	0	1	0	0	CorrectCommission	0.736763	0.864347	0	1
312.663574	0.792478	city	10	1	0.653071	0.653071	0	1	0	0	CorrectCommission	0.315224	0.855284	0	1
313.455841	0.792048	city	8	1	0.695071	0.695071	0	1	0	0	CorrectCommission	0.735240	0.838917	0	1
314.248047	0.792374	city	9	1	0.749656	0.749656	0	1	0	0	CorrectCommission	1.281116	0.815256	0	1
315.040344	0.792265	city	10	1	0.744854	0.744854	0	1	0	0	CorrectCommission	1.233098	0.784748	1	1
315.832642	0.792318	city	4	1	0.794231	0.794231	0	1	0	0	CorrectCommission	1.726889	0.748310	1	1
316.624847	0.792105	city	1	1	0.695312	0.695312	0	1	0	0	CorrectCommission	0.737658	0.707291	1	1
317.417053	0.792266	city	7	1	0.647790	0.647790	0	1	0	0	CorrectCommission	0.262409	0.663437	1	1
318.209320	0.792300	city	1	1	0.654898	0.654898	0	1	0	0	CorrectCommission	0.333500	0.618701	1	1
319.001587	0.792224	city	4	1	0.656936	0.656936	0	1	0	0	CorrectCommission	0.353873	0.575070	1	1
319.793823	0.792266	city	9	1	0.657086	0.657086	0	1	0	0	CorrectCommission	0.355378	0.534404	1	1
320.586121	0.792322	city	2	1	0.649515	0.649515	0	1	0	0	CorrectCommission	0.279666	0.498275	1	1
321.378387	0.792210	city	4	1	0.695217	0.695217	0	1	0	0	CorrectCommission	0.736702	0.467858	1	1
322.170624	0.792266	mountain	3	0	0.000000	0.647412	1	0	0	0	CorrectOmission	0.258636	0.443864	1	1
322.963013	0.792479	city	9	1	0.599661	0.599661	0	1	0	0	CorrectCommission	0.218898	0.426613	1	1
323.755280	0.792046	city	5	1	0.645522	0.645522	0	1	0	0	CorrectCommission	0.239732	0.416074	1	1
324.547424	0.792265	city	10	1	0.645740	0.645740	0	1	0	0	CorrectCommission	0.241908	0.411951	1	1
325.339691	0.792269	city	3	1	0.645618	0.645618	0	1	0	0	CorrectCommission	0.240687	0.413827	1	1
326.131958	0.792263	city	1	1	0.695253	0.695253	0	1	0	0	CorrectCommission	0.737062	0.421273	1	1
326.924225	0.792302	city	6	1	0.645645	0.645645	0	1	0	0	CorrectCommission	0.240963	0.433894	1	1
327.716492	0.792226	city	1	1	0.551588	0.551588	0	1	0	0	CorrectCommission	0.699652	0.451428	1	1
328.508759	0.792265	city	10	1	0.664318	0.664318	0	1	0	0	CorrectCommission	0.427704	0.473671	1	1
329.301117	0.792481	mountain	6	0	0.000000	0.684676	1	0	0	0	CorrectOmission	0.631294	0.500470	1	1
330.093384	0.792050	city	4	1	0.654164	0.654164	0	1	0	0	CorrectCommission	0.326156	0.531646	1	1
330.885559	0.792268	city	5	1	0.614284	0.614284	0	1	0	0	CorrectCommission	0.072667	0.566895	1	1
331.677826	0.792261	city	9	1	0.596396	0.596396	0	1	0	0	CorrectCommission	0.251551	0.605794	1	1
332.470062	0.792263	city	8	1	0.651423	0.651423	0	1	0	0	CorrectCommission	0.298746	0.647785	1	1
333.262329	0.792266	city	7	1	0.709196	0.709196	0	1	0	0	CorrectCommission	0.876499	0.692230	1	1
334.054718	0.792480	city	3	1	0.744945	0.744945	0	1	0	0	CorrectCommission	1.234014	0.738536	1	1
334.847015	0.792105	city	8	1	0.707532	0.707532	0	1	0	0	CorrectCommission	0.859858	0.786218	0	1
335.639160	0.792210	city	6	1	0.752981	0.752981	0	1	0	0	CorrectCommission	1.314369	0.834940	0	1
336.431396	0.792263	city	4	1	0.744843	0.744843	0	1	0	0	CorrectCommission	1.232985	0.884443	0	1
337.223724	0.792371	city	10	1	0.701779	0.701779	0	1	0	0	CorrectCommission	0.802332	0.934444	0	1
338.016083	0.792375	city	3	1	0.653364	0.653364	0	1	0	0	CorrectCommission	0.318157	0.984485	0	1
338.808350	0.792156	city	8	1	0.695075	0.695075	0	1	0	0	CorrectCommission	0.735283	1.033759	0	1
339.600494	0.792154	city	10	1	0.660590	0.660590	0	1	0	0	CorrectCommission	0.390414	1.081004	0	1
340.392731	0.792276	city	6	1	0.702036	0.702036	0	1	0	0	CorrectCommission	0.804893	1.124573	0	1
341.184998	0.792255	mountain	5	0	0.000000	0.776849	1	0	0	0	CorrectOmission	1.553059	1.162568	0	1
341.977264	0.792267	mountain	2	0	0.000000	0.839401	1	0	0	0	CorrectOmission	2.178616	1.193096	0	1
342.769623	0.792480	mountain	1	0	0.000000	0.844066	1	0	0	0	CorrectOmission	2.225268	1.214569	0	1
343.561890	0.792045	city	7	1	0.745216	0.745216	0	1	0	0	CorrectCommission	1.236718	1.225953	0	1
344.354034	0.792267	city	10	1	0.497223	0.497223	0	1	0	0	CorrectCommission	1.243329	1.226966	0	1
345.146301	0.792266	mountain	3	1	0.411158	0.411158	0	0	1	0	CommissionError	2.104019	1.218038	0	1
345.938568	0.792265	city	7	1	0.600929	0.600929	0	1	0	0	CorrectCommission	0.206220	1.200215	0	1
346.730835	0.792264	city	1	1	0.464845	0.464845	0	1	0	0	CorrectCommission	1.567126	1.174998	0	1
347.523102	0.792287	city	10	1	0.497242	0.497242	0	1	0	0	CorrectCommission	1.243137	1.143972	0	1
348.315399	0.792271	city	6	1	0.597950	0.597950	0	1	0	0	CorrectCommission	0.236012	1.108650	0	1
349.107635	0.792233	city	8	1	0.497260	0.497260	0	1	0	0	CorrectCommission	1.242960	1.070286	0	1
349.899902	0.792265	city	6	1	0.512044	0.512044	0	1	0	0	CorrectCommission	1.095117	1.029725	0	1
350.692169	0.792265	city	1	1	0.500757	0.500757	0	1	0	0	CorrectCommission	1.207988	0.987489	0	1
351.484467	0.792376	mountain	9	0	0.000000	0.496824	1	0	0	0	CorrectOmission	1.247317	0.943835	0	1
352.276794	0.792263	city	2	1	0.559447	0.559447	0	1	0	0	CorrectCommission	0.621065	0.898916	0	1
353.069000	0.792159	city	9	1	0.747824	0.747824	0	1	0	0	CorrectCommission	1.262801	0.852949	0	1
353.861267	0.792371	city	5	1	0.499927	0.499927	0	1	0	0	CorrectCommission	1.216287	0.806284	0	1
354.653534	0.792158	city	8	1	0.645689	0.645689	0	1	0	0	CorrectCommission	0.241402	0.759526	1	1
355.445862	0.792481	city	9	1	0.605773	0.605773	0	1	0	0	CorrectCommission	0.157783	0.713646	1	1
356.238220	0.792263	city	5	1	0.555130	0.555130	0	1	0	0	CorrectCommission	0.664235	0.669836	1	1
357.030396	0.792047	city	6	1	0.744556	0.744556	0	1	0	0	CorrectCommission	1.230123	0.629554	1	1
357.822571	0.792318	city	9	1	0.695245	0.695245	0	1	0	0	CorrectCommission	0.736990	0.594440	1	1
358.614899	0.792321	city	7	1	0.652208	0.652208	0	1	0	0	CorrectCommission	0.306591	0.566263	1	1
359.407135	0.792160	mountain	5	0	0.000000	0.639992	1	0	0	0	CorrectOmission	0.184424	0.546794	1	1
360.199310	0.792231	city	2	1	0.646413	0.646413	0	1	0	0	CorrectCommission	0.248639	0.537667	1	1
360.991608	0.792324	city	4	1	0.659287	0.659287	0	1	0	0	CorrectCommission	0.377384	0.540250	1	1
361.783875	0.792237	city	1	1	0.601345	0.601345	0	1	0	0	CorrectCommission	0.202062	0.555476	1	1
362.576172	0.792326	mountain	1	0	0.000000	0.604558	1	0	0	0	CorrectOmission	0.169932	0.583663	1	1
363.368530	0.792420	city	4	1	0.596412	0.596412	0	1	0	0	CorrectCommission	0.251395	0.624404	1	1
364.160889	0.792266	city	2	1	0.504393	0.504393	0	1	0	0	CorrectCommission	1.171624	0.676408	1	1
364.953033	0.792048	city	10	1	0.553461	0.553461	0	1	0	0	CorrectCommission	0.680925	0.737411	1	0
365.745178	0.792267	city	2	1	0.546734	0.546734	0	1	0	0	CorrectCommission	0.748202	0.804245	0	0
366.537567	0.792479	city	4	1	0.654526	0.654526	0	1	0	0	CorrectCommission	0.329773	0.872842	0	0
367.329834	0.792050	city	8	1	0.603694	0.603694	0	1	0	0	CorrectCommission	0.178570	0.938520	0	0
368.122101	0.792480	city	10	1	0.507116	0.507116	0	1	0	0	CorrectCommission	1.144393	0.996310	0	0
368.914429	0.792162	city	2	1	0.497009	0.497009	0	1	0	0	CorrectCommission	1.245468	1.041449	0	0
369.706573	0.792166	city	3	1	0.546613	0.546613	0	1	0	0	CorrectCommission	0.749402	1.069974	0	0
370.498810	0.792286	city	9	1	1.041888	1.041888	0	1	0	0	CorrectCommission	4.203578	1.079234	0	0
371.291077	0.792285	city	5	0	0.000000	0.809916	0	0	0	1	OmissionError	1.883753	1.068254	0	0
372.083344	0.792208	city	6	1	0.447762	0.447762	0	1	0	0	CorrectCommission	1.737964	1.038148	0	0
372.875671	0.792481	city	7	1	0.552487	0.552487	0	1	0	0	CorrectCommission	0.690661	0.991835	0	0
373.667938	0.792046	city	6	1	0.548816	0.548816	0	1	0	0	CorrectCommission	0.727377	0.933793	0	0
374.460205	0.792482	city	5	1	0.548669	0.548669	0	1	0	0	CorrectCommission	0.728848	0.869476	0	0
375.252594	0.792265	city	2	1	0.598438	0.598438	0	1	0	0	CorrectCommission	0.231134	0.804725	0	0
376.044739	0.792049	city	6	1	0.605902	0.605902	0	1	0	0	CorrectCommission	0.156484	0.745085	1	0
376.836945	0.792369	city	1	1	0.646554	0.646554	0	1	0	0	CorrectCommission	0.250053	0.695247	1	0
377.629211	0.792160	city	3	1	0.656365	0.656365	0	1	0	0	CorrectCommission	0.348166	0.658671	1	0
378.421417	0.792275	mountain	4	1	0.596088	0.596088	0	0	1	0	CommissionError	0.254635	0.637397	1	0
379.213684	0.792251	mountain	3	1	0.546747	0.546747	0	0	1	0	CommissionError	0.748067	0.632039	1	0
380.005951	0.792265	city	7	1	0.661505	0.661505	0	1	0	0	CorrectCommission	0.399568	0.641873	1	0
380.798248	0.792329	city	5	1	0.546903	0.546903	0	1	0	0	CorrectCommission	0.746505	0.665080	1	0
381.590515	0.792202	city	6	1	0.645708	0.645708	0	1	0	0	CorrectCommission	0.241594	0.698944	1	0
382.382782	0.792313	city	4	1	0.695333	0.695333	0	1	0	0	CorrectCommission	0.737862	0.740182	1	0
383.175140	0.792434	mountain	2	0	0.000000	0.572615	1	0	0	0	CorrectOmission	0.489377	0.785137	1	0
383.967407	0.792062	city	2	1	0.501877	0.501877	0	1	0	0	CorrectCommission	1.196792	0.830100	0	0
384.759552	0.792251	city	9	1	0.707441	0.707441	0	1	0	0	CorrectCommission	0.858950	0.871531	0	0
385.551819	0.792266	city	8	1	0.604887	0.604887	0	1	0	0	CorrectCommission	0.166636	0.906331	0	0
386.344116	0.792369	city	1	1	0.763005	0.763005	0	1	0	0	CorrectCommission	1.414614	0.932089	0	0
387.136505	0.792375	city	2	1	0.942796	0.942796	0	1	0	0	CorrectCommission	3.212615	0.947242	0	0
387.928711	0.792049	city	1	1	0.748854	0.748854	0	1	0	0	CorrectCommission	1.273099	0.951094	0	0
388.720856	0.792267	mountain	2	0	0.000000	0.610335	1	0	0	0	CorrectOmission	0.112154	0.944025	0	0
389.513245	0.792479	city	10	1	0.602985	0.602985	0	1	0	0	CorrectCommission	0.185659	0.927280	0	0
390.305511	0.792048	city	2	1	0.802548	0.802548	0	1	0	0	CorrectCommission	1.810068	0.902783	0	0
391.097717	0.792372	city	3	1	0.750658	0.750658	0	1	0	0	CorrectCommission	1.291143	0.872888	0	0
391.889984	0.792175	city	10	1	0.695183	0.695183	0	1	0	0	CorrectCommission	0.736368	0.840175	0	0
392.682251	0.792356	city	1	1	0.650388	0.650388	0	1	0	0	CorrectCommission	0.288394	0.807147	0	0
393.474609	0.792373	city	8	1	0.596141	0.596141	0	1	0	0	CorrectCommission	0.254102	0.776021	1	0
394.266937	0.792266	city	5	1	0.546842	0.546842	0	1	0	0	CorrectCommission	0.747117	0.748520	1	0
395.059143	0.792156	city	2	1	0.547159	0.547159	0	1	0	0	CorrectCommission	0.743949	0.725806	1	0
395.851318	0.792154	city	10	1	0.550757	0.550757	0	1	0	0	CorrectCommission	0.707961	0.708473	1	0
396.643555	0.792375	city	1	1	0.546730	0.546730	0	1	0	0	CorrectCommission	0.748235	0.696541	1	0
397.435883	0.792264	city	2	1	0.512404	0.512404	0	1	0	0	CorrectCommission	1.091509	0.689542	1	0
398.228088	0.792154	city	8	1	0.596301	0.596301	0	1	0	0	CorrectCommission	0.252504	0.686585	1	0
399.020325	0.792306	city	9	1	0.598663	0.598663	0	1	0	0	CorrectCommission	0.228880	0.686545	1	0
399.812653	0.792335	city	3	1	0.646625	0.646625	0	1	0	0	CorrectCommission	0.250760	0.688105	1	0
400.604889	0.792156	mountain	9	1	0.645552	0.645552	0	0	1	0	CommissionError	0.240026	0.689983	1	0
401.397217	0.792481	mountain	7	0	0.000000	0.773881	1	0	0	0	CorrectOmission	1.523381	0.691077	1	0
402.189484	0.792050	city	6	1	0.843606	0.843606	0	1	0	0	CorrectCommission	2.220663	0.690569	1	0
402.981689	0.792371	city	2	1	0.666719	0.666719	0	1	0	0	CorrectCommission	0.451714	0.688096	1	0
403.774048	0.792374	mountain	1	1	0.595979	0.595979	0	0	1	0	CommissionError	0.255721	0.683783	1	0
404.566315	0.792157	city	2	1	0.553987	0.553987	0	1	0	0	CorrectCommission	0.675665	0.678137	1	0
405.358582	0.792372	city	1	1	0.596186	0.596186	0	1	0	0	CorrectCommission	0.253649	0.672033	1	0
406.150787	0.792047	city	7	1	0.645514	0.645514	0	1	0	0	CorrectCommission	0.239650	0.666591	1	0
406.942963	0.792265	city	4	1	0.546662	0.546662	0	1	0	0	CorrectCommission	0.748917	0.663049	1	0
407.735229	0.792265	city	9	1	0.546706	0.546706	0	1	0	0	CorrectCommission	0.748479	0.662610	1	0
408.527588	0.792482	city	3	1	0.460087	0.460087	0	1	0	0	CorrectCommission	1.614709	0.666404	1	0
409.319855	0.792060	city	6	1	0.596269	0.596269	0	1	0	0	CorrectCommission	0.252822	0.675393	1	0
410.112122	0.792469	city	5	1	0.596238	0.596238	0	1	0	0	CorrectCommission	0.253133	0.690312	1	0
410.904449	0.792156	city	7	1	0.556876	0.556876	0	1	0	0	CorrectCommission	0.646770	0.711514	1	0
411.696594	0.792170	city	8	1	0.603311	0.603311	0	1	0	0	CorrectCommission	0.182395	0.738915	1	0
412.488831	0.792254	city	1	1	0.555677	0.555677	0	1	0	0	CorrectCommission	0.658762	0.772034	1	0
413.281189	0.792479	city	8	1	0.652031	0.652031	0	1	0	0	CorrectCommission	0.304828	0.809915	0	0
414.073456	0.792078	city	4	1	0.794265	0.794265	0	1	0	0	CorrectCommission	1.727233	0.851275	0	0
414.865662	0.792342	city	2	1	0.657459	0.657459	0	1	0	0	CorrectCommission	0.359110	0.894561	0	0
415.657928	0.792157	mountain	6	0	0.000000	0.718526	1	0	0	0	CorrectOmission	0.969803	0.938210	0	0
416.450165	0.792319	city	9	1	0.795031	0.795031	0	1	0	0	CorrectCommission	1.734895	0.980692	0	0
417.242432	0.792212	city	1	1	0.704543	0.704543	0	1	0	0	CorrectCommission	0.829967	1.020652	0	0
418.034668	0.792267	city	5	1	0.744821	0.744821	0	1	0	0	CorrectCommission	1.232766	1.057020	0	0
418.826935	0.792260	city	6	1	0.701885	0.701885	0	1	0	0	CorrectCommission	0.803392	1.088943	0	0
419.619232	0.792373	city	2	1	0.760957	0.760957	0	1	0	0	CorrectCommission	1.394137	1.115782	0	0
420.411560	0.792267	city	6	1	0.794200	0.794200	0	1	0	0	CorrectCommission	1.726582	1.137014	0	0
421.203766	0.792158	city	9	1	0.695173	0.695173	0	1	0	0	CorrectCommission	0.736261	1.152157	0	0
421.996002	0.792314	city	4	1	0.744775	0.744775	0	1	0	0	CorrectCommission	1.232310	1.160715	0	0
422.788391	0.792429	city	6	1	0.695262	0.695262	0	1	0	0	CorrectCommission	0.737154	1.162120	0	0
423.580627	0.792046	city	2	1	0.695033	0.695033	0	1	0	0	CorrectCommission	0.734867	1.155823	0	0
424.372772	0.792267	city	6	1	0.851796	0.851796	0	1	0	0	CorrectCommission	2.302575	1.141429	0	1
425.165039	0.792284	mountain	6	0	0.000000	0.819102	1	0	0	0	CorrectOmission	1.975619	1.118777	0	1
425.957306	0.792245	city	2	1	0.699637	0.699637	0	1	0	0	CorrectCommission	0.780903	1.088189	0	1
426.749573	0.792268	city	1	1	0.596085	0.596085	0	1	0	0	CorrectCommission	0.254668	1.050637	0	1
427.541962	0.792478	city	10	1	0.863069	0.863069	0	1	0	0	CorrectCommission	2.415303	1.007771	0	1
428.334198	0.792051	city	2	1	0.698630	0.698630	0	1	0	0	CorrectCommission	0.770835	0.961853	0	1
429.126373	0.792264	mountain	9	0	0.000000	0.696192	1	0	0	0	CorrectOmission	0.746454	0.915745	0	1
429.918640	0.792273	city	8	1	0.698070	0.698070	0	1	0	0	CorrectCommission	0.765240	0.872553	0	1
430.710938	0.792301	mountain	1	1	0.546581	0.546581	0	0	1	0	CommissionError	0.749729	0.835354	0	1
431.503174	0.792216	mountain	9	0	0.000000	0.543501	1	0	0	0	CorrectOmission	0.780526	0.806776	0	1
432.295441	0.792324	city	2	1	0.596536	0.596536	0	1	0	0	CorrectCommission	0.250149	0.788695	0	1
433.087708	0.792208	city	4	1	0.613391	0.613391	0	1	0	0	CorrectCommission	0.081595	0.781898	1	1
433.879974	0.792327	city	1	1	0.659672	0.659672	0	1	0	0	CorrectCommission	0.381236	0.785916	0	1
434.672241	0.792201	city	3	1	0.695306	0.695306	0	1	0	0	CorrectCommission	0.737594	0.799035	0	1
435.464478	0.792268	city	9	1	0.650256	0.650256	0	1	0	0	CorrectCommission	0.287077	0.818446	0	1
436.256744	0.792262	city	3	1	0.696578	0.696578	0	1	0	0	CorrectCommission	0.750312	0.840641	0	1
437.049011	0.792266	city	6	1	0.748151	0.748151	0	1	0	0	CorrectCommission	1.266075	0.861868	0	1
437.841309	0.792295	city	5	1	0.744626	0.744626	0	1	0	0	CorrectCommission	1.230822	0.878677	0	1
438.633545	0.792234	city	1	1	0.697867	0.697867	0	1	0	0	CorrectCommission	0.763204	0.888486	0	1
439.425812	0.792298	city	7	1	0.942858	0.942858	0	1	0	0	CorrectCommission	3.213239	0.889936	0	1
440.218201	0.792449	city	8	1	0.744744	0.744744	0	1	0	0	CorrectCommission	1.231996	0.883017	0	1
441.010559	0.792263	city	10	1	0.646565	0.646565	0	1	0	0	CorrectCommission	0.250157	0.869166	0	1
441.802704	0.792046	mountain	2	0	0.000000	0.651324	1	0	0	0	CorrectOmission	0.297757	0.850871	0	1
442.594879	0.792292	city	4	1	0.695125	0.695125	0	1	0	0	CorrectCommission	0.735788	0.831249	0	1
443.387146	0.792238	city	6	1	0.714070	0.714070	0	1	0	0	CorrectCommission	0.925243	0.813531	0	1
444.179382	0.792265	city	5	1	0.657741	0.657741	0	1	0	0	CorrectCommission	0.361926	0.800539	0	1
444.971649	0.792274	city	3	1	0.645594	0.645594	0	1	0	0	CorrectCommission	0.240455	0.794212	0	1
445.763916	0.792258	city	10	1	0.695400	0.695400	0	1	0	0	CorrectCommission	0.738537	0.795345	0	1
446.556244	0.792373	city	9	1	0.662758	0.662758	0	1	0	0	CorrectCommission	0.412098	0.803493	0	1
447.348572	0.792264	city	4	1	0.695174	0.695174	0	1	0	0	CorrectCommission	0.736272	0.817101	0	1
448.140778	0.792158	city	1	1	0.646146	0.646146	0	1	0	0	CorrectCommission	0.245973	0.833776	0	1
448.933044	0.792370	city	10	1	0.744901	0.744901	0	1	0	0	CorrectCommission	1.233571	0.850746	0	1
449.725342	0.792263	city	1	1	0.794878	0.794878	0	1	0	0	CorrectCommission	1.733365	0.865293	0	1
450.517578	0.792158	city	9	1	0.749293	0.749293	0	1	0	0	CorrectCommission	1.277494	0.875238	0	1
451.309784	0.792269	city	8	1	0.702882	0.702882	0	1	0	0	CorrectCommission	0.813355	0.879295	0	1
452.102112	0.792369	city	10	1	0.751293	0.751293	0	1	0	0	CorrectCommission	1.297487	0.877236	0	1
452.894409	0.792266	city	2	1	0.702787	0.702787	0	1	0	0	CorrectCommission	0.812404	0.869874	0	1
453.686615	0.792154	mountain	3	0	0.000000	0.732267	1	0	0	0	CorrectOmission	1.107222	0.858886	0	1
454.478851	0.792267	city	8	1	0.753957	0.753957	0	1	0	0	CorrectCommission	1.324130	0.846416	0	1
455.271088	0.792263	mountain	4	0	0.000000	0.682079	1	0	0	0	CorrectOmission	0.605315	0.834641	0	1
456.063354	0.792264	city	10	1	0.613666	0.613666	0	1	0	0	CorrectCommission	0.078847	0.825337	0	1
456.855621	0.792264	city	1	1	0.645751	0.645751	0	1	0	0	CorrectCommission	0.242022	0.819429	0	1
457.647949	0.792376	city	8	1	0.653246	0.653246	0	1	0	0	CorrectCommission	0.316971	0.816825	0	1
458.440338	0.792373	city	10	1	0.652130	0.652130	0	1	0	0	CorrectCommission	0.305814	0.816400	0	1
459.232574	0.792101	city	2	1	0.707467	0.707467	0	1	0	0	CorrectCommission	0.859210	0.816195	0	1
460.024719	0.792216	city	4	1	0.762587	0.762587	0	1	0	0	CorrectCommission	1.410435	0.813816	0	1
460.816986	0.792291	city	9	1	0.745339	0.745339	0	1	0	0	CorrectCommission	1.237947	0.806897	0	1
461.609222	0.792235	city	6	1	0.794222	0.794222	0	1	0	0	CorrectCommission	1.726798	0.793688	0	1
462.401489	0.792263	city	3	1	0.763524	0.763524	0	1	0	0	CorrectCommission	1.419812	0.773373	1	1
463.193756	0.792282	city	1	1	0.695396	0.695396	0	1	0	0	CorrectCommission	0.738496	0.746300	1	1
463.986053	0.792301	city	3	1	0.707117	0.707117	0	1	0	0	CorrectCommission	0.855708	0.714034	1	1
464.778320	0.792215	city	4	1	0.657771	0.657771	0	1	0	0	CorrectCommission	0.362223	0.679129	1	1
465.570557	0.792260	mountain	2	0	0.000000	0.645804	1	0	0	0	CorrectOmission	0.242550	0.644829	1	1
466.362854	0.792375	city	2	1	0.653615	0.653615	0	1	0	0	CorrectCommission	0.320661	0.614646	1	1
467.155121	0.792156	city	5	1	0.663601	0.663601	0	1	0	0	CorrectCommission	0.420525	0.591952	1	1
467.947388	0.792371	mountain	3	0	0.000000	0.644912	1	0	0	0	CorrectOmission	0.233631	0.579613	1	1
468.739777	0.792374	city	1	1	0.607453	0.607453	0	1	0	0	CorrectCommission	0.140974	0.579711	1	1
469.532043	0.792156	city	6	1	0.561129	0.561129	0	1	0	0	CorrectCommission	0.604243	0.593320	1	1
470.324188	0.792159	city	3	1	0.561950	0.561950	0	1	0	0	CorrectCommission	0.596029	0.620417	1	1
471.116394	0.792263	city	6	1	0.652081	0.652081	0	1	0	0	CorrectCommission	0.305327	0.659846	1	1
471.908661	0.792264	city	3	1	0.546745	0.546745	0	1	0	0	CorrectCommission	0.748083	0.709358	1	1
472.700928	0.792268	city	7	1	0.557932	0.557932	0	1	0	0	CorrectCommission	0.636210	0.765722	1	1
473.493195	0.792264	city	5	1	0.655025	0.655025	0	1	0	0	CorrectCommission	0.334767	0.824923	0	1
474.285461	0.792260	city	8	1	0.655683	0.655683	0	1	0	0	CorrectCommission	0.341343	0.882456	0	1
475.077728	0.792301	city	6	1	0.744898	0.744898	0	1	0	0	CorrectCommission	1.233538	0.933676	0	1
475.870117	0.792447	city	3	1	0.661455	0.661455	0	1	0	0	CorrectCommission	0.399064	0.974233	0	1
476.662354	0.792058	city	7	1	0.893252	0.893252	0	1	0	0	CorrectCommission	2.717152	1.000563	0	1
477.454529	0.792260	city	8	1	0.893312	0.893312	0	1	0	0	CorrectCommission	2.717748	1.010179	0	1
478.246826	0.792368	city	4	1	0.750664	0.750664	0	1	0	0	CorrectCommission	1.291205	1.002035	0	1
479.039215	0.792373	mountain	4	0	0.000000	0.749001	1	0	0	0	CorrectOmission	1.274568	0.976528	0	1
479.831421	0.792051	city	2	1	0.749881	0.749881	0	1	0	0	CorrectCommission	1.283373	0.935335	0	1
480.623688	0.792479	city	8	1	0.614866	0.614866	0	1	0	0	CorrectCommission	0.066843	0.881116	0	1
481.416046	0.792264	mountain	5	0	0.000000	0.661009	1	0	0	0	CorrectOmission	0.394610	0.817070	0	1
482.208221	0.792049	city	7	1	0.700820	0.700820	0	1	0	0	CorrectCommission	0.792736	0.746451	1	1
483.000427	0.792372	city	8	1	0.546808	0.546808	0	1	0	0	CorrectCommission	0.747458	0.672222	1	1
483.792725	0.792211	city	6	1	0.562971	0.562971	0	1	0	0	CorrectCommission	0.585818	0.596707	1	1
484.584930	0.792210	city	9	1	0.596164	0.596164	0	1	0	0	CorrectCommission	0.253874	0.521474	1	1
485.377167	0.792268	city	10	1	0.546711	0.546711	0	1	0	0	CorrectCommission	0.748426	0.447302	1	1
486.169495	0.792371	city	7	1	0.647421	0.647421	0	1	0	0	CorrectCommission	0.258726	0.374258	1	1
486.961792	0.792265	city	3	1	0.651740	0.651740	0	1	0	0	CorrectCommission	0.301915	0.301915	1	1
