onset	duration	trial_type	image_type	Press	ReactionTime	ReactionTime_Interpolated	CorrectOmission	CorrectCommission	CommissionError	OmissionError	response_type	nonsmoothVarianceTimeCourse	VarianceTimeCourse	In_the_Zone	Reward_trial
8.433737	0.792265	city	10	1	0.605588	0.605588	0	1	0	0	CorrectCommission	0.912266	0.912266	0	0
9.226027	0.792315	mountain	8	1	0.546762	0.546762	0	0	1	0	CommissionError	1.687090	0.872526	0	0
10.018296	0.792225	city	8	1	0.695239	0.695239	0	1	0	0	CorrectCommission	0.268562	0.832159	0	0
10.810537	0.792257	mountain	3	0	0.000000	0.685246	1	0	0	0	CorrectOmission	0.136947	0.790757	0	0
11.602798	0.792264	city	1	1	0.606017	0.606017	0	1	0	0	CorrectCommission	0.906617	0.748210	1	0
12.395171	0.792483	city	4	1	0.546784	0.546784	0	1	0	0	CorrectCommission	1.686806	0.704856	1	0
13.187437	0.792049	city	5	1	0.596205	0.596205	0	1	0	0	CorrectCommission	1.035857	0.661537	1	0
13.979593	0.792265	mountain	9	0	0.000000	0.631222	1	0	0	0	CorrectOmission	0.574637	0.619572	1	0
14.771856	0.792261	city	9	1	0.652327	0.652327	0	1	0	0	CorrectCommission	0.296647	0.580603	1	0
15.564143	0.792314	city	4	1	0.660015	0.660015	0	1	0	0	CorrectCommission	0.195388	0.546414	1	0
16.356451	0.792300	city	1	1	0.695270	0.695270	0	1	0	0	CorrectCommission	0.268977	0.518680	1	0
17.148691	0.792183	mountain	9	0	0.000000	0.675638	1	0	0	0	CorrectOmission	0.010395	0.498720	1	0
17.940914	0.792262	city	2	1	0.645822	0.645822	0	1	0	0	CorrectCommission	0.382323	0.487322	1	0
18.733177	0.792265	city	5	1	0.650526	0.650526	0	1	0	0	CorrectCommission	0.320369	0.484601	1	0
19.525454	0.792286	city	3	1	0.648815	0.648815	0	1	0	0	CorrectCommission	0.342909	0.489988	1	0
20.317719	0.792243	city	8	1	0.695276	0.695276	0	1	0	0	CorrectCommission	0.269055	0.502285	1	0
21.109974	0.792270	city	10	1	0.603758	0.603758	0	1	0	0	CorrectCommission	0.936372	0.519798	1	0
21.902250	0.792281	city	2	1	0.657763	0.657763	0	1	0	0	CorrectCommission	0.225043	0.540513	1	0
22.694513	0.792245	city	3	1	0.695284	0.695284	0	1	0	0	CorrectCommission	0.269152	0.562316	1	0
23.486769	0.792269	city	8	1	0.596250	0.596250	0	1	0	0	CorrectCommission	1.035262	0.583142	1	0
24.279036	0.792264	city	5	1	0.596339	0.596339	0	1	0	0	CorrectCommission	1.034094	0.601147	1	0
25.071354	0.792370	city	2	1	0.598913	0.598913	0	1	0	0	CorrectCommission	1.000196	0.614881	1	0
25.863651	0.792227	city	4	1	0.645991	0.645991	0	1	0	0	CorrectCommission	0.380101	0.623292	1	0
26.655861	0.792194	city	5	1	0.661783	0.661783	0	1	0	0	CorrectCommission	0.172094	0.625771	1	0
27.448092	0.792265	city	2	1	0.599588	0.599588	0	1	0	0	CorrectCommission	0.991301	0.622167	1	0
28.240463	0.792482	city	1	1	0.608266	0.608266	0	1	0	0	CorrectCommission	0.876995	0.612710	1	0
29.032784	0.792156	mountain	9	1	0.608073	0.608073	0	0	1	0	CommissionError	0.879536	0.598040	1	0
29.824993	0.792265	city	1	1	0.695235	0.695235	0	1	0	0	CorrectCommission	0.268515	0.579094	1	0
30.617313	0.792374	city	8	1	0.611527	0.611527	0	1	0	0	CorrectCommission	0.834039	0.557135	1	0
31.409634	0.792265	city	3	1	0.612397	0.612397	0	1	0	0	CorrectCommission	0.822584	0.533621	1	0
32.201897	0.792264	city	9	1	0.695083	0.695083	0	1	0	0	CorrectCommission	0.266513	0.510166	1	0
32.994053	0.792050	city	8	1	0.695035	0.695035	0	1	0	0	CorrectCommission	0.265883	0.488433	1	0
33.786209	0.792261	city	9	1	0.645791	0.645791	0	1	0	0	CorrectCommission	0.382739	0.469989	1	0
34.578472	0.792266	city	5	1	0.646336	0.646336	0	1	0	0	CorrectCommission	0.375555	0.456191	1	0
35.370846	0.792482	city	9	1	0.645947	0.645947	0	1	0	0	CorrectCommission	0.380684	0.448067	1	0
36.163166	0.792156	city	1	1	0.652822	0.652822	0	1	0	0	CorrectCommission	0.290125	0.446213	1	0
36.955376	0.792263	city	7	1	0.698842	0.698842	0	1	0	0	CorrectCommission	0.316016	0.450712	1	0
37.747585	0.792157	city	3	1	0.695522	0.695522	0	1	0	0	CorrectCommission	0.272292	0.461139	1	0
38.539852	0.792373	city	5	1	0.659826	0.659826	0	1	0	0	CorrectCommission	0.197882	0.476563	1	0
39.332119	0.792164	city	1	1	0.695246	0.695246	0	1	0	0	CorrectCommission	0.268660	0.495689	1	0
40.124386	0.792366	city	8	1	0.744914	0.744914	0	1	0	0	CorrectCommission	0.922856	0.517027	1	0
40.916645	0.792158	mountain	5	0	0.000000	0.711875	1	0	0	0	CorrectOmission	0.487691	0.539033	1	0
41.709007	0.792563	city	9	1	0.645761	0.645761	0	1	0	0	CorrectCommission	0.383133	0.560390	1	0
42.501274	0.791968	city	1	1	0.596201	0.596201	0	1	0	0	CorrectCommission	1.035911	0.580140	1	0
43.293495	0.792479	mountain	6	0	0.000000	0.705682	1	0	0	0	CorrectOmission	0.406113	0.597844	1	0
44.085758	0.792046	city	3	1	0.797584	0.797584	0	1	0	0	CorrectCommission	1.616604	0.613665	1	0
44.877914	0.792267	city	9	1	0.695289	0.695289	0	1	0	0	CorrectCommission	0.269228	0.628223	1	0
45.670181	0.792265	city	5	1	0.600526	0.600526	0	1	0	0	CorrectCommission	0.978947	0.642551	1	0
46.462448	0.792266	city	3	1	0.649581	0.649581	0	1	0	0	CorrectCommission	0.332815	0.657799	1	0
47.254711	0.792264	city	5	1	0.695425	0.695425	0	1	0	0	CorrectCommission	0.271013	0.675080	1	0
48.047028	0.792372	city	10	1	0.704710	0.704710	0	1	0	0	CorrectCommission	0.393307	0.695226	1	0
48.839294	0.792157	city	8	1	0.695321	0.695321	0	1	0	0	CorrectCommission	0.269641	0.718675	1	0
49.631531	0.792318	city	1	1	0.649743	0.649743	0	1	0	0	CorrectCommission	0.330687	0.745488	1	0
50.423904	0.792427	city	6	1	0.600384	0.600384	0	1	0	0	CorrectCommission	0.980812	0.775394	0	0
51.216194	0.792156	city	10	1	0.557217	0.557217	0	1	0	0	CorrectCommission	1.549383	0.807973	0	0
52.008350	0.792156	city	7	1	0.596594	0.596594	0	1	0	0	CorrectCommission	1.030733	0.842875	0	0
52.800575	0.792294	city	3	1	0.565126	0.565126	0	1	0	0	CorrectCommission	1.445209	0.880000	0	0
53.592838	0.792233	city	6	1	0.645654	0.645654	0	1	0	0	CorrectCommission	0.384548	0.919531	0	0
54.385094	0.792271	city	9	1	0.663411	0.663411	0	1	0	0	CorrectCommission	0.150653	0.961974	0	0
55.177364	0.792276	city	7	1	0.806381	0.806381	0	1	0	0	CorrectCommission	1.732473	1.007957	0	0
55.969738	0.792467	city	2	1	0.604301	0.604301	0	1	0	0	CorrectCommission	0.929226	1.057993	0	0
56.761997	0.792051	city	10	1	0.605533	0.605533	0	1	0	0	CorrectCommission	0.912988	1.112286	0	0
57.554207	0.792369	city	6	1	0.659554	0.659554	0	1	0	0	CorrectCommission	0.201455	1.170421	0	0
58.346478	0.792176	city	5	1	0.596131	0.596131	0	1	0	0	CorrectCommission	1.036834	1.231211	0	0
59.138744	0.792354	city	3	1	0.501503	0.501503	0	1	0	0	CorrectCommission	2.283223	1.292565	0	0
59.931000	0.792159	city	10	1	0.546664	0.546664	0	1	0	0	CorrectCommission	1.688391	1.351516	0	0
60.723225	0.792291	city	8	1	0.609969	0.609969	0	1	0	0	CorrectCommission	0.854567	1.404463	0	0
61.515503	0.792267	mountain	2	0	0.000000	0.734688	1	0	0	0	CorrectOmission	0.788162	1.447417	0	0
62.307861	0.792452	city	5	1	0.754012	0.754012	0	1	0	0	CorrectCommission	1.042693	1.476464	0	0
63.100113	0.792046	city	3	1	0.501135	0.501135	0	1	0	0	CorrectCommission	2.288074	1.488215	0	0
63.892269	0.792266	city	4	1	0.449943	0.449943	0	1	0	0	CorrectCommission	2.962345	1.480340	0	0
64.684639	0.792480	city	1	1	0.401777	0.401777	0	1	0	0	CorrectCommission	3.596756	1.451958	0	0
65.476929	0.792090	city	4	1	0.547102	0.547102	0	1	0	0	CorrectCommission	1.682619	1.403863	0	0
66.269135	0.792330	city	6	1	0.596350	0.596350	0	1	0	0	CorrectCommission	1.033948	1.338588	0	0
67.061386	0.792171	city	2	1	0.597229	0.597229	0	1	0	0	CorrectCommission	1.022371	1.260113	0	0
67.853600	0.792251	city	10	1	0.596219	0.596219	0	1	0	0	CorrectCommission	1.035668	1.173452	0	1
68.645966	0.792481	city	8	1	0.649728	0.649728	0	1	0	0	CorrectCommission	0.330879	1.084121	0	1
69.438232	0.792049	city	9	1	0.596043	0.596043	0	1	0	0	CorrectCommission	1.037998	0.997581	0	1
70.230385	0.792266	city	6	1	0.611012	0.611012	0	1	0	0	CorrectCommission	0.840823	0.918656	0	1
71.022705	0.792371	city	5	1	0.613931	0.613931	0	1	0	0	CorrectCommission	0.802385	0.851136	0	1
71.815079	0.792373	city	2	1	0.695376	0.695376	0	1	0	0	CorrectCommission	0.270376	0.797468	0	1
72.607399	0.792266	city	9	1	0.704444	0.704444	0	1	0	0	CorrectCommission	0.389813	0.758578	1	1
73.399597	0.792134	city	3	1	0.695221	0.695221	0	1	0	0	CorrectCommission	0.268329	0.733900	1	1
74.191750	0.792175	city	9	1	0.701851	0.701851	0	1	0	0	CorrectCommission	0.355659	0.721516	1	1
74.984024	0.792372	city	5	1	0.645779	0.645779	0	1	0	0	CorrectCommission	0.382899	0.718460	1	1
75.776344	0.792266	city	3	1	0.655051	0.655051	0	1	0	0	CorrectCommission	0.260768	0.721115	1	1
76.568558	0.792166	city	7	1	0.597580	0.597580	0	1	0	0	CorrectCommission	1.017752	0.725667	1	1
77.360786	0.792287	city	1	1	0.551765	0.551765	0	1	0	0	CorrectCommission	1.621198	0.728604	1	1
78.153046	0.792232	city	4	1	0.596408	0.596408	0	1	0	0	CorrectCommission	1.033186	0.727140	1	1
78.945297	0.792268	city	8	1	0.547187	0.547187	0	1	0	0	CorrectCommission	1.681503	0.719522	1	1
79.737564	0.792268	city	9	1	0.596395	0.596395	0	1	0	0	CorrectCommission	1.033356	0.705101	1	1
80.529884	0.792367	city	7	1	0.646662	0.646662	0	1	0	0	CorrectCommission	0.371261	0.684300	1	1
81.322250	0.792376	city	4	1	0.703075	0.703075	0	1	0	0	CorrectCommission	0.371782	0.658423	1	1
82.114571	0.792264	city	5	1	0.645522	0.645522	0	1	0	0	CorrectCommission	0.386279	0.629269	1	1
82.906784	0.792156	city	6	1	0.645556	0.645556	0	1	0	0	CorrectCommission	0.385832	0.598873	1	1
83.698990	0.792262	city	8	1	0.645665	0.645665	0	1	0	0	CorrectCommission	0.384397	0.569174	1	1
84.491203	0.792159	city	9	1	0.645822	0.645822	0	1	0	0	CorrectCommission	0.382328	0.541790	1	1
85.283417	0.792264	city	1	1	0.596740	0.596740	0	1	0	0	CorrectCommission	1.028815	0.517891	1	1
86.075790	0.792481	city	4	1	0.695349	0.695349	0	1	0	0	CorrectCommission	0.270008	0.498163	1	1
86.868050	0.792050	city	8	1	0.645696	0.645696	0	1	0	0	CorrectCommission	0.383993	0.482869	1	1
87.660248	0.792333	city	5	1	0.650186	0.650186	0	1	0	0	CorrectCommission	0.324851	0.471891	1	1
88.452507	0.792194	city	10	1	0.649698	0.649698	0	1	0	0	CorrectCommission	0.331279	0.464854	1	1
89.244736	0.792267	city	8	1	0.645743	0.645743	0	1	0	0	CorrectCommission	0.383375	0.461198	1	1
90.037041	0.792336	city	4	1	0.645769	0.645769	0	1	0	0	CorrectCommission	0.383032	0.460271	1	1
90.829308	0.792198	city	10	1	0.602723	0.602723	0	1	0	0	CorrectCommission	0.950005	0.461375	1	1
91.621536	0.792259	city	5	1	0.645806	0.645806	0	1	0	0	CorrectCommission	0.382537	0.463799	1	1
92.413795	0.792265	city	9	1	0.645781	0.645781	0	1	0	0	CorrectCommission	0.382871	0.466890	1	1
93.206100	0.792339	city	8	1	0.657448	0.657448	0	1	0	0	CorrectCommission	0.229200	0.470039	1	1
93.998383	0.792226	city	2	1	0.649546	0.649546	0	1	0	0	CorrectCommission	0.333278	0.472746	1	1
94.790611	0.792232	city	8	1	0.647649	0.647649	0	1	0	0	CorrectCommission	0.358261	0.474651	1	1
95.582855	0.792262	city	2	1	0.697221	0.697221	0	1	0	0	CorrectCommission	0.294668	0.475643	1	1
96.375122	0.792265	city	3	1	0.808544	0.808544	0	1	0	0	CorrectCommission	1.760963	0.475874	1	1
97.167389	0.792269	city	4	1	0.705396	0.705396	0	1	0	0	CorrectCommission	0.402343	0.475801	1	1
97.959648	0.792260	city	3	1	0.695376	0.695376	0	1	0	0	CorrectCommission	0.270374	0.476237	1	1
98.751968	0.792374	city	8	1	0.652407	0.652407	0	1	0	0	CorrectCommission	0.295602	0.478216	1	1
99.544235	0.792156	city	5	1	0.645678	0.645678	0	1	0	0	CorrectCommission	0.384223	0.482918	1	1
100.336441	0.792266	city	10	1	0.645822	0.645822	0	1	0	0	CorrectCommission	0.382333	0.491491	1	1
101.128738	0.792326	city	3	1	0.664093	0.664093	0	1	0	0	CorrectCommission	0.141670	0.504932	1	1
101.921005	0.792202	mountain	3	0	0.000000	0.699258	1	0	0	0	CorrectOmission	0.321504	0.523952	1	1
102.713295	0.792373	city	3	1	0.695316	0.695316	0	1	0	0	CorrectCommission	0.269578	0.548859	1	1
103.505608	0.792265	city	5	1	0.596266	0.596266	0	1	0	0	CorrectCommission	1.035055	0.579537	1	1
104.297852	0.792218	city	6	1	0.655738	0.655738	0	1	0	0	CorrectCommission	0.251722	0.615388	1	1
105.090065	0.792202	city	4	1	0.596206	0.596206	0	1	0	0	CorrectCommission	1.035846	0.655410	1	1
105.882301	0.792278	mountain	7	0	0.000000	0.642739	1	0	0	0	CorrectOmission	0.422935	0.698173	1	1
106.674568	0.792251	mountain	6	0	0.000000	0.718041	1	0	0	0	CorrectOmission	0.568901	0.741939	1	1
107.466850	0.792318	city	4	1	0.744815	0.744815	0	1	0	0	CorrectCommission	0.921549	0.784753	0	1
108.259171	0.792320	city	2	1	0.645763	0.645763	0	1	0	0	CorrectCommission	0.383101	0.824558	0	1
109.051407	0.792159	city	10	1	0.596096	0.596096	0	1	0	0	CorrectCommission	1.037291	0.859407	0	1
109.843620	0.792263	city	9	1	0.596244	0.596244	0	1	0	0	CorrectCommission	1.035345	0.887594	0	1
110.635941	0.792374	city	8	1	0.546646	0.546646	0	1	0	0	CorrectCommission	1.688625	0.907887	0	1
111.428207	0.792155	city	9	1	0.602993	0.602993	0	1	0	0	CorrectCommission	0.946454	0.919650	0	1
112.220421	0.792285	city	5	1	0.546779	0.546779	0	1	0	0	CorrectCommission	1.686875	0.922928	0	1
113.012688	0.792246	city	8	1	0.615971	0.615971	0	1	0	0	CorrectCommission	0.775515	0.918449	0	1
113.804955	0.792279	city	1	1	0.610371	0.610371	0	1	0	0	CorrectCommission	0.849271	0.907468	0	1
114.597267	0.792358	city	10	1	0.794982	0.794982	0	1	0	0	CorrectCommission	1.582323	0.891641	0	1
115.389526	0.792156	city	3	1	0.695169	0.695169	0	1	0	0	CorrectCommission	0.267638	0.872800	0	1
116.181763	0.792317	city	5	1	0.695315	0.695315	0	1	0	0	CorrectCommission	0.269569	0.852770	0	1
116.974083	0.792321	city	8	1	0.645858	0.645858	0	1	0	0	CorrectCommission	0.381856	0.833188	0	1
117.766319	0.792157	city	3	1	0.601058	0.601058	0	1	0	0	CorrectCommission	0.971942	0.815409	0	1
118.558640	0.792482	city	7	1	0.599755	0.599755	0	1	0	0	CorrectCommission	0.989100	0.800519	0	1
119.350906	0.792049	city	4	1	0.599174	0.599174	0	1	0	0	CorrectCommission	0.996745	0.789368	0	1
120.143173	0.792481	city	9	1	0.596650	0.596650	0	1	0	0	CorrectCommission	1.030003	0.782624	0	1
120.935432	0.792046	city	3	1	0.600608	0.600608	0	1	0	0	CorrectCommission	0.977862	0.780764	0	1
121.727592	0.792265	mountain	6	0	0.000000	0.679336	1	0	0	0	CorrectOmission	0.059094	0.784097	0	1
122.519859	0.792265	city	7	1	0.752206	0.752206	0	1	0	0	CorrectCommission	1.018898	0.792616	0	1
123.312119	0.792266	mountain	4	0	0.000000	0.738592	1	0	0	0	CorrectOmission	0.839588	0.805892	0	1
124.104385	0.792261	city	4	1	0.695503	0.695503	0	1	0	0	CorrectCommission	0.272037	0.822988	0	1
124.896652	0.792268	mountain	10	0	0.000000	0.679945	1	0	0	0	CorrectOmission	0.067122	0.842415	0	1
125.688919	0.792265	city	8	1	0.645768	0.645768	0	1	0	0	CorrectCommission	0.383039	0.862198	0	1
126.481232	0.792369	city	3	1	0.546820	0.546820	0	1	0	0	CorrectCommission	1.686325	0.880041	0	1
127.273605	0.792375	mountain	6	0	0.000000	0.736364	1	0	0	0	CorrectOmission	0.810245	0.893600	0	0
128.065811	0.792050	city	9	1	0.893044	0.893044	0	1	0	0	CorrectCommission	2.873945	0.900849	0	0
128.857986	0.792295	city	2	1	0.695504	0.695504	0	1	0	0	CorrectCommission	0.272054	0.900282	0	0
129.650253	0.792235	city	9	1	0.645771	0.645771	0	1	0	0	CorrectCommission	0.383004	0.891288	0	0
130.442566	0.792372	city	7	1	0.546596	0.546596	0	1	0	0	CorrectCommission	1.689278	0.874165	0	0
131.234818	0.792156	city	6	1	0.602928	0.602928	0	1	0	0	CorrectCommission	0.947304	0.850066	0	0
132.027145	0.792481	city	4	1	0.550759	0.550759	0	1	0	0	CorrectCommission	1.634453	0.820919	0	0
132.819412	0.792051	city	9	1	0.645803	0.645803	0	1	0	0	CorrectCommission	0.382578	0.789107	0	0
133.611557	0.792261	city	5	1	0.645763	0.645763	0	1	0	0	CorrectCommission	0.383111	0.757185	1	0
134.403824	0.792267	mountain	2	0	0.000000	0.670724	1	0	0	0	CorrectOmission	0.054340	0.727515	1	0
135.196152	0.792371	city	8	1	0.695594	0.695594	0	1	0	0	CorrectCommission	0.273246	0.702004	1	0
135.988464	0.792265	city	1	1	0.695284	0.695284	0	1	0	0	CorrectCommission	0.269154	0.681921	1	0
136.780670	0.792156	city	9	1	0.794192	0.794192	0	1	0	0	CorrectCommission	1.571917	0.667842	1	0
137.572891	0.792267	city	5	1	0.645784	0.645784	0	1	0	0	CorrectCommission	0.382830	0.659637	1	0
138.365143	0.792261	city	10	1	0.596242	0.596242	0	1	0	0	CorrectCommission	1.035373	0.656667	1	0
139.157471	0.792374	city	4	1	0.650659	0.650659	0	1	0	0	CorrectCommission	0.318613	0.657868	1	0
139.949738	0.792161	city	10	1	0.645945	0.645945	0	1	0	0	CorrectCommission	0.380704	0.661956	1	0
140.741943	0.792260	city	6	1	0.658950	0.658950	0	1	0	0	CorrectCommission	0.209418	0.667590	1	0
141.534210	0.792265	city	4	1	0.610242	0.610242	0	1	0	0	CorrectCommission	0.850964	0.673553	1	0
142.326523	0.792373	city	9	1	0.601384	0.601384	0	1	0	0	CorrectCommission	0.967644	0.678849	1	0
143.118790	0.792158	mountain	10	1	0.561502	0.561502	0	0	1	0	CommissionError	1.492942	0.682825	1	0
143.911011	0.792266	mountain	3	0	0.000000	0.652819	1	0	0	0	CorrectOmission	0.290172	0.685173	1	0
144.703278	0.792268	city	2	1	0.704747	0.704747	0	1	0	0	CorrectCommission	0.393798	0.685968	1	0
145.495529	0.792257	city	8	1	0.546701	0.546701	0	1	0	0	CorrectCommission	1.687904	0.685475	1	0
146.287796	0.792267	city	1	1	0.695801	0.695801	0	1	0	0	CorrectCommission	0.275972	0.684092	1	0
147.080093	0.792342	city	8	1	0.645776	0.645776	0	1	0	0	CorrectCommission	0.382933	0.682256	1	0
147.872360	0.792187	mountain	3	0	0.000000	0.653265	1	0	0	0	CorrectOmission	0.284300	0.680185	1	0
148.664642	0.792373	city	7	1	0.695349	0.695349	0	1	0	0	CorrectCommission	0.270019	0.677905	1	0
149.456909	0.792159	mountain	3	0	0.000000	0.749114	1	0	0	0	CorrectOmission	0.978172	0.675230	1	0
150.249176	0.792370	city	6	1	0.744788	0.744788	0	1	0	0	CorrectCommission	0.921200	0.671838	1	0
151.041443	0.792155	city	1	1	0.612604	0.612604	0	1	0	0	CorrectCommission	0.819860	0.667440	1	0
151.833710	0.792376	city	10	1	0.744982	0.744982	0	1	0	0	CorrectCommission	0.923752	0.661939	1	0
152.625961	0.792155	city	1	1	0.645882	0.645882	0	1	0	0	CorrectCommission	0.381537	0.655542	1	0
153.418182	0.792281	city	7	1	0.596270	0.596270	0	1	0	0	CorrectCommission	1.035002	0.648886	1	0
154.210480	0.792296	city	3	1	0.596279	0.596279	0	1	0	0	CorrectCommission	1.034886	0.642950	1	0
155.002792	0.792328	city	7	1	0.698498	0.698498	0	1	0	0	CorrectCommission	0.311487	0.639065	1	0
155.795090	0.792263	city	4	1	0.646471	0.646471	0	1	0	0	CorrectCommission	0.373777	0.638696	1	0
156.587341	0.792270	city	3	1	0.645832	0.645832	0	1	0	0	CorrectCommission	0.382197	0.643235	1	0
157.379608	0.792263	mountain	9	0	0.000000	0.658319	1	0	0	0	CorrectOmission	0.217719	0.653791	1	0
158.171860	0.792218	city	7	1	0.645690	0.645690	0	1	0	0	CorrectCommission	0.384069	0.671005	1	0
158.964066	0.792199	city	5	1	0.569700	0.569700	0	1	0	0	CorrectCommission	1.384970	0.694934	1	0
159.756302	0.792268	city	3	1	0.656337	0.656337	0	1	0	0	CorrectCommission	0.243838	0.725007	1	0
160.548676	0.792479	city	6	1	0.695438	0.695438	0	1	0	0	CorrectCommission	0.271182	0.760140	1	0
161.341064	0.792319	city	1	1	0.707005	0.707005	0	1	0	0	CorrectCommission	0.423541	0.798836	0	0
162.133255	0.792047	city	4	1	0.794046	0.794046	0	1	0	0	CorrectCommission	1.570000	0.839393	0	0
162.925385	0.792215	city	5	1	0.744772	0.744772	0	1	0	0	CorrectCommission	0.920981	0.880057	0	0
163.717728	0.792478	city	3	1	0.616397	0.616397	0	1	0	0	CorrectCommission	0.769901	0.919339	0	0
164.509995	0.792056	city	6	1	0.546526	0.546526	0	1	0	0	CorrectCommission	1.690198	0.956058	0	0
165.302155	0.792256	city	7	1	0.616008	0.616008	0	1	0	0	CorrectCommission	0.775030	0.989410	0	0
166.094467	0.792373	city	5	1	0.596286	0.596286	0	1	0	0	CorrectCommission	1.034798	1.018994	0	0
166.886749	0.792175	city	3	1	0.560749	0.560749	0	1	0	0	CorrectCommission	1.502862	1.044626	0	0
167.679062	0.792464	city	4	1	0.596240	0.596240	0	1	0	0	CorrectCommission	1.035403	1.066228	0	0
168.471313	0.792047	city	9	1	0.596010	0.596010	0	1	0	0	CorrectCommission	1.038427	1.083660	0	0
169.263474	0.792279	city	4	1	0.645763	0.645763	0	1	0	0	CorrectCommission	0.383101	1.096565	0	0
170.055740	0.792253	city	8	1	0.601572	0.601572	0	1	0	0	CorrectCommission	0.965163	1.104364	0	0
170.848114	0.792479	city	3	1	0.596239	0.596239	0	1	0	0	CorrectCommission	1.035409	1.106261	0	0
171.640381	0.792047	city	7	1	0.551355	0.551355	0	1	0	0	CorrectCommission	1.626600	1.101493	0	0
172.432556	0.792320	mountain	4	0	0.000000	0.533284	1	0	0	0	CorrectOmission	1.864622	1.089522	0	0
173.224884	0.792319	mountain	1	1	0.596224	0.596224	0	0	1	0	CommissionError	1.035604	1.070312	0	0
174.017227	0.792372	city	2	1	0.794375	0.794375	0	1	0	0	CorrectCommission	1.574330	1.044554	0	0
174.809494	0.792157	city	4	1	0.755142	0.755142	0	1	0	0	CorrectCommission	1.057575	1.013694	0	0
175.601639	0.792156	city	8	1	0.598937	0.598937	0	1	0	0	CorrectCommission	0.999877	0.979949	0	0
176.393860	0.792265	city	4	1	0.598328	0.598328	0	1	0	0	CorrectCommission	1.007894	0.946056	0	0
177.186157	0.792324	city	7	1	0.599290	0.599290	0	1	0	0	CorrectCommission	0.995227	0.914998	0	0
177.978409	0.792205	mountain	6	0	0.000000	0.687551	1	0	0	0	CorrectOmission	0.167303	0.889561	0	0
178.770645	0.792268	city	5	1	0.744846	0.744846	0	1	0	0	CorrectCommission	0.921960	0.871956	0	0
179.562927	0.792273	city	7	1	0.652908	0.652908	0	1	0	0	CorrectCommission	0.288996	0.863393	0	0
180.355179	0.792253	city	5	1	0.695295	0.695295	0	1	0	0	CorrectCommission	0.269305	0.863939	0	0
181.147552	0.792482	city	2	1	0.695301	0.695301	0	1	0	0	CorrectCommission	0.269382	0.872420	0	0
181.939819	0.792050	city	1	1	0.645987	0.645987	0	1	0	0	CorrectCommission	0.380156	0.886545	0	0
182.732025	0.792370	city	2	1	0.563247	0.563247	0	1	0	0	CorrectCommission	1.469969	0.903260	0	0
183.524292	0.792159	city	10	1	0.546995	0.546995	0	1	0	0	CorrectCommission	1.684021	0.919135	0	0
184.316513	0.792277	city	1	1	0.547524	0.547524	0	1	0	0	CorrectCommission	1.677052	0.930844	0	0
185.108795	0.792278	city	7	1	0.597697	0.597697	0	1	0	0	CorrectCommission	1.016210	0.935632	0	0
185.901108	0.792345	city	6	1	0.645784	0.645784	0	1	0	0	CorrectCommission	0.382826	0.931674	0	0
186.693344	0.792155	city	5	1	0.547681	0.547681	0	1	0	0	CorrectCommission	1.674994	0.918302	0	1
187.485580	0.792302	city	1	1	0.596248	0.596248	0	1	0	0	CorrectCommission	1.035295	0.895990	0	1
188.277847	0.792231	city	5	1	0.746607	0.746607	0	1	0	0	CorrectCommission	0.945158	0.866364	0	1
189.070114	0.792308	city	9	1	0.794953	0.794953	0	1	0	0	CorrectCommission	1.581938	0.831923	0	1
189.862427	0.792328	city	4	1	0.645696	0.645696	0	1	0	0	CorrectCommission	0.383987	0.795711	0	1
190.654678	0.792166	city	5	1	0.698064	0.698064	0	1	0	0	CorrectCommission	0.305775	0.761015	1	1
191.446899	0.792256	city	1	1	0.697628	0.697628	0	1	0	0	CorrectCommission	0.300026	0.730888	1	1
192.239166	0.792280	city	3	1	0.608032	0.608032	0	1	0	0	CorrectCommission	0.880076	0.707848	1	1
193.031448	0.792311	city	8	1	0.705271	0.705271	0	1	0	0	CorrectCommission	0.400697	0.693609	1	1
193.823822	0.792417	city	5	1	0.645710	0.645710	0	1	0	0	CorrectCommission	0.383804	0.688931	1	1
194.616104	0.792157	city	9	1	0.645532	0.645532	0	1	0	0	CorrectCommission	0.386143	0.693565	1	1
195.408371	0.792373	city	7	1	0.695242	0.695242	0	1	0	0	CorrectCommission	0.268609	0.706371	1	1
196.200577	0.792051	city	10	1	0.645560	0.645560	0	1	0	0	CorrectCommission	0.385776	0.725495	1	1
196.992737	0.792262	city	1	1	0.645828	0.645828	0	1	0	0	CorrectCommission	0.382255	0.748662	1	1
197.785019	0.792296	mountain	7	0	0.000000	0.785320	1	0	0	0	CorrectOmission	1.455059	0.773466	0	1
198.577286	0.792233	city	2	1	0.845082	0.845082	0	1	0	0	CorrectCommission	2.242215	0.797618	0	1
199.369537	0.792267	city	6	1	0.606160	0.606160	0	1	0	0	CorrectCommission	0.904743	0.819160	0	1
200.161911	0.792479	city	7	1	0.645807	0.645807	0	1	0	0	CorrectCommission	0.382530	0.836565	0	1
200.954178	0.792054	mountain	5	0	0.000000	0.726785	1	0	0	0	CorrectOmission	0.684067	0.848702	0	1
201.746353	0.792295	city	9	1	0.757354	0.757354	0	1	0	0	CorrectCommission	1.086709	0.854756	0	1
202.538666	0.792336	city	2	1	0.645775	0.645775	0	1	0	0	CorrectCommission	0.382944	0.854154	0	1
203.330902	0.792157	city	10	1	0.645635	0.645635	0	1	0	0	CorrectCommission	0.384799	0.846539	0	1
204.123123	0.792265	city	6	1	0.753484	0.753484	0	1	0	0	CorrectCommission	1.035732	0.831759	0	1
204.915497	0.792482	city	1	1	0.559304	0.559304	0	1	0	0	CorrectCommission	1.521893	0.809969	0	1
205.707870	0.792265	city	2	1	0.546704	0.546704	0	1	0	0	CorrectCommission	1.687864	0.781772	0	1
206.500031	0.792048	city	7	1	0.746173	0.746173	0	1	0	0	CorrectCommission	0.939438	0.748319	1	1
207.292175	0.792261	city	2	1	0.646188	0.646188	0	1	0	0	CorrectCommission	0.377506	0.711402	1	1
208.084488	0.792346	city	8	1	0.603770	0.603770	0	1	0	0	CorrectCommission	0.936214	0.673366	1	1
208.876740	0.792183	city	1	1	0.645651	0.645651	0	1	0	0	CorrectCommission	0.384581	0.636918	1	1
209.668976	0.792269	city	7	1	0.699171	0.699171	0	1	0	0	CorrectCommission	0.320360	0.604902	1	1
210.461243	0.792265	city	3	1	0.650120	0.650120	0	1	0	0	CorrectCommission	0.325714	0.579924	1	1
211.253510	0.792261	city	10	1	0.695256	0.695256	0	1	0	0	CorrectCommission	0.268793	0.564055	1	1
212.045822	0.792373	city	5	1	0.695289	0.695289	0	1	0	0	CorrectCommission	0.269221	0.558524	1	1
212.838196	0.792374	city	2	1	0.695201	0.695201	0	1	0	0	CorrectCommission	0.268069	0.563524	1	1
213.630402	0.792051	city	5	1	0.695143	0.695143	0	1	0	0	CorrectCommission	0.267296	0.578161	1	1
214.422562	0.792264	city	8	1	0.645768	0.645768	0	1	0	0	CorrectCommission	0.383037	0.600572	1	1
215.214874	0.792348	mountain	5	0	0.000000	0.681721	1	0	0	0	CorrectOmission	0.090518	0.628132	1	1
216.007141	0.792182	city	6	1	0.744735	0.744735	0	1	0	0	CorrectCommission	0.920503	0.657828	1	1
216.799362	0.792260	mountain	2	0	0.000000	0.776543	1	0	0	0	CorrectOmission	1.339457	0.686649	1	1
217.591644	0.792301	city	4	1	0.751937	0.751937	0	1	0	0	CorrectCommission	1.015356	0.712013	1	1
218.384018	0.792447	city	1	1	0.645709	0.645709	0	1	0	0	CorrectCommission	0.383823	0.732091	1	1
219.176254	0.792049	city	9	1	0.546548	0.546548	0	1	0	0	CorrectCommission	1.689920	0.745984	1	1
219.968414	0.792262	city	1	1	0.565444	0.565444	0	1	0	0	CorrectCommission	1.441030	0.753707	1	1
220.760681	0.792265	city	4	1	0.597695	0.597695	0	1	0	0	CorrectCommission	1.016231	0.756108	1	1
221.553055	0.792483	city	6	1	0.645857	0.645857	0	1	0	0	CorrectCommission	0.381874	0.754552	1	1
222.345322	0.792051	city	7	1	0.665954	0.665954	0	1	0	0	CorrectCommission	0.117161	0.750556	1	1
223.137589	0.792478	mountain	1	0	0.000000	0.666859	1	0	0	0	CorrectOmission	0.105239	0.745443	1	1
223.929855	0.792052	city	9	1	0.645636	0.645636	0	1	0	0	CorrectCommission	0.384782	0.740130	1	1
224.722107	0.792479	city	7	1	0.599348	0.599348	0	1	0	0	CorrectCommission	0.994462	0.734972	1	1
225.514481	0.792263	mountain	4	0	0.000000	0.688832	1	0	0	0	CorrectOmission	0.184173	0.729817	1	1
226.306641	0.792051	city	3	1	0.794129	0.794129	0	1	0	0	CorrectCommission	1.571086	0.724214	1	1
227.098801	0.792264	mountain	9	0	0.000000	0.795279	1	0	0	0	CorrectOmission	1.586242	0.717569	1	1
227.891068	0.792266	city	9	1	0.744819	0.744819	0	1	0	0	CorrectCommission	0.921601	0.709440	1	1
228.683365	0.792321	city	2	1	0.695281	0.695281	0	1	0	0	CorrectCommission	0.269124	0.699682	1	1
229.475647	0.792269	city	10	1	0.617020	0.617020	0	1	0	0	CorrectCommission	0.761688	0.688478	1	1
230.267929	0.792269	city	8	1	0.695201	0.695201	0	1	0	0	CorrectCommission	0.268063	0.676309	1	1
231.060150	0.792197	city	6	1	0.745074	0.745074	0	1	0	0	CorrectCommission	0.924972	0.663853	1	1
231.852386	0.792266	city	7	1	0.695457	0.695457	0	1	0	0	CorrectCommission	0.271436	0.651826	1	1
232.644760	0.792480	city	6	1	0.649603	0.649603	0	1	0	0	CorrectCommission	0.332523	0.640882	1	1
233.437134	0.792265	city	8	1	0.603452	0.603452	0	1	0	0	CorrectCommission	0.940410	0.631504	1	1
234.229401	0.792265	city	2	1	0.610170	0.610170	0	1	0	0	CorrectCommission	0.851922	0.623973	1	1
235.021606	0.792157	city	3	1	0.645524	0.645524	0	1	0	0	CorrectCommission	0.386259	0.618385	1	1
235.813782	0.792201	city	2	1	0.645650	0.645650	0	1	0	0	CorrectCommission	0.384593	0.614775	1	1
236.606110	0.792436	city	8	1	0.596352	0.596352	0	1	0	0	CorrectCommission	1.033921	0.613139	1	1
237.398453	0.792265	city	7	1	0.645579	0.645579	0	1	0	0	CorrectCommission	0.385532	0.613563	1	1
238.190720	0.792266	city	8	1	0.695100	0.695100	0	1	0	0	CorrectCommission	0.266737	0.616303	1	1
238.982910	0.792106	city	1	1	0.561613	0.561613	0	1	0	0	CorrectCommission	1.491484	0.621825	1	1
239.775070	0.792216	city	10	1	0.695272	0.695272	0	1	0	0	CorrectCommission	0.268997	0.630769	1	1
240.567322	0.792300	city	8	1	0.649711	0.649711	0	1	0	0	CorrectCommission	0.331102	0.643957	1	1
241.359589	0.792219	city	5	1	0.645677	0.645677	0	1	0	0	CorrectCommission	0.384240	0.662249	1	1
242.151855	0.792323	mountain	5	0	0.000000	0.628087	1	0	0	0	CorrectOmission	0.615924	0.686416	1	1
242.944229	0.792423	city	9	1	0.607895	0.607895	0	1	0	0	CorrectCommission	0.881882	0.717023	1	1
243.736465	0.792048	city	3	1	0.596055	0.596055	0	1	0	0	CorrectCommission	1.037839	0.754241	1	1
244.528625	0.792266	mountain	2	0	0.000000	0.683342	1	0	0	0	CorrectOmission	0.111860	0.797719	0	1
245.320892	0.792263	city	8	1	0.744796	0.744796	0	1	0	0	CorrectCommission	0.921303	0.846546	0	1
246.113144	0.792265	city	9	1	0.655457	0.655457	0	1	0	0	CorrectCommission	0.255426	0.899168	0	0
246.905518	0.792481	city	7	1	0.596804	0.596804	0	1	0	0	CorrectCommission	1.027965	0.953511	0	0
247.697891	0.792265	city	1	1	0.646365	0.646365	0	1	0	0	CorrectCommission	0.375176	1.007092	0	0
248.490051	0.792047	city	8	1	0.806200	0.806200	0	1	0	0	CorrectCommission	1.730084	1.057269	0	0
249.282257	0.792372	city	1	1	0.843802	0.843802	0	1	0	0	CorrectCommission	2.225353	1.101461	0	0
250.074631	0.792374	city	5	1	0.704623	0.704623	0	1	0	0	CorrectCommission	0.392172	1.137506	0	0
250.866852	0.792051	city	9	1	0.549181	0.549181	0	1	0	0	CorrectCommission	1.655235	1.163864	0	0
251.659119	0.792479	city	1	1	0.549491	0.549491	0	1	0	0	CorrectCommission	1.651147	1.179715	0	0
252.451370	0.792050	city	5	1	0.496974	0.496974	0	1	0	0	CorrectCommission	2.342872	1.185068	0	0
253.243546	0.792295	city	4	1	0.618299	0.618299	0	1	0	0	CorrectCommission	0.744849	1.180626	0	0
254.035812	0.792234	city	1	1	0.596211	0.596211	0	1	0	0	CorrectCommission	1.035785	1.167681	0	0
254.828064	0.792276	city	7	1	0.596453	0.596453	0	1	0	0	CorrectCommission	1.032596	1.147821	0	0
255.620331	0.792251	city	8	1	0.698103	0.698103	0	1	0	0	CorrectCommission	0.306283	1.122762	0	0
256.412598	0.792298	city	9	1	0.596301	0.596301	0	1	0	0	CorrectCommission	1.034600	1.094137	0	0
257.204895	0.792263	city	10	1	0.559756	0.559756	0	1	0	0	CorrectCommission	1.515939	1.063371	0	0
257.997131	0.792256	city	6	1	0.547463	0.547463	0	1	0	0	CorrectCommission	1.677859	1.031621	0	0
258.789398	0.792272	mountain	10	1	0.547685	0.547685	0	0	1	0	CommissionError	1.674941	0.999755	0	0
259.581665	0.792234	city	5	1	0.645833	0.645833	0	1	0	0	CorrectCommission	0.382187	0.968350	0	0
260.373901	0.792265	city	10	1	0.650405	0.650405	0	1	0	0	CorrectCommission	0.321966	0.937736	0	0
261.166199	0.792330	city	5	1	0.695349	0.695349	0	1	0	0	CorrectCommission	0.270018	0.908016	0	0
261.958496	0.792220	city	4	1	0.744678	0.744678	0	1	0	0	CorrectCommission	0.919744	0.879151	0	0
262.750824	0.792463	city	9	1	0.794275	0.794275	0	1	0	0	CorrectCommission	1.573019	0.851059	0	0
263.543091	0.792050	mountain	1	0	0.000000	0.751034	1	0	0	0	CorrectOmission	1.003467	0.823757	0	0
264.335236	0.792261	city	6	1	0.658059	0.658059	0	1	0	0	CorrectCommission	0.221146	0.797487	0	0
265.127502	0.792267	city	8	1	0.558457	0.558457	0	1	0	0	CorrectCommission	1.533061	0.772831	0	0
265.919891	0.792480	city	1	1	0.695188	0.695188	0	1	0	0	CorrectCommission	0.267895	0.750648	1	0
266.712128	0.792050	city	8	1	0.744604	0.744604	0	1	0	0	CorrectCommission	0.918769	0.732153	1	0
267.504303	0.792261	city	2	1	0.760111	0.760111	0	1	0	0	CorrectCommission	1.123031	0.718718	1	0
268.296661	0.792483	city	7	1	0.645892	0.645892	0	1	0	0	CorrectCommission	0.381401	0.711636	1	0
269.088989	0.792155	city	4	1	0.645462	0.645462	0	1	0	0	CorrectCommission	0.387069	0.711947	1	0
269.881134	0.792160	city	9	1	0.662098	0.662098	0	1	0	0	CorrectCommission	0.167944	0.720142	1	0
270.673370	0.792261	city	10	1	0.655923	0.655923	0	1	0	0	CorrectCommission	0.249288	0.736099	1	0
271.465668	0.792373	mountain	6	0	0.000000	0.647512	1	0	0	0	CorrectOmission	0.360071	0.758981	1	0
272.257935	0.792162	mountain	2	0	0.000000	0.632290	1	0	0	0	CorrectOmission	0.560560	0.787314	0	0
273.050201	0.792368	city	3	1	0.605683	0.605683	0	1	0	0	CorrectCommission	0.911016	0.819207	0	0
273.842468	0.792159	city	9	1	0.563115	0.563115	0	1	0	0	CorrectCommission	1.471705	0.852577	0	0
274.634674	0.792262	city	5	1	0.563597	0.563597	0	1	0	0	CorrectCommission	1.465352	0.885413	0	0
275.426941	0.792268	city	10	1	0.596261	0.596261	0	1	0	0	CorrectCommission	1.035116	0.915995	0	0
276.219208	0.792284	city	4	1	0.554957	0.554957	0	1	0	0	CorrectCommission	1.579150	0.942996	0	0
277.011475	0.792241	city	10	1	0.695294	0.695294	0	1	0	0	CorrectCommission	0.269286	0.965470	0	0
277.803741	0.792272	city	5	1	0.748713	0.748713	0	1	0	0	CorrectCommission	0.972896	0.982759	0	0
278.596069	0.792367	city	1	1	0.744772	0.744772	0	1	0	0	CorrectCommission	0.920990	0.994298	0	0
279.388336	0.792158	city	4	1	0.744666	0.744666	0	1	0	0	CorrectCommission	0.919590	0.999520	0	0
280.180542	0.792263	city	5	1	0.747957	0.747957	0	1	0	0	CorrectCommission	0.962934	0.997778	0	0
280.972839	0.792342	city	4	1	0.697917	0.697917	0	1	0	0	CorrectCommission	0.303837	0.988389	0	0
281.765137	0.792244	mountain	6	0	0.000000	0.803762	1	0	0	0	CorrectOmission	1.697978	0.970814	0	0
282.557465	0.792425	city	4	1	0.843813	0.843813	0	1	0	0	CorrectCommission	2.225498	0.944742	0	0
283.349731	0.792114	city	9	1	0.596387	0.596387	0	1	0	0	CorrectCommission	1.033463	0.910403	0	0
284.141998	0.792415	mountain	5	0	0.000000	0.593707	1	0	0	0	CorrectOmission	1.068761	0.868683	0	0
284.934235	0.792050	city	10	1	0.695109	0.695109	0	1	0	0	CorrectCommission	0.266846	0.821167	0	0
285.726440	0.792373	mountain	4	0	0.000000	0.759927	1	0	0	0	CorrectOmission	1.120604	0.770146	0	0
286.518707	0.792154	city	10	1	0.758733	0.758733	0	1	0	0	CorrectCommission	1.104877	0.718427	1	0
287.310974	0.792372	city	6	1	0.662097	0.662097	0	1	0	0	CorrectCommission	0.167967	0.669150	1	0
288.103271	0.792217	city	7	1	0.704301	0.704301	0	1	0	0	CorrectCommission	0.387920	0.625440	1	0
288.895477	0.792244	city	2	1	0.695211	0.695211	0	1	0	0	CorrectCommission	0.268202	0.590149	1	0
289.687714	0.792229	mountain	4	0	0.000000	0.687543	1	0	0	0	CorrectOmission	0.167192	0.565633	1	0
290.479980	0.792261	mountain	5	0	0.000000	0.673619	1	0	0	0	CorrectOmission	0.016207	0.553550	1	0
291.272247	0.792270	city	1	1	0.645764	0.645764	0	1	0	0	CorrectCommission	0.383092	0.554756	1	0
292.064514	0.792294	city	5	1	0.596303	0.596303	0	1	0	0	CorrectCommission	1.034563	0.569258	1	0
292.856781	0.792230	city	6	1	0.652985	0.652985	0	1	0	0	CorrectCommission	0.287985	0.596235	1	0
293.649048	0.792287	city	8	1	0.645784	0.645784	0	1	0	0	CorrectCommission	0.382825	0.634096	1	0
294.441315	0.792242	mountain	7	1	0.645784	0.645784	0	0	1	0	CommissionError	0.382824	0.680557	1	0
295.233673	0.792483	city	8	1	0.695481	0.695481	0	1	0	0	CorrectCommission	0.271748	0.732746	1	0
296.025940	0.792051	city	2	1	0.695166	0.695166	0	1	0	0	CorrectCommission	0.267607	0.787360	0	0
296.818146	0.792369	city	8	1	0.794505	0.794505	0	1	0	0	CorrectCommission	1.576050	0.840853	0	0
297.610504	0.792372	city	10	1	0.803482	0.803482	0	1	0	0	CorrectCommission	1.694279	0.889607	0	0
298.402771	0.792109	city	9	1	0.810077	0.810077	0	1	0	0	CorrectCommission	1.781152	0.930247	0	0
299.194946	0.792290	city	5	1	0.660197	0.660197	0	1	0	0	CorrectCommission	0.192989	0.959816	0	0
299.987305	0.792402	city	8	1	0.645671	0.645671	0	1	0	0	CorrectCommission	0.384319	0.976090	0	0
300.779572	0.792117	city	9	1	0.714368	0.714368	0	1	0	0	CorrectCommission	0.520518	0.977802	0	0
301.571838	0.792407	city	8	1	0.860461	0.860461	0	1	0	0	CorrectCommission	2.444784	0.964840	0	0
302.364044	0.792047	city	9	1	0.942629	0.942629	0	1	0	0	CorrectCommission	3.527048	0.938305	0	0
303.156311	0.792482	city	2	1	0.695290	0.695290	0	1	0	0	CorrectCommission	0.269238	0.900538	0	0
303.948578	0.792053	city	3	1	0.695143	0.695143	0	1	0	0	CorrectCommission	0.267302	0.855032	0	0
304.740753	0.792258	city	1	1	0.745667	0.745667	0	1	0	0	CorrectCommission	0.932774	0.805978	0	0
305.533020	0.792290	city	8	1	0.650578	0.650578	0	1	0	0	CorrectCommission	0.319681	0.757879	1	1
306.325287	0.792244	city	9	1	0.698862	0.698862	0	1	0	0	CorrectCommission	0.316280	0.715082	1	1
307.117554	0.792320	city	5	1	0.648890	0.648890	0	1	0	0	CorrectCommission	0.341918	0.681270	1	1
307.909821	0.792209	city	2	1	0.650758	0.650758	0	1	0	0	CorrectCommission	0.317320	0.659074	1	1
308.702118	0.792370	city	5	1	0.651305	0.651305	0	1	0	0	CorrectCommission	0.310105	0.649836	1	1
309.494385	0.792156	city	10	1	0.658071	0.658071	0	1	0	0	CorrectCommission	0.220992	0.653509	1	1
310.286652	0.792376	city	1	1	0.707669	0.707669	0	1	0	0	CorrectCommission	0.432284	0.668806	1	1
311.078918	0.792153	city	4	1	0.695176	0.695176	0	1	0	0	CorrectCommission	0.267737	0.693464	1	1
311.871124	0.792266	city	1	1	0.750255	0.750255	0	1	0	0	CorrectCommission	0.993203	0.724608	1	1
312.663422	0.792312	city	10	1	0.744835	0.744835	0	1	0	0	CorrectCommission	0.921815	0.759170	1	1
313.455780	0.792435	city	6	1	0.794347	0.794347	0	1	0	0	CorrectCommission	1.573960	0.794340	0	1
314.248047	0.792070	city	2	1	0.712525	0.712525	0	1	0	0	CorrectCommission	0.496246	0.827824	0	1
315.040283	0.792460	city	7	1	0.711989	0.711989	0	1	0	0	CorrectCommission	0.489184	0.858121	0	1
315.832581	0.792077	city	6	1	0.806758	0.806758	0	1	0	0	CorrectCommission	1.737437	0.884507	0	1
316.624725	0.792234	city	4	1	0.843943	0.843943	0	1	0	0	CorrectCommission	2.227219	0.906918	0	1
317.416962	0.792265	city	5	1	0.710161	0.710161	0	1	0	0	CorrectCommission	0.465112	0.925700	0	1
318.209290	0.792373	city	3	1	0.695328	0.695328	0	1	0	0	CorrectCommission	0.269738	0.941350	0	1
319.001556	0.792158	city	5	1	0.701969	0.701969	0	1	0	0	CorrectCommission	0.357209	0.954128	0	1
319.793762	0.792268	city	6	1	0.695264	0.695264	0	1	0	0	CorrectCommission	0.268899	0.963870	0	1
320.586029	0.792264	city	8	1	0.744801	0.744801	0	1	0	0	CorrectCommission	0.921369	0.970017	0	1
321.378357	0.792370	city	6	1	0.757859	0.757859	0	1	0	0	CorrectCommission	1.093358	0.971665	0	1
322.170624	0.792159	city	5	1	0.794222	0.794222	0	1	0	0	CorrectCommission	1.572318	0.967813	0	1
322.962830	0.792262	city	1	1	0.806362	0.806362	0	1	0	0	CorrectCommission	1.732221	0.957681	0	1
323.755127	0.792339	city	10	1	0.843810	0.843810	0	1	0	0	CorrectCommission	2.225467	0.940978	0	1
324.547394	0.792215	city	2	1	0.744738	0.744738	0	1	0	0	CorrectCommission	0.920537	0.918056	0	1
325.339691	0.792349	city	1	1	0.695237	0.695237	0	1	0	0	CorrectCommission	0.268533	0.889976	0	1
326.132050	0.792374	city	6	1	0.596228	0.596228	0	1	0	0	CorrectCommission	1.035553	0.858307	0	1
326.924255	0.792050	city	1	1	0.654994	0.654994	0	1	0	0	CorrectCommission	0.261525	0.824861	0	1
327.716431	0.792266	city	4	1	0.698189	0.698189	0	1	0	0	CorrectCommission	0.307417	0.791477	0	1
328.508789	0.792478	city	8	1	0.617345	0.617345	0	1	0	0	CorrectCommission	0.757413	0.759717	1	1
329.301086	0.792110	city	7	1	0.645936	0.645936	0	1	0	0	CorrectCommission	0.380823	0.730748	1	1
330.093353	0.792420	city	2	1	0.649126	0.649126	0	1	0	0	CorrectCommission	0.338804	0.705304	1	1
330.885681	0.792264	city	5	1	0.794101	0.794101	0	1	0	0	CorrectCommission	1.570717	0.683721	1	1
331.677856	0.792099	mountain	1	0	0.000000	0.779062	1	0	0	0	CorrectOmission	1.372643	0.666051	1	1
332.470062	0.792271	city	7	1	0.698230	0.698230	0	1	0	0	CorrectCommission	0.307963	0.652226	1	1
333.262360	0.792316	city	1	1	0.645822	0.645822	0	1	0	0	CorrectCommission	0.382332	0.642128	1	1
334.054596	0.792156	city	8	1	0.695190	0.695190	0	1	0	0	CorrectCommission	0.267924	0.635586	1	1
334.846802	0.792263	city	6	1	0.695326	0.695326	0	1	0	0	CorrectCommission	0.269707	0.632462	1	1
335.639069	0.792268	city	1	1	0.704685	0.704685	0	1	0	0	CorrectCommission	0.392988	0.632610	1	1
336.431366	0.792313	city	8	1	0.744807	0.744807	0	1	0	0	CorrectCommission	0.921450	0.635902	1	1
337.223602	0.792215	city	2	1	0.744842	0.744842	0	1	0	0	CorrectCommission	0.921909	0.642214	1	1
338.015869	0.792307	city	7	1	0.744941	0.744941	0	1	0	0	CorrectCommission	0.923211	0.651496	1	1
338.808258	0.792440	city	5	1	0.695994	0.695994	0	1	0	0	CorrectCommission	0.278507	0.663821	1	1
339.600494	0.792050	city	3	1	0.695304	0.695304	0	1	0	0	CorrectCommission	0.269428	0.679447	1	1
340.392670	0.792269	city	10	1	0.744848	0.744848	0	1	0	0	CorrectCommission	0.921994	0.698814	1	1
341.184906	0.792261	city	9	1	0.745100	0.745100	0	1	0	0	CorrectCommission	0.925302	0.722479	1	1
341.977203	0.792287	city	4	1	0.712110	0.712110	0	1	0	0	CorrectCommission	0.490775	0.751106	1	1
342.769470	0.792238	city	5	1	0.744809	0.744809	0	1	0	0	CorrectCommission	0.921474	0.785303	0	1
343.561829	0.792483	city	7	1	0.701807	0.701807	0	1	0	0	CorrectCommission	0.355074	0.825398	0	1
344.354095	0.792048	city	5	1	0.794098	0.794098	0	1	0	0	CorrectCommission	1.570682	0.871304	0	1
345.146271	0.792311	city	9	1	0.709395	0.709395	0	1	0	0	CorrectCommission	0.455014	0.922260	0	1
345.938568	0.792325	city	1	1	0.698885	0.698885	0	1	0	0	CorrectCommission	0.316590	0.976850	0	1
346.730927	0.792374	city	3	1	0.698474	0.698474	0	1	0	0	CorrectCommission	0.311170	1.032929	0	1
347.523132	0.792046	city	7	1	0.744571	0.744571	0	1	0	0	CorrectCommission	0.918337	1.087833	0	1
348.315308	0.792269	city	2	1	0.804282	0.804282	0	1	0	0	CorrectCommission	1.704818	1.138645	0	1
349.107574	0.792260	city	7	1	0.794294	0.794294	0	1	0	0	CorrectCommission	1.573267	1.182593	0	1
349.899872	0.792373	city	5	1	0.794555	0.794555	0	1	0	0	CorrectCommission	1.576704	1.217517	0	1
350.692169	0.792196	city	7	1	0.804158	0.804158	0	1	0	0	CorrectCommission	1.703189	1.242110	0	1
351.484375	0.792226	city	6	1	0.896926	0.896926	0	1	0	0	CorrectCommission	2.925082	1.256117	0	1
352.276672	0.792375	city	3	1	0.794775	0.794775	0	1	0	0	CorrectCommission	1.579602	1.260259	0	1
353.069061	0.792374	city	6	1	0.744697	0.744697	0	1	0	0	CorrectCommission	0.919997	1.256054	0	1
353.861267	0.792057	city	4	1	0.707063	0.707063	0	1	0	0	CorrectCommission	0.424311	1.245361	0	1
354.653534	0.792471	city	9	1	0.744769	0.744769	0	1	0	0	CorrectCommission	0.920947	1.229950	0	1
355.445831	0.792157	city	1	1	0.744624	0.744624	0	1	0	0	CorrectCommission	0.919034	1.211104	0	1
356.238007	0.792154	city	4	1	0.695393	0.695393	0	1	0	0	CorrectCommission	0.270588	1.189432	0	1
357.030273	0.792374	city	5	1	0.746218	0.746218	0	1	0	0	CorrectCommission	0.940028	1.164904	0	1
357.822540	0.792157	city	1	1	0.794195	0.794195	0	1	0	0	CorrectCommission	1.571959	1.137029	0	1
358.614838	0.792481	city	10	1	0.844145	0.844145	0	1	0	0	CorrectCommission	2.229878	1.105287	0	1
359.407104	0.792051	city	2	1	0.848410	0.848410	0	1	0	0	CorrectCommission	2.286050	1.069525	0	1
360.199280	0.792261	city	3	1	0.744819	0.744819	0	1	0	0	CorrectCommission	0.921604	1.030310	0	1
360.991547	0.792292	city	2	1	0.794370	0.794370	0	1	0	0	CorrectCommission	1.574264	0.989087	0	1
361.783875	0.792345	city	7	1	0.656445	0.656445	0	1	0	0	CorrectCommission	0.242409	0.948022	0	1
362.576111	0.792161	city	10	1	0.695310	0.695310	0	1	0	0	CorrectCommission	0.269495	0.909832	0	1
363.368317	0.792263	city	9	1	0.711667	0.711667	0	1	0	0	CorrectCommission	0.484947	0.877292	0	1
364.160583	0.792266	city	10	1	0.695292	0.695292	0	1	0	0	CorrectCommission	0.269261	0.852794	0	1
364.952881	0.792299	city	6	1	0.794341	0.794341	0	1	0	0	CorrectCommission	1.573889	0.837925	0	0
365.745148	0.792245	city	4	1	0.695258	0.695258	0	1	0	0	CorrectCommission	0.268822	0.833122	0	0
366.537506	0.792465	city	8	1	0.695285	0.695285	0	1	0	0	CorrectCommission	0.269174	0.837646	0	0
367.329803	0.792119	city	3	1	0.695502	0.695502	0	1	0	0	CorrectCommission	0.272034	0.849575	0	0
368.121948	0.792194	city	10	1	0.695251	0.695251	0	1	0	0	CorrectCommission	0.268726	0.866084	0	0
368.914185	0.792268	mountain	2	0	0.000000	0.758627	1	0	0	0	CorrectOmission	1.103484	0.883857	0	0
369.706543	0.792477	mountain	8	0	0.000000	0.827609	1	0	0	0	CorrectOmission	2.012072	0.899548	0	0
370.498871	0.792157	city	6	1	0.844174	0.844174	0	1	0	0	CorrectCommission	2.230254	0.910283	0	0
371.291016	0.792155	city	5	1	0.750300	0.750300	0	1	0	0	CorrectCommission	0.993794	0.914048	0	0
372.083221	0.792265	city	6	1	0.612831	0.612831	0	1	0	0	CorrectCommission	0.816871	0.909945	0	0
372.875488	0.792266	city	1	1	0.646286	0.646286	0	1	0	0	CorrectCommission	0.376224	0.898225	0	0
373.667755	0.792263	city	2	1	0.596501	0.596501	0	1	0	0	CorrectCommission	1.031960	0.880281	0	0
374.460052	0.792308	city	6	1	0.707398	0.707398	0	1	0	0	CorrectCommission	0.428713	0.858406	0	0
375.252319	0.792222	city	3	1	0.794282	0.794282	0	1	0	0	CorrectCommission	1.573113	0.835556	0	0
376.044556	0.792269	city	1	1	0.747887	0.747887	0	1	0	0	CorrectCommission	0.962022	0.814986	0	0
376.836823	0.792261	city	8	1	0.744776	0.744776	0	1	0	0	CorrectCommission	0.921044	0.799918	0	0
377.629089	0.792268	city	7	1	0.658138	0.658138	0	1	0	0	CorrectCommission	0.220107	0.793175	0	0
378.421356	0.792267	city	6	1	0.695265	0.695265	0	1	0	0	CorrectCommission	0.268902	0.796817	0	0
379.213654	0.792327	city	10	1	0.695305	0.695305	0	1	0	0	CorrectCommission	0.269440	0.811858	0	0
380.005981	0.792307	city	4	1	0.710985	0.710985	0	1	0	0	CorrectCommission	0.475964	0.838056	0	0
380.798218	0.792208	city	7	1	0.645651	0.645651	0	1	0	0	CorrectCommission	0.384581	0.873858	0	0
381.590485	0.792320	city	6	1	0.596280	0.596280	0	1	0	0	CorrectCommission	1.034875	0.916487	0	0
382.382721	0.792159	city	8	1	0.596145	0.596145	0	1	0	0	CorrectCommission	1.036647	0.962149	0	0
383.174988	0.792322	mountain	2	0	0.000000	0.729540	1	0	0	0	CorrectOmission	0.720365	1.006501	0	0
383.967224	0.792204	city	8	1	0.796301	0.796301	0	1	0	0	CorrectCommission	1.599699	1.045081	0	0
384.759460	0.792269	city	7	1	0.596262	0.596262	0	1	0	0	CorrectCommission	1.035107	1.073796	0	0
385.551727	0.792263	city	9	1	0.547013	0.547013	0	1	0	0	CorrectCommission	1.683783	1.089475	0	0
386.344086	0.792401	city	3	1	0.512514	0.512514	0	1	0	0	CorrectCommission	2.138188	1.090168	0	0
387.136322	0.792128	mountain	7	1	0.511303	0.511303	0	0	1	0	CommissionError	2.154148	1.075398	0	0
387.928528	0.792268	city	3	1	0.744853	0.744853	0	1	0	0	CorrectCommission	0.922053	1.046212	0	0
388.720795	0.792262	city	10	1	0.745027	0.745027	0	1	0	0	CorrectCommission	0.924347	1.005022	0	0
389.513123	0.792372	city	2	1	0.745098	0.745098	0	1	0	0	CorrectCommission	0.925275	0.955247	0	0
390.305420	0.792224	city	8	1	0.662248	0.662248	0	1	0	0	CorrectCommission	0.165971	0.900935	0	0
391.097748	0.792416	city	1	1	0.794281	0.794281	0	1	0	0	CorrectCommission	1.573098	0.846294	0	0
391.889954	0.792049	city	5	1	0.695048	0.695048	0	1	0	0	CorrectCommission	0.266043	0.795197	0	0
392.682129	0.792264	mountain	10	0	0.000000	0.696456	1	0	0	0	CorrectOmission	0.284593	0.750929	1	0
393.474487	0.792480	city	10	1	0.709595	0.709595	0	1	0	0	CorrectCommission	0.457660	0.715869	1	0
394.266815	0.792156	city	2	1	0.645555	0.645555	0	1	0	0	CorrectCommission	0.385844	0.691392	1	0
395.058960	0.792160	city	7	1	0.706877	0.706877	0	1	0	0	CorrectCommission	0.421851	0.677877	1	0
395.851196	0.792273	city	6	1	0.748393	0.748393	0	1	0	0	CorrectCommission	0.968687	0.674805	1	0
396.643463	0.792255	city	4	1	0.700105	0.700105	0	1	0	0	CorrectCommission	0.332657	0.680903	1	0
397.435730	0.792278	city	1	1	0.695294	0.695294	0	1	0	0	CorrectCommission	0.269296	0.694416	1	0
398.227966	0.792250	city	7	1	0.756898	0.756898	0	1	0	0	CorrectCommission	1.080701	0.713278	1	0
399.020233	0.792269	city	6	1	0.744799	0.744799	0	1	0	0	CorrectCommission	0.921338	0.735319	1	0
399.812622	0.792476	city	9	1	0.695793	0.695793	0	1	0	0	CorrectCommission	0.275867	0.758526	1	0
400.604919	0.792157	city	4	1	0.597362	0.597362	0	1	0	0	CorrectCommission	1.020620	0.781194	0	0
401.397095	0.792155	city	1	1	0.596288	0.596288	0	1	0	0	CorrectCommission	1.034764	0.801959	0	0
402.189301	0.792265	city	3	1	0.596387	0.596387	0	1	0	0	CorrectCommission	1.033465	0.819959	0	0
402.981628	0.792374	city	10	1	0.546860	0.546860	0	1	0	0	CorrectCommission	1.685801	0.834765	0	0
403.773865	0.792156	city	6	1	0.696257	0.696257	0	1	0	0	CorrectCommission	0.281968	0.846365	0	0
404.566132	0.792331	mountain	2	0	0.000000	0.681863	1	0	0	0	CorrectOmission	0.092383	0.855141	0	0
405.358398	0.792200	city	10	1	0.600011	0.600011	0	1	0	0	CorrectCommission	0.985732	0.861743	0	0
406.150665	0.792370	city	1	1	0.547031	0.547031	0	1	0	0	CorrectCommission	1.683548	0.866966	0	0
406.942993	0.792266	city	5	1	0.645646	0.645646	0	1	0	0	CorrectCommission	0.384641	0.871701	0	0
407.735260	0.792263	city	4	1	0.761352	0.761352	0	1	0	0	CorrectCommission	1.139372	0.876921	0	0
408.527527	0.792265	city	1	1	0.599921	0.599921	0	1	0	0	CorrectCommission	0.986914	0.883454	0	0
409.319763	0.792203	mountain	8	0	0.000000	0.610143	1	0	0	0	CorrectOmission	0.852271	0.892037	0	0
410.112030	0.792328	city	2	1	0.655153	0.655153	0	1	0	0	CorrectCommission	0.259433	0.903192	0	0
410.904327	0.792263	city	7	1	0.598082	0.598082	0	1	0	0	CorrectCommission	1.011134	0.917179	0	0
411.696564	0.792205	mountain	4	0	0.000000	0.706756	1	0	0	0	CorrectOmission	0.420259	0.933921	0	0
412.488861	0.792433	city	2	1	0.811992	0.811992	0	1	0	0	CorrectCommission	1.806377	0.952998	0	0
413.281219	0.792266	city	8	1	0.744610	0.744610	0	1	0	0	CorrectCommission	0.918856	0.973603	0	0
414.073395	0.792075	city	3	1	0.695039	0.695039	0	1	0	0	CorrectCommission	0.265928	0.994680	0	0
414.865540	0.792237	city	8	1	0.751845	0.751845	0	1	0	0	CorrectCommission	1.014152	1.014940	0	0
415.657867	0.792379	city	7	1	0.794323	0.794323	0	1	0	0	CorrectCommission	1.573651	1.032932	0	0
416.450134	0.792156	city	1	1	0.749796	0.749796	0	1	0	0	CorrectCommission	0.987155	1.047194	0	0
417.242340	0.792261	city	8	1	0.803723	0.803723	0	1	0	0	CorrectCommission	1.697463	1.056438	0	0
418.034576	0.792263	city	1	1	0.709301	0.709301	0	1	0	0	CorrectCommission	0.453778	1.059595	0	0
418.826965	0.792484	city	2	1	0.744796	0.744796	0	1	0	0	CorrectCommission	0.921298	1.056026	0	0
419.619324	0.792265	mountain	10	0	0.000000	0.794437	1	0	0	0	CorrectOmission	1.575152	1.045539	0	0
420.411560	0.792154	city	7	1	0.810369	0.810369	0	1	0	0	CorrectCommission	1.784991	1.028444	0	0
421.203827	0.792375	city	4	1	0.744733	0.744733	0	1	0	0	CorrectCommission	0.920469	1.005558	0	0
421.996033	0.792048	city	7	1	0.744698	0.744698	0	1	0	0	CorrectCommission	0.920018	0.978114	0	0
422.788239	0.792398	city	2	1	0.794365	0.794365	0	1	0	0	CorrectCommission	1.574198	0.947542	0	0
423.580505	0.792137	city	6	1	0.699882	0.699882	0	1	0	0	CorrectCommission	0.329723	0.915301	0	0
424.372711	0.792259	city	8	1	0.645768	0.645768	0	1	0	0	CorrectCommission	0.383044	0.882731	0	1
425.165070	0.792482	city	9	1	0.703748	0.703748	0	1	0	0	CorrectCommission	0.380642	0.850841	0	1
425.957336	0.792045	city	3	1	0.744600	0.744600	0	1	0	0	CorrectCommission	0.918720	0.820261	0	1
426.749542	0.792336	city	4	1	0.794395	0.794395	0	1	0	0	CorrectCommission	1.574600	0.791205	0	1
427.541901	0.792412	city	9	1	0.697732	0.697732	0	1	0	0	CorrectCommission	0.301405	0.763619	0	1
428.334137	0.792051	city	5	1	0.645661	0.645661	0	1	0	0	CorrectCommission	0.384446	0.737336	1	1
429.126282	0.792260	city	4	1	0.600908	0.600908	0	1	0	0	CorrectCommission	0.973906	0.712241	1	1
429.918549	0.792266	mountain	10	1	0.746000	0.746000	0	0	1	0	CommissionError	0.937160	0.688386	1	1
430.710938	0.792483	city	7	1	0.762042	0.762042	0	1	0	0	CorrectCommission	1.148464	0.666169	1	1
431.503204	0.792046	city	3	1	0.695077	0.695077	0	1	0	0	CorrectCommission	0.266433	0.646306	1	1
432.295349	0.792267	city	8	1	0.613663	0.613663	0	1	0	0	CorrectCommission	0.805906	0.629768	1	1
433.087616	0.792264	city	3	1	0.645740	0.645740	0	1	0	0	CorrectCommission	0.383403	0.617615	1	1
433.879944	0.792371	city	1	1	0.646641	0.646641	0	1	0	0	CorrectCommission	0.371540	0.610859	1	1
434.672241	0.792215	city	7	1	0.645682	0.645682	0	1	0	0	CorrectCommission	0.384180	0.610171	1	1
435.464447	0.792207	city	4	1	0.645988	0.645988	0	1	0	0	CorrectCommission	0.380147	0.615841	1	1
436.256683	0.792265	city	2	1	0.695458	0.695458	0	1	0	0	CorrectCommission	0.271448	0.627682	1	1
437.049011	0.792373	city	10	1	0.646337	0.646337	0	1	0	0	CorrectCommission	0.375549	0.645079	1	1
437.841278	0.792182	city	8	1	0.655584	0.655584	0	1	0	0	CorrectCommission	0.253755	0.667115	1	1
438.633545	0.792347	city	2	1	0.558616	0.558616	0	1	0	0	CorrectCommission	1.530958	0.692787	1	1
439.425781	0.792155	city	7	1	0.695256	0.695256	0	1	0	0	CorrectCommission	0.268791	0.721135	1	1
440.218018	0.792269	city	6	1	0.794313	0.794313	0	1	0	0	CorrectCommission	1.573519	0.751440	1	1
441.010284	0.792271	city	4	1	0.806148	0.806148	0	1	0	0	CorrectCommission	1.729405	0.783170	0	1
441.802551	0.792257	city	8	1	0.696011	0.696011	0	1	0	0	CorrectCommission	0.278738	0.815927	0	1
442.594788	0.792264	city	4	1	0.706139	0.706139	0	1	0	0	CorrectCommission	0.412138	0.849278	0	1
443.387115	0.792373	city	5	1	0.646290	0.646290	0	1	0	0	CorrectCommission	0.376162	0.882473	0	1
444.179382	0.792156	city	8	1	0.607966	0.607966	0	1	0	0	CorrectCommission	0.880942	0.914303	0	1
444.971588	0.792264	city	4	1	0.660009	0.660009	0	1	0	0	CorrectCommission	0.195466	0.943044	0	1
445.763916	0.792376	city	1	1	0.748915	0.748915	0	1	0	0	CorrectCommission	0.975561	0.966594	0	1
446.556244	0.792264	city	9	1	0.746337	0.746337	0	1	0	0	CorrectCommission	0.941598	0.982701	0	1
447.348541	0.792372	city	8	1	0.747153	0.747153	0	1	0	0	CorrectCommission	0.952346	0.989409	0	1
448.140869	0.792265	mountain	9	0	0.000000	0.886457	1	0	0	0	CorrectOmission	2.787186	0.985449	0	1
448.933014	0.792048	city	6	1	0.942965	0.942965	0	1	0	0	CorrectCommission	3.531475	0.970530	0	1
449.725189	0.792264	city	1	1	0.695391	0.695391	0	1	0	0	CorrectCommission	0.270567	0.945492	0	1
450.517456	0.792267	city	3	1	0.650848	0.650848	0	1	0	0	CorrectCommission	0.316126	0.912275	0	1
451.309723	0.792266	city	10	1	0.695330	0.695330	0	1	0	0	CorrectCommission	0.269763	0.873462	0	1
452.101990	0.792266	mountain	4	0	0.000000	0.711562	1	0	0	0	CorrectOmission	0.483557	0.831900	0	1
452.894348	0.792477	city	5	1	0.710774	0.710774	0	1	0	0	CorrectCommission	0.473185	0.790237	0	1
453.686676	0.792156	city	9	1	0.704199	0.704199	0	1	0	0	CorrectCommission	0.386578	0.750599	1	1
454.478882	0.792264	city	8	1	0.695737	0.695737	0	1	0	0	CorrectCommission	0.275126	0.714319	1	1
455.271179	0.792373	city	1	1	0.744696	0.744696	0	1	0	0	CorrectCommission	0.919986	0.681976	1	1
456.063538	0.792320	mountain	2	0	0.000000	0.758268	1	0	0	0	CorrectOmission	1.098746	0.653543	1	1
456.855743	0.792101	city	3	1	0.744496	0.744496	0	1	0	0	CorrectCommission	0.917356	0.628733	1	1
457.647980	0.792373	city	7	1	0.711426	0.711426	0	1	0	0	CorrectCommission	0.481767	0.607277	1	1
458.440186	0.792048	city	8	1	0.711559	0.711559	0	1	0	0	CorrectCommission	0.483528	0.589182	1	1
459.232361	0.792263	city	2	1	0.751610	0.751610	0	1	0	0	CorrectCommission	1.011052	0.574879	1	1
460.024628	0.792279	city	6	1	0.709477	0.709477	0	1	0	0	CorrectCommission	0.456098	0.565199	1	1
460.816956	0.792360	city	9	1	0.695275	0.695275	0	1	0	0	CorrectCommission	0.269035	0.561218	1	1
461.609222	0.792170	city	8	1	0.645584	0.645584	0	1	0	0	CorrectCommission	0.385467	0.563965	1	1
462.401489	0.792359	city	9	1	0.695691	0.695691	0	1	0	0	CorrectCommission	0.274514	0.574129	1	1
463.193726	0.792158	city	5	1	0.646222	0.646222	0	1	0	0	CorrectCommission	0.377057	0.591748	1	1
463.985931	0.792264	city	2	1	0.645763	0.645763	0	1	0	0	CorrectCommission	0.383110	0.615982	1	1
464.778198	0.792265	city	7	1	0.695315	0.695315	0	1	0	0	CorrectCommission	0.269570	0.645076	1	1
465.570465	0.792264	city	3	1	0.709339	0.709339	0	1	0	0	CorrectCommission	0.454279	0.676431	1	1
466.362793	0.792373	city	9	1	0.706062	0.706062	0	1	0	0	CorrectCommission	0.411117	0.706898	1	1
467.155060	0.792158	city	1	1	0.706949	0.706949	0	1	0	0	CorrectCommission	0.422808	0.733259	1	1
467.947266	0.792263	city	6	1	0.744820	0.744820	0	1	0	0	CorrectCommission	0.921625	0.752654	1	1
468.739532	0.792263	city	2	1	0.942846	0.942846	0	1	0	0	CorrectCommission	3.529908	0.763041	1	1
469.531860	0.792376	city	4	1	0.797552	0.797552	0	1	0	0	CorrectCommission	1.616178	0.763490	1	1
470.324127	0.792157	city	8	1	0.645633	0.645633	0	1	0	0	CorrectCommission	0.384822	0.754433	1	1
471.116333	0.792263	city	1	1	0.650527	0.650527	0	1	0	0	CorrectCommission	0.320362	0.737496	1	1
471.908691	0.792481	city	7	1	0.657573	0.657573	0	1	0	0	CorrectCommission	0.227546	0.715213	1	1
472.700958	0.792051	city	2	1	0.650446	0.650446	0	1	0	0	CorrectCommission	0.321430	0.690649	1	1
473.493164	0.792371	city	3	1	0.650634	0.650634	0	1	0	0	CorrectCommission	0.318943	0.666966	1	1
474.285431	0.792153	city	9	1	0.695201	0.695201	0	1	0	0	CorrectCommission	0.268071	0.647017	1	1
475.077759	0.792483	city	2	1	0.553514	0.553514	0	1	0	0	CorrectCommission	1.598166	0.633038	1	1
475.870026	0.792077	city	4	1	0.695415	0.695415	0	1	0	0	CorrectCommission	0.270882	0.626382	1	1
476.662292	0.792453	city	7	1	0.652364	0.652364	0	1	0	0	CorrectCommission	0.296166	0.627464	1	1
477.454559	0.792047	city	3	1	0.695053	0.695053	0	1	0	0	CorrectCommission	0.266117	0.635644	1	1
478.246826	0.792483	city	4	1	0.608800	0.608800	0	1	0	0	CorrectCommission	0.869962	0.649303	1	1
479.039093	0.792081	city	1	1	0.647430	0.647430	0	1	0	0	CorrectCommission	0.361144	0.665909	1	1
479.831299	0.792338	city	2	1	0.645743	0.645743	0	1	0	0	CorrectCommission	0.383371	0.682252	1	1
480.623566	0.792158	mountain	6	0	0.000000	0.708242	1	0	0	0	CorrectOmission	0.439836	0.694684	1	1
481.415771	0.792296	mountain	9	0	0.000000	0.766463	1	0	0	0	CorrectOmission	1.206693	0.699515	1	1
482.208160	0.792449	city	6	1	0.751941	0.751941	0	1	0	0	CorrectCommission	1.015416	0.693419	1	1
483.000397	0.792050	city	9	1	0.596211	0.596211	0	1	0	0	CorrectCommission	1.035778	0.673915	1	1
483.792572	0.792265	city	4	1	0.596274	0.596274	0	1	0	0	CorrectCommission	1.034951	0.639711	1	1
484.584839	0.792262	city	2	1	0.550578	0.550578	0	1	0	0	CorrectCommission	1.636830	0.591034	1	1
485.377136	0.792337	city	4	1	0.596281	0.596281	0	1	0	0	CorrectCommission	1.034858	0.529684	1	1
486.169403	0.792198	city	9	1	0.596189	0.596189	0	1	0	0	CorrectCommission	1.036072	0.458912	1	1
486.961609	0.792265	city	2	1	0.645763	0.645763	0	1	0	0	CorrectCommission	0.383111	0.383111	1	1
