onset	duration	trial_type	image_type	Press	ReactionTime	ReactionTime_Interpolated	CorrectOmission	CorrectCommission	CommissionError	OmissionError	response_type	nonsmoothVarianceTimeCourse	VarianceTimeCourse	In_the_Zone	Reward_trial
8.433945	0.792156	city	10	1	0.561738	0.561738	0	1	0	0	CorrectCommission	0.394788	0.394788	1	1
9.226131	0.792216	city	7	1	0.447645	0.447645	0	1	0	0	CorrectCommission	1.256673	0.479456	1	1
10.018341	0.792204	city	8	1	0.497164	0.497164	0	1	0	0	CorrectCommission	0.882591	0.562586	1	1
10.810575	0.792264	mountain	3	0	0.000000	0.505470	1	0	0	0	CorrectOmission	0.819849	0.642752	1	1
11.602840	0.792265	city	10	1	0.497253	0.497253	0	1	0	0	CorrectCommission	0.881917	0.718631	0	1
12.395104	0.792264	city	7	1	0.497207	0.497207	0	1	0	0	CorrectCommission	0.882267	0.789011	0	1
13.187424	0.792374	city	3	1	0.497183	0.497183	0	1	0	0	CorrectCommission	0.882449	0.852747	0	1
13.979689	0.792156	city	8	1	0.497375	0.497375	0	1	0	0	CorrectCommission	0.880996	0.908648	0	1
14.772008	0.792482	city	2	1	0.448191	0.448191	0	1	0	0	CorrectCommission	1.252546	0.955399	0	1
15.564283	0.792070	city	6	1	0.596651	0.596651	0	1	0	0	CorrectCommission	0.131044	0.991560	0	1
16.356440	0.792242	city	4	1	0.497123	0.497123	0	1	0	0	CorrectCommission	0.882899	1.015723	0	1
17.148802	0.792483	city	5	1	0.447831	0.447831	0	1	0	0	CorrectCommission	1.255266	1.026626	0	1
17.941175	0.792264	mountain	10	1	0.298917	0.298917	0	0	1	0	CommissionError	2.380197	1.023505	0	1
18.733440	0.792265	city	1	1	0.448055	0.448055	0	1	0	0	CorrectCommission	1.253576	1.006341	0	1
19.525650	0.792156	city	9	1	0.397946	0.397946	0	1	0	0	CorrectCommission	1.632109	0.976175	0	1
20.317917	0.792374	city	7	1	0.398627	0.398627	0	1	0	0	CorrectCommission	1.626965	0.935081	0	1
21.110180	0.792155	city	6	1	0.451305	0.451305	0	1	0	0	CorrectCommission	1.229025	0.886123	0	1
21.902405	0.792293	city	8	1	0.562675	0.562675	0	1	0	0	CorrectCommission	0.387702	0.833045	0	1
22.694670	0.792236	city	6	1	0.645605	0.645605	0	1	0	0	CorrectCommission	0.238770	0.779841	0	1
23.486864	0.792155	city	10	1	0.645703	0.645703	0	1	0	0	CorrectCommission	0.239510	0.730218	0	1
24.279129	0.792375	city	3	1	0.645832	0.645832	0	1	0	0	CorrectCommission	0.240479	0.687125	1	1
25.071424	0.792214	city	2	1	0.603006	0.603006	0	1	0	0	CorrectCommission	0.083036	0.652407	1	1
25.863670	0.792277	city	6	1	0.695238	0.695238	0	1	0	0	CorrectCommission	0.613709	0.626645	1	1
26.655907	0.792196	city	4	1	0.610261	0.610261	0	1	0	0	CorrectCommission	0.028230	0.609138	1	1
27.448137	0.792266	city	9	1	0.546745	0.546745	0	1	0	0	CorrectCommission	0.508046	0.598222	1	1
28.240423	0.792306	city	8	1	0.452555	0.452555	0	1	0	0	CorrectCommission	1.219581	0.591566	1	1
29.032795	0.792437	city	5	1	0.457059	0.457059	0	1	0	0	CorrectCommission	1.185558	0.586631	1	1
29.825041	0.792056	city	2	1	0.548488	0.548488	0	1	0	0	CorrectCommission	0.494878	0.581112	1	1
30.617197	0.792255	city	3	1	0.704762	0.704762	0	1	0	0	CorrectCommission	0.685656	0.573266	1	1
31.409567	0.792482	city	7	1	0.695350	0.695350	0	1	0	0	CorrectCommission	0.614551	0.562105	1	1
32.201939	0.792266	city	3	1	0.561031	0.561031	0	1	0	0	CorrectCommission	0.400128	0.547473	1	1
32.994099	0.792051	city	5	1	0.497105	0.497105	0	1	0	0	CorrectCommission	0.883034	0.529993	1	1
33.786362	0.792476	city	2	1	0.510919	0.510919	0	1	0	0	CorrectCommission	0.778680	0.510850	1	1
34.578625	0.792047	city	5	1	0.546542	0.546542	0	1	0	0	CorrectCommission	0.509578	0.491583	1	1
35.370811	0.792327	city	4	1	0.610116	0.610116	0	1	0	0	CorrectCommission	0.029322	0.473776	1	1
36.163090	0.792233	city	3	1	0.596347	0.596347	0	1	0	0	CorrectCommission	0.133338	0.458847	1	1
36.955353	0.792290	city	1	1	0.645759	0.645759	0	1	0	0	CorrectCommission	0.239929	0.447828	1	1
37.747658	0.792318	city	7	1	0.657357	0.657357	0	1	0	0	CorrectCommission	0.327545	0.441267	1	1
38.539898	0.792163	city	3	1	0.550850	0.550850	0	1	0	0	CorrectCommission	0.477034	0.439286	1	1
39.332108	0.792259	city	10	1	0.596928	0.596928	0	1	0	0	CorrectCommission	0.128953	0.441635	1	1
40.124371	0.792266	city	5	1	0.606008	0.606008	0	1	0	0	CorrectCommission	0.060361	0.447869	1	1
40.916641	0.792277	city	7	1	0.801222	0.801222	0	1	0	0	CorrectCommission	1.414337	0.457567	1	1
41.708946	0.792334	city	10	1	0.555887	0.555887	0	1	0	0	CorrectCommission	0.438982	0.470473	1	1
42.501205	0.792182	city	2	1	0.509250	0.509250	0	1	0	0	CorrectCommission	0.791289	0.486689	1	1
43.293430	0.792268	city	4	1	0.653392	0.653392	0	1	0	0	CorrectCommission	0.297591	0.506609	1	1
44.085751	0.792370	city	3	1	0.596261	0.596261	0	1	0	0	CorrectCommission	0.133993	0.530886	1	1
44.878014	0.792156	city	4	1	0.566980	0.566980	0	1	0	0	CorrectCommission	0.355187	0.560233	1	1
45.670223	0.792268	city	10	1	0.556720	0.556720	0	1	0	0	CorrectCommission	0.432693	0.595163	1	1
46.462502	0.792282	city	5	1	0.695266	0.695266	0	1	0	0	CorrectCommission	0.613921	0.635760	1	1
47.254765	0.792244	city	1	1	0.497720	0.497720	0	1	0	0	CorrectCommission	0.878391	0.681458	1	1
48.047020	0.792267	city	4	1	0.645805	0.645805	0	1	0	0	CorrectCommission	0.240276	0.730896	0	1
48.839336	0.792370	city	9	1	0.546875	0.546875	0	1	0	0	CorrectCommission	0.507063	0.781896	0	1
49.631657	0.792264	city	8	1	0.497829	0.497829	0	1	0	0	CorrectCommission	0.877565	0.831553	0	1
50.423866	0.792159	city	9	1	0.497222	0.497222	0	1	0	0	CorrectCommission	0.882150	0.876493	0	1
51.216076	0.792261	city	6	1	0.547058	0.547058	0	1	0	0	CorrectCommission	0.505679	0.913244	0	1
52.008396	0.792376	mountain	5	1	0.448349	0.448349	0	0	1	0	CommissionError	1.251353	0.938713	0	1
52.800663	0.792157	city	10	1	0.755370	0.755370	0	1	0	0	CorrectCommission	1.067958	0.950581	0	1
53.592873	0.792262	city	8	1	1.059994	1.059994	0	1	0	0	CorrectCommission	3.369162	0.947742	0	1
54.385136	0.792268	city	2	0	0.000000	0.920161	0	0	0	1	OmissionError	2.312826	0.930440	0	1
55.177399	0.792259	city	8	1	0.645764	0.645764	0	1	0	0	CorrectCommission	0.239965	0.900364	0	1
55.969772	0.792485	city	5	1	0.546698	0.546698	0	1	0	0	CorrectCommission	0.508403	0.860419	0	1
56.762093	0.792156	city	6	1	0.654622	0.654622	0	1	0	0	CorrectCommission	0.306883	0.814271	0	1
57.554249	0.792158	city	5	1	0.645754	0.645754	0	1	0	0	CorrectCommission	0.239891	0.765904	0	1
58.346462	0.792266	city	10	1	0.546713	0.546713	0	1	0	0	CorrectCommission	0.508288	0.719151	0	1
59.138729	0.792265	city	3	1	0.596346	0.596346	0	1	0	0	CorrectCommission	0.133344	0.677325	1	1
59.931099	0.792478	city	6	1	0.744835	0.744835	0	1	0	0	CorrectCommission	0.988371	0.642966	1	1
60.723469	0.792264	city	1	1	0.506220	0.506220	0	1	0	0	CorrectCommission	0.814184	0.617730	1	1
61.515625	0.792047	city	2	1	0.546457	0.546457	0	1	0	0	CorrectCommission	0.510218	0.602444	1	1
62.307835	0.792374	city	6	1	0.646752	0.646752	0	1	0	0	CorrectCommission	0.247429	0.597179	1	1
63.100155	0.792266	city	10	1	0.546703	0.546703	0	1	0	0	CorrectCommission	0.508365	0.601381	1	1
63.892368	0.792160	city	9	1	0.605908	0.605908	0	1	0	0	CorrectCommission	0.061114	0.613974	1	1
64.684685	0.792478	city	7	1	0.556225	0.556225	0	1	0	0	CorrectCommission	0.436429	0.633540	1	1
65.476952	0.792049	city	1	1	0.496995	0.496995	0	1	0	0	CorrectCommission	0.883865	0.658403	1	1
66.269157	0.792371	city	9	1	0.508863	0.508863	0	1	0	0	CorrectCommission	0.794213	0.686742	1	1
67.061424	0.792156	city	2	1	0.447560	0.447560	0	1	0	0	CorrectCommission	1.257312	0.716713	0	1
67.853691	0.792374	city	9	1	0.654960	0.654960	0	1	0	0	CorrectCommission	0.309435	0.746531	0	0
68.645950	0.792154	city	7	1	0.555922	0.555922	0	1	0	0	CorrectCommission	0.438722	0.774588	0	0
69.438164	0.792264	city	5	1	0.763007	0.763007	0	1	0	0	CorrectCommission	1.125649	0.799508	0	0
70.230431	0.792271	city	4	1	0.596309	0.596309	0	1	0	0	CorrectCommission	0.133628	0.820279	0	0
71.022697	0.792261	city	9	1	0.398173	0.398173	0	1	0	0	CorrectCommission	1.630392	0.836313	0	0
71.814957	0.792264	mountain	10	1	0.348794	0.348794	0	0	1	0	CommissionError	2.003415	0.847455	0	0
72.607224	0.792263	city	9	1	0.546703	0.546703	0	1	0	0	CorrectCommission	0.508360	0.854010	0	0
73.399597	0.792483	city	7	1	0.452138	0.452138	0	1	0	0	CorrectCommission	1.222730	0.856629	0	0
74.191887	0.792099	city	2	1	0.506960	0.506960	0	1	0	0	CorrectCommission	0.808592	0.856113	0	0
74.984100	0.792320	mountain	2	0	0.000000	0.607803	1	0	0	0	CorrectOmission	0.046801	0.853298	0	0
75.776390	0.792267	city	2	1	0.646110	0.646110	0	1	0	0	CorrectCommission	0.242583	0.848840	0	0
76.568619	0.792190	city	5	1	0.513326	0.513326	0	1	0	0	CorrectCommission	0.760498	0.843178	0	0
77.360886	0.792336	city	10	1	0.447629	0.447629	0	1	0	0	CorrectCommission	1.256789	0.836554	0	0
78.153130	0.792157	city	5	1	0.398288	0.398288	0	1	0	0	CorrectCommission	1.629524	0.829160	0	0
78.945488	0.792564	city	2	1	0.546732	0.546732	0	1	0	0	CorrectCommission	0.508145	0.821346	0	0
79.737755	0.791964	city	6	1	0.744764	0.744764	0	1	0	0	CorrectCommission	0.987834	0.813815	0	0
80.529869	0.792267	mountain	8	0	0.000000	0.694153	1	0	0	0	CorrectOmission	0.605513	0.807696	0	0
81.322136	0.792272	city	5	1	0.546735	0.546735	0	1	0	0	CorrectCommission	0.508124	0.804618	0	0
82.114510	0.792474	city	2	1	0.454341	0.454341	0	1	0	0	CorrectCommission	1.206089	0.806555	0	0
82.906792	0.792088	city	3	1	0.398082	0.398082	0	1	0	0	CorrectCommission	1.631080	0.815520	0	0
83.699081	0.792497	city	1	1	0.557993	0.557993	0	1	0	0	CorrectCommission	0.423073	0.833216	0	0
84.491333	0.791996	city	2	1	0.645463	0.645463	0	1	0	0	CorrectCommission	0.237691	0.860607	0	0
85.283463	0.792270	city	6	1	0.645858	0.645858	0	1	0	0	CorrectCommission	0.240675	0.897484	0	0
86.075729	0.792257	city	8	1	0.614824	0.614824	0	1	0	0	CorrectCommission	0.006238	0.942198	0	0
86.868095	0.792485	city	1	1	0.546727	0.546727	0	1	0	0	CorrectCommission	0.508178	0.991664	0	0
87.660469	0.792262	city	10	1	0.600405	0.600405	0	1	0	0	CorrectCommission	0.102684	1.041595	0	0
88.452629	0.792049	city	8	1	0.547023	0.547023	0	1	0	0	CorrectCommission	0.505946	1.087048	0	0
89.244781	0.792264	city	4	1	0.992404	0.992404	0	1	0	0	CorrectCommission	2.858567	1.123090	0	0
90.037048	0.792262	city	9	1	1.190485	1.190485	0	1	0	0	CorrectCommission	4.354920	1.145551	0	0
90.829422	0.792482	city	3	0	0.000000	0.848664	0	0	0	1	OmissionError	1.772725	1.151654	0	0
91.621681	0.792047	city	1	1	0.459532	0.459532	0	1	0	0	CorrectCommission	1.166871	1.140468	0	0
92.413841	0.792263	city	8	1	0.515679	0.515679	0	1	0	0	CorrectCommission	0.742725	1.112841	0	0
93.206108	0.792267	city	9	1	0.546867	0.546867	0	1	0	0	CorrectCommission	0.507125	1.071170	0	0
93.998375	0.792268	city	6	1	0.454349	0.454349	0	1	0	0	CorrectCommission	1.206025	1.018963	0	0
94.790657	0.792298	city	8	1	0.506517	0.506517	0	1	0	0	CorrectCommission	0.811936	0.960211	0	0
95.582932	0.792247	city	10	1	0.546759	0.546759	0	1	0	0	CorrectCommission	0.507941	0.898888	0	0
96.375282	0.792464	city	7	1	0.695291	0.695291	0	1	0	0	CorrectCommission	0.614107	0.838533	0	0
97.167542	0.792045	city	2	1	0.497135	0.497135	0	1	0	0	CorrectCommission	0.882814	0.781946	0	0
97.959694	0.792265	city	1	1	0.564054	0.564054	0	1	0	0	CorrectCommission	0.377290	0.731140	0	0
98.751968	0.792285	city	7	1	0.695239	0.695239	0	1	0	0	CorrectCommission	0.613713	0.687416	1	0
99.544250	0.792277	city	2	1	0.497197	0.497197	0	1	0	0	CorrectCommission	0.882344	0.651451	1	0
100.336517	0.792265	city	1	1	0.497152	0.497152	0	1	0	0	CorrectCommission	0.882684	0.623490	1	0
101.128822	0.792339	city	6	1	0.611951	0.611951	0	1	0	0	CorrectCommission	0.015460	0.603483	1	0
101.921074	0.792158	city	5	1	0.755678	0.755678	0	1	0	0	CorrectCommission	1.070282	0.591168	1	0
102.713295	0.792288	city	1	1	0.596367	0.596367	0	1	0	0	CorrectCommission	0.133189	0.586025	1	0
103.505569	0.792266	city	4	1	0.563377	0.563377	0	1	0	0	CorrectCommission	0.382399	0.587379	1	0
104.297874	0.792348	city	7	1	0.596228	0.596228	0	1	0	0	CorrectCommission	0.134235	0.594249	1	0
105.090134	0.792161	city	10	1	0.645664	0.645664	0	1	0	0	CorrectCommission	0.239215	0.605459	1	0
105.882362	0.792297	city	8	1	0.547176	0.547176	0	1	0	0	CorrectCommission	0.504788	0.619716	1	0
106.674652	0.792286	city	5	1	0.466284	0.466284	0	1	0	0	CorrectCommission	1.115866	0.635747	1	0
107.466904	0.792211	city	6	1	0.758701	0.758701	0	1	0	0	CorrectCommission	1.093118	0.652480	1	0
108.259140	0.792259	city	2	1	0.605794	0.605794	0	1	0	0	CorrectCommission	0.061973	0.669318	1	0
109.051399	0.792268	city	4	1	0.843889	0.843889	0	1	0	0	CorrectCommission	1.736654	0.686225	1	0
109.843666	0.792266	mountain	9	0	0.000000	0.741320	1	0	0	0	CorrectOmission	0.961818	0.703656	0	0
110.635933	0.792263	city	3	1	0.546719	0.546719	0	1	0	0	CorrectCommission	0.508239	0.722535	0	0
111.428200	0.792269	city	5	1	0.508722	0.508722	0	1	0	0	CorrectCommission	0.795276	0.743939	0	0
112.220459	0.792259	city	8	1	0.646688	0.646688	0	1	0	0	CorrectCommission	0.246946	0.768777	0	0
113.012833	0.792482	city	4	1	0.596429	0.596429	0	1	0	0	CorrectCommission	0.132722	0.797469	0	0
113.805107	0.792070	city	9	1	0.697753	0.697753	0	1	0	0	CorrectCommission	0.632703	0.829668	0	0
114.597321	0.792349	mountain	3	0	0.000000	0.581307	1	0	0	0	CorrectOmission	0.246956	0.864103	0	0
115.389595	0.792204	city	4	1	0.447619	0.447619	0	1	0	0	CorrectCommission	1.256868	0.898674	0	0
116.181808	0.792223	mountain	9	1	0.497216	0.497216	0	0	1	0	CommissionError	0.882201	0.930604	0	0
116.974045	0.792259	city	5	1	0.459458	0.459458	0	1	0	0	CorrectCommission	1.167433	0.956855	0	0
117.766312	0.792266	city	2	1	0.459530	0.459530	0	1	0	0	CorrectCommission	1.166884	0.974498	0	0
118.558578	0.792267	city	9	1	0.992332	0.992332	0	1	0	0	CorrectCommission	2.858023	0.981187	0	0
119.350838	0.792261	city	4	1	0.762001	0.762001	0	1	0	0	CorrectCommission	1.118052	0.975385	0	0
120.143105	0.792270	city	10	1	0.547029	0.547029	0	1	0	0	CorrectCommission	0.505896	0.956709	0	0
120.935387	0.792290	city	4	1	0.497517	0.497517	0	1	0	0	CorrectCommission	0.879922	0.925872	0	0
121.727654	0.792242	city	3	1	0.447658	0.447658	0	1	0	0	CorrectCommission	1.256571	0.884606	0	0
122.519913	0.792276	city	10	1	0.497318	0.497318	0	1	0	0	CorrectCommission	0.881431	0.835457	0	0
123.312172	0.792249	city	5	1	0.497341	0.497341	0	1	0	0	CorrectCommission	0.881252	0.781526	0	0
124.104538	0.792480	city	10	1	0.497864	0.497864	0	1	0	0	CorrectCommission	0.877302	0.726139	0	0
124.896858	0.792155	city	6	1	0.560327	0.560327	0	1	0	0	CorrectCommission	0.405446	0.672563	1	0
125.689011	0.792159	city	5	1	0.596232	0.596232	0	1	0	0	CorrectCommission	0.134209	0.623776	1	0
126.481277	0.792371	city	7	1	0.547079	0.547079	0	1	0	0	CorrectCommission	0.505523	0.582183	1	0
127.273598	0.792264	city	10	1	0.548536	0.548536	0	1	0	0	CorrectCommission	0.494518	0.549501	1	1
128.065857	0.792267	city	9	1	0.608381	0.608381	0	1	0	0	CorrectCommission	0.042430	0.526722	1	1
128.858093	0.792209	city	8	1	0.556297	0.556297	0	1	0	0	CorrectCommission	0.435889	0.514077	1	1
129.650314	0.792220	city	6	1	0.596218	0.596218	0	1	0	0	CorrectCommission	0.134317	0.511164	1	1
130.442612	0.792363	city	2	1	0.547224	0.547224	0	1	0	0	CorrectCommission	0.504427	0.517052	1	1
131.234863	0.792162	city	3	1	0.558001	0.558001	0	1	0	0	CorrectCommission	0.423018	0.530415	1	1
132.027191	0.792477	city	6	1	0.695291	0.695291	0	1	0	0	CorrectCommission	0.614109	0.549826	1	1
132.819473	0.792106	city	9	1	0.558476	0.558476	0	1	0	0	CorrectCommission	0.419423	0.573868	1	1
133.611740	0.792424	city	7	1	0.461486	0.461486	0	1	0	0	CorrectCommission	1.152108	0.601350	1	1
134.403976	0.792050	city	5	1	0.546567	0.546567	0	1	0	0	CorrectCommission	0.509390	0.631366	1	1
135.196136	0.792265	city	10	1	0.546704	0.546704	0	1	0	0	CorrectCommission	0.508355	0.663399	1	1
135.988419	0.792292	city	4	1	0.695248	0.695248	0	1	0	0	CorrectCommission	0.613781	0.697193	1	1
136.780685	0.792254	city	10	1	0.452367	0.452367	0	1	0	0	CorrectCommission	1.220996	0.732740	0	1
137.572968	0.792318	city	7	1	0.552664	0.552664	0	1	0	0	CorrectCommission	0.463328	0.770056	0	1
138.365280	0.792300	city	2	1	0.563548	0.563548	0	1	0	0	CorrectCommission	0.381108	0.809046	0	1
139.157547	0.792231	city	5	1	0.546593	0.546593	0	1	0	0	CorrectCommission	0.509194	0.849307	0	1
139.949814	0.792300	city	2	1	0.448086	0.448086	0	1	0	0	CorrectCommission	1.253338	0.890021	0	1
140.742065	0.792210	city	8	1	0.411920	0.411920	0	1	0	0	CorrectCommission	1.526547	0.929859	0	1
141.534393	0.792427	city	6	1	0.499873	0.499873	0	1	0	0	CorrectCommission	0.862123	0.967037	0	1
142.326630	0.792050	city	7	1	0.596347	0.596347	0	1	0	0	CorrectCommission	0.133343	0.999441	0	1
143.118790	0.792263	mountain	10	0	0.000000	0.509693	1	0	0	0	CorrectOmission	0.787947	1.024828	0	1
143.911041	0.792266	city	3	1	0.553670	0.553670	0	1	0	0	CorrectCommission	0.455733	1.041049	0	1
144.703308	0.792266	city	7	1	1.042036	1.042036	0	1	0	0	CorrectCommission	3.233501	1.046436	0	1
145.495575	0.792265	city	5	0	0.000000	0.933558	0	0	0	1	OmissionError	2.414030	1.039981	0	1
146.287857	0.792302	city	8	1	0.596236	0.596236	0	1	0	0	CorrectCommission	0.134179	1.021621	0	1
147.080124	0.792225	city	10	1	0.398072	0.398072	0	1	0	0	CorrectCommission	1.631156	0.992295	0	1
147.872482	0.792481	city	2	1	0.497375	0.497375	0	1	0	0	CorrectCommission	0.881000	0.953742	0	1
148.664749	0.792047	city	7	1	0.497539	0.497539	0	1	0	0	CorrectCommission	0.879760	0.908429	0	1
149.456894	0.792269	city	6	1	0.549199	0.549199	0	1	0	0	CorrectCommission	0.489505	0.859192	0	1
150.249268	0.792479	city	2	1	0.546750	0.546750	0	1	0	0	CorrectCommission	0.508009	0.808950	0	1
151.041641	0.792265	city	3	1	0.645578	0.645578	0	1	0	0	CorrectCommission	0.238561	0.760421	0	1
151.833862	0.792156	city	2	1	0.808333	0.808333	0	1	0	0	CorrectCommission	1.468049	0.715936	0	1
152.626114	0.792373	city	7	1	0.546656	0.546656	0	1	0	0	CorrectCommission	0.508719	0.677261	1	1
153.418442	0.792264	city	2	1	0.596029	0.596029	0	1	0	0	CorrectCommission	0.135741	0.645632	1	1
154.210709	0.792265	city	10	1	0.551482	0.551482	0	1	0	0	CorrectCommission	0.472259	0.621727	1	1
155.002884	0.792080	city	2	1	0.744572	0.744572	0	1	0	0	CorrectCommission	0.986388	0.605733	1	1
155.795059	0.792283	city	6	1	0.645800	0.645800	0	1	0	0	CorrectCommission	0.240242	0.597444	1	1
156.587326	0.792244	city	3	1	0.645765	0.645765	0	1	0	0	CorrectCommission	0.239979	0.596367	1	1
157.379608	0.792342	city	10	1	0.546695	0.546695	0	1	0	0	CorrectCommission	0.508423	0.601813	1	1
158.171921	0.792267	city	2	1	0.695766	0.695766	0	1	0	0	CorrectCommission	0.617698	0.612995	1	1
158.964188	0.792265	city	3	1	0.596164	0.596164	0	1	0	0	CorrectCommission	0.134725	0.629167	1	1
159.756409	0.792171	city	6	1	0.447591	0.447591	0	1	0	0	CorrectCommission	1.257078	0.649707	1	1
160.548721	0.792466	city	10	1	0.454738	0.454738	0	1	0	0	CorrectCommission	1.203089	0.674091	1	1
161.340973	0.792049	city	9	1	0.646022	0.646022	0	1	0	0	CorrectCommission	0.241920	0.702008	1	1
162.133240	0.792481	city	5	1	0.546714	0.546714	0	1	0	0	CorrectCommission	0.508280	0.733225	0	1
162.925507	0.792047	city	8	1	0.695065	0.695065	0	1	0	0	CorrectCommission	0.612402	0.767521	0	1
163.717773	0.792482	city	4	1	0.497144	0.497144	0	1	0	0	CorrectCommission	0.882739	0.804621	0	1
164.510147	0.792264	city	7	1	0.496993	0.496993	0	1	0	0	CorrectCommission	0.883882	0.843993	0	1
165.302307	0.792050	mountain	3	0	0.000000	0.644791	1	0	0	0	CorrectOmission	0.232618	0.884798	0	1
166.094452	0.792261	city	1	1	0.794322	0.794322	0	1	0	0	CorrectCommission	1.362212	0.925821	0	1
166.886719	0.792265	mountain	8	0	0.000000	0.799371	1	0	0	0	CorrectOmission	1.400350	0.965406	0	1
167.679092	0.792482	city	4	1	0.706763	0.706763	0	1	0	0	CorrectCommission	0.700769	1.001577	0	1
168.471420	0.792157	city	7	1	0.563325	0.563325	0	1	0	0	CorrectCommission	0.382793	1.032185	0	1
169.263565	0.792157	city	4	1	0.447648	0.447648	0	1	0	0	CorrectCommission	1.256650	1.055042	0	1
170.055832	0.792372	city	3	1	0.413291	0.413291	0	1	0	0	CorrectCommission	1.516190	1.068201	0	1
170.848099	0.792164	mountain	3	1	0.348888	0.348888	0	0	1	0	CommissionError	2.002703	1.070237	0	1
171.640320	0.792257	city	5	1	0.453537	0.453537	0	1	0	0	CorrectCommission	1.212163	1.060444	0	1
172.432602	0.792320	city	1	1	0.398201	0.398201	0	1	0	0	CorrectCommission	1.630180	1.038995	0	1
173.224869	0.792212	city	8	1	0.497529	0.497529	0	1	0	0	CorrectCommission	0.879836	1.006937	0	1
174.017105	0.792262	mountain	7	1	0.448240	0.448240	0	0	1	0	CommissionError	1.252174	0.966146	0	1
174.809372	0.792263	city	6	1	0.762509	0.762509	0	1	0	0	CorrectCommission	1.121890	0.919073	0	1
175.601685	0.792372	city	3	1	0.597455	0.597455	0	1	0	0	CorrectCommission	0.124970	0.868494	0	1
176.394012	0.792266	city	7	1	0.447592	0.447592	0	1	0	0	CorrectCommission	1.257067	0.817213	0	1
177.186218	0.792158	city	9	1	0.562489	0.562489	0	1	0	0	CorrectCommission	0.389108	0.767692	0	1
177.978424	0.792262	city	6	1	0.551764	0.551764	0	1	0	0	CorrectCommission	0.470130	0.721943	0	1
178.770798	0.792482	city	10	1	0.547123	0.547123	0	1	0	0	CorrectCommission	0.505192	0.681344	1	1
179.563065	0.792049	city	8	1	0.596026	0.596026	0	1	0	0	CorrectCommission	0.135765	0.646634	1	1
180.355331	0.792481	city	9	1	0.546719	0.546719	0	1	0	0	CorrectCommission	0.508240	0.618028	1	1
181.147598	0.792049	city	3	1	0.497047	0.497047	0	1	0	0	CorrectCommission	0.883478	0.595350	1	1
181.939758	0.792261	city	10	1	0.546724	0.546724	0	1	0	0	CorrectCommission	0.508203	0.578237	1	1
182.732101	0.792429	city	2	1	0.512891	0.512891	0	1	0	0	CorrectCommission	0.763786	0.566348	1	1
183.524414	0.792209	city	5	1	0.447628	0.447628	0	1	0	0	CorrectCommission	1.256800	0.559417	1	1
184.316605	0.792177	city	4	1	0.596158	0.596158	0	1	0	0	CorrectCommission	0.134771	0.557318	1	1
185.108932	0.792462	city	6	1	0.596598	0.596598	0	1	0	0	CorrectCommission	0.131446	0.560044	1	1
185.901184	0.792052	city	10	1	0.645568	0.645568	0	1	0	0	CorrectCommission	0.238484	0.567547	1	1
186.693390	0.792369	city	3	1	0.695251	0.695251	0	1	0	0	CorrectCommission	0.613808	0.579597	1	0
187.485764	0.792373	city	1	1	0.546623	0.546623	0	1	0	0	CorrectCommission	0.508967	0.595706	1	0
188.277985	0.792046	city	9	1	0.596153	0.596153	0	1	0	0	CorrectCommission	0.134802	0.615071	1	0
189.070145	0.792272	city	1	1	0.546757	0.546757	0	1	0	0	CorrectCommission	0.507956	0.636651	1	0
189.862518	0.792475	city	2	1	0.497183	0.497183	0	1	0	0	CorrectCommission	0.882450	0.659208	1	0
190.654770	0.792050	city	3	1	0.447526	0.447526	0	1	0	0	CorrectCommission	1.257568	0.681514	1	0
191.446930	0.792262	city	2	1	0.497588	0.497588	0	1	0	0	CorrectCommission	0.879388	0.702462	0	0
192.239197	0.792266	city	4	1	0.562691	0.562691	0	1	0	0	CorrectCommission	0.387583	0.721243	0	0
193.031464	0.792265	city	9	1	0.450158	0.450158	0	1	0	0	CorrectCommission	1.237685	0.737418	0	0
193.823730	0.792264	city	4	1	0.497228	0.497228	0	1	0	0	CorrectCommission	0.882109	0.750812	0	0
194.615982	0.792265	city	1	1	0.547542	0.547542	0	1	0	0	CorrectCommission	0.502025	0.761561	0	0
195.408249	0.792268	city	5	1	0.510191	0.510191	0	1	0	0	CorrectCommission	0.784183	0.769954	0	0
196.200577	0.792370	mountain	6	0	0.000000	0.503583	1	0	0	0	CorrectOmission	0.834104	0.776335	0	0
196.992828	0.792154	city	1	1	0.555892	0.555892	0	1	0	0	CorrectCommission	0.438944	0.780983	0	0
197.785049	0.792288	city	8	1	0.695296	0.695296	0	1	0	0	CorrectCommission	0.614142	0.784119	0	0
198.577423	0.792460	city	7	1	0.546714	0.546714	0	1	0	0	CorrectCommission	0.508277	0.785903	0	0
199.369720	0.792122	mountain	1	1	0.447945	0.447945	0	0	1	0	CommissionError	1.254405	0.786532	0	0
200.161880	0.792201	city	3	1	0.447631	0.447631	0	1	0	0	CorrectCommission	1.256774	0.786305	0	0
200.954117	0.792252	city	6	1	0.798944	0.798944	0	1	0	0	CorrectCommission	1.397124	0.785706	0	0
201.746368	0.792273	city	1	1	0.655071	0.655071	0	1	0	0	CorrectCommission	0.310275	0.785420	0	0
202.538635	0.792260	city	9	1	0.511071	0.511071	0	1	0	0	CorrectCommission	0.777534	0.786270	0	0
203.330902	0.792263	city	10	1	0.646328	0.646328	0	1	0	0	CorrectCommission	0.244227	0.789036	0	0
204.123169	0.792267	city	6	1	0.746188	0.746188	0	1	0	0	CorrectCommission	0.998597	0.794312	0	0
204.915436	0.792280	city	10	1	0.546734	0.546734	0	1	0	0	CorrectCommission	0.508130	0.802290	0	0
205.707809	0.792465	city	9	1	0.497279	0.497279	0	1	0	0	CorrectCommission	0.881721	0.812695	0	0
206.500061	0.792049	city	2	1	0.605487	0.605487	0	1	0	0	CorrectCommission	0.064292	0.824620	0	0
207.292221	0.792263	city	4	1	0.744793	0.744793	0	1	0	0	CorrectCommission	0.988058	0.836680	0	0
208.084534	0.792373	city	3	1	0.844257	0.844257	0	1	0	0	CorrectCommission	1.739431	0.847045	0	0
208.876801	0.792158	city	1	1	0.663716	0.663716	0	1	0	0	CorrectCommission	0.375579	0.853764	0	0
209.669022	0.792271	city	2	1	0.546735	0.546735	0	1	0	0	CorrectCommission	0.508119	0.855066	0	0
210.461288	0.792258	city	9	1	0.744767	0.744767	0	1	0	0	CorrectCommission	0.987857	0.849578	0	0
211.253555	0.792294	city	7	1	0.951973	0.951973	0	1	0	0	CorrectCommission	2.553141	0.836593	0	0
212.045822	0.792238	city	1	1	0.710960	0.710960	0	1	0	0	CorrectCommission	0.732477	0.816211	0	0
212.838104	0.792325	city	9	1	0.511185	0.511185	0	1	0	0	CorrectCommission	0.776672	0.789406	0	0
213.630386	0.792245	city	7	1	0.497164	0.497164	0	1	0	0	CorrectCommission	0.882595	0.757813	0	0
214.422729	0.792439	city	9	1	0.546673	0.546673	0	1	0	0	CorrectCommission	0.508587	0.723520	0	0
215.215088	0.792265	city	2	1	0.549883	0.549883	0	1	0	0	CorrectCommission	0.484341	0.688759	1	0
216.007278	0.792104	city	1	1	0.546495	0.546495	0	1	0	0	CorrectCommission	0.509930	0.655535	1	0
216.799530	0.792425	city	10	1	0.546995	0.546995	0	1	0	0	CorrectCommission	0.506155	0.625346	1	0
217.591782	0.792057	city	1	1	0.596137	0.596137	0	1	0	0	CorrectCommission	0.134927	0.598997	1	0
218.383926	0.792254	city	5	1	0.645760	0.645760	0	1	0	0	CorrectCommission	0.239940	0.576552	1	0
219.176193	0.792266	city	4	1	0.645811	0.645811	0	1	0	0	CorrectCommission	0.240321	0.557421	1	0
219.968475	0.792295	city	10	1	0.546715	0.546715	0	1	0	0	CorrectCommission	0.508272	0.540596	1	0
220.760757	0.792268	city	6	1	0.843971	0.843971	0	1	0	0	CorrectCommission	1.737271	0.524957	1	0
221.553009	0.792230	city	3	1	0.601217	0.601217	0	1	0	0	CorrectCommission	0.096548	0.509537	1	0
222.345261	0.792272	city	7	1	0.447799	0.447799	0	1	0	0	CorrectCommission	1.255508	0.493902	1	0
223.137573	0.792366	city	1	1	0.596364	0.596364	0	1	0	0	CorrectCommission	0.133208	0.478245	1	0
223.929886	0.792265	city	5	1	0.695152	0.695152	0	1	0	0	CorrectCommission	0.613059	0.463551	1	0
224.722153	0.792267	city	7	1	0.645664	0.645664	0	1	0	0	CorrectCommission	0.239214	0.451454	1	0
225.514359	0.792154	city	4	1	0.657507	0.657507	0	1	0	0	CorrectCommission	0.328680	0.444082	1	0
226.306580	0.792268	city	7	1	0.596293	0.596293	0	1	0	0	CorrectCommission	0.133750	0.443813	1	0
227.098846	0.792261	city	5	1	0.546778	0.546778	0	1	0	0	CorrectCommission	0.507796	0.452924	1	0
227.891098	0.792268	city	10	1	0.596265	0.596265	0	1	0	0	CorrectCommission	0.133959	0.473244	1	0
228.683426	0.792372	mountain	2	0	0.000000	0.620832	1	0	0	0	CorrectOmission	0.051625	0.505819	1	0
229.475723	0.792217	city	5	1	0.596158	0.596158	0	1	0	0	CorrectCommission	0.134764	0.550709	1	0
230.267990	0.792310	city	2	1	0.497925	0.497925	0	1	0	0	CorrectCommission	0.876843	0.606766	1	0
231.060272	0.792267	city	3	1	0.596497	0.596497	0	1	0	0	CorrectCommission	0.132206	0.671595	1	0
231.852539	0.792262	city	4	1	0.549298	0.549298	0	1	0	0	CorrectCommission	0.488760	0.741707	0	0
232.644745	0.792158	city	5	1	0.546635	0.546635	0	1	0	0	CorrectCommission	0.508876	0.812702	0	0
233.437073	0.792482	city	2	1	0.503890	0.503890	0	1	0	0	CorrectCommission	0.831783	0.879740	0	0
234.229340	0.792049	city	6	1	0.546521	0.546521	0	1	0	0	CorrectCommission	0.509736	0.938013	0	0
235.021545	0.792371	city	3	1	0.348639	0.348639	0	1	0	0	CorrectCommission	2.004583	0.983384	0	0
235.813919	0.792374	city	4	1	0.992284	0.992284	0	1	0	0	CorrectCommission	2.857663	1.012785	0	0
236.606125	0.792048	city	6	0	0.000000	0.869985	0	0	0	1	OmissionError	1.933789	1.024722	0	0
237.398392	0.792480	city	7	1	0.503361	0.503361	0	1	0	0	CorrectCommission	0.835779	1.019462	0	0
238.190674	0.792074	city	10	1	0.414029	0.414029	0	1	0	0	CorrectCommission	1.510611	0.998921	0	0
238.982849	0.792301	city	1	1	0.497144	0.497144	0	1	0	0	CorrectCommission	0.882743	0.966395	0	0
239.775101	0.792203	city	2	1	0.497144	0.497144	0	1	0	0	CorrectCommission	0.882739	0.926132	0	0
240.567337	0.792264	city	9	1	0.596654	0.596654	0	1	0	0	CorrectCommission	0.131023	0.882672	0	0
241.359665	0.792373	city	3	1	0.546808	0.546808	0	1	0	0	CorrectCommission	0.507566	0.840342	0	0
242.151932	0.792157	city	2	1	0.546656	0.546656	0	1	0	0	CorrectCommission	0.508718	0.802713	0	0
242.944183	0.792371	city	10	1	0.513374	0.513374	0	1	0	0	CorrectCommission	0.760135	0.772304	0	0
243.736481	0.792215	city	2	1	0.657162	0.657162	0	1	0	0	CorrectCommission	0.326070	0.750418	0	0
244.528687	0.792209	city	4	1	0.745028	0.745028	0	1	0	0	CorrectCommission	0.989835	0.737170	0	0
245.320923	0.792262	city	8	1	0.648271	0.648271	0	1	0	0	CorrectCommission	0.258908	0.731624	0	0
246.113297	0.792483	mountain	8	0	0.000000	0.705216	1	0	0	0	CorrectOmission	0.689082	0.732089	0	1
246.905563	0.792049	city	4	1	0.744881	0.744881	0	1	0	0	CorrectCommission	0.988722	0.736447	0	1
247.697784	0.792371	city	8	1	0.596285	0.596285	0	1	0	0	CorrectCommission	0.133809	0.742421	0	1
248.490036	0.792156	city	10	1	0.447602	0.447602	0	1	0	0	CorrectCommission	1.256992	0.747978	0	1
249.282257	0.792265	city	3	1	0.504012	0.504012	0	1	0	0	CorrectCommission	0.830863	0.751463	0	1
250.074539	0.792298	city	7	1	0.306026	0.306026	0	1	0	0	CorrectCommission	2.326495	0.751809	0	1
250.866913	0.792450	city	8	1	0.596211	0.596211	0	1	0	0	CorrectCommission	0.134364	0.748493	0	1
251.659149	0.792050	city	4	1	0.546517	0.546517	0	1	0	0	CorrectCommission	0.509769	0.741626	0	1
252.451309	0.792265	city	5	1	0.546837	0.546837	0	1	0	0	CorrectCommission	0.507350	0.731652	0	1
253.243576	0.792265	city	7	1	0.614983	0.614983	0	1	0	0	CorrectCommission	0.007438	0.719287	0	1
254.035889	0.792369	city	10	1	0.596239	0.596239	0	1	0	0	CorrectCommission	0.134153	0.705420	0	1
254.828156	0.792157	city	3	1	1.000925	1.000925	0	1	0	0	CorrectCommission	2.922936	0.690945	1	1
255.620422	0.792371	city	9	1	0.645735	0.645735	0	1	0	0	CorrectCommission	0.239750	0.676620	1	1
256.412689	0.792159	city	5	1	0.508601	0.508601	0	1	0	0	CorrectCommission	0.796196	0.663183	1	1
257.204956	0.792373	city	2	1	0.596353	0.596353	0	1	0	0	CorrectCommission	0.133291	0.651115	1	1
257.997223	0.792155	city	10	1	0.597090	0.597090	0	1	0	0	CorrectCommission	0.127725	0.640724	1	1
258.789429	0.792269	city	5	1	0.645762	0.645762	0	1	0	0	CorrectCommission	0.239950	0.632108	1	1
259.581757	0.792369	city	10	1	0.499819	0.499819	0	1	0	0	CorrectCommission	0.862533	0.625211	1	1
260.374054	0.792264	city	6	1	0.707447	0.707447	0	1	0	0	CorrectCommission	0.705936	0.619930	1	1
261.166290	0.792160	city	7	1	0.645624	0.645624	0	1	0	0	CorrectCommission	0.238913	0.616199	1	1
261.958557	0.792371	city	5	1	0.907491	0.907491	0	1	0	0	CorrectCommission	2.217119	0.614122	1	1
262.750824	0.792167	city	10	1	0.596132	0.596132	0	1	0	0	CorrectCommission	0.134964	0.613987	1	1
263.543030	0.792253	city	6	1	0.661404	0.661404	0	1	0	0	CorrectCommission	0.358114	0.616371	1	1
264.335297	0.792296	city	9	1	0.546727	0.546727	0	1	0	0	CorrectCommission	0.508182	0.621945	1	1
265.127563	0.792244	city	10	1	0.650739	0.650739	0	1	0	0	CorrectCommission	0.277549	0.631432	1	1
265.919830	0.792254	city	5	1	0.646067	0.646067	0	1	0	0	CorrectCommission	0.242254	0.645401	1	1
266.712067	0.792263	city	4	1	0.794400	0.794400	0	1	0	0	CorrectCommission	1.362798	0.664129	1	1
267.504333	0.792268	city	8	1	0.604834	0.604834	0	1	0	0	CorrectCommission	0.069230	0.687407	1	1
268.296631	0.792291	city	2	1	0.611884	0.611884	0	1	0	0	CorrectCommission	0.015968	0.714626	0	1
269.088928	0.792350	city	6	1	0.794620	0.794620	0	1	0	0	CorrectCommission	1.364458	0.744634	0	1
269.881195	0.792150	city	1	1	0.704563	0.704563	0	1	0	0	CorrectCommission	0.684150	0.775846	0	1
270.673401	0.792270	mountain	9	0	0.000000	0.729133	1	0	0	0	CorrectOmission	0.869757	0.806399	0	1
271.465759	0.792479	mountain	4	0	0.000000	0.773940	1	0	0	0	CorrectOmission	1.208237	0.834311	0	1
272.258026	0.792050	city	4	1	0.744593	0.744593	0	1	0	0	CorrectCommission	0.986546	0.857602	0	1
273.050201	0.792279	city	5	1	0.546704	0.546704	0	1	0	0	CorrectCommission	0.508357	0.874604	0	1
273.842468	0.792247	city	8	1	0.497206	0.497206	0	1	0	0	CorrectCommission	0.882274	0.884081	0	1
274.634735	0.792268	city	1	1	0.505746	0.505746	0	1	0	0	CorrectCommission	0.817757	0.885406	0	1
275.427094	0.792478	city	10	1	0.942866	0.942866	0	1	0	0	CorrectCommission	2.484345	0.878624	0	1
276.219391	0.792122	city	1	1	0.558147	0.558147	0	1	0	0	CorrectCommission	0.421909	0.864450	0	1
277.011566	0.792194	city	5	1	0.461263	0.461263	0	1	0	0	CorrectCommission	1.153796	0.844299	0	1
277.803772	0.792263	city	1	1	0.447693	0.447693	0	1	0	0	CorrectCommission	1.256304	0.820010	0	1
278.596069	0.792289	city	2	1	0.546830	0.546830	0	1	0	0	CorrectCommission	0.507406	0.793681	0	1
279.388336	0.792242	city	10	1	0.612725	0.612725	0	1	0	0	CorrectCommission	0.009617	0.767361	0	1
280.180634	0.792369	mountain	1	0	0.000000	0.692739	1	0	0	0	CorrectOmission	0.594826	0.742839	0	1
280.972900	0.792156	city	4	1	0.699781	0.699781	0	1	0	0	CorrectCommission	0.648026	0.721408	0	1
281.765106	0.792270	city	1	1	0.546762	0.546762	0	1	0	0	CorrectCommission	0.507917	0.703775	0	1
282.557373	0.792263	city	5	1	0.596236	0.596236	0	1	0	0	CorrectCommission	0.134180	0.690076	1	1
283.349640	0.792297	city	10	1	0.447661	0.447661	0	1	0	0	CorrectCommission	1.256550	0.679963	1	1
284.141907	0.792228	city	4	1	0.546791	0.546791	0	1	0	0	CorrectCommission	0.507698	0.672697	1	1
284.934204	0.792375	city	2	1	0.398177	0.398177	0	1	0	0	CorrectCommission	1.630364	0.667420	1	1
285.726471	0.792157	city	9	1	0.596109	0.596109	0	1	0	0	CorrectCommission	0.135138	0.663200	1	1
286.518799	0.792482	city	4	1	0.497203	0.497203	0	1	0	0	CorrectCommission	0.882299	0.659179	1	1
287.311096	0.792115	mountain	5	0	0.000000	0.568838	1	0	0	0	CorrectOmission	0.341149	0.654588	1	1
288.103271	0.792198	mountain	9	1	0.645845	0.645845	0	0	1	0	CommissionError	0.240583	0.648811	1	1
288.895599	0.792481	city	10	1	0.563056	0.563056	0	1	0	0	CorrectCommission	0.384830	0.641348	1	1
289.687866	0.792078	city	1	1	0.350647	0.350647	0	1	0	0	CorrectCommission	1.989417	0.631838	1	1
290.480042	0.792237	city	7	1	0.645837	0.645837	0	1	0	0	CorrectCommission	0.240519	0.620047	1	1
291.272278	0.792269	city	3	1	0.601249	0.601249	0	1	0	0	CorrectCommission	0.096307	0.606006	1	1
292.064545	0.792255	city	9	1	0.555770	0.555770	0	1	0	0	CorrectCommission	0.439866	0.589977	1	1
292.856812	0.792266	city	1	1	0.794330	0.794330	0	1	0	0	CorrectCommission	1.362270	0.572478	1	1
293.649170	0.792482	city	10	1	0.508768	0.508768	0	1	0	0	CorrectCommission	0.794935	0.554408	1	1
294.441437	0.792050	city	4	1	0.546841	0.546841	0	1	0	0	CorrectCommission	0.507320	0.536911	1	1
295.233612	0.792297	city	7	1	0.645735	0.645735	0	1	0	0	CorrectCommission	0.239746	0.521398	1	1
296.025879	0.792232	city	9	1	0.695832	0.695832	0	1	0	0	CorrectCommission	0.618192	0.509398	1	1
296.818146	0.792272	city	1	1	0.596216	0.596216	0	1	0	0	CorrectCommission	0.134326	0.502460	1	1
297.610413	0.792258	mountain	1	0	0.000000	0.580701	1	0	0	0	CorrectOmission	0.251531	0.502036	1	1
298.402771	0.792480	city	1	1	0.610178	0.610178	0	1	0	0	CorrectCommission	0.028860	0.509410	1	1
299.195068	0.792095	city	7	1	0.645536	0.645536	0	1	0	0	CorrectCommission	0.238247	0.525677	1	1
299.987213	0.792221	city	1	1	0.497180	0.497180	0	1	0	0	CorrectCommission	0.882470	0.551720	1	1
300.779480	0.792288	city	3	1	0.497160	0.497160	0	1	0	0	CorrectCommission	0.882623	0.588172	1	1
301.571869	0.792509	city	4	1	0.614457	0.614457	0	1	0	0	CorrectCommission	0.003469	0.635439	1	1
302.364136	0.791994	city	8	1	0.558782	0.558782	0	1	0	0	CorrectCommission	0.417115	0.693555	1	1
303.156311	0.792371	city	1	1	0.744815	0.744815	0	1	0	0	CorrectCommission	0.988222	0.762034	0	1
303.948578	0.792155	city	9	1	0.744846	0.744846	0	1	0	0	CorrectCommission	0.988458	0.839645	0	1
304.740784	0.792281	city	6	1	0.744765	0.744765	0	1	0	0	CorrectCommission	0.987842	0.924238	0	1
305.533051	0.792249	city	9	1	0.645759	0.645759	0	1	0	0	CorrectCommission	0.239932	1.012562	0	0
306.325317	0.792264	city	4	1	0.555993	0.555993	0	1	0	0	CorrectCommission	0.438186	1.100271	0	0
307.117615	0.792374	mountain	2	0	0.000000	0.544682	1	0	0	0	CorrectOmission	0.523626	1.182055	0	0
307.909882	0.792158	city	2	1	0.695320	0.695320	0	1	0	0	CorrectCommission	0.614323	1.252102	0	0
308.702209	0.792481	city	6	1	1.091396	1.091396	0	1	0	0	CorrectCommission	3.606377	1.304706	0	0
309.494476	0.792047	city	5	1	0.695546	0.695546	0	1	0	0	CorrectCommission	0.616034	1.334947	0	0
310.286652	0.792268	city	7	1	1.061848	1.061848	0	1	0	0	CorrectCommission	3.383162	1.339582	0	0
311.079010	0.792478	city	8	1	1.041888	1.041888	0	1	0	0	CorrectCommission	3.232385	1.317431	0	0
311.871307	0.792107	city	4	1	0.992134	0.992134	0	1	0	0	CorrectCommission	2.856532	1.269795	0	0
312.663574	0.792421	city	5	0	0.000000	0.753207	0	0	0	1	OmissionError	1.051621	1.200317	0	0
313.455811	0.792071	city	3	1	0.547215	0.547215	0	1	0	0	CorrectCommission	0.504491	1.114562	0	0
314.248077	0.792460	city	1	1	0.596266	0.596266	0	1	0	0	CorrectCommission	0.133948	1.019234	0	0
315.040344	0.792046	city	5	1	0.596062	0.596062	0	1	0	0	CorrectCommission	0.135490	0.921331	0	0
315.832489	0.792266	city	9	1	0.556561	0.556561	0	1	0	0	CorrectCommission	0.433894	0.827308	0	0
316.624756	0.792263	city	2	1	0.513773	0.513773	0	1	0	0	CorrectCommission	0.757124	0.742385	0	0
317.417023	0.792264	mountain	1	0	0.000000	0.553749	1	0	0	0	CorrectOmission	0.455134	0.670103	1	0
318.209290	0.792285	city	8	1	0.607923	0.607923	0	1	0	0	CorrectCommission	0.045893	0.612194	1	0
319.001556	0.792247	city	9	1	0.607727	0.607727	0	1	0	0	CorrectCommission	0.047370	0.568675	1	0
319.793823	0.792264	city	3	1	0.547864	0.547864	0	1	0	0	CorrectCommission	0.499595	0.538135	1	0
320.586060	0.792264	city	8	1	0.548456	0.548456	0	1	0	0	CorrectCommission	0.495122	0.518191	1	0
321.378357	0.792324	city	7	1	0.546704	0.546704	0	1	0	0	CorrectCommission	0.508358	0.505970	1	0
322.170654	0.792270	city	5	1	0.448150	0.448150	0	1	0	0	CorrectCommission	1.252856	0.498562	1	0
322.962952	0.792309	city	2	1	0.546586	0.546586	0	1	0	0	CorrectCommission	0.509249	0.493426	1	0
323.755188	0.792188	city	1	1	0.552709	0.552709	0	1	0	0	CorrectCommission	0.462995	0.488641	1	0
324.547424	0.792234	city	3	1	0.661823	0.661823	0	1	0	0	CorrectCommission	0.361283	0.483045	1	0
325.339661	0.792266	city	8	1	0.596265	0.596265	0	1	0	0	CorrectCommission	0.133958	0.476310	1	0
326.131958	0.792329	city	1	1	0.497471	0.497471	0	1	0	0	CorrectCommission	0.880273	0.468800	1	0
326.924225	0.792208	city	8	1	0.546690	0.546690	0	1	0	0	CorrectCommission	0.508459	0.461564	1	0
327.716583	0.792475	city	9	1	0.645772	0.645772	0	1	0	0	CorrectCommission	0.240027	0.456065	1	0
328.508820	0.792043	city	3	1	0.496987	0.496987	0	1	0	0	CorrectCommission	0.883930	0.453997	1	0
329.301086	0.792485	city	9	1	0.549552	0.549552	0	1	0	0	CorrectCommission	0.486842	0.457050	1	0
330.093353	0.792047	city	1	1	0.596016	0.596016	0	1	0	0	CorrectCommission	0.135843	0.466707	1	0
330.885529	0.792305	city	7	1	0.603411	0.603411	0	1	0	0	CorrectCommission	0.079973	0.483956	1	0
331.677826	0.792295	city	9	1	0.603074	0.603074	0	1	0	0	CorrectCommission	0.082519	0.509126	1	0
332.470093	0.792197	city	4	1	0.602963	0.602963	0	1	0	0	CorrectCommission	0.083357	0.541762	1	0
333.262360	0.792370	city	6	1	0.546739	0.546739	0	1	0	0	CorrectCommission	0.508089	0.580611	1	0
334.054688	0.792263	mountain	2	0	0.000000	0.572887	1	0	0	0	CorrectOmission	0.310562	0.623728	1	0
334.846954	0.792292	city	7	1	0.562853	0.562853	0	1	0	0	CorrectCommission	0.386361	0.668705	1	0
335.639160	0.792129	mountain	3	1	0.398083	0.398083	0	0	1	0	CommissionError	1.631072	0.712922	0	0
336.431366	0.792266	city	5	1	0.448469	0.448469	0	1	0	0	CorrectCommission	1.250447	0.753840	0	0
337.223663	0.792327	city	4	1	0.497196	0.497196	0	1	0	0	CorrectCommission	0.882346	0.789334	0	0
338.015930	0.792201	city	3	1	0.353228	0.353228	0	1	0	0	CorrectCommission	1.969916	0.817843	0	0
338.808167	0.792266	city	1	1	0.596295	0.596295	0	1	0	0	CorrectCommission	0.133730	0.838532	0	0
339.600525	0.792481	city	8	1	0.596213	0.596213	0	1	0	0	CorrectCommission	0.134348	0.851402	0	0
340.392914	0.792265	mountain	1	1	0.497136	0.497136	0	0	1	0	CommissionError	0.882805	0.857301	0	0
341.185059	0.792049	city	6	1	0.496972	0.496972	0	1	0	0	CorrectCommission	0.884043	0.857909	0	0
341.977234	0.792264	city	4	1	0.348702	0.348702	0	1	0	0	CorrectCommission	2.004111	0.855722	0	0
342.769501	0.792302	city	6	1	0.447756	0.447756	0	1	0	0	CorrectCommission	1.255829	0.853908	0	0
343.561798	0.792311	city	9	1	0.596114	0.596114	0	1	0	0	CorrectCommission	0.135097	0.856069	0	0
344.354065	0.792181	city	1	1	0.745006	0.745006	0	1	0	0	CorrectCommission	0.989664	0.865969	0	0
345.146271	0.792262	city	7	1	0.744836	0.744836	0	1	0	0	CorrectCommission	0.988378	0.886945	0	0
345.938538	0.792265	city	1	1	0.596249	0.596249	0	1	0	0	CorrectCommission	0.134080	0.921484	0	0
346.730927	0.792484	city	3	1	0.695383	0.695383	0	1	0	0	CorrectCommission	0.614800	0.970735	0	0
347.523224	0.792096	city	10	1	0.546419	0.546419	0	1	0	0	CorrectCommission	0.510505	1.034077	0	0
348.315369	0.792215	mountain	6	0	0.000000	0.606807	1	0	0	0	CorrectOmission	0.054324	1.108958	0	0
349.107605	0.792269	city	3	1	0.661931	0.661931	0	1	0	0	CorrectCommission	0.362096	1.191011	0	0
349.899872	0.792260	city	10	1	0.497177	0.497177	0	1	0	0	CorrectCommission	0.882491	1.274460	0	0
350.692139	0.792264	city	9	1	0.497267	0.497267	0	1	0	0	CorrectCommission	0.881811	1.352838	0	0
351.484406	0.792276	city	4	1	0.912547	0.912547	0	1	0	0	CorrectCommission	2.255310	1.419891	0	0
352.276672	0.792257	mountain	10	1	1.200668	1.200668	0	0	1	0	CommissionError	4.431841	1.470411	0	0
353.068939	0.792261	city	9	1	1.041876	1.041876	0	1	0	0	CorrectCommission	3.232294	1.500926	0	0
353.861206	0.792265	city	5	1	1.041868	1.041868	0	1	0	0	CorrectCommission	3.232233	1.510179	0	0
354.653503	0.792332	city	2	1	0.709127	0.709127	0	1	0	0	CorrectCommission	0.718628	1.498987	0	0
355.445801	0.792308	city	6	1	0.695257	0.695257	0	1	0	0	CorrectCommission	0.613851	1.469895	0	0
356.238068	0.792181	city	3	1	0.596139	0.596139	0	1	0	0	CorrectCommission	0.134911	1.426476	0	0
357.030304	0.792347	city	10	1	0.555901	0.555901	0	1	0	0	CorrectCommission	0.438880	1.372622	0	0
357.822693	0.792373	city	2	1	0.900887	0.900887	0	1	0	0	CorrectCommission	2.167226	1.311880	0	0
358.614929	0.792157	mountain	4	1	0.546917	0.546917	0	0	1	0	CommissionError	0.506743	1.247021	0	0
359.407196	0.792374	city	4	1	1.041865	1.041865	0	1	0	0	CorrectCommission	3.232206	1.179946	0	0
360.199432	0.792044	city	7	1	0.695286	0.695286	0	1	0	0	CorrectCommission	0.614066	1.111660	0	0
360.991638	0.792374	city	1	1	0.645772	0.645772	0	1	0	0	CorrectCommission	0.240031	1.042713	0	0
361.783905	0.792159	city	5	1	0.745222	0.745222	0	1	0	0	CorrectCommission	0.991295	0.973385	0	0
362.576172	0.792372	city	7	1	0.844173	0.844173	0	1	0	0	CorrectCommission	1.738800	0.904011	0	0
363.368530	0.792372	city	1	1	0.760808	0.760808	0	1	0	0	CorrectCommission	1.109034	0.835283	0	0
364.160736	0.792048	city	9	1	0.744579	0.744579	0	1	0	0	CorrectCommission	0.986438	0.768352	0	0
364.952942	0.792374	city	1	1	0.596345	0.596345	0	1	0	0	CorrectCommission	0.133357	0.704765	0	1
365.745331	0.792372	city	9	1	0.648254	0.648254	0	1	0	0	CorrectCommission	0.258775	0.646374	1	1
366.537659	0.792266	city	8	1	0.548258	0.548258	0	1	0	0	CorrectCommission	0.496612	0.595066	1	1
367.329865	0.792155	city	3	1	0.602885	0.602885	0	1	0	0	CorrectCommission	0.083947	0.552546	1	1
368.122009	0.792155	city	7	1	0.645652	0.645652	0	1	0	0	CorrectCommission	0.239122	0.520106	1	1
368.914276	0.792373	city	10	1	0.497771	0.497771	0	1	0	0	CorrectCommission	0.878004	0.498408	1	1
369.706635	0.792375	city	4	1	0.645671	0.645671	0	1	0	0	CorrectCommission	0.239265	0.487367	1	1
370.498962	0.792265	city	2	1	0.596034	0.596034	0	1	0	0	CorrectCommission	0.135707	0.486194	1	1
371.291168	0.792155	city	3	1	0.596246	0.596246	0	1	0	0	CorrectCommission	0.134103	0.493423	1	1
372.083374	0.792219	city	1	1	0.645864	0.645864	0	1	0	0	CorrectCommission	0.240726	0.507041	1	1
372.875580	0.792204	mountain	10	0	0.000000	0.703147	1	0	0	0	CorrectOmission	0.673455	0.524695	1	1
373.667847	0.792326	city	2	1	0.695292	0.695292	0	1	0	0	CorrectCommission	0.614116	0.543914	1	1
374.460114	0.792202	city	3	1	0.549497	0.549497	0	1	0	0	CorrectCommission	0.487254	0.562390	1	1
375.252350	0.792265	city	2	1	0.753674	0.753674	0	1	0	0	CorrectCommission	1.055144	0.578180	1	1
376.044617	0.792264	city	1	1	0.706611	0.706611	0	1	0	0	CorrectCommission	0.699624	0.589969	1	1
376.836884	0.792269	city	9	1	0.794393	0.794393	0	1	0	0	CorrectCommission	1.362745	0.597125	1	1
377.629150	0.792265	city	1	1	0.659639	0.659639	0	1	0	0	CorrectCommission	0.344784	0.599739	1	1
378.421509	0.792479	city	5	1	0.695401	0.695401	0	1	0	0	CorrectCommission	0.614935	0.598580	1	1
379.213776	0.792047	city	3	1	0.744623	0.744623	0	1	0	0	CorrectCommission	0.986772	0.594848	1	1
380.005951	0.792327	city	9	1	0.645781	0.645781	0	1	0	0	CorrectCommission	0.240100	0.589997	1	1
380.798218	0.792200	city	4	1	0.596683	0.596683	0	1	0	0	CorrectCommission	0.130804	0.585502	1	1
381.590515	0.792372	city	6	1	0.596879	0.596879	0	1	0	0	CorrectCommission	0.129318	0.582649	1	1
382.382782	0.792159	city	2	1	0.744781	0.744781	0	1	0	0	CorrectCommission	0.987966	0.582395	1	1
383.175049	0.792372	city	7	1	0.695298	0.695298	0	1	0	0	CorrectCommission	0.614162	0.585253	1	1
383.967316	0.792155	city	10	1	0.645654	0.645654	0	1	0	0	CorrectCommission	0.239134	0.591338	1	1
384.759521	0.792265	city	5	1	0.695478	0.695478	0	1	0	0	CorrectCommission	0.615519	0.600401	1	1
385.551788	0.792267	city	10	1	0.645800	0.645800	0	1	0	0	CorrectCommission	0.240237	0.611898	1	1
386.344055	0.792265	city	7	1	0.857524	0.857524	0	1	0	0	CorrectCommission	1.839653	0.625079	1	1
387.136322	0.792266	city	4	1	0.598291	0.598291	0	1	0	0	CorrectCommission	0.118658	0.639043	1	1
387.928589	0.792263	city	1	1	0.497223	0.497223	0	1	0	0	CorrectCommission	0.882149	0.652877	1	1
388.720856	0.792305	city	7	1	0.649793	0.649793	0	1	0	0	CorrectCommission	0.270402	0.665579	1	1
389.513123	0.792223	city	9	1	0.645694	0.645694	0	1	0	0	CorrectCommission	0.239440	0.676196	1	1
390.305359	0.792263	city	5	1	0.560562	0.560562	0	1	0	0	CorrectCommission	0.403671	0.683830	1	1
391.097626	0.792267	mountain	7	1	0.458698	0.458698	0	0	1	0	CommissionError	1.173171	0.687794	1	1
391.889893	0.792268	city	9	1	0.856613	0.856613	0	1	0	0	CorrectCommission	1.832772	0.687687	1	1
392.682281	0.792477	city	7	1	0.546715	0.546715	0	1	0	0	CorrectCommission	0.508269	0.683537	1	1
393.474640	0.792266	city	4	1	0.546876	0.546876	0	1	0	0	CorrectCommission	0.507054	0.675903	1	1
394.266815	0.792051	city	1	1	0.550127	0.550127	0	1	0	0	CorrectCommission	0.482495	0.665804	1	1
395.058960	0.792262	city	6	1	0.794428	0.794428	0	1	0	0	CorrectCommission	1.363011	0.654698	1	1
395.851227	0.792262	city	8	1	0.609876	0.609876	0	1	0	0	CorrectCommission	0.031135	0.644257	1	1
396.643585	0.792484	city	2	1	0.695778	0.695778	0	1	0	0	CorrectCommission	0.617785	0.636188	1	1
397.435974	0.792264	city	4	1	0.744578	0.744578	0	1	0	0	CorrectCommission	0.986429	0.631913	1	1
398.228119	0.792048	city	6	1	0.645551	0.645551	0	1	0	0	CorrectCommission	0.238360	0.632305	1	1
399.020294	0.792265	city	4	1	0.645761	0.645761	0	1	0	0	CorrectCommission	0.239947	0.637510	1	1
399.812653	0.792480	city	8	1	0.645737	0.645737	0	1	0	0	CorrectCommission	0.239760	0.646795	1	1
400.604919	0.792066	city	2	1	0.663438	0.663438	0	1	0	0	CorrectCommission	0.373483	0.658622	1	1
401.397125	0.792354	city	8	1	0.596398	0.596398	0	1	0	0	CorrectCommission	0.132953	0.670848	1	1
402.189392	0.792158	city	9	1	0.511280	0.511280	0	1	0	0	CorrectCommission	0.775953	0.681034	1	1
402.981659	0.792373	city	5	1	0.407249	0.407249	0	1	0	0	CorrectCommission	1.561828	0.686850	1	1
403.773987	0.792264	city	3	1	0.412257	0.412257	0	1	0	0	CorrectCommission	1.524000	0.686454	1	1
404.566315	0.792379	city	8	1	0.399645	0.399645	0	1	0	0	CorrectCommission	1.619274	0.678886	1	1
405.358612	0.792261	city	6	1	0.647347	0.647347	0	1	0	0	CorrectCommission	0.251925	0.664151	1	1
406.150787	0.792099	city	5	1	0.745479	0.745479	0	1	0	0	CorrectCommission	0.993235	0.643265	1	1
406.942963	0.792213	city	10	1	0.647481	0.647481	0	1	0	0	CorrectCommission	0.252936	0.617979	1	1
407.735229	0.792344	city	2	1	0.699166	0.699166	0	1	0	0	CorrectCommission	0.643378	0.590525	1	1
408.527496	0.792181	city	9	1	0.645837	0.645837	0	1	0	0	CorrectCommission	0.240522	0.563168	1	1
409.319763	0.792375	city	4	1	0.604839	0.604839	0	1	0	0	CorrectCommission	0.069187	0.537883	1	1
410.112030	0.792160	city	8	1	0.645641	0.645641	0	1	0	0	CorrectCommission	0.239037	0.516111	1	1
410.904266	0.792309	city	10	1	0.597329	0.597329	0	1	0	0	CorrectCommission	0.125919	0.498641	1	1
411.696533	0.792216	city	1	1	0.611842	0.611842	0	1	0	0	CorrectCommission	0.016289	0.485629	1	1
412.488800	0.792293	city	9	1	0.794331	0.794331	0	1	0	0	CorrectCommission	1.362275	0.476719	1	1
413.281067	0.792237	mountain	10	0	0.000000	0.759679	1	0	0	0	CorrectOmission	1.100509	0.471303	1	1
414.073303	0.792265	city	5	1	0.664017	0.664017	0	1	0	0	CorrectCommission	0.377858	0.468748	1	1
414.865570	0.792265	city	1	1	0.663476	0.663476	0	1	0	0	CorrectCommission	0.373767	0.468540	1	1
415.657898	0.792373	city	8	1	0.596304	0.596304	0	1	0	0	CorrectCommission	0.133668	0.470433	1	1
416.450165	0.792158	city	5	1	0.547374	0.547374	0	1	0	0	CorrectCommission	0.503293	0.474437	1	1
417.242371	0.792264	city	1	1	0.596302	0.596302	0	1	0	0	CorrectCommission	0.133683	0.480783	1	1
418.034637	0.792262	mountain	1	0	0.000000	0.644442	1	0	0	0	CorrectOmission	0.229980	0.489874	1	1
418.826935	0.792331	city	7	1	0.695287	0.695287	0	1	0	0	CorrectCommission	0.614076	0.502160	1	1
419.619202	0.792227	city	6	1	0.752329	0.752329	0	1	0	0	CorrectCommission	1.044982	0.518007	1	1
420.411438	0.792237	city	5	1	0.546704	0.546704	0	1	0	0	CorrectCommission	0.508354	0.537677	1	1
421.203735	0.792320	city	2	1	0.645732	0.645732	0	1	0	0	CorrectCommission	0.239724	0.561253	1	1
421.995972	0.792209	city	7	1	0.546698	0.546698	0	1	0	0	CorrectCommission	0.508401	0.588567	1	1
422.788239	0.792270	city	5	1	0.546779	0.546779	0	1	0	0	CorrectCommission	0.507787	0.619224	1	1
423.580597	0.792478	city	2	1	0.549199	0.549199	0	1	0	0	CorrectCommission	0.489510	0.652624	1	1
424.372864	0.792050	city	5	1	0.596077	0.596077	0	1	0	0	CorrectCommission	0.135376	0.688076	1	0
425.165131	0.792479	city	10	1	0.663529	0.663529	0	1	0	0	CorrectCommission	0.374170	0.724916	0	0
425.957397	0.792046	city	1	1	0.853392	0.853392	0	1	0	0	CorrectCommission	1.808437	0.762615	0	0
426.749542	0.792266	city	6	1	0.794308	0.794308	0	1	0	0	CorrectCommission	1.362105	0.800854	0	0
427.541809	0.792265	city	9	1	0.645758	0.645758	0	1	0	0	CorrectCommission	0.239922	0.839611	0	0
428.334076	0.792269	city	2	1	0.794666	0.794666	0	1	0	0	CorrectCommission	1.364807	0.879080	0	0
429.126343	0.792260	city	8	1	0.794298	0.794298	0	1	0	0	CorrectCommission	1.362029	0.919459	0	0
429.918610	0.792269	city	6	1	0.596240	0.596240	0	1	0	0	CorrectCommission	0.134149	0.960751	0	0
430.710968	0.792479	city	8	1	0.459497	0.459497	0	1	0	0	CorrectCommission	1.167138	1.002548	0	0
431.503235	0.792052	city	4	1	0.565193	0.565193	0	1	0	0	CorrectCommission	0.368688	1.043769	0	0
432.295410	0.792260	city	7	1	0.645744	0.645744	0	1	0	0	CorrectCommission	0.239819	1.082703	0	0
433.087677	0.792264	mountain	8	0	0.000000	0.789144	1	0	0	0	CorrectOmission	1.323091	1.117010	0	0
433.879944	0.792307	city	1	1	0.843866	0.843866	0	1	0	0	CorrectCommission	1.736474	1.144018	0	0
434.672241	0.792265	city	2	1	0.658385	0.658385	0	1	0	0	CorrectCommission	0.335311	1.161141	0	0
435.464478	0.792223	city	8	1	1.001627	1.001627	0	1	0	0	CorrectCommission	2.928243	1.166350	0	0
436.256714	0.792265	city	5	1	0.992342	0.992342	0	1	0	0	CorrectCommission	2.858100	1.158433	0	0
437.048981	0.792264	city	1	0	0.000000	0.850760	0	0	0	1	OmissionError	1.788555	1.137362	0	0
437.841370	0.792483	city	2	1	0.695579	0.695579	0	1	0	0	CorrectCommission	0.616281	1.104306	0	0
438.633636	0.792048	city	8	1	0.645497	0.645497	0	1	0	0	CorrectCommission	0.237950	1.061422	0	0
439.425781	0.792265	city	5	1	0.551449	0.551449	0	1	0	0	CorrectCommission	0.472511	1.011538	0	0
440.218109	0.792373	city	8	1	0.794329	0.794329	0	1	0	0	CorrectCommission	1.362261	0.957747	0	0
441.010376	0.792156	city	2	1	0.751604	0.751604	0	1	0	0	CorrectCommission	1.039509	0.903012	0	0
441.802673	0.792482	city	3	1	0.695305	0.695305	0	1	0	0	CorrectCommission	0.614214	0.849898	0	0
442.594971	0.792112	city	10	1	0.649700	0.649700	0	1	0	0	CorrectCommission	0.269705	0.800335	0	0
443.387238	0.792417	city	4	1	0.713257	0.713257	0	1	0	0	CorrectCommission	0.749828	0.755544	0	0
444.179474	0.792053	city	8	1	0.744583	0.744583	0	1	0	0	CorrectCommission	0.986474	0.716089	0	0
444.971649	0.792261	city	4	1	0.695242	0.695242	0	1	0	0	CorrectCommission	0.613737	0.682017	1	0
445.763947	0.792371	city	6	1	0.656659	0.656659	0	1	0	0	CorrectCommission	0.322275	0.653015	1	0
446.556213	0.792160	city	5	1	0.596324	0.596324	0	1	0	0	CorrectCommission	0.133511	0.628588	1	0
447.348419	0.792259	city	4	1	0.855453	0.855453	0	1	0	0	CorrectCommission	1.824006	0.608200	1	0
448.140686	0.792265	city	8	1	0.645802	0.645802	0	1	0	0	CorrectCommission	0.240258	0.591333	1	0
448.932953	0.792266	city	1	1	0.695335	0.695335	0	1	0	0	CorrectCommission	0.614441	0.577665	1	0
449.725220	0.792264	city	2	1	0.596486	0.596486	0	1	0	0	CorrectCommission	0.132293	0.566970	1	0
450.517609	0.792483	city	1	1	0.596415	0.596415	0	1	0	0	CorrectCommission	0.132823	0.559153	1	0
451.309875	0.792050	city	3	1	0.646007	0.646007	0	1	0	0	CorrectCommission	0.241804	0.554167	1	0
452.102020	0.792265	city	4	1	0.744795	0.744795	0	1	0	0	CorrectCommission	0.988073	0.552042	1	0
452.894348	0.792371	city	7	1	0.794406	0.794406	0	1	0	0	CorrectCommission	1.362846	0.552745	1	0
453.686615	0.792158	city	1	1	0.645703	0.645703	0	1	0	0	CorrectCommission	0.239509	0.556178	1	0
454.478821	0.792263	city	3	1	0.546995	0.546995	0	1	0	0	CorrectCommission	0.506156	0.562159	1	0
455.271179	0.792481	city	9	1	0.654346	0.654346	0	1	0	0	CorrectCommission	0.304801	0.570300	1	0
456.063446	0.792048	city	4	1	0.645705	0.645705	0	1	0	0	CorrectCommission	0.239526	0.579987	1	0
456.855621	0.792303	city	2	1	0.695291	0.695291	0	1	0	0	CorrectCommission	0.614107	0.590351	1	0
457.647888	0.792227	mountain	1	0	0.000000	0.645142	1	0	0	0	CorrectOmission	0.235273	0.600330	1	0
458.440155	0.792298	city	2	1	0.548038	0.548038	0	1	0	0	CorrectCommission	0.498274	0.608840	1	0
459.232422	0.792260	city	10	1	0.456757	0.456757	0	1	0	0	CorrectCommission	1.187832	0.614937	1	0
460.024689	0.792244	city	3	1	0.695254	0.695254	0	1	0	0	CorrectCommission	0.613826	0.617997	1	0
460.816925	0.792258	city	2	1	0.744870	0.744870	0	1	0	0	CorrectCommission	0.988636	0.617933	1	0
461.609192	0.792263	city	4	1	0.859272	0.859272	0	1	0	0	CorrectCommission	1.852858	0.615257	1	0
462.401459	0.792267	city	10	1	0.645881	0.645881	0	1	0	0	CorrectCommission	0.240853	0.611062	1	0
463.193726	0.792266	city	2	1	0.645776	0.645776	0	1	0	0	CorrectCommission	0.240055	0.606936	1	0
463.985992	0.792288	city	6	1	0.645754	0.645754	0	1	0	0	CorrectCommission	0.239889	0.604645	1	0
464.778259	0.792239	city	1	1	0.596267	0.596267	0	1	0	0	CorrectCommission	0.133942	0.605825	1	0
465.570526	0.792262	city	6	1	0.706159	0.706159	0	1	0	0	CorrectCommission	0.696205	0.611741	1	0
466.362793	0.792269	city	9	1	0.596274	0.596274	0	1	0	0	CorrectCommission	0.133891	0.622993	1	0
467.155060	0.792261	city	7	1	0.702208	0.702208	0	1	0	0	CorrectCommission	0.666361	0.639416	1	0
467.947296	0.792269	city	9	1	0.695343	0.695343	0	1	0	0	CorrectCommission	0.614500	0.660011	1	0
468.739563	0.792261	city	2	1	0.655637	0.655637	0	1	0	0	CorrectCommission	0.314551	0.683078	1	0
469.531830	0.792273	city	1	1	0.744794	0.744794	0	1	0	0	CorrectCommission	0.988062	0.706396	0	0
470.324097	0.792260	city	2	1	0.794452	0.794452	0	1	0	0	CorrectCommission	1.363189	0.727443	0	0
471.116364	0.792260	city	6	1	0.744840	0.744840	0	1	0	0	CorrectCommission	0.988408	0.743742	0	0
471.908752	0.792486	city	7	1	0.596541	0.596541	0	1	0	0	CorrectCommission	0.131876	0.753156	0	0
472.701019	0.792044	city	1	1	0.546489	0.546489	0	1	0	0	CorrectCommission	0.509981	0.754178	0	0
473.493164	0.792276	city	2	1	0.794326	0.794326	0	1	0	0	CorrectCommission	1.362241	0.746125	0	0
474.285461	0.792299	city	4	1	0.911013	0.911013	0	1	0	0	CorrectCommission	2.243721	0.729314	0	0
475.077728	0.792222	city	7	1	0.695861	0.695861	0	1	0	0	CorrectCommission	0.618412	0.705152	0	0
475.870056	0.792481	city	1	1	0.645767	0.645767	0	1	0	0	CorrectCommission	0.239992	0.676135	1	0
476.662323	0.792050	city	9	1	0.706756	0.706756	0	1	0	0	CorrectCommission	0.700716	0.645607	1	0
477.454590	0.792480	city	8	1	0.695191	0.695191	0	1	0	0	CorrectCommission	0.613353	0.617537	1	0
478.246918	0.792154	city	2	1	0.546838	0.546838	0	1	0	0	CorrectCommission	0.507344	0.596209	1	0
479.039062	0.792157	city	4	1	0.646074	0.646074	0	1	0	0	CorrectCommission	0.242308	0.585816	1	0
479.831268	0.792267	city	8	1	0.645803	0.645803	0	1	0	0	CorrectCommission	0.240265	0.590142	1	0
480.623566	0.792319	city	6	1	0.598307	0.598307	0	1	0	0	CorrectCommission	0.118531	0.612189	1	0
481.415833	0.792208	city	4	1	0.596713	0.596713	0	1	0	0	CorrectCommission	0.130577	0.653941	1	0
482.208069	0.792264	city	2	1	0.610222	0.610222	0	1	0	0	CorrectCommission	0.028522	0.716210	0	0
483.000336	0.792269	city	7	1	0.596292	0.596292	0	1	0	0	CorrectCommission	0.133752	0.798601	0	0
483.792603	0.792263	city	10	1	0.695278	0.695278	0	1	0	0	CorrectCommission	0.614010	0.899579	0	0
484.584869	0.792264	city	5	1	0.794295	0.794295	0	1	0	0	CorrectCommission	1.362003	1.016573	0	0
485.377136	0.792262	city	1	1	0.794308	0.794308	0	1	0	0	CorrectCommission	1.362107	1.146227	0	0
486.169403	0.792265	city	10	1	0.745297	0.745297	0	1	0	0	CorrectCommission	0.991866	1.284631	0	0
486.961670	0.792270	city	8	1	0.802967	0.802967	0	1	0	0	CorrectCommission	1.427513	1.427513	0	0
