onset	duration	trial_type	image_type	Press	ReactionTime	ReactionTime_Interpolated	CorrectOmission	CorrectCommission	CommissionError	OmissionError	response_type	nonsmoothVarianceTimeCourse	VarianceTimeCourse	In_the_Zone	Reward_trial
8.433947	0.792429	city	1	1	0.646006	0.646006	0	1	0	0	CorrectCommission	0.804528	0.804528	0	1
9.226188	0.792055	city	3	1	0.448380	0.448380	0	1	0	0	CorrectCommission	2.194635	0.777595	0	1
10.018453	0.792474	city	7	1	0.498685	0.498685	0	1	0	0	CorrectCommission	1.840784	0.748971	0	1
10.810717	0.792054	city	8	1	0.596115	0.596115	0	1	0	0	CorrectCommission	1.155464	0.717429	0	1
11.602928	0.792369	city	7	1	0.695307	0.695307	0	1	0	0	CorrectCommission	0.457746	0.682507	0	1
12.395244	0.792263	city	1	1	0.645630	0.645630	0	1	0	0	CorrectCommission	0.807174	0.644694	1	1
13.187454	0.792158	city	4	1	0.695176	0.695176	0	1	0	0	CorrectCommission	0.458665	0.605392	1	1
13.979666	0.792266	city	2	1	0.697793	0.697793	0	1	0	0	CorrectCommission	0.440255	0.566750	1	1
14.771931	0.792263	city	5	1	0.748370	0.748370	0	1	0	0	CorrectCommission	0.084501	0.531328	1	1
15.564195	0.792266	city	8	1	0.695737	0.695737	0	1	0	0	CorrectCommission	0.454718	0.501721	1	1
16.356461	0.792265	mountain	7	0	0.000000	0.744487	1	0	0	0	CorrectOmission	0.111813	0.480178	1	1
17.148726	0.792268	city	5	1	0.794291	0.794291	0	1	0	0	CorrectCommission	0.238513	0.468347	1	1
17.941099	0.792477	city	1	1	0.744824	0.744824	0	1	0	0	CorrectCommission	0.109444	0.467044	1	1
18.733360	0.792048	city	2	1	0.794111	0.794111	0	1	0	0	CorrectCommission	0.237244	0.476178	1	1
19.525572	0.792373	city	1	1	0.843804	0.843804	0	1	0	0	CorrectCommission	0.586787	0.494769	1	1
20.317837	0.792161	city	9	1	0.862128	0.862128	0	1	0	0	CorrectCommission	0.715674	0.521071	1	1
21.110048	0.792260	mountain	8	0	0.000000	0.793773	1	0	0	0	CorrectOmission	0.234868	0.552761	1	1
21.902327	0.792296	city	9	1	0.713475	0.713475	0	1	0	0	CorrectCommission	0.329948	0.587203	1	1
22.694590	0.792233	city	3	1	0.695969	0.695969	0	1	0	0	CorrectCommission	0.453092	0.621689	1	1
23.486870	0.792326	mountain	10	0	0.000000	0.663023	1	0	0	0	CorrectOmission	0.684830	0.653747	1	1
24.279243	0.792423	city	7	1	0.613560	0.613560	0	1	0	0	CorrectCommission	1.032752	0.681380	0	1
25.071501	0.792092	city	3	1	0.546501	0.546501	0	1	0	0	CorrectCommission	1.504446	0.703255	0	1
25.863657	0.792219	city	1	1	0.546995	0.546995	0	1	0	0	CorrectCommission	1.500975	0.718768	0	1
26.655897	0.792264	mountain	10	0	0.000000	0.674153	1	0	0	0	CorrectOmission	0.606544	0.728036	0	1
27.448166	0.792271	mountain	8	0	0.000000	0.815940	1	0	0	0	CorrectOmission	0.390786	0.731785	0	1
28.240465	0.792331	city	4	1	0.860319	0.860319	0	1	0	0	CorrectCommission	0.702955	0.731109	0	1
29.032837	0.792411	city	5	1	0.695257	0.695257	0	1	0	0	CorrectCommission	0.458099	0.727201	0	1
29.825069	0.792053	city	10	1	0.645597	0.645597	0	1	0	0	CorrectCommission	0.807404	0.721116	0	1
30.617226	0.792263	city	3	1	0.695258	0.695258	0	1	0	0	CorrectCommission	0.458091	0.713559	0	1
31.409496	0.792277	city	9	1	0.695312	0.695312	0	1	0	0	CorrectCommission	0.457713	0.704802	0	1
32.201790	0.792308	city	7	1	0.654937	0.654937	0	1	0	0	CorrectCommission	0.741705	0.694689	0	1
32.994072	0.792261	city	3	1	0.596667	0.596667	0	1	0	0	CorrectCommission	1.151579	0.682719	0	1
33.786308	0.792212	city	6	1	0.695203	0.695203	0	1	0	0	CorrectCommission	0.458480	0.668227	1	1
34.578655	0.792480	city	5	1	0.645819	0.645819	0	1	0	0	CorrectCommission	0.805844	0.650614	1	1
35.370945	0.792100	city	3	1	0.596043	0.596043	0	1	0	0	CorrectCommission	1.155973	0.629480	1	1
36.163109	0.792230	city	2	1	0.645853	0.645853	0	1	0	0	CorrectCommission	0.805605	0.604790	1	1
36.955357	0.792259	city	6	1	0.698225	0.698225	0	1	0	0	CorrectCommission	0.437220	0.576967	1	1
37.747643	0.792317	city	4	1	0.695263	0.695263	0	1	0	0	CorrectCommission	0.458056	0.546868	1	1
38.539906	0.792206	city	6	1	0.698396	0.698396	0	1	0	0	CorrectCommission	0.436019	0.515743	1	1
39.332245	0.792477	city	8	1	0.695278	0.695278	0	1	0	0	CorrectCommission	0.457946	0.485102	1	1
40.124508	0.792046	city	7	1	0.699934	0.699934	0	1	0	0	CorrectCommission	0.425197	0.456593	1	1
40.916687	0.792316	city	9	1	0.704289	0.704289	0	1	0	0	CorrectCommission	0.394563	0.431844	1	1
41.708954	0.792215	city	3	1	0.700122	0.700122	0	1	0	0	CorrectCommission	0.423876	0.412309	1	1
42.501194	0.792269	city	6	1	0.745068	0.745068	0	1	0	0	CorrectCommission	0.107728	0.399138	1	1
43.293468	0.792279	city	8	1	0.814555	0.814555	0	1	0	0	CorrectCommission	0.381048	0.393075	1	1
44.085739	0.792264	city	4	1	0.758834	0.758834	0	1	0	0	CorrectCommission	0.010894	0.394372	1	1
44.878048	0.792355	city	7	1	0.794298	0.794298	0	1	0	0	CorrectCommission	0.238562	0.402764	1	1
45.670307	0.792159	city	9	1	0.794386	0.794386	0	1	0	0	CorrectCommission	0.239180	0.417449	1	1
46.462532	0.792289	city	3	1	0.794349	0.794349	0	1	0	0	CorrectCommission	0.238919	0.437195	1	1
47.254848	0.792347	city	5	1	0.845714	0.845714	0	1	0	0	CorrectCommission	0.600223	0.460437	1	1
48.047100	0.792158	city	1	1	0.846424	0.846424	0	1	0	0	CorrectCommission	0.605218	0.485458	1	1
48.839344	0.792328	city	5	1	0.808868	0.808868	0	1	0	0	CorrectCommission	0.341046	0.510545	1	1
49.631718	0.792418	city	7	1	0.893388	0.893388	0	1	0	0	CorrectCommission	0.935557	0.534176	1	1
50.423969	0.792087	city	3	1	0.844199	0.844199	0	1	0	0	CorrectCommission	0.589566	0.555143	1	1
51.216179	0.792332	city	6	1	0.846444	0.846444	0	1	0	0	CorrectCommission	0.605356	0.572724	1	1
52.008427	0.792162	city	3	1	0.893249	0.893249	0	1	0	0	CorrectCommission	0.934579	0.586672	1	1
52.800640	0.792263	city	1	1	0.847393	0.847393	0	1	0	0	CorrectCommission	0.612028	0.597196	1	1
53.593010	0.792478	city	7	1	0.893501	0.893501	0	1	0	0	CorrectCommission	0.936352	0.604899	1	1
54.385380	0.792265	city	1	1	0.794094	0.794094	0	1	0	0	CorrectCommission	0.237121	0.610628	1	1
55.177540	0.792051	city	4	1	0.843673	0.843673	0	1	0	0	CorrectCommission	0.585864	0.615313	1	1
55.969749	0.792371	mountain	3	0	0.000000	0.827456	1	0	0	0	CorrectOmission	0.471791	0.619771	1	1
56.762043	0.792217	city	10	1	0.807121	0.807121	0	1	0	0	CorrectCommission	0.328758	0.624599	1	1
57.554279	0.792254	city	3	1	0.844349	0.844349	0	1	0	0	CorrectCommission	0.590620	0.630072	1	1
58.346565	0.792320	mountain	8	0	0.000000	0.889631	1	0	0	0	CorrectOmission	0.909134	0.636093	1	1
59.138805	0.792160	city	9	1	0.903051	0.903051	0	1	0	0	CorrectCommission	1.003529	0.642225	1	1
59.931126	0.792481	city	7	1	0.844692	0.844692	0	1	0	0	CorrectCommission	0.593033	0.647762	1	1
60.723389	0.792046	city	4	1	0.754231	0.754231	0	1	0	0	CorrectCommission	0.043275	0.651849	1	1
61.515549	0.792274	mountain	4	0	0.000000	0.713530	1	0	0	0	CorrectOmission	0.329562	0.653611	1	1
62.307816	0.792258	city	8	1	0.652598	0.652598	0	1	0	0	CorrectCommission	0.758162	0.652304	1	1
63.100075	0.792261	city	10	1	0.501440	0.501440	0	1	0	0	CorrectCommission	1.821409	0.647484	1	1
63.892448	0.792483	city	4	1	0.607335	0.607335	0	1	0	0	CorrectCommission	1.076541	0.639100	1	1
64.684822	0.792266	mountain	8	0	0.000000	0.707456	1	0	0	0	CorrectOmission	0.372288	0.627637	1	1
65.476982	0.792049	city	5	1	0.794261	0.794261	0	1	0	0	CorrectCommission	0.238297	0.614098	1	1
66.269135	0.792264	city	6	1	0.860207	0.860207	0	1	0	0	CorrectCommission	0.702166	0.599986	1	1
67.061508	0.792481	city	5	1	0.844016	0.844016	0	1	0	0	CorrectCommission	0.588280	0.587211	1	1
67.853806	0.792108	city	8	1	0.794883	0.794883	0	1	0	0	CorrectCommission	0.242675	0.578015	1	0
68.645958	0.792207	city	10	1	0.794416	0.794416	0	1	0	0	CorrectCommission	0.239388	0.574820	1	0
69.438232	0.792342	city	6	1	0.894974	0.894974	0	1	0	0	CorrectCommission	0.946714	0.580068	1	0
70.230499	0.792186	city	9	1	0.857382	0.857382	0	1	0	0	CorrectCommission	0.682294	0.596050	1	0
71.022751	0.792325	city	1	1	0.801011	0.801011	0	1	0	0	CorrectCommission	0.285779	0.624702	1	0
71.815071	0.792310	mountain	4	0	0.000000	0.808199	1	0	0	0	CorrectOmission	0.336337	0.667361	1	0
72.607330	0.792211	city	4	1	0.811921	0.811921	0	1	0	0	CorrectCommission	0.362517	0.724497	0	0
73.399544	0.792210	city	9	1	0.745153	0.745153	0	1	0	0	CorrectCommission	0.107127	0.795510	0	0
74.191780	0.792265	city	2	1	0.657519	0.657519	0	1	0	0	CorrectCommission	0.723545	0.878578	0	0
74.984047	0.792265	city	10	1	0.704632	0.704632	0	1	0	0	CorrectCommission	0.392152	0.970616	0	0
75.776367	0.792374	city	6	1	0.947675	0.947675	0	1	0	0	CorrectCommission	1.317414	1.067427	0	0
76.568649	0.792193	city	1	1	0.845658	0.845658	0	1	0	0	CorrectCommission	0.599826	1.163951	0	0
77.360878	0.792262	city	6	1	0.952372	0.952372	0	1	0	0	CorrectCommission	1.350451	1.254793	0	0
78.153137	0.792263	city	10	1	1.091392	1.091392	0	1	0	0	CorrectCommission	2.328320	1.334681	0	0
78.945389	0.792232	city	8	1	0.999209	0.999209	0	1	0	0	CorrectCommission	1.679906	1.399036	0	0
79.737663	0.792318	city	4	1	1.091446	1.091446	0	1	0	0	CorrectCommission	2.328702	1.444532	0	0
80.529976	0.792319	city	7	1	1.041824	1.041824	0	1	0	0	CorrectCommission	1.979661	1.469381	0	0
81.322250	0.792220	city	8	1	1.109837	1.109837	0	1	0	0	CorrectCommission	2.458062	1.473576	0	0
82.114464	0.792205	city	1	1	1.091455	1.091455	0	1	0	0	CorrectCommission	2.328769	1.458778	0	0
82.906693	0.792260	mountain	10	0	0.000000	0.993572	1	0	0	0	CorrectOmission	1.640256	1.428056	0	0
83.699066	0.792483	mountain	6	0	0.000000	0.853565	1	0	0	0	CorrectOmission	0.655444	1.385425	0	0
84.491440	0.792265	city	7	1	0.708813	0.708813	0	1	0	0	CorrectCommission	0.362744	1.335319	0	0
85.283707	0.792266	city	4	1	0.596695	0.596695	0	1	0	0	CorrectCommission	1.151386	1.282062	0	0
86.075867	0.792051	city	2	1	0.596323	0.596323	0	1	0	0	CorrectCommission	1.154000	1.229459	0	0
86.868019	0.792264	mountain	1	0	0.000000	0.604498	1	0	0	0	CorrectOmission	1.096499	1.180551	0	0
87.660339	0.792370	city	2	1	0.596325	0.596325	0	1	0	0	CorrectCommission	1.153985	1.137514	0	0
88.452652	0.792265	city	5	1	0.546911	0.546911	0	1	0	0	CorrectCommission	1.501563	1.101705	0	0
89.244865	0.792155	city	6	1	0.608551	0.608551	0	1	0	0	CorrectCommission	1.067986	1.073760	0	0
90.037079	0.792270	mountain	9	1	0.614932	0.614932	0	0	1	0	CommissionError	1.023101	1.053774	0	0
90.829346	0.792262	city	2	0	0.000000	0.722072	0	0	0	1	OmissionError	0.269480	1.041464	0	0
91.621620	0.792286	city	8	1	0.756990	0.756990	0	1	0	0	CorrectCommission	0.023869	1.036322	0	0
92.413895	0.792269	city	10	1	0.546705	0.546705	0	1	0	0	CorrectCommission	1.503015	1.037711	0	0
93.206200	0.792345	city	7	1	0.506503	0.506503	0	1	0	0	CorrectCommission	1.785798	1.044880	0	0
93.998482	0.792223	city	6	1	0.598978	0.598978	0	1	0	0	CorrectCommission	1.135324	1.057056	0	0
94.790695	0.792198	city	5	1	0.605913	0.605913	0	1	0	0	CorrectCommission	1.086543	1.073393	0	0
95.582932	0.792279	city	2	1	0.645897	0.645897	0	1	0	0	CorrectCommission	0.805296	1.092859	0	0
96.375198	0.792250	city	5	1	0.653353	0.653353	0	1	0	0	CorrectCommission	0.752848	1.114205	0	0
97.167458	0.792268	city	8	1	0.645778	0.645778	0	1	0	0	CorrectCommission	0.806129	1.135851	0	0
97.959724	0.792269	city	6	1	0.600970	0.600970	0	1	0	0	CorrectCommission	1.121316	1.155893	0	0
98.752098	0.792476	city	1	1	0.556760	0.556760	0	1	0	0	CorrectCommission	1.432288	1.172143	0	0
99.544472	0.792264	city	4	1	0.560829	0.560829	0	1	0	0	CorrectCommission	1.403662	1.182280	0	0
100.336655	0.792112	city	7	1	0.596019	0.596019	0	1	0	0	CorrectCommission	1.156136	1.184067	0	0
101.128922	0.792417	city	8	1	0.547106	0.547106	0	1	0	0	CorrectCommission	1.500193	1.175616	0	0
101.921173	0.792085	city	9	1	0.546483	0.546483	0	1	0	0	CorrectCommission	1.504573	1.155635	0	0
102.713333	0.792229	city	1	1	0.548986	0.548986	0	1	0	0	CorrectCommission	1.486969	1.123639	0	0
103.505577	0.792260	city	3	1	0.464090	0.464090	0	1	0	0	CorrectCommission	2.084127	1.080078	0	0
104.297844	0.792274	mountain	5	0	0.000000	0.565444	1	0	0	0	CorrectOmission	1.371201	1.026335	0	0
105.090164	0.792366	city	7	1	0.695287	0.695287	0	1	0	0	CorrectCommission	0.457885	0.964650	0	0
105.882423	0.792160	city	9	1	0.695857	0.695857	0	1	0	0	CorrectCommission	0.453878	0.897884	0	0
106.674637	0.792261	city	4	1	0.645730	0.645730	0	1	0	0	CorrectCommission	0.806471	0.829219	0	0
107.466896	0.792267	city	7	1	0.645749	0.645749	0	1	0	0	CorrectCommission	0.806336	0.761827	0	0
108.259171	0.792272	city	3	1	0.646052	0.646052	0	1	0	0	CorrectCommission	0.804205	0.698604	0	0
109.051430	0.792258	city	4	1	0.708811	0.708811	0	1	0	0	CorrectCommission	0.362758	0.641884	1	0
109.843697	0.792265	city	1	1	0.713436	0.713436	0	1	0	0	CorrectCommission	0.330223	0.593221	1	0
110.635956	0.792264	city	8	1	0.794923	0.794923	0	1	0	0	CorrectCommission	0.242958	0.553300	1	0
111.428223	0.792266	city	5	1	0.810569	0.810569	0	1	0	0	CorrectCommission	0.353008	0.522024	1	0
112.220543	0.792371	city	2	1	0.757586	0.757586	0	1	0	0	CorrectCommission	0.019670	0.498496	1	0
113.012863	0.792264	city	7	1	0.745179	0.745179	0	1	0	0	CorrectCommission	0.106942	0.481325	1	0
113.805069	0.792161	city	6	1	0.695152	0.695152	0	1	0	0	CorrectCommission	0.458836	0.468864	1	0
114.597282	0.792263	city	1	1	0.596340	0.596340	0	1	0	0	CorrectCommission	1.153880	0.459533	1	0
115.389572	0.792308	city	8	1	0.645765	0.645765	0	1	0	0	CorrectCommission	0.806221	0.452092	1	0
116.181870	0.792287	city	4	1	0.695257	0.695257	0	1	0	0	CorrectCommission	0.458095	0.445856	1	0
116.974113	0.792199	city	3	1	0.645839	0.645839	0	1	0	0	CorrectCommission	0.805701	0.440757	1	0
117.766342	0.792261	city	5	1	0.695176	0.695176	0	1	0	0	CorrectCommission	0.458668	0.437269	1	0
118.558716	0.792483	city	4	1	0.744838	0.744838	0	1	0	0	CorrectCommission	0.109340	0.436223	1	0
119.350990	0.792080	mountain	7	0	0.000000	0.761263	1	0	0	0	CorrectOmission	0.006189	0.438520	1	0
120.143204	0.792340	city	6	1	0.744783	0.744783	0	1	0	0	CorrectCommission	0.109733	0.444825	1	0
120.935455	0.792163	city	2	1	0.695732	0.695732	0	1	0	0	CorrectCommission	0.454757	0.455294	1	0
121.727669	0.792258	city	1	1	0.695283	0.695283	0	1	0	0	CorrectCommission	0.457910	0.469425	1	0
122.519928	0.792267	city	8	1	0.764817	0.764817	0	1	0	0	CorrectCommission	0.031191	0.486042	1	0
123.312195	0.792262	city	4	1	0.843902	0.843902	0	1	0	0	CorrectCommission	0.587474	0.503392	1	0
124.104515	0.792375	city	3	1	0.843845	0.843845	0	1	0	0	CorrectCommission	0.587074	0.519379	1	0
124.896782	0.792159	city	10	1	0.761041	0.761041	0	1	0	0	CorrectCommission	0.004626	0.531922	1	0
125.689026	0.792336	city	9	1	0.803027	0.803027	0	1	0	0	CorrectCommission	0.299962	0.539314	1	0
126.481293	0.792194	mountain	7	1	1.289582	1.289582	0	0	1	0	CommissionError	3.722393	0.540504	1	0
127.273521	0.792261	mountain	4	1	0.794309	0.794309	0	0	1	0	CommissionError	0.238637	0.535218	1	1
128.065781	0.792263	city	5	1	0.744974	0.744974	0	1	0	0	CorrectCommission	0.108384	0.524178	1	1
128.858093	0.792376	city	8	1	0.753948	0.753948	0	1	0	0	CorrectCommission	0.045265	0.508757	1	1
129.650467	0.792373	city	4	1	0.702267	0.702267	0	1	0	0	CorrectCommission	0.408788	0.490794	1	1
130.442688	0.792045	city	8	1	0.695144	0.695144	0	1	0	0	CorrectCommission	0.458891	0.472244	1	1
131.234848	0.792287	city	9	1	0.745219	0.745219	0	1	0	0	CorrectCommission	0.106663	0.454867	1	1
132.027115	0.792243	city	4	1	0.744926	0.744926	0	1	0	0	CorrectCommission	0.108727	0.439970	1	1
132.819473	0.792483	city	7	1	0.709102	0.709102	0	1	0	0	CorrectCommission	0.360711	0.428293	1	1
133.611740	0.792051	city	10	1	0.695033	0.695033	0	1	0	0	CorrectCommission	0.459676	0.419986	1	1
134.403900	0.792263	city	3	1	0.699954	0.699954	0	1	0	0	CorrectCommission	0.425058	0.414736	1	1
135.196167	0.792261	city	1	1	0.695673	0.695673	0	1	0	0	CorrectCommission	0.455171	0.411971	1	1
135.988434	0.792268	city	3	1	0.697952	0.697952	0	1	0	0	CorrectCommission	0.439139	0.411069	1	1
136.780701	0.792266	city	9	1	0.652730	0.652730	0	1	0	0	CorrectCommission	0.757231	0.411543	1	1
137.572952	0.792260	city	1	1	0.645718	0.645718	0	1	0	0	CorrectCommission	0.806557	0.413176	1	1
138.365219	0.792266	city	2	1	0.745496	0.745496	0	1	0	0	CorrectCommission	0.104715	0.416065	1	1
139.157547	0.792371	city	1	1	0.794320	0.794320	0	1	0	0	CorrectCommission	0.238715	0.420599	1	1
139.949829	0.792198	city	8	1	0.745226	0.745226	0	1	0	0	CorrectCommission	0.106617	0.427314	1	1
140.742035	0.792223	city	2	1	0.794178	0.794178	0	1	0	0	CorrectCommission	0.237718	0.436765	1	1
141.534286	0.792269	city	5	1	0.846287	0.846287	0	1	0	0	CorrectCommission	0.604250	0.449382	1	1
142.326553	0.792262	city	4	1	0.843835	0.843835	0	1	0	0	CorrectCommission	0.587006	0.465346	1	1
143.118927	0.792482	city	7	1	0.844512	0.844512	0	1	0	0	CorrectCommission	0.591763	0.484491	1	1
143.911179	0.792045	city	9	1	0.794111	0.794111	0	1	0	0	CorrectCommission	0.237241	0.506228	1	1
144.703400	0.792374	city	10	1	0.794278	0.794278	0	1	0	0	CorrectCommission	0.238419	0.529693	1	1
145.495667	0.792162	city	5	1	0.794230	0.794230	0	1	0	0	CorrectCommission	0.238081	0.553743	1	1
146.287872	0.792259	city	3	1	0.844258	0.844258	0	1	0	0	CorrectCommission	0.589980	0.577130	1	1
147.080139	0.792269	city	5	1	0.844987	0.844987	0	1	0	0	CorrectCommission	0.595104	0.598654	1	1
147.872406	0.792266	city	6	1	0.993005	0.993005	0	1	0	0	CorrectCommission	1.636269	0.617327	1	1
148.664688	0.792298	city	3	1	0.893849	0.893849	0	1	0	0	CorrectCommission	0.938803	0.632485	1	1
149.457001	0.792335	city	10	1	0.844342	0.844342	0	1	0	0	CorrectCommission	0.590571	0.643871	1	1
150.249252	0.792162	city	2	1	0.843731	0.843731	0	1	0	0	CorrectCommission	0.586272	0.651570	1	1
151.041519	0.792370	city	7	1	0.843734	0.843734	0	1	0	0	CorrectCommission	0.586294	0.655914	1	1
151.833801	0.792194	city	1	1	0.799114	0.799114	0	1	0	0	CorrectCommission	0.272438	0.657328	1	1
152.626007	0.792225	city	10	1	0.843769	0.843769	0	1	0	0	CorrectCommission	0.586536	0.656201	1	1
153.418259	0.792270	city	5	1	0.893342	0.893342	0	1	0	0	CorrectCommission	0.935239	0.652726	1	1
154.210526	0.792265	city	8	1	0.893459	0.893459	0	1	0	0	CorrectCommission	0.936058	0.646851	1	1
155.002777	0.792262	mountain	1	0	0.000000	0.797083	1	0	0	0	CorrectOmission	0.258151	0.638289	1	1
155.795151	0.792482	city	9	1	0.749717	0.749717	0	1	0	0	CorrectCommission	0.075022	0.626620	1	1
156.587524	0.792265	mountain	8	0	0.000000	0.896863	1	0	0	0	CorrectOmission	0.960001	0.611380	1	1
157.379684	0.792045	city	6	1	0.993488	0.993488	0	1	0	0	CorrectCommission	1.639661	0.592201	1	1
158.171844	0.792265	city	2	1	0.794560	0.794560	0	1	0	0	CorrectCommission	0.240403	0.568968	1	1
158.964218	0.792484	city	8	1	0.663986	0.663986	0	1	0	0	CorrectCommission	0.678061	0.541925	1	1
159.756500	0.792099	city	7	1	0.612373	0.612373	0	1	0	0	CorrectCommission	1.041104	0.511642	1	1
160.548660	0.792211	city	2	1	0.744723	0.744723	0	1	0	0	CorrectCommission	0.110153	0.478995	1	1
161.340897	0.792265	city	6	1	0.794314	0.794314	0	1	0	0	CorrectCommission	0.238674	0.445102	1	1
162.133163	0.792264	city	4	1	0.814885	0.814885	0	1	0	0	CorrectCommission	0.383365	0.411130	1	1
162.925430	0.792265	city	5	1	0.744930	0.744930	0	1	0	0	CorrectCommission	0.108693	0.378193	1	1
163.717697	0.792269	city	8	1	0.706859	0.706859	0	1	0	0	CorrectCommission	0.376491	0.347256	1	1
164.509979	0.792306	city	1	1	0.794355	0.794355	0	1	0	0	CorrectCommission	0.238961	0.319069	1	1
165.302246	0.792237	city	6	1	0.795175	0.795175	0	1	0	0	CorrectCommission	0.244727	0.294168	1	1
166.094498	0.792251	city	10	1	0.697772	0.697772	0	1	0	0	CorrectCommission	0.440407	0.272901	1	1
166.886749	0.792263	city	6	1	0.754643	0.754643	0	1	0	0	CorrectCommission	0.040373	0.255488	1	1
167.679016	0.792264	city	8	1	0.695283	0.695283	0	1	0	0	CorrectCommission	0.457912	0.242077	1	1
168.471283	0.792263	city	9	1	0.744927	0.744927	0	1	0	0	CorrectCommission	0.108717	0.232767	1	1
169.263550	0.792267	city	2	1	0.744803	0.744803	0	1	0	0	CorrectCommission	0.109587	0.227643	1	1
170.055817	0.792272	city	5	1	0.761504	0.761504	0	1	0	0	CorrectCommission	0.007888	0.226742	1	1
170.848083	0.792256	mountain	5	0	0.000000	0.780224	1	0	0	0	CorrectOmission	0.139561	0.230026	1	1
171.640335	0.792268	city	1	1	0.794301	0.794301	0	1	0	0	CorrectCommission	0.238583	0.237328	1	1
172.432602	0.792264	city	10	1	0.797077	0.797077	0	1	0	0	CorrectCommission	0.258108	0.248321	1	1
173.224930	0.792370	city	7	1	0.796329	0.796329	0	1	0	0	CorrectCommission	0.252846	0.262479	1	1
174.017181	0.792159	city	9	1	0.745373	0.745373	0	1	0	0	CorrectCommission	0.105576	0.279057	1	1
174.809448	0.792371	city	6	1	0.794288	0.794288	0	1	0	0	CorrectCommission	0.238490	0.297091	1	1
175.601822	0.792373	city	5	1	0.794200	0.794200	0	1	0	0	CorrectCommission	0.237869	0.315479	1	1
176.394150	0.792265	city	9	1	0.855725	0.855725	0	1	0	0	CorrectCommission	0.670635	0.333036	1	1
177.186310	0.792075	city	2	1	0.796236	0.796236	0	1	0	0	CorrectCommission	0.252193	0.348586	1	1
177.978577	0.792457	city	4	1	0.744810	0.744810	0	1	0	0	CorrectCommission	0.109540	0.361138	1	1
178.770828	0.792047	city	10	1	0.695267	0.695267	0	1	0	0	CorrectCommission	0.458023	0.369970	1	1
179.563034	0.792371	city	9	1	0.658588	0.658588	0	1	0	0	CorrectCommission	0.716026	0.374741	1	1
180.355301	0.792159	city	1	1	0.601386	0.601386	0	1	0	0	CorrectCommission	1.118386	0.375574	1	1
181.147537	0.792315	city	5	1	0.695277	0.695277	0	1	0	0	CorrectCommission	0.457953	0.373058	1	1
181.939804	0.792212	city	9	1	0.746735	0.746735	0	1	0	0	CorrectCommission	0.096002	0.368200	1	1
182.732040	0.792269	city	4	1	0.744902	0.744902	0	1	0	0	CorrectCommission	0.108895	0.362282	1	1
183.524307	0.792259	city	3	1	0.695290	0.695290	0	1	0	0	CorrectCommission	0.457867	0.356688	1	1
184.316574	0.792264	city	9	1	0.744765	0.744765	0	1	0	0	CorrectCommission	0.109856	0.352731	1	1
185.108841	0.792269	city	3	1	0.794334	0.794334	0	1	0	0	CorrectCommission	0.238815	0.351495	1	1
185.901108	0.792262	city	4	1	0.794414	0.794414	0	1	0	0	CorrectCommission	0.239374	0.353678	1	1
186.693375	0.792264	city	8	1	0.794290	0.794290	0	1	0	0	CorrectCommission	0.238501	0.359540	1	0
187.485748	0.792484	city	6	1	0.794675	0.794675	0	1	0	0	CorrectCommission	0.241212	0.368880	1	0
188.278030	0.792085	city	3	1	0.805796	0.805796	0	1	0	0	CorrectCommission	0.319436	0.381098	1	0
189.070175	0.792225	city	9	1	0.843761	0.843761	0	1	0	0	CorrectCommission	0.586485	0.395281	1	0
189.862488	0.792374	city	3	1	0.810139	0.810139	0	1	0	0	CorrectCommission	0.349982	0.410317	1	0
190.654755	0.792159	mountain	2	0	0.000000	0.821342	1	0	0	0	CorrectOmission	0.428788	0.425051	1	0
191.446960	0.792262	city	1	1	0.843852	0.843852	0	1	0	0	CorrectCommission	0.587120	0.438405	1	0
192.239227	0.792268	city	9	1	0.844147	0.844147	0	1	0	0	CorrectCommission	0.589197	0.449474	1	0
193.031601	0.792480	city	4	1	0.847184	0.847184	0	1	0	0	CorrectCommission	0.610560	0.457620	1	0
193.823975	0.792267	city	8	1	0.808834	0.808834	0	1	0	0	CorrectCommission	0.340804	0.462497	1	0
194.616119	0.792047	city	10	1	0.801138	0.801138	0	1	0	0	CorrectCommission	0.286669	0.464074	1	0
195.408386	0.792481	city	3	1	0.844107	0.844107	0	1	0	0	CorrectCommission	0.588918	0.462599	1	0
196.200653	0.792050	city	1	1	0.893163	0.893163	0	1	0	0	CorrectCommission	0.933977	0.458520	1	0
196.992813	0.792263	mountain	10	0	0.000000	0.860184	1	0	0	0	CorrectOmission	0.702005	0.452406	1	0
197.785187	0.792481	city	6	1	0.794286	0.794286	0	1	0	0	CorrectCommission	0.238476	0.444852	1	0
198.577560	0.792266	city	4	1	0.744583	0.744583	0	1	0	0	CorrectCommission	0.111140	0.436391	1	0
199.369827	0.792265	city	1	1	0.794090	0.794090	0	1	0	0	CorrectCommission	0.237094	0.427402	1	0
200.161972	0.792046	city	9	1	0.846434	0.846434	0	1	0	0	CorrectCommission	0.605286	0.418059	1	0
200.954239	0.792484	city	1	1	0.744871	0.744871	0	1	0	0	CorrectCommission	0.109113	0.408342	1	0
201.746613	0.792265	city	5	1	0.695364	0.695364	0	1	0	0	CorrectCommission	0.457346	0.398141	1	0
202.538803	0.792098	city	1	1	0.746369	0.746369	0	1	0	0	CorrectCommission	0.098575	0.387347	1	0
203.330978	0.792274	city	4	1	0.893374	0.893374	0	1	0	0	CorrectCommission	0.935460	0.376021	1	0
204.123230	0.792229	city	6	1	0.894019	0.894019	0	1	0	0	CorrectCommission	0.939996	0.364484	1	0
204.915466	0.792238	city	3	1	0.797761	0.797761	0	1	0	0	CorrectCommission	0.262917	0.353420	1	0
205.707718	0.792263	city	5	1	0.794310	0.794310	0	1	0	0	CorrectCommission	0.238646	0.343911	1	0
206.500092	0.792484	city	8	1	0.794851	0.794851	0	1	0	0	CorrectCommission	0.242452	0.337266	1	0
207.292358	0.792047	mountain	10	0	0.000000	0.780439	1	0	0	0	CorrectOmission	0.141076	0.334971	1	0
208.084518	0.792268	mountain	2	0	0.000000	0.760805	1	0	0	0	CorrectOmission	0.002967	0.338500	1	0
208.876785	0.792266	city	8	1	0.745679	0.745679	0	1	0	0	CorrectCommission	0.103426	0.349144	1	0
209.669052	0.792264	city	10	1	0.744794	0.744794	0	1	0	0	CorrectCommission	0.109652	0.367849	1	0
210.461426	0.792478	city	1	1	0.844470	0.844470	0	1	0	0	CorrectCommission	0.591471	0.395127	1	0
211.253738	0.792156	city	2	1	0.794157	0.794157	0	1	0	0	CorrectCommission	0.237567	0.431002	1	0
212.045898	0.792155	city	3	1	0.744711	0.744711	0	1	0	0	CorrectCommission	0.110240	0.475024	1	0
212.838211	0.792485	city	10	1	0.744790	0.744790	0	1	0	0	CorrectCommission	0.109680	0.526274	1	0
213.630539	0.792153	mountain	2	0	0.000000	0.847282	1	0	0	0	CorrectOmission	0.611249	0.583404	1	0
214.422791	0.792374	city	5	1	0.942780	0.942780	0	1	0	0	CorrectCommission	1.282985	0.644686	1	0
215.215042	0.792105	mountain	2	0	0.000000	0.921879	1	0	0	0	CorrectOmission	1.135968	0.708047	0	0
216.007233	0.792280	mountain	5	0	0.000000	0.838034	1	0	0	0	CorrectOmission	0.546198	0.771146	0	0
216.799469	0.792194	city	5	1	0.744698	0.744698	0	1	0	0	CorrectCommission	0.110327	0.831424	0	0
217.591721	0.792309	city	3	1	0.695327	0.695327	0	1	0	0	CorrectCommission	0.457607	0.886193	0	0
218.383987	0.792244	city	8	1	0.608113	0.608113	0	1	0	0	CorrectCommission	1.071068	0.932801	0	0
219.176239	0.792240	city	6	1	0.560793	0.560793	0	1	0	0	CorrectCommission	1.403916	0.968864	0	0
219.968597	0.792481	city	4	1	0.553877	0.553877	0	1	0	0	CorrectCommission	1.452563	0.992544	0	0
220.760849	0.792027	city	10	1	0.360668	0.360668	0	1	0	0	CorrectCommission	2.811603	1.002776	0	0
221.553009	0.792285	city	3	1	0.695946	0.695946	0	1	0	0	CorrectCommission	0.453253	0.999417	0	0
222.345337	0.792373	city	9	1	0.611385	0.611385	0	1	0	0	CorrectCommission	1.048055	0.983411	0	0
223.137650	0.792266	city	4	1	0.551770	0.551770	0	1	0	0	CorrectCommission	1.467384	0.956560	0	0
223.929871	0.792158	city	8	1	0.547286	0.547286	0	1	0	0	CorrectCommission	1.498928	0.921351	0	0
224.722076	0.792271	city	6	1	0.695322	0.695322	0	1	0	0	CorrectCommission	0.457641	0.880629	0	0
225.514389	0.792334	city	8	1	0.745104	0.745104	0	1	0	0	CorrectCommission	0.107470	0.837250	0	0
226.306747	0.792405	city	1	1	0.713465	0.713465	0	1	0	0	CorrectCommission	0.330018	0.793709	0	0
227.098984	0.792049	city	3	1	0.662247	0.662247	0	1	0	0	CorrectCommission	0.690291	0.751914	0	0
227.891190	0.792371	mountain	7	0	0.000000	0.647231	1	0	0	0	CorrectOmission	0.795910	0.713106	0	0
228.683456	0.792160	city	1	1	0.652527	0.652527	0	1	0	0	CorrectCommission	0.758657	0.677934	1	0
229.475723	0.792370	city	10	1	0.662243	0.662243	0	1	0	0	CorrectCommission	0.690316	0.646598	1	0
230.267975	0.792155	city	5	1	0.759604	0.759604	0	1	0	0	CorrectCommission	0.005479	0.619115	1	0
231.060303	0.792486	mountain	7	0	0.000000	0.882025	1	0	0	0	CorrectOmission	0.855630	0.595516	1	0
231.852570	0.792051	city	3	1	0.952358	0.952358	0	1	0	0	CorrectCommission	1.350354	0.575995	1	0
232.644836	0.792476	city	7	1	0.893456	0.893456	0	1	0	0	CorrectCommission	0.936035	0.561047	1	0
233.437149	0.792157	city	5	1	0.748833	0.748833	0	1	0	0	CorrectCommission	0.081243	0.551401	1	0
234.229309	0.792160	city	9	1	0.707257	0.707257	0	1	0	0	CorrectCommission	0.373689	0.547862	1	0
235.021515	0.792260	mountain	3	0	0.000000	0.750618	1	0	0	0	CorrectOmission	0.068689	0.551042	1	0
235.813782	0.792265	city	8	1	0.794401	0.794401	0	1	0	0	CorrectCommission	0.239282	0.561134	1	0
236.606094	0.792374	city	3	1	0.754092	0.754092	0	1	0	0	CorrectCommission	0.044248	0.577729	1	0
237.398361	0.792157	city	7	1	0.744698	0.744698	0	1	0	0	CorrectCommission	0.110329	0.599751	1	0
238.190582	0.792263	city	3	1	0.850318	0.850318	0	1	0	0	CorrectCommission	0.632601	0.625468	1	0
238.982956	0.792482	city	2	1	0.861431	0.861431	0	1	0	0	CorrectCommission	0.710775	0.652734	1	0
239.775314	0.792264	city	6	1	0.961131	0.961131	0	1	0	0	CorrectCommission	1.412063	0.679220	1	0
240.567474	0.792051	mountain	5	0	0.000000	0.998776	1	0	0	0	CorrectOmission	1.676858	0.702679	0	0
241.359695	0.792370	city	7	1	0.942885	0.942885	0	1	0	0	CorrectCommission	1.283721	0.721195	0	0
242.152069	0.792374	city	6	1	0.761977	0.761977	0	1	0	0	CorrectCommission	0.011211	0.733365	0	0
242.944275	0.792050	city	2	1	0.744757	0.744757	0	1	0	0	CorrectCommission	0.109911	0.738367	0	0
243.736435	0.792265	city	6	1	0.846351	0.846351	0	1	0	0	CorrectCommission	0.604697	0.735913	0	0
244.528702	0.792262	city	5	1	0.844066	0.844066	0	1	0	0	CorrectCommission	0.588626	0.726214	0	0
245.320953	0.792262	city	6	1	1.091413	1.091413	0	1	0	0	CorrectCommission	2.328473	0.709933	0	0
246.113327	0.792483	city	3	1	0.893454	0.893454	0	1	0	0	CorrectCommission	0.936023	0.688048	0	1
246.905594	0.792048	city	7	1	0.751722	0.751722	0	1	0	0	CorrectCommission	0.060924	0.661833	1	1
247.697769	0.792293	city	2	1	0.898361	0.898361	0	1	0	0	CorrectCommission	0.970539	0.632703	1	1
248.490036	0.792235	city	1	1	0.796650	0.796650	0	1	0	0	CorrectCommission	0.255101	0.602039	1	1
249.282303	0.792313	city	5	1	0.794964	0.794964	0	1	0	0	CorrectCommission	0.243243	0.571151	1	1
250.074570	0.792217	city	7	1	0.843685	0.843685	0	1	0	0	CorrectCommission	0.585948	0.541143	1	1
250.866913	0.792482	mountain	2	0	0.000000	0.751366	1	0	0	0	CorrectOmission	0.063424	0.512870	1	1
251.659180	0.792050	city	10	1	0.646579	0.646579	0	1	0	0	CorrectCommission	0.800499	0.486930	1	1
252.451340	0.792265	city	1	1	0.657895	0.657895	0	1	0	0	CorrectCommission	0.720903	0.463661	1	1
253.243744	0.792534	city	7	1	0.697814	0.697814	0	1	0	0	CorrectCommission	0.440111	0.443264	1	1
254.036118	0.792212	city	9	1	0.794197	0.794197	0	1	0	0	CorrectCommission	0.237847	0.425853	1	1
254.828247	0.792066	city	3	1	0.803406	0.803406	0	1	0	0	CorrectCommission	0.302624	0.411539	1	1
255.620407	0.792243	city	4	1	0.812818	0.812818	0	1	0	0	CorrectCommission	0.368830	0.400474	1	1
256.412659	0.792266	city	3	1	0.794629	0.794629	0	1	0	0	CorrectCommission	0.240888	0.392906	1	1
257.204956	0.792301	city	4	1	0.794938	0.794938	0	1	0	0	CorrectCommission	0.243059	0.389200	1	1
257.997223	0.792232	city	9	1	0.843767	0.843767	0	1	0	0	CorrectCommission	0.586526	0.389836	1	1
258.789459	0.792260	city	4	1	0.844190	0.844190	0	1	0	0	CorrectCommission	0.589497	0.395350	1	1
259.581787	0.792374	city	8	1	0.744931	0.744931	0	1	0	0	CorrectCommission	0.108686	0.406293	1	1
260.374146	0.792374	city	1	1	0.697739	0.697739	0	1	0	0	CorrectCommission	0.440636	0.423114	1	1
261.166382	0.792075	city	8	1	0.699197	0.699197	0	1	0	0	CorrectCommission	0.430380	0.445990	1	1
261.958527	0.792241	mountain	8	0	0.000000	0.755799	1	0	0	0	CorrectOmission	0.032242	0.474785	1	1
262.750793	0.792261	city	2	1	0.801336	0.801336	0	1	0	0	CorrectCommission	0.288067	0.508914	1	1
263.543091	0.792372	mountain	10	0	0.000000	0.769601	1	0	0	0	CorrectOmission	0.064837	0.547359	1	1
264.335419	0.792265	city	8	1	0.695161	0.695161	0	1	0	0	CorrectCommission	0.458773	0.588726	1	1
265.127686	0.792266	city	6	1	0.612587	0.612587	0	1	0	0	CorrectCommission	1.039601	0.631315	1	1
265.919891	0.792155	mountain	10	1	0.598842	0.598842	0	0	1	0	CommissionError	1.136283	0.673278	1	1
266.712097	0.792273	city	9	1	0.894183	0.894183	0	1	0	0	CorrectCommission	0.941153	0.712803	0	1
267.504395	0.792305	mountain	3	0	0.000000	0.794780	1	0	0	0	CorrectOmission	0.241953	0.748241	0	1
268.296692	0.792285	city	8	1	0.596791	0.596791	0	1	0	0	CorrectCommission	1.150708	0.778245	0	1
269.088928	0.792201	city	4	1	0.596372	0.596372	0	1	0	0	CorrectCommission	1.153657	0.801758	0	1
269.881165	0.792264	city	1	1	0.596764	0.596764	0	1	0	0	CorrectCommission	1.150900	0.818099	0	1
270.673431	0.792259	city	10	1	0.893332	0.893332	0	1	0	0	CorrectCommission	0.935167	0.826887	0	1
271.465698	0.792268	city	8	1	0.708172	0.708172	0	1	0	0	CorrectCommission	0.367255	0.828003	0	1
272.258057	0.792487	city	9	1	0.695307	0.695307	0	1	0	0	CorrectCommission	0.457744	0.821562	0	1
273.050323	0.792038	city	3	1	0.596265	0.596265	0	1	0	0	CorrectCommission	1.154408	0.807897	0	1
273.842529	0.792374	city	9	1	0.596456	0.596456	0	1	0	0	CorrectCommission	1.153067	0.787572	0	1
274.634796	0.792159	city	7	1	0.596222	0.596222	0	1	0	0	CorrectCommission	1.154714	0.761423	0	1
275.427032	0.792263	city	1	1	0.565040	0.565040	0	1	0	0	CorrectCommission	1.374044	0.730569	0	1
276.219269	0.792266	city	7	1	0.709467	0.709467	0	1	0	0	CorrectCommission	0.358141	0.696419	0	1
277.011536	0.792264	city	5	1	0.844447	0.844447	0	1	0	0	CorrectCommission	0.591305	0.660685	1	1
277.803925	0.792481	city	2	1	0.794340	0.794340	0	1	0	0	CorrectCommission	0.238855	0.625225	1	1
278.596191	0.792052	city	3	1	0.794101	0.794101	0	1	0	0	CorrectCommission	0.237174	0.591977	1	1
279.388397	0.792368	city	5	1	0.812676	0.812676	0	1	0	0	CorrectCommission	0.367830	0.562826	1	1
280.180725	0.792265	city	1	1	0.943236	0.943236	0	1	0	0	CorrectCommission	1.286192	0.539454	1	1
280.972931	0.792161	city	7	1	0.812925	0.812925	0	1	0	0	CorrectCommission	0.369584	0.523213	1	1
281.765137	0.792263	city	8	1	0.794554	0.794554	0	1	0	0	CorrectCommission	0.240358	0.515053	1	1
282.557434	0.792315	city	10	1	0.745173	0.745173	0	1	0	0	CorrectCommission	0.106990	0.515370	1	1
283.349792	0.792430	mountain	5	0	0.000000	0.773595	1	0	0	0	CorrectOmission	0.092932	0.523981	1	1
284.142029	0.792050	city	4	1	0.763058	0.763058	0	1	0	0	CorrectCommission	0.018819	0.540112	1	1
284.934296	0.792478	city	8	1	0.596801	0.596801	0	1	0	0	CorrectCommission	1.150636	0.562483	1	1
285.726562	0.792066	city	9	1	0.846073	0.846073	0	1	0	0	CorrectCommission	0.602742	0.589358	1	1
286.518738	0.792250	city	4	1	0.745484	0.745484	0	1	0	0	CorrectCommission	0.104800	0.618810	1	1
287.311005	0.792291	city	8	1	0.795101	0.795101	0	1	0	0	CorrectCommission	0.244206	0.648886	1	1
288.103271	0.792243	city	7	1	0.956865	0.956865	0	1	0	0	CorrectCommission	1.382055	0.677794	1	1
288.895508	0.792256	city	6	1	1.013414	1.013414	0	1	0	0	CorrectCommission	1.779826	0.704079	0	1
289.687775	0.792268	city	7	1	0.893390	0.893390	0	1	0	0	CorrectCommission	0.935574	0.726751	0	1
290.480164	0.792479	city	1	1	0.757636	0.757636	0	1	0	0	CorrectCommission	0.019325	0.745299	0	1
291.272461	0.792106	city	3	1	0.700451	0.700451	0	1	0	0	CorrectCommission	0.421561	0.759639	0	1
292.064728	0.792423	city	9	1	0.942863	0.942863	0	1	0	0	CorrectCommission	1.283571	0.770020	0	1
292.856964	0.792050	city	7	1	0.895770	0.895770	0	1	0	0	CorrectCommission	0.952312	0.776953	0	1
293.649170	0.792371	city	8	1	0.847752	0.847752	0	1	0	0	CorrectCommission	0.614557	0.781156	0	1
294.441437	0.792202	city	5	1	0.855424	0.855424	0	1	0	0	CorrectCommission	0.668518	0.783503	0	1
295.233704	0.792334	city	10	1	0.811130	0.811130	0	1	0	0	CorrectCommission	0.356954	0.784986	0	1
296.025970	0.792150	city	5	1	0.894008	0.894008	0	1	0	0	CorrectCommission	0.939922	0.786753	0	1
296.818176	0.792264	city	3	1	0.942962	0.942962	0	1	0	0	CorrectCommission	1.284267	0.790068	0	1
297.610474	0.792374	city	9	1	0.893371	0.893371	0	1	0	0	CorrectCommission	0.935438	0.796261	0	1
298.402771	0.792205	city	8	1	0.893709	0.893709	0	1	0	0	CorrectCommission	0.937817	0.806638	0	1
299.195038	0.792324	city	5	1	0.846902	0.846902	0	1	0	0	CorrectCommission	0.608578	0.822280	0	1
299.987274	0.792161	city	7	1	0.905574	0.905574	0	1	0	0	CorrectCommission	1.021277	0.843808	0	1
300.779541	0.792368	city	3	1	0.795004	0.795004	0	1	0	0	CorrectCommission	0.243524	0.871132	0	1
301.571808	0.792155	city	1	1	0.794226	0.794226	0	1	0	0	CorrectCommission	0.238054	0.903354	0	1
302.364136	0.792484	city	3	1	0.794302	0.794302	0	1	0	0	CorrectCommission	0.238586	0.938643	0	1
303.156433	0.792157	city	4	1	0.744855	0.744855	0	1	0	0	CorrectCommission	0.109226	0.974445	0	1
303.948608	0.792155	city	8	1	0.596164	0.596164	0	1	0	0	CorrectCommission	1.155121	1.007793	0	1
304.740814	0.792276	city	1	1	0.398474	0.398474	0	1	0	0	CorrectCommission	2.545673	1.035680	0	1
305.533203	0.792471	city	3	1	0.398610	0.398610	0	1	0	0	CorrectCommission	2.544717	1.055535	0	0
306.325439	0.792051	city	4	1	0.547261	0.547261	0	1	0	0	CorrectCommission	1.499101	1.065616	0	0
307.117706	0.792478	city	5	1	0.611054	0.611054	0	1	0	0	CorrectCommission	1.050381	1.065230	0	0
307.909973	0.792047	city	10	1	0.546538	0.546538	0	1	0	0	CorrectCommission	1.504185	1.054691	0	0
308.702148	0.792266	mountain	10	1	0.745218	0.745218	0	0	1	0	CommissionError	0.106674	1.035125	0	0
309.494385	0.792267	city	7	1	0.898253	0.898253	0	1	0	0	CorrectCommission	0.969781	1.008214	0	0
310.286652	0.792261	city	5	1	0.794470	0.794470	0	1	0	0	CorrectCommission	0.239767	0.975789	0	0
311.079041	0.792484	mountain	8	0	0.000000	0.910324	1	0	0	0	CorrectOmission	1.054688	0.939634	0	0
311.871307	0.792047	city	9	1	0.945061	0.945061	0	1	0	0	CorrectCommission	1.299032	0.901247	0	0
312.663574	0.792482	mountain	7	1	0.597927	0.597927	0	0	1	0	CommissionError	1.142715	0.861835	0	0
313.455841	0.792094	city	9	1	0.843668	0.843668	0	1	0	0	CorrectCommission	0.585829	0.822424	0	0
314.248047	0.792276	city	3	1	0.597434	0.597434	0	1	0	0	CorrectCommission	1.146188	0.783995	0	0
315.040283	0.792207	city	1	1	0.648287	0.648287	0	1	0	0	CorrectCommission	0.788488	0.747615	0	0
315.832520	0.792266	city	2	1	0.695278	0.695278	0	1	0	0	CorrectCommission	0.457952	0.714616	0	0
316.624847	0.792372	city	5	1	0.911705	0.911705	0	1	0	0	CorrectCommission	1.064404	0.686605	0	0
317.417114	0.792189	city	3	1	0.751108	0.751108	0	1	0	0	CorrectCommission	0.065239	0.665384	1	0
318.209442	0.792449	mountain	3	0	0.000000	0.820494	1	0	0	0	CorrectOmission	0.422821	0.652914	1	0
319.001678	0.792058	city	2	1	0.893750	0.893750	0	1	0	0	CorrectCommission	0.938108	0.651029	1	0
319.793854	0.792255	city	6	1	0.744766	0.744766	0	1	0	0	CorrectCommission	0.109853	0.661206	1	0
320.586212	0.792481	city	7	1	0.799213	0.799213	0	1	0	0	CorrectCommission	0.273130	0.684381	0	0
321.378540	0.792156	city	3	1	0.843625	0.843625	0	1	0	0	CorrectCommission	0.585528	0.720665	0	0
322.170685	0.792172	city	7	1	0.843737	0.843737	0	1	0	0	CorrectCommission	0.586317	0.769207	0	0
322.962921	0.792250	city	8	1	0.798343	0.798343	0	1	0	0	CorrectCommission	0.267010	0.828183	0	0
323.755188	0.792287	city	10	1	0.794749	0.794749	0	1	0	0	CorrectCommission	0.241734	0.894887	0	0
324.547424	0.792240	city	3	1	0.909165	0.909165	0	1	0	0	CorrectCommission	1.046533	0.965875	0	0
325.339722	0.792347	city	5	1	0.943142	0.943142	0	1	0	0	CorrectCommission	1.285531	1.037211	0	0
326.131989	0.792181	city	10	1	1.041803	1.041803	0	1	0	0	CorrectCommission	1.979515	1.104885	0	0
326.924316	0.792484	city	3	1	1.045988	1.045988	0	1	0	0	CorrectCommission	2.008950	1.165118	0	0
327.716614	0.792085	city	9	0	0.000000	0.811643	0	0	0	1	OmissionError	0.360568	1.214707	0	0
328.508820	0.792336	city	8	1	0.556344	0.556344	0	1	0	0	CorrectCommission	1.435210	1.251391	0	0
329.301056	0.792154	city	9	1	0.497665	0.497665	0	1	0	0	CorrectCommission	1.847961	1.273925	0	0
330.093292	0.792267	city	10	1	0.546807	0.546807	0	1	0	0	CorrectCommission	1.502296	1.282309	0	0
330.885559	0.792285	city	2	1	0.460604	0.460604	0	1	0	0	CorrectCommission	2.108648	1.277795	0	0
331.677917	0.792462	city	9	1	0.516067	0.516067	0	1	0	0	CorrectCommission	1.718524	1.262733	0	0
332.470184	0.792047	city	7	1	0.843647	0.843647	0	1	0	0	CorrectCommission	0.585678	1.240387	0	0
333.262329	0.792267	mountain	9	0	0.000000	0.981644	1	0	0	0	CorrectOmission	1.556356	1.214640	0	0
334.054596	0.792271	mountain	6	0	0.000000	0.968863	1	0	0	0	CorrectOmission	1.466455	1.189506	0	0
334.846863	0.792265	city	4	1	0.844107	0.844107	0	1	0	0	CorrectCommission	0.588919	1.168793	0	0
335.639160	0.792271	city	7	1	0.646180	0.646180	0	1	0	0	CorrectCommission	0.803305	1.155647	0	0
336.431519	0.792467	city	1	1	0.646081	0.646081	0	1	0	0	CorrectCommission	0.804005	1.152216	0	0
337.223816	0.792156	city	5	1	0.756840	0.756840	0	1	0	0	CorrectCommission	0.024921	1.159435	0	0
338.016083	0.792374	city	10	1	0.844163	0.844163	0	1	0	0	CorrectCommission	0.589311	1.177012	0	0
338.808350	0.792153	city	6	1	0.992169	0.992169	0	1	0	0	CorrectCommission	1.630389	1.203496	0	0
339.600555	0.792266	city	1	1	0.992298	0.992298	0	1	0	0	CorrectCommission	1.631292	1.236498	0	0
340.392792	0.792161	city	6	1	0.911729	0.911729	0	1	0	0	CorrectCommission	1.064569	1.273114	0	0
341.184998	0.792263	city	8	1	0.993003	0.993003	0	1	0	0	CorrectCommission	1.636255	1.310260	0	0
341.977356	0.792480	city	9	1	1.140926	1.140926	0	1	0	0	CorrectCommission	2.676746	1.344950	0	0
342.769623	0.792048	city	10	0	0.000000	0.783229	0	0	0	1	OmissionError	0.160701	1.374654	0	0
343.561798	0.792319	city	8	1	0.447681	0.447681	0	1	0	0	CorrectCommission	2.199553	1.397523	0	0
344.354065	0.792208	city	5	1	0.662048	0.662048	0	1	0	0	CorrectCommission	0.691691	1.412351	0	0
345.146301	0.792268	city	9	1	0.546839	0.546839	0	1	0	0	CorrectCommission	1.502069	1.418850	0	0
345.938568	0.792266	city	5	1	0.513491	0.513491	0	1	0	0	CorrectCommission	1.736641	1.417435	0	0
346.730957	0.792479	city	6	1	0.447687	0.447687	0	1	0	0	CorrectCommission	2.199506	1.409232	0	0
347.523224	0.792047	city	8	1	0.546424	0.546424	0	1	0	0	CorrectCommission	1.504993	1.395943	0	0
348.315369	0.792265	city	7	1	0.508651	0.508651	0	1	0	0	CorrectCommission	1.770689	1.379672	0	0
349.107666	0.792316	city	3	1	0.549415	0.549415	0	1	0	0	CorrectCommission	1.483953	1.362623	0	0
349.900024	0.792429	city	1	1	0.605970	0.605970	0	1	0	0	CorrectCommission	1.086143	1.346862	0	0
350.692291	0.792087	city	2	1	0.744610	0.744610	0	1	0	0	CorrectCommission	0.110944	1.333982	0	0
351.484467	0.792288	city	8	1	0.949777	0.949777	0	1	0	0	CorrectCommission	1.332202	1.324922	0	0
352.276733	0.792203	mountain	4	0	0.000000	0.716432	1	0	0	0	CorrectOmission	0.309149	1.319790	0	0
353.068970	0.792272	mountain	7	1	0.596270	0.596270	0	0	1	0	CommissionError	1.154374	1.317975	0	0
353.861237	0.792280	city	4	1	1.140984	1.140984	0	1	0	0	CorrectCommission	2.677154	1.318187	0	0
354.653503	0.792279	city	10	0	0.000000	0.884864	0	0	0	1	OmissionError	0.875598	1.318736	0	0
355.445831	0.792336	city	9	1	0.450236	0.450236	0	1	0	0	CorrectCommission	2.181578	1.317878	0	0
356.238068	0.792157	city	4	1	0.459429	0.459429	0	1	0	0	CorrectCommission	2.116912	1.313884	0	0
357.030273	0.792267	mountain	4	1	0.794853	0.794853	0	0	1	0	CommissionError	0.242465	1.305346	0	0
357.822662	0.792479	city	2	1	0.992365	0.992365	0	1	0	0	CorrectCommission	1.631768	1.291301	0	0
358.614960	0.792113	city	9	1	0.895753	0.895753	0	1	0	0	CorrectCommission	0.952195	1.271156	0	0
359.407104	0.792200	city	2	1	0.800677	0.800677	0	1	0	0	CorrectCommission	0.283429	1.244772	0	0
360.199341	0.792264	city	9	1	1.091405	1.091405	0	1	0	0	CorrectCommission	2.328416	1.212481	0	0
360.991669	0.792373	city	7	1	1.042040	1.042040	0	1	0	0	CorrectCommission	1.981180	1.174921	0	0
361.783966	0.792265	city	9	1	0.943389	0.943389	0	1	0	0	CorrectCommission	1.287270	1.133132	0	0
362.576233	0.792264	city	7	1	0.646140	0.646140	0	1	0	0	CorrectCommission	0.803588	1.088410	0	0
363.368561	0.792373	city	6	1	0.947927	0.947927	0	1	0	0	CorrectCommission	1.319186	1.042172	0	0
364.160828	0.792156	city	8	1	0.648071	0.648071	0	1	0	0	CorrectCommission	0.790001	0.995794	0	0
364.952972	0.792161	city	5	1	0.655114	0.655114	0	1	0	0	CorrectCommission	0.740466	0.950525	0	1
365.745209	0.792259	city	9	1	0.745252	0.745252	0	1	0	0	CorrectCommission	0.106434	0.907311	0	1
366.537476	0.792327	city	10	1	0.645672	0.645672	0	1	0	0	CorrectCommission	0.806877	0.866746	0	1
367.329742	0.792206	city	7	1	0.843882	0.843882	0	1	0	0	CorrectCommission	0.587333	0.829112	0	1
368.122009	0.792306	city	10	1	0.942967	0.942967	0	1	0	0	CorrectCommission	1.284297	0.794549	0	1
368.914337	0.792330	city	6	1	0.902628	0.902628	0	1	0	0	CorrectCommission	1.000552	0.763123	0	1
369.706665	0.792374	city	5	1	0.843764	0.843764	0	1	0	0	CorrectCommission	0.586506	0.735107	0	1
370.498993	0.792265	city	9	1	0.992175	0.992175	0	1	0	0	CorrectCommission	1.630432	0.711066	0	1
371.291168	0.792051	city	6	1	0.744891	0.744891	0	1	0	0	CorrectCommission	0.108969	0.691826	0	1
372.083313	0.792259	mountain	5	0	0.000000	0.783462	1	0	0	0	CorrectOmission	0.162339	0.678540	1	1
372.875580	0.792271	city	1	1	0.844438	0.844438	0	1	0	0	CorrectCommission	0.591245	0.672419	1	1
373.667938	0.792477	city	10	1	0.664369	0.664369	0	1	0	0	CorrectCommission	0.675366	0.674586	1	1
374.460205	0.792048	city	2	1	0.695214	0.695214	0	1	0	0	CorrectCommission	0.458402	0.685852	0	1
375.252380	0.792267	city	9	1	0.705549	0.705549	0	1	0	0	CorrectCommission	0.385704	0.706466	0	1
376.044678	0.792372	city	3	1	0.646027	0.646027	0	1	0	0	CorrectCommission	0.804385	0.735991	0	1
376.837006	0.792263	mountain	5	0	0.000000	0.743205	1	0	0	0	CorrectOmission	0.120833	0.773266	0	1
377.629211	0.792155	city	6	1	0.843754	0.843754	0	1	0	0	CorrectCommission	0.586435	0.816416	0	1
378.421478	0.792374	city	9	1	0.794347	0.794347	0	1	0	0	CorrectCommission	0.238903	0.863055	0	1
379.213776	0.792213	city	2	1	0.893280	0.893280	0	1	0	0	CorrectCommission	0.934801	0.910555	0	1
380.005981	0.792211	mountain	8	0	0.000000	1.062555	1	0	0	0	CorrectOmission	2.125485	0.956332	0	1
380.798218	0.792267	city	9	1	1.110110	1.110110	0	1	0	0	CorrectCommission	2.459989	0.998089	0	1
381.590485	0.792258	city	7	1	0.843884	0.843884	0	1	0	0	CorrectCommission	0.587345	1.034150	0	1
382.382751	0.792270	city	4	1	0.646207	0.646207	0	1	0	0	CorrectCommission	0.803118	1.063562	0	1
383.175018	0.792266	city	1	1	0.596254	0.596254	0	1	0	0	CorrectCommission	1.154484	1.086089	0	1
383.967285	0.792260	city	4	1	0.744879	0.744879	0	1	0	0	CorrectCommission	0.109055	1.102156	0	1
384.759613	0.792374	city	10	1	0.893323	0.893323	0	1	0	0	CorrectCommission	0.935104	1.112775	0	1
385.551849	0.792158	city	2	1	1.091335	1.091335	0	1	0	0	CorrectCommission	2.327922	1.119285	0	1
386.344086	0.792263	city	8	1	1.091560	1.091560	0	1	0	0	CorrectCommission	2.329507	1.123157	0	1
387.136444	0.792481	city	7	1	0.843834	0.843834	0	1	0	0	CorrectCommission	0.586995	1.125796	0	1
387.928741	0.792090	city	3	1	0.704380	0.704380	0	1	0	0	CorrectCommission	0.393929	1.128274	0	1
388.721008	0.792440	city	2	1	0.546672	0.546672	0	1	0	0	CorrectCommission	1.503242	1.131071	0	1
389.513275	0.792117	city	9	1	0.847386	0.847386	0	1	0	0	CorrectCommission	0.611981	1.133912	0	1
390.305450	0.792207	city	8	1	0.712233	0.712233	0	1	0	0	CorrectCommission	0.338689	1.135748	0	1
391.097687	0.792268	city	1	1	0.843818	0.843818	0	1	0	0	CorrectCommission	0.586882	1.134838	0	1
391.889954	0.792256	city	9	1	0.992842	0.992842	0	1	0	0	CorrectCommission	1.635120	1.129020	0	1
392.682190	0.792259	city	3	1	0.598827	0.598827	0	1	0	0	CorrectCommission	1.136388	1.116115	0	1
393.474457	0.792263	city	7	1	0.448199	0.448199	0	1	0	0	CorrectCommission	2.195903	1.094403	0	1
394.266724	0.792266	city	10	1	0.450109	0.450109	0	1	0	0	CorrectCommission	2.182474	1.062974	0	1
395.058990	0.792263	city	1	1	0.456482	0.456482	0	1	0	0	CorrectCommission	2.137645	1.022026	0	1
395.851257	0.792277	mountain	4	0	0.000000	0.727061	1	0	0	0	CorrectOmission	0.234387	0.972911	0	1
396.643555	0.792297	city	4	1	0.945210	0.945210	0	1	0	0	CorrectCommission	1.300074	0.917969	0	1
397.435852	0.792333	city	8	1	0.794291	0.794291	0	1	0	0	CorrectCommission	0.238511	0.860097	0	1
398.228088	0.792153	city	3	1	0.748608	0.748608	0	1	0	0	CorrectCommission	0.082828	0.802389	0	1
399.020325	0.792306	city	2	1	0.745089	0.745089	0	1	0	0	CorrectCommission	0.107574	0.747682	0	1
399.812592	0.792228	city	10	1	0.697015	0.697015	0	1	0	0	CorrectCommission	0.445730	0.698175	0	1
400.604828	0.792263	city	2	1	0.907687	0.907687	0	1	0	0	CorrectCommission	1.036139	0.655232	1	1
401.397095	0.792266	city	7	1	0.856691	0.856691	0	1	0	0	CorrectCommission	0.677434	0.619349	1	1
402.189484	0.792480	city	10	1	0.695254	0.695254	0	1	0	0	CorrectCommission	0.458119	0.590263	1	1
402.981750	0.792046	city	6	1	0.844826	0.844826	0	1	0	0	CorrectCommission	0.593974	0.567115	1	1
403.773895	0.792267	mountain	6	0	0.000000	0.722300	1	0	0	0	CorrectOmission	0.267875	0.548701	1	1
404.566162	0.792276	city	9	1	0.598667	0.598667	0	1	0	0	CorrectCommission	1.137512	0.533746	1	1
405.358459	0.792294	city	3	1	0.744918	0.744918	0	1	0	0	CorrectCommission	0.108782	0.521050	1	1
406.150726	0.792223	city	5	1	0.695272	0.695272	0	1	0	0	CorrectCommission	0.457993	0.509717	1	1
406.942963	0.792262	city	4	1	0.794324	0.794324	0	1	0	0	CorrectCommission	0.238742	0.499161	1	1
407.735321	0.792485	city	3	1	0.893370	0.893370	0	1	0	0	CorrectCommission	0.935435	0.489266	1	1
408.527618	0.792098	city	7	1	0.858247	0.858247	0	1	0	0	CorrectCommission	0.688377	0.480356	1	1
409.319763	0.792212	city	3	1	0.794386	0.794386	0	1	0	0	CorrectCommission	0.239181	0.473169	1	1
410.112030	0.792271	city	10	1	0.794518	0.794518	0	1	0	0	CorrectCommission	0.240105	0.468853	1	1
410.904388	0.792477	city	6	1	0.894502	0.894502	0	1	0	0	CorrectCommission	0.943394	0.468829	1	1
411.696686	0.792087	city	10	1	0.794329	0.794329	0	1	0	0	CorrectCommission	0.238775	0.474678	1	1
412.488831	0.792226	city	4	1	0.808067	0.808067	0	1	0	0	CorrectCommission	0.335413	0.487995	1	1
413.281097	0.792303	city	1	1	0.744779	0.744779	0	1	0	0	CorrectCommission	0.109757	0.510204	1	1
414.073364	0.792224	city	10	1	0.794269	0.794269	0	1	0	0	CorrectCommission	0.238355	0.542379	1	1
414.865601	0.792267	mountain	6	1	0.794455	0.794455	0	0	1	0	CommissionError	0.239666	0.585083	1	1
415.657867	0.792268	city	5	1	0.898407	0.898407	0	1	0	0	CorrectCommission	0.970863	0.638206	1	1
416.450134	0.792278	city	8	1	0.805893	0.805893	0	1	0	0	CorrectCommission	0.320115	0.700885	0	1
417.242401	0.792249	city	6	1	0.801724	0.801724	0	1	0	0	CorrectCommission	0.290793	0.771525	0	1
418.034760	0.792481	city	7	1	0.844215	0.844215	0	1	0	0	CorrectCommission	0.589678	0.847815	0	1
418.827026	0.792048	city	2	1	0.893433	0.893433	0	1	0	0	CorrectCommission	0.935878	0.926897	0	1
419.619232	0.792372	city	3	1	0.905143	0.905143	0	1	0	0	CorrectCommission	1.018243	1.005562	0	1
420.411499	0.792155	city	1	1	0.942744	0.942744	0	1	0	0	CorrectCommission	1.282730	1.080501	0	1
421.203766	0.792375	city	6	1	1.141240	1.141240	0	1	0	0	CorrectCommission	2.678955	1.148633	0	1
421.996063	0.792218	city	2	1	0.794252	0.794252	0	1	0	0	CorrectCommission	0.238238	1.207310	0	1
422.788269	0.792202	city	5	1	0.546643	0.546643	0	1	0	0	CorrectCommission	1.503451	1.254712	0	1
423.580505	0.792268	mountain	1	1	0.448893	0.448893	0	0	1	0	CommissionError	2.191026	1.289812	0	1
424.372772	0.792265	city	1	1	0.645896	0.645896	0	1	0	0	CorrectCommission	0.805304	1.312587	0	0
425.165070	0.792313	city	8	1	0.556230	0.556230	0	1	0	0	CorrectCommission	1.436014	1.323992	0	0
425.957336	0.792214	city	2	1	0.459657	0.459657	0	1	0	0	CorrectCommission	2.115313	1.325800	0	0
426.749603	0.792346	city	1	1	0.448170	0.448170	0	1	0	0	CorrectCommission	2.196110	1.320397	0	0
427.541870	0.792186	city	9	1	0.955354	0.955354	0	1	0	0	CorrectCommission	1.371432	1.310477	0	0
428.334106	0.792264	city	2	1	0.751117	0.751117	0	1	0	0	CorrectCommission	0.065175	1.298698	0	0
429.126465	0.792479	mountain	9	0	0.000000	0.572542	1	0	0	0	CorrectOmission	1.321278	1.287326	0	0
429.918732	0.792048	mountain	7	1	0.546783	0.546783	0	0	1	0	CommissionError	1.502462	1.277881	0	0
430.710938	0.792326	city	9	1	0.800999	0.800999	0	1	0	0	CorrectCommission	0.285693	1.271017	0	0
431.503296	0.792420	city	8	1	0.713935	0.713935	0	1	0	0	CorrectCommission	0.326716	1.266518	0	0
432.295532	0.792049	city	5	1	0.596611	0.596611	0	1	0	0	CorrectCommission	1.151973	1.263388	0	0
433.087738	0.792371	city	7	1	0.497187	0.497187	0	1	0	0	CorrectCommission	1.851324	1.260113	0	0
433.880035	0.792182	city	10	1	0.349366	0.349366	0	1	0	0	CorrectCommission	2.891096	1.255024	0	0
434.672333	0.792457	city	7	1	0.447730	0.447730	0	1	0	0	CorrectCommission	2.199203	1.246582	0	0
435.464600	0.792047	city	1	1	0.801310	0.801310	0	1	0	0	CorrectCommission	0.287882	1.233613	0	0
436.256775	0.792305	city	10	1	0.596383	0.596383	0	1	0	0	CorrectCommission	1.153577	1.215393	0	0
437.049042	0.792238	city	9	1	0.645721	0.645721	0	1	0	0	CorrectCommission	0.806534	1.191551	0	0
437.841278	0.792248	city	3	1	0.548722	0.548722	0	1	0	0	CorrectCommission	1.488823	1.162047	0	0
438.633545	0.792271	city	8	1	0.857446	0.857446	0	1	0	0	CorrectCommission	0.682746	1.126971	0	0
439.425873	0.792369	city	1	1	0.893518	0.893518	0	1	0	0	CorrectCommission	0.936477	1.086572	0	0
440.218170	0.792264	city	4	1	0.893272	0.893272	0	1	0	0	CorrectCommission	0.934746	1.041129	0	0
441.010406	0.792161	city	10	1	1.042344	1.042344	0	1	0	0	CorrectCommission	1.983317	0.991016	0	0
441.802643	0.792315	city	3	0	0.000000	0.999748	0	0	0	1	OmissionError	1.683696	0.936778	0	0
442.594910	0.792217	city	5	1	0.843801	0.843801	0	1	0	0	CorrectCommission	0.586762	0.879219	0	0
443.387146	0.792258	city	8	1	0.652819	0.652819	0	1	0	0	CorrectCommission	0.756603	0.819397	0	0
444.179413	0.792267	city	9	1	0.695242	0.695242	0	1	0	0	CorrectCommission	0.458199	0.758571	0	0
444.971710	0.792374	mountain	1	1	0.660414	0.660414	0	0	1	0	CommissionError	0.703186	0.698156	0	0
445.764038	0.792265	city	2	1	0.794216	0.794216	0	1	0	0	CorrectCommission	0.237981	0.639629	1	0
446.556244	0.792153	city	6	1	0.646603	0.646603	0	1	0	0	CorrectCommission	0.800332	0.584395	1	0
447.348450	0.792278	city	7	1	0.695387	0.695387	0	1	0	0	CorrectCommission	0.457182	0.533683	1	0
448.140747	0.792287	city	10	1	0.797253	0.797253	0	1	0	0	CorrectCommission	0.259346	0.488567	1	0
448.933105	0.792447	city	4	1	0.794484	0.794484	0	1	0	0	CorrectCommission	0.239866	0.449906	1	0
449.725372	0.792052	city	7	1	0.843599	0.843599	0	1	0	0	CorrectCommission	0.585345	0.418396	1	0
450.517517	0.792262	mountain	3	0	0.000000	0.803846	1	0	0	0	CorrectOmission	0.305719	0.394662	1	0
451.309845	0.792371	city	7	1	0.763313	0.763313	0	1	0	0	CorrectCommission	0.020613	0.379309	1	0
452.102112	0.792156	city	9	1	0.810092	0.810092	0	1	0	0	CorrectCommission	0.349651	0.373026	1	0
452.894318	0.792265	city	8	1	0.794381	0.794381	0	1	0	0	CorrectCommission	0.239141	0.376590	1	0
453.686584	0.792266	city	7	1	0.695316	0.695316	0	1	0	0	CorrectCommission	0.457683	0.390822	1	0
454.478851	0.792266	city	5	1	0.801170	0.801170	0	1	0	0	CorrectCommission	0.286899	0.416506	1	0
455.271210	0.792479	city	2	1	0.801242	0.801242	0	1	0	0	CorrectCommission	0.287401	0.454228	1	0
456.063477	0.792069	city	3	1	0.794298	0.794298	0	1	0	0	CorrectCommission	0.238557	0.504193	1	0
456.855652	0.792246	city	6	1	0.744801	0.744801	0	1	0	0	CorrectCommission	0.109604	0.566046	1	0
457.647949	0.792370	city	1	1	0.649916	0.649916	0	1	0	0	CorrectCommission	0.777026	0.638731	1	0
458.440216	0.792165	city	10	1	0.797395	0.797395	0	1	0	0	CorrectCommission	0.260343	0.720354	0	0
459.232422	0.792256	city	7	1	0.794626	0.794626	0	1	0	0	CorrectCommission	0.240869	0.808335	0	0
460.024689	0.792259	city	8	1	0.751835	0.751835	0	1	0	0	CorrectCommission	0.060125	0.899547	0	0
460.816956	0.792270	city	2	1	0.596706	0.596706	0	1	0	0	CorrectCommission	1.151304	0.990587	0	0
461.609222	0.792271	city	1	1	1.041908	1.041908	0	1	0	0	CorrectCommission	1.980255	1.078125	0	0
462.401489	0.792262	city	8	1	1.055751	1.055751	0	1	0	0	CorrectCommission	2.077626	1.159283	0	0
463.193756	0.792264	city	4	1	1.141316	1.141316	0	1	0	0	CorrectCommission	2.679486	1.231958	0	0
463.986023	0.792263	city	1	0	0.000000	0.923669	0	0	0	1	OmissionError	1.148555	1.294919	0	0
464.778290	0.792266	city	9	1	0.645812	0.645812	0	1	0	0	CorrectCommission	0.805897	1.347837	0	0
465.570587	0.792372	city	5	1	0.550744	0.550744	0	1	0	0	CorrectCommission	1.474604	1.391112	0	0
466.362854	0.792155	city	10	1	0.695192	0.695192	0	1	0	0	CorrectCommission	0.458551	1.425626	0	0
467.155060	0.792268	city	7	1	0.515279	0.515279	0	1	0	0	CorrectCommission	1.724062	1.452524	0	0
467.947388	0.792330	city	10	1	0.547354	0.547354	0	1	0	0	CorrectCommission	1.498445	1.472895	0	0
468.739624	0.792200	city	6	1	0.504560	0.504560	0	1	0	0	CorrectCommission	1.799465	1.487683	0	0
469.531860	0.792264	city	3	1	0.447757	0.447757	0	1	0	0	CorrectCommission	2.199012	1.497525	0	0
470.324127	0.792268	city	9	1	1.042898	1.042898	0	1	0	0	CorrectCommission	1.987214	1.502705	0	0
471.116516	0.792479	city	5	1	0.912584	0.912584	0	1	0	0	CorrectCommission	1.070584	1.503143	0	0
471.908783	0.792047	city	10	1	0.947264	0.947264	0	1	0	0	CorrectCommission	1.314522	1.498383	0	0
472.701050	0.792482	city	7	1	0.992880	0.992880	0	1	0	0	CorrectCommission	1.635390	1.487600	0	0
473.493347	0.792154	city	3	1	0.744595	0.744595	0	1	0	0	CorrectCommission	0.111056	1.469727	0	0
474.285522	0.792158	city	4	1	0.506888	0.506888	0	1	0	0	CorrectCommission	1.783086	1.443639	0	0
475.077728	0.792286	city	10	1	0.398199	0.398199	0	1	0	0	CorrectCommission	2.547605	1.408259	0	0
475.870056	0.792353	city	3	1	1.051096	1.051096	0	1	0	0	CorrectCommission	2.044878	1.362873	0	0
476.662415	0.792374	mountain	1	0	0.000000	0.955078	1	0	0	0	CorrectOmission	1.369486	1.307314	0	0
477.454620	0.792046	city	3	1	0.605531	0.605531	0	1	0	0	CorrectCommission	1.089233	1.242095	0	0
478.246796	0.792266	city	10	1	0.497840	0.497840	0	1	0	0	CorrectCommission	1.846732	1.168400	0	0
479.039032	0.792264	city	2	1	0.466333	0.466333	0	1	0	0	CorrectCommission	2.068348	1.087975	0	0
479.831299	0.792262	city	4	1	0.760937	0.760937	0	1	0	0	CorrectCommission	0.003898	1.002919	0	0
480.623566	0.792269	city	3	1	0.704475	0.704475	0	1	0	0	CorrectCommission	0.393257	0.915468	0	0
481.415863	0.792333	city	1	1	0.843826	0.843826	0	1	0	0	CorrectCommission	0.586940	0.827655	0	0
482.208130	0.792193	city	3	1	0.893307	0.893307	0	1	0	0	CorrectCommission	0.934988	0.741109	0	0
483.000427	0.792375	city	5	1	0.744935	0.744935	0	1	0	0	CorrectCommission	0.108664	0.656892	1	0
483.792694	0.792163	city	4	1	0.798981	0.798981	0	1	0	0	CorrectCommission	0.271499	0.575522	1	0
484.584900	0.792267	city	10	1	0.855231	0.855231	0	1	0	0	CorrectCommission	0.667160	0.496973	1	0
485.377167	0.792252	city	5	1	0.893391	0.893391	0	1	0	0	CorrectCommission	0.935578	0.420843	1	0
486.169525	0.792484	city	9	1	0.942855	0.942855	0	1	0	0	CorrectCommission	1.283511	0.346437	1	0
486.961792	0.792049	city	1	1	0.799182	0.799182	0	1	0	0	CorrectCommission	0.272910	0.272910	1	0
