onset	duration	trial_type	image_type	Press	ReactionTime	ReactionTime_Interpolated	CorrectOmission	CorrectCommission	CommissionError	OmissionError	response_type	nonsmoothVarianceTimeCourse	VarianceTimeCourse	In_the_Zone	Reward_trial
8.421745	0.795792	city	9	1	0.996793	0.996793	0	1	0	0	CorrectCommission	3.892215	3.892215	0	1
9.217540	0.795797	city	8	1	0.608211	0.608211	0	1	0	0	CorrectCommission	0.858816	3.587786	0	1
10.013382	0.795886	mountain	5	0	0.000000	0.557149	1	0	0	0	CorrectOmission	1.483131	3.295510	0	1
10.809183	0.795717	city	4	1	0.601569	0.601569	0	1	0	0	CorrectCommission	0.940022	3.026062	0	1
11.604998	0.795912	city	7	1	0.499434	0.499434	0	1	0	0	CorrectCommission	2.188783	2.787600	0	1
12.400819	0.795729	mountain	10	1	0.798411	0.798411	0	0	1	0	CommissionError	1.466687	2.584937	0	1
13.196584	0.795801	city	3	1	0.450122	0.450122	0	1	0	0	CorrectCommission	2.791698	2.419402	0	1
13.992422	0.795876	city	6	1	0.549646	0.549646	0	1	0	0	CorrectCommission	1.574869	2.289052	0	1
14.788206	0.795692	city	9	1	0.550052	0.550052	0	1	0	0	CorrectCommission	1.569904	2.189403	0	1
15.583954	0.795804	city	2	1	0.506555	0.506555	0	1	0	0	CorrectCommission	2.101719	2.114254	0	1
16.379757	0.795801	city	4	1	0.499561	0.499561	0	1	0	0	CorrectCommission	2.187231	2.056712	0	1
17.175667	0.796018	city	3	1	0.459415	0.459415	0	1	0	0	CorrectCommission	2.678078	2.010087	0	1
17.971468	0.795586	city	10	1	0.464352	0.464352	0	1	0	0	CorrectCommission	2.617719	1.968553	0	1
18.767160	0.795797	city	9	1	0.549275	0.549275	0	1	0	0	CorrectCommission	1.579396	1.927617	0	1
19.562962	0.795805	city	6	1	0.797887	0.797887	0	1	0	0	CorrectCommission	1.460278	1.884290	0	1
20.358765	0.795802	mountain	2	1	0.449734	0.449734	0	0	1	0	CommissionError	2.796443	1.836952	0	1
21.154564	0.795798	city	1	1	0.499780	0.499780	0	1	0	0	CorrectCommission	2.184559	1.785095	0	1
21.950365	0.795801	city	6	1	0.570288	0.570288	0	1	0	0	CorrectCommission	1.322482	1.728955	0	1
22.746277	0.796022	city	4	1	0.549710	0.549710	0	1	0	0	CorrectCommission	1.574081	1.669110	0	1
23.542187	0.795801	city	2	1	0.611020	0.611020	0	1	0	0	CorrectCommission	0.824473	1.606081	0	1
24.337879	0.795585	city	1	1	0.548919	0.548919	0	1	0	0	CorrectCommission	1.583748	1.540194	0	1
25.133627	0.795908	city	7	1	0.549187	0.549187	0	1	0	0	CorrectCommission	1.580478	1.471428	0	1
25.929428	0.795696	city	5	1	0.549206	0.549206	0	1	0	0	CorrectCommission	1.580243	1.399564	0	1
26.725176	0.795798	city	8	1	0.550120	0.550120	0	1	0	0	CorrectCommission	1.569066	1.324368	0	1
27.520994	0.795838	mountain	9	1	0.555907	0.555907	0	0	1	0	CommissionError	1.498314	1.245770	0	1
28.316795	0.795767	city	6	1	0.598905	0.598905	0	1	0	0	CorrectCommission	0.972590	1.164121	0	1
29.112581	0.795803	city	9	1	0.549578	0.549578	0	1	0	0	CorrectCommission	1.575691	1.080327	0	1
29.908388	0.795814	city	2	1	0.508727	0.508727	0	1	0	0	CorrectCommission	2.075160	0.995881	0	1
30.704189	0.795786	city	9	1	0.648692	0.648692	0	1	0	0	CorrectCommission	0.363872	0.912741	0	1
31.499985	0.795807	mountain	10	0	0.000000	0.671736	1	0	0	0	CorrectOmission	0.082119	0.833214	0	1
32.295788	0.795798	city	10	1	0.648626	0.648626	0	1	0	0	CorrectCommission	0.364673	0.759613	0	1
33.091599	0.795819	city	4	1	0.650129	0.650129	0	1	0	0	CorrectCommission	0.346305	0.693972	0	1
33.887402	0.795787	city	6	1	0.698462	0.698462	0	1	0	0	CorrectCommission	0.244644	0.637869	1	1
34.683247	0.795907	city	10	1	0.600008	0.600008	0	1	0	0	CorrectCommission	0.959107	0.592229	1	1
35.479061	0.795721	city	3	1	0.649001	0.649001	0	1	0	0	CorrectCommission	0.360092	0.557286	1	1
36.274918	0.795994	city	9	1	0.648619	0.648619	0	1	0	0	CorrectCommission	0.364762	0.532653	1	1
37.070744	0.795657	city	1	1	0.648416	0.648416	0	1	0	0	CorrectCommission	0.367240	0.517388	1	1
37.866436	0.795728	city	9	1	0.664754	0.664754	0	1	0	0	CorrectCommission	0.167492	0.510152	1	1
38.662254	0.795910	city	6	1	0.661070	0.661070	0	1	0	0	CorrectCommission	0.212534	0.509432	1	1
39.458057	0.795696	city	8	1	0.618943	0.618943	0	1	0	0	CorrectCommission	0.727604	0.513739	1	1
40.253914	0.796017	city	5	1	0.599077	0.599077	0	1	0	0	CorrectCommission	0.970497	0.521726	1	1
41.049824	0.795800	city	8	1	0.619065	0.619065	0	1	0	0	CorrectCommission	0.726108	0.532341	1	1
41.845516	0.795585	city	4	1	0.648786	0.648786	0	1	0	0	CorrectCommission	0.362723	0.544883	1	1
42.641209	0.795805	city	7	1	0.648918	0.648918	0	1	0	0	CorrectCommission	0.361104	0.558975	1	1
43.437012	0.795800	city	9	1	0.700877	0.700877	0	1	0	0	CorrectCommission	0.274170	0.574500	1	1
44.232811	0.795798	city	5	1	0.604861	0.604861	0	1	0	0	CorrectCommission	0.899768	0.591500	1	1
45.028610	0.795803	city	7	1	0.605868	0.605868	0	1	0	0	CorrectCommission	0.887467	0.610030	1	1
45.824524	0.796020	city	10	1	0.648684	0.648684	0	1	0	0	CorrectCommission	0.363971	0.630075	1	1
46.620338	0.795608	city	6	1	0.650638	0.650638	0	1	0	0	CorrectCommission	0.340083	0.651408	1	1
47.416039	0.795794	city	4	1	0.599086	0.599086	0	1	0	0	CorrectCommission	0.970380	0.673517	0	1
48.211830	0.795787	mountain	4	0	0.000000	0.681652	1	0	0	0	CorrectOmission	0.039116	0.695621	0	1
49.007622	0.795797	city	9	1	0.748213	0.748213	0	1	0	0	CorrectCommission	0.852937	0.716739	0	1
49.803474	0.795912	city	10	1	0.648650	0.648650	0	1	0	0	CorrectCommission	0.364387	0.735717	0	1
50.599277	0.795693	city	1	1	0.556418	0.556418	0	1	0	0	CorrectCommission	1.492065	0.751409	0	1
51.395081	0.795909	city	10	1	0.549418	0.549418	0	1	0	0	CorrectCommission	1.577646	0.762759	0	1
52.190880	0.795696	city	2	1	0.598756	0.598756	0	1	0	0	CorrectCommission	0.974411	0.768936	0	1
52.986629	0.795798	city	6	1	0.648640	0.648640	0	1	0	0	CorrectCommission	0.364500	0.769449	0	1
53.782429	0.795807	city	7	1	0.651070	0.651070	0	1	0	0	CorrectCommission	0.334790	0.764112	0	1
54.578232	0.795798	city	8	1	0.598873	0.598873	0	1	0	0	CorrectCommission	0.972989	0.753060	0	1
55.374031	0.795801	city	10	1	0.603594	0.603594	0	1	0	0	CorrectCommission	0.915260	0.736738	0	1
56.169834	0.795803	mountain	2	0	0.000000	0.708965	1	0	0	0	CorrectOmission	0.373058	0.715927	0	1
56.965637	0.795800	city	9	1	0.797828	0.797828	0	1	0	0	CorrectCommission	1.459555	0.691702	0	1
57.761440	0.795807	city	10	1	0.753029	0.753029	0	1	0	0	CorrectCommission	0.911818	0.665368	0	1
58.557243	0.795799	mountain	6	0	0.000000	0.726742	1	0	0	0	CorrectOmission	0.590414	0.638482	1	1
59.353043	0.795804	city	8	1	0.698701	0.698701	0	1	0	0	CorrectCommission	0.247564	0.612724	1	1
60.148846	0.795803	city	6	1	0.648639	0.648639	0	1	0	0	CorrectCommission	0.364514	0.589762	1	1
60.944664	0.795833	city	4	1	0.748548	0.748548	0	1	0	0	CorrectCommission	0.857024	0.571101	1	1
61.740463	0.795763	city	7	1	0.699089	0.699089	0	1	0	0	CorrectCommission	0.252315	0.557892	1	1
62.536301	0.795912	city	5	1	0.698403	0.698403	0	1	0	0	CorrectCommission	0.243925	0.550817	1	1
63.332104	0.795695	city	10	1	0.698721	0.698721	0	1	0	0	CorrectCommission	0.247812	0.549955	1	1
64.127853	0.795801	city	9	1	0.648638	0.648638	0	1	0	0	CorrectCommission	0.364535	0.554775	1	1
64.923759	0.796016	city	4	1	0.613904	0.613904	0	1	0	0	CorrectCommission	0.789208	0.564161	1	1
65.719574	0.795604	city	6	1	0.698312	0.698312	0	1	0	0	CorrectCommission	0.242811	0.576583	1	1
66.515297	0.795844	city	3	1	0.648663	0.648663	0	1	0	0	CorrectCommission	0.364227	0.590290	1	1
67.311089	0.795740	city	5	1	0.707741	0.707741	0	1	0	0	CorrectCommission	0.358102	0.603573	1	1
68.106964	0.796020	city	3	1	0.847807	0.847807	0	1	0	0	CorrectCommission	2.070626	0.614985	1	0
68.902878	0.795802	city	10	1	0.747894	0.747894	0	1	0	0	CorrectCommission	0.849027	0.623516	1	0
69.698624	0.795692	city	5	1	0.706613	0.706613	0	1	0	0	CorrectCommission	0.344306	0.628817	1	0
70.494316	0.795696	city	8	1	0.704201	0.704201	0	1	0	0	CorrectCommission	0.314821	0.631139	1	0
71.290085	0.795843	city	7	1	0.759999	0.759999	0	1	0	0	CorrectCommission	0.997030	0.631218	1	0
72.085884	0.795752	city	5	1	0.599295	0.599295	0	1	0	0	CorrectCommission	0.967828	0.630091	1	0
72.881668	0.795807	city	8	1	0.649284	0.649284	0	1	0	0	CorrectCommission	0.356631	0.628899	1	0
73.677521	0.795912	city	10	1	0.655346	0.655346	0	1	0	0	CorrectCommission	0.282509	0.628669	1	0
74.473434	0.795909	city	7	1	0.698627	0.698627	0	1	0	0	CorrectCommission	0.246664	0.630064	1	0
75.269287	0.795802	city	8	1	0.698181	0.698181	0	1	0	0	CorrectCommission	0.241207	0.633337	1	0
76.064987	0.795585	city	5	1	0.617275	0.617275	0	1	0	0	CorrectCommission	0.747987	0.638293	1	0
76.860680	0.795798	mountain	4	1	0.598925	0.598925	0	0	1	0	CommissionError	0.972356	0.644378	1	0
77.656479	0.795802	city	10	1	0.601507	0.601507	0	1	0	0	CorrectCommission	0.940784	0.650854	1	0
78.452301	0.795852	city	9	1	0.648646	0.648646	0	1	0	0	CorrectCommission	0.364431	0.656974	1	0
79.248108	0.795754	city	1	1	0.598800	0.598800	0	1	0	0	CorrectCommission	0.973881	0.662214	1	0
80.043907	0.795846	city	2	1	0.605784	0.605784	0	1	0	0	CorrectCommission	0.888483	0.666321	0	0
80.839760	0.795863	city	10	1	0.605575	0.605575	0	1	0	0	CorrectCommission	0.891049	0.669467	0	0
81.635567	0.795754	city	4	1	0.698240	0.698240	0	1	0	0	CorrectCommission	0.241932	0.672185	0	0
82.431320	0.795743	city	8	1	0.599690	0.599690	0	1	0	0	CorrectCommission	0.962992	0.675320	0	0
83.227142	0.795907	city	1	1	0.649017	0.649017	0	1	0	0	CorrectCommission	0.359892	0.679888	0	0
84.022949	0.795698	city	4	1	0.666907	0.666907	0	1	0	0	CorrectCommission	0.141163	0.686953	0	0
84.818695	0.795795	city	8	1	0.610971	0.610971	0	1	0	0	CorrectCommission	0.825073	0.697480	0	0
85.614502	0.795826	city	1	1	0.555750	0.555750	0	1	0	0	CorrectCommission	1.500237	0.712136	0	0
86.410416	0.795997	city	4	1	0.648895	0.648895	0	1	0	0	CorrectCommission	0.361383	0.731241	0	0
87.206314	0.795802	city	6	1	0.698198	0.698198	0	1	0	0	CorrectCommission	0.241414	0.754700	0	0
88.002007	0.795583	city	5	1	0.655315	0.655315	0	1	0	0	CorrectCommission	0.282898	0.781919	0	0
88.797806	0.796019	city	2	1	0.598912	0.598912	0	1	0	0	CorrectCommission	0.972505	0.811830	0	0
89.593613	0.795582	city	4	1	0.611766	0.611766	0	1	0	0	CorrectCommission	0.815344	0.842954	0	0
90.389305	0.795803	city	9	1	0.797852	0.797852	0	1	0	0	CorrectCommission	1.459848	0.873531	0	0
91.185104	0.795800	mountain	9	0	0.000000	0.763662	1	0	0	0	CorrectOmission	1.041823	0.901662	0	0
91.980911	0.795807	city	1	1	0.650334	0.650334	0	1	0	0	CorrectCommission	0.343792	0.925490	0	0
92.776711	0.795797	city	8	1	0.599005	0.599005	0	1	0	0	CorrectCommission	0.971370	0.943417	0	0
93.572617	0.796021	city	3	1	0.599094	0.599094	0	1	0	0	CorrectCommission	0.970279	0.954218	0	0
94.368423	0.795584	city	10	1	0.506898	0.506898	0	1	0	0	CorrectCommission	2.097522	0.957243	0	0
95.164169	0.795910	city	2	1	0.757528	0.757528	0	1	0	0	CorrectCommission	0.966827	0.952454	0	0
95.959969	0.795693	mountain	10	0	0.000000	0.809908	1	0	0	0	CorrectOmission	1.607249	0.940498	0	0
96.755768	0.795910	mountain	5	0	0.000000	0.746183	1	0	0	0	CorrectOmission	0.828114	0.922515	0	0
97.551575	0.795696	city	3	1	0.648501	0.648501	0	1	0	0	CorrectCommission	0.366207	0.900044	0	0
98.347321	0.795803	city	1	1	0.599007	0.599007	0	1	0	0	CorrectCommission	0.971345	0.874787	0	0
99.143120	0.795798	city	5	1	0.698528	0.698528	0	1	0	0	CorrectCommission	0.245453	0.848388	0	0
99.938927	0.795805	mountain	6	0	0.000000	0.764784	1	0	0	0	CorrectOmission	1.055540	0.822256	0	0
100.734749	0.795852	city	4	1	0.748114	0.748114	0	1	0	0	CorrectCommission	0.851724	0.797443	0	0
101.530663	0.795966	city	1	1	0.598857	0.598857	0	1	0	0	CorrectCommission	0.973184	0.774604	0	0
102.326492	0.795692	mountain	5	0	0.000000	0.641867	1	0	0	0	CorrectOmission	0.447311	0.754013	0	0
103.122238	0.795801	city	5	1	0.702881	0.702881	0	1	0	0	CorrectCommission	0.298679	0.735661	0	0
103.917984	0.795693	city	7	1	0.607633	0.607633	0	1	0	0	CorrectCommission	0.865877	0.719375	0	0
104.713783	0.795911	mountain	5	0	0.000000	0.587775	1	0	0	0	CorrectOmission	1.108676	0.704926	0	0
105.509605	0.795720	city	9	1	0.649223	0.649223	0	1	0	0	CorrectCommission	0.357379	0.692151	0	0
106.305382	0.795845	mountain	9	1	0.797893	0.797893	0	0	1	0	CommissionError	1.460352	0.680971	0	0
107.101173	0.795732	city	6	1	0.698572	0.698572	0	1	0	0	CorrectCommission	0.245988	0.671386	0	0
107.896957	0.795842	city	3	1	0.748566	0.748566	0	1	0	0	CorrectCommission	0.857254	0.663485	1	0
108.692764	0.795759	city	2	1	0.657390	0.657390	0	1	0	0	CorrectCommission	0.257525	0.657282	1	0
109.488647	0.796020	city	4	1	0.698511	0.698511	0	1	0	0	CorrectCommission	0.245243	0.652713	1	0
110.284561	0.795802	city	1	1	0.716744	0.716744	0	1	0	0	CorrectCommission	0.468171	0.649517	1	0
111.080292	0.795652	mountain	7	0	0.000000	0.751986	1	0	0	0	CorrectOmission	0.899060	0.647245	1	0
111.875984	0.795732	city	10	1	0.748016	0.748016	0	1	0	0	CorrectCommission	0.850523	0.645271	1	0
112.671745	0.795804	city	1	1	0.648613	0.648613	0	1	0	0	CorrectCommission	0.364832	0.642988	1	0
113.467552	0.795802	city	9	1	0.600016	0.600016	0	1	0	0	CorrectCommission	0.959005	0.639790	1	0
114.263405	0.795908	city	5	1	0.598800	0.598800	0	1	0	0	CorrectCommission	0.973878	0.635239	1	0
115.059204	0.795693	city	1	1	0.701950	0.701950	0	1	0	0	CorrectCommission	0.287299	0.629175	1	0
115.855064	0.796019	city	6	1	0.797838	0.797838	0	1	0	0	CorrectCommission	1.459682	0.621710	1	0
116.650864	0.795584	city	9	1	0.698947	0.698947	0	1	0	0	CorrectCommission	0.250574	0.613218	1	0
117.446571	0.795833	city	3	1	0.698508	0.698508	0	1	0	0	CorrectCommission	0.245205	0.604326	1	0
118.242393	0.795800	city	10	1	0.650417	0.650417	0	1	0	0	CorrectCommission	0.342782	0.595798	1	0
119.038177	0.795774	city	6	1	0.698326	0.698326	0	1	0	0	CorrectCommission	0.242979	0.588444	1	0
119.833992	0.795855	city	2	1	0.608367	0.608367	0	1	0	0	CorrectCommission	0.856913	0.583053	1	0
120.629845	0.795854	city	1	1	0.555799	0.555799	0	1	0	0	CorrectCommission	1.499633	0.580280	1	0
121.425728	0.795910	city	9	1	0.667731	0.667731	0	1	0	0	CorrectCommission	0.131084	0.580569	1	0
122.221588	0.795802	city	5	1	0.659853	0.659853	0	1	0	0	CorrectCommission	0.227404	0.584106	1	0
123.017281	0.795587	city	3	1	0.747948	0.747948	0	1	0	0	CorrectCommission	0.849697	0.590689	1	0
123.812981	0.795817	city	4	1	0.701135	0.701135	0	1	0	0	CorrectCommission	0.277332	0.599674	1	0
124.608780	0.795783	city	8	1	0.698667	0.698667	0	1	0	0	CorrectCommission	0.247150	0.610036	1	0
125.404633	0.795909	mountain	8	0	0.000000	0.701889	1	0	0	0	CorrectOmission	0.286546	0.620390	1	0
126.200485	0.795801	city	8	1	0.704951	0.704951	0	1	0	0	CorrectCommission	0.323985	0.629172	1	0
126.996338	0.795911	city	10	1	0.702002	0.702002	0	1	0	0	CorrectCommission	0.287931	0.634851	1	0
127.792091	0.795588	city	7	1	0.946959	0.946959	0	1	0	0	CorrectCommission	3.282920	0.636161	1	1
128.587784	0.795800	city	10	1	0.704914	0.704914	0	1	0	0	CorrectCommission	0.323529	0.632269	1	1
129.383575	0.795799	mountain	7	0	0.000000	0.703344	1	0	0	0	CorrectOmission	0.304335	0.623095	1	1
130.179382	0.795803	city	7	1	0.761445	0.761445	0	1	0	0	CorrectCommission	1.014715	0.609173	1	1
130.975189	0.795803	city	1	1	0.698413	0.698413	0	1	0	0	CorrectCommission	0.244049	0.591634	1	1
131.771103	0.796017	city	8	1	0.648782	0.648782	0	1	0	0	CorrectCommission	0.362764	0.572109	1	1
132.566895	0.795586	city	7	1	0.648873	0.648873	0	1	0	0	CorrectCommission	0.361653	0.552493	1	1
133.362640	0.795909	city	4	1	0.614548	0.614548	0	1	0	0	CorrectCommission	0.781336	0.534738	1	1
134.158447	0.795692	city	6	1	0.648746	0.648746	0	1	0	0	CorrectCommission	0.363206	0.520714	1	1
134.954193	0.795805	city	8	1	0.698350	0.698350	0	1	0	0	CorrectCommission	0.243280	0.512056	1	1
135.750031	0.795858	city	10	1	0.698760	0.698760	0	1	0	0	CorrectCommission	0.248296	0.510094	1	1
136.545822	0.795749	city	4	1	0.715107	0.715107	0	1	0	0	CorrectCommission	0.448158	0.515808	1	1
137.341705	0.796013	city	6	1	0.748156	0.748156	0	1	0	0	CorrectCommission	0.852238	0.529789	1	1
138.137558	0.795698	city	2	1	0.648530	0.648530	0	1	0	0	CorrectCommission	0.365856	0.552217	1	1
138.933258	0.795687	city	3	1	0.648572	0.648572	0	1	0	0	CorrectCommission	0.365332	0.582850	1	1
139.729065	0.795926	city	1	1	0.698421	0.698421	0	1	0	0	CorrectCommission	0.244146	0.620948	1	1
140.524872	0.795678	city	2	1	0.649159	0.649159	0	1	0	0	CorrectCommission	0.358155	0.665226	0	1
141.320663	0.795911	city	1	1	0.617281	0.617281	0	1	0	0	CorrectCommission	0.747919	0.713848	0	1
142.116455	0.795692	city	10	1	0.598837	0.598837	0	1	0	0	CorrectCommission	0.973423	0.764439	0	1
142.912216	0.795801	city	3	1	0.649012	0.649012	0	1	0	0	CorrectCommission	0.359957	0.814177	0	1
143.708115	0.796021	city	2	1	0.598946	0.598946	0	1	0	0	CorrectCommission	0.972096	0.859964	0	1
144.504028	0.795802	city	1	1	0.548917	0.548917	0	1	0	0	CorrectCommission	1.583773	0.898631	0	1
145.299728	0.795587	city	7	1	0.614629	0.614629	0	1	0	0	CorrectCommission	0.780341	0.927195	0	1
146.095413	0.795799	city	1	1	0.599034	0.599034	0	1	0	0	CorrectCommission	0.971019	0.943275	0	1
146.891220	0.795802	city	7	1	0.558441	0.558441	0	1	0	0	CorrectCommission	1.467328	0.945289	0	1
147.687012	0.795797	city	9	1	0.557731	0.557731	0	1	0	0	CorrectCommission	1.476013	0.932705	0	1
148.482819	0.795803	city	5	1	0.549783	0.549783	0	1	0	0	CorrectCommission	1.573189	0.906217	0	1
149.278625	0.795806	city	10	1	0.518377	0.518377	0	1	0	0	CorrectCommission	1.957177	0.867721	0	1
150.074432	0.795801	city	2	1	0.648769	0.648769	0	1	0	0	CorrectCommission	0.362933	0.820164	0	1
150.870331	0.796015	city	10	1	0.718650	0.718650	0	1	0	0	CorrectCommission	0.491483	0.767309	0	1
151.666168	0.795663	city	3	1	0.698182	0.698182	0	1	0	0	CorrectCommission	0.241222	0.713300	0	1
152.461868	0.795721	city	4	1	0.698300	0.698300	0	1	0	0	CorrectCommission	0.242664	0.662289	1	1
153.257736	0.796021	city	10	1	0.617774	0.617774	0	1	0	0	CorrectCommission	0.741889	0.618010	1	1
154.053650	0.795801	city	9	1	0.698243	0.698243	0	1	0	0	CorrectCommission	0.241966	0.583405	1	1
154.849396	0.795694	city	8	1	0.653245	0.653245	0	1	0	0	CorrectCommission	0.308208	0.560409	1	1
155.645111	0.795746	city	5	1	0.649615	0.649615	0	1	0	0	CorrectCommission	0.352590	0.549788	1	1
156.440872	0.795760	city	8	1	0.648862	0.648862	0	1	0	0	CorrectCommission	0.361796	0.551116	1	1
157.236649	0.795791	city	9	1	0.664722	0.664722	0	1	0	0	CorrectCommission	0.167873	0.562871	1	1
158.032501	0.795907	city	10	1	0.648622	0.648622	0	1	0	0	CorrectCommission	0.364721	0.582624	1	1
158.828293	0.795695	city	8	1	0.661067	0.661067	0	1	0	0	CorrectCommission	0.212565	0.607312	1	1
159.624039	0.795804	city	4	1	0.649166	0.649166	0	1	0	0	CorrectCommission	0.358072	0.633587	1	1
160.419846	0.795806	city	7	1	0.558711	0.558711	0	1	0	0	CorrectCommission	1.464034	0.658203	1	1
161.215759	0.796012	mountain	9	0	0.000000	0.562544	1	0	0	0	CorrectOmission	1.417169	0.678311	0	1
162.011673	0.795802	city	9	1	0.598744	0.598744	0	1	0	0	CorrectCommission	0.974562	0.691770	0	1
162.807495	0.795856	city	6	1	0.605391	0.605391	0	1	0	0	CorrectCommission	0.893298	0.697327	0	1
163.603241	0.795639	city	9	1	0.598754	0.598754	0	1	0	0	CorrectCommission	0.974439	0.694618	0	1
164.398926	0.795721	city	3	1	0.599330	0.599330	0	1	0	0	CorrectCommission	0.967400	0.684097	0	1
165.194778	0.795990	city	8	1	0.655843	0.655843	0	1	0	0	CorrectCommission	0.276433	0.666855	0	1
165.990601	0.795659	city	3	1	0.662296	0.662296	0	1	0	0	CorrectCommission	0.197534	0.644434	1	1
166.786301	0.795730	city	4	1	0.698451	0.698451	0	1	0	0	CorrectCommission	0.244509	0.618575	1	1
167.582092	0.795863	city	8	1	0.614793	0.614793	0	1	0	0	CorrectCommission	0.778340	0.591076	1	1
168.377899	0.795737	city	7	1	0.552859	0.552859	0	1	0	0	CorrectCommission	1.535577	0.563655	1	1
169.173721	0.795910	city	3	1	0.649011	0.649011	0	1	0	0	CorrectCommission	0.359967	0.537876	1	1
169.969513	0.795692	city	4	1	0.699940	0.699940	0	1	0	0	CorrectCommission	0.262717	0.515163	1	1
170.765381	0.796020	city	5	1	0.648693	0.648693	0	1	0	0	CorrectCommission	0.363859	0.496691	1	1
171.561172	0.795584	city	2	1	0.657999	0.657999	0	1	0	0	CorrectCommission	0.250073	0.483432	1	1
172.356979	0.796019	city	10	1	0.698386	0.698386	0	1	0	0	CorrectCommission	0.243719	0.476125	1	1
173.152786	0.795585	city	8	1	0.698257	0.698257	0	1	0	0	CorrectCommission	0.242142	0.475262	1	1
173.948471	0.795812	city	2	1	0.698667	0.698667	0	1	0	0	CorrectCommission	0.247149	0.481088	1	1
174.744278	0.795791	city	1	1	0.648749	0.648749	0	1	0	0	CorrectCommission	0.363179	0.493598	1	1
175.540070	0.795803	city	10	1	0.599092	0.599092	0	1	0	0	CorrectCommission	0.970304	0.512509	1	1
176.335892	0.795829	city	8	1	0.610693	0.610693	0	1	0	0	CorrectCommission	0.828467	0.537235	1	1
177.131699	0.795772	city	9	1	0.698810	0.698810	0	1	0	0	CorrectCommission	0.248897	0.566864	1	1
177.927475	0.795800	city	4	1	0.657888	0.657888	0	1	0	0	CorrectCommission	0.251437	0.600098	1	1
178.723328	0.795911	city	8	1	0.702234	0.702234	0	1	0	0	CorrectCommission	0.290764	0.635221	1	1
179.519241	0.795911	city	6	1	0.748162	0.748162	0	1	0	0	CorrectCommission	0.852303	0.670149	0	1
180.314987	0.795585	city	2	1	0.706499	0.706499	0	1	0	0	CorrectCommission	0.342911	0.702527	0	1
181.110687	0.795802	city	9	1	0.748495	0.748495	0	1	0	0	CorrectCommission	0.856376	0.729947	0	1
181.906494	0.795798	city	6	1	0.762762	0.762762	0	1	0	0	CorrectCommission	1.030816	0.750201	0	1
182.702286	0.795805	city	9	1	0.748436	0.748436	0	1	0	0	CorrectCommission	0.855653	0.761656	0	1
183.498108	0.795835	city	8	1	0.798503	0.798503	0	1	0	0	CorrectCommission	1.467806	0.763523	0	1
184.294022	0.795985	city	7	1	0.797841	0.797841	0	1	0	0	CorrectCommission	1.459713	0.756080	0	1
185.089798	0.795585	city	4	1	0.810920	0.810920	0	1	0	0	CorrectCommission	1.619619	0.740766	0	1
185.885544	0.795909	city	3	1	0.698427	0.698427	0	1	0	0	CorrectCommission	0.244219	0.720045	0	1
186.681458	0.795911	city	2	1	0.617061	0.617061	0	1	0	0	CorrectCommission	0.750609	0.697174	0	1
187.477310	0.795804	city	1	1	0.698361	0.698361	0	1	0	0	CorrectCommission	0.243412	0.675690	0	0
188.273010	0.795580	city	3	1	0.698306	0.698306	0	1	0	0	CorrectCommission	0.242738	0.658935	1	0
189.068695	0.795805	city	1	1	0.698507	0.698507	0	1	0	0	CorrectCommission	0.245197	0.649521	1	0
189.864563	0.795909	city	7	1	0.648739	0.648739	0	1	0	0	CorrectCommission	0.363290	0.648939	1	0
190.660370	0.795718	mountain	10	0	0.000000	0.684341	1	0	0	0	CorrectOmission	0.071995	0.657321	1	0
191.456116	0.795778	city	6	1	0.716753	0.716753	0	1	0	0	CorrectCommission	0.468287	0.673425	0	0
192.251907	0.795804	city	4	1	0.657418	0.657418	0	1	0	0	CorrectCommission	0.257179	0.694808	0	0
193.047714	0.795801	city	9	1	0.603278	0.603278	0	1	0	0	CorrectCommission	0.919126	0.718256	0	0
193.843628	0.796016	city	6	1	0.599007	0.599007	0	1	0	0	CorrectCommission	0.971342	0.740266	0	0
194.639465	0.795665	city	8	1	0.562972	0.562972	0	1	0	0	CorrectCommission	1.411933	0.757608	0	0
195.435150	0.795721	city	3	1	0.552363	0.552363	0	1	0	0	CorrectCommission	1.541649	0.767810	0	0
196.230942	0.795860	city	9	1	0.599068	0.599068	0	1	0	0	CorrectCommission	0.970599	0.769527	0	0
197.026749	0.795743	city	7	1	0.598878	0.598878	0	1	0	0	CorrectCommission	0.972929	0.762676	0	0
197.822525	0.795800	city	5	1	0.549151	0.549151	0	1	0	0	CorrectCommission	1.580912	0.748382	0	0
198.618423	0.796022	city	3	1	0.648642	0.648642	0	1	0	0	CorrectCommission	0.364479	0.728705	0	0
199.414291	0.795692	city	6	1	0.667206	0.667206	0	1	0	0	CorrectCommission	0.137509	0.706290	0	0
200.209976	0.795696	city	5	1	0.699355	0.699355	0	1	0	0	CorrectCommission	0.255568	0.683921	0	0
201.005783	0.795908	city	2	1	0.703916	0.703916	0	1	0	0	CorrectCommission	0.311331	0.664110	1	0
201.801697	0.795911	city	8	1	0.712660	0.712660	0	1	0	0	CorrectCommission	0.418243	0.648798	1	0
202.597488	0.795693	city	1	1	0.747886	0.747886	0	1	0	0	CorrectCommission	0.848938	0.639177	1	0
203.393188	0.795691	city	6	1	0.748170	0.748170	0	1	0	0	CorrectCommission	0.852412	0.635674	1	0
204.188980	0.795910	city	4	1	0.701069	0.701069	0	1	0	0	CorrectCommission	0.276517	0.638006	1	0
204.984818	0.795764	city	9	1	0.648966	0.648966	0	1	0	0	CorrectCommission	0.360518	0.645355	1	0
205.780594	0.795793	city	10	1	0.600034	0.600034	0	1	0	0	CorrectCommission	0.958787	0.656518	1	0
206.576416	0.795849	mountain	2	0	0.000000	0.624389	1	0	0	0	CorrectOmission	0.661014	0.670088	0	0
207.372192	0.795691	city	2	1	0.648505	0.648505	0	1	0	0	CorrectCommission	0.366159	0.684636	0	0
208.167938	0.795807	city	7	1	0.598857	0.598857	0	1	0	0	CorrectCommission	0.973178	0.698796	0	0
208.963776	0.795852	city	8	1	0.798335	0.798335	0	1	0	0	CorrectCommission	1.465747	0.711310	0	0
209.759583	0.795765	city	9	1	0.698374	0.698374	0	1	0	0	CorrectCommission	0.243566	0.721104	0	0
210.555359	0.795783	city	8	1	0.648768	0.648768	0	1	0	0	CorrectCommission	0.362939	0.727280	0	0
211.351166	0.795839	city	2	1	0.600180	0.600180	0	1	0	0	CorrectCommission	0.957003	0.729104	0	0
212.146973	0.795773	city	6	1	0.609828	0.609828	0	1	0	0	CorrectCommission	0.839050	0.726053	0	0
212.942749	0.795795	city	1	1	0.598890	0.598890	0	1	0	0	CorrectCommission	0.972773	0.717886	0	0
213.738556	0.795799	city	3	1	0.598895	0.598895	0	1	0	0	CorrectCommission	0.972717	0.704721	0	0
214.534378	0.795856	city	10	1	0.660476	0.660476	0	1	0	0	CorrectCommission	0.219796	0.687096	0	0
215.330231	0.795856	city	8	1	0.748509	0.748509	0	1	0	0	CorrectCommission	0.856549	0.666033	0	0
216.126068	0.795803	city	7	1	0.797750	0.797750	0	1	0	0	CorrectCommission	1.458595	0.642984	1	0
216.921814	0.795691	mountain	10	0	0.000000	0.738954	1	0	0	0	CorrectOmission	0.739721	0.619777	1	0
217.717560	0.795806	city	9	1	0.660026	0.660026	0	1	0	0	CorrectCommission	0.225295	0.598468	1	0
218.513397	0.795870	city	10	1	0.648872	0.648872	0	1	0	0	CorrectCommission	0.361672	0.581077	1	0
219.309219	0.795780	city	4	1	0.698513	0.698513	0	1	0	0	CorrectCommission	0.245267	0.569316	1	0
220.104996	0.795750	city	1	1	0.716402	0.716402	0	1	0	0	CorrectCommission	0.463995	0.564341	1	0
220.900818	0.795913	city	6	1	0.700878	0.700878	0	1	0	0	CorrectCommission	0.274183	0.566533	1	0
221.696732	0.795910	mountain	9	0	0.000000	0.678241	1	0	0	0	CorrectOmission	0.002592	0.575426	1	0
222.492493	0.795616	city	5	1	0.660772	0.660772	0	1	0	0	CorrectCommission	0.216176	0.589712	1	0
223.288193	0.795769	city	1	1	0.660752	0.660752	0	1	0	0	CorrectCommission	0.216415	0.607387	1	0
224.083969	0.795804	city	4	1	0.754358	0.754358	0	1	0	0	CorrectCommission	0.928059	0.626051	1	0
224.879791	0.795832	city	10	1	0.852035	0.852035	0	1	0	0	CorrectCommission	2.122318	0.643197	1	0
225.675644	0.795879	city	8	1	0.761538	0.761538	0	1	0	0	CorrectCommission	1.015847	0.656529	1	0
226.471451	0.795732	city	9	1	0.714060	0.714060	0	1	0	0	CorrectCommission	0.435363	0.664269	1	0
227.267303	0.795980	city	6	1	0.711040	0.711040	0	1	0	0	CorrectCommission	0.398431	0.665303	0	0
228.063095	0.795584	city	2	1	0.648372	0.648372	0	1	0	0	CorrectCommission	0.367777	0.659240	1	0
228.858887	0.796018	city	7	1	0.751818	0.751818	0	1	0	0	CorrectCommission	0.897006	0.646396	1	0
229.654755	0.795693	city	10	1	0.748253	0.748253	0	1	0	0	CorrectCommission	0.853419	0.627695	1	0
230.450439	0.795692	city	9	1	0.797737	0.797737	0	1	0	0	CorrectCommission	1.458443	0.604535	1	0
231.246292	0.796020	city	5	1	0.648982	0.648982	0	1	0	0	CorrectCommission	0.360324	0.578575	1	0
232.042099	0.795582	city	1	1	0.648384	0.648384	0	1	0	0	CorrectCommission	0.367634	0.551587	1	0
232.837784	0.795801	city	2	1	0.648636	0.648636	0	1	0	0	CorrectCommission	0.364552	0.525189	1	0
233.633591	0.795802	mountain	3	0	0.000000	0.683728	1	0	0	0	CorrectOmission	0.064495	0.500728	1	0
234.429504	0.796020	city	2	1	0.701146	0.701146	0	1	0	0	CorrectCommission	0.277458	0.479159	1	0
235.225296	0.795584	city	10	1	0.648378	0.648378	0	1	0	0	CorrectCommission	0.367710	0.460997	1	0
236.021057	0.795910	city	4	1	0.648641	0.648641	0	1	0	0	CorrectCommission	0.364495	0.446390	1	0
236.816849	0.795695	city	1	1	0.617215	0.617215	0	1	0	0	CorrectCommission	0.748723	0.435222	1	0
237.612625	0.795845	city	3	1	0.648648	0.648648	0	1	0	0	CorrectCommission	0.364412	0.427283	1	0
238.408447	0.795789	city	5	1	0.699028	0.699028	0	1	0	0	CorrectCommission	0.251567	0.422471	1	0
239.204224	0.795781	city	4	1	0.748151	0.748151	0	1	0	0	CorrectCommission	0.852173	0.420902	1	0
240.000122	0.796006	city	5	1	0.698366	0.698366	0	1	0	0	CorrectCommission	0.243472	0.422982	1	0
240.795914	0.795586	city	1	1	0.648876	0.648876	0	1	0	0	CorrectCommission	0.361617	0.429432	1	0
241.591614	0.795803	city	5	1	0.714063	0.714063	0	1	0	0	CorrectCommission	0.435391	0.441138	1	0
242.387512	0.796017	city	3	1	0.709693	0.709693	0	1	0	0	CorrectCommission	0.381963	0.458965	1	0
243.183319	0.795587	city	8	1	0.648529	0.648529	0	1	0	0	CorrectCommission	0.365869	0.483541	1	0
243.979065	0.795906	city	6	1	0.655914	0.655914	0	1	0	0	CorrectCommission	0.275566	0.514988	1	0
244.774979	0.795912	city	5	1	0.652954	0.652954	0	1	0	0	CorrectCommission	0.311766	0.552680	1	0
245.570786	0.795691	city	8	1	0.698263	0.698263	0	1	0	0	CorrectCommission	0.242219	0.595121	1	0
246.366531	0.795802	city	6	1	0.648507	0.648507	0	1	0	0	CorrectCommission	0.366126	0.639937	1	0
247.162292	0.795747	city	9	1	0.698246	0.698246	0	1	0	0	CorrectCommission	0.242004	0.684037	0	1
247.958084	0.795820	city	1	1	0.698913	0.698913	0	1	0	0	CorrectCommission	0.250159	0.723944	0	1
248.753906	0.795839	city	8	1	0.504306	0.504306	0	1	0	0	CorrectCommission	2.129212	0.756211	0	1
249.549683	0.795692	city	9	1	0.549338	0.549338	0	1	0	0	CorrectCommission	1.578628	0.777846	0	1
250.345428	0.795805	city	6	1	0.599384	0.599384	0	1	0	0	CorrectCommission	0.966738	0.786850	0	1
251.141251	0.795859	city	8	1	0.549164	0.549164	0	1	0	0	CorrectCommission	1.580760	0.782487	0	1
251.937164	0.795960	city	6	1	0.598794	0.598794	0	1	0	0	CorrectCommission	0.973957	0.765384	0	1
252.732941	0.795586	city	3	1	0.598839	0.598839	0	1	0	0	CorrectCommission	0.973405	0.737513	0	1
253.528641	0.795802	city	1	1	0.598901	0.598901	0	1	0	0	CorrectCommission	0.972646	0.701906	0	1
254.324432	0.795801	city	10	1	0.664545	0.664545	0	1	0	0	CorrectCommission	0.170037	0.662240	1	1
255.120239	0.795800	city	2	1	0.698373	0.698373	0	1	0	0	CorrectCommission	0.243563	0.622391	1	1
255.916031	0.795804	mountain	2	0	0.000000	0.683093	1	0	0	0	CorrectOmission	0.056732	0.585928	1	1
256.711853	0.795818	city	9	1	0.654729	0.654729	0	1	0	0	CorrectCommission	0.290054	0.555725	1	1
257.507660	0.795832	city	2	1	0.649310	0.649310	0	1	0	0	CorrectCommission	0.356317	0.533702	1	1
258.303467	0.795756	mountain	6	0	0.000000	0.706429	1	0	0	0	CorrectOmission	0.342051	0.520707	1	1
259.099243	0.795824	city	4	1	0.748676	0.748676	0	1	0	0	CorrectCommission	0.858599	0.516533	1	1
259.895172	0.795994	city	10	1	0.698644	0.698644	0	1	0	0	CorrectCommission	0.246874	0.520025	1	1
260.690948	0.795584	city	5	1	0.658115	0.658115	0	1	0	0	CorrectCommission	0.248663	0.529356	1	1
261.486755	0.796019	city	9	1	0.707928	0.707928	0	1	0	0	CorrectCommission	0.360381	0.542269	1	1
262.282623	0.795692	city	10	1	0.698279	0.698279	0	1	0	0	CorrectCommission	0.242407	0.556401	1	1
263.078369	0.795802	city	5	1	0.797708	0.797708	0	1	0	0	CorrectCommission	1.458086	0.569553	1	1
263.874207	0.795911	city	9	1	0.748011	0.748011	0	1	0	0	CorrectCommission	0.850462	0.579931	1	1
264.669983	0.795602	city	8	1	0.698167	0.698167	0	1	0	0	CorrectCommission	0.241046	0.586386	1	1
265.465668	0.795785	city	9	1	0.748486	0.748486	0	1	0	0	CorrectCommission	0.856273	0.588489	1	1
266.261475	0.795810	mountain	4	0	0.000000	0.771377	1	0	0	0	CorrectOmission	1.136153	0.586475	1	1
267.057251	0.795795	city	1	1	0.748121	0.748121	0	1	0	0	CorrectCommission	0.851805	0.581268	1	1
267.853088	0.795844	city	3	1	0.659997	0.659997	0	1	0	0	CorrectCommission	0.225652	0.574268	1	1
268.648895	0.795768	city	6	1	0.716056	0.716056	0	1	0	0	CorrectCommission	0.459757	0.567168	1	1
269.444672	0.795793	city	9	1	0.700744	0.700744	0	1	0	0	CorrectCommission	0.272543	0.561706	1	1
270.240509	0.795909	city	4	1	0.716467	0.716467	0	1	0	0	CorrectCommission	0.464788	0.559477	1	1
271.036316	0.795704	city	10	1	0.698284	0.698284	0	1	0	0	CorrectCommission	0.242475	0.561752	1	1
271.832062	0.795791	city	5	1	0.699330	0.699330	0	1	0	0	CorrectCommission	0.255257	0.569396	1	1
272.627869	0.795802	city	2	1	0.648689	0.648689	0	1	0	0	CorrectCommission	0.363910	0.582797	1	1
273.423676	0.795802	city	10	1	0.599599	0.599599	0	1	0	0	CorrectCommission	0.964106	0.601845	1	1
274.219482	0.795826	city	5	1	0.559098	0.559098	0	1	0	0	CorrectCommission	1.459295	0.625943	1	1
275.015350	0.795884	city	6	1	0.698629	0.698629	0	1	0	0	CorrectCommission	0.246690	0.654028	1	1
275.811127	0.795696	city	10	1	0.698698	0.698698	0	1	0	0	CorrectCommission	0.247535	0.684636	0	1
276.606873	0.795799	city	2	1	0.698527	0.698527	0	1	0	0	CorrectCommission	0.245445	0.715885	0	1
277.402679	0.795802	city	10	1	0.748092	0.748092	0	1	0	0	CorrectCommission	0.851454	0.745591	0	1
278.198486	0.795801	city	5	1	0.707790	0.707790	0	1	0	0	CorrectCommission	0.358699	0.771398	0	1
278.994293	0.795835	city	4	1	0.759677	0.759677	0	1	0	0	CorrectCommission	0.993103	0.791027	0	1
279.790100	0.795773	city	5	1	0.800196	0.800196	0	1	0	0	CorrectCommission	1.488504	0.802502	0	1
280.585876	0.795799	city	8	1	0.797875	0.797875	0	1	0	0	CorrectCommission	1.460125	0.804417	0	1
281.381683	0.795798	city	5	1	0.748105	0.748105	0	1	0	0	CorrectCommission	0.851607	0.796185	0	1
282.177551	0.795912	city	6	1	0.848375	0.848375	0	1	0	0	CorrectCommission	2.077567	0.778162	0	1
282.973450	0.795911	city	10	1	0.698208	0.698208	0	1	0	0	CorrectCommission	0.241546	0.751586	0	1
283.769196	0.795583	city	1	1	0.608047	0.608047	0	1	0	0	CorrectCommission	0.860820	0.718549	0	1
284.564880	0.795804	city	10	1	0.648612	0.648612	0	1	0	0	CorrectCommission	0.364842	0.681647	0	1
285.360687	0.795803	city	7	1	0.699451	0.699451	0	1	0	0	CorrectCommission	0.256735	0.643763	1	1
286.156616	0.796017	city	2	1	0.650627	0.650627	0	1	0	0	CorrectCommission	0.340206	0.607745	1	1
286.952423	0.795584	city	10	1	0.648711	0.648711	0	1	0	0	CorrectCommission	0.363640	0.576143	1	1
287.748108	0.795802	city	4	1	0.753701	0.753701	0	1	0	0	CorrectCommission	0.920029	0.551050	1	1
288.543945	0.795908	city	7	1	0.698526	0.698526	0	1	0	0	CorrectCommission	0.245434	0.534015	1	1
289.339813	0.795829	city	6	1	0.704957	0.704957	0	1	0	0	CorrectCommission	0.324053	0.526033	1	1
290.135559	0.795670	city	9	1	0.657653	0.657653	0	1	0	0	CorrectCommission	0.254308	0.527531	1	1
290.931305	0.795808	city	6	1	0.709942	0.709942	0	1	0	0	CorrectCommission	0.385010	0.538433	1	1
291.727112	0.795791	city	7	1	0.749082	0.749082	0	1	0	0	CorrectCommission	0.863560	0.558198	1	1
292.523010	0.796021	city	3	1	0.698428	0.698428	0	1	0	0	CorrectCommission	0.244237	0.585899	1	1
293.318817	0.795583	city	5	1	0.652802	0.652802	0	1	0	0	CorrectCommission	0.313620	0.620263	1	1
294.114502	0.795806	city	10	1	0.648746	0.648746	0	1	0	0	CorrectCommission	0.363204	0.659684	1	1
294.910309	0.795798	city	8	1	0.754866	0.754866	0	1	0	0	CorrectCommission	0.934281	0.702259	0	1
295.706238	0.796074	city	7	1	0.754730	0.754730	0	1	0	0	CorrectCommission	0.932610	0.745861	0	1
296.502045	0.795536	city	2	1	0.748501	0.748501	0	1	0	0	CorrectCommission	0.856449	0.788211	0	1
297.297791	0.795904	city	1	1	0.712110	0.712110	0	1	0	0	CorrectCommission	0.411511	0.826984	0	1
298.093567	0.795696	city	3	1	0.747975	0.747975	0	1	0	0	CorrectCommission	0.850020	0.859938	0	1
298.889313	0.795799	city	9	1	0.797853	0.797853	0	1	0	0	CorrectCommission	1.459855	0.885063	0	1
299.685120	0.795802	city	8	1	0.804562	0.804562	0	1	0	0	CorrectCommission	1.541889	0.900672	0	1
300.480957	0.795831	city	1	1	0.762606	0.762606	0	1	0	0	CorrectCommission	1.028912	0.905599	0	1
301.276733	0.795770	city	3	1	0.798712	0.798712	0	1	0	0	CorrectCommission	1.470365	0.899262	0	1
302.072540	0.795809	city	2	1	0.716366	0.716366	0	1	0	0	CorrectCommission	0.463554	0.881676	0	1
302.868439	0.796014	city	1	1	0.698741	0.698741	0	1	0	0	CorrectCommission	0.248055	0.853534	0	1
303.664246	0.795581	city	6	1	0.798026	0.798026	0	1	0	0	CorrectCommission	1.461981	0.816149	0	1
304.459930	0.795805	city	7	1	0.808387	0.808387	0	1	0	0	CorrectCommission	1.588661	0.771372	0	1
305.255737	0.795828	city	4	1	0.757064	0.757064	0	1	0	0	CorrectCommission	0.961145	0.721547	0	1
306.051666	0.795990	mountain	1	0	0.000000	0.717675	1	0	0	0	CorrectOmission	0.479562	0.669360	0	1
306.847443	0.795589	city	6	1	0.698217	0.698217	0	1	0	0	CorrectCommission	0.241656	0.617648	1	0
307.643158	0.795830	city	3	1	0.706684	0.706684	0	1	0	0	CorrectCommission	0.345170	0.569172	1	0
308.438965	0.795802	city	10	1	0.648633	0.648633	0	1	0	0	CorrectCommission	0.364594	0.526398	1	0
309.234772	0.795770	city	5	1	0.710563	0.710563	0	1	0	0	CorrectCommission	0.392599	0.491280	1	0
310.030579	0.795856	mountain	4	0	0.000000	0.686068	1	0	0	0	CorrectOmission	0.093105	0.465109	1	0
310.826385	0.795748	city	1	1	0.649264	0.649264	0	1	0	0	CorrectCommission	0.356880	0.448427	1	0
311.622162	0.795799	mountain	8	0	0.000000	0.674268	1	0	0	0	CorrectOmission	0.051161	0.440955	1	0
312.417938	0.795804	city	3	1	0.698933	0.698933	0	1	0	0	CorrectCommission	0.250408	0.441698	1	0
313.213776	0.795861	city	4	1	0.661111	0.661111	0	1	0	0	CorrectCommission	0.212028	0.449076	1	0
314.009583	0.795742	city	10	1	0.616457	0.616457	0	1	0	0	CorrectCommission	0.757996	0.461158	1	0
314.805359	0.795803	city	7	1	0.649843	0.649843	0	1	0	0	CorrectCommission	0.349801	0.475856	1	0
315.601166	0.795799	city	9	1	0.648652	0.648652	0	1	0	0	CorrectCommission	0.364364	0.491215	1	0
316.396973	0.795804	city	5	1	0.549985	0.549985	0	1	0	0	CorrectCommission	1.570719	0.505584	1	0
317.192810	0.795907	city	6	1	0.705566	0.705566	0	1	0	0	CorrectCommission	0.331500	0.517781	1	0
317.988617	0.795696	city	8	1	0.649318	0.649318	0	1	0	0	CorrectCommission	0.356219	0.527298	1	0
318.784363	0.795800	city	2	1	0.612759	0.612759	0	1	0	0	CorrectCommission	0.803204	0.534158	1	0
319.580261	0.796018	city	1	1	0.698304	0.698304	0	1	0	0	CorrectCommission	0.242719	0.539017	1	0
320.376068	0.795583	city	3	1	0.747903	0.747903	0	1	0	0	CorrectCommission	0.849141	0.543025	1	0
321.171875	0.796020	city	1	1	0.698301	0.698301	0	1	0	0	CorrectCommission	0.242680	0.547725	1	0
321.967743	0.795693	city	2	1	0.747900	0.747900	0	1	0	0	CorrectCommission	0.849108	0.555023	1	0
322.763428	0.795696	city	1	1	0.648530	0.648530	0	1	0	0	CorrectCommission	0.365849	0.567027	1	0
323.559235	0.795906	city	7	1	0.651285	0.651285	0	1	0	0	CorrectCommission	0.332166	0.585953	1	0
324.355133	0.795911	city	3	1	0.698436	0.698436	0	1	0	0	CorrectCommission	0.244332	0.613928	1	0
325.150909	0.795647	city	9	1	0.648434	0.648434	0	1	0	0	CorrectCommission	0.367021	0.652780	1	0
325.946625	0.795757	city	10	1	0.558584	0.558584	0	1	0	0	CorrectCommission	1.465579	0.703770	0	0
326.742401	0.795800	city	7	1	0.698871	0.698871	0	1	0	0	CorrectCommission	0.249649	0.767273	0	0
327.538208	0.795813	city	4	1	0.699767	0.699767	0	1	0	0	CorrectCommission	0.260608	0.842550	0	0
328.334045	0.795883	city	1	1	0.715540	0.715540	0	1	0	0	CorrectCommission	0.453448	0.927460	0	0
329.129822	0.795690	city	4	1	0.797891	0.797891	0	1	0	0	CorrectCommission	1.460323	1.018385	0	0
329.925690	0.796022	city	8	1	0.711884	0.711884	0	1	0	0	CorrectCommission	0.408747	1.110321	0	0
330.721497	0.795583	city	5	1	0.648688	0.648688	0	1	0	0	CorrectCommission	0.363924	1.197274	0	0
331.517181	0.795801	city	10	1	0.698378	0.698378	0	1	0	0	CorrectCommission	0.243626	1.272794	0	0
332.312988	0.795802	city	8	1	0.800456	0.800456	0	1	0	0	CorrectCommission	1.491687	1.330809	0	0
333.108795	0.795802	city	3	1	1.046561	1.046561	0	1	0	0	CorrectCommission	4.500712	1.366437	0	0
333.904602	0.795801	city	2	1	0.897333	0.897333	0	1	0	0	CorrectCommission	2.676162	1.376739	0	0
334.700439	0.795912	city	5	1	1.047145	1.047145	0	1	0	0	CorrectCommission	4.507846	1.361357	0	0
335.496246	0.795695	city	4	1	0.797791	0.797791	0	1	0	0	CorrectCommission	1.459101	1.322420	0	0
336.292114	0.796017	city	10	1	0.698373	0.698373	0	1	0	0	CorrectCommission	0.243561	1.264380	0	0
337.087952	0.795693	city	6	1	0.701800	0.701800	0	1	0	0	CorrectCommission	0.285462	1.193204	0	0
337.883698	0.795765	city	7	1	0.698575	0.698575	0	1	0	0	CorrectCommission	0.246027	1.115460	0	0
338.679535	0.795948	city	9	1	0.667483	0.667483	0	1	0	0	CorrectCommission	0.134126	1.037440	0	0
339.475311	0.795583	city	10	1	0.709835	0.709835	0	1	0	0	CorrectCommission	0.383699	0.964369	0	0
340.270996	0.795799	city	1	1	0.748114	0.748114	0	1	0	0	CorrectCommission	0.851720	0.899907	0	0
341.066925	0.796020	city	6	1	0.802099	0.802099	0	1	0	0	CorrectCommission	1.511773	0.845994	0	0
341.862732	0.795643	mountain	7	0	0.000000	0.772178	1	0	0	0	CorrectOmission	1.145940	0.802971	0	0
342.658539	0.795963	mountain	1	0	0.000000	0.705337	1	0	0	0	CorrectOmission	0.328702	0.769933	0	0
343.454376	0.795690	city	3	1	0.648562	0.648562	0	1	0	0	CorrectCommission	0.365457	0.745146	0	0
344.250122	0.795804	city	1	1	0.648841	0.648841	0	1	0	0	CorrectCommission	0.362053	0.726523	0	0
345.045868	0.795695	city	7	1	0.600042	0.600042	0	1	0	0	CorrectCommission	0.958691	0.712007	0	0
345.841736	0.796015	city	5	1	0.599346	0.599346	0	1	0	0	CorrectCommission	0.967202	0.699952	0	0
346.637512	0.795584	city	9	1	0.598683	0.598683	0	1	0	0	CorrectCommission	0.975314	0.689272	0	0
347.433228	0.795803	city	7	1	0.605225	0.605225	0	1	0	0	CorrectCommission	0.895326	0.679529	0	0
348.229034	0.795814	city	9	1	0.698385	0.698385	0	1	0	0	CorrectCommission	0.243705	0.670938	0	0
349.024841	0.795808	city	10	1	0.612104	0.612104	0	1	0	0	CorrectCommission	0.811222	0.664276	0	0
349.820740	0.795998	city	5	1	0.598873	0.598873	0	1	0	0	CorrectCommission	0.972986	0.660710	1	0
350.616577	0.795646	city	8	1	0.648942	0.648942	0	1	0	0	CorrectCommission	0.360808	0.661531	1	0
351.412354	0.795958	city	3	1	0.698785	0.698785	0	1	0	0	CorrectCommission	0.248591	0.668099	0	0
352.208130	0.795582	city	4	1	0.668698	0.668698	0	1	0	0	CorrectCommission	0.119265	0.681565	0	0
353.003876	0.795913	city	2	1	0.698299	0.698299	0	1	0	0	CorrectCommission	0.242652	0.702853	0	0
353.799683	0.795690	city	7	1	0.747996	0.747996	0	1	0	0	CorrectCommission	0.850278	0.732528	0	0
354.595428	0.795803	city	10	1	0.807520	0.807520	0	1	0	0	CorrectCommission	1.578058	0.770705	0	0
355.391296	0.795911	city	3	1	0.748240	0.748240	0	1	0	0	CorrectCommission	0.853259	0.816969	0	0
356.187134	0.795758	city	7	1	0.748091	0.748091	0	1	0	0	CorrectCommission	0.851446	0.870314	0	0
356.982880	0.795746	mountain	10	0	0.000000	0.723164	1	0	0	0	CorrectOmission	0.546674	0.929028	0	0
357.778656	0.795786	city	7	1	0.698417	0.698417	0	1	0	0	CorrectCommission	0.244094	0.990602	0	0
358.574432	0.795809	city	6	1	0.698806	0.698806	0	1	0	0	CorrectCommission	0.248859	1.051826	0	0
359.370331	0.795964	city	9	1	0.759972	0.759972	0	1	0	0	CorrectCommission	0.996699	1.108915	0	0
360.166138	0.795653	city	1	1	0.707571	0.707571	0	1	0	0	CorrectCommission	0.356015	1.157847	0	0
360.961853	0.795794	city	6	1	0.996759	0.996759	0	1	0	0	CorrectCommission	3.891796	1.194827	0	0
361.757660	0.795796	city	2	1	0.947070	0.947070	0	1	0	0	CorrectCommission	3.284272	1.216624	0	0
362.553558	0.796021	city	1	1	0.649040	0.649040	0	1	0	0	CorrectCommission	0.359619	1.221197	0	0
363.349365	0.795609	city	2	1	0.702480	0.702480	0	1	0	0	CorrectCommission	0.293770	1.207947	0	0
364.145081	0.795777	city	7	1	0.601612	0.601612	0	1	0	0	CorrectCommission	0.939498	1.177786	0	0
364.940857	0.795796	city	4	1	0.965368	0.965368	0	1	0	0	CorrectCommission	3.508002	1.133137	0	0
365.736694	0.795864	city	5	1	0.804310	0.804310	0	1	0	0	CorrectCommission	1.538805	1.077634	0	0
366.532501	0.795743	city	1	1	0.748070	0.748070	0	1	0	0	CorrectCommission	0.851181	1.015804	0	1
367.328278	0.795803	city	10	1	0.699113	0.699113	0	1	0	0	CorrectCommission	0.252604	0.952447	0	1
368.124054	0.795802	city	2	1	0.698481	0.698481	0	1	0	0	CorrectCommission	0.244876	0.892119	0	1
368.919861	0.795799	city	3	1	0.699210	0.699210	0	1	0	0	CorrectCommission	0.253798	0.838603	0	1
369.715668	0.795803	city	8	1	0.698327	0.698327	0	1	0	0	CorrectCommission	0.242999	0.794578	0	1
370.511475	0.795831	city	1	1	0.667205	0.667205	0	1	0	0	CorrectCommission	0.137522	0.761406	0	1
371.307281	0.795775	city	10	1	0.698537	0.698537	0	1	0	0	CorrectCommission	0.245567	0.739177	0	1
372.103088	0.795828	city	2	1	0.847561	0.847561	0	1	0	0	CorrectCommission	2.067621	0.726865	0	1
372.898926	0.795879	city	5	1	0.698340	0.698340	0	1	0	0	CorrectCommission	0.243157	0.722645	0	1
373.694733	0.795693	city	6	1	0.811767	0.811767	0	1	0	0	CorrectCommission	1.629978	0.724317	0	1
374.490479	0.795806	city	4	1	0.698546	0.698546	0	1	0	0	CorrectCommission	0.245672	0.729509	0	1
375.286285	0.795805	city	6	1	0.661222	0.661222	0	1	0	0	CorrectCommission	0.210666	0.736049	0	1
376.082123	0.795905	city	10	1	0.599199	0.599199	0	1	0	0	CorrectCommission	0.968997	0.742062	0	1
376.877930	0.795690	mountain	8	0	0.000000	0.702862	1	0	0	0	CorrectOmission	0.298450	0.746081	0	1
377.673706	0.795830	city	7	1	0.807420	0.807420	0	1	0	0	CorrectCommission	1.576834	0.747182	0	1
378.469513	0.795792	city	9	1	0.748081	0.748081	0	1	0	0	CorrectCommission	0.851318	0.744838	0	1
379.265289	0.795787	city	2	1	0.649100	0.649100	0	1	0	0	CorrectCommission	0.358882	0.739029	0	1
380.061218	0.796073	city	9	1	0.797889	0.797889	0	1	0	0	CorrectCommission	1.460306	0.730171	0	1
380.857025	0.795525	city	7	1	0.608187	0.608187	0	1	0	0	CorrectCommission	0.859107	0.718952	0	1
381.652679	0.795803	city	1	1	0.648672	0.648672	0	1	0	0	CorrectCommission	0.364113	0.706293	0	1
382.448486	0.795808	city	9	1	0.649201	0.649201	0	1	0	0	CorrectCommission	0.357647	0.693133	0	1
383.244293	0.795811	city	2	1	0.599242	0.599242	0	1	0	0	CorrectCommission	0.968475	0.680361	0	1
384.040100	0.795789	city	6	1	0.698483	0.698483	0	1	0	0	CorrectCommission	0.244904	0.668657	0	1
384.835999	0.796018	city	8	1	0.599452	0.599452	0	1	0	0	CorrectCommission	0.965905	0.658470	1	1
385.631836	0.795641	city	10	1	0.666689	0.666689	0	1	0	0	CorrectCommission	0.143833	0.649932	1	1
386.427551	0.795766	city	9	1	0.748386	0.748386	0	1	0	0	CorrectCommission	0.855048	0.642937	1	1
387.223328	0.795831	city	2	1	0.709917	0.709917	0	1	0	0	CorrectCommission	0.384701	0.637144	1	1
388.019226	0.795968	city	10	1	0.748068	0.748068	0	1	0	0	CorrectCommission	0.851156	0.632121	1	1
388.815125	0.795801	city	8	1	0.748347	0.748347	0	1	0	0	CorrectCommission	0.854573	0.627417	1	1
389.610870	0.795692	city	6	1	0.614985	0.614985	0	1	0	0	CorrectCommission	0.775993	0.622629	1	1
390.406677	0.795913	mountain	3	0	0.000000	0.627459	1	0	0	0	CorrectOmission	0.623474	0.617501	1	1
391.202423	0.795583	city	9	1	0.698224	0.698224	0	1	0	0	CorrectCommission	0.241734	0.611898	1	1
391.998230	0.796019	mountain	7	0	0.000000	0.739732	1	0	0	0	CorrectOmission	0.749237	0.605867	1	1
392.794067	0.795691	city	7	1	0.748809	0.748809	0	1	0	0	CorrectCommission	0.860216	0.599570	1	1
393.589783	0.795697	mountain	4	0	0.000000	0.722279	1	0	0	0	CorrectOmission	0.535851	0.593270	1	1
394.385529	0.795798	city	8	1	0.698396	0.698396	0	1	0	0	CorrectCommission	0.243838	0.587328	1	1
395.181366	0.795910	mountain	9	0	0.000000	0.715411	1	0	0	0	CorrectOmission	0.451872	0.582140	1	1
395.977173	0.795716	city	4	1	0.705019	0.705019	0	1	0	0	CorrectCommission	0.324822	0.578134	1	1
396.772919	0.795777	city	5	1	0.598917	0.598917	0	1	0	0	CorrectCommission	0.972443	0.575761	1	1
397.568817	0.796022	city	4	1	0.599026	0.599026	0	1	0	0	CorrectCommission	0.971116	0.575395	1	1
398.364624	0.795586	city	5	1	0.598779	0.598779	0	1	0	0	CorrectCommission	0.974140	0.577311	1	1
399.160339	0.795801	city	4	1	0.668463	0.668463	0	1	0	0	CorrectCommission	0.122142	0.581575	1	1
399.956116	0.795800	city	3	1	0.699183	0.699183	0	1	0	0	CorrectCommission	0.253457	0.587968	1	1
400.751984	0.795882	city	1	1	0.705529	0.705529	0	1	0	0	CorrectCommission	0.331051	0.595833	1	1
401.547791	0.795780	city	5	1	0.698384	0.698384	0	1	0	0	CorrectCommission	0.243688	0.604164	1	1
402.343567	0.795741	city	2	1	0.698357	0.698357	0	1	0	0	CorrectCommission	0.243359	0.611638	1	1
403.139343	0.795802	city	6	1	0.703199	0.703199	0	1	0	0	CorrectCommission	0.302564	0.616853	1	1
403.935150	0.795806	mountain	8	0	0.000000	0.791231	1	0	0	0	CorrectOmission	1.378900	0.618549	1	1
404.730927	0.795800	city	2	1	0.847585	0.847585	0	1	0	0	CorrectCommission	2.067914	0.615884	1	1
405.526794	0.795909	mountain	10	0	0.000000	0.757391	1	0	0	0	CorrectOmission	0.965149	0.608640	1	1
406.322601	0.795691	city	5	1	0.648565	0.648565	0	1	0	0	CorrectCommission	0.365426	0.597348	1	1
407.118347	0.795803	city	7	1	0.649022	0.649022	0	1	0	0	CorrectCommission	0.359839	0.583178	1	1
407.914246	0.796019	mountain	6	0	0.000000	0.644665	1	0	0	0	CorrectOmission	0.413106	0.567752	1	1
408.710052	0.795582	mountain	3	0	0.000000	0.646360	1	0	0	0	CorrectOmission	0.392386	0.552880	1	1
409.505737	0.795808	city	10	1	0.664970	0.664970	0	1	0	0	CorrectCommission	0.164845	0.540213	1	1
410.301605	0.795907	city	2	1	0.711361	0.711361	0	1	0	0	CorrectCommission	0.402357	0.531021	1	1
411.097443	0.795774	city	7	1	0.653548	0.653548	0	1	0	0	CorrectCommission	0.304500	0.526017	1	1
411.893219	0.795774	city	4	1	0.649166	0.649166	0	1	0	0	CorrectCommission	0.358073	0.525360	1	1
412.688965	0.795747	city	6	1	0.648749	0.648749	0	1	0	0	CorrectCommission	0.363172	0.528740	1	1
413.484863	0.796020	city	9	1	0.698393	0.698393	0	1	0	0	CorrectCommission	0.243807	0.535565	1	1
414.280701	0.795634	city	2	1	0.604060	0.604060	0	1	0	0	CorrectCommission	0.909569	0.545176	1	1
415.076385	0.795754	city	9	1	0.549230	0.549230	0	1	0	0	CorrectCommission	1.579947	0.557030	1	1
415.872162	0.795809	city	2	1	0.649126	0.649126	0	1	0	0	CorrectCommission	0.358561	0.570802	1	1
416.668060	0.796011	city	10	1	0.599277	0.599277	0	1	0	0	CorrectCommission	0.968047	0.586433	1	1
417.463867	0.795582	city	7	1	0.657663	0.657663	0	1	0	0	CorrectCommission	0.254183	0.603907	1	1
418.259674	0.796023	city	3	1	0.662522	0.662522	0	1	0	0	CorrectCommission	0.194780	0.623111	1	1
419.055481	0.795586	city	6	1	0.698299	0.698299	0	1	0	0	CorrectCommission	0.242653	0.643604	1	1
419.851166	0.795801	city	8	1	0.698648	0.698648	0	1	0	0	CorrectCommission	0.246917	0.664489	0	1
420.647003	0.795840	city	3	1	0.698539	0.698539	0	1	0	0	CorrectCommission	0.245590	0.684392	0	1
421.442841	0.795868	city	6	1	0.748073	0.748073	0	1	0	0	CorrectCommission	0.851216	0.701614	0	1
422.238617	0.795693	city	3	1	0.748004	0.748004	0	1	0	0	CorrectCommission	0.850372	0.714356	0	1
423.034485	0.796021	mountain	8	0	0.000000	0.814128	1	0	0	0	CorrectOmission	1.658847	0.721126	0	1
423.830292	0.795585	city	10	1	0.847347	0.847347	0	1	0	0	CorrectCommission	2.064998	0.721012	0	1
424.625977	0.795828	city	9	1	0.748560	0.748560	0	1	0	0	CorrectCommission	0.857179	0.713901	0	1
425.421783	0.795773	city	3	1	0.721376	0.721376	0	1	0	0	CorrectCommission	0.524805	0.700576	0	1
426.217590	0.795809	city	7	1	0.699763	0.699763	0	1	0	0	CorrectCommission	0.260557	0.682565	0	0
427.013397	0.795793	city	9	1	0.698372	0.698372	0	1	0	0	CorrectCommission	0.243551	0.661926	1	0
427.809204	0.795841	city	5	1	0.598899	0.598899	0	1	0	0	CorrectCommission	0.972670	0.640956	1	0
428.605011	0.795762	city	9	1	0.698316	0.698316	0	1	0	0	CorrectCommission	0.242867	0.621804	1	0
429.400879	0.796020	city	6	1	0.698354	0.698354	0	1	0	0	CorrectCommission	0.243321	0.606297	1	0
430.196716	0.795618	city	8	1	0.648835	0.648835	0	1	0	0	CorrectCommission	0.362118	0.595830	1	0
430.992401	0.795768	city	1	1	0.648987	0.648987	0	1	0	0	CorrectCommission	0.360260	0.591218	1	0
431.788177	0.795802	city	5	1	0.599464	0.599464	0	1	0	0	CorrectCommission	0.965766	0.592838	1	0
432.583984	0.795800	city	8	1	0.601316	0.601316	0	1	0	0	CorrectCommission	0.943115	0.600781	1	0
433.379822	0.795863	city	4	1	0.710625	0.710625	0	1	0	0	CorrectCommission	0.393357	0.615076	1	0
434.175629	0.795752	city	6	1	0.709728	0.709728	0	1	0	0	CorrectCommission	0.382395	0.635785	1	0
434.971405	0.795788	city	9	1	0.748115	0.748115	0	1	0	0	CorrectCommission	0.851740	0.663099	1	0
435.767212	0.795804	city	8	1	0.661789	0.661789	0	1	0	0	CorrectCommission	0.203738	0.697345	0	0
436.562988	0.795798	city	1	1	0.748142	0.748142	0	1	0	0	CorrectCommission	0.852066	0.738916	0	0
437.358826	0.795882	city	8	1	0.660755	0.660755	0	1	0	0	CorrectCommission	0.216375	0.788083	0	0
438.154633	0.795724	city	3	1	0.748081	0.748081	0	1	0	0	CorrectCommission	0.851321	0.844806	0	0
438.950500	0.796018	city	5	1	0.797847	0.797847	0	1	0	0	CorrectCommission	1.459786	0.908476	0	0
439.746307	0.795588	city	10	1	0.599056	0.599056	0	1	0	0	CorrectCommission	0.970753	0.977714	0	0
440.542023	0.795824	city	8	1	0.611678	0.611678	0	1	0	0	CorrectCommission	0.816430	1.050254	0	0
441.337830	0.795775	city	4	1	0.655755	0.655755	0	1	0	0	CorrectCommission	0.277512	1.122884	0	0
442.133606	0.795822	city	1	1	0.698369	0.698369	0	1	0	0	CorrectCommission	0.243509	1.191645	0	0
442.929413	0.795780	city	6	1	0.857276	0.857276	0	1	0	0	CorrectCommission	2.186398	1.252093	0	0
443.725311	0.796021	city	8	1	0.711625	0.711625	0	1	0	0	CorrectCommission	0.405588	1.299792	0	0
444.521118	0.795585	city	10	1	0.753094	0.753094	0	1	0	0	CorrectCommission	0.912616	1.330990	0	0
445.316864	0.795909	city	6	1	1.205405	1.205405	0	1	0	0	CorrectCommission	6.442831	1.343046	0	0
446.112671	0.795696	city	5	1	0.847767	0.847767	0	1	0	0	CorrectCommission	2.070137	1.334869	0	0
446.908417	0.795801	city	6	1	0.700719	0.700719	0	1	0	0	CorrectCommission	0.272243	1.307365	0	0
447.704224	0.795799	city	10	1	0.598872	0.598872	0	1	0	0	CorrectCommission	0.972996	1.263156	0	0
448.500031	0.795805	city	9	1	0.549776	0.549776	0	1	0	0	CorrectCommission	1.573278	1.206247	0	0
449.295929	0.796017	city	2	1	0.601422	0.601422	0	1	0	0	CorrectCommission	0.941816	1.141542	0	0
450.091858	0.795801	city	8	1	0.657146	0.657146	0	1	0	0	CorrectCommission	0.260506	1.074244	0	0
450.887634	0.795801	city	9	1	0.610394	0.610394	0	1	0	0	CorrectCommission	0.832124	1.009231	0	0
451.683380	0.795651	mountain	4	0	0.000000	0.713361	1	0	0	0	CorrectOmission	0.426817	0.950527	0	0
452.479126	0.795841	city	6	1	0.798995	0.798995	0	1	0	0	CorrectCommission	1.473819	0.900977	0	0
453.274902	0.795738	city	8	1	0.700240	0.700240	0	1	0	0	CorrectCommission	0.266387	0.862055	0	0
454.070648	0.795759	city	6	1	0.598864	0.598864	0	1	0	0	CorrectCommission	0.973094	0.833891	0	0
454.866425	0.795806	city	8	1	0.648644	0.648644	0	1	0	0	CorrectCommission	0.364459	0.815345	0	0
455.662292	0.795872	city	1	1	0.649060	0.649060	0	1	0	0	CorrectCommission	0.359376	0.804291	0	0
456.458069	0.795728	city	10	1	0.648557	0.648557	0	1	0	0	CorrectCommission	0.365520	0.797920	0	0
457.253845	0.795798	city	6	1	0.797844	0.797844	0	1	0	0	CorrectCommission	1.459745	0.793187	0	0
458.049652	0.795802	city	9	1	0.648943	0.648943	0	1	0	0	CorrectCommission	0.360804	0.787162	0	0
458.845459	0.795807	city	10	1	0.550104	0.550104	0	1	0	0	CorrectCommission	1.569266	0.777533	0	0
459.641357	0.796016	city	7	1	0.552868	0.552868	0	1	0	0	CorrectCommission	1.535465	0.762801	0	0
460.437256	0.795801	city	5	1	0.649860	0.649860	0	1	0	0	CorrectCommission	0.349584	0.742513	0	0
461.232971	0.795588	city	6	1	0.809666	0.809666	0	1	0	0	CorrectCommission	1.604297	0.717387	0	0
462.028748	0.796018	city	4	1	0.716553	0.716553	0	1	0	0	CorrectCommission	0.465844	0.689098	0	0
462.824554	0.795582	city	10	1	0.748612	0.748612	0	1	0	0	CorrectCommission	0.857816	0.659997	1	0
463.620270	0.795814	city	7	1	0.698309	0.698309	0	1	0	0	CorrectCommission	0.242779	0.632834	1	0
464.416077	0.795804	city	4	1	0.698709	0.698709	0	1	0	0	CorrectCommission	0.247662	0.610363	1	0
465.211853	0.795785	mountain	5	0	0.000000	0.684882	1	0	0	0	CorrectOmission	0.078615	0.594869	1	0
466.007660	0.795829	city	6	1	0.665425	0.665425	0	1	0	0	CorrectCommission	0.159283	0.587911	1	0
466.803589	0.795995	city	4	1	0.648931	0.648931	0	1	0	0	CorrectCommission	0.360953	0.590122	1	0
467.599396	0.795614	city	7	1	0.698505	0.698505	0	1	0	0	CorrectCommission	0.245177	0.601201	1	0
468.395111	0.795806	city	8	1	0.617961	0.617961	0	1	0	0	CorrectCommission	0.739603	0.619960	1	0
469.190979	0.795984	city	7	1	0.598842	0.598842	0	1	0	0	CorrectCommission	0.973360	0.644530	1	0
469.986877	0.795801	city	8	1	0.598846	0.598846	0	1	0	0	CorrectCommission	0.973318	0.672581	0	0
470.782562	0.795585	mountain	9	0	0.000000	0.637642	1	0	0	0	CorrectOmission	0.498977	0.701646	0	0
471.578278	0.795819	city	1	1	0.649085	0.649085	0	1	0	0	CorrectCommission	0.359070	0.729285	0	0
472.374084	0.795810	city	2	1	0.567029	0.567029	0	1	0	0	CorrectCommission	1.362330	0.753291	0	0
473.169891	0.795791	city	7	1	0.648735	0.648735	0	1	0	0	CorrectCommission	0.363339	0.771840	0	0
473.965698	0.795791	city	3	1	0.549175	0.549175	0	1	0	0	CorrectCommission	1.580622	0.783614	0	0
474.761475	0.795798	city	7	1	0.617459	0.617459	0	1	0	0	CorrectCommission	0.745737	0.787747	0	0
475.557281	0.795801	city	6	1	0.716900	0.716900	0	1	0	0	CorrectCommission	0.470083	0.783937	0	0
476.353088	0.795811	mountain	6	0	0.000000	0.787759	1	0	0	0	CorrectOmission	1.336440	0.772339	0	0
477.148895	0.795794	city	6	1	0.798190	0.798190	0	1	0	0	CorrectCommission	1.463981	0.753453	0	0
477.944794	0.796018	city	10	1	0.716350	0.716350	0	1	0	0	CorrectCommission	0.463351	0.728111	0	0
478.740601	0.795582	city	1	1	0.656900	0.656900	0	1	0	0	CorrectCommission	0.263510	0.697284	0	0
479.536285	0.795802	city	2	1	0.601264	0.601264	0	1	0	0	CorrectCommission	0.943748	0.661996	1	0
480.332092	0.795817	city	6	1	0.649410	0.649410	0	1	0	0	CorrectCommission	0.355091	0.623168	1	0
481.127899	0.795785	city	10	1	0.599515	0.599515	0	1	0	0	CorrectCommission	0.965132	0.581595	1	0
481.923706	0.795834	mountain	6	0	0.000000	0.682162	1	0	0	0	CorrectOmission	0.045350	0.537867	1	0
482.719604	0.795989	city	4	1	0.748176	0.748176	0	1	0	0	CorrectCommission	0.852481	0.492447	1	0
483.515442	0.795653	city	2	1	0.648386	0.648386	0	1	0	0	CorrectCommission	0.367611	0.445630	1	0
484.311127	0.795735	city	7	1	0.658615	0.658615	0	1	0	0	CorrectCommission	0.242540	0.397654	1	0
485.106903	0.795802	city	3	1	0.698429	0.698429	0	1	0	0	CorrectCommission	0.244241	0.348768	1	0
485.902710	0.795800	city	9	1	0.797858	0.797858	0	1	0	0	CorrectCommission	1.459926	0.299228	1	0
486.698486	0.795775	city	8	1	0.698845	0.698845	0	1	0	0	CorrectCommission	0.249325	0.249325	1	0
