onset	duration	trial_type	image_type	Press	ReactionTime	ReactionTime_Interpolated	CorrectOmission	CorrectCommission	CommissionError	OmissionError	response_type	nonsmoothVarianceTimeCourse	VarianceTimeCourse	In_the_Zone	Reward_trial
8.433832	0.792318	city	8	1	0.992434	0.992434	0	1	0	0	CorrectCommission	1.925361	1.925361	0	1
9.226095	0.792209	city	7	1	0.695349	0.695349	0	1	0	0	CorrectCommission	0.186345	1.832630	0	1
10.018331	0.792262	city	3	1	0.460323	0.460323	0	1	0	0	CorrectCommission	1.189401	1.740414	0	1
10.810604	0.792285	mountain	5	1	0.398179	0.398179	0	0	1	0	CommissionError	1.553169	1.649074	0	1
11.602868	0.792244	city	8	1	0.546756	0.546756	0	1	0	0	CorrectCommission	0.683459	1.558854	0	1
12.395123	0.792265	city	10	1	0.992426	0.992426	0	1	0	0	CorrectCommission	1.925315	1.469931	0	1
13.187415	0.792318	city	5	1	1.190482	1.190482	0	1	0	0	CorrectCommission	3.084655	1.382444	0	1
13.979680	0.792212	city	9	0	0.000000	0.875744	0	0	0	1	OmissionError	1.242304	1.296656	0	1
14.772027	0.792482	city	4	1	0.497224	0.497224	0	1	0	0	CorrectCommission	0.973399	1.213120	0	1
15.564401	0.792264	city	1	1	0.503935	0.503935	0	1	0	0	CorrectCommission	0.934116	1.132656	0	1
16.356569	0.792075	city	7	1	0.497075	0.497075	0	1	0	0	CorrectCommission	0.974272	1.056330	0	1
17.148727	0.792240	city	4	1	0.561223	0.561223	0	1	0	0	CorrectCommission	0.598776	0.985344	0	1
17.941088	0.792479	city	10	1	0.546876	0.546876	0	1	0	0	CorrectCommission	0.682755	0.920915	0	1
18.733389	0.792123	city	3	1	0.551593	0.551593	0	1	0	0	CorrectCommission	0.655143	0.864125	0	1
19.525654	0.792408	city	6	1	0.608967	0.608967	0	1	0	0	CorrectCommission	0.319300	0.815817	0	1
20.317881	0.792045	city	2	1	0.497197	0.497197	0	1	0	0	CorrectCommission	0.973557	0.776534	0	1
21.110037	0.792266	city	10	1	0.497367	0.497367	0	1	0	0	CorrectCommission	0.972563	0.746491	1	1
21.902302	0.792264	city	5	1	0.546805	0.546805	0	1	0	0	CorrectCommission	0.683172	0.725558	1	1
22.694674	0.792482	city	9	1	0.614035	0.614035	0	1	0	0	CorrectCommission	0.289634	0.713270	1	1
23.486940	0.792049	city	8	1	0.596572	0.596572	0	1	0	0	CorrectCommission	0.391854	0.708876	1	1
24.279203	0.792480	city	1	1	0.547074	0.547074	0	1	0	0	CorrectCommission	0.681594	0.711314	1	1
25.071497	0.792104	city	10	1	0.461547	0.461547	0	1	0	0	CorrectCommission	1.182234	0.719186	1	1
25.863653	0.792210	city	7	1	0.596191	0.596191	0	1	0	0	CorrectCommission	0.394084	0.730848	1	1
26.655890	0.792261	city	2	1	0.596682	0.596682	0	1	0	0	CorrectCommission	0.391209	0.744485	1	1
27.448179	0.792318	city	6	1	0.546737	0.546737	0	1	0	0	CorrectCommission	0.683570	0.758125	0	1
28.240442	0.792212	city	10	1	0.509427	0.509427	0	1	0	0	CorrectCommission	0.901969	0.769839	0	1
29.032682	0.792268	city	4	1	0.596722	0.596722	0	1	0	0	CorrectCommission	0.390980	0.777966	0	1
29.824953	0.792272	city	9	1	0.459223	0.459223	0	1	0	0	CorrectCommission	1.195843	0.781335	0	1
30.617216	0.792257	city	1	1	0.362761	0.362761	0	1	0	0	CorrectCommission	1.760488	0.779432	0	1
31.409477	0.792266	city	4	1	0.400252	0.400252	0	1	0	0	CorrectCommission	1.541030	0.772625	0	1
32.201752	0.792286	mountain	2	0	0.000000	0.537386	1	0	0	0	CorrectOmission	0.738308	0.762174	0	1
32.994019	0.792246	city	8	1	0.645939	0.645939	0	1	0	0	CorrectCommission	0.102878	0.750171	1	1
33.786274	0.792260	city	10	1	0.597692	0.597692	0	1	0	0	CorrectCommission	0.385300	0.739299	1	1
34.578533	0.792265	city	5	1	0.547224	0.547224	0	1	0	0	CorrectCommission	0.680716	0.732522	1	1
35.370800	0.792265	city	7	1	0.509261	0.509261	0	1	0	0	CorrectCommission	0.902938	0.732720	1	1
36.163063	0.792265	city	2	1	0.546741	0.546741	0	1	0	0	CorrectCommission	0.683543	0.742295	1	1
36.955330	0.792267	city	3	1	0.659050	0.659050	0	1	0	0	CorrectCommission	0.026136	0.762856	0	1
37.747593	0.792263	city	4	1	0.695378	0.695378	0	1	0	0	CorrectCommission	0.186515	0.794932	0	1
38.539967	0.792483	city	6	1	0.794383	0.794383	0	1	0	0	CorrectCommission	0.766051	0.837817	0	1
39.332233	0.792045	city	10	1	0.844484	0.844484	0	1	0	0	CorrectCommission	1.059319	0.889578	0	1
40.124409	0.792308	city	8	1	0.659257	0.659257	0	1	0	0	CorrectCommission	0.024923	0.947201	0	1
40.916698	0.792271	city	9	1	0.497356	0.497356	0	1	0	0	CorrectCommission	0.972626	1.006890	0	1
41.708973	0.792275	city	4	1	0.398848	0.398848	0	1	0	0	CorrectCommission	1.549249	1.064389	0	1
42.501251	0.792287	city	2	1	0.447673	0.447673	0	1	0	0	CorrectCommission	1.263448	1.115478	0	1
43.293491	0.792187	city	6	1	0.349314	0.349314	0	1	0	0	CorrectCommission	1.839202	1.156454	0	1
44.085823	0.792480	city	7	1	0.361928	0.361928	0	1	0	0	CorrectCommission	1.765365	1.184475	0	1
44.878086	0.792045	city	3	1	0.398034	0.398034	0	1	0	0	CorrectCommission	1.554018	1.197843	0	1
45.670242	0.792268	city	2	1	0.352109	0.352109	0	1	0	0	CorrectCommission	1.822840	1.196112	0	1
46.462509	0.792263	mountain	7	1	0.398198	0.398198	0	0	1	0	CommissionError	1.553057	1.180016	0	1
47.254772	0.792264	city	6	1	0.546913	0.546913	0	1	0	0	CorrectCommission	0.682539	1.151271	0	1
48.047035	0.792265	city	9	1	0.462168	0.462168	0	1	0	0	CorrectCommission	1.178602	1.112299	0	1
48.839298	0.792264	city	5	1	0.461891	0.461891	0	1	0	0	CorrectCommission	1.180225	1.065813	0	1
49.631565	0.792270	city	10	1	0.497274	0.497274	0	1	0	0	CorrectCommission	0.973103	1.014550	0	1
50.423843	0.792284	mountain	8	1	0.497167	0.497167	0	0	1	0	CommissionError	0.973730	0.960989	0	1
51.216106	0.792243	city	1	1	0.607533	0.607533	0	1	0	0	CorrectCommission	0.327697	0.907162	0	1
52.008469	0.792481	city	10	1	0.803603	0.803603	0	1	0	0	CorrectCommission	0.820023	0.854610	0	1
52.800732	0.792047	city	5	1	0.762922	0.762922	0	1	0	0	CorrectCommission	0.581890	0.804412	0	1
53.592892	0.792268	city	8	1	0.810855	0.810855	0	1	0	0	CorrectCommission	0.862472	0.757346	0	1
54.385208	0.792369	city	6	1	0.843887	0.843887	0	1	0	0	CorrectCommission	1.055825	0.714002	1	1
55.177582	0.792375	mountain	6	0	0.000000	0.841083	1	0	0	0	CorrectOmission	1.039415	0.674965	1	1
55.969795	0.792050	city	7	1	0.794291	0.794291	0	1	0	0	CorrectCommission	0.765513	0.640911	1	1
56.761951	0.792265	city	5	1	0.695357	0.695357	0	1	0	0	CorrectCommission	0.186393	0.612635	1	1
57.554214	0.792263	city	2	1	0.645756	0.645756	0	1	0	0	CorrectCommission	0.103951	0.591051	1	1
58.346481	0.792267	city	9	1	0.699299	0.699299	0	1	0	0	CorrectCommission	0.209470	0.577083	1	1
59.138744	0.792261	city	4	1	0.744868	0.744868	0	1	0	0	CorrectCommission	0.476209	0.571591	1	1
59.931061	0.792374	city	2	1	0.745324	0.745324	0	1	0	0	CorrectCommission	0.478878	0.575302	1	1
60.723328	0.792159	city	8	1	0.801306	0.801306	0	1	0	0	CorrectCommission	0.806578	0.588739	1	1
61.515537	0.792263	city	4	1	0.744806	0.744806	0	1	0	0	CorrectCommission	0.475846	0.612180	1	1
62.307911	0.792480	city	3	1	0.659211	0.659211	0	1	0	0	CorrectCommission	0.025191	0.645648	1	1
63.100197	0.792094	city	4	1	0.859364	0.859364	0	1	0	0	CorrectCommission	1.146426	0.688875	1	1
63.892357	0.792223	city	5	1	0.603113	0.603113	0	1	0	0	CorrectCommission	0.353564	0.741233	1	1
64.684601	0.792260	city	7	1	0.596251	0.596251	0	1	0	0	CorrectCommission	0.393733	0.801788	0	1
65.476860	0.792268	city	6	1	0.505310	0.505310	0	1	0	0	CorrectCommission	0.926065	0.869206	0	1
66.269234	0.792479	city	3	1	0.497216	0.497216	0	1	0	0	CorrectCommission	0.973443	0.941735	0	1
67.061539	0.792128	city	7	1	0.551551	0.551551	0	1	0	0	CorrectCommission	0.655389	1.017236	0	1
67.853699	0.792187	city	10	1	0.448144	0.448144	0	1	0	0	CorrectCommission	1.260693	1.093228	0	0
68.645920	0.792260	city	2	1	0.943061	0.943061	0	1	0	0	CorrectCommission	1.636350	1.166976	0	0
69.438187	0.792271	city	10	1	0.598895	0.598895	0	1	0	0	CorrectCommission	0.378258	1.235639	0	0
70.230453	0.792261	city	2	1	0.417138	0.417138	0	1	0	0	CorrectCommission	1.442191	1.296500	0	0
71.022751	0.792334	city	6	1	0.299167	0.299167	0	1	0	0	CorrectCommission	2.132746	1.347104	0	0
71.815048	0.792272	city	8	1	1.041781	1.041781	0	1	0	0	CorrectCommission	2.214220	1.385524	0	0
72.607391	0.792407	city	3	1	0.943262	0.943262	0	1	0	0	CorrectCommission	1.637528	1.410530	0	0
73.399620	0.792048	city	4	1	0.911892	0.911892	0	1	0	0	CorrectCommission	1.453900	1.421703	0	0
74.191811	0.792339	city	10	1	0.904151	0.904151	0	1	0	0	CorrectCommission	1.408590	1.419418	0	0
74.984100	0.792247	city	3	1	0.944937	0.944937	0	1	0	0	CorrectCommission	1.647336	1.404771	0	0
75.776466	0.792479	city	10	1	0.944489	0.944489	0	1	0	0	CorrectCommission	1.644710	1.379434	0	0
76.568756	0.792102	city	9	1	0.944152	0.944152	0	1	0	0	CorrectCommission	1.642739	1.345437	0	0
77.360992	0.792373	city	4	1	0.901228	0.901228	0	1	0	0	CorrectCommission	1.391479	1.304950	0	0
78.153206	0.792047	city	6	1	0.906848	0.906848	0	1	0	0	CorrectCommission	1.424374	1.260039	0	0
78.945389	0.792318	city	8	1	0.754580	0.754580	0	1	0	0	CorrectCommission	0.533062	1.212550	0	0
79.737671	0.792258	mountain	6	0	0.000000	0.573468	1	0	0	0	CorrectOmission	0.527097	1.164046	0	0
80.529968	0.792326	city	9	1	0.447652	0.447652	0	1	0	0	CorrectCommission	1.263572	1.115794	0	0
81.322319	0.792374	city	5	1	0.461275	0.461275	0	1	0	0	CorrectCommission	1.183827	1.068907	0	0
82.114578	0.792156	city	7	1	0.496998	0.496998	0	1	0	0	CorrectCommission	0.974723	1.024546	0	0
82.906746	0.792174	city	4	1	0.447700	0.447700	0	1	0	0	CorrectCommission	1.263292	0.984057	0	0
83.698959	0.792244	city	1	1	0.398338	0.398338	0	1	0	0	CorrectCommission	1.552236	0.949087	0	0
84.491211	0.792269	city	6	1	0.447891	0.447891	0	1	0	0	CorrectCommission	1.262174	0.921586	0	0
85.283531	0.792371	city	1	1	0.546784	0.546784	0	1	0	0	CorrectCommission	0.683295	0.903629	0	0
86.075851	0.792264	city	6	1	0.695239	0.695239	0	1	0	0	CorrectCommission	0.185700	0.897122	0	0
86.868057	0.792156	city	10	1	0.646014	0.646014	0	1	0	0	CorrectCommission	0.102439	0.903465	0	0
87.660301	0.792329	city	5	1	0.695329	0.695329	0	1	0	0	CorrectCommission	0.186227	0.923134	0	0
88.452614	0.792287	city	6	1	0.794878	0.794878	0	1	0	0	CorrectCommission	0.768946	0.955431	0	0
89.244896	0.792288	city	5	1	0.746153	0.746153	0	1	0	0	CorrectCommission	0.483731	0.998347	0	0
90.037231	0.792373	mountain	7	0	0.000000	0.569087	1	0	0	0	CorrectOmission	0.552739	1.048673	0	0
90.829544	0.792265	city	8	1	0.398009	0.398009	0	1	0	0	CorrectCommission	1.554160	1.102227	0	0
91.621704	0.792047	city	9	1	0.367247	0.367247	0	1	0	0	CorrectCommission	1.734231	1.154260	0	0
92.413864	0.792276	mountain	4	1	0.299225	0.299225	0	0	1	0	CommissionError	2.132408	1.199935	0	0
93.206131	0.792258	city	7	1	0.497206	0.497206	0	1	0	0	CorrectCommission	0.973503	1.234839	0	0
93.998497	0.792477	city	3	1	0.398187	0.398187	0	1	0	0	CorrectCommission	1.553119	1.255421	0	0
94.790871	0.792266	city	8	1	0.397971	0.397971	0	1	0	0	CorrectCommission	1.554386	1.259281	0	0
95.583031	0.792050	city	10	1	0.357968	0.357968	0	1	0	0	CorrectCommission	1.788546	1.245391	0	0
96.375290	0.792479	city	5	1	0.944080	0.944080	0	1	0	0	CorrectCommission	1.642316	1.214149	0	0
97.167664	0.792265	city	3	1	0.942678	0.942678	0	1	0	0	CorrectCommission	1.634108	1.167294	0	0
97.959930	0.792271	city	10	1	0.812739	0.812739	0	1	0	0	CorrectCommission	0.873498	1.107684	0	0
98.752106	0.792070	city	3	1	0.903038	0.903038	0	1	0	0	CorrectCommission	1.402073	1.039027	0	0
99.544258	0.792235	city	5	1	0.894033	0.894033	0	1	0	0	CorrectCommission	1.349364	0.965454	0	0
100.336563	0.792376	city	4	1	0.794703	0.794703	0	1	0	0	CorrectCommission	0.767926	0.891143	0	0
101.128860	0.792223	city	7	1	0.700367	0.700367	0	1	0	0	CorrectCommission	0.215717	0.819897	0	0
101.921074	0.792197	city	1	1	0.695217	0.695217	0	1	0	0	CorrectCommission	0.185575	0.754798	0	0
102.713303	0.792268	city	4	1	0.653412	0.653412	0	1	0	0	CorrectCommission	0.059139	0.697957	1	0
103.505569	0.792262	city	6	1	0.747536	0.747536	0	1	0	0	CorrectCommission	0.491825	0.650404	1	0
104.297943	0.792480	city	5	1	0.744816	0.744816	0	1	0	0	CorrectCommission	0.475905	0.612110	1	0
105.090218	0.792079	city	4	1	0.750717	0.750717	0	1	0	0	CorrectCommission	0.510450	0.582154	1	0
105.882431	0.792341	city	10	1	0.795035	0.795035	0	1	0	0	CorrectCommission	0.769866	0.558957	1	0
106.674690	0.792181	city	5	1	0.846295	0.846295	0	1	0	0	CorrectCommission	1.069924	0.540574	1	0
107.466957	0.792350	city	9	1	0.651377	0.651377	0	1	0	0	CorrectCommission	0.071047	0.525016	1	0
108.259209	0.792155	city	1	1	0.564237	0.564237	0	1	0	0	CorrectCommission	0.581131	0.510499	1	0
109.051414	0.792265	city	10	1	0.596314	0.596314	0	1	0	0	CorrectCommission	0.393364	0.495621	1	0
109.843681	0.792266	city	6	1	0.794493	0.794493	0	1	0	0	CorrectCommission	0.766696	0.479499	1	0
110.635986	0.792337	city	10	1	0.794863	0.794863	0	1	0	0	CorrectCommission	0.768863	0.461841	1	0
111.428246	0.792191	city	6	1	0.761311	0.761311	0	1	0	0	CorrectCommission	0.572463	0.442951	1	0
112.220589	0.792483	city	4	1	0.696071	0.696071	0	1	0	0	CorrectCommission	0.190572	0.423699	1	0
113.012962	0.792265	city	7	1	0.663988	0.663988	0	1	0	0	CorrectCommission	0.002773	0.405440	1	0
113.805122	0.792063	city	8	1	0.744589	0.744589	0	1	0	0	CorrectCommission	0.474580	0.389902	1	0
114.597290	0.792278	city	6	1	0.744784	0.744784	0	1	0	0	CorrectCommission	0.475721	0.378995	1	0
115.389656	0.792453	city	8	1	0.744837	0.744837	0	1	0	0	CorrectCommission	0.476030	0.374683	1	0
116.182022	0.792266	city	7	1	0.713492	0.713492	0	1	0	0	CorrectCommission	0.292550	0.378726	1	0
116.974197	0.792097	city	10	1	0.645577	0.645577	0	1	0	0	CorrectCommission	0.104998	0.392449	1	0
117.766357	0.792213	city	4	1	0.713190	0.713190	0	1	0	0	CorrectCommission	0.290778	0.416501	1	0
118.558594	0.792268	city	2	1	0.661967	0.661967	0	1	0	0	CorrectCommission	0.009058	0.450632	1	0
119.350914	0.792370	mountain	1	0	0.000000	0.643900	1	0	0	0	CorrectOmission	0.114818	0.493564	1	0
120.143204	0.792202	mountain	8	0	0.000000	0.645367	1	0	0	0	CorrectOmission	0.106228	0.542962	1	0
120.935417	0.792222	mountain	7	1	0.652750	0.652750	0	0	1	0	CommissionError	0.063011	0.595581	1	0
121.727707	0.792369	city	4	1	0.652429	0.652429	0	1	0	0	CorrectCommission	0.064893	0.647565	1	0
122.519981	0.792181	city	7	1	0.452291	0.452291	0	1	0	0	CorrectCommission	1.236421	0.694871	1	0
123.312195	0.792244	city	5	1	0.992442	0.992442	0	1	0	0	CorrectCommission	1.925409	0.733739	1	0
124.104561	0.792479	mountain	1	0	0.000000	1.081123	1	0	0	0	CorrectOmission	2.444510	0.761165	0	0
124.896820	0.792051	city	8	1	0.893165	0.893165	0	1	0	0	CorrectCommission	1.344282	0.775257	0	0
125.688980	0.792263	mountain	10	1	0.603403	0.603403	0	0	1	0	CommissionError	0.351872	0.775415	0	0
126.481300	0.792370	city	1	1	0.695285	0.695285	0	1	0	0	CorrectCommission	0.185971	0.762282	0	0
127.273598	0.792232	city	10	1	0.745199	0.745199	0	1	0	0	CorrectCommission	0.478149	0.737550	1	1
128.065826	0.792221	city	2	1	0.843832	0.843832	0	1	0	0	CorrectCommission	1.055508	0.703678	1	1
128.858154	0.792451	city	1	1	0.898004	0.898004	0	1	0	0	CorrectCommission	1.372605	0.663553	1	1
129.650406	0.792049	city	8	1	0.713558	0.713558	0	1	0	0	CorrectCommission	0.292933	0.620165	1	1
130.442566	0.792261	city	5	1	0.765140	0.765140	0	1	0	0	CorrectCommission	0.594874	0.576347	1	1
131.234833	0.792266	city	1	1	0.710661	0.710661	0	1	0	0	CorrectCommission	0.275973	0.534492	1	1
132.027145	0.792373	city	6	1	0.695474	0.695474	0	1	0	0	CorrectCommission	0.187079	0.496466	1	1
132.819443	0.792200	city	8	1	0.600807	0.600807	0	1	0	0	CorrectCommission	0.367063	0.463542	1	1
133.611694	0.792328	city	7	1	0.645869	0.645869	0	1	0	0	CorrectCommission	0.103292	0.436381	1	1
134.403961	0.792207	city	8	1	0.695744	0.695744	0	1	0	0	CorrectCommission	0.188655	0.415129	1	1
135.196213	0.792271	city	3	1	0.744803	0.744803	0	1	0	0	CorrectCommission	0.475829	0.399501	1	1
135.988480	0.792262	city	5	1	0.794267	0.794267	0	1	0	0	CorrectCommission	0.765373	0.388911	1	1
136.780716	0.792213	mountain	4	0	0.000000	0.761286	1	0	0	0	CorrectOmission	0.572316	0.382582	1	1
137.572952	0.792263	city	2	1	0.695343	0.695343	0	1	0	0	CorrectCommission	0.186309	0.379634	1	1
138.365219	0.792266	city	10	1	0.645919	0.645919	0	1	0	0	CorrectCommission	0.103000	0.379135	1	1
139.157532	0.792371	city	8	1	0.695287	0.695287	0	1	0	0	CorrectCommission	0.185982	0.380138	1	1
139.949799	0.792156	city	2	1	0.646206	0.646206	0	1	0	0	CorrectCommission	0.101320	0.381686	1	1
140.742065	0.792373	city	9	1	0.799222	0.799222	0	1	0	0	CorrectCommission	0.794377	0.382861	1	1
141.534332	0.792161	city	2	1	0.744879	0.744879	0	1	0	0	CorrectCommission	0.476272	0.382814	1	1
142.326538	0.792264	city	1	1	0.744952	0.744952	0	1	0	0	CorrectCommission	0.476703	0.380861	1	1
143.118805	0.792262	mountain	7	0	0.000000	0.742588	1	0	0	0	CorrectOmission	0.462863	0.376515	1	1
143.911072	0.792265	city	7	1	0.745486	0.745486	0	1	0	0	CorrectCommission	0.479825	0.369529	1	1
144.703445	0.792481	city	9	1	0.761345	0.761345	0	1	0	0	CorrectCommission	0.572660	0.359903	1	1
145.495712	0.792050	city	1	1	0.612472	0.612472	0	1	0	0	CorrectCommission	0.298783	0.347880	1	1
146.287857	0.792267	city	4	1	0.645829	0.645829	0	1	0	0	CorrectCommission	0.103523	0.333920	1	1
147.080124	0.792258	city	6	1	0.645838	0.645838	0	1	0	0	CorrectCommission	0.103473	0.318650	1	1
147.872498	0.792483	city	5	1	0.499649	0.499649	0	1	0	0	CorrectCommission	0.959202	0.302797	1	1
148.664810	0.792155	city	9	1	0.652401	0.652401	0	1	0	0	CorrectCommission	0.065055	0.287128	1	1
149.456970	0.792156	city	4	1	0.654592	0.654592	0	1	0	0	CorrectCommission	0.052230	0.272451	1	1
150.249191	0.792271	city	1	1	0.646040	0.646040	0	1	0	0	CorrectCommission	0.102287	0.259506	1	1
151.041489	0.792338	city	4	1	0.614041	0.614041	0	1	0	0	CorrectCommission	0.289596	0.248962	1	1
151.833755	0.792186	city	7	1	0.596755	0.596755	0	1	0	0	CorrectCommission	0.390784	0.241367	1	1
152.625977	0.792266	city	8	1	0.695420	0.695420	0	1	0	0	CorrectCommission	0.186759	0.237113	1	1
153.418289	0.792374	city	10	1	0.658000	0.658000	0	1	0	0	CorrectCommission	0.032278	0.236415	1	1
154.210556	0.792157	city	7	1	0.708107	0.708107	0	1	0	0	CorrectCommission	0.261029	0.239266	1	1
155.002792	0.792289	city	3	1	0.695447	0.695447	0	1	0	0	CorrectCommission	0.186922	0.245447	1	1
155.795151	0.792456	city	1	1	0.650464	0.650464	0	1	0	0	CorrectCommission	0.076393	0.254543	1	1
156.587524	0.792266	city	6	1	0.695147	0.695147	0	1	0	0	CorrectCommission	0.185165	0.265971	1	1
157.379776	0.792263	city	7	1	0.645611	0.645611	0	1	0	0	CorrectCommission	0.104800	0.279077	1	1
158.171967	0.792092	city	2	1	0.695695	0.695695	0	1	0	0	CorrectCommission	0.188372	0.293244	1	1
158.964142	0.792261	city	5	1	0.744781	0.744781	0	1	0	0	CorrectCommission	0.475699	0.308039	1	1
159.756378	0.792223	city	2	1	0.744860	0.744860	0	1	0	0	CorrectCommission	0.476162	0.323325	1	1
160.548630	0.792291	city	3	1	0.794368	0.794368	0	1	0	0	CorrectCommission	0.765963	0.339358	1	1
161.341003	0.792456	city	6	1	0.808370	0.808370	0	1	0	0	CorrectCommission	0.847926	0.356757	1	1
162.133377	0.792264	city	2	1	0.664932	0.664932	0	1	0	0	CorrectCommission	0.008299	0.376415	1	1
162.925522	0.792051	city	8	1	0.649886	0.649886	0	1	0	0	CorrectCommission	0.079776	0.399346	1	1
163.717743	0.792370	city	9	1	0.654993	0.654993	0	1	0	0	CorrectCommission	0.049884	0.426428	1	1
164.510010	0.792159	city	4	1	0.609495	0.609495	0	1	0	0	CorrectCommission	0.316211	0.458194	1	1
165.302261	0.792371	city	10	1	0.699398	0.699398	0	1	0	0	CorrectCommission	0.210045	0.494642	1	1
166.094528	0.792158	mountain	7	0	0.000000	0.747806	1	0	0	0	CorrectOmission	0.493411	0.535174	1	1
166.886765	0.792319	city	4	1	0.760894	0.760894	0	1	0	0	CorrectCommission	0.570021	0.578618	1	1
167.679031	0.792209	city	3	1	0.744834	0.744834	0	1	0	0	CorrectCommission	0.476012	0.623401	1	1
168.471268	0.792267	city	10	1	0.551355	0.551355	0	1	0	0	CorrectCommission	0.656539	0.667798	1	1
169.263535	0.792265	city	3	1	0.596286	0.596286	0	1	0	0	CorrectCommission	0.393528	0.710255	1	1
170.055832	0.792309	city	8	1	0.463735	0.463735	0	1	0	0	CorrectCommission	1.169429	0.749720	1	1
170.848190	0.792434	city	10	1	0.992373	0.992373	0	1	0	0	CorrectCommission	1.925006	0.785884	0	1
171.640442	0.792050	city	2	1	0.899916	0.899916	0	1	0	0	CorrectCommission	1.383797	0.819295	0	1
172.432648	0.792371	city	6	1	0.843825	0.843825	0	1	0	0	CorrectCommission	1.055463	0.851305	0	1
173.224930	0.792196	city	4	1	0.744850	0.744850	0	1	0	0	CorrectCommission	0.476106	0.883872	0	1
174.017151	0.792232	city	9	1	0.645906	0.645906	0	1	0	0	CorrectCommission	0.103073	0.919181	0	1
174.809418	0.792307	city	3	1	0.645953	0.645953	0	1	0	0	CorrectCommission	0.102799	0.959297	0	1
175.601761	0.792376	city	9	1	0.497163	0.497163	0	1	0	0	CorrectCommission	0.973753	1.005725	0	1
176.394058	0.792210	city	1	1	0.447506	0.447506	0	1	0	0	CorrectCommission	1.264429	1.059094	0	1
177.186340	0.792374	city	8	1	0.497123	0.497123	0	1	0	0	CorrectCommission	0.973990	1.119057	0	1
177.978561	0.792052	city	9	1	0.514079	0.514079	0	1	0	0	CorrectCommission	0.874734	1.184275	0	1
178.770752	0.792338	city	5	1	0.466198	0.466198	0	1	0	0	CorrectCommission	1.155012	1.252542	0	1
179.563126	0.792405	city	2	1	0.447718	0.447718	0	1	0	0	CorrectCommission	1.263189	1.321050	0	1
180.355377	0.792101	city	8	1	0.348836	0.348836	0	1	0	0	CorrectCommission	1.842002	1.386703	0	1
181.147552	0.792241	city	10	1	0.398140	0.398140	0	1	0	0	CorrectCommission	1.553396	1.446490	0	1
181.939804	0.792271	city	8	1	0.354474	0.354474	0	1	0	0	CorrectCommission	1.809001	1.497785	0	1
182.732056	0.792229	city	10	1	1.043371	1.043371	0	1	0	0	CorrectCommission	2.223525	1.538599	0	1
183.524307	0.792264	city	9	1	0.943384	0.943384	0	1	0	0	CorrectCommission	1.638240	1.567731	0	1
184.316574	0.792269	city	3	1	0.911924	0.911924	0	1	0	0	CorrectCommission	1.454086	1.584843	0	1
185.108856	0.792300	city	5	1	0.893338	0.893338	0	1	0	0	CorrectCommission	1.345293	1.590379	0	1
185.901123	0.792230	city	9	1	1.095195	1.095195	0	1	0	0	CorrectCommission	2.526884	1.585418	0	1
186.693359	0.792263	city	3	1	1.149550	1.149550	0	1	0	0	CorrectCommission	2.845055	1.571413	0	0
187.485626	0.792263	city	8	0	0.000000	0.766319	0	0	0	1	OmissionError	0.601777	1.549963	0	0
188.277893	0.792268	city	5	1	0.447964	0.447964	0	1	0	0	CorrectCommission	1.261747	1.522608	0	0
189.070160	0.792284	city	10	1	0.696945	0.696945	0	1	0	0	CorrectCommission	0.195687	1.490580	0	0
189.862457	0.792310	city	2	1	1.054322	1.054322	0	1	0	0	CorrectCommission	2.287628	1.454798	0	0
190.654831	0.792413	city	9	0	0.000000	1.009194	0	0	0	1	OmissionError	2.023466	1.415775	0	0
191.447159	0.792266	city	6	0	0.000000	0.745604	0	0	0	1	OmissionError	0.480516	1.373873	0	0
192.239319	0.792045	city	8	1	0.447595	0.447595	0	1	0	0	CorrectCommission	1.263905	1.329457	0	0
193.031494	0.792295	city	5	1	0.299212	0.299212	0	1	0	0	CorrectCommission	2.132481	1.283023	0	0
193.823807	0.792345	city	4	1	0.299240	0.299240	0	1	0	0	CorrectCommission	2.132315	1.235394	0	0
194.616089	0.792209	mountain	8	1	0.398287	0.398287	0	0	1	0	CommissionError	1.552537	1.187783	0	0
195.408356	0.792319	mountain	6	1	0.695273	0.695273	0	0	1	0	CommissionError	0.185904	1.141693	0	0
196.200592	0.792158	city	4	1	0.893250	0.893250	0	1	0	0	CorrectCommission	1.344778	1.098739	0	0
196.992798	0.792264	city	9	1	0.744841	0.744841	0	1	0	0	CorrectCommission	0.476051	1.060357	0	0
197.785126	0.792372	city	2	1	0.610856	0.610856	0	1	0	0	CorrectCommission	0.308242	1.027613	0	0
198.577499	0.792375	city	6	1	0.596151	0.596151	0	1	0	0	CorrectCommission	0.394319	1.001022	0	0
199.369705	0.792063	city	5	1	0.546687	0.546687	0	1	0	0	CorrectCommission	0.683864	0.980497	0	0
200.161865	0.792249	city	10	1	0.459334	0.459334	0	1	0	0	CorrectCommission	1.195194	0.965420	0	0
200.954178	0.792373	city	7	1	1.042040	1.042040	0	1	0	0	CorrectCommission	2.215735	0.954779	0	0
201.746475	0.792221	city	4	1	0.893273	0.893273	0	1	0	0	CorrectCommission	1.344916	0.947393	0	0
202.538681	0.792200	city	7	1	0.754371	0.754371	0	1	0	0	CorrectCommission	0.531836	0.942124	0	0
203.330917	0.792263	city	4	1	0.645813	0.645813	0	1	0	0	CorrectCommission	0.103621	0.937968	0	0
204.123215	0.792341	city	3	1	0.497227	0.497227	0	1	0	0	CorrectCommission	0.973379	0.934111	0	0
204.915482	0.792188	mountain	3	1	0.410808	0.410808	0	0	1	0	CommissionError	1.479244	0.929947	0	0
205.707733	0.792300	city	8	1	0.560714	0.560714	0	1	0	0	CorrectCommission	0.601753	0.925012	0	0
206.500000	0.792244	city	4	1	0.511837	0.511837	0	1	0	0	CorrectCommission	0.887860	0.918969	0	0
207.292358	0.792471	city	6	1	0.507511	0.507511	0	1	0	0	CorrectCommission	0.913183	0.911439	0	0
208.084641	0.792111	city	7	1	0.497032	0.497032	0	1	0	0	CorrectCommission	0.974522	0.902021	0	0
208.876907	0.792418	city	6	1	0.458823	0.458823	0	1	0	0	CorrectCommission	1.198181	0.890278	0	0
209.669174	0.792093	city	10	1	0.447513	0.447513	0	1	0	0	CorrectCommission	1.264385	0.875701	0	0
210.461380	0.792326	city	5	1	0.746139	0.746139	0	1	0	0	CorrectCommission	0.483648	0.857742	0	0
211.253616	0.792160	city	10	1	0.598873	0.598873	0	1	0	0	CorrectCommission	0.378388	0.835887	0	0
212.045837	0.792264	city	4	1	0.903027	0.903027	0	1	0	0	CorrectCommission	1.402008	0.809696	0	0
212.838089	0.792264	city	2	1	0.596407	0.596407	0	1	0	0	CorrectCommission	0.392820	0.778925	0	0
213.630356	0.792266	city	7	1	0.546903	0.546903	0	1	0	0	CorrectCommission	0.682597	0.743642	1	0
214.422638	0.792294	city	9	1	0.455562	0.455562	0	1	0	0	CorrectCommission	1.217270	0.704287	1	0
215.214905	0.792235	mountain	8	1	0.358347	0.358347	0	0	1	0	CommissionError	1.786328	0.661736	1	0
216.007156	0.792264	city	1	1	0.695484	0.695484	0	1	0	0	CorrectCommission	0.187138	0.617289	1	0
216.799469	0.792375	city	10	1	0.546996	0.546996	0	1	0	0	CorrectCommission	0.682052	0.572642	1	0
217.591690	0.792058	city	2	1	0.645688	0.645688	0	1	0	0	CorrectCommission	0.104352	0.529679	1	0
218.383896	0.792363	city	5	1	0.645914	0.645914	0	1	0	0	CorrectCommission	0.103028	0.490368	1	0
219.176208	0.792265	city	1	1	0.653107	0.653107	0	1	0	0	CorrectCommission	0.060924	0.456609	1	0
219.968582	0.792479	city	9	1	0.659658	0.659658	0	1	0	0	CorrectCommission	0.022572	0.430136	1	0
220.760849	0.792053	city	10	1	0.546543	0.546543	0	1	0	0	CorrectCommission	0.684702	0.412438	1	0
221.553009	0.792260	city	6	1	0.546913	0.546913	0	1	0	0	CorrectCommission	0.682537	0.404693	1	0
222.345383	0.792480	mountain	5	0	0.000000	0.629499	1	0	0	0	CorrectOmission	0.199111	0.407839	1	0
223.137650	0.792056	city	1	1	0.707835	0.707835	0	1	0	0	CorrectCommission	0.259432	0.422559	1	0
223.929916	0.792475	city	8	1	0.695451	0.695451	0	1	0	0	CorrectCommission	0.186944	0.449210	1	0
224.722214	0.792111	city	9	1	0.695146	0.695146	0	1	0	0	CorrectCommission	0.185159	0.487765	1	0
225.514359	0.792203	mountain	6	0	0.000000	0.729266	1	0	0	0	CorrectOmission	0.384881	0.537731	1	0
226.306595	0.792263	city	9	1	0.745389	0.745389	0	1	0	0	CorrectCommission	0.479258	0.598033	1	0
227.098969	0.792481	mountain	2	0	0.000000	0.691094	1	0	0	0	CorrectOmission	0.161440	0.666962	1	0
227.891235	0.792048	city	6	1	0.600869	0.600869	0	1	0	0	CorrectCommission	0.366701	0.742168	1	0
228.683395	0.792271	city	5	1	0.509201	0.509201	0	1	0	0	CorrectCommission	0.903291	0.820715	0	0
229.475693	0.792329	city	10	1	0.497395	0.497395	0	1	0	0	CorrectCommission	0.972396	0.899232	0	0
230.267960	0.792194	city	1	1	0.447715	0.447715	0	1	0	0	CorrectCommission	1.263204	0.974207	0	0
231.060181	0.792264	city	3	1	0.448601	0.448601	0	1	0	0	CorrectCommission	1.258016	1.042233	0	0
231.852509	0.792374	city	6	1	0.398498	0.398498	0	1	0	0	CorrectCommission	1.551301	1.100320	0	0
232.644775	0.792159	city	1	1	0.448093	0.448093	0	1	0	0	CorrectCommission	1.260994	1.146136	0	0
233.437088	0.792480	city	4	1	0.415659	0.415659	0	1	0	0	CorrectCommission	1.450847	1.178243	0	0
234.229401	0.792155	city	2	1	0.398009	0.398009	0	1	0	0	CorrectCommission	1.554164	1.196112	0	0
235.021591	0.792217	city	4	1	1.044080	1.044080	0	1	0	0	CorrectCommission	2.227679	1.200126	0	0
235.813797	0.792204	city	7	1	0.943233	0.943233	0	1	0	0	CorrectCommission	1.637356	1.191411	0	0
236.606064	0.792326	mountain	5	0	0.000000	0.656637	1	0	0	0	CorrectOmission	0.040258	1.171650	0	0
237.398331	0.792206	city	7	1	0.414710	0.414710	0	1	0	0	CorrectCommission	1.456404	1.142851	0	0
238.190598	0.792317	city	5	1	0.447866	0.447866	0	1	0	0	CorrectCommission	1.262319	1.107031	0	0
238.982849	0.792209	city	3	1	0.498980	0.498980	0	1	0	0	CorrectCommission	0.963118	1.066176	0	0
239.775101	0.792285	city	4	1	0.709329	0.709329	0	1	0	0	CorrectCommission	0.268177	1.022172	0	0
240.567368	0.792255	mountain	2	0	0.000000	0.522904	1	0	0	0	CorrectOmission	0.823081	0.976851	0	0
241.359650	0.792298	city	9	1	0.447918	0.447918	0	1	0	0	CorrectCommission	1.262014	0.932076	0	0
242.151917	0.792222	city	2	1	0.992586	0.992586	0	1	0	0	CorrectCommission	1.926254	0.889885	0	0
242.944214	0.792372	city	9	1	0.893357	0.893357	0	1	0	0	CorrectCommission	1.345404	0.852509	0	0
243.736465	0.792156	city	1	1	0.744939	0.744939	0	1	0	0	CorrectCommission	0.476626	0.822336	0	0
244.528732	0.792376	city	5	1	0.596289	0.596289	0	1	0	0	CorrectCommission	0.393513	0.801689	0	0
245.321060	0.792263	city	10	1	0.695646	0.695646	0	1	0	0	CorrectCommission	0.188085	0.792474	0	0
246.113266	0.792155	city	6	1	0.695889	0.695889	0	1	0	0	CorrectCommission	0.189505	0.795813	0	1
246.905472	0.792266	city	4	1	0.647319	0.647319	0	1	0	0	CorrectCommission	0.094800	0.811704	0	1
247.697739	0.792269	mountain	1	0	0.000000	0.588931	1	0	0	0	CorrectOmission	0.436582	0.838815	0	1
248.490005	0.792259	city	6	1	0.546761	0.546761	0	1	0	0	CorrectCommission	0.683429	0.874467	0	1
249.282272	0.792268	city	9	1	0.546846	0.546846	0	1	0	0	CorrectCommission	0.682929	0.914794	0	1
250.074539	0.792271	city	8	1	0.461007	0.461007	0	1	0	0	CorrectCommission	1.185397	0.955181	0	1
250.866806	0.792260	city	7	1	0.398920	0.398920	0	1	0	0	CorrectCommission	1.548827	0.990777	0	1
251.659180	0.792479	city	10	1	0.410438	0.410438	0	1	0	0	CorrectCommission	1.481406	1.017114	0	1
252.451553	0.792263	city	3	1	0.361036	0.361036	0	1	0	0	CorrectCommission	1.770588	1.030669	0	1
253.243805	0.792266	city	6	1	0.411945	0.411945	0	1	0	0	CorrectCommission	1.472589	1.029291	0	1
254.035995	0.792110	city	10	1	0.448073	0.448073	0	1	0	0	CorrectCommission	1.261110	1.012480	0	1
254.828262	0.792419	city	7	1	0.400955	0.400955	0	1	0	0	CorrectCommission	1.536920	0.981349	0	1
255.620499	0.792050	city	5	1	0.467247	0.467247	0	1	0	0	CorrectCommission	1.148873	0.938430	0	1
256.412659	0.792274	city	2	1	0.497542	0.497542	0	1	0	0	CorrectCommission	0.971538	0.887300	0	1
257.204926	0.792254	city	6	1	0.497236	0.497236	0	1	0	0	CorrectCommission	0.973327	0.832046	0	1
257.997192	0.792275	city	9	1	0.645832	0.645832	0	1	0	0	CorrectCommission	0.103508	0.776700	0	1
258.789459	0.792252	city	10	1	0.651695	0.651695	0	1	0	0	CorrectCommission	0.069189	0.724765	1	1
259.581818	0.792483	city	3	1	0.711723	0.711723	0	1	0	0	CorrectCommission	0.282195	0.678795	1	1
260.374146	0.792155	city	4	1	0.745835	0.745835	0	1	0	0	CorrectCommission	0.481871	0.640212	1	1
261.166412	0.792373	city	7	1	0.696719	0.696719	0	1	0	0	CorrectCommission	0.194365	0.609316	1	1
261.958679	0.792158	city	3	1	0.695939	0.695939	0	1	0	0	CorrectCommission	0.189801	0.585466	1	1
262.750946	0.792373	city	4	1	0.794840	0.794840	0	1	0	0	CorrectCommission	0.768726	0.567345	1	1
263.543182	0.792119	city	2	1	1.007035	1.007035	0	1	0	0	CorrectCommission	2.010832	0.553326	1	1
264.335327	0.792195	city	4	1	0.745191	0.745191	0	1	0	0	CorrectCommission	0.478101	0.541795	1	1
265.127563	0.792265	city	8	1	0.605874	0.605874	0	1	0	0	CorrectCommission	0.337408	0.531461	1	1
265.919830	0.792260	city	6	1	0.700175	0.700175	0	1	0	0	CorrectCommission	0.214595	0.521429	1	1
266.712097	0.792267	city	2	1	0.645986	0.645986	0	1	0	0	CorrectCommission	0.102608	0.511287	1	1
267.504364	0.792264	city	5	1	0.751313	0.751313	0	1	0	0	CorrectCommission	0.513937	0.501063	1	1
268.296661	0.792326	city	3	1	0.794446	0.794446	0	1	0	0	CorrectCommission	0.766421	0.491144	1	1
269.088928	0.792204	city	2	1	0.747197	0.747197	0	1	0	0	CorrectCommission	0.489845	0.482161	1	1
269.881165	0.792266	city	7	1	0.763243	0.763243	0	1	0	0	CorrectCommission	0.583768	0.474870	1	1
270.673431	0.792265	city	6	1	0.754576	0.754576	0	1	0	0	CorrectCommission	0.533038	0.470018	1	1
271.465698	0.792290	city	3	1	0.744876	0.744876	0	1	0	0	CorrectCommission	0.476259	0.468216	1	1
272.257996	0.792291	mountain	3	0	0.000000	0.701974	1	0	0	0	CorrectOmission	0.225124	0.469815	1	1
273.050354	0.792428	city	6	1	0.645739	0.645739	0	1	0	0	CorrectCommission	0.104050	0.474813	1	1
273.842590	0.792046	city	10	1	0.596044	0.596044	0	1	0	0	CorrectCommission	0.394945	0.482769	1	1
274.634766	0.792291	city	2	1	0.561476	0.561476	0	1	0	0	CorrectCommission	0.597292	0.492790	1	1
275.427032	0.792238	city	7	1	0.610690	0.610690	0	1	0	0	CorrectCommission	0.309212	0.503624	1	1
276.219269	0.792265	city	1	1	0.649876	0.649876	0	1	0	0	CorrectCommission	0.079837	0.513792	1	1
277.011658	0.792483	city	3	1	0.843867	0.843867	0	1	0	0	CorrectCommission	1.055708	0.521764	1	1
277.804016	0.792265	city	10	1	0.596097	0.596097	0	1	0	0	CorrectCommission	0.394637	0.526173	1	1
278.596161	0.792045	city	3	1	0.497004	0.497004	0	1	0	0	CorrectCommission	0.974687	0.526078	1	1
279.388336	0.792270	city	6	1	0.458172	0.458172	0	1	0	0	CorrectCommission	1.201991	0.521055	1	1
280.180603	0.792276	city	10	1	0.498403	0.498403	0	1	0	0	CorrectCommission	0.966496	0.511291	1	1
280.972961	0.792467	city	1	1	0.596248	0.596248	0	1	0	0	CorrectCommission	0.393751	0.497513	1	1
281.765228	0.792071	city	4	1	0.654843	0.654843	0	1	0	0	CorrectCommission	0.050763	0.480883	1	1
282.557404	0.792241	city	1	1	0.655387	0.655387	0	1	0	0	CorrectCommission	0.047577	0.462751	1	1
283.349701	0.792373	city	6	1	0.551816	0.551816	0	1	0	0	CorrectCommission	0.653839	0.444426	1	1
284.141968	0.792161	city	3	1	0.609640	0.609640	0	1	0	0	CorrectCommission	0.315360	0.426993	1	1
284.934235	0.792370	city	9	1	0.646360	0.646360	0	1	0	0	CorrectCommission	0.100415	0.411189	1	1
285.726501	0.792157	city	4	1	0.695181	0.695181	0	1	0	0	CorrectCommission	0.185362	0.397370	1	1
286.518829	0.792480	city	7	1	0.696056	0.696056	0	1	0	0	CorrectCommission	0.190485	0.385588	1	1
287.311096	0.792051	mountain	7	0	0.000000	0.792592	1	0	0	0	CorrectOmission	0.755569	0.375722	1	1
288.103271	0.792314	city	2	1	0.844016	0.844016	0	1	0	0	CorrectCommission	1.056581	0.367619	1	1
288.895538	0.792243	city	6	1	0.709552	0.709552	0	1	0	0	CorrectCommission	0.269485	0.361246	1	1
289.687775	0.792235	city	8	1	0.652465	0.652465	0	1	0	0	CorrectCommission	0.064679	0.356789	1	1
290.480042	0.792265	mountain	5	0	0.000000	0.606278	1	0	0	0	CorrectOmission	0.335039	0.354643	1	1
291.272308	0.792267	city	5	1	0.596278	0.596278	0	1	0	0	CorrectCommission	0.393576	0.355340	1	1
292.064575	0.792262	city	4	1	0.647752	0.647752	0	1	0	0	CorrectCommission	0.092270	0.359443	1	1
292.856873	0.792336	city	7	1	0.695609	0.695609	0	1	0	0	CorrectCommission	0.187865	0.367408	1	1
293.649139	0.792192	city	3	1	0.695408	0.695408	0	1	0	0	CorrectCommission	0.186691	0.379472	1	1
294.441376	0.792270	city	9	1	0.603333	0.603333	0	1	0	0	CorrectCommission	0.352277	0.395517	1	1
295.233612	0.792261	city	6	1	0.597620	0.597620	0	1	0	0	CorrectCommission	0.385723	0.415102	1	1
296.025940	0.792373	city	8	1	0.563062	0.563062	0	1	0	0	CorrectCommission	0.588007	0.437470	1	1
296.818207	0.792158	city	4	1	0.604693	0.604693	0	1	0	0	CorrectCommission	0.344319	0.461624	1	1
297.610413	0.792261	city	5	1	0.695279	0.695279	0	1	0	0	CorrectCommission	0.185938	0.486493	1	1
298.402679	0.792269	city	3	1	0.744916	0.744916	0	1	0	0	CorrectCommission	0.476491	0.511063	1	1
299.194977	0.792315	city	6	1	0.852678	0.852678	0	1	0	0	CorrectCommission	1.107286	0.534532	1	1
299.987244	0.792213	city	7	1	0.794468	0.794468	0	1	0	0	CorrectCommission	0.766546	0.556420	1	1
300.779480	0.792265	city	4	1	0.744827	0.744827	0	1	0	0	CorrectCommission	0.475969	0.576642	1	1
301.571747	0.792262	city	5	1	0.795381	0.795381	0	1	0	0	CorrectCommission	0.771895	0.595472	1	1
302.364014	0.792268	city	4	1	0.801557	0.801557	0	1	0	0	CorrectCommission	0.808047	0.613435	1	1
303.156281	0.792287	mountain	5	0	0.000000	0.758223	1	0	0	0	CorrectOmission	0.554385	0.631152	1	1
303.948547	0.792241	city	5	1	0.696066	0.696066	0	1	0	0	CorrectCommission	0.190545	0.649148	1	1
304.740814	0.792316	city	2	1	0.645776	0.645776	0	1	0	0	CorrectCommission	0.103836	0.667643	1	1
305.533112	0.792228	city	1	1	0.497225	0.497225	0	1	0	0	CorrectCommission	0.973391	0.686408	1	0
306.325348	0.792249	city	3	1	0.498656	0.498656	0	1	0	0	CorrectCommission	0.965014	0.704673	1	0
307.117645	0.792372	city	1	1	0.843961	0.843961	0	1	0	0	CorrectCommission	1.056260	0.721175	1	0
307.910034	0.792376	city	2	1	0.645705	0.645705	0	1	0	0	CorrectCommission	0.104253	0.734247	1	0
308.702301	0.792155	city	6	1	0.498458	0.498458	0	1	0	0	CorrectCommission	0.966176	0.742044	1	0
309.494446	0.792175	mountain	7	1	0.645695	0.645695	0	0	1	0	CommissionError	0.104307	0.742757	1	0
310.286682	0.792275	city	8	1	0.455651	0.455651	0	1	0	0	CorrectCommission	1.216747	0.734998	1	0
311.078918	0.792236	city	9	1	0.348700	0.348700	0	1	0	0	CorrectCommission	1.842796	0.718011	1	0
311.871185	0.792269	city	10	1	0.447745	0.447745	0	1	0	0	CorrectCommission	1.263026	0.691916	1	0
312.663544	0.792477	city	7	1	0.447753	0.447753	0	1	0	0	CorrectCommission	1.262982	0.657850	1	0
313.455811	0.792058	city	3	1	0.596351	0.596351	0	1	0	0	CorrectCommission	0.393147	0.617886	1	0
314.247986	0.792255	city	9	1	0.699964	0.699964	0	1	0	0	CorrectCommission	0.213359	0.574897	1	0
315.040253	0.792267	city	10	1	0.645854	0.645854	0	1	0	0	CorrectCommission	0.103379	0.532227	1	0
315.832520	0.792265	city	3	1	0.596288	0.596288	0	1	0	0	CorrectCommission	0.393517	0.493334	1	0
316.624786	0.792266	city	10	1	0.645940	0.645940	0	1	0	0	CorrectCommission	0.102876	0.461414	1	0
317.417053	0.792286	mountain	5	0	0.000000	0.632931	1	0	0	0	CorrectOmission	0.179023	0.439094	1	0
318.209320	0.792241	city	5	1	0.603416	0.603416	0	1	0	0	CorrectCommission	0.351793	0.428153	1	0
319.001587	0.792299	city	8	1	0.603547	0.603547	0	1	0	0	CorrectCommission	0.351024	0.429345	1	0
319.793854	0.792233	city	6	1	0.645764	0.645764	0	1	0	0	CorrectCommission	0.103903	0.442332	1	0
320.586090	0.792259	city	10	1	0.611481	0.611481	0	1	0	0	CorrectCommission	0.304584	0.465695	1	0
321.378418	0.792374	city	6	1	0.645969	0.645969	0	1	0	0	CorrectCommission	0.102706	0.497039	1	0
322.170685	0.792160	city	8	1	0.645831	0.645831	0	1	0	0	CorrectCommission	0.103510	0.533215	1	0
322.962921	0.792327	city	3	1	0.553814	0.553814	0	1	0	0	CorrectCommission	0.642146	0.570584	1	0
323.755188	0.792198	city	6	1	0.513908	0.513908	0	1	0	0	CorrectCommission	0.875736	0.605386	1	0
324.547424	0.792266	city	1	1	0.548067	0.548067	0	1	0	0	CorrectCommission	0.675784	0.634130	1	0
325.339691	0.792267	city	7	1	0.398363	0.398363	0	1	0	0	CorrectCommission	1.552091	0.653982	1	0
326.131958	0.792265	city	8	1	0.398429	0.398429	0	1	0	0	CorrectCommission	1.551705	0.663022	1	0
326.924225	0.792265	city	1	1	0.551657	0.551657	0	1	0	0	CorrectCommission	0.654772	0.660514	1	0
327.716492	0.792265	city	10	1	0.760877	0.760877	0	1	0	0	CorrectCommission	0.569918	0.646939	1	0
328.508759	0.792308	mountain	3	1	0.551439	0.551439	0	0	1	0	CommissionError	0.656043	0.623878	1	0
329.301056	0.792242	city	7	1	0.497683	0.497683	0	1	0	0	CorrectCommission	0.970711	0.593823	1	0
330.093384	0.792459	city	2	1	0.506209	0.506209	0	1	0	0	CorrectCommission	0.920801	0.559824	1	0
330.885712	0.792154	city	3	1	0.645675	0.645675	0	1	0	0	CorrectCommission	0.104429	0.525137	1	0
331.677856	0.792158	city	1	1	0.645681	0.645681	0	1	0	0	CorrectCommission	0.104393	0.492819	1	0
332.470123	0.792374	mountain	5	0	0.000000	0.653298	1	0	0	0	CorrectOmission	0.059803	0.465358	1	0
333.262390	0.792163	city	10	1	0.645927	0.645927	0	1	0	0	CorrectCommission	0.102950	0.444420	1	0
334.054596	0.792260	city	9	1	0.600968	0.600968	0	1	0	0	CorrectCommission	0.366123	0.430719	1	0
334.846863	0.792261	city	5	1	0.744810	0.744810	0	1	0	0	CorrectCommission	0.475871	0.424000	1	0
335.639191	0.792376	city	9	1	0.663880	0.663880	0	1	0	0	CorrectCommission	0.002138	0.423167	1	0
336.431549	0.792372	city	7	1	0.695273	0.695273	0	1	0	0	CorrectCommission	0.185900	0.426515	1	0
337.223785	0.792082	city	5	1	0.744616	0.744616	0	1	0	0	CorrectCommission	0.474738	0.432011	1	0
338.015930	0.792229	city	7	1	0.794334	0.794334	0	1	0	0	CorrectCommission	0.765767	0.437604	1	0
338.808197	0.792269	city	6	1	0.844073	0.844073	0	1	0	0	CorrectCommission	1.056919	0.441523	1	0
339.600464	0.792265	city	10	1	0.843885	0.843885	0	1	0	0	CorrectCommission	1.055816	0.442472	1	0
340.392700	0.792264	city	8	1	0.695335	0.695335	0	1	0	0	CorrectCommission	0.186267	0.439754	1	0
341.184967	0.792263	city	10	1	0.695356	0.695356	0	1	0	0	CorrectCommission	0.186388	0.433295	1	0
341.977264	0.792321	city	2	1	0.706977	0.706977	0	1	0	0	CorrectCommission	0.254410	0.423584	1	0
342.769531	0.792209	city	7	1	0.758320	0.758320	0	1	0	0	CorrectCommission	0.554953	0.411559	1	0
343.561829	0.792370	city	1	1	0.706837	0.706837	0	1	0	0	CorrectCommission	0.253592	0.398493	1	0
344.354095	0.792192	city	9	1	0.747610	0.747610	0	1	0	0	CorrectCommission	0.492262	0.385896	1	0
345.146423	0.792447	city	10	1	0.706877	0.706877	0	1	0	0	CorrectCommission	0.253825	0.375354	1	0
345.938690	0.792051	city	4	1	0.745421	0.745421	0	1	0	0	CorrectCommission	0.479448	0.368441	1	0
346.730896	0.792369	city	3	1	0.744820	0.744820	0	1	0	0	CorrectCommission	0.475932	0.366561	1	0
347.523163	0.792157	city	8	1	0.708517	0.708517	0	1	0	0	CorrectCommission	0.263424	0.370808	1	0
348.315369	0.792267	city	9	1	0.645817	0.645817	0	1	0	0	CorrectCommission	0.103595	0.381826	1	0
349.107666	0.792370	city	2	1	0.695306	0.695306	0	1	0	0	CorrectCommission	0.186093	0.399631	1	0
349.899933	0.792156	city	4	1	0.695219	0.695219	0	1	0	0	CorrectCommission	0.185587	0.423496	1	0
350.692200	0.792345	city	1	1	0.695300	0.695300	0	1	0	0	CorrectCommission	0.186061	0.451921	1	0
351.484467	0.792184	mountain	10	0	0.000000	0.652201	1	0	0	0	CorrectOmission	0.066224	0.482682	1	0
352.276794	0.792481	city	7	1	0.605857	0.605857	0	1	0	0	CorrectCommission	0.337503	0.513030	1	0
353.069061	0.792057	city	9	1	0.596204	0.596204	0	1	0	0	CorrectCommission	0.394008	0.539981	1	0
353.861206	0.792265	city	4	1	0.447869	0.447869	0	1	0	0	CorrectCommission	1.262305	0.560703	1	0
354.653503	0.792313	city	8	1	0.448249	0.448249	0	1	0	0	CorrectCommission	1.260080	0.572874	1	0
355.445892	0.792425	city	3	1	0.408230	0.408230	0	1	0	0	CorrectCommission	1.494336	0.575047	1	0
356.238129	0.792051	city	9	1	0.497217	0.497217	0	1	0	0	CorrectCommission	0.973442	0.566804	1	0
357.030396	0.792479	city	5	1	0.547353	0.547353	0	1	0	0	CorrectCommission	0.679962	0.548821	1	0
357.822693	0.792155	city	2	1	0.596083	0.596083	0	1	0	0	CorrectCommission	0.394718	0.522730	1	0
358.614868	0.792160	city	8	1	0.645711	0.645711	0	1	0	0	CorrectCommission	0.104218	0.490855	1	0
359.407074	0.792262	city	9	1	0.695313	0.695313	0	1	0	0	CorrectCommission	0.186137	0.455839	1	0
360.199371	0.792334	city	2	1	0.646716	0.646716	0	1	0	0	CorrectCommission	0.098333	0.420359	1	0
360.991669	0.792303	city	1	1	0.596390	0.596390	0	1	0	0	CorrectCommission	0.392921	0.386844	1	0
361.783905	0.792155	city	10	1	0.565192	0.565192	0	1	0	0	CorrectCommission	0.575538	0.357304	1	0
362.576172	0.792375	mountain	10	1	0.646402	0.646402	0	0	1	0	CommissionError	0.100169	0.333267	1	0
363.368500	0.792264	city	10	1	0.612860	0.612860	0	1	0	0	CorrectCommission	0.296511	0.315883	1	0
364.160828	0.792372	city	1	1	0.659868	0.659868	0	1	0	0	CorrectCommission	0.021343	0.305964	1	0
364.953033	0.792049	city	7	1	0.695138	0.695138	0	1	0	0	CorrectCommission	0.185109	0.304161	1	1
365.745239	0.792372	city	4	1	0.744849	0.744849	0	1	0	0	CorrectCommission	0.476098	0.311059	1	1
366.537506	0.792155	city	3	1	0.707256	0.707256	0	1	0	0	CorrectCommission	0.256047	0.327240	1	1
367.329742	0.792335	city	9	1	0.707073	0.707073	0	1	0	0	CorrectCommission	0.254972	0.353293	1	1
368.122009	0.792194	city	4	1	0.654194	0.654194	0	1	0	0	CorrectCommission	0.054562	0.389713	1	1
368.914307	0.792375	mountain	1	0	0.000000	0.624518	1	0	0	0	CorrectOmission	0.228271	0.436747	1	1
369.706665	0.792372	city	7	1	0.596178	0.596178	0	1	0	0	CorrectCommission	0.394162	0.494194	1	1
370.498871	0.792051	city	3	1	0.547306	0.547306	0	1	0	0	CorrectCommission	0.680241	0.561226	1	1
371.291046	0.792285	city	6	1	0.660806	0.660806	0	1	0	0	CorrectCommission	0.015857	0.636214	1	1
372.083344	0.792329	city	8	1	0.646207	0.646207	0	1	0	0	CorrectCommission	0.101309	0.716712	1	1
372.875732	0.792396	city	7	1	0.755924	0.755924	0	1	0	0	CorrectCommission	0.540925	0.799491	0	1
373.667938	0.792047	city	9	1	0.952684	0.952684	0	1	0	0	CorrectCommission	1.692683	0.880757	0	1
374.460205	0.792482	mountain	2	0	0.000000	0.683637	1	0	0	0	CorrectOmission	0.117791	0.956467	0	1
375.252472	0.792045	city	4	1	0.348940	0.348940	0	1	0	0	CorrectCommission	1.841392	1.022812	0	1
376.044739	0.792484	city	7	1	0.348750	0.348750	0	1	0	0	CorrectCommission	1.842506	1.076583	0	1
376.837036	0.792155	mountain	3	1	0.298963	0.298963	0	0	1	0	CommissionError	2.133937	1.115624	0	1
377.629211	0.792185	city	9	1	0.546662	0.546662	0	1	0	0	CorrectCommission	0.684008	1.139126	0	1
378.421539	0.792455	city	3	1	1.050975	1.050975	0	1	0	0	CorrectCommission	2.268038	1.147735	0	1
379.213806	0.792048	city	5	1	0.902567	0.902567	0	1	0	0	CorrectCommission	1.399314	1.143396	0	1
380.005951	0.792267	city	6	1	0.843845	0.843845	0	1	0	0	CorrectCommission	1.055584	1.129204	0	1
380.798218	0.792261	city	4	1	0.794348	0.794348	0	1	0	0	CorrectCommission	0.765847	1.108936	0	1
381.590515	0.792326	city	5	1	0.795541	0.795541	0	1	0	0	CorrectCommission	0.772831	1.086591	0	1
382.382812	0.792260	mountain	8	0	0.000000	0.842546	1	0	0	0	CorrectOmission	1.047976	1.065901	0	1
383.175049	0.792213	city	4	1	0.853098	0.853098	0	1	0	0	CorrectCommission	1.109747	1.049944	0	1
383.967285	0.792265	city	10	1	0.744937	0.744937	0	1	0	0	CorrectCommission	0.476612	1.040862	0	1
384.759552	0.792261	city	4	1	0.596318	0.596318	0	1	0	0	CorrectCommission	0.393344	1.039781	0	1
385.551910	0.792480	city	6	1	0.546796	0.546796	0	1	0	0	CorrectCommission	0.683221	1.046828	0	1
386.344269	0.792265	city	5	1	0.546789	0.546789	0	1	0	0	CorrectCommission	0.683263	1.061318	0	1
387.136444	0.792049	city	7	1	0.447739	0.447739	0	1	0	0	CorrectCommission	1.263066	1.082093	0	1
387.928650	0.792371	city	3	1	0.992388	0.992388	0	1	0	0	CorrectCommission	1.925090	1.107799	0	1
388.720917	0.792157	city	9	1	0.996466	0.996466	0	1	0	0	CorrectCommission	1.948962	1.137208	0	1
389.513123	0.792269	city	4	1	0.907221	0.907221	0	1	0	0	CorrectCommission	1.426557	1.169357	0	1
390.305511	0.792477	mountain	1	0	0.000000	0.621206	1	0	0	0	CorrectOmission	0.247658	1.203591	0	1
391.097778	0.792052	city	1	1	0.447663	0.447663	0	1	0	0	CorrectCommission	1.263506	1.239447	0	1
391.889923	0.792276	city	2	1	0.695835	0.695835	0	1	0	0	CorrectCommission	0.189190	1.276474	0	1
392.682190	0.792249	mountain	8	1	0.348691	0.348691	0	0	1	0	CommissionError	1.842852	1.314064	0	1
393.474548	0.792481	city	9	1	0.447726	0.447726	0	1	0	0	CorrectCommission	1.263140	1.351271	0	1
394.266815	0.792046	city	7	1	0.893785	0.893785	0	1	0	0	CorrectCommission	1.347909	1.386845	0	1
395.058960	0.792265	city	5	1	0.942898	0.942898	0	1	0	0	CorrectCommission	1.635399	1.419268	0	1
395.851227	0.792265	city	3	1	0.992459	0.992459	0	1	0	0	CorrectCommission	1.925508	1.446888	0	1
396.643555	0.792373	city	4	1	0.942885	0.942885	0	1	0	0	CorrectCommission	1.635319	1.468153	0	1
397.435822	0.792158	city	2	1	0.843779	0.843779	0	1	0	0	CorrectCommission	1.055193	1.481837	0	1
398.228149	0.792481	city	10	1	0.942924	0.942924	0	1	0	0	CorrectCommission	1.635551	1.487200	0	1
399.020447	0.792099	city	4	1	0.896966	0.896966	0	1	0	0	CorrectCommission	1.366529	1.484071	0	1
399.812714	0.792432	mountain	2	1	1.141057	1.141057	0	0	1	0	CommissionError	2.795340	1.472880	0	1
400.605042	0.792263	mountain	1	0	0.000000	1.096271	1	0	0	0	CorrectOmission	2.533180	1.454491	0	1
401.397217	0.792082	city	2	1	0.855378	0.855378	0	1	0	0	CorrectCommission	1.123094	1.430033	0	1
402.189423	0.792308	city	6	1	0.511151	0.511151	0	1	0	0	CorrectCommission	0.891876	1.400634	0	1
402.981689	0.792245	city	4	1	0.695237	0.695237	0	1	0	0	CorrectCommission	0.185688	1.367097	0	1
403.774017	0.792422	city	6	1	0.497314	0.497314	0	1	0	0	CorrectCommission	0.972873	1.329783	0	1
404.566254	0.792046	city	4	1	0.512183	0.512183	0	1	0	0	CorrectCommission	0.885836	1.288537	0	1
405.358429	0.792265	city	2	1	0.414634	0.414634	0	1	0	0	CorrectCommission	1.456844	1.242904	0	1
406.150696	0.792321	city	5	1	1.042433	1.042433	0	1	0	0	CorrectCommission	2.218035	1.192403	0	1
406.943024	0.792286	city	8	1	1.041918	1.041918	0	1	0	0	CorrectCommission	2.215020	1.136898	0	1
407.735260	0.792189	city	5	1	0.894093	0.894093	0	1	0	0	CorrectCommission	1.349715	1.076941	0	1
408.527588	0.792480	city	6	1	0.900360	0.900360	0	1	0	0	CorrectCommission	1.386396	1.013935	0	1
409.319855	0.792053	city	4	1	0.794164	0.794164	0	1	0	0	CorrectCommission	0.764770	0.950128	0	1
410.112000	0.792263	city	10	1	0.647583	0.647583	0	1	0	0	CorrectCommission	0.093258	0.888389	0	1
410.904266	0.792262	city	2	1	0.751291	0.751291	0	1	0	0	CorrectCommission	0.513808	0.831880	0	1
411.696533	0.792265	city	5	1	0.744817	0.744817	0	1	0	0	CorrectCommission	0.475914	0.783564	0	1
412.488800	0.792289	city	6	1	0.795161	0.795161	0	1	0	0	CorrectCommission	0.770603	0.745799	1	1
413.281067	0.792248	city	5	1	0.698960	0.698960	0	1	0	0	CorrectCommission	0.207481	0.719952	1	1
414.073364	0.792286	city	9	1	0.707388	0.707388	0	1	0	0	CorrectCommission	0.256816	0.706190	1	1
414.865662	0.792342	mountain	1	1	0.603614	0.603614	0	0	1	0	CommissionError	0.350632	0.703419	1	1
415.657898	0.792158	city	4	1	0.794822	0.794822	0	1	0	0	CorrectCommission	0.768621	0.709386	1	1
416.450165	0.792374	city	1	1	0.651070	0.651070	0	1	0	0	CorrectCommission	0.072843	0.720956	1	1
417.242432	0.792157	city	4	1	0.497168	0.497168	0	1	0	0	CorrectCommission	0.973727	0.734528	1	1
418.034668	0.792263	city	1	1	0.447735	0.447735	0	1	0	0	CorrectCommission	1.263088	0.746444	1	1
418.826904	0.792265	city	8	1	0.398753	0.398753	0	1	0	0	CorrectCommission	1.549810	0.753487	0	1
419.619171	0.792267	city	9	1	0.513594	0.513594	0	1	0	0	CorrectCommission	0.877577	0.753231	0	1
420.411560	0.792480	city	3	1	0.513654	0.513654	0	1	0	0	CorrectCommission	0.877221	0.744305	1	1
421.203827	0.792055	city	9	1	0.497057	0.497057	0	1	0	0	CorrectCommission	0.974374	0.726469	1	1
421.995972	0.792256	city	2	1	0.497638	0.497638	0	1	0	0	CorrectCommission	0.970977	0.700574	1	1
422.788239	0.792266	city	4	1	0.554439	0.554439	0	1	0	0	CorrectCommission	0.638486	0.668410	1	1
423.580505	0.792269	city	2	1	0.548341	0.548341	0	1	0	0	CorrectCommission	0.674178	0.632410	1	1
424.372894	0.792477	city	4	1	0.551463	0.551463	0	1	0	0	CorrectCommission	0.655902	0.595332	1	0
425.165161	0.792054	city	6	1	0.645588	0.645588	0	1	0	0	CorrectCommission	0.104936	0.559985	1	0
425.957336	0.792311	city	4	1	0.596277	0.596277	0	1	0	0	CorrectCommission	0.393580	0.528942	1	0
426.749695	0.792429	city	6	1	0.650039	0.650039	0	1	0	0	CorrectCommission	0.078879	0.504328	1	0
427.542053	0.792264	city	3	1	0.609482	0.609482	0	1	0	0	CorrectCommission	0.316282	0.487719	1	0
428.334320	0.792265	city	4	1	0.596081	0.596081	0	1	0	0	CorrectCommission	0.394728	0.480049	1	0
429.126465	0.792046	mountain	6	0	0.000000	0.693413	1	0	0	0	CorrectOmission	0.175013	0.481633	1	0
429.918732	0.792484	city	9	1	0.794937	0.794937	0	1	0	0	CorrectCommission	0.769296	0.492184	1	0
430.711060	0.792156	city	7	1	0.794114	0.794114	0	1	0	0	CorrectCommission	0.764479	0.510882	1	0
431.503235	0.792184	city	2	1	0.662493	0.662493	0	1	0	0	CorrectCommission	0.005983	0.536440	1	0
432.295471	0.792345	city	8	1	0.745363	0.745363	0	1	0	0	CorrectCommission	0.479108	0.567192	1	0
433.087738	0.792156	city	2	1	0.744856	0.744856	0	1	0	0	CorrectCommission	0.476141	0.601113	1	0
433.879944	0.792268	city	1	1	0.744927	0.744927	0	1	0	0	CorrectCommission	0.476558	0.636030	1	0
434.672211	0.792265	city	7	1	0.794788	0.794788	0	1	0	0	CorrectCommission	0.768423	0.669783	1	0
435.464539	0.792396	city	4	1	0.695461	0.695461	0	1	0	0	CorrectCommission	0.187000	0.700433	1	0
436.256805	0.792132	mountain	2	0	0.000000	0.488280	1	0	0	0	CorrectOmission	1.025754	0.726566	1	0
437.049011	0.792262	city	1	1	0.497269	0.497269	0	1	0	0	CorrectCommission	0.973136	0.747488	1	0
437.841278	0.792264	city	7	1	1.046452	1.046452	0	1	0	0	CorrectCommission	2.241559	0.763405	0	0
438.633545	0.792267	city	6	1	0.948057	0.948057	0	1	0	0	CorrectCommission	1.665596	0.775414	0	0
439.425903	0.792482	city	1	1	0.753911	0.753911	0	1	0	0	CorrectCommission	0.529146	0.785395	0	0
440.218170	0.792061	city	7	1	0.646589	0.646589	0	1	0	0	CorrectCommission	0.099078	0.795662	0	0
441.010345	0.792269	city	3	1	0.650737	0.650737	0	1	0	0	CorrectCommission	0.074792	0.808527	0	0
441.802612	0.792246	city	10	1	0.695446	0.695446	0	1	0	0	CorrectCommission	0.186913	0.825868	0	0
442.594849	0.792266	city	5	1	0.744984	0.744984	0	1	0	0	CorrectCommission	0.476891	0.848783	0	0
443.387238	0.792482	city	1	1	0.809410	0.809410	0	1	0	0	CorrectCommission	0.854011	0.877359	0	0
444.179504	0.792054	city	7	1	0.843645	0.843645	0	1	0	0	CorrectCommission	1.054411	0.910659	0	0
444.971771	0.792476	city	6	1	0.756038	0.756038	0	1	0	0	CorrectCommission	0.541595	0.946880	0	0
445.764130	0.792265	mountain	8	0	0.000000	0.462354	1	0	0	0	CorrectOmission	1.177514	0.983667	0	0
446.556305	0.792047	city	3	1	0.400880	0.400880	0	1	0	0	CorrectCommission	1.537358	1.018452	0	0
447.348450	0.792263	city	2	1	1.009904	1.009904	0	1	0	0	CorrectCommission	2.027622	1.048865	0	0
448.140717	0.792270	mountain	9	0	0.000000	0.771481	1	0	0	0	CorrectOmission	0.631991	1.073038	0	0
448.933044	0.792370	city	6	1	0.497262	0.497262	0	1	0	0	CorrectCommission	0.973176	1.089879	0	0
449.725281	0.792157	city	8	1	0.998897	0.998897	0	1	0	0	CorrectCommission	1.963195	1.099060	0	0
450.517548	0.792373	city	5	1	0.844179	0.844179	0	1	0	0	CorrectCommission	1.057538	1.101007	0	0
451.309814	0.792155	city	3	1	0.857051	0.857051	0	1	0	0	CorrectCommission	1.132885	1.096797	0	0
452.102020	0.792265	mountain	9	0	0.000000	0.763658	1	0	0	0	CorrectOmission	0.586197	1.087899	0	0
452.894318	0.792272	city	9	1	0.599071	0.599071	0	1	0	0	CorrectCommission	0.377229	1.075984	0	0
453.686584	0.792261	city	5	1	0.398361	0.398361	0	1	0	0	CorrectCommission	1.552102	1.062699	0	0
454.478943	0.792478	city	6	1	0.305523	0.305523	0	1	0	0	CorrectCommission	2.095538	1.049413	0	0
455.271271	0.792155	city	10	1	0.893364	0.893364	0	1	0	0	CorrectCommission	1.345446	1.037126	0	0
456.063446	0.792215	city	5	1	0.748528	0.748528	0	1	0	0	CorrectCommission	0.497636	1.026389	0	0
456.855713	0.792315	city	7	1	0.695249	0.695249	0	1	0	0	CorrectCommission	0.185761	1.017282	0	0
457.648010	0.792265	mountain	6	0	0.000000	0.628602	1	0	0	0	CorrectOmission	0.204366	1.009447	0	0
458.440308	0.792374	city	3	1	0.546664	0.546664	0	1	0	0	CorrectCommission	0.683997	1.002244	0	0
459.232513	0.792047	city	9	1	0.447514	0.447514	0	1	0	0	CorrectCommission	1.264383	0.995026	0	0
460.024689	0.792309	city	10	1	0.992542	0.992542	0	1	0	0	CorrectCommission	1.925995	0.987420	0	0
460.816956	0.792224	city	2	1	1.013747	1.013747	0	1	0	0	CorrectCommission	2.050120	0.979587	0	0
461.609314	0.792480	city	4	1	0.844403	0.844403	0	1	0	0	CorrectCommission	1.058849	0.972365	0	0
462.401611	0.792100	city	2	1	0.843794	0.843794	0	1	0	0	CorrectCommission	1.055283	0.967260	0	0
463.193817	0.792283	city	3	1	0.747584	0.747584	0	1	0	0	CorrectCommission	0.492111	0.966149	0	0
463.986053	0.792196	city	1	1	0.745415	0.745415	0	1	0	0	CorrectCommission	0.479414	0.970940	0	0
464.778259	0.792264	city	9	1	0.744971	0.744971	0	1	0	0	CorrectCommission	0.476810	0.983063	0	0
465.570557	0.792324	city	7	1	0.795424	0.795424	0	1	0	0	CorrectCommission	0.772145	1.003037	0	0
466.362854	0.792230	city	1	1	0.716241	0.716241	0	1	0	0	CorrectCommission	0.308636	1.030124	0	0
467.155090	0.792238	mountain	10	0	0.000000	0.532825	1	0	0	0	CorrectOmission	0.765002	1.062211	0	0
467.947357	0.792334	city	10	1	0.546856	0.546856	0	1	0	0	CorrectCommission	0.682872	1.095946	0	0
468.739624	0.792196	city	3	1	1.060010	1.060010	0	1	0	0	CorrectCommission	2.320923	1.127101	0	0
469.531891	0.792320	mountain	4	0	0.000000	0.748571	1	0	0	0	CorrectOmission	0.497886	1.151117	0	0
470.324158	0.792214	city	6	1	0.447720	0.447720	0	1	0	0	CorrectCommission	1.263173	1.163888	0	0
471.116394	0.792263	city	5	1	0.992639	0.992639	0	1	0	0	CorrectCommission	1.926559	1.162308	0	0
471.908722	0.792371	city	9	1	1.191009	1.191009	0	1	0	0	CorrectCommission	3.087741	1.144870	0	0
472.700958	0.792158	city	1	1	1.091333	1.091333	0	1	0	0	CorrectCommission	2.504276	1.111956	0	0
473.493195	0.792262	city	5	0	0.000000	0.810701	0	0	0	1	OmissionError	0.861570	1.065888	0	0
474.285492	0.792330	city	6	1	0.596299	0.596299	0	1	0	0	CorrectCommission	0.393456	1.010595	0	0
475.077789	0.792308	city	5	1	0.695310	0.695310	0	1	0	0	CorrectCommission	0.186119	0.951030	0	0
475.870026	0.792155	mountain	2	0	0.000000	0.761383	1	0	0	0	CorrectOmission	0.572885	0.892500	0	0
476.662354	0.792484	city	3	1	0.794359	0.794359	0	1	0	0	CorrectCommission	0.765911	0.839980	0	0
477.454620	0.792060	city	2	1	0.794078	0.794078	0	1	0	0	CorrectCommission	0.764263	0.797502	0	0
478.246826	0.792359	city	3	1	0.663402	0.663402	0	1	0	0	CorrectCommission	0.000657	0.767733	0	0
479.039093	0.792160	city	5	1	0.646018	0.646018	0	1	0	0	CorrectCommission	0.102419	0.751797	0	0
479.831299	0.792261	city	1	1	0.756842	0.756842	0	1	0	0	CorrectCommission	0.546300	0.749283	1	0
480.623596	0.792311	mountain	1	0	0.000000	0.684190	1	0	0	0	CorrectOmission	0.121028	0.758530	0	0
481.415894	0.792327	city	3	1	0.546830	0.546830	0	1	0	0	CorrectCommission	0.683023	0.777038	0	0
482.208160	0.792176	city	10	1	0.463529	0.463529	0	1	0	0	CorrectCommission	1.170638	0.801932	0	0
483.000397	0.792303	city	8	1	1.059693	1.059693	0	1	0	0	CorrectCommission	2.319071	0.830439	0	0
483.792664	0.792209	city	2	1	0.893336	0.893336	0	1	0	0	CorrectCommission	1.345279	0.860267	0	0
484.584900	0.792266	city	3	1	0.744807	0.744807	0	1	0	0	CorrectCommission	0.475856	0.889857	0	0
485.377167	0.792261	city	10	1	0.660029	0.660029	0	1	0	0	CorrectCommission	0.020405	0.918440	0	0
486.169434	0.792272	city	2	1	0.744854	0.744854	0	1	0	0	CorrectCommission	0.476129	0.945902	0	0
486.961792	0.792477	mountain	7	0	0.000000	0.829680	1	0	0	0	CorrectOmission	0.972663	0.972663	0	0
