onset	duration	trial_type	image_type	Press	ReactionTime	ReactionTime_Interpolated	CorrectOmission	CorrectCommission	CommissionError	OmissionError	response_type	nonsmoothVarianceTimeCourse	VarianceTimeCourse	In_the_Zone	Reward_trial
8.433807	0.792263	city	10	1	0.894230	0.894230	0	1	0	0	CorrectCommission	2.324844	2.324844	0	0
9.226096	0.792315	city	1	1	0.744785	0.744785	0	1	0	0	CorrectCommission	0.679380	2.078675	0	0
10.018361	0.792216	city	7	1	0.794404	0.794404	0	1	0	0	CorrectCommission	1.225710	1.840632	0	0
10.810604	0.792270	city	2	1	0.659920	0.659920	0	1	0	0	CorrectCommission	0.255029	1.617936	0	0
11.602978	0.792476	city	1	1	0.596269	0.596269	0	1	0	0	CorrectCommission	0.955861	1.416241	0	0
12.395239	0.792047	city	10	1	0.596047	0.596047	0	1	0	0	CorrectCommission	0.958300	1.239102	0	0
13.187397	0.792269	city	5	1	0.695329	0.695329	0	1	0	0	CorrectCommission	0.134846	1.087846	0	0
13.979664	0.792265	city	7	1	0.745004	0.745004	0	1	0	0	CorrectCommission	0.681791	0.961760	0	0
14.771929	0.792264	city	8	1	0.645764	0.645764	0	1	0	0	CorrectCommission	0.410890	0.858431	0	0
15.564193	0.792264	city	7	1	0.744940	0.744940	0	1	0	0	CorrectCommission	0.681082	0.774428	0	0
16.356457	0.792263	city	4	1	0.744806	0.744806	0	1	0	0	CorrectCommission	0.679610	0.705988	0	0
17.148720	0.792265	city	8	1	0.760986	0.760986	0	1	0	0	CorrectCommission	0.857765	0.649649	1	0
17.941093	0.792480	city	7	1	0.845758	0.845758	0	1	0	0	CorrectCommission	1.791144	0.602747	1	0
18.733356	0.792047	city	9	1	0.744560	0.744560	0	1	0	0	CorrectCommission	0.676907	0.563726	1	0
19.525513	0.792268	mountain	8	0	0.000000	0.699418	1	0	0	0	CorrectOmission	0.179872	0.532206	1	0
20.317888	0.792480	mountain	7	0	0.000000	0.689834	1	0	0	0	CorrectOmission	0.074341	0.508788	1	0
21.110151	0.792049	city	8	1	0.695309	0.695309	0	1	0	0	CorrectCommission	0.134620	0.494631	1	0
21.902315	0.792276	city	2	1	0.695344	0.695344	0	1	0	0	CorrectCommission	0.135011	0.491050	1	0
22.694580	0.792253	city	8	1	0.696146	0.696146	0	1	0	0	CorrectCommission	0.143840	0.499008	1	0
23.486839	0.792267	city	1	1	0.702169	0.702169	0	1	0	0	CorrectCommission	0.210157	0.518729	1	0
24.279158	0.792369	city	4	1	0.695488	0.695488	0	1	0	0	CorrectCommission	0.136601	0.549460	1	0
25.071453	0.792223	city	5	1	0.744865	0.744865	0	1	0	0	CorrectCommission	0.680261	0.589368	1	0
25.863665	0.792200	mountain	9	0	0.000000	0.729277	1	0	0	0	CorrectOmission	0.508625	0.635640	1	0
26.656006	0.792480	city	4	1	0.709066	0.709066	0	1	0	0	CorrectCommission	0.286096	0.684758	0	0
27.448322	0.792155	city	2	1	0.744576	0.744576	0	1	0	0	CorrectCommission	0.677079	0.732799	0	0
28.240479	0.792155	city	3	1	0.749665	0.749665	0	1	0	0	CorrectCommission	0.733111	0.775864	0	0
29.032743	0.792375	city	2	1	0.909573	0.909573	0	1	0	0	CorrectCommission	2.493781	0.810475	0	0
29.825008	0.792155	city	3	1	0.794146	0.794146	0	1	0	0	CorrectCommission	1.222869	0.833874	0	0
30.617327	0.792483	city	9	1	0.745224	0.745224	0	1	0	0	CorrectCommission	0.684212	0.844361	0	0
31.409632	0.792126	city	2	1	0.794892	0.794892	0	1	0	0	CorrectCommission	1.231083	0.841287	0	0
32.201813	0.792234	city	4	1	0.800762	0.800762	0	1	0	0	CorrectCommission	1.295715	0.825047	0	0
32.994045	0.792231	city	8	1	0.645757	0.645757	0	1	0	0	CorrectCommission	0.410970	0.796944	0	0
33.786285	0.792252	city	6	1	0.614758	0.614758	0	1	0	0	CorrectCommission	0.752286	0.759033	0	0
34.578598	0.792374	city	10	1	0.646231	0.646231	0	1	0	0	CorrectCommission	0.405753	0.713834	0	0
35.370892	0.792216	city	1	1	0.811314	0.811314	0	1	0	0	CorrectCommission	1.411900	0.664153	1	0
36.163101	0.792202	city	5	1	0.645715	0.645715	0	1	0	0	CorrectCommission	0.411425	0.612874	1	0
36.955338	0.792271	city	2	1	0.610112	0.610112	0	1	0	0	CorrectCommission	0.803437	0.562834	1	0
37.747604	0.792260	city	10	1	0.699611	0.699611	0	1	0	0	CorrectCommission	0.181991	0.516604	1	0
38.539921	0.792373	city	9	1	0.709579	0.709579	0	1	0	0	CorrectCommission	0.291749	0.476383	1	0
39.332188	0.792160	city	1	1	0.695654	0.695654	0	1	0	0	CorrectCommission	0.138424	0.443840	1	0
40.124401	0.792264	city	2	1	0.695982	0.695982	0	1	0	0	CorrectCommission	0.142038	0.420004	1	0
40.916660	0.792259	city	9	1	0.704347	0.704347	0	1	0	0	CorrectCommission	0.234139	0.405199	1	0
41.708977	0.792375	city	5	1	0.657759	0.657759	0	1	0	0	CorrectCommission	0.278825	0.399025	1	0
42.501282	0.792232	city	1	1	0.695896	0.695896	0	1	0	0	CorrectCommission	0.141086	0.400381	1	0
43.293602	0.792408	city	5	1	0.699984	0.699984	0	1	0	0	CorrectCommission	0.186097	0.407619	1	0
44.085873	0.792132	city	9	1	0.645444	0.645444	0	1	0	0	CorrectCommission	0.414410	0.418709	1	0
44.878052	0.792225	city	2	1	0.645819	0.645819	0	1	0	0	CorrectCommission	0.410287	0.431471	1	0
45.670273	0.792224	city	5	1	0.745299	0.745299	0	1	0	0	CorrectCommission	0.685044	0.443843	1	0
46.462543	0.792314	city	6	1	0.744836	0.744836	0	1	0	0	CorrectCommission	0.679942	0.454076	1	0
47.254807	0.792209	city	4	1	0.596120	0.596120	0	1	0	0	CorrectCommission	0.957502	0.460963	1	0
48.047150	0.792482	city	8	1	0.645789	0.645789	0	1	0	0	CorrectCommission	0.410621	0.463908	1	0
48.839436	0.792087	city	7	1	0.596100	0.596100	0	1	0	0	CorrectCommission	0.957721	0.462959	1	0
49.631592	0.792226	city	6	1	0.661813	0.661813	0	1	0	0	CorrectCommission	0.234185	0.458650	1	0
50.423836	0.792264	city	9	1	0.645765	0.645765	0	1	0	0	CorrectCommission	0.410881	0.451928	1	0
51.216125	0.792315	city	4	1	0.702485	0.702485	0	1	0	0	CorrectCommission	0.213631	0.443887	1	0
52.008499	0.792432	city	8	1	0.697580	0.697580	0	1	0	0	CorrectCommission	0.159630	0.435624	1	0
52.800774	0.792118	city	4	1	0.645934	0.645934	0	1	0	0	CorrectCommission	0.409015	0.428066	1	0
53.592930	0.792195	city	2	1	0.702480	0.702480	0	1	0	0	CorrectCommission	0.213585	0.421930	1	0
54.385174	0.792287	city	3	1	0.745383	0.745383	0	1	0	0	CorrectCommission	0.685962	0.417667	1	0
55.177437	0.792242	city	9	1	0.696237	0.696237	0	1	0	0	CorrectCommission	0.144844	0.415526	1	0
55.969692	0.792266	city	3	1	0.744890	0.744890	0	1	0	0	CorrectCommission	0.680532	0.415633	1	0
56.762009	0.792371	mountain	2	1	0.596359	0.596359	0	0	1	0	CommissionError	0.954869	0.418022	1	0
57.554272	0.792157	city	10	1	0.695174	0.695174	0	1	0	0	CorrectCommission	0.133140	0.422710	1	0
58.346485	0.792267	city	3	1	0.706930	0.706930	0	1	0	0	CorrectCommission	0.262582	0.429729	1	0
59.138859	0.792480	mountain	9	0	0.000000	0.699813	1	0	0	0	CorrectOmission	0.184216	0.439064	1	0
59.931122	0.792047	city	5	1	0.695063	0.695063	0	1	0	0	CorrectCommission	0.131919	0.450629	1	0
60.723331	0.792373	city	9	1	0.713922	0.713922	0	1	0	0	CorrectCommission	0.339567	0.464241	1	0
61.515705	0.792375	city	7	1	0.744715	0.744715	0	1	0	0	CorrectCommission	0.678608	0.479587	1	0
62.308025	0.792264	city	6	1	0.744595	0.744595	0	1	0	0	CorrectCommission	0.677286	0.496230	1	0
63.100235	0.792157	city	4	1	0.658727	0.658727	0	1	0	0	CorrectCommission	0.268163	0.513609	1	0
63.892391	0.792154	city	8	1	0.547870	0.547870	0	1	0	0	CorrectCommission	1.488757	0.531067	1	0
64.684616	0.792293	city	4	1	0.704531	0.704531	0	1	0	0	CorrectCommission	0.236166	0.547815	1	0
65.476921	0.792315	city	6	1	0.657856	0.657856	0	1	0	0	CorrectCommission	0.277751	0.563042	1	0
66.269226	0.792297	city	5	1	0.663867	0.663867	0	1	0	0	CorrectCommission	0.211567	0.575836	1	0
67.061455	0.792156	city	7	1	0.695885	0.695885	0	1	0	0	CorrectCommission	0.140966	0.585303	1	0
67.853661	0.792264	city	5	1	0.744805	0.744805	0	1	0	0	CorrectCommission	0.679597	0.590625	1	1
68.645981	0.792374	city	6	1	0.843973	0.843973	0	1	0	0	CorrectCommission	1.771487	0.591181	1	1
69.438248	0.792156	city	7	1	0.751879	0.751879	0	1	0	0	CorrectCommission	0.757484	0.586635	1	1
70.230484	0.792319	city	10	1	0.758965	0.758965	0	1	0	0	CorrectCommission	0.835505	0.577066	1	1
71.022751	0.792211	city	6	1	0.747148	0.747148	0	1	0	0	CorrectCommission	0.705399	0.562943	1	1
71.815018	0.792322	city	10	1	0.695808	0.695808	0	1	0	0	CorrectCommission	0.140121	0.545122	1	1
72.607330	0.792313	city	8	1	0.695339	0.695339	0	1	0	0	CorrectCommission	0.134954	0.524735	1	1
73.399620	0.792265	city	7	1	0.744716	0.744716	0	1	0	0	CorrectCommission	0.678625	0.503042	1	1
74.191940	0.792374	city	9	1	0.599247	0.599247	0	1	0	0	CorrectCommission	0.923069	0.481296	1	1
74.984154	0.792052	city	7	1	0.695042	0.695042	0	1	0	0	CorrectCommission	0.131680	0.460644	1	1
75.776360	0.792368	city	6	1	0.695812	0.695812	0	1	0	0	CorrectCommission	0.140165	0.442037	1	1
76.568733	0.792375	city	2	1	0.652623	0.652623	0	1	0	0	CorrectCommission	0.335369	0.426156	1	1
77.361084	0.792319	city	6	1	0.744713	0.744713	0	1	0	0	CorrectCommission	0.678588	0.413431	1	1
78.153236	0.791993	city	5	1	0.696534	0.696534	0	1	0	0	CorrectCommission	0.148116	0.404031	1	1
78.945381	0.792294	mountain	5	0	0.000000	0.669261	1	0	0	0	CorrectOmission	0.152177	0.397955	1	1
79.737648	0.792236	city	1	1	0.645686	0.645686	0	1	0	0	CorrectCommission	0.411749	0.395044	1	1
80.530006	0.792481	city	8	1	0.608603	0.608603	0	1	0	0	CorrectCommission	0.820055	0.395063	1	1
81.322273	0.792050	city	9	1	0.645603	0.645603	0	1	0	0	CorrectCommission	0.412664	0.397682	1	1
82.114456	0.792328	city	2	1	0.652716	0.652716	0	1	0	0	CorrectCommission	0.334351	0.402538	1	1
82.906830	0.792416	city	3	1	0.695199	0.695199	0	1	0	0	CorrectCommission	0.133409	0.409200	1	1
83.699173	0.792266	city	1	1	0.645702	0.645702	0	1	0	0	CorrectCommission	0.411576	0.417168	1	1
84.491348	0.792084	city	6	1	0.697333	0.697333	0	1	0	0	CorrectCommission	0.156910	0.425844	1	1
85.283607	0.792444	city	7	1	0.695626	0.695626	0	1	0	0	CorrectCommission	0.138117	0.434631	1	1
86.075859	0.792051	city	10	1	0.699513	0.699513	0	1	0	0	CorrectCommission	0.180911	0.442957	1	1
86.868164	0.792561	city	1	1	0.843971	0.843971	0	1	0	0	CorrectCommission	1.771474	0.450383	1	1
87.660423	0.791964	city	2	1	0.744537	0.744537	0	1	0	0	CorrectCommission	0.676653	0.456660	1	1
88.452599	0.792374	city	4	1	0.695289	0.695289	0	1	0	0	CorrectCommission	0.134402	0.461862	1	1
89.244865	0.792170	city	10	1	0.645668	0.645668	0	1	0	0	CorrectCommission	0.411948	0.466342	1	1
90.037117	0.792326	city	6	1	0.646185	0.646185	0	1	0	0	CorrectCommission	0.406254	0.470668	1	1
90.829391	0.792220	city	7	1	0.695345	0.695345	0	1	0	0	CorrectCommission	0.135024	0.475569	1	1
91.621620	0.792236	city	10	1	0.663960	0.663960	0	1	0	0	CorrectCommission	0.210539	0.481768	1	1
92.413918	0.792371	city	6	1	0.798711	0.798711	0	1	0	0	CorrectCommission	1.273138	0.489887	1	1
93.206238	0.792265	city	8	1	0.695246	0.695246	0	1	0	0	CorrectCommission	0.133931	0.500277	1	1
93.998482	0.792223	city	10	1	0.645775	0.645775	0	1	0	0	CorrectCommission	0.410769	0.512994	1	1
94.790695	0.792198	city	6	1	0.695204	0.695204	0	1	0	0	CorrectCommission	0.133473	0.527671	1	1
95.582977	0.792373	city	1	1	0.598799	0.598799	0	1	0	0	CorrectCommission	0.928003	0.543559	1	1
96.375351	0.792375	city	4	1	0.645666	0.645666	0	1	0	0	CorrectCommission	0.411967	0.559549	1	1
97.167671	0.792263	city	7	1	0.695071	0.695071	0	1	0	0	CorrectCommission	0.132002	0.574305	1	1
97.959824	0.792047	city	3	1	0.747179	0.747179	0	1	0	0	CorrectCommission	0.705735	0.586389	1	1
98.751984	0.792267	city	7	1	0.794481	0.794481	0	1	0	0	CorrectCommission	1.226559	0.594445	1	1
99.544304	0.792373	mountain	10	0	0.000000	0.688561	1	0	0	0	CorrectOmission	0.060325	0.597408	1	1
100.336571	0.792156	city	3	1	0.561853	0.561853	0	1	0	0	CorrectCommission	1.334793	0.594703	1	1
101.128777	0.792267	city	10	1	0.546792	0.546792	0	1	0	0	CorrectCommission	1.500626	0.586272	1	1
101.921043	0.792264	city	2	1	0.645762	0.645762	0	1	0	0	CorrectCommission	0.410917	0.572668	1	1
102.713364	0.792370	city	9	1	0.652559	0.652559	0	1	0	0	CorrectCommission	0.336072	0.555009	1	1
103.505684	0.792266	city	7	1	0.697602	0.697602	0	1	0	0	CorrectCommission	0.159874	0.534800	1	1
104.297905	0.792191	city	8	1	0.648392	0.648392	0	1	0	0	CorrectCommission	0.381953	0.513778	1	1
105.090225	0.792448	mountain	10	1	0.700107	0.700107	0	0	1	0	CommissionError	0.187457	0.493749	1	1
105.882477	0.792046	city	6	1	0.794645	0.794645	0	1	0	0	CorrectCommission	1.228366	0.476446	1	1
106.674652	0.792313	city	10	1	0.695273	0.695273	0	1	0	0	CorrectCommission	0.134224	0.463299	1	1
107.466919	0.792218	city	2	1	0.645756	0.645756	0	1	0	0	CorrectCommission	0.410980	0.455438	1	1
108.259163	0.792265	city	1	1	0.695363	0.695363	0	1	0	0	CorrectCommission	0.135214	0.453523	1	1
109.051422	0.792265	city	4	1	0.695420	0.695420	0	1	0	0	CorrectCommission	0.135847	0.457791	1	1
109.843689	0.792265	mountain	7	0	0.000000	0.712115	1	0	0	0	CorrectOmission	0.319669	0.467976	1	1
110.635956	0.792265	city	1	1	0.695769	0.695769	0	1	0	0	CorrectCommission	0.139687	0.483430	1	1
111.428223	0.792264	city	10	1	0.596702	0.596702	0	1	0	0	CorrectCommission	0.951089	0.503149	1	1
112.220505	0.792304	city	1	1	0.745395	0.745395	0	1	0	0	CorrectCommission	0.686096	0.525879	1	1
113.012779	0.792242	city	6	1	0.745006	0.745006	0	1	0	0	CorrectCommission	0.681810	0.550235	1	1
113.805023	0.792247	city	9	1	0.695210	0.695210	0	1	0	0	CorrectCommission	0.133534	0.574819	1	1
114.597336	0.792374	mountain	4	0	0.000000	0.637307	1	0	0	0	CorrectOmission	0.504007	0.598325	1	1
115.389648	0.792263	city	10	1	0.645553	0.645553	0	1	0	0	CorrectCommission	0.413211	0.619613	1	1
116.181969	0.792374	city	5	1	0.794205	0.794205	0	1	0	0	CorrectCommission	1.223521	0.637807	1	1
116.974182	0.792046	city	7	1	0.596192	0.596192	0	1	0	0	CorrectCommission	0.956701	0.652352	1	1
117.766388	0.792374	city	4	1	0.794424	0.794424	0	1	0	0	CorrectCommission	1.225929	0.663036	1	1
118.558762	0.792375	city	3	1	0.714897	0.714897	0	1	0	0	CorrectCommission	0.350293	0.669920	1	1
119.350975	0.792050	city	2	1	0.646151	0.646151	0	1	0	0	CorrectCommission	0.406633	0.673350	1	1
120.143135	0.792260	city	10	1	0.645777	0.645777	0	1	0	0	CorrectCommission	0.410751	0.673800	1	1
120.935448	0.792375	city	7	1	0.799028	0.799028	0	1	0	0	CorrectCommission	1.276619	0.671803	1	1
121.727715	0.792157	city	3	1	0.702288	0.702288	0	1	0	0	CorrectCommission	0.211468	0.667841	1	1
122.519981	0.792372	city	1	1	0.605724	0.605724	0	1	0	0	CorrectCommission	0.851754	0.662362	1	1
123.312256	0.792178	mountain	3	0	0.000000	0.712085	1	0	0	0	CorrectOmission	0.319334	0.655697	1	1
124.104523	0.792352	city	7	1	0.812558	0.812558	0	1	0	0	CorrectCommission	1.425595	0.648175	1	1
124.896774	0.792156	city	9	1	0.698330	0.698330	0	1	0	0	CorrectCommission	0.167887	0.640083	1	1
125.688980	0.792263	city	5	1	0.605799	0.605799	0	1	0	0	CorrectCommission	0.850923	0.631822	1	1
126.481300	0.792375	city	8	1	0.697938	0.697938	0	1	0	0	CorrectCommission	0.163569	0.623863	1	1
127.273582	0.792185	city	5	1	0.612266	0.612266	0	1	0	0	CorrectCommission	0.779722	0.616832	1	0
128.065796	0.792234	city	7	1	0.615986	0.615986	0	1	0	0	CorrectCommission	0.738758	0.611447	1	0
128.858047	0.792265	city	9	1	0.797162	0.797162	0	1	0	0	CorrectCommission	1.256075	0.608448	1	0
129.650314	0.792288	city	5	1	0.645744	0.645744	0	1	0	0	CorrectCommission	0.411107	0.608502	1	0
130.442642	0.792353	city	3	1	0.695301	0.695301	0	1	0	0	CorrectCommission	0.134533	0.612097	1	0
131.234894	0.792157	mountain	6	0	0.000000	0.696570	1	0	0	0	CorrectOmission	0.148512	0.619395	1	0
132.027100	0.792264	city	1	1	0.660133	0.660133	0	1	0	0	CorrectCommission	0.252682	0.630137	1	0
132.819366	0.792267	city	9	1	0.596569	0.596569	0	1	0	0	CorrectCommission	0.952558	0.643633	1	0
133.611694	0.792369	city	6	1	0.695437	0.695437	0	1	0	0	CorrectCommission	0.136031	0.658815	1	0
134.404053	0.792374	mountain	5	0	0.000000	0.761496	1	0	0	0	CorrectOmission	0.863372	0.674406	1	0
135.196274	0.792046	city	1	1	0.794522	0.794522	0	1	0	0	CorrectCommission	1.227007	0.689042	0	0
135.988541	0.792482	city	2	1	0.794292	0.794292	0	1	0	0	CorrectCommission	1.224475	0.701504	0	0
136.780792	0.792049	city	4	1	0.760700	0.760700	0	1	0	0	CorrectCommission	0.854612	0.710848	0	0
137.572998	0.792340	city	3	1	0.714280	0.714280	0	1	0	0	CorrectCommission	0.343507	0.716500	0	0
138.365280	0.792221	city	1	1	0.744735	0.744735	0	1	0	0	CorrectCommission	0.678834	0.718236	0	0
139.157608	0.792450	city	4	1	0.794259	0.794259	0	1	0	0	CorrectCommission	1.224116	0.716141	0	0
139.949875	0.792087	city	6	1	0.645527	0.645527	0	1	0	0	CorrectCommission	0.413496	0.710483	0	0
140.742035	0.792227	city	4	1	0.645922	0.645922	0	1	0	0	CorrectCommission	0.409150	0.701655	0	0
141.534286	0.792265	mountain	9	0	0.000000	0.631980	1	0	0	0	CorrectOmission	0.562665	0.690023	0	0
142.326553	0.792294	city	5	1	0.600108	0.600108	0	1	0	0	CorrectCommission	0.913584	0.675887	1	0
143.118851	0.792285	city	1	1	0.546716	0.546716	0	1	0	0	CorrectCommission	1.501455	0.659446	1	0
143.911148	0.792320	city	10	1	0.667991	0.667991	0	1	0	0	CorrectCommission	0.166164	0.640821	1	0
144.703400	0.792173	city	9	1	0.645829	0.645829	0	1	0	0	CorrectCommission	0.410178	0.620123	1	0
145.495636	0.792302	city	6	1	0.645801	0.645801	0	1	0	0	CorrectCommission	0.410479	0.597455	1	0
146.287918	0.792260	city	2	1	0.605378	0.605378	0	1	0	0	CorrectCommission	0.855565	0.573007	1	0
147.080261	0.792434	city	1	1	0.613404	0.613404	0	1	0	0	CorrectCommission	0.767195	0.547105	1	0
147.872498	0.792047	city	6	1	0.645863	0.645863	0	1	0	0	CorrectCommission	0.409803	0.520255	1	0
148.664658	0.792264	city	10	1	0.596918	0.596918	0	1	0	0	CorrectCommission	0.948713	0.493124	1	0
149.456924	0.792272	city	4	1	0.698302	0.698302	0	1	0	0	CorrectCommission	0.167575	0.466495	1	0
150.249191	0.792261	city	1	1	0.645758	0.645758	0	1	0	0	CorrectCommission	0.410955	0.441206	1	0
151.041504	0.792369	city	8	1	0.652791	0.652791	0	1	0	0	CorrectCommission	0.333525	0.418039	1	0
151.833771	0.792158	city	1	1	0.695187	0.695187	0	1	0	0	CorrectCommission	0.133285	0.397627	1	0
152.625977	0.792263	city	2	1	0.652577	0.652577	0	1	0	0	CorrectCommission	0.335879	0.380378	1	0
153.418304	0.792374	city	7	1	0.707309	0.707309	0	1	0	0	CorrectCommission	0.266754	0.366417	1	0
154.210571	0.792157	city	4	1	0.706578	0.706578	0	1	0	0	CorrectCommission	0.258702	0.355593	1	0
155.002777	0.792267	city	7	1	0.660104	0.660104	0	1	0	0	CorrectCommission	0.252997	0.347554	1	0
155.795151	0.792481	city	6	1	0.695292	0.695292	0	1	0	0	CorrectCommission	0.134437	0.341830	1	0
156.587418	0.792048	city	2	1	0.596266	0.596266	0	1	0	0	CorrectCommission	0.955884	0.337953	1	0
157.379608	0.792326	city	5	1	0.695295	0.695295	0	1	0	0	CorrectCommission	0.134471	0.335570	1	0
158.171875	0.792204	city	1	1	0.645836	0.645836	0	1	0	0	CorrectCommission	0.410096	0.334557	1	0
158.964157	0.792371	city	5	1	0.648638	0.648638	0	1	0	0	CorrectCommission	0.379246	0.335024	1	0
159.756424	0.792162	city	2	1	0.654216	0.654216	0	1	0	0	CorrectCommission	0.317833	0.337294	1	0
160.548630	0.792262	city	3	1	0.695397	0.695397	0	1	0	0	CorrectCommission	0.135588	0.341825	1	0
161.340897	0.792263	city	4	1	0.645888	0.645888	0	1	0	0	CorrectCommission	0.409522	0.349132	1	0
162.133194	0.792316	city	8	1	0.645844	0.645844	0	1	0	0	CorrectCommission	0.410008	0.359609	1	0
162.925507	0.792321	city	4	1	0.705261	0.705261	0	1	0	0	CorrectCommission	0.244207	0.373425	1	0
163.717773	0.792219	city	1	1	0.695180	0.695180	0	1	0	0	CorrectCommission	0.133204	0.390458	1	0
164.509979	0.792201	city	10	1	0.711254	0.711254	0	1	0	0	CorrectCommission	0.310188	0.410256	1	0
165.302322	0.792481	city	4	1	0.695497	0.695497	0	1	0	0	CorrectCommission	0.136696	0.432112	1	0
166.094696	0.792266	mountain	9	0	0.000000	0.684088	1	0	0	0	CorrectOmission	0.011080	0.455190	1	0
166.886871	0.792076	city	2	1	0.645836	0.645836	0	1	0	0	CorrectCommission	0.410096	0.478721	1	0
167.679031	0.792256	city	5	1	0.549549	0.549549	0	1	0	0	CorrectCommission	1.470271	0.502172	1	0
168.471390	0.792461	city	7	1	0.546728	0.546728	0	1	0	0	CorrectCommission	1.501324	0.525379	1	0
169.263657	0.792050	city	6	1	0.645786	0.645786	0	1	0	0	CorrectCommission	0.410648	0.548662	1	0
170.055847	0.792328	city	1	1	0.645812	0.645812	0	1	0	0	CorrectCommission	0.410359	0.572731	1	0
170.848114	0.792203	city	6	1	0.695674	0.695674	0	1	0	0	CorrectCommission	0.138643	0.598477	1	0
171.640366	0.792311	city	4	1	0.709755	0.709755	0	1	0	0	CorrectCommission	0.293688	0.626776	1	0
172.432632	0.792216	city	3	1	0.708288	0.708288	0	1	0	0	CorrectCommission	0.277527	0.658201	1	0
173.224869	0.792264	city	9	1	0.700142	0.700142	0	1	0	0	CorrectCommission	0.187835	0.692839	0	0
174.017136	0.792265	city	3	1	0.794378	0.794378	0	1	0	0	CorrectCommission	1.225421	0.730189	0	0
174.809402	0.792267	city	10	1	0.745039	0.745039	0	1	0	0	CorrectCommission	0.682177	0.769155	0	0
175.601669	0.792267	city	9	1	0.744830	0.744830	0	1	0	0	CorrectCommission	0.679871	0.808206	0	0
176.393936	0.792276	city	5	1	0.563935	0.563935	0	1	0	0	CorrectCommission	1.311871	0.845628	0	0
177.186310	0.792468	city	10	1	0.596548	0.596548	0	1	0	0	CorrectCommission	0.952781	0.879748	0	0
177.978561	0.792047	city	7	1	0.744734	0.744734	0	1	0	0	CorrectCommission	0.678815	0.909268	0	0
178.770767	0.792373	city	2	1	0.811848	0.811848	0	1	0	0	CorrectCommission	1.417783	0.933450	0	0
179.563034	0.792163	city	3	1	0.794422	0.794422	0	1	0	0	CorrectCommission	1.225906	0.952213	0	0
180.355255	0.792256	city	4	1	0.794344	0.794344	0	1	0	0	CorrectCommission	1.225056	0.966176	0	0
181.147507	0.792269	city	1	1	0.794848	0.794848	0	1	0	0	CorrectCommission	1.230602	0.976496	0	0
181.939835	0.792369	mountain	1	0	0.000000	0.775552	1	0	0	0	CorrectOmission	1.018143	0.984620	0	0
182.732101	0.792158	city	4	1	0.744661	0.744661	0	1	0	0	CorrectCommission	0.678013	0.991976	0	0
183.524307	0.792265	mountain	6	1	0.710378	0.710378	0	0	1	0	CommissionError	0.300545	0.999659	0	0
184.316574	0.792262	city	8	1	0.813396	0.813396	0	1	0	0	CorrectCommission	1.434827	1.008143	0	0
185.108841	0.792266	city	9	1	0.760750	0.760750	0	1	0	0	CorrectCommission	0.855165	1.017034	0	0
185.901154	0.792373	city	1	0	0.000000	0.669622	0	0	0	1	OmissionError	0.148200	1.025179	0	0
186.693420	0.792157	city	2	1	0.596105	0.596105	0	1	0	0	CorrectCommission	0.957665	1.030813	0	1
187.485641	0.792273	city	1	1	0.596290	0.596290	0	1	0	0	CorrectCommission	0.955629	1.031840	0	1
188.277954	0.792364	city	4	1	0.794348	0.794348	0	1	0	0	CorrectCommission	1.225093	1.026315	0	1
189.070221	0.792158	city	9	1	0.942721	0.942721	0	1	0	0	CorrectCommission	2.858758	1.012854	0	1
189.862427	0.792262	city	6	0	0.000000	0.868524	0	0	0	1	OmissionError	2.041806	0.990952	0	1
190.654800	0.792483	city	7	1	0.695291	0.695291	0	1	0	0	CorrectCommission	0.134430	0.961215	0	1
191.447067	0.792051	city	2	1	0.546560	0.546560	0	1	0	0	CorrectCommission	1.503178	0.925309	0	1
192.239334	0.792478	city	8	1	0.645914	0.645914	0	1	0	0	CorrectCommission	0.409235	0.885678	0	1
193.031601	0.792051	mountain	6	0	0.000000	0.730162	1	0	0	0	CorrectOmission	0.518376	0.845243	0	1
193.823776	0.792316	city	5	1	0.747615	0.747615	0	1	0	0	CorrectCommission	0.710535	0.806886	0	1
194.616058	0.792247	city	1	1	0.646582	0.646582	0	1	0	0	CorrectCommission	0.401879	0.773050	0	1
195.408310	0.792247	city	5	1	0.645703	0.645703	0	1	0	0	CorrectCommission	0.411558	0.745430	0	1
196.200607	0.792353	city	7	1	0.645750	0.645750	0	1	0	0	CorrectCommission	0.411047	0.724755	0	1
196.992920	0.792266	city	2	1	0.695186	0.695186	0	1	0	0	CorrectCommission	0.133266	0.710824	0	1
197.785126	0.792158	city	5	1	0.695315	0.695315	0	1	0	0	CorrectCommission	0.134695	0.702646	0	1
198.577393	0.792371	mountain	7	0	0.000000	0.825093	1	0	0	0	CorrectOmission	1.563609	0.698683	0	1
199.369659	0.792160	city	6	1	0.893850	0.893850	0	1	0	0	CorrectCommission	2.320662	0.697112	0	1
200.161865	0.792260	city	2	1	0.710920	0.710920	0	1	0	0	CorrectCommission	0.306507	0.696118	0	1
200.954132	0.792269	city	9	1	0.645768	0.645768	0	1	0	0	CorrectCommission	0.410844	0.694130	0	1
201.746399	0.792260	city	3	1	0.659267	0.659267	0	1	0	0	CorrectCommission	0.262216	0.689794	0	1
202.538666	0.792268	city	1	1	0.650590	0.650590	0	1	0	0	CorrectCommission	0.357751	0.682108	1	1
203.330933	0.792266	city	2	1	0.648276	0.648276	0	1	0	0	CorrectCommission	0.383234	0.670413	1	1
204.123184	0.792265	city	9	1	0.794325	0.794325	0	1	0	0	CorrectCommission	1.224845	0.654346	1	1
204.915482	0.792309	city	6	1	0.816900	0.816900	0	1	0	0	CorrectCommission	1.473402	0.633889	1	1
205.707748	0.792217	city	10	1	0.710059	0.710059	0	1	0	0	CorrectCommission	0.297031	0.609433	1	1
206.500015	0.792321	city	3	1	0.645931	0.645931	0	1	0	0	CorrectCommission	0.409049	0.581784	1	1
207.292282	0.792212	city	2	1	0.553827	0.553827	0	1	0	0	CorrectCommission	1.423159	0.552160	1	1
208.084518	0.792267	city	7	1	0.649799	0.649799	0	1	0	0	CorrectCommission	0.366462	0.522143	1	1
208.876816	0.792322	city	6	1	0.695649	0.695649	0	1	0	0	CorrectCommission	0.138372	0.493585	1	1
209.669128	0.792311	city	3	1	0.695233	0.695233	0	1	0	0	CorrectCommission	0.133784	0.468408	1	1
210.461365	0.792158	city	10	1	0.645841	0.645841	0	1	0	0	CorrectCommission	0.410041	0.448395	1	1
211.253571	0.792264	city	9	1	0.695423	0.695423	0	1	0	0	CorrectCommission	0.135885	0.435032	1	1
212.045837	0.792265	city	3	1	0.645960	0.645960	0	1	0	0	CorrectCommission	0.408731	0.429314	1	1
212.838150	0.792372	city	5	1	0.645788	0.645788	0	1	0	0	CorrectCommission	0.410629	0.431660	1	1
213.630524	0.792375	city	8	1	0.695396	0.695396	0	1	0	0	CorrectCommission	0.135580	0.441851	1	1
214.422791	0.792154	city	7	1	0.695078	0.695078	0	1	0	0	CorrectCommission	0.132077	0.459101	1	1
215.214951	0.792159	city	1	1	0.695151	0.695151	0	1	0	0	CorrectCommission	0.132885	0.482156	1	1
216.007156	0.792262	city	9	1	0.744787	0.744787	0	1	0	0	CorrectCommission	0.679406	0.509446	1	1
216.799484	0.792375	city	10	1	0.695446	0.695446	0	1	0	0	CorrectCommission	0.136128	0.539307	1	1
217.591751	0.792175	mountain	3	0	0.000000	0.791757	1	0	0	0	CorrectOmission	1.196567	0.570215	1	1
218.383987	0.792281	city	7	1	0.852203	0.852203	0	1	0	0	CorrectCommission	1.862112	0.600860	1	1
219.176239	0.792230	city	5	1	0.695266	0.695266	0	1	0	0	CorrectCommission	0.134156	0.630263	1	1
219.968491	0.792267	mountain	1	0	0.000000	0.710307	1	0	0	0	CorrectOmission	0.299761	0.657799	1	1
220.760742	0.792260	city	4	1	0.744779	0.744779	0	1	0	0	CorrectCommission	0.679319	0.683047	0	1
221.553116	0.792483	city	3	1	0.646138	0.646138	0	1	0	0	CorrectCommission	0.406775	0.705710	0	1
222.345383	0.792048	city	4	1	0.606030	0.606030	0	1	0	0	CorrectCommission	0.848385	0.725517	0	1
223.137573	0.792335	city	7	1	0.645769	0.645769	0	1	0	0	CorrectCommission	0.410837	0.742151	0	1
223.929947	0.792412	city	6	1	0.794293	0.794293	0	1	0	0	CorrectCommission	1.224484	0.755278	0	1
224.722183	0.792050	city	9	1	0.596203	0.596203	0	1	0	0	CorrectCommission	0.956586	0.764495	0	1
225.514389	0.792370	mountain	4	0	0.000000	0.719445	1	0	0	0	CorrectOmission	0.400374	0.769551	0	1
226.306702	0.792265	city	3	1	0.844032	0.844032	0	1	0	0	CorrectCommission	1.772139	0.770414	0	1
227.098923	0.792161	city	5	1	0.649976	0.649976	0	1	0	0	CorrectCommission	0.364514	0.767316	0	1
227.891129	0.792266	city	2	1	0.563019	0.563019	0	1	0	0	CorrectCommission	1.321952	0.760877	0	1
228.683456	0.792367	city	8	1	0.645781	0.645781	0	1	0	0	CorrectCommission	0.410709	0.751980	0	1
229.475708	0.792156	city	9	1	0.744616	0.744616	0	1	0	0	CorrectCommission	0.677523	0.741745	0	1
230.267929	0.792269	city	3	1	0.745333	0.745333	0	1	0	0	CorrectCommission	0.685417	0.731333	0	1
231.060242	0.792371	city	1	1	0.695181	0.695181	0	1	0	0	CorrectCommission	0.133218	0.721811	0	1
231.852509	0.792157	city	4	1	0.800925	0.800925	0	1	0	0	CorrectCommission	1.297513	0.713990	0	1
232.644745	0.792309	city	5	1	0.744801	0.744801	0	1	0	0	CorrectCommission	0.679552	0.708229	0	1
233.437057	0.792328	city	10	1	0.744843	0.744843	0	1	0	0	CorrectCommission	0.680022	0.704422	0	1
234.229309	0.792159	city	4	1	0.744698	0.744698	0	1	0	0	CorrectCommission	0.678425	0.701952	0	1
235.021515	0.792261	city	10	1	0.695291	0.695291	0	1	0	0	CorrectCommission	0.134425	0.699762	0	1
235.813889	0.792483	city	6	1	0.695455	0.695455	0	1	0	0	CorrectCommission	0.136229	0.696541	0	1
236.606155	0.792047	city	2	1	0.744871	0.744871	0	1	0	0	CorrectCommission	0.680329	0.690957	0	1
237.398315	0.792269	city	8	1	0.794311	0.794311	0	1	0	0	CorrectCommission	1.224685	0.681932	1	1
238.190689	0.792478	city	5	1	0.796637	0.796637	0	1	0	0	CorrectCommission	1.250294	0.668909	1	1
238.983002	0.792156	city	7	1	0.893042	0.893042	0	1	0	0	CorrectCommission	2.311763	0.652072	1	1
239.775269	0.792374	city	3	1	0.711889	0.711889	0	1	0	0	CorrectCommission	0.317184	0.632380	1	1
240.567474	0.792050	mountain	2	0	0.000000	0.678319	1	0	0	0	CorrectOmission	0.052448	0.611576	1	1
241.359680	0.792372	city	2	1	0.702636	0.702636	0	1	0	0	CorrectCommission	0.215303	0.591838	1	1
242.151947	0.792156	city	8	1	0.695150	0.695150	0	1	0	0	CorrectCommission	0.132874	0.575555	1	1
242.944168	0.792269	city	10	1	0.645794	0.645794	0	1	0	0	CorrectCommission	0.410563	0.565058	1	1
243.736420	0.792261	city	4	1	0.646753	0.646753	0	1	0	0	CorrectCommission	0.400003	0.562279	1	1
244.528687	0.792266	city	1	1	0.652767	0.652767	0	1	0	0	CorrectCommission	0.333780	0.568654	1	1
245.320953	0.792263	city	4	1	0.695308	0.695308	0	1	0	0	CorrectCommission	0.134617	0.585019	1	1
246.113251	0.792334	city	6	1	0.744855	0.744855	0	1	0	0	CorrectCommission	0.680154	0.611623	1	0
246.905518	0.792193	city	8	1	0.596207	0.596207	0	1	0	0	CorrectCommission	0.956537	0.648165	1	0
247.697769	0.792318	city	7	1	0.645777	0.645777	0	1	0	0	CorrectCommission	0.410750	0.693878	0	0
248.490097	0.792322	mountain	1	0	0.000000	0.736247	1	0	0	0	CorrectOmission	0.585372	0.747601	0	0
249.282333	0.792158	city	1	1	0.756715	0.756715	0	1	0	0	CorrectCommission	0.810735	0.807719	0	0
250.074600	0.792370	city	6	1	0.596278	0.596278	0	1	0	0	CorrectCommission	0.955753	0.872188	0	0
250.866882	0.792188	city	5	1	0.546614	0.546614	0	1	0	0	CorrectCommission	1.502585	0.938478	0	0
251.659103	0.792254	city	4	1	0.658189	0.658189	0	1	0	0	CorrectCommission	0.274087	1.003579	0	0
252.451462	0.792461	city	1	1	0.710906	0.710906	0	1	0	0	CorrectCommission	0.306357	1.064116	0	0
253.243729	0.792100	city	8	1	0.650363	0.650363	0	1	0	0	CorrectCommission	0.360252	1.116491	0	0
254.035995	0.792430	mountain	1	0	0.000000	0.788891	1	0	0	0	CorrectOmission	1.165010	1.157223	0	0
254.828232	0.792047	city	6	1	0.958823	0.958823	0	1	0	0	CorrectCommission	3.036052	1.183304	0	0
255.620392	0.792264	city	1	1	0.992494	0.992494	0	1	0	0	CorrectCommission	3.406788	1.192593	0	0
256.412720	0.792374	city	4	0	0.000000	0.818829	0	0	0	1	OmissionError	1.494638	1.184123	0	0
257.204987	0.792157	city	9	1	0.613811	0.613811	0	1	0	0	CorrectCommission	0.762715	1.158317	0	0
257.997192	0.792300	city	7	1	0.553425	0.553425	0	1	0	0	CorrectCommission	1.427589	1.116815	0	0
258.789459	0.792229	city	4	1	0.744819	0.744819	0	1	0	0	CorrectCommission	0.679751	1.062272	0	0
259.581726	0.792265	city	5	1	0.664134	0.664134	0	1	0	0	CorrectCommission	0.208624	0.998087	0	0
260.374023	0.792373	city	10	1	0.546742	0.546742	0	1	0	0	CorrectCommission	1.501174	0.928027	0	0
261.166290	0.792161	city	3	1	0.744839	0.744839	0	1	0	0	CorrectCommission	0.679975	0.855831	0	0
261.958527	0.792263	city	7	1	0.758500	0.758500	0	1	0	0	CorrectCommission	0.830393	0.785061	0	0
262.750793	0.792265	city	4	1	0.744849	0.744849	0	1	0	0	CorrectCommission	0.680090	0.718912	0	0
263.543060	0.792265	city	7	1	0.744806	0.744806	0	1	0	0	CorrectCommission	0.679615	0.660113	1	0
264.335358	0.792370	city	2	1	0.713422	0.713422	0	1	0	0	CorrectCommission	0.334058	0.610918	1	0
265.127625	0.792160	city	1	1	0.709617	0.709617	0	1	0	0	CorrectCommission	0.292158	0.573090	1	0
265.919830	0.792261	city	6	1	0.695692	0.695692	0	1	0	0	CorrectCommission	0.138844	0.547836	1	0
266.712219	0.792481	city	9	1	0.744809	0.744809	0	1	0	0	CorrectCommission	0.679645	0.535789	1	0
267.504486	0.792048	city	1	1	0.702529	0.702529	0	1	0	0	CorrectCommission	0.214116	0.536918	1	0
268.296692	0.792372	city	8	1	0.695388	0.695388	0	1	0	0	CorrectCommission	0.135499	0.550495	1	0
269.088959	0.792161	city	2	1	0.645584	0.645584	0	1	0	0	CorrectCommission	0.412868	0.575064	1	0
269.881195	0.792323	city	1	1	0.660224	0.660224	0	1	0	0	CorrectCommission	0.251678	0.608472	1	0
270.673553	0.792421	city	9	1	0.697765	0.697765	0	1	0	0	CorrectCommission	0.161670	0.647960	1	0
271.465790	0.792048	city	3	1	0.612353	0.612353	0	1	0	0	CorrectCommission	0.778759	0.690369	0	0
272.257965	0.792262	city	2	1	0.547216	0.547216	0	1	0	0	CorrectCommission	1.495955	0.732358	0	0
273.050232	0.792265	city	9	1	0.756989	0.756989	0	1	0	0	CorrectCommission	0.813757	0.770749	0	0
273.842468	0.792264	city	3	0	0.000000	0.737893	0	0	0	1	OmissionError	0.603493	0.802862	0	0
274.634796	0.792374	city	7	1	0.601587	0.601587	0	1	0	0	CorrectCommission	0.897303	0.826737	0	0
275.427124	0.792265	city	3	1	0.459733	0.459733	0	1	0	0	CorrectCommission	2.459190	0.841276	0	0
276.219330	0.792161	city	2	1	0.596308	0.596308	0	1	0	0	CorrectCommission	0.955429	0.846287	0	0
277.011536	0.792263	city	8	1	0.645917	0.645917	0	1	0	0	CorrectCommission	0.409205	0.842505	0	0
277.803802	0.792266	city	6	1	0.794480	0.794480	0	1	0	0	CorrectCommission	1.226547	0.831272	0	0
278.596130	0.792371	city	7	1	0.695795	0.695795	0	1	0	0	CorrectCommission	0.139979	0.814345	0	0
279.388428	0.792208	city	10	1	0.596122	0.596122	0	1	0	0	CorrectCommission	0.957474	0.793619	0	0
280.180634	0.792224	city	3	1	0.606313	0.606313	0	1	0	0	CorrectCommission	0.845261	0.770824	0	0
280.972870	0.792253	city	6	1	0.698255	0.698255	0	1	0	0	CorrectCommission	0.167060	0.747395	0	0
281.765228	0.792482	city	2	1	0.608080	0.608080	0	1	0	0	CorrectCommission	0.825812	0.724385	0	0
282.557556	0.792155	city	3	1	0.596091	0.596091	0	1	0	0	CorrectCommission	0.957816	0.702420	0	0
283.349731	0.792211	city	4	1	0.751888	0.751888	0	1	0	0	CorrectCommission	0.757591	0.681801	1	0
284.141998	0.792320	city	10	1	0.646101	0.646101	0	1	0	0	CorrectCommission	0.407185	0.662598	1	0
284.934265	0.792190	city	7	1	0.797102	0.797102	0	1	0	0	CorrectCommission	1.255414	0.644785	1	0
285.726593	0.792448	city	1	1	0.695253	0.695253	0	1	0	0	CorrectCommission	0.134006	0.628352	1	0
286.518829	0.792052	city	8	1	0.645611	0.645611	0	1	0	0	CorrectCommission	0.412578	0.613437	1	0
287.310974	0.792262	city	5	1	0.651915	0.651915	0	1	0	0	CorrectCommission	0.343170	0.600280	1	0
288.103302	0.792369	city	6	1	0.799273	0.799273	0	1	0	0	CorrectCommission	1.279322	0.589331	1	0
288.895569	0.792159	city	7	1	0.744832	0.744832	0	1	0	0	CorrectCommission	0.679901	0.581140	1	0
289.687897	0.792482	city	6	1	0.645981	0.645981	0	1	0	0	CorrectCommission	0.408507	0.576356	1	0
290.480255	0.792263	city	10	1	0.645519	0.645519	0	1	0	0	CorrectCommission	0.413591	0.575619	1	0
291.272461	0.792156	mountain	5	0	0.000000	0.690031	1	0	0	0	CorrectOmission	0.076514	0.579448	1	0
292.064636	0.792160	mountain	2	0	0.000000	0.724845	1	0	0	0	CorrectOmission	0.459829	0.588162	1	0
292.856903	0.792368	city	4	1	0.695287	0.695287	0	1	0	0	CorrectCommission	0.134378	0.601733	1	0
293.649200	0.792266	mountain	7	1	0.546683	0.546683	0	0	1	0	CommissionError	1.501819	0.619818	1	0
294.441437	0.792160	city	1	1	0.744804	0.744804	0	1	0	0	CorrectCommission	0.679593	0.641680	1	0
295.233643	0.792268	city	9	1	0.695276	0.695276	0	1	0	0	CorrectCommission	0.134266	0.666247	1	0
296.025940	0.792319	city	7	1	0.660975	0.660975	0	1	0	0	CorrectCommission	0.243414	0.692163	0	0
296.818207	0.792259	mountain	9	0	0.000000	0.761314	1	0	0	0	CorrectOmission	0.861372	0.717811	0	0
297.610443	0.792216	city	7	1	0.803878	0.803878	0	1	0	0	CorrectCommission	1.330022	0.741475	0	0
298.402679	0.792256	city	8	1	0.596250	0.596250	0	1	0	0	CorrectCommission	0.956062	0.761472	0	0
299.194946	0.792266	city	7	1	0.648280	0.648280	0	1	0	0	CorrectCommission	0.383190	0.776311	0	0
299.987274	0.792374	city	5	1	0.696141	0.696141	0	1	0	0	CorrectCommission	0.143782	0.784865	0	0
300.779541	0.792158	mountain	2	0	0.000000	0.835984	1	0	0	0	CorrectOmission	1.683531	0.786493	0	0
301.571869	0.792480	city	4	1	0.893673	0.893673	0	1	0	0	CorrectCommission	2.318718	0.781156	0	0
302.364136	0.792050	city	7	1	0.695071	0.695071	0	1	0	0	CorrectCommission	0.132002	0.769462	0	0
303.156281	0.792262	city	10	1	0.596274	0.596274	0	1	0	0	CorrectCommission	0.955797	0.752692	0	0
303.948547	0.792265	city	5	1	0.648314	0.648314	0	1	0	0	CorrectCommission	0.382815	0.732558	0	0
304.740814	0.792264	city	2	1	0.657501	0.657501	0	1	0	0	CorrectCommission	0.281664	0.711111	0	0
305.533112	0.792375	city	5	1	0.744846	0.744846	0	1	0	0	CorrectCommission	0.680055	0.690450	0	1
306.325500	0.792373	city	10	1	0.601142	0.601142	0	1	0	0	CorrectCommission	0.902207	0.672519	1	1
307.117706	0.792050	city	4	1	0.596007	0.596007	0	1	0	0	CorrectCommission	0.958741	0.658862	1	1
307.909882	0.792260	city	1	1	0.653302	0.653302	0	1	0	0	CorrectCommission	0.327897	0.650443	1	1
308.702179	0.792374	city	10	1	0.695293	0.695293	0	1	0	0	CorrectCommission	0.134451	0.647529	1	1
309.494446	0.792157	city	9	1	0.653831	0.653831	0	1	0	0	CorrectCommission	0.322068	0.649651	1	1
310.286652	0.792273	city	2	1	0.645795	0.645795	0	1	0	0	CorrectCommission	0.410549	0.655672	1	1
311.078918	0.792258	city	5	1	0.608375	0.608375	0	1	0	0	CorrectCommission	0.822568	0.663878	1	1
311.871216	0.792329	city	10	1	0.695249	0.695249	0	1	0	0	CorrectCommission	0.133961	0.672322	1	1
312.663513	0.792260	mountain	3	0	0.000000	0.797519	1	0	0	0	CorrectOmission	1.260011	0.679133	1	1
313.455872	0.792421	city	6	1	0.802142	0.802142	0	1	0	0	CorrectCommission	1.310913	0.682780	1	1
314.248108	0.792055	city	9	1	0.596074	0.596074	0	1	0	0	CorrectCommission	0.958001	0.682415	1	1
315.040375	0.792474	city	5	1	0.559060	0.559060	0	1	0	0	CorrectCommission	1.365548	0.678007	1	1
315.832611	0.792046	city	7	1	0.695178	0.695178	0	1	0	0	CorrectCommission	0.133184	0.670371	1	1
316.624786	0.792265	city	8	1	0.748355	0.748355	0	1	0	0	CorrectCommission	0.718685	0.661080	1	1
317.417053	0.792320	city	7	1	0.756866	0.756866	0	1	0	0	CorrectCommission	0.812402	0.652159	1	1
318.209320	0.792210	city	9	1	0.695218	0.695218	0	1	0	0	CorrectCommission	0.133621	0.645748	1	1
319.001587	0.792269	city	1	1	0.645800	0.645800	0	1	0	0	CorrectCommission	0.410498	0.643735	1	1
319.793823	0.792260	city	7	1	0.745236	0.745236	0	1	0	0	CorrectCommission	0.684347	0.647453	1	1
320.586090	0.792265	city	10	1	0.707190	0.707190	0	1	0	0	CorrectCommission	0.265437	0.657428	1	1
321.378357	0.792280	city	6	1	0.744963	0.744963	0	1	0	0	CorrectCommission	0.681337	0.673290	1	1
322.170654	0.792263	city	10	1	0.695270	0.695270	0	1	0	0	CorrectCommission	0.134199	0.693808	0	1
322.963013	0.792470	city	1	1	0.697939	0.697939	0	1	0	0	CorrectCommission	0.163582	0.717134	0	1
323.755371	0.792265	city	3	1	0.695044	0.695044	0	1	0	0	CorrectCommission	0.131702	0.741103	0	1
324.547546	0.792046	mountain	7	0	0.000000	0.859676	1	0	0	0	CorrectOmission	1.944390	0.763606	0	1
325.339722	0.792319	city	6	1	0.942880	0.942880	0	1	0	0	CorrectCommission	2.860510	0.782892	0	1
326.132050	0.792321	city	2	1	0.695700	0.695700	0	1	0	0	CorrectCommission	0.138927	0.797866	0	1
326.924316	0.792264	city	5	1	0.596287	0.596287	0	1	0	0	CorrectCommission	0.955657	0.808213	0	1
327.716644	0.792373	city	4	1	0.598699	0.598699	0	1	0	0	CorrectCommission	0.929106	0.814197	0	1
328.508911	0.792127	city	1	1	0.647930	0.647930	0	1	0	0	CorrectCommission	0.387038	0.816521	0	1
329.301056	0.792185	city	4	1	0.744776	0.744776	0	1	0	0	CorrectCommission	0.679277	0.816037	0	1
330.093323	0.792373	city	8	1	0.695303	0.695303	0	1	0	0	CorrectCommission	0.134563	0.813434	0	1
330.885590	0.792163	city	9	1	0.646260	0.646260	0	1	0	0	CorrectCommission	0.405434	0.809107	0	1
331.677826	0.792266	mountain	8	0	0.000000	0.740398	1	0	0	0	CorrectOmission	0.631081	0.803064	0	1
332.470184	0.792474	city	4	1	0.845279	0.845279	0	1	0	0	CorrectCommission	1.785874	0.795008	0	1
333.262543	0.792267	mountain	1	0	0.000000	0.828462	1	0	0	0	CorrectOmission	1.600711	0.784533	0	1
334.054779	0.792155	city	4	1	0.745471	0.745471	0	1	0	0	CorrectCommission	0.686930	0.771284	0	1
334.846985	0.792265	city	5	1	0.651827	0.651827	0	1	0	0	CorrectCommission	0.344131	0.755168	0	1
335.639191	0.792155	city	2	1	0.551883	0.551883	0	1	0	0	CorrectCommission	1.444573	0.736435	0	1
336.431396	0.792267	city	6	1	0.645804	0.645804	0	1	0	0	CorrectCommission	0.410451	0.715642	0	1
337.223663	0.792262	mountain	5	0	0.000000	0.675301	1	0	0	0	CorrectOmission	0.085670	0.693714	0	1
338.015930	0.792264	city	10	1	0.645980	0.645980	0	1	0	0	CorrectCommission	0.408518	0.671754	1	1
338.808228	0.792375	city	3	1	0.563443	0.563443	0	1	0	0	CorrectCommission	1.317287	0.650949	1	1
339.600494	0.792155	city	9	1	0.596120	0.596120	0	1	0	0	CorrectCommission	0.957492	0.632439	1	1
340.392731	0.792266	city	3	1	0.662435	0.662435	0	1	0	0	CorrectCommission	0.227335	0.617253	1	1
341.185028	0.792327	city	4	1	0.700050	0.700050	0	1	0	0	CorrectCommission	0.186821	0.606268	1	1
341.977295	0.792203	city	2	1	0.695194	0.695194	0	1	0	0	CorrectCommission	0.133362	0.600092	1	1
342.769562	0.792337	city	1	1	0.744855	0.744855	0	1	0	0	CorrectCommission	0.680147	0.599122	1	1
343.561829	0.792190	city	2	1	0.794202	0.794202	0	1	0	0	CorrectCommission	1.223484	0.603622	1	1
344.354034	0.792270	city	10	1	0.645743	0.645743	0	1	0	0	CorrectCommission	0.411117	0.613696	1	1
345.146332	0.792283	city	2	1	0.646052	0.646052	0	1	0	0	CorrectCommission	0.407723	0.629344	1	1
345.938629	0.792351	city	5	1	0.744830	0.744830	0	1	0	0	CorrectCommission	0.679875	0.650454	1	1
346.730896	0.792156	city	10	1	0.699403	0.699403	0	1	0	0	CorrectCommission	0.179706	0.676796	1	1
347.523102	0.792267	city	5	1	0.703740	0.703740	0	1	0	0	CorrectCommission	0.227456	0.708018	0	1
348.315369	0.792263	city	3	1	0.843915	0.843915	0	1	0	0	CorrectCommission	1.770852	0.743558	0	1
349.107635	0.792262	city	1	1	0.695286	0.695286	0	1	0	0	CorrectCommission	0.134376	0.782602	0	1
349.899994	0.792485	city	4	1	0.599599	0.599599	0	1	0	0	CorrectCommission	0.919194	0.824149	0	1
350.692383	0.792264	city	5	1	0.562166	0.562166	0	1	0	0	CorrectCommission	1.331348	0.866861	0	1
351.484558	0.792083	mountain	4	0	0.000000	0.696763	1	0	0	0	CorrectOmission	0.150629	0.909208	0	1
352.276703	0.792229	city	7	1	0.794325	0.794325	0	1	0	0	CorrectCommission	1.224839	0.949539	0	1
353.068970	0.792266	city	8	1	0.645789	0.645789	0	1	0	0	CorrectCommission	0.410617	0.986105	0	1
353.861206	0.792263	city	2	1	0.546711	0.546711	0	1	0	0	CorrectCommission	1.501518	1.017341	0	1
354.653473	0.792263	city	4	1	0.804474	0.804474	0	1	0	0	CorrectCommission	1.336585	1.041952	0	1
355.445862	0.792482	city	5	1	0.797619	0.797619	0	1	0	0	CorrectCommission	1.261111	1.059094	0	1
356.238220	0.792266	city	6	1	0.893246	0.893246	0	1	0	0	CorrectCommission	2.314009	1.068469	0	1
357.030396	0.792047	city	5	1	0.745418	0.745418	0	1	0	0	CorrectCommission	0.686348	1.070352	0	1
357.822540	0.792266	mountain	3	0	0.000000	0.620858	1	0	0	0	CorrectOmission	0.685121	1.065578	0	1
358.614807	0.792265	city	10	1	0.546746	0.546746	0	1	0	0	CorrectCommission	1.501126	1.055342	0	1
359.407166	0.792479	city	6	1	0.550264	0.550264	0	1	0	0	CorrectCommission	1.462390	1.040986	0	1
360.199463	0.792087	mountain	5	0	0.000000	0.638574	1	0	0	0	CorrectOmission	0.490051	1.023806	0	1
360.991669	0.792335	city	7	1	0.695514	0.695514	0	1	0	0	CorrectCommission	0.136881	1.004928	0	1
361.783905	0.792155	city	10	1	0.604920	0.604920	0	1	0	0	CorrectCommission	0.860603	0.985188	0	1
362.576172	0.792375	city	1	1	0.559050	0.559050	0	1	0	0	CorrectCommission	1.365659	0.965115	0	1
363.368439	0.792163	city	7	1	0.605660	0.605660	0	1	0	0	CorrectCommission	0.852452	0.945082	0	1
364.160675	0.792266	mountain	4	0	0.000000	0.790319	1	0	0	0	CorrectOmission	1.180732	0.925418	0	1
364.952942	0.792290	city	9	1	0.893393	0.893393	0	1	0	0	CorrectCommission	2.315626	0.906532	0	0
365.745209	0.792230	city	1	1	0.695249	0.695249	0	1	0	0	CorrectCommission	0.133964	0.888935	0	0
366.537445	0.792267	city	9	1	0.744816	0.744816	0	1	0	0	CorrectCommission	0.679725	0.873412	0	0
367.329712	0.792264	city	10	1	0.645941	0.645941	0	1	0	0	CorrectCommission	0.408941	0.860776	0	0
368.121979	0.792265	city	7	1	0.653176	0.653176	0	1	0	0	CorrectCommission	0.329276	0.851806	0	0
368.914246	0.792266	mountain	3	0	0.000000	0.774794	1	0	0	0	CorrectOmission	1.009799	0.847123	0	0
369.706512	0.792265	city	5	1	0.844323	0.844323	0	1	0	0	CorrectCommission	1.775349	0.846993	0	0
370.498901	0.792479	city	3	1	0.695292	0.695292	0	1	0	0	CorrectCommission	0.134442	0.851278	0	0
371.291168	0.792067	city	2	1	0.695046	0.695046	0	1	0	0	CorrectCommission	0.131728	0.859450	0	0
372.083344	0.792301	city	10	1	0.596382	0.596382	0	1	0	0	CorrectCommission	0.954613	0.870582	0	0
372.875702	0.792425	city	6	1	0.645822	0.645822	0	1	0	0	CorrectCommission	0.410251	0.883498	0	0
373.668060	0.792266	city	1	1	0.506979	0.506979	0	1	0	0	CorrectCommission	1.938982	0.896938	0	0
374.460205	0.792049	city	10	1	0.546685	0.546685	0	1	0	0	CorrectCommission	1.501805	0.909708	0	0
375.252411	0.792371	city	6	1	0.695421	0.695421	0	1	0	0	CorrectCommission	0.135863	0.920841	0	0
376.044678	0.792157	mountain	8	0	0.000000	0.794405	1	0	0	0	CorrectOmission	1.225724	0.929691	0	0
376.836945	0.792372	city	8	1	0.794366	0.794366	0	1	0	0	CorrectCommission	1.225292	0.935875	0	0
377.629242	0.792184	city	4	1	0.646034	0.646034	0	1	0	0	CorrectCommission	0.407919	0.939308	0	0
378.421448	0.792235	city	10	1	0.516500	0.516500	0	1	0	0	CorrectCommission	1.834150	0.940100	0	0
379.213684	0.792271	mountain	6	0	0.000000	0.628239	1	0	0	0	CorrectOmission	0.603854	0.938390	0	0
380.005951	0.792261	city	8	1	0.761186	0.761186	0	1	0	0	CorrectCommission	0.859963	0.934329	0	0
380.798279	0.792372	city	7	1	0.695279	0.695279	0	1	0	0	CorrectCommission	0.134292	0.928010	0	0
381.590546	0.792156	city	8	1	0.596841	0.596841	0	1	0	0	CorrectCommission	0.949558	0.919481	0	0
382.382751	0.792267	city	3	1	0.550342	0.550342	0	1	0	0	CorrectCommission	1.461536	0.908754	0	0
383.175018	0.792267	city	6	1	0.608151	0.608151	0	1	0	0	CorrectCommission	0.825027	0.895986	0	0
383.967285	0.792259	city	2	1	0.554714	0.554714	0	1	0	0	CorrectCommission	1.413393	0.881547	0	0
384.759552	0.792268	mountain	5	1	0.546764	0.546764	0	0	1	0	CommissionError	1.500929	0.866009	0	0
385.551849	0.792323	city	5	1	0.745161	0.745161	0	1	0	0	CorrectCommission	0.683517	0.850199	0	0
386.344147	0.792286	city	7	1	0.744789	0.744789	0	1	0	0	CorrectCommission	0.679428	0.835132	0	0
387.136444	0.792293	city	8	1	0.702179	0.702179	0	1	0	0	CorrectCommission	0.210263	0.821846	0	0
387.928650	0.792159	city	6	1	0.645643	0.645643	0	1	0	0	CorrectCommission	0.412220	0.811310	0	0
388.720856	0.792262	city	3	1	0.653015	0.653015	0	1	0	0	CorrectCommission	0.331057	0.804356	0	0
389.513245	0.792481	city	7	1	0.795928	0.795928	0	1	0	0	CorrectCommission	1.242488	0.801658	0	0
390.305603	0.792265	city	4	1	0.709495	0.709495	0	1	0	0	CorrectCommission	0.290819	0.803767	0	0
391.097870	0.792266	city	5	1	0.546593	0.546593	0	1	0	0	CorrectCommission	1.502814	0.811233	0	0
391.890045	0.792051	city	2	1	0.547332	0.547332	0	1	0	0	CorrectCommission	1.494678	0.824614	0	0
392.682312	0.792479	mountain	2	0	0.000000	0.616225	1	0	0	0	CorrectOmission	0.736132	0.844556	0	0
393.474548	0.792045	city	10	1	0.699839	0.699839	0	1	0	0	CorrectCommission	0.184500	0.871625	0	0
394.266785	0.792373	city	1	1	0.744741	0.744741	0	1	0	0	CorrectCommission	0.678896	0.906149	0	0
395.059082	0.792266	city	9	1	0.695589	0.695589	0	1	0	0	CorrectCommission	0.137707	0.947982	0	0
395.851288	0.792159	city	10	1	0.546926	0.546926	0	1	0	0	CorrectCommission	1.499143	0.996266	0	0
396.643524	0.792266	city	3	1	0.610314	0.610314	0	1	0	0	CorrectCommission	0.801212	1.049242	0	0
397.435822	0.792370	city	1	1	0.596676	0.596676	0	1	0	0	CorrectCommission	0.951371	1.104240	0	0
398.228149	0.792263	city	2	1	0.610296	0.610296	0	1	0	0	CorrectCommission	0.801416	1.157774	0	0
399.020477	0.792375	city	10	1	0.546606	0.546606	0	1	0	0	CorrectCommission	1.502670	1.205775	0	0
399.812744	0.792156	city	1	1	0.645544	0.645544	0	1	0	0	CorrectCommission	0.413308	1.244029	0	0
400.604889	0.792155	city	10	1	0.808239	0.808239	0	1	0	0	CorrectCommission	1.378037	1.268781	0	0
401.397095	0.792265	city	6	1	0.952857	0.952857	0	1	0	0	CorrectCommission	2.970360	1.277214	0	0
402.189392	0.792303	city	1	1	1.004598	1.004598	0	1	0	0	CorrectCommission	3.540057	1.267931	0	0
402.981689	0.792336	city	9	0	0.000000	0.783456	0	0	0	1	OmissionError	1.105168	1.241290	0	0
403.773956	0.792154	city	7	1	0.546634	0.546634	0	1	0	0	CorrectCommission	1.502367	1.199470	0	0
404.566162	0.792300	city	1	1	0.551335	0.551335	0	1	0	0	CorrectCommission	1.450607	1.146166	0	0
405.358490	0.792338	city	3	1	0.695376	0.695376	0	1	0	0	CorrectCommission	0.135364	1.086221	0	0
406.150848	0.792375	mountain	9	0	0.000000	0.685941	1	0	0	0	CorrectOmission	0.031477	1.025088	0	0
406.943176	0.792264	city	9	1	0.607998	0.607998	0	1	0	0	CorrectCommission	0.826709	0.968135	0	0
407.735321	0.792047	city	5	1	0.546519	0.546519	0	1	0	0	CorrectCommission	1.503633	0.920153	0	0
408.527496	0.792267	city	4	1	0.645823	0.645823	0	1	0	0	CorrectCommission	0.410237	0.884971	0	0
409.319855	0.792479	city	3	1	0.645776	0.645776	0	1	0	0	CorrectCommission	0.410759	0.865278	0	0
410.112244	0.792265	city	4	1	0.645572	0.645572	0	1	0	0	CorrectCommission	0.413008	0.862576	0	0
410.904388	0.792049	city	1	1	0.645585	0.645585	0	1	0	0	CorrectCommission	0.412866	0.877327	0	0
411.696594	0.792371	city	6	1	0.645908	0.645908	0	1	0	0	CorrectCommission	0.409305	0.909189	0	0
412.488922	0.792267	city	2	1	0.645696	0.645696	0	1	0	0	CorrectCommission	0.411636	0.957391	0	0
413.281128	0.792154	city	5	1	0.499825	0.499825	0	1	0	0	CorrectCommission	2.017755	1.021013	0	0
414.073364	0.792321	city	8	1	0.596322	0.596322	0	1	0	0	CorrectCommission	0.955276	1.099254	0	0
414.865723	0.792427	city	4	1	0.596150	0.596150	0	1	0	0	CorrectCommission	0.957168	1.191548	0	0
415.657990	0.792051	city	5	1	0.596186	0.596186	0	1	0	0	CorrectCommission	0.956771	1.297513	0	0
416.450134	0.792261	city	6	1	0.497207	0.497207	0	1	0	0	CorrectCommission	2.046577	1.416663	0	0
417.242401	0.792267	city	2	1	0.515548	0.515548	0	1	0	0	CorrectCommission	1.844637	1.548056	0	0
418.034668	0.792263	city	6	1	0.597309	0.597309	0	1	0	0	CorrectCommission	0.944405	1.689850	0	0
418.827026	0.792482	city	8	1	0.648502	0.648502	0	1	0	0	CorrectCommission	0.380742	1.838878	0	0
419.619293	0.792048	city	2	1	0.648174	0.648174	0	1	0	0	CorrectCommission	0.384354	1.990428	0	0
420.411469	0.792266	city	3	1	0.497671	0.497671	0	1	0	0	CorrectCommission	2.041475	2.138310	0	0
421.203705	0.792262	city	6	1	0.351739	0.351739	0	1	0	0	CorrectCommission	3.648258	2.275113	0	0
421.996002	0.792274	city	5	1	0.353481	0.353481	0	1	0	0	CorrectCommission	3.629071	2.392872	0	0
422.788239	0.792255	city	9	1	0.447724	0.447724	0	1	0	0	CorrectCommission	2.591415	2.483931	0	0
423.580505	0.792269	city	3	1	0.352427	0.352427	0	1	0	0	CorrectCommission	3.640676	2.541790	0	0
424.372772	0.792263	city	10	1	0.359373	0.359373	0	1	0	0	CorrectCommission	3.564204	2.561818	0	1
425.165070	0.792297	city	3	1	0.299247	0.299247	0	1	0	0	CorrectCommission	4.226224	2.541895	0	1
425.957428	0.792447	city	9	1	0.352428	0.352428	0	1	0	0	CorrectCommission	3.640666	2.482674	0	1
426.749786	0.792265	city	7	1	0.497062	0.497062	0	1	0	0	CorrectCommission	2.048180	2.387524	0	1
427.541962	0.792059	city	9	1	0.463705	0.463705	0	1	0	0	CorrectCommission	2.415450	2.262159	0	1
428.334137	0.792289	city	2	1	0.447672	0.447672	0	1	0	0	CorrectCommission	2.591980	2.113921	0	1
429.126434	0.792308	mountain	9	1	0.367036	0.367036	0	0	1	0	CommissionError	3.479830	1.951026	0	1
429.918671	0.792183	city	2	1	0.695342	0.695342	0	1	0	0	CorrectCommission	0.134994	1.781687	0	1
430.710907	0.792265	city	5	1	0.596742	0.596742	0	1	0	0	CorrectCommission	0.950643	1.613410	0	1
431.503174	0.792286	city	6	1	0.702585	0.702585	0	1	0	0	CorrectCommission	0.214738	1.452284	0	1
432.295502	0.792352	city	1	1	0.596222	0.596222	0	1	0	0	CorrectCommission	0.956374	1.302725	0	1
433.087738	0.792157	city	3	1	0.596142	0.596142	0	1	0	0	CorrectCommission	0.957256	1.167342	0	1
433.879974	0.792306	city	7	1	0.744764	0.744764	0	1	0	0	CorrectCommission	0.679152	1.047149	0	1
434.672241	0.792228	city	10	1	0.549140	0.549140	0	1	0	0	CorrectCommission	1.474775	0.941915	0	1
435.464478	0.792263	city	8	1	0.549189	0.549189	0	1	0	0	CorrectCommission	1.474232	0.850580	0	1
436.256744	0.792265	city	7	1	0.645803	0.645803	0	1	0	0	CorrectCommission	0.410463	0.771701	0	1
437.049011	0.792264	city	4	1	0.695329	0.695329	0	1	0	0	CorrectCommission	0.134840	0.703799	0	1
437.841278	0.792261	mountain	6	0	0.000000	0.746067	1	0	0	0	CorrectOmission	0.693495	0.645506	1	1
438.633545	0.792269	city	7	1	0.748572	0.748572	0	1	0	0	CorrectCommission	0.721079	0.595658	1	1
439.425873	0.792370	city	8	1	0.653398	0.653398	0	1	0	0	CorrectCommission	0.326833	0.553314	1	1
440.218231	0.792375	city	4	1	0.695650	0.695650	0	1	0	0	CorrectCommission	0.138382	0.517722	1	1
441.010498	0.792156	city	7	1	0.695395	0.695395	0	1	0	0	CorrectCommission	0.135574	0.488185	1	1
441.802643	0.792155	city	10	1	0.695361	0.695361	0	1	0	0	CorrectCommission	0.135199	0.464103	1	1
442.594879	0.792266	city	9	1	0.763235	0.763235	0	1	0	0	CorrectCommission	0.882529	0.444958	1	1
443.387238	0.792481	city	3	1	0.745455	0.745455	0	1	0	0	CorrectCommission	0.686761	0.430356	1	1
444.179535	0.792094	city	2	1	0.753664	0.753664	0	1	0	0	CorrectCommission	0.777144	0.420119	1	1
444.971680	0.792218	city	3	1	0.695302	0.695302	0	1	0	0	CorrectCommission	0.134544	0.414301	1	1
445.763977	0.792375	city	2	1	0.695310	0.695310	0	1	0	0	CorrectCommission	0.134641	0.413213	1	1
446.556244	0.792159	city	9	1	0.645676	0.645676	0	1	0	0	CorrectCommission	0.411862	0.417307	1	1
447.348450	0.792253	city	5	1	0.645750	0.645750	0	1	0	0	CorrectCommission	0.411049	0.427170	1	1
448.140717	0.792275	city	4	1	0.695261	0.695261	0	1	0	0	CorrectCommission	0.134099	0.443295	1	1
448.933105	0.792481	city	1	1	0.661645	0.661645	0	1	0	0	CorrectCommission	0.236030	0.466015	1	1
449.725403	0.792156	city	5	1	0.648002	0.648002	0	1	0	0	CorrectCommission	0.386252	0.495316	1	1
450.517578	0.792157	city	8	1	0.645635	0.645635	0	1	0	0	CorrectCommission	0.412309	0.530748	1	1
451.309875	0.792483	city	5	1	0.649757	0.649757	0	1	0	0	CorrectCommission	0.366928	0.571441	1	1
452.102142	0.792050	city	4	1	0.607815	0.607815	0	1	0	0	CorrectCommission	0.828723	0.616123	1	1
452.894348	0.792370	city	6	1	0.645763	0.645763	0	1	0	0	CorrectCommission	0.410902	0.663149	1	1
453.686646	0.792203	mountain	9	1	0.596108	0.596108	0	0	1	0	CommissionError	0.957633	0.710739	0	1
454.478851	0.792220	city	5	1	0.614645	0.614645	0	1	0	0	CorrectCommission	0.753527	0.757062	0	1
455.271149	0.792373	city	7	1	0.596249	0.596249	0	1	0	0	CorrectCommission	0.956073	0.800449	0	1
456.063538	0.792372	city	5	1	0.695181	0.695181	0	1	0	0	CorrectCommission	0.133212	0.839551	0	1
456.855835	0.792267	city	6	1	0.799289	0.799289	0	1	0	0	CorrectCommission	1.279494	0.873500	0	1
457.648102	0.792264	mountain	4	0	0.000000	0.863551	1	0	0	0	CorrectOmission	1.987056	0.901925	0	1
458.440308	0.792154	city	5	1	0.843629	0.843629	0	1	0	0	CorrectCommission	1.767704	0.924958	0	1
459.232574	0.792375	city	8	1	0.695184	0.695184	0	1	0	0	CorrectCommission	0.133246	0.943135	0	1
460.024811	0.792051	city	9	1	0.605956	0.605956	0	1	0	0	CorrectCommission	0.849200	0.957208	0	1
460.816956	0.792265	city	1	1	0.606629	0.606629	0	1	0	0	CorrectCommission	0.841786	0.967869	0	1
461.609222	0.792260	city	8	1	0.612448	0.612448	0	1	0	0	CorrectCommission	0.777717	0.975596	0	1
462.401489	0.792272	city	3	1	0.596515	0.596515	0	1	0	0	CorrectCommission	0.953147	0.980457	0	1
463.193756	0.792261	city	1	1	0.706661	0.706661	0	1	0	0	CorrectCommission	0.259614	0.982094	0	1
463.986053	0.792371	mountain	10	0	0.000000	0.824244	1	0	0	0	CorrectOmission	1.554264	0.979774	0	1
464.778442	0.792374	city	9	1	0.843713	0.843713	0	1	0	0	CorrectCommission	1.768628	0.972537	0	1
465.570770	0.792266	city	1	1	0.659516	0.659516	0	1	0	0	CorrectCommission	0.259469	0.959498	0	1
466.362946	0.792109	mountain	4	0	0.000000	0.785162	1	0	0	0	CorrectOmission	1.123948	0.940113	0	1
467.155090	0.792205	city	7	1	0.893427	0.893427	0	1	0	0	CorrectCommission	2.316009	0.914318	0	1
467.947357	0.792322	city	3	1	0.657092	0.657092	0	1	0	0	CorrectCommission	0.286159	0.882679	0	1
468.739746	0.792423	city	8	1	0.546871	0.546871	0	1	0	0	CorrectCommission	1.499758	0.846466	0	1
469.532013	0.792120	city	2	1	0.609820	0.609820	0	1	0	0	CorrectCommission	0.806647	0.807376	0	1
470.324219	0.792299	city	7	1	0.645673	0.645673	0	1	0	0	CorrectCommission	0.411894	0.767465	0	1
471.116455	0.792156	city	2	1	0.713751	0.713751	0	1	0	0	CorrectCommission	0.337676	0.728764	0	1
471.908661	0.792266	city	9	1	0.697780	0.697780	0	1	0	0	CorrectCommission	0.161833	0.693070	0	1
472.700928	0.792292	city	6	1	0.766019	0.766019	0	1	0	0	CorrectCommission	0.913175	0.661741	1	1
473.493195	0.792236	city	2	1	0.645880	0.645880	0	1	0	0	CorrectCommission	0.409619	0.635575	1	1
474.285461	0.792299	city	3	1	0.649694	0.649694	0	1	0	0	CorrectCommission	0.367619	0.614912	1	1
475.077850	0.792448	city	5	1	0.695658	0.695658	0	1	0	0	CorrectCommission	0.138463	0.599699	1	1
475.870087	0.792048	city	8	1	0.745113	0.745113	0	1	0	0	CorrectCommission	0.682996	0.589753	1	1
476.662292	0.792345	city	2	1	0.843841	0.843841	0	1	0	0	CorrectCommission	1.770038	0.584976	1	1
477.454620	0.792293	city	6	1	0.695230	0.695230	0	1	0	0	CorrectCommission	0.133753	0.585528	1	1
478.246826	0.792155	city	5	1	0.596144	0.596144	0	1	0	0	CorrectCommission	0.957227	0.592005	1	1
479.039032	0.792269	city	8	1	0.695420	0.695420	0	1	0	0	CorrectCommission	0.135850	0.605347	1	1
479.831360	0.792371	city	2	1	0.655930	0.655930	0	1	0	0	CorrectCommission	0.298956	0.626812	1	1
480.623627	0.792159	city	10	1	0.645679	0.645679	0	1	0	0	CorrectCommission	0.411830	0.657738	1	1
481.415894	0.792370	city	2	1	0.645995	0.645995	0	1	0	0	CorrectCommission	0.408345	0.699337	0	1
482.208160	0.792156	city	1	1	0.613233	0.613233	0	1	0	0	CorrectCommission	0.769072	0.752423	0	1
483.000366	0.792265	city	6	1	0.652881	0.652881	0	1	0	0	CorrectCommission	0.332528	0.817285	0	1
483.792664	0.792309	city	5	1	0.749559	0.749559	0	1	0	0	CorrectCommission	0.731947	0.893533	0	1
484.584930	0.792219	city	6	1	0.695259	0.695259	0	1	0	0	CorrectCommission	0.134073	0.980000	0	1
485.377167	0.792268	city	2	1	0.859823	0.859823	0	1	0	0	CorrectCommission	1.946013	1.074876	0	1
486.169525	0.792479	city	8	1	0.747657	0.747657	0	1	0	0	CorrectCommission	0.711002	1.175679	0	1
486.961792	0.792051	city	3	1	0.566868	0.566868	0	1	0	0	CorrectCommission	1.279578	1.279578	0	1
