onset	duration	trial_type	image_type	Press	ReactionTime	ReactionTime_Interpolated	CorrectOmission	CorrectCommission	CommissionError	OmissionError	response_type	nonsmoothVarianceTimeCourse	VarianceTimeCourse	In_the_Zone	Reward_trial
8.433977	0.792157	city	4	1	0.744545	0.744545	0	1	0	0	CorrectCommission	0.648151	0.648151	1	1
9.226133	0.792154	city	3	1	0.451823	0.451823	0	1	0	0	CorrectCommission	1.613901	0.713162	1	1
10.018345	0.792270	city	6	1	0.546852	0.546852	0	1	0	0	CorrectCommission	0.879553	0.776483	0	1
10.810614	0.792267	city	7	1	0.504086	0.504086	0	1	0	0	CorrectCommission	1.210032	0.836482	0	1
11.602875	0.792256	city	10	1	0.457229	0.457229	0	1	0	0	CorrectCommission	1.572128	0.891592	0	1
12.395149	0.792291	city	6	1	0.714573	0.714573	0	1	0	0	CorrectCommission	0.416539	0.940316	0	1
13.187523	0.792456	city	9	1	0.596436	0.596436	0	1	0	0	CorrectCommission	0.496384	0.981311	0	1
13.979783	0.792064	city	4	1	0.596224	0.596224	0	1	0	0	CorrectCommission	0.498020	1.013332	0	1
14.771940	0.792250	city	1	1	0.447729	0.447729	0	1	0	0	CorrectCommission	1.645541	1.035363	0	1
15.564199	0.792267	city	2	1	0.497179	0.497179	0	1	0	0	CorrectCommission	1.263407	1.046733	0	1
16.356491	0.792316	city	1	1	0.398141	0.398141	0	1	0	0	CorrectCommission	2.028738	1.047265	0	1
17.148773	0.792250	city	6	1	0.497518	0.497518	0	1	0	0	CorrectCommission	1.260788	1.037343	0	1
17.941034	0.792272	city	2	1	0.497182	0.497182	0	1	0	0	CorrectCommission	1.263381	1.018039	0	1
18.733280	0.792216	city	8	1	0.447959	0.447959	0	1	0	0	CorrectCommission	1.643760	0.990983	0	1
19.525574	0.792374	city	1	1	0.596247	0.596247	0	1	0	0	CorrectCommission	0.497843	0.958244	0	1
20.317839	0.792155	city	2	1	0.615109	0.615109	0	1	0	0	CorrectCommission	0.352082	0.922126	0	1
21.110104	0.792374	city	7	1	0.745050	0.745050	0	1	0	0	CorrectCommission	0.652053	0.884836	0	1
21.902369	0.792158	city	5	1	0.546603	0.546603	0	1	0	0	CorrectCommission	0.881474	0.848250	0	1
22.694580	0.792266	city	10	1	0.497352	0.497352	0	1	0	0	CorrectCommission	1.262068	0.813720	0	1
23.486900	0.792371	city	6	1	0.645949	0.645949	0	1	0	0	CorrectCommission	0.113761	0.781980	0	1
24.279161	0.792153	city	7	1	0.596277	0.596277	0	1	0	0	CorrectCommission	0.497608	0.753173	0	1
25.071375	0.792271	mountain	10	1	0.555824	0.555824	0	0	1	0	CommissionError	0.810217	0.726935	1	1
25.863647	0.792277	city	6	1	0.563337	0.563337	0	1	0	0	CorrectCommission	0.752162	0.702612	1	1
26.655966	0.792357	city	9	1	0.567009	0.567009	0	1	0	0	CorrectCommission	0.723785	0.679533	1	1
27.448221	0.792156	city	4	1	0.695132	0.695132	0	1	0	0	CorrectCommission	0.266306	0.657300	1	1
28.240431	0.792265	city	10	1	0.412552	0.412552	0	1	0	0	CorrectCommission	1.917371	0.635982	1	1
29.032698	0.792268	city	5	1	0.596295	0.596295	0	1	0	0	CorrectCommission	0.497474	0.616169	1	1
29.825071	0.792478	city	6	1	0.707057	0.707057	0	1	0	0	CorrectCommission	0.358460	0.599067	1	1
30.617388	0.792157	city	5	1	0.546516	0.546516	0	1	0	0	CorrectCommission	0.882142	0.586269	1	1
31.409544	0.792154	city	7	1	0.695160	0.695160	0	1	0	0	CorrectCommission	0.266523	0.579501	1	1
32.201809	0.792376	city	6	1	0.646221	0.646221	0	1	0	0	CorrectCommission	0.111662	0.580315	1	1
32.994072	0.792153	city	1	1	0.647234	0.647234	0	1	0	0	CorrectCommission	0.103833	0.589771	1	1
33.786282	0.792266	mountain	7	0	0.000000	0.679184	1	0	0	0	CorrectOmission	0.143066	0.608143	1	1
34.578564	0.792293	city	7	1	0.657402	0.657402	0	1	0	0	CorrectCommission	0.025254	0.634826	1	1
35.370934	0.792454	city	6	1	0.497221	0.497221	0	1	0	0	CorrectCommission	1.263082	0.668306	1	1
36.163189	0.792049	city	9	1	0.596011	0.596011	0	1	0	0	CorrectCommission	0.499662	0.706287	1	1
36.955353	0.792281	city	8	1	0.553400	0.553400	0	1	0	0	CorrectCommission	0.828952	0.746028	0	1
37.747616	0.792246	city	5	1	0.695524	0.695524	0	1	0	0	CorrectCommission	0.269337	0.784595	0	1
38.539925	0.792373	mountain	3	0	0.000000	0.881754	1	0	0	0	CorrectOmission	1.708460	0.819252	0	1
39.332298	0.792375	city	7	1	0.893200	0.893200	0	1	0	0	CorrectCommission	1.796905	0.847680	0	1
40.124508	0.792046	city	5	1	0.510969	0.510969	0	1	0	0	CorrectCommission	1.156840	0.868249	0	1
40.916664	0.792267	city	8	1	0.696017	0.696017	0	1	0	0	CorrectCommission	0.273145	0.880129	0	1
41.708950	0.792302	city	3	1	0.596369	0.596369	0	1	0	0	CorrectCommission	0.496902	0.883254	0	1
42.501213	0.792226	city	10	1	0.497173	0.497173	0	1	0	0	CorrectCommission	1.263451	0.878195	0	1
43.293472	0.792292	city	5	1	0.447703	0.447703	0	1	0	0	CorrectCommission	1.645739	0.866034	0	1
44.085758	0.792276	city	3	1	0.502319	0.502319	0	1	0	0	CorrectCommission	1.223686	0.848181	0	1
44.878010	0.792227	city	5	1	0.646368	0.646368	0	1	0	0	CorrectCommission	0.110524	0.826169	0	1
45.670254	0.792261	city	4	1	0.744854	0.744854	0	1	0	0	CorrectCommission	0.650540	0.801472	0	1
46.462574	0.792376	city	9	1	0.746863	0.746863	0	1	0	0	CorrectCommission	0.666067	0.775374	0	1
47.254837	0.792155	city	10	1	0.744898	0.744898	0	1	0	0	CorrectCommission	0.650881	0.748939	0	1
48.047104	0.792375	city	4	1	0.794293	0.794293	0	1	0	0	CorrectCommission	1.032588	0.722994	1	1
48.839390	0.792195	city	8	1	0.607533	0.607533	0	1	0	0	CorrectCommission	0.410628	0.698152	1	1
49.631653	0.792333	city	9	1	0.794521	0.794521	0	1	0	0	CorrectCommission	1.034349	0.674921	1	1
50.423897	0.792159	mountain	10	1	0.695168	0.695168	0	0	1	0	CommissionError	0.266586	0.653750	1	1
51.216217	0.792479	city	10	1	0.546895	0.546895	0	1	0	0	CorrectCommission	0.879219	0.635139	1	1
52.008484	0.792050	city	3	1	0.744597	0.744597	0	1	0	0	CorrectCommission	0.648558	0.619605	1	1
52.800640	0.792263	city	7	1	0.603454	0.603454	0	1	0	0	CorrectCommission	0.442147	0.607683	1	1
53.593010	0.792479	city	1	1	0.546772	0.546772	0	1	0	0	CorrectCommission	0.880165	0.599910	1	1
54.385292	0.792087	city	10	1	0.706748	0.706748	0	1	0	0	CorrectCommission	0.356073	0.596611	1	1
55.177448	0.792226	city	5	1	0.695157	0.695157	0	1	0	0	CorrectCommission	0.266500	0.597908	1	1
55.969696	0.792266	city	10	1	0.695424	0.695424	0	1	0	0	CorrectCommission	0.268565	0.603552	1	1
56.761963	0.792265	city	8	1	0.611367	0.611367	0	1	0	0	CorrectCommission	0.381003	0.612932	1	1
57.554226	0.792266	mountain	2	0	0.000000	0.677255	1	0	0	0	CorrectOmission	0.128159	0.625112	1	1
58.346493	0.792262	city	10	1	0.801709	0.801709	0	1	0	0	CorrectCommission	1.089900	0.638931	1	1
59.138756	0.792264	city	6	1	0.893351	0.893351	0	1	0	0	CorrectCommission	1.798073	0.653092	1	1
59.931019	0.792267	city	8	1	0.713036	0.713036	0	1	0	0	CorrectCommission	0.404666	0.666326	1	1
60.723286	0.792266	city	7	1	0.596208	0.596208	0	1	0	0	CorrectCommission	0.498144	0.677578	1	1
61.515659	0.792479	city	1	1	0.646484	0.646484	0	1	0	0	CorrectCommission	0.109627	0.686032	1	1
62.308029	0.792265	city	6	1	0.744755	0.744755	0	1	0	0	CorrectCommission	0.649776	0.691265	1	1
63.100220	0.792109	city	2	1	0.899471	0.899471	0	1	0	0	CorrectCommission	1.845369	0.693171	1	1
63.892372	0.792202	city	9	1	0.752498	0.752498	0	1	0	0	CorrectCommission	0.709614	0.691969	1	1
64.684608	0.792263	city	6	1	0.610291	0.610291	0	1	0	0	CorrectCommission	0.389316	0.688202	1	1
65.476883	0.792285	city	4	1	0.744910	0.744910	0	1	0	0	CorrectCommission	0.650972	0.682590	1	1
66.269150	0.792246	city	7	1	0.558331	0.558331	0	1	0	0	CorrectCommission	0.790847	0.675977	1	1
67.061401	0.792263	city	6	1	0.645791	0.645791	0	1	0	0	CorrectCommission	0.114981	0.669216	1	1
67.853775	0.792485	city	8	1	0.645764	0.645764	0	1	0	0	CorrectCommission	0.115194	0.663123	1	0
68.646049	0.792060	city	1	1	0.960979	0.960979	0	1	0	0	CorrectCommission	2.320682	0.658427	1	0
69.438255	0.792358	city	10	1	0.662813	0.662813	0	1	0	0	CorrectCommission	0.016554	0.655655	1	0
70.230553	0.792235	city	7	1	0.746655	0.746655	0	1	0	0	CorrectCommission	0.664458	0.655292	1	0
71.022873	0.792406	city	10	1	0.646830	0.646830	0	1	0	0	CorrectCommission	0.106955	0.657600	1	0
71.815208	0.792265	city	8	1	0.607594	0.607594	0	1	0	0	CorrectCommission	0.410158	0.662745	1	0
72.607361	0.792045	city	3	1	0.555944	0.555944	0	1	0	0	CorrectCommission	0.809290	0.670775	1	0
73.399521	0.792264	city	4	1	0.550453	0.550453	0	1	0	0	CorrectCommission	0.851721	0.681623	1	0
74.191780	0.792266	city	1	1	0.547051	0.547051	0	1	0	0	CorrectCommission	0.878014	0.695133	1	0
74.984047	0.792265	city	3	1	0.744788	0.744788	0	1	0	0	CorrectCommission	0.650032	0.711072	1	0
75.776321	0.792284	mountain	9	0	0.000000	0.738330	1	0	0	0	CorrectOmission	0.600129	0.729058	1	0
76.568588	0.792249	city	3	1	0.614342	0.614342	0	1	0	0	CorrectCommission	0.358007	0.748533	0	0
77.360954	0.792478	mountain	3	1	0.459489	0.459489	0	0	1	0	CommissionError	1.554664	0.768735	0	0
78.153214	0.792047	city	3	1	0.596663	0.596663	0	1	0	0	CorrectCommission	0.494625	0.788626	0	0
78.945374	0.792264	city	4	1	0.596287	0.596287	0	1	0	0	CorrectCommission	0.497531	0.806959	0	0
79.737694	0.792375	city	9	1	0.699202	0.699202	0	1	0	0	CorrectCommission	0.297762	0.822295	0	0
80.529961	0.792173	city	6	1	0.561663	0.561663	0	1	0	0	CorrectCommission	0.765094	0.833131	0	0
81.322281	0.792465	mountain	3	1	0.447697	0.447697	0	0	1	0	CommissionError	1.645786	0.838103	0	0
82.114540	0.792051	city	5	1	0.843619	0.843619	0	1	0	0	CorrectCommission	1.413767	0.836202	0	0
82.906754	0.792371	city	6	1	0.646265	0.646265	0	1	0	0	CorrectCommission	0.111318	0.826995	0	0
83.699066	0.792265	city	5	1	0.348546	0.348546	0	1	0	0	CorrectCommission	2.411992	0.810729	0	0
84.491280	0.792159	city	10	1	0.561072	0.561072	0	1	0	0	CorrectCommission	0.769664	0.788299	0	0
85.283493	0.792261	city	5	1	0.794573	0.794573	0	1	0	0	CorrectCommission	1.034753	0.761292	0	0
86.075752	0.792264	city	2	1	0.648474	0.648474	0	1	0	0	CorrectCommission	0.094247	0.731632	0	0
86.868027	0.792284	city	8	1	0.645740	0.645740	0	1	0	0	CorrectCommission	0.115376	0.701459	1	0
87.660316	0.792298	city	2	1	0.558871	0.558871	0	1	0	0	CorrectCommission	0.786673	0.672762	1	0
88.452591	0.792238	city	8	1	0.645697	0.645697	0	1	0	0	CorrectCommission	0.115711	0.647198	1	0
89.244827	0.792240	city	10	1	0.695228	0.695228	0	1	0	0	CorrectCommission	0.267049	0.625984	1	0
90.037079	0.792269	city	7	1	0.843815	0.843815	0	1	0	0	CorrectCommission	1.415278	0.609760	1	0
90.829369	0.792310	city	1	1	0.596168	0.596168	0	1	0	0	CorrectCommission	0.498449	0.598668	1	0
91.621742	0.792431	mountain	9	0	0.000000	0.570004	1	0	0	0	CorrectOmission	0.700641	0.592484	1	0
92.413979	0.792051	city	3	1	0.657172	0.657172	0	1	0	0	CorrectCommission	0.027037	0.590698	1	0
93.206245	0.792480	city	6	1	0.749523	0.749523	0	1	0	0	CorrectCommission	0.686622	0.592664	1	0
93.998512	0.792044	city	10	1	0.701863	0.701863	0	1	0	0	CorrectCommission	0.318321	0.597698	1	0
94.790665	0.792267	city	6	1	0.796734	0.796734	0	1	0	0	CorrectCommission	1.051453	0.605171	1	0
95.582932	0.792266	city	5	1	0.744862	0.744862	0	1	0	0	CorrectCommission	0.650602	0.614554	1	0
96.375305	0.792481	city	4	1	0.646265	0.646265	0	1	0	0	CorrectCommission	0.111323	0.625488	1	0
97.167572	0.792049	city	5	1	0.596022	0.596022	0	1	0	0	CorrectCommission	0.499577	0.637779	1	0
97.959724	0.792267	city	7	1	0.843790	0.843790	0	1	0	0	CorrectCommission	1.415086	0.651315	1	0
98.752029	0.792342	mountain	7	0	0.000000	0.728849	1	0	0	0	CorrectOmission	0.526859	0.666032	1	0
99.544334	0.792255	city	2	1	0.547534	0.547534	0	1	0	0	CorrectCommission	0.874281	0.681918	1	0
100.336555	0.792196	city	10	1	0.596180	0.596180	0	1	0	0	CorrectCommission	0.498359	0.698915	1	0
101.128830	0.792346	city	1	1	0.602849	0.602849	0	1	0	0	CorrectCommission	0.446826	0.716870	1	0
101.921089	0.792183	mountain	7	0	0.000000	0.632049	1	0	0	0	CorrectOmission	0.221179	0.735587	0	0
102.713379	0.792397	city	7	1	0.695554	0.695554	0	1	0	0	CorrectCommission	0.269570	0.754828	0	0
103.505699	0.792237	city	2	1	0.805140	0.805140	0	1	0	0	CorrectCommission	1.116414	0.774442	0	0
104.297951	0.792265	city	9	1	0.943200	0.943200	0	1	0	0	CorrectCommission	2.183293	0.794498	0	0
105.090164	0.792160	city	6	1	0.596099	0.596099	0	1	0	0	CorrectCommission	0.498989	0.815357	0	0
105.882378	0.792263	city	5	1	0.546719	0.546719	0	1	0	0	CorrectCommission	0.880578	0.837826	0	0
106.674690	0.792372	city	1	1	0.744778	0.744778	0	1	0	0	CorrectCommission	0.649951	0.863017	0	0
107.466957	0.792154	city	4	1	0.794182	0.794182	0	1	0	0	CorrectCommission	1.031729	0.892247	0	0
108.259277	0.792484	city	8	1	0.699703	0.699703	0	1	0	0	CorrectCommission	0.301633	0.926799	0	0
109.051651	0.792264	city	1	1	0.560242	0.560242	0	1	0	0	CorrectCommission	0.776073	0.967651	0	0
109.843803	0.792047	city	5	1	0.546864	0.546864	0	1	0	0	CorrectCommission	0.879459	1.015149	0	0
110.636070	0.792483	city	9	1	0.707057	0.707057	0	1	0	0	CorrectCommission	0.358456	1.068766	0	0
111.428337	0.792045	city	10	1	0.497056	0.497056	0	1	0	0	CorrectCommission	1.264359	1.126959	0	0
112.220490	0.792274	city	1	1	0.348939	0.348939	0	1	0	0	CorrectCommission	2.408951	1.187042	0	0
113.012764	0.792263	city	2	1	0.548135	0.548135	0	1	0	0	CorrectCommission	0.869636	1.245325	0	0
113.805023	0.792260	city	6	1	0.645796	0.645796	0	1	0	0	CorrectCommission	0.114943	1.297420	0	0
114.597336	0.792372	mountain	6	1	0.746057	0.746057	0	0	1	0	CommissionError	0.659837	1.338589	0	0
115.389603	0.792156	city	8	1	0.843932	0.843932	0	1	0	0	CorrectCommission	1.416181	1.364251	0	0
116.181923	0.792482	city	7	1	1.042364	1.042364	0	1	0	0	CorrectCommission	2.949597	1.370632	0	0
116.974190	0.792047	city	5	1	1.140836	1.140836	0	1	0	0	CorrectCommission	3.710554	1.355290	0	0
117.766342	0.792263	city	7	0	0.000000	0.967488	0	0	0	1	OmissionError	2.370983	1.317553	0	0
118.558662	0.792372	city	5	1	0.794303	0.794303	0	1	0	0	CorrectCommission	1.032666	1.258731	0	0
119.350929	0.792159	city	9	1	0.893262	0.893262	0	1	0	0	CorrectCommission	1.797385	1.181970	0	0
120.143181	0.792347	city	6	1	0.596426	0.596426	0	1	0	0	CorrectCommission	0.496456	1.091858	0	0
120.935440	0.792180	city	1	1	0.596141	0.596141	0	1	0	0	CorrectCommission	0.498660	0.993949	0	0
121.727722	0.792373	city	4	1	0.695259	0.695259	0	1	0	0	CorrectCommission	0.267287	0.894040	0	0
122.520035	0.792265	city	1	1	0.556000	0.556000	0	1	0	0	CorrectCommission	0.808855	0.797655	0	0
123.312355	0.792374	city	10	1	0.596113	0.596113	0	1	0	0	CorrectCommission	0.498877	0.709473	1	0
124.104568	0.792051	city	8	1	0.614197	0.614197	0	1	0	0	CorrectCommission	0.359129	0.633075	1	0
124.896729	0.792264	city	5	1	0.645786	0.645786	0	1	0	0	CorrectCommission	0.115021	0.570747	1	0
125.689041	0.792372	city	3	1	0.695964	0.695964	0	1	0	0	CorrectCommission	0.272735	0.523540	1	0
126.481308	0.792160	city	10	1	0.744844	0.744844	0	1	0	0	CorrectCommission	0.650463	0.491354	1	0
127.273560	0.792331	city	3	1	0.647403	0.647403	0	1	0	0	CorrectCommission	0.102529	0.473175	1	1
128.065933	0.792413	city	6	1	0.658416	0.658416	0	1	0	0	CorrectCommission	0.017425	0.467305	1	1
128.858215	0.792153	city	4	1	0.703065	0.703065	0	1	0	0	CorrectCommission	0.327608	0.471605	1	1
129.650375	0.792162	city	3	1	0.760726	0.760726	0	1	0	0	CorrectCommission	0.773197	0.483721	1	1
130.442627	0.792369	city	4	1	0.745228	0.745228	0	1	0	0	CorrectCommission	0.653431	0.501301	1	1
131.234924	0.792217	city	3	1	0.695222	0.695222	0	1	0	0	CorrectCommission	0.266999	0.522160	1	1
132.027161	0.792255	city	6	1	0.745142	0.745142	0	1	0	0	CorrectCommission	0.652768	0.544395	1	1
132.819412	0.792260	city	7	1	0.695213	0.695213	0	1	0	0	CorrectCommission	0.266934	0.566439	1	1
133.611710	0.792327	city	1	1	0.546750	0.546750	0	1	0	0	CorrectCommission	0.880335	0.587133	1	1
134.403961	0.792177	city	3	1	0.546635	0.546635	0	1	0	0	CorrectCommission	0.881224	0.605696	1	1
135.196289	0.792468	city	5	1	0.558941	0.558941	0	1	0	0	CorrectCommission	0.786132	0.621746	1	1
135.988541	0.792044	city	9	1	0.550035	0.550035	0	1	0	0	CorrectCommission	0.854955	0.635227	1	1
136.780746	0.792370	city	3	1	0.596146	0.596146	0	1	0	0	CorrectCommission	0.498619	0.646266	1	1
137.573120	0.792376	city	7	1	0.557959	0.557959	0	1	0	0	CorrectCommission	0.793716	0.655129	1	1
138.365326	0.792045	city	1	1	0.701979	0.701979	0	1	0	0	CorrectCommission	0.319221	0.662080	1	1
139.157486	0.792267	city	5	1	0.596227	0.596227	0	1	0	0	CorrectCommission	0.497995	0.667326	1	1
139.949753	0.792264	city	4	1	0.696082	0.696082	0	1	0	0	CorrectCommission	0.273646	0.671061	1	1
140.742126	0.792482	city	6	1	0.761821	0.761821	0	1	0	0	CorrectCommission	0.781654	0.673487	1	1
141.534393	0.792052	city	5	1	0.794066	0.794066	0	1	0	0	CorrectCommission	1.030836	0.674955	1	1
142.326569	0.792293	city	4	1	0.893394	0.893394	0	1	0	0	CorrectCommission	1.798411	0.676083	1	1
143.118851	0.792283	city	2	1	0.665327	0.665327	0	1	0	0	CorrectCommission	0.035985	0.677852	1	1
143.911163	0.792322	city	7	1	0.617269	0.617269	0	1	0	0	CorrectCommission	0.335392	0.681657	1	1
144.703415	0.792182	city	9	1	0.497290	0.497290	0	1	0	0	CorrectCommission	1.262546	0.689183	1	1
145.495621	0.792239	city	6	1	0.596221	0.596221	0	1	0	0	CorrectCommission	0.498046	0.702232	1	1
146.287888	0.792285	city	5	1	0.645912	0.645912	0	1	0	0	CorrectCommission	0.114050	0.722510	1	1
147.080154	0.792245	city	7	1	0.744738	0.744738	0	1	0	0	CorrectCommission	0.649642	0.751245	0	1
147.872406	0.792266	city	6	1	0.596268	0.596268	0	1	0	0	CorrectCommission	0.497679	0.788897	0	1
148.664719	0.792371	city	4	1	0.556246	0.556246	0	1	0	0	CorrectCommission	0.806952	0.834931	0	1
149.457001	0.792182	city	9	1	0.603840	0.603840	0	1	0	0	CorrectCommission	0.439165	0.887632	0	1
150.249207	0.792241	city	4	1	0.596251	0.596251	0	1	0	0	CorrectCommission	0.497810	0.944184	0	1
151.041565	0.792478	city	7	1	0.754714	0.754714	0	1	0	0	CorrectCommission	0.726739	1.000793	0	1
151.833832	0.792050	city	8	1	0.546659	0.546659	0	1	0	0	CorrectCommission	0.881042	1.053058	0	1
152.626099	0.792481	city	5	1	0.407881	0.407881	0	1	0	0	CorrectCommission	1.953472	1.096472	0	1
153.418411	0.792155	city	6	1	0.943782	0.943782	0	1	0	0	CorrectCommission	2.187788	1.126948	0	1
154.210602	0.792217	city	2	1	0.596437	0.596437	0	1	0	0	CorrectCommission	0.496376	1.141401	0	1
155.002808	0.792208	city	3	1	1.041805	1.041805	0	1	0	0	CorrectCommission	2.945275	1.138157	0	1
155.795059	0.792267	city	5	1	0.843848	0.843848	0	1	0	0	CorrectCommission	1.415530	1.117123	0	1
156.587372	0.792368	city	8	1	0.893296	0.893296	0	1	0	0	CorrectCommission	1.797651	1.079932	0	1
157.379639	0.792157	city	4	1	0.550406	0.550406	0	1	0	0	CorrectCommission	0.852084	1.029632	0	1
158.171844	0.792264	city	1	1	0.497159	0.497159	0	1	0	0	CorrectCommission	1.263563	0.970342	0	1
158.964111	0.792267	city	6	1	0.653447	0.653447	0	1	0	0	CorrectCommission	0.055818	0.906694	0	1
159.756424	0.792371	city	3	1	0.596218	0.596218	0	1	0	0	CorrectCommission	0.498068	0.843308	0	1
160.548691	0.792156	city	2	1	0.612256	0.612256	0	1	0	0	CorrectCommission	0.374133	0.784282	0	1
161.340912	0.792281	city	5	1	0.546860	0.546860	0	1	0	0	CorrectCommission	0.879485	0.732814	0	1
162.133179	0.792247	city	4	1	0.656357	0.656357	0	1	0	0	CorrectCommission	0.033330	0.690960	1	1
162.925430	0.792267	city	2	1	0.604180	0.604180	0	1	0	0	CorrectCommission	0.436536	0.659643	1	1
163.717728	0.792323	city	7	1	0.596222	0.596222	0	1	0	0	CorrectCommission	0.498032	0.638700	1	1
164.510040	0.792315	city	10	1	0.695179	0.695179	0	1	0	0	CorrectCommission	0.266668	0.627163	1	1
165.302277	0.792155	city	6	1	0.853908	0.853908	0	1	0	0	CorrectCommission	1.493277	0.623486	1	1
166.094604	0.792483	city	1	1	0.546735	0.546735	0	1	0	0	CorrectCommission	0.880456	0.625840	1	1
166.886917	0.792155	city	4	1	0.646726	0.646726	0	1	0	0	CorrectCommission	0.107758	0.632427	1	1
167.679077	0.792159	city	8	1	0.652321	0.652321	0	1	0	0	CorrectCommission	0.064523	0.641647	1	1
168.471283	0.792265	city	5	1	0.596248	0.596248	0	1	0	0	CorrectCommission	0.497837	0.652225	1	1
169.263657	0.792479	city	8	1	0.844077	0.844077	0	1	0	0	CorrectCommission	1.417303	0.663297	1	1
170.055923	0.792050	city	2	1	0.596310	0.596310	0	1	0	0	CorrectCommission	0.497353	0.674395	1	1
170.848114	0.792328	city	5	1	0.497177	0.497177	0	1	0	0	CorrectCommission	1.263418	0.685472	1	1
171.640381	0.792202	city	10	1	0.546807	0.546807	0	1	0	0	CorrectCommission	0.879896	0.696746	1	1
172.432617	0.792265	city	9	1	0.596734	0.596734	0	1	0	0	CorrectCommission	0.494077	0.708545	1	1
173.224976	0.792480	city	6	1	0.695886	0.695886	0	1	0	0	CorrectCommission	0.272131	0.721191	1	1
174.017242	0.792046	mountain	8	0	0.000000	0.734559	1	0	0	0	CorrectOmission	0.570983	0.734783	0	1
174.809418	0.792288	city	5	1	0.696598	0.696598	0	1	0	0	CorrectCommission	0.277633	0.749129	0	1
175.601669	0.792243	mountain	1	0	0.000000	0.565846	1	0	0	0	CorrectOmission	0.732767	0.763680	0	1
176.394043	0.792482	city	9	1	0.546719	0.546719	0	1	0	0	CorrectCommission	0.880579	0.777609	0	1
177.186356	0.792155	city	2	1	0.843628	0.843628	0	1	0	0	CorrectCommission	1.413832	0.789874	0	1
177.978561	0.792264	city	9	1	0.794180	0.794180	0	1	0	0	CorrectCommission	1.031718	0.799427	0	1
178.770889	0.792375	city	3	1	0.612883	0.612883	0	1	0	0	CorrectCommission	0.369287	0.805396	0	1
179.563095	0.792056	city	7	1	0.900922	0.900922	0	1	0	0	CorrectCommission	1.856580	0.807258	0	1
180.355255	0.792255	city	2	1	0.648257	0.648257	0	1	0	0	CorrectCommission	0.095927	0.804889	0	1
181.147522	0.792284	city	9	1	0.745416	0.745416	0	1	0	0	CorrectCommission	0.654886	0.798698	0	1
181.939789	0.792248	mountain	6	0	0.000000	0.786859	1	0	0	0	CorrectOmission	0.975145	0.789530	0	1
182.732101	0.792372	city	3	1	0.799084	0.799084	0	1	0	0	CorrectCommission	1.069612	0.778567	0	1
183.524368	0.792172	city	9	1	0.808587	0.808587	0	1	0	0	CorrectCommission	1.143050	0.767202	0	1
184.316589	0.792251	city	6	1	0.546926	0.546926	0	1	0	0	CorrectCommission	0.878976	0.756813	0	1
185.108948	0.792479	city	8	1	0.667426	0.667426	0	1	0	0	CorrectCommission	0.052202	0.748573	0	1
185.901276	0.792156	city	4	1	0.551754	0.551754	0	1	0	0	CorrectCommission	0.841666	0.743205	0	1
186.693436	0.792171	city	7	1	0.695259	0.695259	0	1	0	0	CorrectCommission	0.267291	0.740811	0	0
187.485748	0.792467	city	5	1	0.695293	0.695293	0	1	0	0	CorrectCommission	0.267552	0.740916	0	0
188.278015	0.792049	mountain	8	1	0.564838	0.564838	0	0	1	0	CommissionError	0.740560	0.742500	0	0
189.070221	0.792371	city	6	1	0.695612	0.695612	0	1	0	0	CorrectCommission	0.270014	0.744193	0	0
189.862503	0.792197	city	4	1	0.810188	0.810188	0	1	0	0	CorrectCommission	1.155422	0.744641	0	0
190.654709	0.792227	city	9	1	0.504083	0.504083	0	1	0	0	CorrectCommission	1.210050	0.742762	0	0
191.446976	0.792302	city	2	1	0.348835	0.348835	0	1	0	0	CorrectCommission	2.409757	0.738047	0	0
192.239304	0.792335	city	1	1	0.605822	0.605822	0	1	0	0	CorrectCommission	0.423852	0.730686	0	0
193.031540	0.792159	city	8	1	0.596393	0.596393	0	1	0	0	CorrectCommission	0.496715	0.721625	1	0
193.823868	0.792478	city	3	1	0.603209	0.603209	0	1	0	0	CorrectCommission	0.444042	0.712296	1	0
194.616135	0.792049	city	5	1	0.706502	0.706502	0	1	0	0	CorrectCommission	0.354168	0.704336	1	0
195.408279	0.792264	city	8	1	0.747269	0.747269	0	1	0	0	CorrectCommission	0.669200	0.699256	1	0
196.200607	0.792374	city	1	1	0.658175	0.658175	0	1	0	0	CorrectCommission	0.019282	0.698066	1	0
196.992874	0.792154	city	9	1	0.752461	0.752461	0	1	0	0	CorrectCommission	0.709324	0.701057	1	0
197.785080	0.792266	city	7	1	0.596214	0.596214	0	1	0	0	CorrectCommission	0.498096	0.707691	1	0
198.577347	0.792263	mountain	6	0	0.000000	0.556782	1	0	0	0	CorrectOmission	0.802817	0.716685	1	0
199.369614	0.792268	city	10	1	0.650778	0.650778	0	1	0	0	CorrectCommission	0.076443	0.726215	1	0
200.161880	0.792264	city	7	1	0.894820	0.894820	0	1	0	0	CorrectCommission	1.809424	0.734293	0	0
200.954254	0.792486	mountain	8	0	0.000000	0.760904	1	0	0	0	CorrectOmission	0.774570	0.739051	0	0
201.746506	0.792042	city	6	1	0.546641	0.546641	0	1	0	0	CorrectCommission	0.881182	0.739180	0	0
202.538696	0.792326	city	4	1	0.549639	0.549639	0	1	0	0	CorrectCommission	0.858012	0.734115	0	0
203.330978	0.792236	city	3	1	0.447621	0.447621	0	1	0	0	CorrectCommission	1.646371	0.724128	1	0
204.123215	0.792232	city	6	1	0.695454	0.695454	0	1	0	0	CorrectCommission	0.268796	0.710278	1	0
204.915466	0.792267	city	1	1	0.801045	0.801045	0	1	0	0	CorrectCommission	1.084767	0.694224	1	0
205.707733	0.792264	city	10	1	0.752097	0.752097	0	1	0	0	CorrectCommission	0.706516	0.677812	1	0
206.499985	0.792266	city	3	1	0.645708	0.645708	0	1	0	0	CorrectCommission	0.115626	0.662785	1	0
207.292267	0.792286	city	7	1	0.645912	0.645912	0	1	0	0	CorrectCommission	0.114050	0.650390	1	0
208.084534	0.792241	city	4	1	0.655073	0.655073	0	1	0	0	CorrectCommission	0.043252	0.641159	1	0
208.876892	0.792482	city	7	1	0.596270	0.596270	0	1	0	0	CorrectCommission	0.497664	0.634815	1	0
209.669159	0.792048	city	10	1	0.695147	0.695147	0	1	0	0	CorrectCommission	0.266424	0.630399	1	0
210.461319	0.792267	city	8	1	0.843971	0.843971	0	1	0	0	CorrectCommission	1.416483	0.626499	1	0
211.253571	0.792261	city	4	1	0.596614	0.596614	0	1	0	0	CorrectCommission	0.495005	0.621537	1	0
212.045837	0.792269	city	10	1	0.447686	0.447686	0	1	0	0	CorrectCommission	1.645867	0.614176	1	0
212.838104	0.792260	city	4	1	0.514241	0.514241	0	1	0	0	CorrectCommission	1.131558	0.603499	1	0
213.630402	0.792318	city	7	1	0.596438	0.596438	0	1	0	0	CorrectCommission	0.496362	0.589226	1	0
214.422775	0.792429	city	3	1	0.662225	0.662225	0	1	0	0	CorrectCommission	0.012016	0.571656	1	0
215.215118	0.792265	city	6	1	0.745026	0.745026	0	1	0	0	CorrectCommission	0.651874	0.551604	1	0
216.007278	0.792046	city	2	1	0.596605	0.596605	0	1	0	0	CorrectCommission	0.495073	0.530133	1	0
216.799545	0.792483	city	4	1	0.695304	0.695304	0	1	0	0	CorrectCommission	0.267639	0.508447	1	0
217.591919	0.792265	city	10	1	0.645586	0.645586	0	1	0	0	CorrectCommission	0.116567	0.487673	1	0
218.384125	0.792157	city	8	1	0.695021	0.695021	0	1	0	0	CorrectCommission	0.265448	0.468794	1	0
219.176392	0.792373	city	5	1	0.556624	0.556624	0	1	0	0	CorrectCommission	0.804036	0.452631	1	0
219.968704	0.792264	city	8	1	0.596007	0.596007	0	1	0	0	CorrectCommission	0.499700	0.439894	1	0
220.760864	0.792049	city	5	1	0.744588	0.744588	0	1	0	0	CorrectCommission	0.648484	0.431239	1	0
221.553024	0.792283	city	8	1	0.744785	0.744785	0	1	0	0	CorrectCommission	0.650009	0.427324	1	0
222.345306	0.792267	city	10	1	0.646074	0.646074	0	1	0	0	CorrectCommission	0.112796	0.428755	1	0
223.137558	0.792244	city	4	1	0.695953	0.695953	0	1	0	0	CorrectCommission	0.272655	0.436062	1	0
223.929840	0.792318	city	2	1	0.610558	0.610558	0	1	0	0	CorrectCommission	0.387254	0.449533	1	0
224.722153	0.792321	city	4	1	0.646636	0.646636	0	1	0	0	CorrectCommission	0.108453	0.469077	1	0
225.514450	0.792265	mountain	2	0	0.000000	0.661595	1	0	0	0	CorrectOmission	0.007146	0.494118	1	0
226.306656	0.792158	city	2	1	0.647471	0.647471	0	1	0	0	CorrectCommission	0.102001	0.523545	1	0
227.098877	0.792271	city	6	1	0.596299	0.596299	0	1	0	0	CorrectCommission	0.497439	0.555756	1	0
227.891144	0.792258	city	10	1	0.501165	0.501165	0	1	0	0	CorrectCommission	1.232601	0.588772	1	0
228.683395	0.792263	city	7	1	0.794301	0.794301	0	1	0	0	CorrectCommission	1.032654	0.620492	1	0
229.475769	0.792483	mountain	1	0	0.000000	0.653039	1	0	0	0	CorrectOmission	0.058973	0.648918	1	0
230.268036	0.792047	city	8	1	0.459614	0.459614	0	1	0	0	CorrectCommission	1.553696	0.672416	1	0
231.060196	0.792267	city	2	1	0.596262	0.596262	0	1	0	0	CorrectCommission	0.497724	0.689873	1	0
231.852570	0.792480	city	1	1	0.551620	0.551620	0	1	0	0	CorrectCommission	0.842706	0.700877	1	0
232.644852	0.792095	city	10	1	0.844333	0.844333	0	1	0	0	CorrectCommission	1.419278	0.705682	1	0
233.437012	0.792216	city	7	1	0.596272	0.596272	0	1	0	0	CorrectCommission	0.497651	0.705138	1	0
234.229248	0.792266	city	6	1	0.603582	0.603582	0	1	0	0	CorrectCommission	0.441157	0.700577	1	0
235.021515	0.792265	city	7	1	0.554359	0.554359	0	1	0	0	CorrectCommission	0.821536	0.693583	1	0
235.813889	0.792479	city	4	1	0.744825	0.744825	0	1	0	0	CorrectCommission	0.650317	0.685751	1	0
236.606155	0.792050	mountain	4	0	0.000000	0.743606	1	0	0	0	CorrectOmission	0.640898	0.678513	1	0
237.398361	0.792371	city	6	1	0.645803	0.645803	0	1	0	0	CorrectCommission	0.114891	0.672936	1	0
238.190689	0.792265	mountain	9	1	0.546516	0.546516	0	0	1	0	CommissionError	0.882144	0.669664	1	0
238.982941	0.792231	city	3	1	0.553985	0.553985	0	1	0	0	CorrectCommission	0.824426	0.668826	1	0
239.775162	0.792226	mountain	1	1	0.596204	0.596204	0	0	1	0	CommissionError	0.498172	0.670159	1	0
240.567383	0.792230	city	9	1	0.645696	0.645696	0	1	0	0	CorrectCommission	0.115721	0.673082	1	0
241.359634	0.792263	city	10	1	0.546689	0.546689	0	1	0	0	CorrectCommission	0.880812	0.676857	1	0
242.151917	0.792296	city	7	1	0.762890	0.762890	0	1	0	0	CorrectCommission	0.789918	0.680742	1	0
242.944183	0.792237	city	3	1	0.547287	0.547287	0	1	0	0	CorrectCommission	0.876191	0.684170	1	0
243.736435	0.792268	city	4	1	0.497245	0.497245	0	1	0	0	CorrectCommission	1.262894	0.686849	1	0
244.528809	0.792477	city	1	1	0.546783	0.546783	0	1	0	0	CorrectCommission	0.880085	0.688778	1	0
245.321182	0.792264	city	4	1	0.646002	0.646002	0	1	0	0	CorrectCommission	0.113352	0.690258	1	0
246.113342	0.792075	city	6	1	0.806403	0.806403	0	1	0	0	CorrectCommission	1.126168	0.691828	1	1
246.905609	0.792453	city	8	1	0.662421	0.662421	0	1	0	0	CorrectCommission	0.013528	0.694129	1	1
247.697861	0.792049	city	7	1	0.794822	0.794822	0	1	0	0	CorrectCommission	1.036678	0.697821	1	1
248.490021	0.792268	city	4	1	0.695965	0.695965	0	1	0	0	CorrectCommission	0.272742	0.703500	1	1
249.282333	0.792369	city	1	1	0.657773	0.657773	0	1	0	0	CorrectCommission	0.022392	0.711732	1	1
250.074600	0.792156	city	2	1	0.516101	0.516101	0	1	0	0	CorrectCommission	1.117186	0.723024	1	1
250.866806	0.792266	city	10	1	0.553651	0.553651	0	1	0	0	CorrectCommission	0.827008	0.737914	0	1
251.659103	0.792328	city	7	1	0.893311	0.893311	0	1	0	0	CorrectCommission	1.797763	0.757022	0	1
252.451385	0.792234	city	5	1	0.601448	0.601448	0	1	0	0	CorrectCommission	0.457654	0.780973	0	1
253.243729	0.792450	city	2	1	0.548820	0.548820	0	1	0	0	CorrectCommission	0.864342	0.810351	0	1
254.036087	0.792263	city	6	1	0.695184	0.695184	0	1	0	0	CorrectCommission	0.266706	0.845441	0	1
254.828247	0.792046	city	1	1	0.596095	0.596095	0	1	0	0	CorrectCommission	0.499019	0.886076	0	1
255.620407	0.792270	city	3	1	0.614600	0.614600	0	1	0	0	CorrectCommission	0.356013	0.931396	0	1
256.412720	0.792370	city	1	1	0.745092	0.745092	0	1	0	0	CorrectCommission	0.652377	0.979746	0	1
257.204987	0.792163	city	9	1	0.511043	0.511043	0	1	0	0	CorrectCommission	1.156273	1.028679	0	1
257.997314	0.792475	city	2	1	0.500605	0.500605	0	1	0	0	CorrectCommission	1.236931	1.075173	0	1
258.789673	0.792265	city	9	1	0.911117	0.911117	0	1	0	0	CorrectCommission	1.935361	1.115921	0	1
259.581848	0.792046	city	4	1	0.553612	0.553612	0	1	0	0	CorrectCommission	0.827314	1.147737	0	1
260.374054	0.792372	city	8	1	0.546743	0.546743	0	1	0	0	CorrectCommission	0.880392	1.168077	0	1
261.166321	0.792158	city	1	1	0.398546	0.398546	0	1	0	0	CorrectCommission	2.025607	1.175346	0	1
261.958527	0.792263	city	8	1	0.348621	0.348621	0	1	0	0	CorrectCommission	2.411410	1.169187	0	1
262.750793	0.792270	city	9	1	0.452339	0.452339	0	1	0	0	CorrectCommission	1.609910	1.150633	0	1
263.543091	0.792371	city	4	1	0.448279	0.448279	0	1	0	0	CorrectCommission	1.641288	1.121929	0	1
264.335358	0.792155	city	7	1	0.515284	0.515284	0	1	0	0	CorrectCommission	1.123495	1.086220	0	1
265.127563	0.792262	mountain	3	0	0.000000	0.667709	1	0	0	0	CorrectOmission	0.054394	1.047069	0	1
265.919952	0.792483	city	1	1	0.747363	0.747363	0	1	0	0	CorrectCommission	0.669931	1.007974	0	1
266.712250	0.792118	city	4	1	0.596054	0.596054	0	1	0	0	CorrectCommission	0.499333	0.971813	0	1
267.504517	0.792412	city	6	1	0.565288	0.565288	0	1	0	0	CorrectCommission	0.737079	0.940531	0	1
268.296753	0.792051	city	5	1	0.645569	0.645569	0	1	0	0	CorrectCommission	0.116700	0.914974	0	1
269.088959	0.792370	city	3	1	0.744971	0.744971	0	1	0	0	CorrectCommission	0.651445	0.894958	0	1
269.881226	0.792157	city	10	1	0.794321	0.794321	0	1	0	0	CorrectCommission	1.032804	0.879465	0	1
270.673462	0.792300	city	4	1	0.958723	0.958723	0	1	0	0	CorrectCommission	2.303245	0.867019	0	1
271.465759	0.792297	mountain	3	0	0.000000	0.846055	1	0	0	0	CorrectOmission	1.432592	0.855969	0	1
272.257996	0.792198	city	7	1	0.645663	0.645663	0	1	0	0	CorrectCommission	0.115970	0.844878	0	1
273.050232	0.792296	mountain	3	0	0.000000	0.546891	1	0	0	0	CorrectOmission	0.879252	0.832649	0	1
273.842529	0.792292	city	10	1	0.550607	0.550607	0	1	0	0	CorrectCommission	0.850535	0.818569	0	1
274.634827	0.792313	city	6	1	0.657681	0.657681	0	1	0	0	CorrectCommission	0.023101	0.802336	0	1
275.427124	0.792267	city	8	1	0.498065	0.498065	0	1	0	0	CorrectCommission	1.256562	0.784013	0	1
276.219330	0.792154	city	9	1	0.744650	0.744650	0	1	0	0	CorrectCommission	0.648963	0.763880	0	1
277.011536	0.792267	city	7	1	0.598297	0.598297	0	1	0	0	CorrectCommission	0.482001	0.742467	0	1
277.803864	0.792373	city	9	1	0.448543	0.448543	0	1	0	0	CorrectCommission	1.639250	0.720461	1	1
278.596130	0.792155	city	5	1	0.546594	0.546594	0	1	0	0	CorrectCommission	0.881544	0.698639	1	1
279.388367	0.792332	city	4	1	0.596276	0.596276	0	1	0	0	CorrectCommission	0.497616	0.677931	1	1
280.180664	0.792247	city	3	1	0.645809	0.645809	0	1	0	0	CorrectCommission	0.114844	0.659360	1	1
280.972900	0.792220	city	5	1	0.754823	0.754823	0	1	0	0	CorrectCommission	0.727578	0.643961	1	1
281.765137	0.792269	city	4	1	0.596226	0.596226	0	1	0	0	CorrectCommission	0.498001	0.632732	1	1
282.557404	0.792259	city	2	1	0.596477	0.596477	0	1	0	0	CorrectCommission	0.496062	0.626620	1	1
283.349670	0.792261	city	7	1	0.614719	0.614719	0	1	0	0	CorrectCommission	0.355100	0.626394	1	1
284.141998	0.792373	city	1	1	0.558495	0.558495	0	1	0	0	CorrectCommission	0.789580	0.632639	1	1
284.934357	0.792374	city	9	1	0.658441	0.658441	0	1	0	0	CorrectCommission	0.017229	0.645807	1	1
285.726624	0.792156	city	8	1	0.464715	0.464715	0	1	0	0	CorrectCommission	1.514273	0.666217	1	1
286.518799	0.792172	city	10	1	0.645777	0.645777	0	1	0	0	CorrectCommission	0.115090	0.693973	1	1
287.311066	0.792356	city	7	1	0.794812	0.794812	0	1	0	0	CorrectCommission	1.036601	0.729110	1	1
288.103302	0.792156	mountain	4	0	0.000000	0.705474	1	0	0	0	CorrectOmission	0.346224	0.771500	0	1
288.895538	0.792323	city	6	1	0.598640	0.598640	0	1	0	0	CorrectCommission	0.479351	0.820940	0	1
289.687927	0.792425	city	3	1	0.695189	0.695189	0	1	0	0	CorrectCommission	0.266750	0.877133	0	1
290.480255	0.792266	city	8	1	0.547458	0.547458	0	1	0	0	CorrectCommission	0.874868	0.939640	0	1
291.272430	0.792045	city	1	1	0.447497	0.447497	0	1	0	0	CorrectCommission	1.647331	1.007823	0	1
292.064606	0.792297	city	5	1	0.447866	0.447866	0	1	0	0	CorrectCommission	1.644482	1.080779	0	1
292.856873	0.792237	mountain	3	0	0.000000	0.496318	1	0	0	0	CorrectOmission	1.270056	1.157231	0	1
293.649109	0.792261	city	10	1	0.596425	0.596425	0	1	0	0	CorrectCommission	0.496463	1.235398	0	1
294.441376	0.792265	city	4	1	0.751757	0.751757	0	1	0	0	CorrectCommission	0.703884	1.312906	0	1
295.233643	0.792266	city	7	1	0.850835	0.850835	0	1	0	0	CorrectCommission	1.469524	1.386723	0	1
296.026001	0.792481	mountain	6	0	0.000000	0.541462	1	0	0	0	CorrectOmission	0.921199	1.453276	0	1
296.818298	0.792074	city	10	1	0.409780	0.409780	0	1	0	0	CorrectCommission	1.938792	1.508674	0	1
297.610443	0.792238	city	4	1	1.041930	1.041930	0	1	0	0	CorrectCommission	2.946240	1.549046	0	1
298.402710	0.792265	city	7	1	0.843808	0.843808	0	1	0	0	CorrectCommission	1.415227	1.571009	0	1
299.194977	0.792270	city	10	1	0.645869	0.645869	0	1	0	0	CorrectCommission	0.114378	1.572203	0	1
299.987274	0.792326	mountain	1	1	1.190546	1.190546	0	0	1	0	CommissionError	4.094697	1.551649	0	1
300.779541	0.792240	mountain	4	0	0.000000	1.179746	1	0	0	0	CorrectOmission	4.011234	1.509925	0	1
301.571777	0.792222	city	1	1	0.893478	0.893478	0	1	0	0	CorrectCommission	1.799053	1.449288	0	1
302.364075	0.792374	city	3	1	0.611751	0.611751	0	1	0	0	CorrectCommission	0.378029	1.373477	0	1
303.156342	0.792158	city	2	1	0.744777	0.744777	0	1	0	0	CorrectCommission	0.649949	1.287204	0	1
303.948547	0.792265	city	3	1	0.695380	0.695380	0	1	0	0	CorrectCommission	0.268224	1.195642	0	1
304.740814	0.792266	city	2	1	0.497169	0.497169	0	1	0	0	CorrectCommission	1.263481	1.103892	0	1
305.533081	0.792260	city	6	1	0.794330	0.794330	0	1	0	0	CorrectCommission	1.032875	1.016481	0	0
306.325348	0.792264	city	7	1	0.795042	0.795042	0	1	0	0	CorrectCommission	1.038378	0.937125	0	0
307.117645	0.792313	city	4	1	0.646182	0.646182	0	1	0	0	CorrectCommission	0.111962	0.868500	0	0
307.910004	0.792435	city	8	1	0.546664	0.546664	0	1	0	0	CorrectCommission	0.881006	0.812330	0	0
308.702240	0.792046	city	1	1	0.695048	0.695048	0	1	0	0	CorrectCommission	0.265655	0.769467	0	0
309.494415	0.792268	city	6	1	0.645861	0.645861	0	1	0	0	CorrectCommission	0.114445	0.740169	0	0
310.286652	0.792261	city	5	1	0.497203	0.497203	0	1	0	0	CorrectCommission	1.263223	0.724276	1	0
311.078918	0.792264	mountain	2	1	0.447701	0.447701	0	0	1	0	CommissionError	1.645751	0.721348	1	0
311.871185	0.792267	city	2	1	0.645883	0.645883	0	1	0	0	CorrectCommission	0.114275	0.730760	0	0
312.663483	0.792322	mountain	3	0	0.000000	0.646221	1	0	0	0	CorrectOmission	0.111663	0.751740	0	0
313.455872	0.792422	city	10	1	0.596831	0.596831	0	1	0	0	CorrectCommission	0.493326	0.783222	0	0
314.248108	0.792052	city	1	1	0.645831	0.645831	0	1	0	0	CorrectCommission	0.114675	0.823763	0	0
315.040253	0.792266	city	2	1	0.706706	0.706706	0	1	0	0	CorrectCommission	0.355744	0.871470	0	0
315.832550	0.792289	city	9	1	0.942819	0.942819	0	1	0	0	CorrectCommission	2.180347	0.923998	0	0
316.624786	0.792234	city	4	1	0.596207	0.596207	0	1	0	0	CorrectCommission	0.498155	0.978604	0	0
317.417053	0.792271	city	8	1	0.551333	0.551333	0	1	0	0	CorrectCommission	0.844925	1.032288	0	0
318.209320	0.792260	mountain	10	0	0.000000	0.458579	1	0	0	0	CorrectOmission	1.561694	1.081941	0	0
319.001678	0.792481	city	10	1	0.497175	0.497175	0	1	0	0	CorrectCommission	1.263433	1.124629	0	0
319.793945	0.792058	city	2	1	0.846352	0.846352	0	1	0	0	CorrectCommission	1.434882	1.157815	0	0
320.586121	0.792253	city	3	1	0.560687	0.560687	0	1	0	0	CorrectCommission	0.772635	1.179469	0	0
321.378418	0.792373	mountain	7	1	0.299427	0.299427	0	0	1	0	CommissionError	2.791563	1.188266	0	0
322.170807	0.792375	city	5	1	0.553287	0.553287	0	1	0	0	CorrectCommission	0.829822	1.183559	0	0
322.963013	0.792067	city	6	1	0.843893	0.843893	0	1	0	0	CorrectCommission	1.415881	1.165515	0	0
323.755188	0.792271	city	9	1	0.497629	0.497629	0	1	0	0	CorrectCommission	1.259926	1.134936	0	0
324.547455	0.792242	city	6	1	0.497185	0.497185	0	1	0	0	CorrectCommission	1.263361	1.093247	0	0
325.339691	0.792260	city	8	1	0.503981	0.503981	0	1	0	0	CorrectCommission	1.210839	1.042295	0	0
326.132019	0.792377	city	6	1	0.549268	0.549268	0	1	0	0	CorrectCommission	0.860882	0.984276	0	0
326.924286	0.792154	city	10	1	0.695150	0.695150	0	1	0	0	CorrectCommission	0.266450	0.921584	0	0
327.716492	0.792267	city	1	1	0.893370	0.893370	0	1	0	0	CorrectCommission	1.798223	0.856679	0	0
328.508759	0.792268	city	3	1	0.794342	0.794342	0	1	0	0	CorrectCommission	1.032965	0.791928	0	0
329.301117	0.792476	city	1	1	0.754342	0.754342	0	1	0	0	CorrectCommission	0.723865	0.729610	1	0
330.093384	0.792049	city	3	1	0.659316	0.659316	0	1	0	0	CorrectCommission	0.010467	0.671739	1	0
330.885559	0.792263	city	4	1	0.657785	0.657785	0	1	0	0	CorrectCommission	0.022298	0.619966	1	0
331.677826	0.792266	city	9	1	0.744913	0.744913	0	1	0	0	CorrectCommission	0.650999	0.575518	1	0
332.470062	0.792262	city	6	1	0.614618	0.614618	0	1	0	0	CorrectCommission	0.355877	0.539145	1	0
333.262451	0.792483	city	8	1	0.645883	0.645883	0	1	0	0	CorrectCommission	0.114271	0.511115	1	0
334.054718	0.792047	mountain	9	0	0.000000	0.748143	1	0	0	0	CorrectOmission	0.675960	0.491282	1	0
334.846893	0.792294	city	6	1	0.794957	0.794957	0	1	0	0	CorrectCommission	1.037718	0.479109	1	0
335.639160	0.792238	city	8	1	0.659882	0.659882	0	1	0	0	CorrectCommission	0.006091	0.473747	1	0
336.431396	0.792266	city	6	1	0.645911	0.645911	0	1	0	0	CorrectCommission	0.114058	0.474135	1	0
337.223694	0.792339	city	8	1	0.746167	0.746167	0	1	0	0	CorrectCommission	0.660685	0.479041	1	0
338.015961	0.792190	city	1	1	0.648354	0.648354	0	1	0	0	CorrectCommission	0.095177	0.487179	1	0
338.808197	0.792264	city	9	1	0.698786	0.698786	0	1	0	0	CorrectCommission	0.294544	0.497273	1	0
339.600464	0.792263	city	8	1	0.794636	0.794636	0	1	0	0	CorrectCommission	1.035241	0.508219	1	0
340.392731	0.792265	city	10	1	0.647709	0.647709	0	1	0	0	CorrectCommission	0.100159	0.519147	1	0
341.184998	0.792263	city	3	1	0.506619	0.506619	0	1	0	0	CorrectCommission	1.190453	0.529554	1	0
341.977356	0.792483	city	8	1	0.761675	0.761675	0	1	0	0	CorrectCommission	0.780526	0.539306	1	0
342.769623	0.792051	city	4	1	0.744597	0.744597	0	1	0	0	CorrectCommission	0.648553	0.548686	1	0
343.561829	0.792369	city	5	1	0.699225	0.699225	0	1	0	0	CorrectCommission	0.297934	0.558288	1	0
344.354095	0.792161	city	7	1	0.695618	0.695618	0	1	0	0	CorrectCommission	0.270062	0.568908	1	0
345.146301	0.792262	city	9	1	0.760909	0.760909	0	1	0	0	CorrectCommission	0.774608	0.581326	1	0
345.938568	0.792267	city	2	1	0.695489	0.695489	0	1	0	0	CorrectCommission	0.269068	0.596148	1	0
346.730835	0.792267	city	7	1	0.744808	0.744808	0	1	0	0	CorrectCommission	0.650185	0.613638	1	0
347.523102	0.792262	city	5	1	0.599933	0.599933	0	1	0	0	CorrectCommission	0.469357	0.633600	1	0
348.315369	0.792261	city	10	1	0.711426	0.711426	0	1	0	0	CorrectCommission	0.392220	0.655359	1	0
349.107666	0.792299	city	4	1	0.695400	0.695400	0	1	0	0	CorrectCommission	0.268378	0.677746	1	0
349.900024	0.792450	city	7	1	0.504599	0.504599	0	1	0	0	CorrectCommission	1.206064	0.699285	1	0
350.692291	0.792083	mountain	10	0	0.000000	0.492172	1	0	0	0	CorrectOmission	1.302094	0.718347	1	0
351.484558	0.792446	city	9	1	0.596114	0.596114	0	1	0	0	CorrectCommission	0.498873	0.733398	0	0
352.276825	0.792081	city	10	1	0.754417	0.754417	0	1	0	0	CorrectCommission	0.724437	0.743232	0	0
353.069031	0.792341	city	9	1	0.794731	0.794731	0	1	0	0	CorrectCommission	1.035977	0.747160	0	0
353.861267	0.792157	city	2	1	0.596135	0.596135	0	1	0	0	CorrectCommission	0.498709	0.745160	0	0
354.653595	0.792480	city	5	1	0.497539	0.497539	0	1	0	0	CorrectCommission	1.260620	0.737900	0	0
355.445862	0.792050	city	10	1	0.461240	0.461240	0	1	0	0	CorrectCommission	1.541128	0.726687	1	0
356.238068	0.792372	city	5	1	0.596300	0.596300	0	1	0	0	CorrectCommission	0.497436	0.713289	1	0
357.030457	0.792372	city	7	1	0.747310	0.747310	0	1	0	0	CorrectCommission	0.669521	0.699716	1	0
357.822662	0.792050	mountain	5	0	0.000000	0.732150	1	0	0	0	CorrectOmission	0.552370	0.687896	1	0
358.614807	0.792263	city	8	1	0.661551	0.661551	0	1	0	0	CorrectCommission	0.006803	0.679362	1	0
359.407196	0.792482	city	2	1	0.646243	0.646243	0	1	0	0	CorrectCommission	0.111490	0.675071	1	0
360.199493	0.792105	city	9	1	0.612116	0.612116	0	1	0	0	CorrectCommission	0.375210	0.675250	1	0
360.991638	0.792209	city	10	1	0.556037	0.556037	0	1	0	0	CorrectCommission	0.808572	0.679458	1	0
361.783875	0.792262	city	8	1	0.645806	0.645806	0	1	0	0	CorrectCommission	0.114865	0.686713	1	0
362.576141	0.792284	city	6	1	0.804323	0.804323	0	1	0	0	CorrectCommission	1.110100	0.695769	1	0
363.368408	0.792250	city	4	1	0.943135	0.943135	0	1	0	0	CorrectCommission	2.182791	0.705371	1	0
364.160675	0.792265	city	7	1	0.607602	0.607602	0	1	0	0	CorrectCommission	0.410092	0.714507	1	0
364.952942	0.792264	city	4	1	0.547013	0.547013	0	1	0	0	CorrectCommission	0.878305	0.722626	1	1
365.745300	0.792479	city	2	1	0.559377	0.559377	0	1	0	0	CorrectCommission	0.782760	0.729579	1	1
366.537628	0.792154	city	7	1	0.606270	0.606270	0	1	0	0	CorrectCommission	0.420388	0.735614	0	1
367.329773	0.792161	city	5	1	0.645626	0.645626	0	1	0	0	CorrectCommission	0.116258	0.741243	0	1
368.121979	0.792261	city	1	1	0.695418	0.695418	0	1	0	0	CorrectCommission	0.268515	0.747087	0	1
368.914246	0.792267	city	5	1	0.843787	0.843787	0	1	0	0	CorrectCommission	1.415059	0.753776	0	1
369.706573	0.792370	city	3	1	0.745096	0.745096	0	1	0	0	CorrectCommission	0.652409	0.761817	0	1
370.498840	0.792159	mountain	4	1	0.503968	0.503968	0	0	1	0	CommissionError	1.210942	0.771603	0	1
371.291107	0.792373	city	9	1	0.596236	0.596236	0	1	0	0	CorrectCommission	0.497927	0.783345	0	1
372.083374	0.792160	city	10	1	0.546605	0.546605	0	1	0	0	CorrectCommission	0.881462	0.797094	0	1
372.875580	0.792289	city	1	1	0.497694	0.497694	0	1	0	0	CorrectCommission	1.259425	0.812660	0	1
373.667969	0.792453	city	9	1	0.695242	0.695242	0	1	0	0	CorrectCommission	0.267161	0.829648	0	1
374.460236	0.792084	city	7	1	0.596518	0.596518	0	1	0	0	CorrectCommission	0.495746	0.847428	0	1
375.252380	0.792226	city	3	1	0.598563	0.598563	0	1	0	0	CorrectCommission	0.479946	0.865077	0	1
376.044647	0.792265	city	5	1	0.847735	0.847735	0	1	0	0	CorrectCommission	1.445572	0.881486	0	1
376.836945	0.792374	city	4	1	0.546749	0.546749	0	1	0	0	CorrectCommission	0.880349	0.895419	0	1
377.629272	0.792264	city	3	1	0.596137	0.596137	0	1	0	0	CorrectCommission	0.498692	0.905722	0	1
378.421509	0.792184	city	10	1	0.501702	0.501702	0	1	0	0	CorrectCommission	1.228457	0.911457	0	1
379.213715	0.792239	city	5	1	0.450155	0.450155	0	1	0	0	CorrectCommission	1.626791	0.912070	0	1
380.005981	0.792323	city	9	1	0.461565	0.461565	0	1	0	0	CorrectCommission	1.538619	0.907483	0	1
380.798279	0.792234	city	8	1	0.497139	0.497139	0	1	0	0	CorrectCommission	1.263712	0.898096	0	1
381.590607	0.792452	city	4	1	0.702431	0.702431	0	1	0	0	CorrectCommission	0.322712	0.884774	0	1
382.382904	0.792158	city	10	1	0.596441	0.596441	0	1	0	0	CorrectCommission	0.496347	0.868677	0	1
383.175079	0.792158	city	5	1	0.695268	0.695268	0	1	0	0	CorrectCommission	0.267359	0.851074	0	1
383.967407	0.792479	city	3	1	0.813176	0.813176	0	1	0	0	CorrectCommission	1.178513	0.833184	0	1
384.759644	0.792051	city	5	1	0.794100	0.794100	0	1	0	0	CorrectCommission	1.031095	0.816006	0	1
385.551819	0.792260	mountain	8	0	0.000000	0.766319	1	0	0	0	CorrectOmission	0.816415	0.800311	0	1
386.344086	0.792268	city	5	1	0.744852	0.744852	0	1	0	0	CorrectCommission	0.650525	0.786558	0	1
387.136444	0.792479	city	10	1	0.744716	0.744716	0	1	0	0	CorrectCommission	0.649478	0.774988	0	1
387.928833	0.792265	city	9	1	0.695016	0.695016	0	1	0	0	CorrectCommission	0.265408	0.765639	0	1
388.720978	0.792050	city	1	1	0.806268	0.806268	0	1	0	0	CorrectCommission	1.125130	0.758444	0	1
389.513153	0.792277	city	7	1	0.850529	0.850529	0	1	0	0	CorrectCommission	1.467158	0.753230	0	1
390.305420	0.792254	city	8	1	0.744819	0.744819	0	1	0	0	CorrectCommission	0.650269	0.749753	0	1
391.097717	0.792368	city	6	1	0.596556	0.596556	0	1	0	0	CorrectCommission	0.495454	0.747698	0	1
391.890015	0.792221	city	3	1	0.646296	0.646296	0	1	0	0	CorrectCommission	0.111083	0.746689	0	1
392.682251	0.792265	city	7	1	0.600808	0.600808	0	1	0	0	CorrectCommission	0.462595	0.746234	0	1
393.474548	0.792309	city	5	1	0.547014	0.547014	0	1	0	0	CorrectCommission	0.878301	0.745724	0	1
394.266785	0.792179	city	4	1	0.846837	0.846837	0	1	0	0	CorrectCommission	1.438627	0.744584	0	1
395.059021	0.792310	mountain	9	0	0.000000	0.802510	1	0	0	0	CorrectOmission	1.096088	0.742366	0	1
395.851288	0.792196	city	7	1	0.645851	0.645851	0	1	0	0	CorrectCommission	0.114523	0.738890	0	1
396.643616	0.792483	city	8	1	0.608674	0.608674	0	1	0	0	CorrectCommission	0.401811	0.734377	0	1
397.435883	0.792047	city	2	1	0.561548	0.561548	0	1	0	0	CorrectCommission	0.765982	0.729490	1	1
398.228058	0.792268	city	4	1	0.907954	0.907954	0	1	0	0	CorrectCommission	1.910921	0.725316	1	1
399.020355	0.792369	city	7	1	0.796157	0.796157	0	1	0	0	CorrectCommission	1.046992	0.723243	1	1
399.812622	0.792161	city	1	1	0.645661	0.645661	0	1	0	0	CorrectCommission	0.115985	0.724752	1	1
400.604950	0.792479	city	3	1	0.744828	0.744828	0	1	0	0	CorrectCommission	0.650340	0.731070	0	1
401.397217	0.792047	mountain	3	0	0.000000	0.667433	1	0	0	0	CorrectOmission	0.052259	0.742802	0	1
402.189362	0.792265	city	9	1	0.596349	0.596349	0	1	0	0	CorrectCommission	0.497050	0.759737	0	1
402.981659	0.792294	city	4	1	0.714450	0.714450	0	1	0	0	CorrectCommission	0.415592	0.780641	0	1
403.773956	0.792342	city	7	1	0.701842	0.701842	0	1	0	0	CorrectCommission	0.318163	0.803370	0	1
404.566223	0.792160	city	9	1	0.744660	0.744660	0	1	0	0	CorrectCommission	0.649044	0.825081	0	1
405.358429	0.792261	city	1	1	0.549316	0.549316	0	1	0	0	CorrectCommission	0.860509	0.842709	0	1
406.150696	0.792266	city	8	1	0.645706	0.645706	0	1	0	0	CorrectCommission	0.115640	0.853506	0	1
406.943054	0.792482	mountain	10	1	1.190782	1.190782	0	0	1	0	CommissionError	4.096519	0.855604	0	1
407.735321	0.792051	mountain	9	0	0.000000	1.000948	1	0	0	0	CorrectOmission	2.629544	0.848306	0	1
408.527496	0.792259	city	8	1	0.645877	0.645877	0	1	0	0	CorrectCommission	0.114320	0.832410	0	1
409.319763	0.792264	city	3	1	0.695244	0.695244	0	1	0	0	CorrectCommission	0.267172	0.809996	0	1
410.112030	0.792266	city	9	1	0.695275	0.695275	0	1	0	0	CorrectCommission	0.267414	0.783995	0	1
410.904297	0.792264	city	3	1	0.645811	0.645811	0	1	0	0	CorrectCommission	0.114825	0.757706	0	1
411.696533	0.792268	city	7	1	0.696180	0.696180	0	1	0	0	CorrectCommission	0.274403	0.734175	0	1
412.488922	0.792479	city	9	1	0.563759	0.563759	0	1	0	0	CorrectCommission	0.748895	0.715726	1	1
413.281189	0.792052	city	2	1	0.695090	0.695090	0	1	0	0	CorrectCommission	0.265981	0.703662	1	1
414.073395	0.792369	city	9	1	0.744782	0.744782	0	1	0	0	CorrectCommission	0.649985	0.698180	1	1
414.865662	0.792189	city	4	1	0.812223	0.812223	0	1	0	0	CorrectCommission	1.171147	0.698466	1	1
415.657898	0.792235	mountain	1	0	0.000000	0.690494	1	0	0	0	CorrectOmission	0.230469	0.702968	1	1
416.450134	0.792261	city	10	1	0.609987	0.609987	0	1	0	0	CorrectCommission	0.391667	0.709848	1	1
417.242462	0.792382	city	6	1	0.801091	0.801091	0	1	0	0	CorrectCommission	1.085120	0.717324	1	1
418.034729	0.792173	city	1	1	0.546631	0.546631	0	1	0	0	CorrectCommission	0.881260	0.723972	1	1
418.826996	0.792351	city	3	1	0.398701	0.398701	0	1	0	0	CorrectCommission	2.024407	0.728976	1	1
419.619293	0.792263	city	1	1	0.546619	0.546619	0	1	0	0	CorrectCommission	0.881350	0.732145	0	1
420.411560	0.792225	city	2	1	0.603141	0.603141	0	1	0	0	CorrectCommission	0.444567	0.733869	0	1
421.203857	0.792413	city	6	1	0.704743	0.704743	0	1	0	0	CorrectCommission	0.340580	0.734862	0	1
421.996094	0.792047	city	10	1	0.695058	0.695058	0	1	0	0	CorrectCommission	0.265737	0.735921	0	1
422.788269	0.792294	city	5	1	0.695426	0.695426	0	1	0	0	CorrectCommission	0.268578	0.737734	0	1
423.580597	0.792344	city	4	1	0.711459	0.711459	0	1	0	0	CorrectCommission	0.392474	0.740798	0	1
424.372955	0.792375	city	3	1	0.646125	0.646125	0	1	0	0	CorrectCommission	0.112401	0.745359	0	0
425.165161	0.792058	city	10	1	0.861837	0.861837	0	1	0	0	CorrectCommission	1.554548	0.751547	0	0
425.957336	0.792263	city	5	1	0.992391	0.992391	0	1	0	0	CorrectCommission	2.563420	0.759571	0	0
426.749634	0.792362	city	2	1	0.745216	0.745216	0	1	0	0	CorrectCommission	0.653335	0.769750	0	0
427.541901	0.792163	city	1	1	0.695178	0.695178	0	1	0	0	CorrectCommission	0.266662	0.782652	0	0
428.334106	0.792261	city	5	1	0.709064	0.709064	0	1	0	0	CorrectCommission	0.373968	0.798909	0	0
429.126373	0.792269	city	9	1	0.756509	0.756509	0	1	0	0	CorrectCommission	0.740610	0.819083	0	0
429.918640	0.792285	city	10	1	0.744773	0.744773	0	1	0	0	CorrectCommission	0.649918	0.843455	0	0
430.710968	0.792348	mountain	2	0	0.000000	0.678852	1	0	0	0	CorrectOmission	0.140497	0.871854	0	0
431.503235	0.792216	city	5	1	0.596437	0.596437	0	1	0	0	CorrectCommission	0.496377	0.903551	0	0
432.295563	0.792424	mountain	5	0	0.000000	0.535221	1	0	0	0	CorrectOmission	0.969428	0.937263	0	0
433.087799	0.792045	city	5	1	0.515239	0.515239	0	1	0	0	CorrectCommission	1.123842	0.971318	0	0
433.879974	0.792304	city	10	1	0.556524	0.556524	0	1	0	0	CorrectCommission	0.804805	1.003899	0	0
434.672241	0.792225	city	2	1	0.348910	0.348910	0	1	0	0	CorrectCommission	2.409173	1.033234	0	0
435.464478	0.792267	city	9	1	0.943973	0.943973	0	1	0	0	CorrectCommission	2.189261	1.057809	0	0
436.256866	0.792480	city	2	1	0.794285	0.794285	0	1	0	0	CorrectCommission	1.032525	1.076473	0	0
437.049164	0.792092	mountain	7	1	0.611562	0.611562	0	0	1	0	CommissionError	0.379496	1.088474	0	0
437.841309	0.792223	city	7	1	0.695256	0.695256	0	1	0	0	CorrectCommission	0.267264	1.093360	0	0
438.633575	0.792312	city	2	1	0.744772	0.744772	0	1	0	0	CorrectCommission	0.649907	1.090898	0	0
439.425842	0.792228	city	9	1	0.910042	0.910042	0	1	0	0	CorrectCommission	1.927057	1.081000	0	0
440.218079	0.792252	city	10	1	0.645716	0.645716	0	1	0	0	CorrectCommission	0.115562	1.063716	0	0
441.010345	0.792268	city	3	1	1.041912	1.041912	0	1	0	0	CorrectCommission	2.946102	1.039374	0	0
441.802612	0.792261	city	5	1	0.814111	0.814111	0	1	0	0	CorrectCommission	1.185733	1.008492	0	0
442.594940	0.792374	city	6	1	0.844234	0.844234	0	1	0	0	CorrectCommission	1.418517	0.972012	0	0
443.387177	0.792155	city	9	1	0.761124	0.761124	0	1	0	0	CorrectCommission	0.776270	0.931124	0	0
444.179413	0.792274	city	10	1	0.596233	0.596233	0	1	0	0	CorrectCommission	0.497948	0.887313	0	0
444.971680	0.792255	city	8	1	0.550060	0.550060	0	1	0	0	CorrectCommission	0.854761	0.842128	0	0
445.764038	0.792484	city	3	1	0.596263	0.596263	0	1	0	0	CorrectCommission	0.497718	0.797027	0	0
446.556305	0.792047	city	2	1	0.646013	0.646013	0	1	0	0	CorrectCommission	0.113265	0.753274	0	0
447.348511	0.792346	mountain	5	0	0.000000	0.585094	1	0	0	0	CorrectOmission	0.584025	0.711829	1	0
448.140778	0.792210	city	2	1	0.596210	0.596210	0	1	0	0	CorrectCommission	0.498125	0.673402	1	0
448.933014	0.792238	city	4	1	0.862065	0.862065	0	1	0	0	CorrectCommission	1.556309	0.638530	1	0
449.725372	0.792481	city	5	1	0.695404	0.695404	0	1	0	0	CorrectCommission	0.268407	0.607686	1	0
450.517731	0.792263	city	1	1	0.843606	0.843606	0	1	0	0	CorrectCommission	1.413659	0.581459	1	0
451.309906	0.792107	city	3	1	0.695033	0.695033	0	1	0	0	CorrectCommission	0.265542	0.560500	1	0
452.102081	0.792209	city	1	1	0.657956	0.657956	0	1	0	0	CorrectCommission	0.020976	0.545571	1	0
452.894348	0.792330	city	8	1	0.646136	0.646136	0	1	0	0	CorrectCommission	0.112316	0.537395	1	0
453.686707	0.792414	city	9	1	0.745746	0.745746	0	1	0	0	CorrectCommission	0.657433	0.536536	1	0
454.479004	0.792157	city	5	1	0.697381	0.697381	0	1	0	0	CorrectCommission	0.283686	0.543206	1	0
455.271149	0.792154	city	1	1	0.645797	0.645797	0	1	0	0	CorrectCommission	0.114936	0.557139	1	0
456.063385	0.792269	city	6	1	0.744829	0.744829	0	1	0	0	CorrectCommission	0.650350	0.577499	1	0
456.855652	0.792304	city	8	1	0.695402	0.695402	0	1	0	0	CorrectCommission	0.268393	0.602834	1	0
457.647980	0.792333	city	2	1	0.794386	0.794386	0	1	0	0	CorrectCommission	1.033311	0.631261	1	0
458.440216	0.792156	city	6	1	0.645643	0.645643	0	1	0	0	CorrectCommission	0.116123	0.660492	1	0
459.232452	0.792290	city	7	1	0.803856	0.803856	0	1	0	0	CorrectCommission	1.106486	0.688174	1	0
460.024719	0.792241	city	9	1	0.759340	0.759340	0	1	0	0	CorrectCommission	0.762481	0.711986	1	0
460.816956	0.792261	city	2	1	0.794331	0.794331	0	1	0	0	CorrectCommission	1.032882	0.729939	0	0
461.609344	0.792482	city	4	1	0.893452	0.893452	0	1	0	0	CorrectCommission	1.798852	0.740506	0	0
462.401611	0.792050	city	9	1	0.695065	0.695065	0	1	0	0	CorrectCommission	0.265789	0.742731	0	0
463.193756	0.792262	city	5	1	0.547181	0.547181	0	1	0	0	CorrectCommission	0.877003	0.736320	0	0
463.986023	0.792268	city	3	1	0.695180	0.695180	0	1	0	0	CorrectCommission	0.266678	0.721584	1	0
464.778351	0.792370	city	1	1	0.560438	0.560438	0	1	0	0	CorrectCommission	0.774562	0.699396	1	0
465.570618	0.792195	city	2	1	0.454543	0.454543	0	1	0	0	CorrectCommission	1.592880	0.671108	1	0
466.362946	0.792442	city	10	1	0.546660	0.546660	0	1	0	0	CorrectCommission	0.881034	0.638404	1	0
467.155212	0.792079	city	5	1	0.695034	0.695034	0	1	0	0	CorrectCommission	0.265553	0.603252	1	0
467.947357	0.792233	city	1	1	0.695231	0.695231	0	1	0	0	CorrectCommission	0.267069	0.567682	1	0
468.739716	0.792483	mountain	1	0	0.000000	0.736740	1	0	0	0	CorrectOmission	0.587841	0.533686	1	0
469.531982	0.792054	city	10	1	0.745084	0.745084	0	1	0	0	CorrectCommission	0.652318	0.503002	1	0
470.324127	0.792261	city	4	1	0.645782	0.645782	0	1	0	0	CorrectCommission	0.115055	0.477036	1	0
471.116394	0.792265	city	5	1	0.645752	0.645752	0	1	0	0	CorrectCommission	0.115285	0.456742	1	0
471.908691	0.792287	mountain	6	0	0.000000	0.660006	1	0	0	0	CorrectOmission	0.005138	0.442601	1	0
472.700989	0.792348	city	3	1	0.695351	0.695351	0	1	0	0	CorrectCommission	0.268003	0.434659	1	0
473.493256	0.792156	city	2	1	0.758598	0.758598	0	1	0	0	CorrectCommission	0.756750	0.432555	1	0
474.285553	0.792483	city	8	1	0.798331	0.798331	0	1	0	0	CorrectCommission	1.063790	0.435679	1	0
475.077820	0.792050	city	4	1	0.655092	0.655092	0	1	0	0	CorrectCommission	0.043107	0.443222	1	0
475.869995	0.792261	city	6	1	0.659053	0.659053	0	1	0	0	CorrectCommission	0.012495	0.454407	1	0
476.662262	0.792270	city	4	1	0.646203	0.646203	0	1	0	0	CorrectCommission	0.111803	0.468465	1	0
477.454620	0.792476	city	6	1	0.794214	0.794214	0	1	0	0	CorrectCommission	1.031982	0.484745	1	0
478.246948	0.792158	city	2	1	0.695386	0.695386	0	1	0	0	CorrectCommission	0.268268	0.502715	1	0
479.039093	0.792155	city	9	1	0.843886	0.843886	0	1	0	0	CorrectCommission	1.415830	0.522000	1	0
479.831299	0.792267	city	2	1	0.645937	0.645937	0	1	0	0	CorrectCommission	0.113858	0.542290	1	0
480.623566	0.792266	city	5	1	0.596926	0.596926	0	1	0	0	CorrectCommission	0.492593	0.563375	1	0
481.415894	0.792334	city	9	1	0.695406	0.695406	0	1	0	0	CorrectCommission	0.268422	0.585014	1	0
482.208252	0.792409	city	3	1	0.652755	0.652755	0	1	0	0	CorrectCommission	0.061171	0.606971	1	0
483.000488	0.792050	city	10	1	0.695067	0.695067	0	1	0	0	CorrectCommission	0.265805	0.628984	1	0
483.792694	0.792347	city	6	1	0.942896	0.942896	0	1	0	0	CorrectCommission	2.180942	0.650810	1	0
484.584930	0.792182	city	7	1	0.603521	0.603521	0	1	0	0	CorrectCommission	0.441634	0.672228	1	0
485.377289	0.792480	city	2	1	0.547775	0.547775	0	1	0	0	CorrectCommission	0.872415	0.693194	1	0
486.169525	0.792047	city	4	1	0.646684	0.646684	0	1	0	0	CorrectCommission	0.108080	0.713748	1	0
486.961731	0.792312	city	1	1	0.565678	0.565678	0	1	0	0	CorrectCommission	0.734070	0.734070	0	0
