onset	duration	trial_type	image_type	Press	ReactionTime	ReactionTime_Interpolated	CorrectOmission	CorrectCommission	CommissionError	OmissionError	response_type	nonsmoothVarianceTimeCourse	VarianceTimeCourse	In_the_Zone	Reward_trial
8.433899	0.792479	city	8	1	0.748380	0.748380	0	1	0	0	CorrectCommission	0.377145	0.377145	1	1
9.226165	0.792052	mountain	10	1	0.497095	0.497095	0	0	1	0	CommissionError	1.346141	0.407765	1	1
10.018375	0.792369	city	9	1	0.550688	0.550688	0	1	0	0	CorrectCommission	0.978602	0.435516	1	1
10.810637	0.792154	city	10	1	0.596398	0.596398	0	1	0	0	CorrectCommission	0.665132	0.457952	1	1
11.602956	0.792484	city	8	1	0.509751	0.509751	0	1	0	0	CorrectCommission	1.259346	0.473410	1	1
12.395275	0.792155	city	10	1	0.596471	0.596471	0	1	0	0	CorrectCommission	0.664629	0.481150	1	1
13.187433	0.792162	city	8	1	0.653291	0.653291	0	1	0	0	CorrectCommission	0.274967	0.481450	1	1
13.979678	0.792327	city	10	1	0.699794	0.699794	0	1	0	0	CorrectCommission	0.043945	0.475469	1	1
14.772049	0.792415	city	9	1	0.794240	0.794240	0	1	0	0	CorrectCommission	0.691649	0.465029	1	1
15.564334	0.792156	city	5	1	0.794126	0.794126	0	1	0	0	CorrectCommission	0.690862	0.452291	1	1
16.356544	0.792266	city	8	1	0.698918	0.698918	0	1	0	0	CorrectCommission	0.037940	0.439488	1	1
17.148779	0.792203	city	9	1	0.794895	0.794895	0	1	0	0	CorrectCommission	0.696138	0.428658	1	1
17.941044	0.792326	city	6	1	0.702738	0.702738	0	1	0	0	CorrectCommission	0.064136	0.421350	1	1
18.733339	0.792265	city	9	1	0.695185	0.695185	0	1	0	0	CorrectCommission	0.012342	0.418571	1	1
19.525604	0.792264	city	10	1	0.645721	0.645721	0	1	0	0	CorrectCommission	0.326876	0.420686	1	1
20.317867	0.792264	city	9	1	0.648329	0.648329	0	1	0	0	CorrectCommission	0.308997	0.427448	1	1
21.110188	0.792374	city	10	1	0.645682	0.645682	0	1	0	0	CorrectCommission	0.327146	0.438135	1	1
21.902479	0.792210	city	9	1	0.596379	0.596379	0	1	0	0	CorrectCommission	0.665264	0.451677	1	1
22.694633	0.792101	city	8	1	0.546636	0.546636	0	1	0	0	CorrectCommission	1.006394	0.466822	1	1
23.486818	0.792268	city	10	1	0.695327	0.695327	0	1	0	0	CorrectCommission	0.013312	0.482282	1	1
24.279083	0.792260	city	1	1	0.744874	0.744874	0	1	0	0	CorrectCommission	0.353098	0.496923	1	1
25.071346	0.792267	city	9	1	0.794360	0.794360	0	1	0	0	CorrectCommission	0.692469	0.509815	1	1
25.863722	0.792482	mountain	8	0	0.000000	0.641868	1	0	0	0	CorrectOmission	0.353300	0.520313	1	1
26.656040	0.792157	city	10	1	0.503754	0.503754	0	1	0	0	CorrectCommission	1.300472	0.528083	1	1
27.448252	0.792263	city	3	1	0.596371	0.596371	0	1	0	0	CorrectCommission	0.665314	0.533058	1	1
28.240482	0.792201	city	2	1	0.645671	0.645671	0	1	0	0	CorrectCommission	0.327219	0.535433	1	1
29.032803	0.792439	city	9	1	0.645793	0.645793	0	1	0	0	CorrectCommission	0.326387	0.535540	1	1
29.825045	0.792048	city	6	1	0.745051	0.745051	0	1	0	0	CorrectCommission	0.354314	0.533793	1	1
30.617226	0.792312	city	3	1	0.755583	0.755583	0	1	0	0	CorrectCommission	0.426539	0.530604	1	1
31.409544	0.792325	city	1	1	0.794311	0.794311	0	1	0	0	CorrectCommission	0.692135	0.526348	1	1
32.201893	0.792373	city	3	1	0.844315	0.844315	0	1	0	0	CorrectCommission	1.035053	0.521327	1	1
32.994106	0.792051	city	4	1	0.762601	0.762601	0	1	0	0	CorrectCommission	0.474668	0.515779	1	1
33.786263	0.792262	city	9	1	0.744854	0.744854	0	1	0	0	CorrectCommission	0.352966	0.509932	1	1
34.578556	0.792329	city	6	1	0.703015	0.703015	0	1	0	0	CorrectCommission	0.066037	0.503985	1	1
35.370861	0.792277	city	10	1	0.709276	0.709276	0	1	0	0	CorrectCommission	0.108973	0.498187	1	1
36.163128	0.792259	city	5	1	0.843815	0.843815	0	1	0	0	CorrectCommission	1.031629	0.492829	1	1
36.955463	0.792410	city	4	1	0.843813	0.843813	0	1	0	0	CorrectCommission	1.031615	0.488228	1	1
37.747799	0.792264	city	3	1	0.794095	0.794095	0	1	0	0	CorrectCommission	0.690651	0.484744	1	1
38.539959	0.792051	city	2	1	0.706686	0.706686	0	1	0	0	CorrectCommission	0.091210	0.482680	1	1
39.332222	0.792480	city	9	1	0.646304	0.646304	0	1	0	0	CorrectCommission	0.322878	0.482226	1	1
40.124489	0.792048	city	1	1	0.695094	0.695094	0	1	0	0	CorrectCommission	0.011717	0.483325	1	1
40.916641	0.792264	city	3	1	0.744897	0.744897	0	1	0	0	CorrectCommission	0.353260	0.485700	1	1
41.708961	0.792372	city	2	1	0.760563	0.760563	0	1	0	0	CorrectCommission	0.460691	0.488793	1	1
42.501225	0.792157	city	3	1	0.794257	0.794257	0	1	0	0	CorrectCommission	0.691762	0.491845	1	1
43.293438	0.792267	city	8	1	0.754201	0.754201	0	1	0	0	CorrectCommission	0.417064	0.494036	1	1
44.085701	0.792261	city	2	1	0.794402	0.794402	0	1	0	0	CorrectCommission	0.692755	0.494637	1	1
44.878075	0.792483	city	1	1	0.846304	0.846304	0	1	0	0	CorrectCommission	1.048695	0.493166	1	1
45.670448	0.792265	city	10	1	0.762137	0.762137	0	1	0	0	CorrectCommission	0.471489	0.489517	1	1
46.462605	0.792047	city	5	1	0.754762	0.754762	0	1	0	0	CorrectCommission	0.420913	0.484019	1	1
47.254761	0.792267	city	1	1	0.761005	0.761005	0	1	0	0	CorrectCommission	0.463722	0.477377	1	1
48.047081	0.792370	city	3	1	0.794334	0.794334	0	1	0	0	CorrectCommission	0.692292	0.470567	1	1
48.839375	0.792216	mountain	8	0	0.000000	0.748619	1	0	0	0	CorrectOmission	0.378785	0.464645	1	1
49.631584	0.792205	city	2	1	0.705051	0.705051	0	1	0	0	CorrectCommission	0.080001	0.460567	1	1
50.423874	0.792374	city	6	1	0.744821	0.744821	0	1	0	0	CorrectCommission	0.352740	0.458989	1	1
51.216194	0.792264	city	5	1	0.663305	0.663305	0	1	0	0	CorrectCommission	0.206288	0.460097	1	1
52.008404	0.792159	city	3	1	0.745179	0.745179	0	1	0	0	CorrectCommission	0.355192	0.463556	1	1
52.800621	0.792276	city	1	1	0.797523	0.797523	0	1	0	0	CorrectCommission	0.714159	0.468515	1	1
53.592884	0.792250	city	5	1	0.695803	0.695803	0	1	0	0	CorrectCommission	0.016579	0.473696	1	1
54.385185	0.792355	city	7	1	0.798204	0.798204	0	1	0	0	CorrectCommission	0.718833	0.477628	1	1
55.177452	0.792175	mountain	9	0	0.000000	0.666302	1	0	0	0	CorrectOmission	0.185739	0.478804	1	1
55.969780	0.792482	city	5	1	0.511831	0.511831	0	1	0	0	CorrectCommission	1.245081	0.475993	1	1
56.762043	0.792046	city	10	1	0.546528	0.546528	0	1	0	0	CorrectCommission	1.007132	0.468336	1	1
57.554199	0.792267	city	1	1	0.596285	0.596285	0	1	0	0	CorrectCommission	0.665906	0.455547	1	1
58.346466	0.792263	city	10	1	0.645807	0.645807	0	1	0	0	CorrectCommission	0.326291	0.437910	1	1
59.138752	0.792306	city	5	1	0.646063	0.646063	0	1	0	0	CorrectCommission	0.324532	0.416219	1	1
59.931122	0.792441	city	9	1	0.662097	0.662097	0	1	0	0	CorrectCommission	0.214576	0.391656	1	1
60.723370	0.792049	city	6	1	0.653089	0.653089	0	1	0	0	CorrectCommission	0.276348	0.365640	1	1
61.515526	0.792264	city	1	1	0.653129	0.653129	0	1	0	0	CorrectCommission	0.276078	0.339650	1	1
62.307789	0.792263	city	3	1	0.645780	0.645780	0	1	0	0	CorrectCommission	0.326472	0.315079	1	1
63.100056	0.792270	city	4	1	0.744872	0.744872	0	1	0	0	CorrectCommission	0.353087	0.293142	1	1
63.892323	0.792264	city	6	1	0.695323	0.695323	0	1	0	0	CorrectCommission	0.013283	0.274799	1	1
64.684639	0.792369	city	1	1	0.645803	0.645803	0	1	0	0	CorrectCommission	0.326319	0.260707	1	1
65.476906	0.792158	city	10	1	0.659994	0.659994	0	1	0	0	CorrectCommission	0.228995	0.251196	1	1
66.269119	0.792269	city	5	1	0.657596	0.657596	0	1	0	0	CorrectCommission	0.245445	0.246285	1	1
67.061378	0.792257	city	4	1	0.698166	0.698166	0	1	0	0	CorrectCommission	0.032782	0.245686	1	1
67.853676	0.792331	city	9	1	0.695488	0.695488	0	1	0	0	CorrectCommission	0.014416	0.248836	1	0
68.645958	0.792238	city	6	1	0.695255	0.695255	0	1	0	0	CorrectCommission	0.012818	0.254944	1	0
69.438187	0.792226	city	5	1	0.766658	0.766658	0	1	0	0	CorrectCommission	0.502495	0.263060	1	0
70.230545	0.792482	city	8	1	0.697797	0.697797	0	1	0	0	CorrectCommission	0.030251	0.272167	1	0
71.022804	0.792043	city	5	1	0.794540	0.794540	0	1	0	0	CorrectCommission	0.693704	0.281320	1	0
71.814987	0.792324	city	3	1	0.649961	0.649961	0	1	0	0	CorrectCommission	0.297803	0.289693	1	0
72.607254	0.792209	city	2	1	0.646225	0.646225	0	1	0	0	CorrectCommission	0.323420	0.296721	1	0
73.399498	0.792270	city	9	1	0.607471	0.607471	0	1	0	0	CorrectCommission	0.589193	0.302088	1	0
74.191765	0.792261	city	5	1	0.646028	0.646028	0	1	0	0	CorrectCommission	0.324773	0.305735	1	0
74.984024	0.792263	city	10	1	0.648556	0.648556	0	1	0	0	CorrectCommission	0.307436	0.307830	1	0
75.776344	0.792374	city	7	1	0.745013	0.745013	0	1	0	0	CorrectCommission	0.354054	0.308674	1	0
76.568611	0.792160	city	10	1	0.695447	0.695447	0	1	0	0	CorrectCommission	0.014134	0.308609	1	0
77.360832	0.792282	city	2	1	0.695491	0.695491	0	1	0	0	CorrectCommission	0.014437	0.307956	1	0
78.153091	0.792247	city	5	1	0.744795	0.744795	0	1	0	0	CorrectCommission	0.352557	0.306947	1	0
78.945351	0.792261	city	7	1	0.799430	0.799430	0	1	0	0	CorrectCommission	0.727238	0.305699	1	0
79.737610	0.792268	city	2	1	0.715133	0.715133	0	1	0	0	CorrectCommission	0.149140	0.304260	1	0
80.529930	0.792371	city	3	1	0.645969	0.645969	0	1	0	0	CorrectCommission	0.325179	0.302667	1	0
81.322197	0.792160	city	7	1	0.646717	0.646717	0	1	0	0	CorrectCommission	0.320051	0.300987	1	0
82.114410	0.792262	city	1	1	0.658935	0.658935	0	1	0	0	CorrectCommission	0.236258	0.299367	1	0
82.906670	0.792262	city	8	1	0.605878	0.605878	0	1	0	0	CorrectCommission	0.600116	0.298072	1	0
83.698936	0.792267	city	1	1	0.744955	0.744955	0	1	0	0	CorrectCommission	0.353655	0.297459	1	0
84.491257	0.792372	city	2	1	0.700183	0.700183	0	1	0	0	CorrectCommission	0.046618	0.297952	1	0
85.283524	0.792161	city	4	1	0.665957	0.665957	0	1	0	0	CorrectCommission	0.188106	0.299972	1	0
86.075783	0.792369	city	6	1	0.701089	0.701089	0	1	0	0	CorrectCommission	0.052827	0.303858	1	0
86.868057	0.792172	city	2	1	0.744754	0.744754	0	1	0	0	CorrectCommission	0.352276	0.309783	1	0
87.660378	0.792467	city	1	1	0.747285	0.747285	0	1	0	0	CorrectCommission	0.369635	0.317728	1	0
88.452629	0.792045	city	6	1	0.794113	0.794113	0	1	0	0	CorrectCommission	0.690776	0.327435	1	0
89.244789	0.792266	city	10	1	0.707309	0.707309	0	1	0	0	CorrectCommission	0.095481	0.338431	1	0
90.037056	0.792265	city	3	1	0.695459	0.695459	0	1	0	0	CorrectCommission	0.014215	0.350110	1	0
90.829323	0.792269	city	7	1	0.704249	0.704249	0	1	0	0	CorrectCommission	0.074497	0.361793	1	0
91.621590	0.792264	city	3	1	0.747943	0.747943	0	1	0	0	CorrectCommission	0.374146	0.372861	1	0
92.413857	0.792272	city	2	1	0.810862	0.810862	0	1	0	0	CorrectCommission	0.805638	0.382901	1	0
93.206116	0.792253	city	6	1	0.844230	0.844230	0	1	0	0	CorrectCommission	1.034470	0.391799	1	0
93.998375	0.792266	city	2	1	0.744966	0.744966	0	1	0	0	CorrectCommission	0.353734	0.399832	1	0
94.790749	0.792482	city	10	1	0.744891	0.744891	0	1	0	0	CorrectCommission	0.353217	0.407696	1	0
95.583069	0.792156	city	5	1	0.744618	0.744618	0	1	0	0	CorrectCommission	0.351343	0.416469	1	0
96.375229	0.792158	city	2	1	0.758385	0.758385	0	1	0	0	CorrectCommission	0.445760	0.427516	1	0
97.167488	0.792371	mountain	6	0	0.000000	0.703473	1	0	0	0	CorrectOmission	0.069178	0.442381	1	0
97.959755	0.792156	city	2	1	0.645720	0.645720	0	1	0	0	CorrectCommission	0.326887	0.462681	1	0
98.751968	0.792268	mountain	3	0	0.000000	0.650965	1	0	0	0	CorrectOmission	0.290918	0.489985	1	0
99.544342	0.792479	city	7	1	0.695268	0.695268	0	1	0	0	CorrectCommission	0.012910	0.525750	1	0
100.336601	0.792047	city	5	1	0.754691	0.754691	0	1	0	0	CorrectCommission	0.420425	0.571268	1	0
101.128761	0.792266	city	3	1	0.843926	0.843926	0	1	0	0	CorrectCommission	1.032386	0.627585	1	0
101.921028	0.792267	city	10	1	0.794346	0.794346	0	1	0	0	CorrectCommission	0.692372	0.695445	0	0
102.713295	0.792265	city	5	1	0.846450	0.846450	0	1	0	0	CorrectCommission	1.049699	0.775174	0	0
103.505554	0.792261	city	2	1	0.794374	0.794374	0	1	0	0	CorrectCommission	0.692567	0.866553	0	0
104.297836	0.792299	city	4	1	0.715023	0.715023	0	1	0	0	CorrectCommission	0.148387	0.968663	0	0
105.090103	0.792231	mountain	4	0	0.000000	0.648835	1	0	0	0	CorrectOmission	0.305524	1.079758	0	0
105.882454	0.792483	city	3	1	0.605819	0.605819	0	1	0	0	CorrectCommission	0.600525	1.197192	0	0
106.674744	0.792084	city	8	1	0.595984	0.595984	0	1	0	0	CorrectCommission	0.667972	1.317506	0	0
107.466896	0.792227	mountain	3	0	0.000000	0.355103	1	0	0	0	CorrectOmission	2.319901	1.436604	0	0
108.259193	0.792372	city	8	1	0.348724	0.348724	0	1	0	0	CorrectCommission	2.363650	1.549985	0	0
109.051460	0.792158	city	2	1	1.042392	1.042392	0	1	0	0	CorrectCommission	2.393443	1.653127	0	0
109.843781	0.792481	city	9	1	0.942956	0.942956	0	1	0	0	CorrectCommission	1.711522	1.741768	0	0
110.636047	0.792052	city	6	1	1.091264	1.091264	0	1	0	0	CorrectCommission	2.728601	1.812195	0	0
111.428253	0.792368	city	5	1	1.041913	1.041913	0	1	0	0	CorrectCommission	2.390157	1.861387	0	0
112.220520	0.792158	city	7	1	0.907447	0.907447	0	1	0	0	CorrectCommission	1.468007	1.887220	0	0
113.012749	0.792298	city	5	1	0.900283	0.900283	0	1	0	0	CorrectCommission	1.418873	1.888549	0	0
113.805069	0.792340	city	8	1	0.992397	0.992397	0	1	0	0	CorrectCommission	2.050582	1.865318	0	0
114.597420	0.792373	city	1	1	1.042363	1.042363	0	1	0	0	CorrectCommission	2.393244	1.818702	0	0
115.389740	0.792265	city	9	1	1.190321	1.190321	0	1	0	0	CorrectCommission	3.407921	1.751195	0	0
116.181900	0.792047	city	3	1	1.091359	1.091359	0	1	0	0	CorrectCommission	2.729252	1.666604	0	0
116.974075	0.792310	city	7	1	0.995495	0.995495	0	1	0	0	CorrectCommission	2.071826	1.569974	0	0
117.766342	0.792220	mountain	5	0	0.000000	0.737897	1	0	0	0	CorrectOmission	0.305251	1.467235	0	0
118.558693	0.792480	city	7	1	0.510265	0.510265	0	1	0	0	CorrectCommission	1.255817	1.364731	0	0
119.351067	0.792266	city	1	1	0.504301	0.504301	0	1	0	0	CorrectCommission	1.296721	1.268571	0	0
120.143219	0.792047	city	2	1	0.596093	0.596093	0	1	0	0	CorrectCommission	0.667225	1.184006	0	0
120.935486	0.792483	city	5	1	0.652892	0.652892	0	1	0	0	CorrectCommission	0.277701	1.114842	0	0
121.727753	0.792051	city	4	1	0.704750	0.704750	0	1	0	0	CorrectCommission	0.077931	1.062998	0	0
122.519928	0.792304	city	1	1	0.646163	0.646163	0	1	0	0	CorrectCommission	0.323850	1.028338	0	0
123.312218	0.792262	city	8	1	0.648515	0.648515	0	1	0	0	CorrectCommission	0.307716	1.008793	0	0
124.104454	0.792222	city	2	0	0.000000	0.607471	0	0	0	1	OmissionError	0.589191	1.000794	0	0
124.896812	0.792490	city	10	1	0.511390	0.511390	0	1	0	0	CorrectCommission	1.248105	0.999874	0	0
125.689079	0.792042	city	4	1	0.348631	0.348631	0	1	0	0	CorrectCommission	2.364288	1.001390	0	0
126.481232	0.792262	city	9	1	0.414858	0.414858	0	1	0	0	CorrectCommission	1.910109	1.001206	0	0
127.273537	0.792346	city	10	1	0.398349	0.398349	0	1	0	0	CorrectCommission	2.023327	0.996242	0	1
128.065796	0.792183	city	1	1	0.596392	0.596392	0	1	0	0	CorrectCommission	0.665175	0.984685	0	1
128.858078	0.792373	city	9	1	0.645776	0.645776	0	1	0	0	CorrectCommission	0.326500	0.966031	0	1
129.650345	0.792158	city	8	1	0.549431	0.549431	0	1	0	0	CorrectCommission	0.987224	0.940815	0	1
130.442551	0.792265	city	10	1	0.555464	0.555464	0	1	0	0	CorrectCommission	0.945853	0.910217	0	1
131.234818	0.792270	city	4	1	0.596294	0.596294	0	1	0	0	CorrectCommission	0.665844	0.875657	0	1
132.027084	0.792258	city	3	1	0.596445	0.596445	0	1	0	0	CorrectCommission	0.664807	0.838450	0	1
132.819397	0.792376	city	8	1	0.596450	0.596450	0	1	0	0	CorrectCommission	0.664771	0.799548	0	1
133.611664	0.792154	city	7	1	0.744925	0.744925	0	1	0	0	CorrectCommission	0.353453	0.759524	0	1
134.403992	0.792483	city	5	1	0.844042	0.844042	0	1	0	0	CorrectCommission	1.033182	0.718627	0	1
135.196304	0.792157	city	2	1	0.843684	0.843684	0	1	0	0	CorrectCommission	1.030727	0.677006	0	1
135.988464	0.792177	city	9	1	0.858398	0.858398	0	1	0	0	CorrectCommission	1.131633	0.634895	1	1
136.780685	0.792246	city	6	1	0.794301	0.794301	0	1	0	0	CorrectCommission	0.692065	0.592820	1	1
137.572998	0.792370	city	8	1	0.795451	0.795451	0	1	0	0	CorrectCommission	0.699951	0.551722	1	1
138.365250	0.792160	city	9	1	0.746565	0.746565	0	1	0	0	CorrectCommission	0.364700	0.512907	1	1
139.157471	0.792262	city	10	1	0.695359	0.695359	0	1	0	0	CorrectCommission	0.013531	0.477939	1	1
139.949753	0.792297	city	8	1	0.744811	0.744811	0	1	0	0	CorrectCommission	0.352670	0.448411	1	1
140.742004	0.792236	city	3	1	0.695250	0.695250	0	1	0	0	CorrectCommission	0.012786	0.425683	1	1
141.534317	0.792372	city	6	1	0.744846	0.744846	0	1	0	0	CorrectCommission	0.352912	0.410671	1	1
142.326691	0.792371	city	8	1	0.695228	0.695228	0	1	0	0	CorrectCommission	0.012631	0.403659	1	1
143.118896	0.792052	city	7	1	0.744666	0.744666	0	1	0	0	CorrectCommission	0.351676	0.404231	1	1
143.911057	0.792261	city	8	1	0.744963	0.744963	0	1	0	0	CorrectCommission	0.353711	0.411311	1	1
144.703339	0.792292	city	7	1	0.761115	0.761115	0	1	0	0	CorrectCommission	0.464476	0.423283	1	1
145.495651	0.792345	city	5	1	0.744919	0.744919	0	1	0	0	CorrectCommission	0.353406	0.438210	1	1
146.287903	0.792157	city	4	1	0.713616	0.713616	0	1	0	0	CorrectCommission	0.138736	0.454058	1	1
147.080109	0.792268	city	9	1	0.794501	0.794501	0	1	0	0	CorrectCommission	0.693437	0.468950	1	1
147.872375	0.792261	city	10	1	0.794326	0.794326	0	1	0	0	CorrectCommission	0.692234	0.481365	1	1
148.664642	0.792268	city	6	1	0.893331	0.893331	0	1	0	0	CorrectCommission	1.371198	0.490331	1	1
149.456909	0.792264	city	10	1	0.645724	0.645724	0	1	0	0	CorrectCommission	0.326860	0.495444	1	1
150.249176	0.792262	city	4	1	0.843931	0.843931	0	1	0	0	CorrectCommission	1.032420	0.496892	1	1
151.041443	0.792267	city	2	1	0.695758	0.695758	0	1	0	0	CorrectCommission	0.016272	0.495278	1	1
151.833694	0.792262	city	4	1	0.659678	0.659678	0	1	0	0	CorrectCommission	0.231161	0.491503	1	1
152.626068	0.792482	city	9	1	0.645777	0.645777	0	1	0	0	CorrectCommission	0.326498	0.486541	1	1
153.418335	0.792050	city	6	1	0.645553	0.645553	0	1	0	0	CorrectCommission	0.328034	0.481297	1	1
154.210495	0.792267	city	9	1	0.645833	0.645833	0	1	0	0	CorrectCommission	0.326111	0.476498	1	1
155.002762	0.792262	city	5	1	0.596285	0.596285	0	1	0	0	CorrectCommission	0.665903	0.472655	1	1
155.795029	0.792264	city	1	1	0.565253	0.565253	0	1	0	0	CorrectCommission	0.878716	0.470079	1	1
156.587402	0.792481	city	4	1	0.645986	0.645986	0	1	0	0	CorrectCommission	0.325059	0.468951	1	1
157.379715	0.792157	city	3	1	0.609009	0.609009	0	1	0	0	CorrectCommission	0.578643	0.469397	1	1
158.171921	0.792264	city	2	1	0.648748	0.648748	0	1	0	0	CorrectCommission	0.306119	0.471566	1	1
158.964188	0.792264	city	7	1	0.648091	0.648091	0	1	0	0	CorrectCommission	0.310623	0.475698	1	1
159.756424	0.792212	city	3	1	0.747285	0.747285	0	1	0	0	CorrectCommission	0.369634	0.482168	1	1
160.548645	0.792216	city	2	1	0.794887	0.794887	0	1	0	0	CorrectCommission	0.696086	0.491505	1	1
161.340988	0.792475	city	5	1	0.695360	0.695360	0	1	0	0	CorrectCommission	0.013537	0.504387	1	1
162.133255	0.792052	city	10	1	0.596332	0.596332	0	1	0	0	CorrectCommission	0.665582	0.521644	1	1
162.925415	0.792259	city	3	1	0.596287	0.596287	0	1	0	0	CorrectCommission	0.665894	0.544126	1	1
163.717667	0.792264	city	7	1	0.547062	0.547062	0	1	0	0	CorrectCommission	1.003472	0.572621	1	1
164.509933	0.792266	city	10	1	0.645815	0.645815	0	1	0	0	CorrectCommission	0.326237	0.607671	1	1
165.302261	0.792373	city	7	1	0.645787	0.645787	0	1	0	0	CorrectCommission	0.326423	0.649451	1	1
166.094513	0.792158	city	2	1	0.653244	0.653244	0	1	0	0	CorrectCommission	0.275288	0.697560	0	1
166.886734	0.792265	city	5	1	0.657518	0.657518	0	1	0	0	CorrectCommission	0.245973	0.751004	0	1
167.679001	0.792267	city	7	1	0.601234	0.601234	0	1	0	0	CorrectCommission	0.631965	0.808173	0	1
168.471313	0.792369	city	3	1	0.546810	0.546810	0	1	0	0	CorrectCommission	1.005197	0.867008	0	1
169.263580	0.792158	city	7	1	0.596233	0.596233	0	1	0	0	CorrectCommission	0.666264	0.925224	0	1
170.055786	0.792264	mountain	1	0	0.000000	0.538492	1	0	0	0	CorrectOmission	1.062241	0.980654	0	1
170.848053	0.792265	city	1	1	0.447743	0.447743	0	1	0	0	CorrectCommission	1.684585	1.031532	0	1
171.640320	0.792264	city	2	1	0.398141	0.398141	0	1	0	0	CorrectCommission	2.024753	1.076762	0	1
172.432632	0.792372	city	8	1	0.497263	0.497263	0	1	0	0	CorrectCommission	1.344989	1.116037	0	1
173.224899	0.792160	city	10	1	0.447958	0.447958	0	1	0	0	CorrectCommission	1.683116	1.149780	0	1
174.017151	0.792325	city	2	1	0.497406	0.497406	0	1	0	0	CorrectCommission	1.344002	1.178888	0	1
174.809402	0.792200	city	8	1	0.611360	0.611360	0	1	0	0	CorrectCommission	0.562526	1.204423	0	1
175.601746	0.792485	city	7	1	0.645865	0.645865	0	1	0	0	CorrectCommission	0.325891	1.227213	0	1
176.394012	0.792049	city	9	1	0.658653	0.658653	0	1	0	0	CorrectCommission	0.238193	1.247533	0	1
177.186172	0.792266	city	8	1	0.500173	0.500173	0	1	0	0	CorrectCommission	1.325027	1.264967	0	1
177.978485	0.792369	city	1	1	0.406710	0.406710	0	1	0	0	CorrectCommission	1.965990	1.278408	0	1
178.770752	0.792156	city	9	1	0.447659	0.447659	0	1	0	0	CorrectCommission	1.685168	1.286320	0	1
179.562988	0.792317	city	8	1	0.447734	0.447734	0	1	0	0	CorrectCommission	1.684649	1.287065	0	1
180.355362	0.792430	city	5	1	0.398192	0.398192	0	1	0	0	CorrectCommission	2.024403	1.279270	0	1
181.147629	0.792097	city	1	1	0.497153	0.497153	0	1	0	0	CorrectCommission	1.345740	1.262156	0	1
181.939789	0.792216	city	8	1	0.497202	0.497202	0	1	0	0	CorrectCommission	1.345405	1.235793	0	1
182.732025	0.792267	city	7	1	0.498130	0.498130	0	1	0	0	CorrectCommission	1.339040	1.201130	0	1
183.524338	0.792370	city	1	1	0.499883	0.499883	0	1	0	0	CorrectCommission	1.327021	1.159939	0	1
184.316650	0.792239	city	8	1	0.546749	0.546749	0	1	0	0	CorrectCommission	1.005619	1.114622	0	1
185.108856	0.792185	city	1	1	0.546662	0.546662	0	1	0	0	CorrectCommission	1.006210	1.067930	0	1
185.901123	0.792330	city	2	1	0.596278	0.596278	0	1	0	0	CorrectCommission	0.665950	1.022672	0	1
186.693390	0.792198	city	6	1	0.596445	0.596445	0	1	0	0	CorrectCommission	0.664810	0.981428	0	0
187.485611	0.792260	city	8	1	0.563228	0.563228	0	1	0	0	CorrectCommission	0.892609	0.946321	0	0
188.277878	0.792266	city	2	1	0.566946	0.566946	0	1	0	0	CorrectCommission	0.867107	0.918866	0	0
189.070145	0.792268	city	3	1	0.610306	0.610306	0	1	0	0	CorrectCommission	0.569753	0.899909	0	0
189.862457	0.792373	city	7	1	0.497676	0.497676	0	1	0	0	CorrectCommission	1.342157	0.889635	0	0
190.654724	0.792156	city	6	1	0.596477	0.596477	0	1	0	0	CorrectCommission	0.664589	0.887652	0	0
191.447052	0.792480	city	8	1	0.657716	0.657716	0	1	0	0	CorrectCommission	0.244617	0.893155	0	0
192.239304	0.792050	city	5	1	0.614346	0.614346	0	1	0	0	CorrectCommission	0.542044	0.905078	0	0
193.031570	0.792480	city	2	1	0.794343	0.794343	0	1	0	0	CorrectCommission	0.692351	0.922279	0	0
193.823837	0.792048	city	4	1	0.861828	0.861828	0	1	0	0	CorrectCommission	1.155159	0.943757	0	0
194.616013	0.792301	city	2	1	0.897183	0.897183	0	1	0	0	CorrectCommission	1.397615	0.968788	0	0
195.408279	0.792227	city	10	1	0.893466	0.893466	0	1	0	0	CorrectCommission	1.372129	0.997056	0	0
196.200531	0.792269	city	9	1	0.952263	0.952263	0	1	0	0	CorrectCommission	1.775348	1.028651	0	0
196.992905	0.792478	city	4	1	0.843873	0.843873	0	1	0	0	CorrectCommission	1.032024	1.063932	0	0
197.785156	0.792046	city	9	1	0.744626	0.744626	0	1	0	0	CorrectCommission	0.351397	1.103329	0	0
198.577316	0.792269	city	6	1	0.744974	0.744974	0	1	0	0	CorrectCommission	0.353783	1.147095	0	0
199.369614	0.792329	city	1	1	0.764418	0.764418	0	1	0	0	CorrectCommission	0.487132	1.195031	0	0
200.161880	0.792200	city	7	1	0.798461	0.798461	0	1	0	0	CorrectCommission	0.720590	1.246331	0	0
200.954117	0.792265	city	2	1	0.996708	0.996708	0	1	0	0	CorrectCommission	2.080148	1.299536	0	0
201.746490	0.792479	city	7	1	0.943533	0.943533	0	1	0	0	CorrectCommission	1.715478	1.352590	0	0
202.538757	0.792064	city	5	1	0.956784	0.956784	0	1	0	0	CorrectCommission	1.806355	1.403039	0	0
203.330963	0.792358	city	6	1	0.995206	0.995206	0	1	0	0	CorrectCommission	2.069846	1.448221	0	0
204.123230	0.792156	city	8	1	0.943099	0.943099	0	1	0	0	CorrectCommission	1.712500	1.485501	0	0
204.915436	0.792267	mountain	5	0	0.000000	0.700529	1	0	0	0	CorrectOmission	0.048985	1.512505	0	0
205.707703	0.792267	city	9	1	0.447886	0.447886	0	1	0	0	CorrectCommission	1.683605	1.527349	0	0
206.500076	0.792477	city	10	1	0.365562	0.365562	0	1	0	0	CorrectCommission	2.248172	1.528731	0	0
207.292450	0.792266	city	6	1	0.348505	0.348505	0	1	0	0	CorrectCommission	2.365148	1.516128	0	0
208.084610	0.792073	mountain	4	1	0.348728	0.348728	0	0	1	0	CommissionError	2.363618	1.489952	0	0
208.876770	0.792241	city	3	1	0.449364	0.449364	0	1	0	0	CorrectCommission	1.673473	1.451517	0	0
209.669083	0.792369	city	4	1	0.547010	0.547010	0	1	0	0	CorrectCommission	1.003828	1.402988	0	0
210.461349	0.792162	city	6	1	0.505900	0.505900	0	1	0	0	CorrectCommission	1.285758	1.347264	0	0
211.253662	0.792477	mountain	4	0	0.000000	0.483867	1	0	0	0	CorrectOmission	1.436856	1.287730	0	0
212.045929	0.792046	city	6	1	0.506771	0.506771	0	1	0	0	CorrectCommission	1.279779	1.228036	0	0
212.838089	0.792267	city	3	1	0.600473	0.600473	0	1	0	0	CorrectCommission	0.637183	1.171811	0	0
213.630402	0.792372	city	2	1	0.546735	0.546735	0	1	0	0	CorrectCommission	1.005714	1.122365	0	0
214.422714	0.792263	city	3	1	0.554096	0.554096	0	1	0	0	CorrectCommission	0.955230	1.082411	0	0
215.214935	0.792157	mountain	2	0	0.000000	0.582903	1	0	0	0	CorrectOmission	0.757680	1.053871	0	0
216.007141	0.792271	city	8	1	0.596304	0.596304	0	1	0	0	CorrectCommission	0.665777	1.037655	0	0
216.799469	0.792366	city	6	1	0.557449	0.557449	0	1	0	0	CorrectCommission	0.932239	1.033562	0	0
217.591721	0.792156	city	9	1	0.596217	0.596217	0	1	0	0	CorrectCommission	0.666372	1.040244	0	0
218.383942	0.792265	city	2	1	0.561583	0.561583	0	1	0	0	CorrectCommission	0.903888	1.055268	0	0
219.176239	0.792337	city	8	1	0.546807	0.546807	0	1	0	0	CorrectCommission	1.005216	1.075312	0	0
219.968506	0.792199	city	6	1	0.557398	0.557398	0	1	0	0	CorrectCommission	0.932589	1.096456	0	0
220.760727	0.792257	city	3	1	0.546773	0.546773	0	1	0	0	CorrectCommission	1.005450	1.114593	0	0
221.553055	0.792374	mountain	5	1	0.550663	0.550663	0	0	1	0	CommissionError	0.978779	1.125913	0	0
222.345306	0.792155	city	4	1	0.600124	0.600124	0	1	0	0	CorrectCommission	0.639577	1.127431	0	0
223.137634	0.792485	mountain	3	1	1.191239	1.191239	0	0	1	0	CommissionError	3.414217	1.117340	0	0
223.929916	0.792085	mountain	7	0	0.000000	1.126003	1	0	0	0	CorrectOmission	2.966834	1.095224	0	0
224.722092	0.792267	city	9	1	0.846782	0.846782	0	1	0	0	CorrectCommission	1.051975	1.062209	0	0
225.514389	0.792331	city	7	1	0.795944	0.795944	0	1	0	0	CorrectCommission	0.703335	1.020731	0	0
226.306641	0.792157	city	9	1	0.695526	0.695526	0	1	0	0	CorrectCommission	0.014678	0.974071	0	0
227.098846	0.792265	city	2	1	0.757061	0.757061	0	1	0	0	CorrectCommission	0.436675	0.925816	0	0
227.891159	0.792372	city	4	1	0.794350	0.794350	0	1	0	0	CorrectCommission	0.692403	0.879335	0	0
228.683456	0.792204	city	7	1	0.756608	0.756608	0	1	0	0	CorrectCommission	0.433574	0.837348	0	0
229.475723	0.792327	mountain	9	0	0.000000	0.626464	1	0	0	0	CorrectOmission	0.458941	0.801681	0	0
230.267960	0.792156	city	5	1	0.546652	0.546652	0	1	0	0	CorrectCommission	1.006282	0.773248	0	0
231.060287	0.792483	city	7	1	0.659907	0.659907	0	1	0	0	CorrectCommission	0.229591	0.752203	0	0
231.852539	0.792049	city	5	1	0.794182	0.794182	0	1	0	0	CorrectCommission	0.691246	0.738260	0	0
232.644699	0.792261	city	8	1	0.843871	0.843871	0	1	0	0	CorrectCommission	1.032013	0.730980	0	0
233.436981	0.792301	city	4	1	0.893414	0.893414	0	1	0	0	CorrectCommission	1.371767	0.730042	0	0
234.229248	0.792233	city	10	1	0.893415	0.893415	0	1	0	0	CorrectCommission	1.371774	0.735377	0	0
235.021530	0.792323	mountain	9	0	0.000000	0.791613	1	0	0	0	CorrectOmission	0.673633	0.747090	0	0
235.813904	0.792420	city	7	1	0.695333	0.695333	0	1	0	0	CorrectCommission	0.013352	0.765288	0	0
236.606140	0.792076	city	5	1	0.711896	0.711896	0	1	0	0	CorrectCommission	0.126939	0.789720	0	0
237.398407	0.792453	city	7	1	0.794305	0.794305	0	1	0	0	CorrectCommission	0.692090	0.819521	0	0
238.190659	0.792047	city	1	1	0.697900	0.697900	0	1	0	0	CorrectCommission	0.030958	0.853003	0	0
238.982880	0.792375	city	4	1	0.658769	0.658769	0	1	0	0	CorrectCommission	0.237398	0.887725	0	0
239.775192	0.792264	city	10	1	0.761301	0.761301	0	1	0	0	CorrectCommission	0.465757	0.920720	0	0
240.567398	0.792158	city	5	1	0.992305	0.992305	0	1	0	0	CorrectCommission	2.049949	0.948940	0	0
241.359619	0.792269	city	7	1	1.141039	1.141039	0	1	0	0	CorrectCommission	3.069949	0.969845	0	0
242.151886	0.792258	city	10	0	0.000000	0.822616	0	0	0	1	OmissionError	0.886243	0.982046	0	0
242.944138	0.792269	city	7	1	0.468788	0.468788	0	1	0	0	CorrectCommission	1.540266	0.985729	0	0
243.736511	0.792477	city	3	1	0.511307	0.511307	0	1	0	0	CorrectCommission	1.248677	0.982785	0	0
244.528885	0.792265	city	9	1	0.607959	0.607959	0	1	0	0	CorrectCommission	0.585849	0.976836	0	0
245.321045	0.792051	mountain	5	0	0.000000	0.586768	1	0	0	0	CorrectOmission	0.731171	0.972775	0	0
246.113220	0.792290	city	9	1	0.549084	0.549084	0	1	0	0	CorrectCommission	0.989602	0.976166	0	1
246.905487	0.792240	city	10	1	0.596256	0.596256	0	1	0	0	CorrectCommission	0.666103	0.992483	0	1
247.697784	0.792369	city	5	1	0.645801	0.645801	0	1	0	0	CorrectCommission	0.326332	1.026302	0	1
248.490051	0.792157	city	7	1	0.695784	0.695784	0	1	0	0	CorrectCommission	0.016449	1.080542	0	1
249.282257	0.792263	city	6	1	0.843945	0.843945	0	1	0	0	CorrectCommission	1.032519	1.155871	0	1
250.074524	0.792266	city	3	0	0.000000	0.661820	0	0	0	1	OmissionError	0.216476	1.250344	0	1
250.866806	0.792313	city	9	1	0.501212	0.501212	0	1	0	0	CorrectCommission	1.317903	1.359425	0	1
251.659073	0.792215	city	7	1	0.713928	0.713928	0	1	0	0	CorrectCommission	0.140873	1.476222	0	1
252.451431	0.792485	city	8	1	0.957295	0.957295	0	1	0	0	CorrectCommission	1.809858	1.592190	0	1
253.243698	0.792049	city	2	1	0.997085	0.997085	0	1	0	0	CorrectCommission	2.082730	1.697926	0	1
254.035843	0.792264	city	8	1	1.091407	1.091407	0	1	0	0	CorrectCommission	2.729582	1.784257	0	1
254.828110	0.792243	city	1	1	1.147672	1.147672	0	1	0	0	CorrectCommission	3.115437	1.843219	0	1
255.620483	0.792501	city	7	1	1.190621	1.190621	0	1	0	0	CorrectCommission	3.409980	1.868989	0	1
256.412750	0.792055	city	8	1	1.190269	1.190269	0	1	0	0	CorrectCommission	3.407566	1.858493	0	1
257.204956	0.792372	city	3	1	1.193377	1.193377	0	1	0	0	CorrectCommission	3.428876	1.811675	0	1
257.997253	0.792174	mountain	5	0	0.000000	0.840715	1	0	0	0	CorrectOmission	1.010363	1.731370	0	1
258.789459	0.792241	city	6	1	0.650545	0.650545	0	1	0	0	CorrectCommission	0.293797	1.622918	0	1
259.581818	0.792481	mountain	1	1	1.141129	1.141129	0	0	1	0	CommissionError	3.070572	1.493470	0	1
260.374115	0.792156	mountain	6	0	0.000000	0.934545	1	0	0	0	CorrectOmission	1.653844	1.351108	0	1
261.166290	0.792191	city	3	1	0.609557	0.609557	0	1	0	0	CorrectCommission	0.574885	1.204156	0	1
261.958557	0.792338	city	6	1	0.744930	0.744930	0	1	0	0	CorrectCommission	0.353484	1.060382	0	1
262.750824	0.792157	city	3	1	0.794249	0.794249	0	1	0	0	CorrectCommission	0.691709	0.926391	0	1
263.543030	0.792267	city	4	1	0.695276	0.695276	0	1	0	0	CorrectCommission	0.012966	0.807237	0	1
264.335327	0.792332	city	3	1	0.647754	0.647754	0	1	0	0	CorrectCommission	0.312935	0.706264	0	1
265.127594	0.792223	city	10	1	0.645755	0.645755	0	1	0	0	CorrectCommission	0.326647	0.625071	1	1
265.919891	0.792345	city	1	1	0.654247	0.654247	0	1	0	0	CorrectCommission	0.268412	0.563705	1	1
266.712128	0.792159	city	7	1	0.751680	0.751680	0	1	0	0	CorrectCommission	0.399772	0.520873	1	1
267.504364	0.792266	mountain	5	0	0.000000	0.694115	1	0	0	0	CorrectOmission	0.005000	0.494331	1	1
268.296600	0.792261	city	4	1	0.602398	0.602398	0	1	0	0	CorrectCommission	0.623985	0.481223	1	1
269.088867	0.792267	city	7	1	0.597373	0.597373	0	1	0	0	CorrectCommission	0.658443	0.478435	1	1
269.881165	0.792332	city	9	1	0.696186	0.696186	0	1	0	0	CorrectCommission	0.019206	0.482886	1	1
270.673492	0.792268	mountain	2	0	0.000000	0.637903	1	0	0	0	CorrectOmission	0.380495	0.491798	1	1
271.465698	0.792190	city	4	1	0.546710	0.546710	0	1	0	0	CorrectCommission	1.005882	0.502834	1	1
272.257935	0.792265	city	1	1	0.546796	0.546796	0	1	0	0	CorrectCommission	1.005295	0.514196	1	1
273.050201	0.792268	city	7	1	0.759394	0.759394	0	1	0	0	CorrectCommission	0.452676	0.524681	1	1
273.842468	0.792264	city	3	1	0.703112	0.703112	0	1	0	0	CorrectCommission	0.066703	0.533630	1	1
274.634735	0.792265	city	2	1	0.749821	0.749821	0	1	0	0	CorrectCommission	0.387023	0.540819	1	1
275.427002	0.792306	city	6	1	0.893436	0.893436	0	1	0	0	CorrectCommission	1.371920	0.546357	1	1
276.219269	0.792226	city	1	1	0.756581	0.756581	0	1	0	0	CorrectCommission	0.433386	0.550553	1	1
277.011566	0.792370	city	10	1	0.744911	0.744911	0	1	0	0	CorrectCommission	0.353357	0.553788	1	1
277.803894	0.792231	city	7	1	0.757873	0.757873	0	1	0	0	CorrectCommission	0.442249	0.556419	1	1
278.596100	0.792187	city	3	1	0.744837	0.744837	0	1	0	0	CorrectCommission	0.352843	0.558751	1	1
279.388367	0.792375	city	5	1	0.710243	0.710243	0	1	0	0	CorrectCommission	0.115603	0.561030	1	1
280.180634	0.792160	mountain	8	0	0.000000	0.581458	1	0	0	0	CorrectOmission	0.767586	0.563482	1	1
280.972839	0.792263	city	6	1	0.497256	0.497256	0	1	0	0	CorrectCommission	1.345034	0.566373	1	1
281.765137	0.792289	city	1	1	0.596410	0.596410	0	1	0	0	CorrectCommission	0.665049	0.570065	1	1
282.557404	0.792287	city	6	1	0.645756	0.645756	0	1	0	0	CorrectCommission	0.326641	0.575064	1	1
283.349670	0.792219	city	5	1	0.596639	0.596639	0	1	0	0	CorrectCommission	0.663475	0.581949	1	1
284.141907	0.792261	city	2	1	0.645803	0.645803	0	1	0	0	CorrectCommission	0.326316	0.591286	1	1
284.934174	0.792263	city	7	1	0.745326	0.745326	0	1	0	0	CorrectCommission	0.356197	0.603556	1	1
285.726440	0.792266	city	5	1	0.761164	0.761164	0	1	0	0	CorrectCommission	0.464813	0.618984	1	1
286.518707	0.792301	city	7	1	0.804007	0.804007	0	1	0	0	CorrectCommission	0.758626	0.637461	1	1
287.310974	0.792229	city	10	1	0.744812	0.744812	0	1	0	0	CorrectCommission	0.352672	0.658481	1	1
288.103241	0.792263	city	1	1	0.802320	0.802320	0	1	0	0	CorrectCommission	0.747055	0.681163	0	1
288.895599	0.792484	city	3	1	0.794393	0.794393	0	1	0	0	CorrectCommission	0.692699	0.704276	0	1
289.687897	0.792116	city	6	1	0.794212	0.794212	0	1	0	0	CorrectCommission	0.691456	0.726412	0	1
290.480103	0.792304	city	9	1	0.761357	0.761357	0	1	0	0	CorrectCommission	0.466139	0.746155	0	1
291.272369	0.792210	city	10	1	0.847633	0.847633	0	1	0	0	CorrectCommission	1.057809	0.762258	0	1
292.064575	0.792215	city	4	1	0.942904	0.942904	0	1	0	0	CorrectCommission	1.711167	0.773774	0	1
292.856812	0.792262	city	1	1	0.847108	0.847108	0	1	0	0	CorrectCommission	1.054210	0.780188	0	1
293.649078	0.792263	city	7	1	0.806074	0.806074	0	1	0	0	CorrectCommission	0.772800	0.781506	0	1
294.441467	0.792481	city	6	1	0.755507	0.755507	0	1	0	0	CorrectCommission	0.426021	0.778173	0	1
295.233765	0.792158	city	9	1	0.744770	0.744770	0	1	0	0	CorrectCommission	0.352387	0.771006	0	1
296.025940	0.792155	city	7	1	0.794222	0.794222	0	1	0	0	CorrectCommission	0.691522	0.761052	0	1
296.818146	0.792285	city	5	1	0.844057	0.844057	0	1	0	0	CorrectCommission	1.033286	0.749450	0	1
297.610474	0.792353	city	7	1	0.893336	0.893336	0	1	0	0	CorrectCommission	1.371236	0.737254	0	1
298.402771	0.792265	city	3	1	0.794373	0.794373	0	1	0	0	CorrectCommission	0.692556	0.725306	0	1
299.195099	0.792373	mountain	2	0	0.000000	0.765968	1	0	0	0	CorrectOmission	0.497763	0.714162	0	1
299.987305	0.792069	city	2	1	0.744637	0.744637	0	1	0	0	CorrectCommission	0.351474	0.703992	0	1
300.779510	0.792315	mountain	1	0	0.000000	0.666891	1	0	0	0	CorrectOmission	0.181696	0.694557	0	1
301.571777	0.792192	city	7	1	0.596257	0.596257	0	1	0	0	CorrectCommission	0.666096	0.685282	0	1
302.363983	0.792267	city	1	1	0.596260	0.596260	0	1	0	0	CorrectCommission	0.666075	0.675355	0	1
303.156281	0.792319	city	6	1	0.546921	0.546921	0	1	0	0	CorrectCommission	1.004436	0.663916	0	1
303.948608	0.792319	city	7	1	0.596245	0.596245	0	1	0	0	CorrectCommission	0.666180	0.650260	1	1
304.740845	0.792159	mountain	4	0	0.000000	0.541121	1	0	0	0	CorrectOmission	1.044211	0.634024	1	1
305.533081	0.792285	city	7	1	0.497332	0.497332	0	1	0	0	CorrectCommission	1.344514	0.615289	1	0
306.325378	0.792349	mountain	7	0	0.000000	0.580659	1	0	0	0	CorrectOmission	0.773070	0.594616	1	0
307.117645	0.792159	city	7	1	0.695181	0.695181	0	1	0	0	CorrectCommission	0.012313	0.572976	1	0
307.909943	0.792478	city	4	1	0.744980	0.744980	0	1	0	0	CorrectCommission	0.353827	0.551585	1	0
308.702209	0.792049	city	10	1	0.744631	0.744631	0	1	0	0	CorrectCommission	0.351433	0.531657	1	0
309.494385	0.792262	city	5	1	0.695487	0.695487	0	1	0	0	CorrectCommission	0.014412	0.514223	1	0
310.286682	0.792341	mountain	1	0	0.000000	0.645441	1	0	0	0	CorrectOmission	0.328796	0.499985	1	0
311.078979	0.792262	city	1	1	0.596331	0.596331	0	1	0	0	CorrectCommission	0.665588	0.489196	1	0
311.871216	0.792194	city	5	1	0.549995	0.549995	0	1	0	0	CorrectCommission	0.983359	0.481661	1	0
312.663452	0.792271	city	4	1	0.645782	0.645782	0	1	0	0	CorrectCommission	0.326461	0.476785	1	0
313.455719	0.792279	city	3	1	0.717225	0.717225	0	1	0	0	CorrectCommission	0.163486	0.473711	1	0
314.247986	0.792244	city	2	0	0.000000	0.643994	0	0	0	1	OmissionError	0.338724	0.471439	1	0
315.040283	0.792373	city	5	1	0.596394	0.596394	0	1	0	0	CorrectCommission	0.665156	0.468983	1	0
315.832581	0.792194	city	8	1	0.744732	0.744732	0	1	0	0	CorrectCommission	0.352128	0.465532	1	0
316.624878	0.792444	city	1	1	0.794301	0.794301	0	1	0	0	CorrectCommission	0.692063	0.460576	1	0
317.417175	0.792156	city	4	1	0.806784	0.806784	0	1	0	0	CorrectCommission	0.777672	0.453963	1	0
318.209351	0.792156	mountain	10	0	0.000000	0.662267	1	0	0	0	CorrectOmission	0.213412	0.445945	1	0
319.001556	0.792265	city	1	1	0.550687	0.550687	0	1	0	0	CorrectCommission	0.978613	0.437114	1	0
319.793823	0.792265	city	10	1	0.661983	0.661983	0	1	0	0	CorrectCommission	0.215356	0.428308	1	0
320.586182	0.792483	city	5	1	0.744985	0.744985	0	1	0	0	CorrectCommission	0.353862	0.420547	1	0
321.378571	0.792263	city	7	1	0.744624	0.744624	0	1	0	0	CorrectCommission	0.351384	0.414854	1	0
322.170715	0.792046	mountain	5	0	0.000000	0.719945	1	0	0	0	CorrectOmission	0.182138	0.412147	1	0
322.962982	0.792484	city	6	1	0.695317	0.695317	0	1	0	0	CorrectCommission	0.013243	0.413168	1	0
323.755249	0.792047	city	10	1	0.695109	0.695109	0	1	0	0	CorrectCommission	0.011819	0.418469	1	0
324.547424	0.792296	city	3	1	0.744910	0.744910	0	1	0	0	CorrectCommission	0.353346	0.428489	1	0
325.339722	0.792288	city	9	1	0.596319	0.596319	0	1	0	0	CorrectCommission	0.665671	0.443607	1	0
326.131958	0.792211	city	7	1	0.546784	0.546784	0	1	0	0	CorrectCommission	1.005380	0.464249	1	0
326.924255	0.792371	city	8	1	0.546776	0.546776	0	1	0	0	CorrectCommission	1.005430	0.490932	1	0
327.716583	0.792266	city	9	1	0.645713	0.645713	0	1	0	0	CorrectCommission	0.326935	0.524212	1	0
328.508789	0.792168	mountain	4	0	0.000000	0.687581	1	0	0	0	CorrectOmission	0.039806	0.564592	1	0
329.301117	0.792468	city	8	1	0.699087	0.699087	0	1	0	0	CorrectCommission	0.039098	0.612314	1	0
330.093414	0.792157	city	4	1	0.706935	0.706935	0	1	0	0	CorrectCommission	0.092917	0.667177	0	0
330.885590	0.792154	city	6	1	0.744709	0.744709	0	1	0	0	CorrectCommission	0.351969	0.728355	0	0
331.677795	0.792271	city	8	1	0.794902	0.794902	0	1	0	0	CorrectCommission	0.696185	0.794291	0	0
332.470154	0.792477	mountain	8	0	0.000000	0.922414	1	0	0	0	CorrectOmission	1.570650	0.862678	0	0
333.262543	0.792264	city	6	1	0.961052	0.961052	0	1	0	0	CorrectCommission	1.835623	0.930568	0	0
334.054688	0.792050	city	9	1	0.744620	0.744620	0	1	0	0	CorrectCommission	0.351361	0.994560	0	0
334.846863	0.792264	city	6	1	0.705000	0.705000	0	1	0	0	CorrectCommission	0.079651	1.051081	0	0
335.639130	0.792302	city	2	1	0.497513	0.497513	0	1	0	0	CorrectCommission	1.343269	1.096678	0	0
336.431396	0.792230	city	6	1	0.398376	0.398376	0	1	0	0	CorrectCommission	2.023140	1.128337	0	0
337.223663	0.792280	city	2	1	0.398373	0.398373	0	1	0	0	CorrectCommission	2.023163	1.143876	0	0
338.015930	0.792246	city	4	1	0.407599	0.407599	0	1	0	0	CorrectCommission	1.959892	1.142207	0	0
338.808167	0.792269	city	2	1	0.546952	0.546952	0	1	0	0	CorrectCommission	1.004226	1.123510	0	0
339.600494	0.792369	city	1	1	0.497335	0.497335	0	1	0	0	CorrectCommission	1.344495	1.089289	0	0
340.392853	0.792372	city	5	1	0.504298	0.504298	0	1	0	0	CorrectCommission	1.296740	1.042181	0	0
341.185120	0.792157	city	1	1	0.504109	0.504109	0	1	0	0	CorrectCommission	1.298039	0.985758	0	0
341.977295	0.792162	mountain	6	1	0.497151	0.497151	0	0	1	0	CommissionError	1.345754	0.924116	0	0
342.769501	0.792276	city	8	1	0.661899	0.661899	0	1	0	0	CorrectCommission	0.215930	0.861442	0	0
343.561768	0.792250	city	3	1	0.646112	0.646112	0	1	0	0	CorrectCommission	0.324195	0.801594	0	0
344.354126	0.792480	mountain	6	0	0.000000	0.640428	1	0	0	0	CorrectOmission	0.363181	0.747696	0	0
345.146393	0.792046	city	3	1	0.645604	0.645604	0	1	0	0	CorrectCommission	0.327679	0.701926	0	0
345.938568	0.792304	city	9	1	0.662402	0.662402	0	1	0	0	CorrectCommission	0.212479	0.665399	0	0
346.730865	0.792253	city	5	1	0.645761	0.645761	0	1	0	0	CorrectCommission	0.326606	0.638225	1	0
347.523163	0.792346	city	6	1	0.645772	0.645772	0	1	0	0	CorrectCommission	0.326529	0.619679	1	0
348.315399	0.792158	mountain	6	0	0.000000	0.533834	1	0	0	0	CorrectOmission	1.094183	0.608441	1	0
349.107635	0.792290	city	3	1	0.465543	0.465543	0	1	0	0	CorrectCommission	1.562515	0.602863	1	0
349.899933	0.792346	city	5	1	0.596494	0.596494	0	1	0	0	CorrectCommission	0.664471	0.601198	1	0
350.692291	0.792374	city	9	1	0.745102	0.745102	0	1	0	0	CorrectCommission	0.354663	0.601764	1	0
351.484528	0.792051	city	10	1	0.645703	0.645703	0	1	0	0	CorrectCommission	0.327004	0.603001	1	0
352.276672	0.792260	city	6	1	0.695383	0.695383	0	1	0	0	CorrectCommission	0.013699	0.603483	1	0
353.068939	0.792300	city	1	1	0.695394	0.695394	0	1	0	0	CorrectCommission	0.013770	0.601933	1	0
353.861328	0.792448	mountain	5	0	0.000000	0.546193	1	0	0	0	CorrectOmission	1.009433	0.597212	1	0
354.653564	0.792049	mountain	1	1	0.462165	0.462165	0	0	1	0	CommissionError	1.585685	0.588410	1	0
355.445770	0.792372	city	8	1	0.657695	0.657695	0	1	0	0	CorrectCommission	0.244762	0.574944	1	0
356.238037	0.792156	city	7	1	0.546681	0.546681	0	1	0	0	CorrectCommission	1.006084	0.556701	1	0
357.030273	0.792269	city	3	1	0.546899	0.546899	0	1	0	0	CorrectCommission	1.004585	0.534009	1	0
357.822632	0.792479	mountain	10	0	0.000000	0.588259	1	0	0	0	CorrectOmission	0.720944	0.507695	1	0
358.614960	0.792154	mountain	5	0	0.000000	0.645964	1	0	0	0	CorrectOmission	0.325212	0.478994	1	0
359.407104	0.792157	city	7	1	0.695217	0.695217	0	1	0	0	CorrectCommission	0.012562	0.449402	1	0
360.199341	0.792337	mountain	6	0	0.000000	0.711223	1	0	0	0	CorrectOmission	0.122326	0.420520	1	0
360.991608	0.792194	city	7	1	0.695267	0.695267	0	1	0	0	CorrectCommission	0.012900	0.393921	1	0
361.783844	0.792264	city	10	1	0.648634	0.648634	0	1	0	0	CorrectCommission	0.306899	0.371000	1	0
362.576233	0.792481	city	5	1	0.550194	0.550194	0	1	0	0	CorrectCommission	0.981994	0.352947	1	0
363.368500	0.792046	city	1	1	0.695792	0.695792	0	1	0	0	CorrectCommission	0.016502	0.340774	1	0
364.160645	0.792269	city	10	1	0.655744	0.655744	0	1	0	0	CorrectCommission	0.258144	0.335386	1	0
364.952942	0.792342	city	6	1	0.744897	0.744897	0	1	0	0	CorrectCommission	0.353259	0.337583	1	1
365.745331	0.792401	city	4	1	0.668441	0.668441	0	1	0	0	CorrectCommission	0.171069	0.348118	1	1
366.537537	0.792061	city	9	1	0.695132	0.695132	0	1	0	0	CorrectCommission	0.011975	0.367662	1	1
367.329712	0.792252	city	3	1	0.696202	0.696202	0	1	0	0	CorrectCommission	0.019312	0.396720	1	1
368.121979	0.792283	city	1	1	0.843890	0.843890	0	1	0	0	CorrectCommission	1.032138	0.435494	1	1
368.914337	0.792464	city	8	1	0.695378	0.695378	0	1	0	0	CorrectCommission	0.013663	0.483653	1	1
369.706604	0.792049	city	6	1	0.605541	0.605541	0	1	0	0	CorrectCommission	0.602428	0.540223	1	1
370.498779	0.792325	city	1	1	0.645944	0.645944	0	1	0	0	CorrectCommission	0.325349	0.603368	1	1
371.291046	0.792201	city	7	1	0.709098	0.709098	0	1	0	0	CorrectCommission	0.107756	0.670351	0	1
372.083282	0.792269	city	5	1	0.745010	0.745010	0	1	0	0	CorrectCommission	0.354032	0.737596	0	1
372.875549	0.792260	city	7	1	0.796930	0.796930	0	1	0	0	CorrectCommission	0.710093	0.800989	0	1
373.667816	0.792265	city	6	1	0.794388	0.794388	0	1	0	0	CorrectCommission	0.692658	0.856188	0	1
374.460144	0.792375	city	2	1	0.893408	0.893408	0	1	0	0	CorrectCommission	1.371731	0.899208	0	1
375.252502	0.792372	city	7	1	0.900181	0.900181	0	1	0	0	CorrectCommission	1.418180	0.926932	0	1
376.044708	0.792051	city	5	1	1.204256	1.204256	0	1	0	0	CorrectCommission	3.503484	0.937667	0	1
376.836975	0.792479	city	10	0	0.000000	0.951396	0	0	0	1	OmissionError	1.769402	0.931393	0	1
377.629242	0.792050	city	6	1	0.597036	0.597036	0	1	0	0	CorrectCommission	0.660753	0.909947	0	1
378.421417	0.792264	city	1	1	0.596611	0.596611	0	1	0	0	CorrectCommission	0.663671	0.876771	0	1
379.213684	0.792267	city	10	1	0.645822	0.645822	0	1	0	0	CorrectCommission	0.326188	0.836480	0	1
380.006042	0.792478	city	2	1	0.696458	0.696458	0	1	0	0	CorrectCommission	0.021071	0.794299	0	1
380.798370	0.792158	mountain	6	0	0.000000	0.610132	1	0	0	0	CorrectOmission	0.570948	0.755455	0	1
381.590515	0.792154	city	4	1	0.566439	0.566439	0	1	0	0	CorrectCommission	0.870583	0.724554	0	1
382.382751	0.792333	city	3	1	0.744980	0.744980	0	1	0	0	CorrectCommission	0.353825	0.705128	0	1
383.175140	0.792416	city	10	1	0.546669	0.546669	0	1	0	0	CorrectCommission	1.006169	0.699311	0	1
383.967468	0.792265	city	1	1	0.705063	0.705063	0	1	0	0	CorrectCommission	0.080083	0.707650	0	1
384.759644	0.792066	city	7	1	0.704397	0.704397	0	1	0	0	CorrectCommission	0.075515	0.729153	0	1
385.551910	0.792462	city	1	1	0.714692	0.714692	0	1	0	0	CorrectCommission	0.146115	0.761409	0	1
386.344177	0.792050	city	6	1	0.695213	0.695213	0	1	0	0	CorrectCommission	0.012534	0.800974	0	1
387.136322	0.792250	city	1	1	0.655439	0.655439	0	1	0	0	CorrectCommission	0.260234	0.843765	0	1
387.928589	0.792277	city	3	1	1.141000	1.141000	0	1	0	0	CorrectCommission	3.069687	0.885572	0	1
388.720947	0.792481	city	7	1	0.942903	0.942903	0	1	0	0	CorrectCommission	1.711161	0.922496	0	1
389.513214	0.792052	city	4	1	0.942734	0.942734	0	1	0	0	CorrectCommission	1.710001	0.951441	0	1
390.305389	0.792261	mountain	7	0	0.000000	0.744048	1	0	0	0	CorrectOmission	0.347433	0.970279	0	1
391.097626	0.792263	city	3	1	0.546804	0.546804	0	1	0	0	CorrectCommission	1.005236	0.978022	0	1
391.889923	0.792316	mountain	4	0	0.000000	0.550966	1	0	0	0	CorrectOmission	0.976697	0.974714	0	1
392.682312	0.792433	city	7	1	0.596211	0.596211	0	1	0	0	CorrectCommission	0.666413	0.961396	0	1
393.474640	0.792207	mountain	1	0	0.000000	0.522217	1	0	0	0	CorrectOmission	1.173851	0.939884	0	1
394.266785	0.792123	city	5	1	0.461551	0.461551	0	1	0	0	CorrectCommission	1.589896	0.912620	0	1
395.058960	0.792245	city	8	1	0.546775	0.546775	0	1	0	0	CorrectCommission	1.005436	0.882501	0	1
395.851288	0.792374	city	1	1	0.596739	0.596739	0	1	0	0	CorrectCommission	0.662794	0.852687	0	1
396.643555	0.792153	mountain	9	0	0.000000	0.606920	1	0	0	0	CorrectOmission	0.592971	0.826377	0	1
397.435791	0.792347	city	5	1	0.599402	0.599402	0	1	0	0	CorrectCommission	0.644531	0.806577	0	1
398.228180	0.792403	city	2	1	0.596265	0.596265	0	1	0	0	CorrectCommission	0.666041	0.795831	0	1
399.020386	0.792048	mountain	10	1	0.547263	0.547263	0	0	1	0	CommissionError	1.002092	0.795946	0	1
399.812561	0.792263	city	2	1	0.706843	0.706843	0	1	0	0	CorrectCommission	0.092290	0.807781	0	1
400.604919	0.792487	city	5	1	0.699555	0.699555	0	1	0	0	CorrectCommission	0.042308	0.831123	0	1
401.397186	0.792042	city	7	1	0.803909	0.803909	0	1	0	0	CorrectCommission	0.757956	0.864643	0	1
402.189392	0.792372	city	8	1	0.660302	0.660302	0	1	0	0	CorrectCommission	0.226887	0.906002	0	1
402.981781	0.792374	city	6	1	0.603241	0.603241	0	1	0	0	CorrectCommission	0.618201	0.952156	0	1
403.773987	0.792054	city	10	1	0.447548	0.447548	0	1	0	0	CorrectCommission	1.685924	0.999647	0	1
404.566132	0.792262	city	1	1	0.497243	0.497243	0	1	0	0	CorrectCommission	1.345124	1.045068	0	1
405.358398	0.792262	city	10	1	0.457414	0.457414	0	1	0	0	CorrectCommission	1.618267	1.085421	0	1
406.150696	0.792335	city	3	1	0.400942	0.400942	0	1	0	0	CorrectCommission	2.005545	1.118436	0	1
406.942963	0.792191	city	7	1	0.447725	0.447725	0	1	0	0	CorrectCommission	1.684712	1.142691	0	1
407.735229	0.792302	city	6	1	0.497461	0.497461	0	1	0	0	CorrectCommission	1.343630	1.157626	0	1
408.527527	0.792338	city	7	1	0.546789	0.546789	0	1	0	0	CorrectCommission	1.005342	1.163336	0	1
409.319794	0.792159	city	1	1	0.649801	0.649801	0	1	0	0	CorrectCommission	0.298899	1.160393	0	1
410.112091	0.792478	city	7	1	0.763952	0.763952	0	1	0	0	CorrectCommission	0.483933	1.149637	0	1
410.904358	0.792050	city	4	1	0.809686	0.809686	0	1	0	0	CorrectCommission	0.797575	1.132026	0	1
411.696533	0.792270	city	6	1	0.893443	0.893443	0	1	0	0	CorrectCommission	1.371969	1.108643	0	1
412.488831	0.792308	city	8	1	1.007626	1.007626	0	1	0	0	CorrectCommission	2.155023	1.080778	0	1
413.281067	0.792214	city	6	1	1.042014	1.042014	0	1	0	0	CorrectCommission	2.390852	1.049983	0	1
414.073334	0.792267	city	2	0	0.000000	0.915751	0	0	0	1	OmissionError	1.524956	1.018146	0	1
414.865601	0.792293	city	9	1	0.744957	0.744957	0	1	0	0	CorrectCommission	0.353672	0.987406	0	1
415.657867	0.792261	mountain	6	1	0.645753	0.645753	0	0	1	0	CommissionError	0.326662	0.959955	0	1
416.450134	0.792239	city	10	1	0.710326	0.710326	0	1	0	0	CorrectCommission	0.116172	0.937699	0	1
417.242371	0.792265	city	8	1	0.645783	0.645783	0	1	0	0	CorrectCommission	0.326454	0.921986	0	1
418.034637	0.792264	city	1	1	0.844002	0.844002	0	1	0	0	CorrectCommission	1.032911	0.913313	0	1
418.826904	0.792264	city	2	1	0.695365	0.695365	0	1	0	0	CorrectCommission	0.013577	0.911192	0	1
419.619232	0.792373	city	5	1	0.861269	0.861269	0	1	0	0	CorrectCommission	1.151323	0.914243	0	1
420.411591	0.792372	city	7	1	0.893418	0.893418	0	1	0	0	CorrectCommission	1.371796	0.920298	0	1
421.203827	0.792104	city	10	1	0.893196	0.893196	0	1	0	0	CorrectCommission	1.370275	0.926742	0	1
421.996002	0.792211	city	1	1	0.894297	0.894297	0	1	0	0	CorrectCommission	1.377828	0.930879	0	1
422.788300	0.792371	city	9	1	0.843896	0.843896	0	1	0	0	CorrectCommission	1.032178	0.930229	0	1
423.580536	0.792156	mountain	2	0	0.000000	0.654065	1	0	0	0	CorrectOmission	0.269656	0.922830	0	1
424.372803	0.792374	city	6	1	0.497444	0.497444	0	1	0	0	CorrectCommission	1.343746	0.907457	0	0
425.165070	0.792155	mountain	4	1	0.546669	0.546669	0	0	1	0	CommissionError	1.006163	0.883691	0	0
425.957275	0.792270	city	9	1	0.546774	0.546774	0	1	0	0	CorrectCommission	1.005444	0.851994	0	0
426.749542	0.792263	city	6	1	0.515497	0.515497	0	1	0	0	CorrectCommission	1.219936	0.813665	0	0
427.541870	0.792372	city	5	1	0.447847	0.447847	0	1	0	0	CorrectCommission	1.683874	0.770631	0	0
428.334259	0.792372	city	1	1	0.645683	0.645683	0	1	0	0	CorrectCommission	0.327136	0.725241	0	0
429.126465	0.792051	city	2	1	0.645583	0.645583	0	1	0	0	CorrectCommission	0.327825	0.680083	0	0
429.918610	0.792265	city	6	1	0.697794	0.697794	0	1	0	0	CorrectCommission	0.030233	0.637629	1	0
430.710876	0.792261	city	4	1	0.645900	0.645900	0	1	0	0	CorrectCommission	0.325653	0.600038	1	0
431.503204	0.792372	mountain	9	0	0.000000	0.604680	1	0	0	0	CorrectOmission	0.608330	0.568955	1	0
432.295563	0.792374	city	5	1	0.601171	0.601171	0	1	0	0	CorrectCommission	0.632397	0.545431	1	0
433.087799	0.792073	city	7	1	0.662406	0.662406	0	1	0	0	CorrectCommission	0.212454	0.529875	1	0
433.879944	0.792251	city	9	1	0.661902	0.661902	0	1	0	0	CorrectCommission	0.215912	0.522115	1	0
434.672272	0.792361	city	1	1	0.751523	0.751523	0	1	0	0	CorrectCommission	0.398700	0.521491	1	0
435.464600	0.792320	city	8	1	0.744708	0.744708	0	1	0	0	CorrectCommission	0.351959	0.526998	1	0
436.256805	0.792117	city	10	1	0.794387	0.794387	0	1	0	0	CorrectCommission	0.692652	0.537457	1	0
437.049103	0.792468	city	4	1	0.893367	0.893367	0	1	0	0	CorrectCommission	1.371449	0.551603	1	0
437.841370	0.792051	city	6	1	0.744797	0.744797	0	1	0	0	CorrectCommission	0.352570	0.568158	1	0
438.633545	0.792295	city	1	1	0.645860	0.645860	0	1	0	0	CorrectCommission	0.325923	0.585943	1	0
439.425873	0.792345	city	9	1	0.645805	0.645805	0	1	0	0	CorrectCommission	0.326302	0.603843	1	0
440.218170	0.792259	city	2	1	0.715718	0.715718	0	1	0	0	CorrectCommission	0.153153	0.620841	1	0
441.010437	0.792266	city	8	1	0.695439	0.695439	0	1	0	0	CorrectCommission	0.014083	0.636061	1	0
441.802704	0.792264	city	9	1	1.041974	1.041974	0	1	0	0	CorrectCommission	2.390575	0.648753	1	0
442.594971	0.792264	city	10	1	0.861736	0.861736	0	1	0	0	CorrectCommission	1.154528	0.658306	1	0
443.387177	0.792155	mountain	1	0	0.000000	0.698994	1	0	0	0	CorrectOmission	0.038463	0.664374	0	0
444.179382	0.792306	city	5	1	0.596314	0.596314	0	1	0	0	CorrectCommission	0.665703	0.666797	0	0
444.971649	0.792226	city	7	1	0.596263	0.596263	0	1	0	0	CorrectCommission	0.666054	0.665543	0	0
445.763916	0.792288	city	5	1	0.596290	0.596290	0	1	0	0	CorrectCommission	0.665874	0.660727	1	0
446.556213	0.792306	city	4	1	0.645817	0.645817	0	1	0	0	CorrectCommission	0.326218	0.652510	1	0
447.348480	0.792198	city	8	1	0.546743	0.546743	0	1	0	0	CorrectCommission	1.005655	0.641080	1	0
448.140808	0.792482	city	1	1	0.556811	0.556811	0	1	0	0	CorrectCommission	0.936610	0.626597	1	0
448.933197	0.792265	city	9	1	0.602666	0.602666	0	1	0	0	CorrectCommission	0.622142	0.609228	1	0
449.725342	0.792045	city	4	1	0.703638	0.703638	0	1	0	0	CorrectCommission	0.070310	0.589199	1	0
450.517548	0.792375	city	5	1	0.794506	0.794506	0	1	0	0	CorrectCommission	0.693469	0.566868	1	0
451.309814	0.792179	city	9	1	0.794266	0.794266	0	1	0	0	CorrectCommission	0.691825	0.542754	1	0
452.102051	0.792304	city	6	1	0.850948	0.850948	0	1	0	0	CorrectCommission	1.080542	0.517649	1	0
452.894318	0.792206	city	5	1	0.744745	0.744745	0	1	0	0	CorrectCommission	0.352215	0.492608	1	0
453.686615	0.792371	city	9	1	0.744974	0.744974	0	1	0	0	CorrectCommission	0.353789	0.468985	1	0
454.478882	0.792172	city	8	1	0.754999	0.754999	0	1	0	0	CorrectCommission	0.422534	0.448298	1	0
455.271210	0.792465	city	3	1	0.648990	0.648990	0	1	0	0	CorrectCommission	0.304462	0.432164	1	0
456.063446	0.792039	city	7	1	0.744834	0.744834	0	1	0	0	CorrectCommission	0.352829	0.422105	1	0
456.855621	0.792277	city	3	1	0.695338	0.695338	0	1	0	0	CorrectCommission	0.013389	0.419364	1	0
457.647919	0.792316	city	10	1	0.645806	0.645806	0	1	0	0	CorrectCommission	0.326296	0.424731	1	0
458.440186	0.792214	city	4	1	0.647938	0.647938	0	1	0	0	CorrectCommission	0.311672	0.438392	1	0
459.232422	0.792260	city	7	1	0.695487	0.695487	0	1	0	0	CorrectCommission	0.014409	0.459809	1	0
460.024658	0.792264	city	10	1	0.758677	0.758677	0	1	0	0	CorrectCommission	0.447761	0.487806	1	0
460.816925	0.792266	city	5	1	0.752127	0.752127	0	1	0	0	CorrectCommission	0.402843	0.520601	1	0
461.609314	0.792481	city	3	1	0.748525	0.748525	0	1	0	0	CorrectCommission	0.378137	0.555983	1	0
462.401672	0.792265	city	1	1	0.794231	0.794231	0	1	0	0	CorrectCommission	0.691585	0.591578	1	0
463.193878	0.792156	city	5	1	0.843801	0.843801	0	1	0	0	CorrectCommission	1.031527	0.625099	1	0
463.986053	0.792154	city	9	1	0.794214	0.794214	0	1	0	0	CorrectCommission	0.691470	0.654653	1	0
464.778259	0.792266	city	10	1	0.805894	0.805894	0	1	0	0	CorrectCommission	0.771565	0.678950	0	0
465.570618	0.792482	city	4	1	0.893419	0.893419	0	1	0	0	CorrectCommission	1.371807	0.697419	0	0
466.362885	0.792045	city	9	1	0.795571	0.795571	0	1	0	0	CorrectCommission	0.700771	0.710227	0	0
467.155060	0.792265	city	6	1	0.893384	0.893384	0	1	0	0	CorrectCommission	1.371565	0.718217	0	0
467.947327	0.792268	city	7	1	0.756432	0.756432	0	1	0	0	CorrectCommission	0.432361	0.722612	0	0
468.739685	0.792479	city	4	1	0.794328	0.794328	0	1	0	0	CorrectCommission	0.692248	0.724815	0	0
469.531952	0.792047	city	3	1	0.710075	0.710075	0	1	0	0	CorrectCommission	0.114454	0.726050	0	0
470.324219	0.792483	city	8	1	0.756542	0.756542	0	1	0	0	CorrectCommission	0.433121	0.727184	0	0
471.116486	0.792051	city	4	1	0.762731	0.762731	0	1	0	0	CorrectCommission	0.475562	0.728540	0	0
471.908752	0.792480	city	3	1	0.794362	0.794362	0	1	0	0	CorrectCommission	0.692481	0.729910	0	0
472.701050	0.792108	city	10	1	0.810772	0.810772	0	1	0	0	CorrectCommission	0.805019	0.730661	0	0
473.493256	0.792311	city	8	1	0.843926	0.843926	0	1	0	0	CorrectCommission	1.032385	0.729936	0	0
474.285583	0.792374	mountain	1	0	0.000000	0.610662	1	0	0	0	CorrectOmission	0.567312	0.726876	0	0
475.077850	0.792154	city	7	1	0.403801	0.403801	0	1	0	0	CorrectCommission	1.985934	0.720813	0	0
475.870056	0.792227	mountain	4	0	0.000000	0.516167	1	0	0	0	CorrectOmission	1.215346	0.711319	0	0
476.662262	0.792196	city	2	1	0.711982	0.711982	0	1	0	0	CorrectCommission	0.127533	0.698256	0	0
477.454498	0.792267	mountain	5	0	0.000000	0.755473	1	0	0	0	CorrectOmission	0.425785	0.681619	0	0
478.246765	0.792261	city	9	1	0.699336	0.699336	0	1	0	0	CorrectCommission	0.040808	0.661324	1	0
479.039032	0.792267	city	1	1	0.596272	0.596272	0	1	0	0	CorrectCommission	0.665996	0.637074	1	0
479.831299	0.792264	mountain	6	0	0.000000	0.585357	1	0	0	0	CorrectOmission	0.740850	0.608211	1	0
480.623657	0.792482	city	10	1	0.608508	0.608508	0	1	0	0	CorrectCommission	0.582080	0.573750	1	0
481.415955	0.792093	city	1	1	0.607643	0.607643	0	1	0	0	CorrectCommission	0.588017	0.532489	1	0
482.208130	0.792259	city	2	1	0.561431	0.561431	0	1	0	0	CorrectCommission	0.904929	0.483234	1	0
483.000366	0.792223	city	5	1	0.596364	0.596364	0	1	0	0	CorrectCommission	0.665361	0.425036	1	0
483.792603	0.792269	mountain	1	0	0.000000	0.577393	1	0	0	0	CorrectOmission	0.795463	0.357513	1	0
484.584869	0.792265	city	9	1	0.596292	0.596292	0	1	0	0	CorrectCommission	0.665854	0.281035	1	0
485.377136	0.792263	city	6	1	0.744837	0.744837	0	1	0	0	CorrectCommission	0.352849	0.196830	1	0
486.169403	0.792265	city	4	1	0.645728	0.645728	0	1	0	0	CorrectCommission	0.326832	0.106937	1	0
486.961670	0.792266	city	10	1	0.695431	0.695431	0	1	0	0	CorrectCommission	0.014026	0.014026	1	0
