onset	duration	trial_type	image_type	Press	ReactionTime	ReactionTime_Interpolated	CorrectOmission	CorrectCommission	CommissionError	OmissionError	response_type	nonsmoothVarianceTimeCourse	VarianceTimeCourse	In_the_Zone	Reward_trial
8.433917	0.792373	city	6	1	1.154760	1.154760	0	1	0	0	CorrectCommission	3.028209	3.028209	0	1
9.226183	0.792157	city	3	1	0.707190	0.707190	0	1	0	0	CorrectCommission	0.256196	2.675032	0	1
10.018340	0.792158	city	6	1	0.992516	0.992516	0	1	0	0	CorrectCommission	2.023354	2.334810	0	1
10.810551	0.792262	city	2	1	0.794930	0.794930	0	1	0	0	CorrectCommission	0.799610	2.019409	0	1
11.602816	0.792268	city	9	1	0.844797	0.844797	0	1	0	0	CorrectCommission	1.108459	1.738842	0	1
12.403387	0.808874	city	8	1	0.761886	0.761886	0	1	0	0	CorrectCommission	0.594956	1.500523	0	1
13.203903	0.792158	city	7	1	0.649455	0.649455	0	1	0	0	CorrectCommission	0.101380	1.308885	0	1
13.996222	0.792482	city	10	1	0.648351	0.648351	0	1	0	0	CorrectCommission	0.108219	1.165288	0	1
14.788489	0.792050	city	7	1	0.695243	0.695243	0	1	0	0	CorrectCommission	0.182207	1.068207	0	1
15.580647	0.792267	mountain	3	0	0.000000	0.661540	1	0	0	0	CorrectOmission	0.026535	1.013619	0	1
16.373020	0.792478	city	8	1	0.546798	0.546798	0	1	0	0	CorrectCommission	0.737185	0.995547	0	1
17.165283	0.792048	city	7	1	0.350576	0.350576	0	1	0	0	CorrectCommission	1.952482	1.006768	0	1
17.957443	0.792272	city	3	1	0.546762	0.546762	0	1	0	0	CorrectCommission	0.737406	1.039369	0	1
18.749708	0.792259	city	5	1	0.501039	0.501039	0	1	0	0	CorrectCommission	1.020589	1.085410	0	1
19.541971	0.792265	city	10	1	0.447892	0.447892	0	1	0	0	CorrectCommission	1.349755	1.137379	0	1
20.334343	0.792478	city	2	1	0.546741	0.546741	0	1	0	0	CorrectCommission	0.737536	1.188692	0	1
21.126713	0.792265	city	10	1	0.501034	0.501034	0	1	0	0	CorrectCommission	1.020624	1.234035	0	1
21.918871	0.792050	city	2	1	0.349125	0.349125	0	1	0	0	CorrectCommission	1.961463	1.269600	0	1
22.711025	0.792260	city	4	1	0.348631	0.348631	0	1	0	0	CorrectCommission	1.964529	1.293259	0	1
23.503344	0.792375	mountain	2	1	0.301745	0.301745	0	0	1	0	CommissionError	2.254913	1.304582	0	1
24.295609	0.792156	city	8	1	0.405240	0.405240	0	1	0	0	CorrectCommission	1.613919	1.304716	0	1
25.087873	0.792374	city	3	1	0.398374	0.398374	0	1	0	0	CorrectCommission	1.656442	1.296026	0	1
25.880140	0.792158	city	9	1	0.447742	0.447742	0	1	0	0	CorrectCommission	1.350686	1.281641	0	1
26.672352	0.792265	city	8	1	0.509073	0.509073	0	1	0	0	CorrectCommission	0.970833	1.264868	0	1
27.464724	0.792480	city	1	1	0.508872	0.508872	0	1	0	0	CorrectCommission	0.972079	1.248470	0	1
28.256987	0.792044	city	4	1	0.596255	0.596255	0	1	0	0	CorrectCommission	0.430876	1.234172	0	1
29.049196	0.792375	city	8	1	0.596266	0.596266	0	1	0	0	CorrectCommission	0.430809	1.222276	0	1
29.841570	0.792373	city	2	1	0.546640	0.546640	0	1	0	0	CorrectCommission	0.738165	1.211577	0	1
30.633781	0.792052	mountain	10	1	0.546561	0.546561	0	0	1	0	CommissionError	0.738653	1.199623	0	1
31.425993	0.792369	city	3	1	0.650012	0.650012	0	1	0	0	CorrectCommission	0.097934	1.183236	0	1
32.218258	0.792158	mountain	5	1	1.201981	1.201981	0	0	1	0	CommissionError	3.320670	1.159232	0	1
33.010521	0.792371	mountain	3	0	0.000000	1.255140	1	0	0	0	CorrectOmission	3.649906	1.125062	0	1
33.802837	0.792265	mountain	4	0	0.000000	1.017039	1	0	0	0	CorrectOmission	2.175239	1.079493	0	1
34.595051	0.792157	city	2	1	0.695232	0.695232	0	1	0	0	CorrectCommission	0.182137	1.022910	0	1
35.387260	0.792265	city	3	1	0.497270	0.497270	0	1	0	0	CorrectCommission	1.043934	0.957328	0	1
36.179523	0.792263	city	7	1	0.596340	0.596340	0	1	0	0	CorrectCommission	0.430347	0.885996	0	1
36.971790	0.792271	city	4	1	0.695442	0.695442	0	1	0	0	CorrectCommission	0.183436	0.812957	0	1
37.764111	0.792370	city	9	1	0.601371	0.601371	0	1	0	0	CorrectCommission	0.399189	0.742418	0	1
38.556484	0.792373	city	3	1	0.609299	0.609299	0	1	0	0	CorrectCommission	0.350085	0.678158	0	1
39.348694	0.792050	city	9	1	0.645644	0.645644	0	1	0	0	CorrectCommission	0.124984	0.623119	1	1
40.140850	0.792262	city	10	1	0.597405	0.597405	0	1	0	0	CorrectCommission	0.423751	0.579187	1	1
40.933220	0.792483	city	1	1	0.546782	0.546782	0	1	0	0	CorrectCommission	0.737286	0.547124	1	1
41.725540	0.792155	city	6	1	0.596794	0.596794	0	1	0	0	CorrectCommission	0.427535	0.526709	1	1
42.517750	0.792266	city	4	1	0.596366	0.596366	0	1	0	0	CorrectCommission	0.430185	0.516943	1	1
43.310070	0.792372	city	3	1	0.558260	0.558260	0	1	0	0	CorrectCommission	0.666196	0.516265	1	1
44.102283	0.792051	city	7	1	0.596127	0.596127	0	1	0	0	CorrectCommission	0.431667	0.522792	1	1
44.894447	0.792278	mountain	8	0	0.000000	0.678062	1	0	0	0	CorrectOmission	0.075793	0.534532	1	1
45.686722	0.792277	city	5	1	0.709592	0.709592	0	1	0	0	CorrectCommission	0.271077	0.549547	1	1
46.478981	0.792237	city	3	1	0.596247	0.596247	0	1	0	0	CorrectCommission	0.430924	0.566070	1	1
47.271366	0.792536	city	10	1	0.501260	0.501260	0	1	0	0	CorrectCommission	1.019220	0.582623	1	1
48.063637	0.792001	city	2	1	0.447471	0.447471	0	1	0	0	CorrectCommission	1.352365	0.598098	1	1
48.855766	0.792259	city	9	1	0.596293	0.596293	0	1	0	0	CorrectCommission	0.430641	0.611862	1	1
49.648136	0.792479	city	2	1	0.596358	0.596358	0	1	0	0	CorrectCommission	0.430237	0.623725	1	1
50.440399	0.792050	mountain	4	0	0.000000	0.571573	1	0	0	0	CorrectOmission	0.583739	0.633929	1	1
51.232555	0.792265	city	5	1	0.546768	0.546768	0	1	0	0	CorrectCommission	0.737370	0.643090	1	1
52.024822	0.792266	city	3	1	0.546771	0.546771	0	1	0	0	CorrectCommission	0.737353	0.652061	1	1
52.817112	0.792313	city	7	1	0.497381	0.497381	0	1	0	0	CorrectCommission	1.043247	0.661710	1	1
53.609375	0.792215	city	6	1	0.597187	0.597187	0	1	0	0	CorrectCommission	0.425100	0.672720	1	1
54.401722	0.792479	city	10	1	0.596282	0.596282	0	1	0	0	CorrectCommission	0.430707	0.685422	0	1
55.194004	0.792079	city	9	1	0.745698	0.745698	0	1	0	0	CorrectCommission	0.494695	0.699581	0	1
55.986160	0.792236	mountain	2	0	0.000000	0.717482	1	0	0	0	CorrectOmission	0.319943	0.714354	0	1
56.778412	0.792266	city	4	1	0.603909	0.603909	0	1	0	0	CorrectCommission	0.383470	0.728316	0	1
57.570782	0.792478	city	8	1	0.497250	0.497250	0	1	0	0	CorrectCommission	1.044056	0.739624	0	1
58.363045	0.792046	city	9	1	0.553707	0.553707	0	1	0	0	CorrectCommission	0.694395	0.746263	0	1
59.155312	0.792484	city	2	1	0.497531	0.497531	0	1	0	0	CorrectCommission	1.042315	0.746426	0	1
59.947628	0.792155	city	8	1	0.416394	0.416394	0	1	0	0	CorrectCommission	1.544839	0.738801	0	1
60.739815	0.792218	city	6	1	0.447578	0.447578	0	1	0	0	CorrectCommission	1.351699	0.722836	0	1
61.532135	0.792420	city	5	1	0.497989	0.497989	0	1	0	0	CorrectCommission	1.039479	0.698885	0	1
62.324371	0.792050	city	3	1	0.546584	0.546584	0	1	0	0	CorrectCommission	0.738512	0.668181	1	1
63.116550	0.792314	city	2	1	0.596298	0.596298	0	1	0	0	CorrectCommission	0.430607	0.632644	1	1
63.908817	0.792214	city	10	1	0.596262	0.596262	0	1	0	0	CorrectCommission	0.430832	0.594605	1	1
64.701057	0.792268	mountain	8	0	0.000000	0.669945	1	0	0	0	CorrectOmission	0.025521	0.556453	1	1
65.493347	0.792310	city	7	1	0.695389	0.695389	0	1	0	0	CorrectCommission	0.183110	0.520334	1	1
66.285614	0.792220	city	10	1	0.550637	0.550637	0	1	0	0	CorrectCommission	0.713409	0.487889	1	1
67.077850	0.792260	city	9	1	0.645750	0.645750	0	1	0	0	CorrectCommission	0.124328	0.460138	1	1
67.870110	0.792263	city	10	1	0.611821	0.611821	0	1	0	0	CorrectCommission	0.334469	0.437493	1	0
68.662376	0.792268	city	3	1	0.646426	0.646426	0	1	0	0	CorrectCommission	0.120140	0.419837	1	0
69.454643	0.792261	city	8	1	0.546766	0.546766	0	1	0	0	CorrectCommission	0.737382	0.406717	1	0
70.246910	0.792271	city	9	1	0.563054	0.563054	0	1	0	0	CorrectCommission	0.636506	0.397543	1	0
71.039177	0.792259	city	5	1	0.548598	0.548598	0	1	0	0	CorrectCommission	0.726034	0.391782	1	0
71.831543	0.792482	city	4	1	0.645865	0.645865	0	1	0	0	CorrectCommission	0.123619	0.389081	1	0
72.623863	0.792157	city	6	1	0.695096	0.695096	0	1	0	0	CorrectCommission	0.181291	0.389365	1	0
73.416077	0.792264	city	10	1	0.661183	0.661183	0	1	0	0	CorrectCommission	0.028745	0.392840	1	0
74.208290	0.792163	city	2	1	0.744703	0.744703	0	1	0	0	CorrectCommission	0.488532	0.400007	1	0
75.000504	0.792260	city	1	1	0.756458	0.756458	0	1	0	0	CorrectCommission	0.561339	0.411563	1	0
75.792793	0.792321	city	4	1	0.748718	0.748718	0	1	0	0	CorrectCommission	0.513401	0.428391	1	0
76.585052	0.792206	city	8	1	0.695409	0.695409	0	1	0	0	CorrectCommission	0.183235	0.451450	1	0
77.377396	0.792482	city	7	1	0.695288	0.695288	0	1	0	0	CorrectCommission	0.182482	0.481693	1	0
78.169716	0.792156	city	4	1	0.710686	0.710686	0	1	0	0	CorrectCommission	0.277848	0.519986	1	0
78.961876	0.792155	city	7	1	0.747280	0.747280	0	1	0	0	CorrectCommission	0.504493	0.566951	1	0
79.754082	0.792266	city	2	1	0.794357	0.794357	0	1	0	0	CorrectCommission	0.796064	0.622844	1	0
80.546371	0.792314	city	3	1	0.844848	0.844848	0	1	0	0	CorrectCommission	1.108776	0.687379	0	0
81.338638	0.792216	city	10	1	0.650997	0.650997	0	1	0	0	CorrectCommission	0.091830	0.759583	0	0
82.130875	0.792264	city	7	1	0.744795	0.744795	0	1	0	0	CorrectCommission	0.489101	0.837711	0	0
82.923141	0.792266	city	10	1	0.696783	0.696783	0	1	0	0	CorrectCommission	0.191743	0.919175	0	0
83.715408	0.792264	mountain	10	0	0.000000	0.540513	1	0	0	0	CorrectOmission	0.776108	1.000676	0	0
84.507782	0.792481	city	6	1	0.560619	0.560619	0	1	0	0	CorrectCommission	0.651584	1.078412	0	0
85.300087	0.792130	city	7	1	1.041734	1.041734	0	1	0	0	CorrectCommission	2.328186	1.148434	0	0
86.092239	0.792181	city	6	1	0.992488	0.992488	0	1	0	0	CorrectCommission	2.023183	1.207027	0	0
86.884468	0.792266	city	4	1	0.943560	0.943560	0	1	0	0	CorrectCommission	1.720150	1.251179	0	0
87.676727	0.792263	city	2	1	0.943073	0.943073	0	1	0	0	CorrectCommission	1.717129	1.278914	0	0
88.469048	0.792374	city	9	1	0.893375	0.893375	0	1	0	0	CorrectCommission	1.409329	1.289482	0	0
89.261314	0.792160	city	4	1	0.992305	0.992305	0	1	0	0	CorrectCommission	2.022046	1.283443	0	0
90.053558	0.792318	city	10	1	0.894537	0.894537	0	1	0	0	CorrectCommission	1.416522	1.262498	0	0
90.845924	0.792426	city	8	1	0.901631	0.901631	0	1	0	0	CorrectCommission	1.460464	1.229284	0	0
91.638176	0.792076	mountain	5	0	0.000000	0.783020	1	0	0	0	CorrectOmission	0.725851	1.186968	0	0
92.430336	0.792236	city	9	1	0.596356	0.596356	0	1	0	0	CorrectCommission	0.430252	1.138925	0	0
93.222603	0.792304	city	4	1	0.399289	0.399289	0	1	0	0	CorrectCommission	1.650776	1.088385	0	0
94.014870	0.792230	city	8	1	0.515095	0.515095	0	1	0	0	CorrectCommission	0.933538	1.038170	0	0
94.807144	0.792317	city	9	1	0.502341	0.502341	0	1	0	0	CorrectCommission	1.012526	0.990606	0	0
95.599518	0.792425	city	1	1	0.547389	0.547389	0	1	0	0	CorrectCommission	0.733522	0.947406	0	0
96.391777	0.792105	city	6	1	0.546527	0.546527	0	1	0	0	CorrectCommission	0.738863	0.909724	0	0
97.183937	0.792209	city	5	1	0.596225	0.596225	0	1	0	0	CorrectCommission	0.431061	0.878231	0	0
97.976280	0.792481	city	9	1	0.549577	0.549577	0	1	0	0	CorrectCommission	0.719973	0.853259	0	0
98.768547	0.792049	city	10	1	0.500982	0.500982	0	1	0	0	CorrectCommission	1.020942	0.834915	0	0
99.560699	0.792266	city	7	1	0.459408	0.459408	0	1	0	0	CorrectCommission	1.278430	0.823170	0	0
100.353073	0.792481	city	10	1	0.546739	0.546739	0	1	0	0	CorrectCommission	0.737551	0.817916	0	0
101.145363	0.792099	city	9	1	0.546575	0.546575	0	1	0	0	CorrectCommission	0.738565	0.818942	0	0
101.937630	0.792430	city	3	1	0.596355	0.596355	0	1	0	0	CorrectCommission	0.430256	0.825883	0	0
102.729874	0.792050	city	4	1	0.596062	0.596062	0	1	0	0	CorrectCommission	0.432070	0.838142	0	0
103.522026	0.792264	city	9	1	0.603126	0.603126	0	1	0	0	CorrectCommission	0.388318	0.854849	0	0
104.314293	0.792262	mountain	3	0	0.000000	0.543220	1	0	0	0	CorrectOmission	0.759346	0.874867	0	0
105.106583	0.792328	city	8	1	0.463226	0.463226	0	1	0	0	CorrectCommission	1.254788	0.896813	0	0
105.898903	0.792311	mountain	4	1	0.410026	0.410026	0	0	1	0	CommissionError	1.584277	0.919224	0	0
106.691246	0.792374	mountain	2	0	0.000000	0.474477	1	0	0	0	CorrectOmission	1.185103	0.940667	0	0
107.483513	0.792157	city	10	1	0.566546	0.566546	0	1	0	0	CorrectCommission	0.614876	0.959930	0	0
108.275726	0.792265	city	5	1	0.596202	0.596202	0	1	0	0	CorrectCommission	0.431204	0.976153	0	0
109.067986	0.792264	city	1	1	0.513847	0.513847	0	1	0	0	CorrectCommission	0.941264	0.988926	0	0
109.860199	0.792167	city	9	1	0.398226	0.398226	0	1	0	0	CorrectCommission	1.657358	0.998306	0	0
110.652412	0.792256	city	4	1	0.400984	0.400984	0	1	0	0	CorrectCommission	1.640281	1.004771	0	0
111.444725	0.792369	city	10	1	0.447765	0.447765	0	1	0	0	CorrectCommission	1.350542	1.009137	0	0
112.236992	0.792157	mountain	9	1	0.550881	0.550881	0	0	1	0	CommissionError	0.711895	1.012348	0	0
113.029205	0.792271	city	9	1	0.546774	0.546774	0	1	0	0	CorrectCommission	0.737336	1.015244	0	0
113.821579	0.792476	city	7	1	0.596288	0.596288	0	1	0	0	CorrectCommission	0.430672	1.018312	0	0
114.613861	0.792093	mountain	2	0	0.000000	0.546710	1	0	0	0	CorrectOmission	0.737732	1.021537	0	0
115.406021	0.792219	city	6	1	0.497241	0.497241	0	1	0	0	CorrectCommission	1.044114	1.024285	0	0
116.198311	0.792373	city	9	1	0.547084	0.547084	0	1	0	0	CorrectCommission	0.735414	1.025358	0	0
116.990578	0.792156	city	1	1	0.497112	0.497112	0	1	0	0	CorrectCommission	1.044912	1.023188	0	0
117.782791	0.792264	city	5	1	0.398341	0.398341	0	1	0	0	CorrectCommission	1.656649	1.016073	0	0
118.575066	0.792287	city	6	1	0.398207	0.398207	0	1	0	0	CorrectCommission	1.657481	1.002481	0	0
119.367348	0.792281	city	4	1	0.398197	0.398197	0	1	0	0	CorrectCommission	1.657540	0.981331	0	0
120.159599	0.792230	city	10	1	0.601775	0.601775	0	1	0	0	CorrectCommission	0.396684	0.952170	0	0
120.951904	0.792372	city	7	1	0.447701	0.447701	0	1	0	0	CorrectCommission	1.350940	0.915267	0	0
121.744225	0.792264	city	9	1	0.498207	0.498207	0	1	0	0	CorrectCommission	1.038132	0.871503	0	0
122.536430	0.792156	city	6	1	0.596158	0.596158	0	1	0	0	CorrectCommission	0.431477	0.822303	0	0
123.328644	0.792265	city	5	1	0.556172	0.556172	0	1	0	0	CorrectCommission	0.679125	0.769415	0	0
124.120911	0.792266	city	9	1	0.512246	0.512246	0	1	0	0	CorrectCommission	0.951181	0.714680	0	0
124.913284	0.792487	city	3	1	0.597109	0.597109	0	1	0	0	CorrectCommission	0.425584	0.659863	1	0
125.705559	0.792064	city	9	1	0.546520	0.546520	0	1	0	0	CorrectCommission	0.738905	0.606501	1	0
126.497719	0.792249	city	6	1	0.596293	0.596293	0	1	0	0	CorrectCommission	0.430637	0.555791	1	0
127.289970	0.792257	city	3	1	0.596321	0.596321	0	1	0	0	CorrectCommission	0.430466	0.508589	1	1
128.082230	0.792270	city	9	1	0.645849	0.645849	0	1	0	0	CorrectCommission	0.123719	0.465421	1	1
128.874603	0.792478	city	3	1	0.656529	0.656529	0	1	0	0	CorrectCommission	0.057570	0.426573	1	1
129.666977	0.792264	city	9	1	0.794202	0.794202	0	1	0	0	CorrectCommission	0.795106	0.392196	1	1
130.459137	0.792045	city	6	1	0.745205	0.745205	0	1	0	0	CorrectCommission	0.491645	0.362385	1	1
131.251297	0.792280	city	5	1	0.695328	0.695328	0	1	0	0	CorrectCommission	0.182730	0.337304	1	1
132.043610	0.792359	city	1	1	0.744784	0.744784	0	1	0	0	CorrectCommission	0.489036	0.317183	1	1
132.835907	0.792213	city	2	1	0.695921	0.695921	0	1	0	0	CorrectCommission	0.186404	0.302305	1	1
133.628113	0.792208	city	9	1	0.695299	0.695299	0	1	0	0	CorrectCommission	0.182552	0.292952	1	1
134.420349	0.792268	city	3	1	0.664382	0.664382	0	1	0	0	CorrectCommission	0.008934	0.289284	1	1
135.212646	0.792319	city	2	1	0.660689	0.660689	0	1	0	0	CorrectCommission	0.031803	0.291231	1	1
136.004959	0.792317	city	3	1	0.695259	0.695259	0	1	0	0	CorrectCommission	0.182303	0.298419	1	1
136.797195	0.792154	city	9	1	0.645697	0.645697	0	1	0	0	CorrectCommission	0.124659	0.310126	1	1
137.589462	0.792374	city	7	1	0.596254	0.596254	0	1	0	0	CorrectCommission	0.430878	0.325323	1	1
138.381729	0.792159	city	10	1	0.596243	0.596243	0	1	0	0	CorrectCommission	0.430949	0.342770	1	1
139.174042	0.792478	city	1	1	0.646058	0.646058	0	1	0	0	CorrectCommission	0.122423	0.361132	1	1
139.966309	0.792054	city	3	1	0.759887	0.759887	0	1	0	0	CorrectCommission	0.582572	0.379200	1	1
140.758575	0.792476	mountain	1	0	0.000000	0.686575	1	0	0	0	CorrectOmission	0.128521	0.396014	1	1
141.550842	0.792052	city	8	1	0.546885	0.546885	0	1	0	0	CorrectCommission	0.736644	0.411032	1	1
142.343109	0.792478	city	7	1	0.461578	0.461578	0	1	0	0	CorrectCommission	1.264990	0.424177	1	1
143.135376	0.792048	city	10	1	0.550451	0.550451	0	1	0	0	CorrectCommission	0.714561	0.435809	1	1
143.927582	0.792372	city	8	1	0.662685	0.662685	0	1	0	0	CorrectCommission	0.019443	0.446658	1	1
144.719849	0.792181	city	3	1	0.695410	0.695410	0	1	0	0	CorrectCommission	0.183237	0.457607	1	1
145.512085	0.792270	city	9	1	0.645751	0.645751	0	1	0	0	CorrectCommission	0.124322	0.469481	1	1
146.304337	0.792237	city	10	1	0.609617	0.609617	0	1	0	0	CorrectCommission	0.348118	0.482882	1	1
147.096588	0.792269	city	7	1	0.653177	0.653177	0	1	0	0	CorrectCommission	0.078331	0.498024	1	1
147.888855	0.792278	city	8	1	0.546752	0.546752	0	1	0	0	CorrectCommission	0.737467	0.514752	1	1
148.681122	0.792249	city	6	1	0.546760	0.546760	0	1	0	0	CorrectCommission	0.737423	0.532558	1	1
149.473389	0.792273	city	5	1	0.557245	0.557245	0	1	0	0	CorrectCommission	0.672484	0.550700	1	1
150.265701	0.792361	city	7	1	0.596282	0.596282	0	1	0	0	CorrectCommission	0.430708	0.568403	1	1
151.057983	0.792203	mountain	5	0	0.000000	0.541250	1	0	0	0	CorrectOmission	0.771548	0.584990	1	1
151.850250	0.792328	city	3	1	0.519115	0.519115	0	1	0	0	CorrectCommission	0.908637	0.600009	1	1
152.642487	0.792154	city	1	1	0.656845	0.656845	0	1	0	0	CorrectCommission	0.055610	0.613306	1	1
153.434708	0.792268	city	10	1	0.951347	0.951347	0	1	0	0	CorrectCommission	1.768375	0.625007	1	1
154.227005	0.792338	city	3	1	0.713393	0.713393	0	1	0	0	CorrectCommission	0.294614	0.635365	1	1
155.019287	0.792236	city	9	1	0.596216	0.596216	0	1	0	0	CorrectCommission	0.431118	0.644756	1	1
155.811523	0.792217	mountain	8	0	0.000000	0.608361	1	0	0	0	CorrectOmission	0.355894	0.653405	1	1
156.603760	0.792266	city	6	1	0.695233	0.695233	0	1	0	0	CorrectCommission	0.182143	0.661338	1	1
157.396072	0.792372	city	7	1	0.802233	0.802233	0	1	0	0	CorrectCommission	0.844846	0.668305	1	1
158.188339	0.792158	mountain	1	0	0.000000	0.581858	1	0	0	0	CorrectOmission	0.520042	0.673777	1	1
158.980560	0.792263	mountain	9	1	0.447774	0.447774	0	0	1	0	CommissionError	1.350488	0.677060	0	1
159.772812	0.792265	city	9	1	0.813648	0.813648	0	1	0	0	CorrectCommission	0.915544	0.677373	0	1
160.565186	0.792482	city	7	1	0.561246	0.561246	0	1	0	0	CorrectCommission	0.647705	0.674047	0	1
161.357452	0.792051	city	1	1	0.546558	0.546558	0	1	0	0	CorrectCommission	0.738674	0.666635	1	1
162.149673	0.792367	city	5	1	0.646157	0.646157	0	1	0	0	CorrectCommission	0.121807	0.654988	1	1
162.941986	0.792266	mountain	8	0	0.000000	0.830357	1	0	0	0	CorrectOmission	1.019026	0.639312	1	1
163.734192	0.792159	city	7	1	0.909934	0.909934	0	1	0	0	CorrectCommission	1.511887	0.620105	1	1
164.526520	0.792482	city	6	1	0.695668	0.695668	0	1	0	0	CorrectCommission	0.184839	0.598137	1	1
165.318817	0.792115	city	2	1	0.561430	0.561430	0	1	0	0	CorrectCommission	0.646563	0.574380	1	1
166.110977	0.792198	mountain	4	0	0.000000	0.628221	1	0	0	0	CorrectOmission	0.232895	0.549848	1	1
166.903214	0.792282	city	2	1	0.696159	0.696159	0	1	0	0	CorrectCommission	0.187877	0.525561	1	1
167.695526	0.792353	city	4	1	0.565361	0.565361	0	1	0	0	CorrectCommission	0.622216	0.502456	1	1
168.487778	0.792159	city	5	1	0.596397	0.596397	0	1	0	0	CorrectCommission	0.429996	0.481369	1	1
169.280045	0.792371	city	8	1	0.695293	0.695293	0	1	0	0	CorrectCommission	0.182514	0.463062	1	1
170.072418	0.792374	city	1	1	0.853914	0.853914	0	1	0	0	CorrectCommission	1.164928	0.448287	1	1
170.864639	0.792050	city	9	1	0.695094	0.695094	0	1	0	0	CorrectCommission	0.181284	0.437754	1	1
171.656784	0.792263	city	8	1	0.596267	0.596267	0	1	0	0	CorrectCommission	0.430800	0.432257	1	1
172.449051	0.792263	city	9	1	0.596580	0.596580	0	1	0	0	CorrectCommission	0.428862	0.432571	1	1
173.241318	0.792269	city	7	1	0.646351	0.646351	0	1	0	0	CorrectCommission	0.120608	0.439408	1	1
174.033585	0.792261	city	2	1	0.645768	0.645768	0	1	0	0	CorrectCommission	0.124215	0.453325	1	1
174.825851	0.792276	city	1	1	0.695336	0.695336	0	1	0	0	CorrectCommission	0.182781	0.474582	1	1
175.618225	0.792472	mountain	1	0	0.000000	0.642145	1	0	0	0	CorrectOmission	0.146656	0.503046	1	1
176.410492	0.792048	city	2	1	0.553646	0.553646	0	1	0	0	CorrectCommission	0.694774	0.538108	1	1
177.202667	0.792323	city	3	1	0.497288	0.497288	0	1	0	0	CorrectCommission	1.043822	0.578622	1	1
177.994949	0.792217	city	7	1	0.553714	0.553714	0	1	0	0	CorrectCommission	0.694350	0.622938	1	1
178.787186	0.792264	mountain	2	0	0.000000	0.616590	1	0	0	0	CorrectOmission	0.304933	0.668995	1	1
179.579437	0.792260	city	2	1	0.645808	0.645808	0	1	0	0	CorrectCommission	0.123967	0.714451	0	1
180.371811	0.792476	city	5	1	0.601265	0.601265	0	1	0	0	CorrectCommission	0.399844	0.756928	0	1
181.164230	0.792346	city	10	1	0.497293	0.497293	0	1	0	0	CorrectCommission	1.043792	0.794342	0	1
181.956375	0.791966	city	4	1	0.399585	0.399585	0	1	0	0	CorrectCommission	1.648942	0.825282	0	1
182.748505	0.792268	city	7	1	0.457783	0.457783	0	1	0	0	CorrectCommission	1.288495	0.849242	0	1
183.540756	0.792262	city	1	1	0.407530	0.407530	0	1	0	0	CorrectCommission	1.599740	0.866915	0	1
184.333023	0.792264	city	9	1	0.497526	0.497526	0	1	0	0	CorrectCommission	1.042349	0.880153	0	1
185.125290	0.792268	city	10	1	0.497572	0.497572	0	1	0	0	CorrectCommission	1.042067	0.891822	0	1
185.917587	0.792314	city	3	1	0.512222	0.512222	0	1	0	0	CorrectCommission	0.951327	0.905383	0	1
186.709839	0.792215	city	9	1	0.596408	0.596408	0	1	0	0	CorrectCommission	0.429925	0.924336	0	0
187.502090	0.792265	city	2	1	0.558763	0.558763	0	1	0	0	CorrectCommission	0.663083	0.951567	0	0
188.294403	0.792370	city	1	1	0.646381	0.646381	0	1	0	0	CorrectCommission	0.120424	0.988747	0	0
189.086777	0.792373	city	4	1	0.645660	0.645660	0	1	0	0	CorrectCommission	0.124886	1.035878	0	0
189.878983	0.792052	city	9	1	0.605434	0.605434	0	1	0	0	CorrectCommission	0.374024	1.091127	0	0
190.671143	0.792259	city	10	1	0.613831	0.613831	0	1	0	0	CorrectCommission	0.322016	1.150933	0	0
191.463516	0.792482	mountain	3	1	0.956695	0.956695	0	0	1	0	CommissionError	1.801497	1.210484	0	0
192.255890	0.792266	city	2	1	1.003383	1.003383	0	1	0	0	CorrectCommission	2.090657	1.264335	0	0
193.048050	0.792066	city	5	1	1.042225	1.042225	0	1	0	0	CorrectCommission	2.331228	1.307241	0	0
193.840271	0.792354	city	2	1	1.190955	1.190955	0	1	0	0	CorrectCommission	3.252377	1.334854	0	0
194.632523	0.792171	city	5	0	0.000000	0.860662	0	0	0	1	OmissionError	1.206724	1.344282	0	0
195.424774	0.792319	city	3	1	0.596308	0.596308	0	1	0	0	CorrectCommission	0.430547	1.334477	0	0
196.217026	0.792197	city	10	1	0.942850	0.942850	0	1	0	0	CorrectCommission	1.715750	1.306193	0	0
197.009262	0.792261	city	3	1	1.140963	1.140963	0	1	0	0	CorrectCommission	2.942755	1.261724	0	0
197.801529	0.792270	city	8	0	0.000000	0.810587	0	0	0	1	OmissionError	0.896581	1.204501	0	0
198.593796	0.792266	city	2	1	0.459703	0.459703	0	1	0	0	CorrectCommission	1.276608	1.138608	0	0
199.386063	0.792262	city	5	1	0.596291	0.596291	0	1	0	0	CorrectCommission	0.430651	1.068104	0	0
200.178314	0.792263	city	3	1	0.603953	0.603953	0	1	0	0	CorrectCommission	0.383195	0.996657	0	0
200.970581	0.792265	city	6	1	0.697518	0.697518	0	1	0	0	CorrectCommission	0.196292	0.927163	0	0
201.762848	0.792264	city	1	1	0.598904	0.598904	0	1	0	0	CorrectCommission	0.414470	0.861728	0	0
202.555222	0.792483	city	10	1	0.497278	0.497278	0	1	0	0	CorrectCommission	1.043883	0.801733	0	0
203.347488	0.792050	city	7	1	0.398909	0.398909	0	1	0	0	CorrectCommission	1.653130	0.748086	0	0
204.139648	0.792262	city	1	1	0.560895	0.560895	0	1	0	0	CorrectCommission	0.649875	0.701533	0	0
204.931900	0.792263	mountain	9	1	0.448362	0.448362	0	0	1	0	CommissionError	1.346843	0.662926	1	0
205.724167	0.792269	city	3	1	0.650393	0.650393	0	1	0	0	CorrectCommission	0.095570	0.633321	1	0
206.516541	0.792480	city	7	1	0.695697	0.695697	0	1	0	0	CorrectCommission	0.185016	0.614011	1	0
207.308807	0.792049	city	4	1	0.695247	0.695247	0	1	0	0	CorrectCommission	0.182226	0.606287	1	0
208.100967	0.792265	city	8	1	0.744839	0.744839	0	1	0	0	CorrectCommission	0.489376	0.611226	1	0
208.893234	0.792268	city	9	1	0.711482	0.711482	0	1	0	0	CorrectCommission	0.282782	0.629339	1	0
209.685501	0.792280	city	7	1	0.744800	0.744800	0	1	0	0	CorrectCommission	0.489131	0.660340	1	0
210.477875	0.792461	city	1	1	0.645813	0.645813	0	1	0	0	CorrectCommission	0.123938	0.702986	0	0
211.270172	0.792122	city	7	1	0.695855	0.695855	0	1	0	0	CorrectCommission	0.185995	0.755051	0	0
212.062332	0.792193	city	9	1	0.695271	0.695271	0	1	0	0	CorrectCommission	0.182381	0.813531	0	0
212.854553	0.792271	mountain	3	0	0.000000	0.537316	1	0	0	0	CorrectOmission	0.795911	0.874944	0	0
213.646927	0.792473	city	2	1	0.360420	0.360420	0	1	0	0	CorrectCommission	1.891509	0.935669	0	0
214.439240	0.792155	city	8	1	0.303016	0.303016	0	1	0	0	CorrectCommission	2.247043	0.992312	0	0
215.231506	0.792375	city	2	1	0.307109	0.307109	0	1	0	0	CorrectCommission	2.221691	1.042125	0	0
216.023773	0.792155	city	10	1	0.596041	0.596041	0	1	0	0	CorrectCommission	0.432201	1.083129	0	0
216.816040	0.792374	city	4	1	0.546969	0.546969	0	1	0	0	CorrectCommission	0.736125	1.114211	0	0
217.608246	0.792048	city	2	1	0.547558	0.547558	0	1	0	0	CorrectCommission	0.732477	1.135009	0	0
218.400406	0.792264	city	3	1	0.497273	0.497273	0	1	0	0	CorrectCommission	1.043918	1.145838	0	0
219.192703	0.792335	city	10	1	0.451292	0.451292	0	1	0	0	CorrectCommission	1.328699	1.147577	0	0
219.984970	0.792196	city	7	1	0.405031	0.405031	0	1	0	0	CorrectCommission	1.615213	1.141565	0	0
220.777252	0.792373	city	8	1	0.368998	0.368998	0	1	0	0	CorrectCommission	1.838386	1.129585	0	0
221.569550	0.792208	city	10	1	0.450496	0.450496	0	1	0	0	CorrectCommission	1.333626	1.113862	0	0
222.361816	0.792322	city	1	1	0.559483	0.559483	0	1	0	0	CorrectCommission	0.658621	1.096983	0	0
223.154053	0.792155	city	3	1	0.497143	0.497143	0	1	0	0	CorrectCommission	1.044723	1.081808	0	0
223.946365	0.792481	mountain	9	1	0.505309	0.505309	0	0	1	0	CommissionError	0.994145	1.071219	0	0
224.738632	0.792048	city	8	1	0.497059	0.497059	0	1	0	0	CorrectCommission	1.045241	1.067845	0	0
225.530792	0.792268	city	2	1	0.497309	0.497309	0	1	0	0	CorrectCommission	1.043694	1.073681	0	0
226.323059	0.792265	city	7	1	0.610240	0.610240	0	1	0	0	CorrectCommission	0.344260	1.089770	0	0
227.115433	0.792477	mountain	10	0	0.000000	0.572415	1	0	0	0	CorrectOmission	0.578527	1.115855	0	0
227.907745	0.792156	city	9	1	0.496999	0.496999	0	1	0	0	CorrectCommission	1.045614	1.150214	0	0
228.699905	0.792160	city	10	1	0.497156	0.497156	0	1	0	0	CorrectCommission	1.044642	1.189684	0	0
229.492126	0.792295	city	3	1	0.646096	0.646096	0	1	0	0	CorrectCommission	0.122187	1.229903	0	0
230.284454	0.792340	city	9	1	0.448309	0.448309	0	1	0	0	CorrectCommission	1.347171	1.265808	0	0
231.076691	0.792155	city	7	1	0.992409	0.992409	0	1	0	0	CorrectCommission	2.022690	1.292208	0	0
231.868912	0.792264	city	5	1	0.952903	0.952903	0	1	0	0	CorrectCommission	1.778012	1.304572	0	0
232.661224	0.792375	city	8	1	1.091594	1.091594	0	1	0	0	CorrectCommission	2.636994	1.299714	0	0
233.453506	0.792174	city	5	1	1.055788	1.055788	0	1	0	0	CorrectCommission	2.415226	1.276281	0	0
234.245728	0.792273	city	4	1	1.091404	1.091404	0	1	0	0	CorrectCommission	2.635817	1.234974	0	0
235.037994	0.792284	mountain	8	0	0.000000	0.801438	1	0	0	0	CorrectOmission	0.839921	1.178404	0	0
235.830307	0.792330	city	5	1	0.511362	0.511362	0	1	0	0	CorrectCommission	0.956656	1.110711	0	0
236.622665	0.792374	city	1	1	0.546649	0.546649	0	1	0	0	CorrectCommission	0.738107	1.036814	0	0
237.414871	0.792047	city	5	1	0.646021	0.646021	0	1	0	0	CorrectCommission	0.122648	0.961733	0	0
238.207077	0.792373	mountain	10	1	0.646081	0.646081	0	0	1	0	CommissionError	0.122280	0.889815	0	0
238.999405	0.792265	city	1	1	0.606351	0.606351	0	1	0	0	CorrectCommission	0.368345	0.824280	0	0
239.791718	0.792373	city	5	1	0.605832	0.605832	0	1	0	0	CorrectCommission	0.371562	0.766981	0	0
240.583939	0.792055	city	10	1	0.645569	0.645569	0	1	0	0	CorrectCommission	0.125451	0.718475	0	0
241.376083	0.792261	city	5	1	0.942871	0.942871	0	1	0	0	CorrectCommission	1.715882	0.678320	0	0
242.168350	0.792262	city	7	1	0.794799	0.794799	0	1	0	0	CorrectCommission	0.798802	0.645544	1	0
242.960617	0.792266	city	1	1	0.804448	0.804448	0	1	0	0	CorrectCommission	0.858562	0.619191	1	0
243.752991	0.792479	city	2	1	0.843869	0.843869	0	1	0	0	CorrectCommission	1.102717	0.598675	1	0
244.545364	0.792265	city	10	1	0.706779	0.706779	0	1	0	0	CorrectCommission	0.253653	0.584075	1	0
245.337509	0.792048	city	5	1	0.744673	0.744673	0	1	0	0	CorrectCommission	0.488347	0.576153	1	0
246.129669	0.792266	city	10	1	0.703588	0.703588	0	1	0	0	CorrectCommission	0.233888	0.576190	1	1
246.921936	0.792266	city	1	1	0.699531	0.699531	0	1	0	0	CorrectCommission	0.208761	0.585717	1	1
247.714203	0.792259	city	4	1	0.703858	0.703858	0	1	0	0	CorrectCommission	0.235564	0.606057	1	1
248.506577	0.792483	city	7	1	0.754207	0.754207	0	1	0	0	CorrectCommission	0.547398	0.637963	1	1
249.298889	0.792157	city	9	1	0.744609	0.744609	0	1	0	0	CorrectCommission	0.487951	0.681282	0	1
250.091049	0.792163	city	3	1	0.657305	0.657305	0	1	0	0	CorrectCommission	0.052762	0.734748	0	1
250.883255	0.792256	city	4	1	0.744885	0.744885	0	1	0	0	CorrectCommission	0.489661	0.795968	0	1
251.675629	0.792486	city	3	1	0.744874	0.744874	0	1	0	0	CorrectCommission	0.489594	0.861508	0	1
252.467941	0.792128	city	6	1	1.042144	1.042144	0	1	0	0	CorrectCommission	2.330725	0.927236	0	1
253.260208	0.792400	city	10	1	0.645889	0.645889	0	1	0	0	CorrectCommission	0.123470	0.988647	0	1
254.052475	0.792156	city	7	1	0.503911	0.503911	0	1	0	0	CorrectCommission	1.002804	1.041450	0	1
254.844635	0.792155	city	4	1	0.398125	0.398125	0	1	0	0	CorrectCommission	1.657988	1.081914	0	1
255.636902	0.792372	mountain	3	1	0.299410	0.299410	0	0	1	0	CommissionError	2.269376	1.107326	0	1
256.429199	0.792219	city	9	1	0.468776	0.468776	0	1	0	0	CorrectCommission	1.220413	1.116271	0	1
257.221405	0.792214	city	8	1	1.041887	1.041887	0	1	0	0	CorrectCommission	2.329132	1.108761	0	1
258.013702	0.792363	city	7	1	0.945943	0.945943	0	1	0	0	CorrectCommission	1.734906	1.086105	0	1
258.805969	0.792188	city	10	0	0.000000	0.648433	0	0	0	1	OmissionError	0.107710	1.050695	0	1
259.598297	0.792449	city	4	1	0.448587	0.448587	0	1	0	0	CorrectCommission	1.345453	1.005649	0	1
260.390564	0.792091	city	9	1	0.645632	0.645632	0	1	0	0	CorrectCommission	0.125063	0.954302	0	1
261.182831	0.792438	mountain	8	0	0.000000	0.784149	1	0	0	0	CorrectOmission	0.732841	0.899895	0	1
261.975098	0.792082	mountain	10	0	0.000000	0.829009	1	0	0	0	CorrectOmission	1.010680	0.845189	0	1
262.767242	0.792250	city	3	1	0.745081	0.745081	0	1	0	0	CorrectCommission	0.490875	0.792288	0	1
263.559509	0.792283	mountain	8	1	0.497235	0.497235	0	0	1	0	CommissionError	1.044151	0.742578	0	1
264.351807	0.792253	city	5	1	0.794437	0.794437	0	1	0	0	CorrectCommission	0.796560	0.696740	0	1
265.144043	0.792240	city	10	1	0.612632	0.612632	0	1	0	0	CorrectCommission	0.329443	0.654916	1	1
265.936340	0.792372	city	9	1	0.596359	0.596359	0	1	0	0	CorrectCommission	0.430228	0.616859	1	1
266.728607	0.792158	mountain	5	0	0.000000	0.578987	1	0	0	0	CorrectOmission	0.537821	0.582099	1	1
267.520874	0.792370	city	4	1	0.564148	0.564148	0	1	0	0	CorrectCommission	0.629728	0.550129	1	1
268.313232	0.792374	mountain	2	0	0.000000	0.555473	1	0	0	0	CorrectOmission	0.683453	0.520528	1	1
269.105469	0.792049	city	9	1	0.562888	0.562888	0	1	0	0	CorrectCommission	0.637533	0.493056	1	1
269.897736	0.792480	city	5	1	0.596315	0.596315	0	1	0	0	CorrectCommission	0.430502	0.467644	1	1
270.690033	0.792155	mountain	10	0	0.000000	0.692587	1	0	0	0	CorrectOmission	0.165753	0.444451	1	1
271.482239	0.792267	city	9	1	0.744727	0.744727	0	1	0	0	CorrectCommission	0.488683	0.423756	1	1
272.274506	0.792263	city	1	1	0.645761	0.645761	0	1	0	0	CorrectCommission	0.124263	0.405861	1	1
273.066742	0.792159	city	9	1	0.596180	0.596180	0	1	0	0	CorrectCommission	0.431342	0.391032	1	1
273.859039	0.792480	city	8	1	0.553981	0.553981	0	1	0	0	CorrectCommission	0.692697	0.379405	1	1
274.651428	0.792264	city	6	1	0.695109	0.695109	0	1	0	0	CorrectCommission	0.181373	0.370887	1	1
275.443573	0.792047	city	4	1	0.652395	0.652395	0	1	0	0	CorrectCommission	0.083176	0.365162	1	1
276.235840	0.792484	city	6	1	0.646292	0.646292	0	1	0	0	CorrectCommission	0.120973	0.361700	1	1
277.028107	0.792069	city	10	1	0.601249	0.601249	0	1	0	0	CorrectCommission	0.399946	0.359748	1	1
277.820282	0.792293	city	6	1	0.744962	0.744962	0	1	0	0	CorrectCommission	0.490135	0.358466	1	1
278.612549	0.792217	city	5	1	0.701610	0.701610	0	1	0	0	CorrectCommission	0.221639	0.357014	1	1
279.404785	0.792261	city	8	1	0.711337	0.711337	0	1	0	0	CorrectCommission	0.281880	0.354704	1	1
280.197052	0.792265	city	2	1	0.794351	0.794351	0	1	0	0	CorrectCommission	0.796027	0.351090	1	1
280.989380	0.792373	city	3	1	0.809032	0.809032	0	1	0	0	CorrectCommission	0.886953	0.346059	1	1
281.781647	0.792154	city	9	1	0.708510	0.708510	0	1	0	0	CorrectCommission	0.264376	0.339831	1	1
282.573853	0.792271	city	5	1	0.695321	0.695321	0	1	0	0	CorrectCommission	0.182688	0.332941	1	1
283.366119	0.792263	city	9	1	0.695979	0.695979	0	1	0	0	CorrectCommission	0.186762	0.326103	1	1
284.158386	0.792261	city	4	1	0.695353	0.695353	0	1	0	0	CorrectCommission	0.182883	0.320096	1	1
284.950653	0.792263	mountain	10	0	0.000000	0.678688	1	0	0	0	CorrectOmission	0.079671	0.315630	1	1
285.742920	0.792269	city	5	1	0.645780	0.645780	0	1	0	0	CorrectCommission	0.124144	0.313245	1	1
286.535217	0.792370	city	8	1	0.596424	0.596424	0	1	0	0	CorrectCommission	0.429830	0.313249	1	1
287.327606	0.792374	city	10	1	0.645746	0.645746	0	1	0	0	CorrectCommission	0.124351	0.315706	1	1
288.119812	0.792049	mountain	7	0	0.000000	0.589722	1	0	0	0	CorrectOmission	0.471339	0.320472	1	1
288.911987	0.792296	city	1	1	0.549453	0.549453	0	1	0	0	CorrectCommission	0.720743	0.327222	1	1
289.704254	0.792235	city	4	1	0.646043	0.646043	0	1	0	0	CorrectCommission	0.122512	0.335506	1	1
290.496613	0.792478	city	9	1	0.646269	0.646269	0	1	0	0	CorrectCommission	0.121115	0.344807	1	1
291.288879	0.792080	city	5	1	0.748746	0.748746	0	1	0	0	CorrectCommission	0.513571	0.354523	1	1
292.081055	0.792236	city	9	1	0.744957	0.744957	0	1	0	0	CorrectCommission	0.490104	0.363998	1	1
292.873291	0.792261	city	1	1	0.698937	0.698937	0	1	0	0	CorrectCommission	0.205086	0.372539	1	1
293.665649	0.792481	city	8	1	0.655685	0.655685	0	1	0	0	CorrectCommission	0.062797	0.379455	1	1
294.457977	0.792158	city	3	1	0.596592	0.596592	0	1	0	0	CorrectCommission	0.428786	0.384070	1	1
295.250183	0.792264	city	5	1	0.649891	0.649891	0	1	0	0	CorrectCommission	0.098679	0.385819	1	1
296.042419	0.792214	city	9	1	0.911753	0.911753	0	1	0	0	CorrectCommission	1.523153	0.384365	1	1
296.834686	0.792313	city	4	1	0.599143	0.599143	0	1	0	0	CorrectCommission	0.412988	0.379617	1	1
297.626953	0.792210	city	8	1	0.596243	0.596243	0	1	0	0	CorrectCommission	0.430948	0.371853	1	1
298.419220	0.792322	city	3	1	0.695470	0.695470	0	1	0	0	CorrectCommission	0.183608	0.361709	1	1
299.211487	0.792208	city	9	1	0.744813	0.744813	0	1	0	0	CorrectCommission	0.489212	0.350158	1	1
300.003723	0.792288	city	8	1	0.695266	0.695266	0	1	0	0	CorrectCommission	0.182348	0.338463	1	1
300.796021	0.792297	city	10	1	0.646510	0.646510	0	1	0	0	CorrectCommission	0.119624	0.328096	1	1
301.588287	0.792195	city	1	1	0.646177	0.646177	0	1	0	0	CorrectCommission	0.121686	0.320638	1	1
302.380524	0.792333	city	2	1	0.597804	0.597804	0	1	0	0	CorrectCommission	0.421282	0.317742	1	1
303.172882	0.792376	city	1	1	0.647411	0.647411	0	1	0	0	CorrectCommission	0.114044	0.321076	1	1
303.965118	0.792047	city	3	1	0.765044	0.765044	0	1	0	0	CorrectCommission	0.614513	0.332226	1	1
304.757263	0.792265	city	9	1	0.655672	0.655672	0	1	0	0	CorrectCommission	0.062879	0.352648	1	1
305.549561	0.792317	city	1	1	0.608391	0.608391	0	1	0	0	CorrectCommission	0.355712	0.383575	1	0
306.341858	0.792318	city	3	1	0.655321	0.655321	0	1	0	0	CorrectCommission	0.065050	0.425866	1	0
307.134094	0.792159	city	9	1	0.646292	0.646292	0	1	0	0	CorrectCommission	0.120973	0.479971	1	0
307.926422	0.792479	city	5	1	0.695318	0.695318	0	1	0	0	CorrectCommission	0.182667	0.545800	1	0
308.718811	0.792265	city	6	1	0.795918	0.795918	0	1	0	0	CorrectCommission	0.805731	0.622706	1	0
309.510956	0.792047	city	9	1	0.662064	0.662064	0	1	0	0	CorrectCommission	0.023292	0.709472	0	0
310.303162	0.792375	city	8	1	0.596284	0.596284	0	1	0	0	CorrectCommission	0.430692	0.804481	0	0
311.095428	0.792159	city	5	1	0.457968	0.457968	0	1	0	0	CorrectCommission	1.287352	0.905787	0	0
311.887665	0.792292	city	2	1	0.497335	0.497335	0	1	0	0	CorrectCommission	1.043533	1.011313	0	0
312.679932	0.792239	city	6	1	0.750299	0.750299	0	1	0	0	CorrectCommission	0.523190	1.119021	0	0
313.472168	0.792259	city	4	1	0.992917	0.992917	0	1	0	0	CorrectCommission	2.025836	1.227008	0	0
314.264496	0.792373	city	7	1	0.947731	0.947731	0	1	0	0	CorrectCommission	1.745980	1.333496	0	0
315.056854	0.792375	city	10	1	1.091454	1.091454	0	1	0	0	CorrectCommission	2.636126	1.436823	0	0
315.849182	0.792263	mountain	9	0	0.000000	0.913633	1	0	0	0	CorrectOmission	1.534797	1.535221	0	0
316.641388	0.792125	city	6	1	0.656643	0.656643	0	1	0	0	CorrectCommission	0.056864	1.626709	0	0
317.433533	0.792188	city	8	1	0.562858	0.562858	0	1	0	0	CorrectCommission	0.637716	1.708995	0	0
318.225769	0.792268	city	6	1	1.041959	1.041959	0	1	0	0	CorrectCommission	2.329575	1.779440	0	0
319.018036	0.792262	city	1	1	0.942979	0.942979	0	1	0	0	CorrectCommission	1.716546	1.835301	0	0
319.810303	0.792269	city	6	1	1.141292	1.141292	0	1	0	0	CorrectCommission	2.944794	1.874109	0	0
320.602661	0.792479	city	10	1	1.141063	1.141063	0	1	0	0	CorrectCommission	2.943378	1.894075	0	0
321.394928	0.792048	city	5	1	1.059193	1.059193	0	1	0	0	CorrectCommission	2.436320	1.894512	0	0
322.187073	0.792266	city	9	1	1.140981	1.140981	0	1	0	0	CorrectCommission	2.942867	1.876119	0	0
322.979462	0.792479	city	4	1	1.094660	1.094660	0	1	0	0	CorrectCommission	2.655979	1.840979	0	0
323.771729	0.792080	city	3	1	1.056482	1.056482	0	1	0	0	CorrectCommission	2.419528	1.792339	0	0
324.563904	0.792232	city	8	0	0.000000	0.773514	0	0	0	1	OmissionError	0.666974	1.734121	0	0
325.356140	0.792268	city	7	1	0.514134	0.514134	0	1	0	0	CorrectCommission	0.939486	1.670345	0	0
326.148468	0.792369	city	5	1	0.546722	0.546722	0	1	0	0	CorrectCommission	0.737655	1.604433	0	0
326.940735	0.792161	mountain	3	1	0.407558	0.407558	0	0	1	0	CommissionError	1.599561	1.538804	0	0
327.732941	0.792263	city	6	1	0.596263	0.596263	0	1	0	0	CorrectCommission	0.430822	1.474582	0	0
328.525208	0.792265	city	8	1	0.401104	0.401104	0	1	0	0	CorrectCommission	1.639539	1.411664	0	0
329.317474	0.792266	city	3	1	0.398393	0.398393	0	1	0	0	CorrectCommission	1.656323	1.348967	0	0
330.109741	0.792263	city	8	1	1.059561	1.059561	0	1	0	0	CorrectCommission	2.438598	1.284949	0	0
330.902008	0.792304	city	9	1	0.942955	0.942955	0	1	0	0	CorrectCommission	1.716398	1.218061	0	0
331.694336	0.792332	city	6	1	0.805920	0.805920	0	1	0	0	CorrectCommission	0.867680	1.147324	0	0
332.486603	0.792219	city	1	1	0.893927	0.893927	0	1	0	0	CorrectCommission	1.412749	1.072597	0	0
333.278839	0.792230	city	8	1	0.802517	0.802517	0	1	0	0	CorrectCommission	0.846604	0.994725	0	0
334.071167	0.792456	city	6	1	0.893886	0.893886	0	1	0	0	CorrectCommission	1.412492	0.915553	0	0
334.863495	0.792155	mountain	1	0	0.000000	0.677127	1	0	0	0	CorrectOmission	0.070002	0.837633	0	0
335.655640	0.792156	mountain	10	1	0.497290	0.497290	0	0	1	0	CommissionError	1.043809	0.763939	0	0
336.447845	0.792264	city	2	1	0.699426	0.699426	0	1	0	0	CorrectCommission	0.208115	0.697439	0	0
337.240143	0.792339	mountain	10	0	0.000000	0.643699	1	0	0	0	CorrectOmission	0.137032	0.640755	1	0
338.032562	0.792463	city	3	1	0.552024	0.552024	0	1	0	0	CorrectCommission	0.704818	0.595809	1	0
338.824799	0.792057	city	1	1	0.646318	0.646318	0	1	0	0	CorrectCommission	0.120809	0.563599	1	0
339.616943	0.792204	city	7	1	0.695273	0.695273	0	1	0	0	CorrectCommission	0.182390	0.544100	1	0
340.409180	0.792264	city	8	1	0.695325	0.695325	0	1	0	0	CorrectCommission	0.182711	0.536221	1	0
341.201538	0.792480	city	9	1	0.744853	0.744853	0	1	0	0	CorrectCommission	0.489460	0.537933	1	0
341.993805	0.792048	city	1	1	0.744810	0.744810	0	1	0	0	CorrectCommission	0.489195	0.546500	1	0
342.786072	0.792481	city	4	1	0.794420	0.794420	0	1	0	0	CorrectCommission	0.796455	0.558743	1	0
343.578400	0.792156	mountain	5	0	0.000000	0.665212	1	0	0	0	CorrectOmission	0.003792	0.571386	1	0
344.370575	0.792202	city	9	1	0.513914	0.513914	0	1	0	0	CorrectCommission	0.940854	0.581400	1	0
345.162781	0.792218	city	4	1	0.497254	0.497254	0	1	0	0	CorrectCommission	1.044035	0.586314	1	0
345.955017	0.792264	city	9	1	0.547034	0.547034	0	1	0	0	CorrectCommission	0.735724	0.584478	1	0
346.747284	0.792270	city	5	1	0.448321	0.448321	0	1	0	0	CorrectCommission	1.347101	0.575240	1	0
347.539551	0.792262	city	3	1	0.497237	0.497237	0	1	0	0	CorrectCommission	1.044142	0.558925	1	0
348.331848	0.792317	city	7	1	0.598844	0.598844	0	1	0	0	CorrectCommission	0.414840	0.536792	1	0
349.124115	0.792211	city	8	1	0.598626	0.598626	0	1	0	0	CorrectCommission	0.416191	0.510801	1	0
349.916382	0.792349	city	7	1	0.695994	0.695994	0	1	0	0	CorrectCommission	0.186854	0.483290	1	0
350.708649	0.792181	city	10	1	0.696178	0.696178	0	1	0	0	CorrectCommission	0.187997	0.456697	1	0
351.500885	0.792265	city	2	1	0.645757	0.645757	0	1	0	0	CorrectCommission	0.124284	0.433237	1	0
352.293152	0.792267	city	5	1	0.655548	0.655548	0	1	0	0	CorrectCommission	0.063646	0.414727	1	0
353.085419	0.792264	city	2	1	0.695316	0.695316	0	1	0	0	CorrectCommission	0.182658	0.402395	1	0
353.877686	0.792264	city	7	1	0.744806	0.744806	0	1	0	0	CorrectCommission	0.489174	0.396865	1	0
354.669952	0.792266	city	9	1	0.843888	0.843888	0	1	0	0	CorrectCommission	1.102833	0.398154	1	0
355.462189	0.792260	city	4	1	0.696020	0.696020	0	1	0	0	CorrectCommission	0.187019	0.405715	1	0
356.254456	0.792266	city	6	1	0.662141	0.662141	0	1	0	0	CorrectCommission	0.022814	0.418555	1	0
357.046844	0.792484	city	9	1	0.695923	0.695923	0	1	0	0	CorrectCommission	0.186414	0.435271	1	0
357.839142	0.792117	city	8	1	0.695244	0.695244	0	1	0	0	CorrectCommission	0.182213	0.454140	1	0
358.631348	0.792303	city	5	1	0.762200	0.762200	0	1	0	0	CorrectCommission	0.596901	0.473239	1	0
359.423645	0.792265	city	8	1	0.757057	0.757057	0	1	0	0	CorrectCommission	0.565048	0.490586	1	0
360.215942	0.792373	city	2	1	0.745180	0.745180	0	1	0	0	CorrectCommission	0.491486	0.504305	1	0
361.008179	0.792082	city	10	1	0.746300	0.746300	0	1	0	0	CorrectCommission	0.498421	0.512831	1	0
361.800323	0.792232	city	2	1	0.843950	0.843950	0	1	0	0	CorrectCommission	1.103217	0.515056	1	0
362.592621	0.792345	city	10	1	0.843865	0.843865	0	1	0	0	CorrectCommission	1.102688	0.510457	1	0
363.385010	0.792400	city	4	1	0.843752	0.843752	0	1	0	0	CorrectCommission	1.101989	0.499184	1	0
364.177216	0.792048	city	9	1	0.712104	0.712104	0	1	0	0	CorrectCommission	0.286632	0.482010	1	0
364.969391	0.792265	city	3	1	0.645949	0.645949	0	1	0	0	CorrectCommission	0.123098	0.460231	1	1
365.761658	0.792266	city	10	1	0.645796	0.645796	0	1	0	0	CorrectCommission	0.124041	0.435485	1	1
366.553925	0.792322	city	8	1	0.699354	0.699354	0	1	0	0	CorrectCommission	0.207666	0.409578	1	1
367.346313	0.792421	city	9	1	0.744779	0.744779	0	1	0	0	CorrectCommission	0.489002	0.384337	1	1
368.138550	0.792050	city	7	1	0.745348	0.745348	0	1	0	0	CorrectCommission	0.492527	0.361458	1	1
368.930695	0.792266	city	6	1	0.710811	0.710811	0	1	0	0	CorrectCommission	0.278627	0.342429	1	1
369.723022	0.792370	mountain	1	0	0.000000	0.705537	1	0	0	0	CorrectOmission	0.245958	0.328483	1	1
370.515289	0.792156	city	8	1	0.695284	0.695284	0	1	0	0	CorrectCommission	0.182459	0.320552	1	1
371.307556	0.792372	city	7	1	0.645815	0.645815	0	1	0	0	CorrectCommission	0.123929	0.319240	1	1
372.099823	0.792159	city	2	1	0.596130	0.596130	0	1	0	0	CorrectCommission	0.431651	0.324770	1	1
372.892090	0.792372	city	6	1	0.645775	0.645775	0	1	0	0	CorrectCommission	0.124173	0.336960	1	1
373.684448	0.792373	city	1	1	0.645913	0.645913	0	1	0	0	CorrectCommission	0.123317	0.355205	1	1
374.476776	0.792265	city	10	1	0.596102	0.596102	0	1	0	0	CorrectCommission	0.431820	0.378420	1	1
375.268921	0.792050	city	6	1	0.695254	0.695254	0	1	0	0	CorrectCommission	0.182271	0.405100	1	1
376.061096	0.792262	mountain	2	0	0.000000	0.662296	1	0	0	0	CorrectOmission	0.021855	0.433420	1	1
376.853363	0.792268	city	6	1	0.596283	0.596283	0	1	0	0	CorrectCommission	0.430698	0.461388	1	1
377.645660	0.792370	city	5	1	0.596273	0.596273	0	1	0	0	CorrectCommission	0.430761	0.487045	1	1
378.437927	0.792160	city	1	1	0.794685	0.794685	0	1	0	0	CorrectCommission	0.798098	0.508713	1	1
379.230164	0.792270	city	2	1	0.942888	0.942888	0	1	0	0	CorrectCommission	1.715984	0.525157	1	1
380.022430	0.792270	city	7	1	0.844158	0.844158	0	1	0	0	CorrectCommission	1.104505	0.535737	1	1
380.814789	0.792467	city	8	1	0.709417	0.709417	0	1	0	0	CorrectCommission	0.269991	0.540462	1	1
381.607056	0.792048	city	6	1	0.645769	0.645769	0	1	0	0	CorrectCommission	0.124210	0.539908	1	1
382.399200	0.792277	city	8	1	0.547140	0.547140	0	1	0	0	CorrectCommission	0.735066	0.535017	1	1
383.191467	0.792253	city	9	1	0.596808	0.596808	0	1	0	0	CorrectCommission	0.427447	0.526898	1	1
383.983734	0.792268	city	8	1	0.646068	0.646068	0	1	0	0	CorrectCommission	0.122358	0.516655	1	1
384.776001	0.792283	city	7	1	0.702804	0.702804	0	1	0	0	CorrectCommission	0.229033	0.505209	1	1
385.568268	0.792242	city	10	1	0.753102	0.753102	0	1	0	0	CorrectCommission	0.540555	0.493240	1	1
386.360535	0.792265	city	7	1	0.794393	0.794393	0	1	0	0	CorrectCommission	0.796287	0.481194	1	1
387.152802	0.792279	city	9	1	0.745347	0.745347	0	1	0	0	CorrectCommission	0.492522	0.469357	1	1
387.945068	0.792252	city	3	1	0.760795	0.760795	0	1	0	0	CorrectCommission	0.588198	0.457958	1	1
388.737335	0.792279	city	7	1	0.844341	0.844341	0	1	0	0	CorrectCommission	1.105639	0.447231	1	1
389.529602	0.792281	city	10	1	0.645768	0.645768	0	1	0	0	CorrectCommission	0.124217	0.437437	1	1
390.321869	0.792235	city	4	1	0.645913	0.645913	0	1	0	0	CorrectCommission	0.123322	0.428888	1	1
391.114105	0.792261	city	3	1	0.645975	0.645975	0	1	0	0	CorrectCommission	0.122938	0.421847	1	1
391.906372	0.792269	mountain	10	0	0.000000	0.626977	1	0	0	0	CorrectOmission	0.240602	0.416460	1	1
392.698639	0.792262	city	10	1	0.596444	0.596444	0	1	0	0	CorrectCommission	0.429701	0.412703	1	1
393.490967	0.792375	city	5	1	0.561904	0.561904	0	1	0	0	CorrectCommission	0.643624	0.410359	1	1
394.283234	0.792155	city	7	1	0.649297	0.649297	0	1	0	0	CorrectCommission	0.102364	0.409032	1	1
395.075531	0.792427	city	8	1	0.744834	0.744834	0	1	0	0	CorrectCommission	0.489344	0.408220	1	1
395.867767	0.792102	city	1	1	0.744657	0.744657	0	1	0	0	CorrectCommission	0.488247	0.407393	1	1
396.659973	0.792267	city	3	1	0.801526	0.801526	0	1	0	0	CorrectCommission	0.840463	0.406092	1	1
397.452240	0.792291	city	10	1	0.695457	0.695457	0	1	0	0	CorrectCommission	0.183532	0.404020	1	1
398.244568	0.792345	city	4	1	0.745379	0.745379	0	1	0	0	CorrectCommission	0.492722	0.401115	1	1
399.036835	0.792193	city	2	1	0.745505	0.745505	0	1	0	0	CorrectCommission	0.493502	0.397532	1	1
399.829193	0.792527	mountain	3	0	0.000000	0.648854	1	0	0	0	CorrectOmission	0.105103	0.393597	1	1
400.621429	0.791965	city	2	1	0.563829	0.563829	0	1	0	0	CorrectCommission	0.631703	0.389773	1	1
401.413605	0.792372	city	10	1	0.598834	0.598834	0	1	0	0	CorrectCommission	0.414904	0.386565	1	1
402.205872	0.792158	city	2	1	0.646330	0.646330	0	1	0	0	CorrectCommission	0.120735	0.384449	1	1
402.998077	0.792261	city	8	1	0.695578	0.695578	0	1	0	0	CorrectCommission	0.184280	0.383809	1	1
403.790344	0.792267	city	3	1	0.596252	0.596252	0	1	0	0	CorrectCommission	0.430891	0.384863	1	1
404.582611	0.792267	city	2	1	0.596211	0.596211	0	1	0	0	CorrectCommission	0.431145	0.387680	1	1
405.375000	0.792481	city	1	1	0.599477	0.599477	0	1	0	0	CorrectCommission	0.410919	0.392177	1	1
406.167358	0.792263	city	5	1	0.744680	0.744680	0	1	0	0	CorrectCommission	0.488388	0.398144	1	1
406.959625	0.792266	city	3	1	0.709447	0.709447	0	1	0	0	CorrectCommission	0.270177	0.405286	1	1
407.751770	0.792045	city	9	1	0.709592	0.709592	0	1	0	0	CorrectCommission	0.271077	0.413252	1	1
408.543945	0.792308	city	5	1	0.745524	0.745524	0	1	0	0	CorrectCommission	0.493619	0.421650	1	1
409.336273	0.792332	city	9	1	0.794395	0.794395	0	1	0	0	CorrectCommission	0.796299	0.430060	1	1
410.128510	0.792159	mountain	4	0	0.000000	0.658452	1	0	0	0	CorrectOmission	0.045660	0.438031	1	1
410.920746	0.792265	mountain	9	1	0.556433	0.556433	0	0	1	0	CommissionError	0.677508	0.445105	1	1
411.713104	0.792478	city	7	1	0.707078	0.707078	0	1	0	0	CorrectCommission	0.255503	0.450784	1	1
412.505402	0.792086	city	10	1	0.596821	0.596821	0	1	0	0	CorrectCommission	0.427370	0.454570	1	1
413.297546	0.792232	city	1	1	0.596278	0.596278	0	1	0	0	CorrectCommission	0.430735	0.455981	1	1
414.089905	0.792477	city	4	1	0.844220	0.844220	0	1	0	0	CorrectCommission	1.104889	0.454603	1	1
414.882172	0.792051	city	10	1	0.708830	0.708830	0	1	0	0	CorrectCommission	0.266358	0.450138	1	1
415.674316	0.792264	city	6	1	0.645810	0.645810	0	1	0	0	CorrectCommission	0.123954	0.442557	1	1
416.466583	0.792266	city	2	1	0.562679	0.562679	0	1	0	0	CorrectCommission	0.638824	0.432130	1	1
417.258850	0.792263	mountain	8	0	0.000000	0.724304	1	0	0	0	CorrectOmission	0.362190	0.419503	1	1
418.051147	0.792326	city	8	1	0.846682	0.846682	0	1	0	0	CorrectCommission	1.120137	0.405786	1	1
418.843414	0.792245	city	6	1	0.645814	0.645814	0	1	0	0	CorrectCommission	0.123935	0.392558	1	1
419.635651	0.792223	city	4	1	0.596239	0.596239	0	1	0	0	CorrectCommission	0.430973	0.381875	1	1
420.427917	0.792268	city	6	1	0.646766	0.646766	0	1	0	0	CorrectCommission	0.118037	0.376157	1	1
421.220215	0.792315	city	2	1	0.601231	0.601231	0	1	0	0	CorrectCommission	0.400053	0.377975	1	1
422.012451	0.792210	city	7	1	0.645726	0.645726	0	1	0	0	CorrectCommission	0.124477	0.389807	1	1
422.804718	0.792308	city	9	1	0.653843	0.653843	0	1	0	0	CorrectCommission	0.074208	0.413781	1	1
423.596985	0.792224	mountain	6	0	0.000000	0.694973	1	0	0	0	CorrectOmission	0.180532	0.451344	1	1
424.389252	0.792330	city	7	1	0.711641	0.711641	0	1	0	0	CorrectCommission	0.283764	0.502980	1	0
425.181519	0.792198	city	2	1	0.646370	0.646370	0	1	0	0	CorrectCommission	0.120491	0.568012	1	0
425.973877	0.792482	city	6	1	0.711612	0.711612	0	1	0	0	CorrectCommission	0.283586	0.644471	1	0
426.766235	0.792264	city	2	1	0.596079	0.596079	0	1	0	0	CorrectCommission	0.431965	0.729122	0	0
427.558411	0.792047	city	3	1	0.611905	0.611905	0	1	0	0	CorrectCommission	0.333947	0.817701	0	0
428.350586	0.792325	city	10	1	0.794511	0.794511	0	1	0	0	CorrectCommission	0.797019	0.905224	0	0
429.142944	0.792422	city	7	1	0.893297	0.893297	0	1	0	0	CorrectCommission	1.408847	0.986473	0	0
429.935181	0.792049	city	4	1	0.797884	0.797884	0	1	0	0	CorrectCommission	0.817910	1.056545	0	0
430.727417	0.792372	city	9	1	1.099237	1.099237	0	1	0	0	CorrectCommission	2.684329	1.111416	0	0
431.519684	0.792160	city	3	1	1.206619	1.206619	0	1	0	0	CorrectCommission	3.349394	1.148256	0	0
432.311920	0.792367	city	9	0	0.000000	0.919397	0	0	0	1	OmissionError	1.570494	1.165785	0	0
433.104187	0.792157	city	8	1	0.596362	0.596362	0	1	0	0	CorrectCommission	0.430214	1.164324	0	0
433.896393	0.792264	city	4	1	0.596304	0.596304	0	1	0	0	CorrectCommission	0.430572	1.145593	0	0
434.688660	0.792267	city	6	1	0.646816	0.646816	0	1	0	0	CorrectCommission	0.117729	1.112431	0	0
435.481049	0.792481	city	9	1	1.142232	1.142232	0	1	0	0	CorrectCommission	2.950613	1.068457	0	0
436.273315	0.792051	mountain	3	0	0.000000	0.926948	1	0	0	0	CorrectOmission	1.617260	1.017627	0	0
437.065460	0.792264	city	2	1	0.596533	0.596533	0	1	0	0	CorrectCommission	0.429154	0.963986	0	0
437.857788	0.792369	city	9	1	0.746555	0.746555	0	1	0	0	CorrectCommission	0.500006	0.911300	0	0
438.650146	0.792373	city	2	1	0.794179	0.794179	0	1	0	0	CorrectCommission	0.794959	0.862743	0	0
439.442413	0.792158	mountain	7	0	0.000000	0.628195	1	0	0	0	CorrectOmission	0.233058	0.820782	0	0
440.234589	0.792148	city	8	1	0.497148	0.497148	0	1	0	0	CorrectCommission	1.044692	0.787064	0	0
441.026794	0.792277	city	3	1	0.649583	0.649583	0	1	0	0	CorrectCommission	0.100592	0.762349	0	0
441.819061	0.792264	city	10	1	0.657642	0.657642	0	1	0	0	CorrectCommission	0.050674	0.746618	0	0
442.611359	0.792315	city	8	1	0.843859	0.843859	0	1	0	0	CorrectCommission	1.102652	0.739178	0	0
443.403717	0.792428	city	10	1	0.843789	0.843789	0	1	0	0	CorrectCommission	1.102216	0.738817	0	0
444.196014	0.792155	city	1	1	0.744838	0.744838	0	1	0	0	CorrectCommission	0.489371	0.744024	0	0
444.988159	0.792160	city	3	1	0.794252	0.794252	0	1	0	0	CorrectCommission	0.795412	0.753184	0	0
445.780426	0.792368	city	1	1	0.844017	0.844017	0	1	0	0	CorrectCommission	1.103633	0.764686	0	0
446.572815	0.792375	city	6	1	0.751363	0.751363	0	1	0	0	CorrectCommission	0.529783	0.777024	0	0
447.365082	0.792155	city	7	1	0.794135	0.794135	0	1	0	0	CorrectCommission	0.794690	0.788908	0	0
448.157227	0.792171	city	2	1	0.794762	0.794762	0	1	0	0	CorrectCommission	0.798574	0.799240	0	0
448.949463	0.792305	city	9	1	0.805948	0.805948	0	1	0	0	CorrectCommission	0.867851	0.807153	0	0
449.741730	0.792209	city	2	1	0.745141	0.745141	0	1	0	0	CorrectCommission	0.491249	0.812081	0	0
450.533966	0.792266	city	3	1	0.844036	0.844036	0	1	0	0	CorrectCommission	1.103751	0.813803	0	0
451.326324	0.792481	city	1	1	0.844519	0.844519	0	1	0	0	CorrectCommission	1.106743	0.812455	0	0
452.118591	0.792046	city	10	1	0.799688	0.799688	0	1	0	0	CorrectCommission	0.829083	0.808622	0	0
452.910767	0.792267	city	6	1	0.894069	0.894069	0	1	0	0	CorrectCommission	1.413628	0.803294	0	0
453.703064	0.792372	mountain	3	0	0.000000	0.703102	1	0	0	0	CorrectOmission	0.230880	0.797860	0	0
454.495361	0.792211	city	3	1	0.497351	0.497351	0	1	0	0	CorrectCommission	1.043434	0.794052	0	0
455.287598	0.792221	city	5	1	0.547378	0.547378	0	1	0	0	CorrectCommission	0.733591	0.793708	0	0
456.079834	0.792257	city	8	1	0.562605	0.562605	0	1	0	0	CorrectCommission	0.639284	0.798628	0	0
456.872070	0.792264	city	10	1	0.645803	0.645803	0	1	0	0	CorrectCommission	0.124000	0.810335	0	0
457.664337	0.792262	city	9	1	0.797054	0.797054	0	1	0	0	CorrectCommission	0.812767	0.829846	0	0
458.456726	0.792484	city	7	1	0.844165	0.844165	0	1	0	0	CorrectCommission	1.104546	0.857502	0	0
459.249084	0.792263	city	1	1	0.697668	0.697668	0	1	0	0	CorrectCommission	0.197223	0.892905	0	0
460.041260	0.792050	city	10	1	0.748258	0.748258	0	1	0	0	CorrectCommission	0.510551	0.934915	0	0
460.833466	0.792372	city	9	1	0.843914	0.843914	0	1	0	0	CorrectCommission	1.102996	0.981724	0	0
461.625793	0.792262	city	10	1	0.843785	0.843785	0	1	0	0	CorrectCommission	1.102192	1.031092	0	0
462.417999	0.792160	city	9	1	0.843789	0.843789	0	1	0	0	CorrectCommission	1.102221	1.080607	0	0
463.210205	0.792262	city	1	1	0.943303	0.943303	0	1	0	0	CorrectCommission	1.718555	1.127954	0	0
464.002563	0.792483	city	5	1	0.844271	0.844271	0	1	0	0	CorrectCommission	1.105204	1.171175	0	0
464.794830	0.792050	city	8	1	0.859411	0.859411	0	1	0	0	CorrectCommission	1.198971	1.208862	0	0
465.587006	0.792255	city	9	1	0.898648	0.898648	0	1	0	0	CorrectCommission	1.441988	1.240217	0	0
466.379242	0.792271	city	6	1	0.942906	0.942906	0	1	0	0	CorrectCommission	1.716094	1.265030	0	0
467.171539	0.792268	city	3	1	0.951113	0.951113	0	1	0	0	CorrectCommission	1.766927	1.283507	0	0
467.963898	0.792479	city	7	1	0.947381	0.947381	0	1	0	0	CorrectCommission	1.743812	1.296022	0	0
468.756226	0.792157	city	2	1	0.843825	0.843825	0	1	0	0	CorrectCommission	1.102440	1.302861	0	0
469.548492	0.792373	mountain	7	0	0.000000	0.694494	1	0	0	0	CorrectOmission	0.177568	1.303997	0	0
470.340698	0.792049	city	3	1	0.550093	0.550093	0	1	0	0	CorrectCommission	0.716778	1.298940	0	0
471.132965	0.792481	city	2	1	0.461323	0.461323	0	1	0	0	CorrectCommission	1.266572	1.286756	0	0
471.925262	0.792131	city	3	1	0.398006	0.398006	0	1	0	0	CorrectCommission	1.658722	1.266243	0	0
472.717407	0.792184	city	7	1	0.409380	0.409380	0	1	0	0	CorrectCommission	1.588279	1.236269	0	0
473.509644	0.792270	city	3	1	0.349183	0.349183	0	1	0	0	CorrectCommission	1.961104	1.196134	0	0
474.301941	0.792341	city	4	1	0.304445	0.304445	0	1	0	0	CorrectCommission	2.238191	1.145894	0	0
475.094208	0.792178	city	3	1	0.349093	0.349093	0	1	0	0	CorrectCommission	1.961662	1.086536	0	0
475.886444	0.792286	mountain	7	1	0.501205	0.501205	0	0	1	0	CommissionError	1.019561	1.019995	0	0
476.678741	0.792294	mountain	1	1	0.598810	0.598810	0	0	1	0	CommissionError	0.415049	0.948954	0	0
477.471100	0.792434	city	10	1	0.695386	0.695386	0	1	0	0	CorrectCommission	0.183087	0.876469	0	0
478.263458	0.792263	city	6	1	0.695099	0.695099	0	1	0	0	CorrectCommission	0.181313	0.805575	0	0
479.055664	0.792157	city	10	1	0.596073	0.596073	0	1	0	0	CorrectCommission	0.432003	0.738912	0	0
479.847809	0.792154	city	9	1	0.645853	0.645853	0	1	0	0	CorrectCommission	0.123690	0.678451	0	0
480.640045	0.792333	city	6	1	0.759473	0.759473	0	1	0	0	CorrectCommission	0.580011	0.625396	1	0
481.432343	0.792250	city	3	1	0.913124	0.913124	0	1	0	0	CorrectCommission	1.531644	0.580186	1	0
482.224579	0.792217	mountain	2	0	0.000000	0.809925	1	0	0	0	CorrectOmission	0.892481	0.542619	1	0
483.016937	0.792478	city	7	1	0.653034	0.653034	0	1	0	0	CorrectCommission	0.079217	0.512050	1	0
483.809235	0.792155	city	8	1	0.645611	0.645611	0	1	0	0	CorrectCommission	0.125187	0.487531	1	0
484.601501	0.792373	city	1	1	0.645657	0.645657	0	1	0	0	CorrectCommission	0.124902	0.467932	1	0
485.393738	0.792106	city	9	1	0.596766	0.596766	0	1	0	0	CorrectCommission	0.427710	0.452050	1	0
486.185913	0.792206	city	1	1	0.596864	0.596864	0	1	0	0	CorrectCommission	0.427102	0.438650	1	0
486.978149	0.792265	mountain	8	0	0.000000	0.596962	1	0	0	0	CorrectOmission	0.426495	0.426495	1	0
