onset	duration	trial_type	image_type	Press	ReactionTime	ReactionTime_Interpolated	CorrectOmission	CorrectCommission	CommissionError	OmissionError	response_type	nonsmoothVarianceTimeCourse	VarianceTimeCourse	In_the_Zone	Reward_trial
8.433759	0.792266	city	10	1	0.695278	0.695278	0	1	0	0	CorrectCommission	0.091571	0.091571	1	0
9.226025	0.792265	city	8	1	0.645759	0.645759	0	1	0	0	CorrectCommission	0.367569	0.193930	1	0
10.018288	0.792263	city	4	1	0.708361	0.708361	0	1	0	0	CorrectCommission	0.212876	0.294067	1	0
10.810552	0.792265	city	5	1	0.695315	0.695315	0	1	0	0	CorrectCommission	0.091913	0.389741	1	0
11.602817	0.792265	city	6	1	0.794326	0.794326	0	1	0	0	CorrectCommission	1.009938	0.478679	1	0
12.395191	0.792483	city	2	1	0.744866	0.744866	0	1	0	0	CorrectCommission	0.551350	0.558597	1	0
13.187498	0.792131	city	7	1	0.794476	0.794476	0	1	0	0	CorrectCommission	1.011329	0.627372	1	0
13.979762	0.792396	city	10	1	0.695634	0.695634	0	1	0	0	CorrectCommission	0.094872	0.683153	1	0
14.771984	0.792048	city	8	1	0.794532	0.794532	0	1	0	0	CorrectCommission	1.011847	0.724609	1	0
15.564194	0.792372	city	2	1	0.905990	0.905990	0	1	0	0	CorrectCommission	2.045277	0.751055	0	0
16.356567	0.792375	city	8	1	0.762052	0.762052	0	1	0	0	CorrectCommission	0.710694	0.762656	0	0
17.148779	0.792046	city	9	1	0.893113	0.893113	0	1	0	0	CorrectCommission	1.925885	0.760493	0	0
17.940950	0.792300	city	6	1	0.794760	0.794760	0	1	0	0	CorrectCommission	1.013963	0.746396	0	0
18.733219	0.792235	mountain	3	0	0.000000	0.737144	1	0	0	0	CorrectOmission	0.479751	0.722905	1	0
19.525467	0.792263	city	4	1	0.695674	0.695674	0	1	0	0	CorrectCommission	0.095239	0.692919	1	0
20.317755	0.792311	city	6	1	0.645757	0.645757	0	1	0	0	CorrectCommission	0.367582	0.659412	1	0
21.110020	0.792220	city	5	1	0.614331	0.614331	0	1	0	0	CorrectCommission	0.658965	0.625184	1	0
21.902264	0.792267	city	2	1	0.695375	0.695375	0	1	0	0	CorrectCommission	0.092468	0.592615	1	0
22.694527	0.792260	city	10	1	0.744840	0.744840	0	1	0	0	CorrectCommission	0.551110	0.563592	1	0
23.486801	0.792290	mountain	4	0	0.000000	0.775858	1	0	0	0	CorrectOmission	0.838703	0.539395	1	0
24.279078	0.792261	city	3	1	0.744726	0.744726	0	1	0	0	CorrectCommission	0.550046	0.520765	1	0
25.071329	0.792242	city	9	1	0.607741	0.607741	0	1	0	0	CorrectCommission	0.720063	0.507944	1	0
25.863581	0.792263	city	4	1	0.645773	0.645773	0	1	0	0	CorrectCommission	0.367437	0.500704	1	0
26.655846	0.792265	city	1	1	0.645753	0.645753	0	1	0	0	CorrectCommission	0.367623	0.498403	1	0
27.448219	0.792484	city	3	1	0.695692	0.695692	0	1	0	0	CorrectCommission	0.095410	0.500023	1	0
28.240517	0.792108	city	8	1	0.695082	0.695082	0	1	0	0	CorrectCommission	0.089750	0.504233	1	0
29.032673	0.792205	city	1	1	0.698640	0.698640	0	1	0	0	CorrectCommission	0.122741	0.509496	1	0
29.825014	0.792479	city	10	1	0.756712	0.756712	0	1	0	0	CorrectCommission	0.661181	0.514250	1	0
30.617296	0.792083	city	1	1	0.744702	0.744702	0	1	0	0	CorrectCommission	0.549829	0.517100	1	0
31.409506	0.792339	city	10	1	0.893896	0.893896	0	1	0	0	CorrectCommission	1.933144	0.517099	1	0
32.201752	0.792155	city	9	1	0.753739	0.753739	0	1	0	0	CorrectCommission	0.633621	0.513868	1	0
32.993965	0.792265	city	3	1	0.744792	0.744792	0	1	0	0	CorrectCommission	0.550662	0.507756	1	0
33.786282	0.792373	city	4	1	0.745204	0.745204	0	1	0	0	CorrectCommission	0.554479	0.499849	1	0
34.578602	0.792267	city	5	1	0.713517	0.713517	0	1	0	0	CorrectCommission	0.260684	0.491838	1	0
35.370811	0.792154	city	3	1	0.695336	0.695336	0	1	0	0	CorrectCommission	0.092105	0.485834	1	0
36.163025	0.792267	city	5	1	0.645714	0.645714	0	1	0	0	CorrectCommission	0.367981	0.484114	1	0
36.955334	0.792352	city	3	1	0.695593	0.695593	0	1	0	0	CorrectCommission	0.094493	0.488816	1	0
37.747597	0.792177	city	2	1	0.645826	0.645826	0	1	0	0	CorrectCommission	0.366944	0.501699	1	0
38.539818	0.792263	city	9	1	0.646104	0.646104	0	1	0	0	CorrectCommission	0.364370	0.523892	1	0
39.332100	0.792305	city	1	1	0.596243	0.596243	0	1	0	0	CorrectCommission	0.826674	0.555760	1	0
40.124367	0.792229	city	3	1	0.646448	0.646448	0	1	0	0	CorrectCommission	0.361182	0.596785	1	0
40.916721	0.792479	city	4	1	0.646029	0.646029	0	1	0	0	CorrectCommission	0.365058	0.645558	1	0
41.709095	0.792264	city	6	1	0.645534	0.645534	0	1	0	0	CorrectCommission	0.369650	0.699837	1	0
42.501259	0.792066	city	2	1	0.596219	0.596219	0	1	0	0	CorrectCommission	0.826901	0.756691	0	0
43.293522	0.792463	city	1	1	0.695717	0.695717	0	1	0	0	CorrectCommission	0.095640	0.812751	0	0
44.085831	0.792156	city	7	1	0.794716	0.794716	0	1	0	0	CorrectCommission	1.013556	0.864551	0	0
44.877987	0.792157	city	10	1	0.800146	0.800146	0	1	0	0	CorrectCommission	1.063900	0.908854	0	0
45.670231	0.792329	city	5	1	0.846281	0.846281	0	1	0	0	CorrectCommission	1.491655	0.943052	0	0
46.462605	0.792417	mountain	8	0	0.000000	0.935653	1	0	0	0	CorrectOmission	2.320313	0.965432	0	0
47.254890	0.792157	city	8	1	0.943404	0.943404	0	1	0	0	CorrectCommission	2.392174	0.975319	0	0
48.047157	0.792374	city	1	1	0.744671	0.744671	0	1	0	0	CorrectCommission	0.549538	0.973073	0	0
48.839367	0.792045	city	3	1	0.744705	0.744705	0	1	0	0	CorrectCommission	0.549859	0.959895	0	0
49.631630	0.792483	city	7	1	0.794430	0.794430	0	1	0	0	CorrectCommission	1.010902	0.937488	0	0
50.423950	0.792158	city	10	1	0.700448	0.700448	0	1	0	0	CorrectCommission	0.139510	0.907728	0	0
51.216106	0.792153	mountain	2	0	0.000000	0.738437	1	0	0	0	CorrectOmission	0.491736	0.872376	0	0
52.008320	0.792278	city	4	1	0.744926	0.744926	0	1	0	0	CorrectCommission	0.551907	0.832873	0	0
52.800587	0.792258	city	7	1	0.556448	0.556448	0	1	0	0	CorrectCommission	1.195650	0.790333	0	0
53.592846	0.792261	city	8	1	0.546690	0.546690	0	1	0	0	CorrectCommission	1.286123	0.745604	0	0
54.385162	0.792373	city	2	1	0.562826	0.562826	0	1	0	0	CorrectCommission	1.136512	0.699480	1	0
55.177429	0.792157	city	6	1	0.557201	0.557201	0	1	0	0	CorrectCommission	1.188671	0.652830	1	0
55.969749	0.792484	city	2	1	0.647283	0.647283	0	1	0	0	CorrectCommission	0.353436	0.606714	1	0
56.762070	0.792155	city	10	1	0.645701	0.645701	0	1	0	0	CorrectCommission	0.368101	0.562403	1	0
57.554226	0.792158	city	7	1	0.695150	0.695150	0	1	0	0	CorrectCommission	0.090382	0.521257	1	0
58.346436	0.792265	city	2	1	0.646148	0.646148	0	1	0	0	CorrectCommission	0.363962	0.484606	1	0
59.138702	0.792267	city	4	1	0.708004	0.708004	0	1	0	0	CorrectCommission	0.209566	0.453537	1	0
59.930965	0.792261	city	3	1	0.704609	0.704609	0	1	0	0	CorrectCommission	0.178087	0.428781	1	0
60.723228	0.792265	city	6	1	0.695365	0.695365	0	1	0	0	CorrectCommission	0.092374	0.410644	1	0
61.515518	0.792315	city	3	1	0.695231	0.695231	0	1	0	0	CorrectCommission	0.091132	0.399005	1	0
62.307785	0.792217	city	10	1	0.596292	0.596292	0	1	0	0	CorrectCommission	0.826224	0.393434	1	0
63.100132	0.792479	city	2	1	0.745191	0.745191	0	1	0	0	CorrectCommission	0.554364	0.393317	1	0
63.892395	0.792048	city	4	1	0.645545	0.645545	0	1	0	0	CorrectCommission	0.369548	0.398032	1	0
64.684662	0.792480	city	1	1	0.645762	0.645762	0	1	0	0	CorrectCommission	0.367535	0.407057	1	0
65.476936	0.792074	city	10	1	0.607645	0.607645	0	1	0	0	CorrectCommission	0.720959	0.420055	1	0
66.269127	0.792305	city	6	1	0.705509	0.705509	0	1	0	0	CorrectCommission	0.186430	0.436827	1	0
67.061378	0.792199	city	4	1	0.695306	0.695306	0	1	0	0	CorrectCommission	0.091832	0.457232	1	0
67.853615	0.792267	city	8	1	0.645762	0.645762	0	1	0	0	CorrectCommission	0.367540	0.481091	1	1
68.645988	0.792481	city	1	1	0.645981	0.645981	0	1	0	0	CorrectCommission	0.365511	0.508019	1	1
69.438248	0.792047	city	9	1	0.605179	0.605179	0	1	0	0	CorrectCommission	0.743822	0.537372	1	1
70.230415	0.792286	city	4	1	0.645968	0.645968	0	1	0	0	CorrectCommission	0.365626	0.568182	1	1
71.022789	0.792460	mountain	2	0	0.000000	0.630697	1	0	0	0	CorrectOmission	0.507216	0.599219	1	1
71.815041	0.792046	city	7	1	0.613068	0.613068	0	1	0	0	CorrectCommission	0.670674	0.629104	1	1
72.607307	0.792483	city	4	1	0.646782	0.646782	0	1	0	0	CorrectCommission	0.358080	0.656444	1	1
73.399582	0.792065	city	1	1	0.546532	0.546532	0	1	0	0	CorrectCommission	1.287590	0.680063	1	1
74.191780	0.792328	city	7	1	0.596246	0.596246	0	1	0	0	CorrectCommission	0.826650	0.699119	1	1
74.984062	0.792236	city	8	1	0.551462	0.551462	0	1	0	0	CorrectCommission	1.241877	0.713259	1	1
75.776299	0.792247	city	9	1	0.596246	0.596246	0	1	0	0	CorrectCommission	0.826642	0.722611	1	1
76.568596	0.792340	city	10	1	0.596255	0.596255	0	1	0	0	CorrectCommission	0.826560	0.727766	1	1
77.360893	0.792264	city	8	1	0.603244	0.603244	0	1	0	0	CorrectCommission	0.761758	0.729581	1	1
78.153107	0.792158	city	5	1	0.613543	0.613543	0	1	0	0	CorrectCommission	0.666267	0.729012	1	1
78.945320	0.792262	city	4	1	0.659731	0.659731	0	1	0	0	CorrectCommission	0.238016	0.726916	1	1
79.737579	0.792268	city	8	1	0.653758	0.653758	0	1	0	0	CorrectCommission	0.293395	0.723877	1	1
80.529846	0.792261	mountain	10	0	0.000000	0.757764	1	0	0	0	CorrectOmission	0.670934	0.720168	1	1
81.322128	0.792300	city	4	1	0.809415	0.809415	0	1	0	0	CorrectCommission	1.149844	0.715758	1	1
82.114395	0.792236	city	1	1	0.646382	0.646382	0	1	0	0	CorrectCommission	0.361790	0.710450	1	1
82.906654	0.792283	city	6	1	0.554027	0.554027	0	1	0	0	CorrectCommission	1.218098	0.704039	1	1
83.698914	0.792243	city	10	1	0.596949	0.596949	0	1	0	0	CorrectCommission	0.820132	0.696457	1	1
84.491280	0.792480	city	7	1	0.794288	0.794288	0	1	0	0	CorrectCommission	1.009581	0.687940	1	1
85.283600	0.792156	city	4	1	0.794080	0.794080	0	1	0	0	CorrectCommission	1.007653	0.679028	1	1
86.075752	0.792156	city	1	1	0.663864	0.663864	0	1	0	0	CorrectCommission	0.199694	0.670521	1	1
86.867973	0.792282	city	3	1	0.794378	0.794378	0	1	0	0	CorrectCommission	1.010419	0.663377	1	1
87.660347	0.792465	city	10	1	0.695360	0.695360	0	1	0	0	CorrectCommission	0.092334	0.658564	1	1
88.452599	0.792046	city	1	1	0.704441	0.704441	0	1	0	0	CorrectCommission	0.176529	0.656994	1	1
89.244865	0.792483	city	5	1	0.744842	0.744842	0	1	0	0	CorrectCommission	0.551124	0.659382	1	1
90.037186	0.792157	city	2	1	0.705360	0.705360	0	1	0	0	CorrectCommission	0.185053	0.666315	1	1
90.829399	0.792264	city	1	1	0.744648	0.744648	0	1	0	0	CorrectCommission	0.549327	0.678341	1	1
91.621651	0.792246	city	7	1	0.844158	0.844158	0	1	0	0	CorrectCommission	1.471970	0.696061	1	1
92.413864	0.792178	city	5	1	0.794335	0.794335	0	1	0	0	CorrectCommission	1.010019	0.720197	1	1
93.206085	0.792266	city	3	1	0.800526	0.800526	0	1	0	0	CorrectCommission	1.067419	0.751607	0	1
93.998344	0.792259	city	2	1	0.794386	0.794386	0	1	0	0	CorrectCommission	1.010490	0.791100	0	1
94.790718	0.792484	city	5	1	0.695253	0.695253	0	1	0	0	CorrectCommission	0.091335	0.839149	0	1
95.582993	0.792069	city	8	1	0.744577	0.744577	0	1	0	0	CorrectCommission	0.548667	0.895557	0	1
96.375153	0.792246	city	1	1	0.695256	0.695256	0	1	0	0	CorrectCommission	0.091365	0.959065	0	1
97.167404	0.792260	city	9	1	0.744702	0.744702	0	1	0	0	CorrectCommission	0.549823	1.027199	0	1
97.959671	0.792265	city	5	1	0.695247	0.695247	0	1	0	0	CorrectCommission	0.091282	1.096208	0	1
98.751930	0.792267	city	8	1	0.799478	0.799478	0	1	0	0	CorrectCommission	1.057706	1.161355	0	1
99.544197	0.792267	mountain	8	0	0.000000	0.929840	1	0	0	0	CorrectOmission	2.266414	1.217402	0	1
100.336517	0.792369	city	3	1	0.992442	0.992442	0	1	0	0	CorrectCommission	2.846851	1.259260	0	1
101.128891	0.792376	city	6	1	0.893391	0.893391	0	1	0	0	CorrectCommission	1.928462	1.282752	0	1
101.921211	0.792262	city	1	1	0.803568	0.803568	0	1	0	0	CorrectCommission	1.095623	1.285235	0	1
102.713364	0.792050	mountain	7	0	0.000000	0.914030	1	0	0	0	CorrectOmission	2.119824	1.266006	0	1
103.505524	0.792268	city	6	1	0.995060	0.995060	0	1	0	0	CorrectCommission	2.871125	1.226393	0	1
104.297806	0.792298	mountain	1	0	0.000000	0.816937	1	0	0	0	CorrectOmission	1.219588	1.169615	0	1
105.090073	0.792225	city	2	1	0.609949	0.609949	0	1	0	0	CorrectCommission	0.699589	1.100404	0	1
105.882370	0.792375	city	9	1	0.604382	0.604382	0	1	0	0	CorrectCommission	0.751206	1.024290	0	1
106.674690	0.792265	city	6	1	0.645549	0.645549	0	1	0	0	CorrectCommission	0.369514	0.946917	0	1
107.466957	0.792264	city	1	1	0.646098	0.646098	0	1	0	0	CorrectCommission	0.364426	0.873403	0	1
108.259270	0.792373	city	7	1	0.695177	0.695177	0	1	0	0	CorrectCommission	0.090630	0.807801	0	1
109.051590	0.792266	mountain	9	0	0.000000	0.751211	1	0	0	0	CorrectOmission	0.610179	0.752814	0	1
109.843758	0.792067	city	4	1	0.745088	0.745088	0	1	0	0	CorrectCommission	0.553403	0.709741	1	1
110.635918	0.792245	city	9	1	0.607692	0.607692	0	1	0	0	CorrectCommission	0.720516	0.678610	1	1
111.428169	0.792266	mountain	5	0	0.000000	0.720362	1	0	0	0	CorrectOmission	0.324150	0.658481	1	1
112.220436	0.792265	city	9	1	0.808207	0.808207	0	1	0	0	CorrectCommission	1.138636	0.647817	1	1
113.012703	0.792266	city	7	1	0.596335	0.596335	0	1	0	0	CorrectCommission	0.825821	0.644819	1	1
113.805023	0.792371	city	3	1	0.645751	0.645751	0	1	0	0	CorrectCommission	0.367639	0.647763	1	1
114.597298	0.792186	city	9	1	0.645643	0.645643	0	1	0	0	CorrectCommission	0.368637	0.655195	1	1
115.389565	0.792343	city	3	1	0.712077	0.712077	0	1	0	0	CorrectCommission	0.247334	0.666037	1	1
116.181839	0.792205	city	1	1	0.794764	0.794764	0	1	0	0	CorrectCommission	1.013998	0.679596	1	1
116.974045	0.792215	city	8	1	0.800144	0.800144	0	1	0	0	CorrectCommission	1.063884	0.695466	1	1
117.766396	0.792483	city	4	1	0.844033	0.844033	0	1	0	0	CorrectCommission	1.470816	0.713438	1	1
118.558685	0.792099	city	5	1	0.695508	0.695508	0	1	0	0	CorrectCommission	0.093707	0.733329	0	1
119.350899	0.792321	city	3	1	0.697010	0.697010	0	1	0	0	CorrectCommission	0.107626	0.754866	0	1
120.143188	0.792265	city	10	1	0.646101	0.646101	0	1	0	0	CorrectCommission	0.364399	0.777494	0	1
120.935402	0.792158	city	2	1	0.744662	0.744662	0	1	0	0	CorrectCommission	0.549455	0.800324	0	1
121.727615	0.792264	city	9	1	0.843790	0.843790	0	1	0	0	CorrectCommission	1.468565	0.822184	0	1
122.519875	0.792266	mountain	4	0	0.000000	0.835552	1	0	0	0	CorrectOmission	1.392176	0.841667	0	1
123.312141	0.792261	city	8	1	0.744763	0.744763	0	1	0	0	CorrectCommission	0.550395	0.857304	0	1
124.104462	0.792374	city	7	1	0.596243	0.596243	0	1	0	0	CorrectCommission	0.826673	0.867739	0	1
124.896721	0.792156	city	3	1	0.515334	0.515334	0	1	0	0	CorrectCommission	1.576855	0.871864	0	1
125.688934	0.792265	city	6	1	0.603287	0.603287	0	1	0	0	CorrectCommission	0.761364	0.868983	0	1
126.481239	0.792345	city	8	1	0.562654	0.562654	0	1	0	0	CorrectCommission	1.138108	0.858963	0	1
127.273514	0.792201	city	9	1	0.645702	0.645702	0	1	0	0	CorrectCommission	0.368096	0.842257	0	0
128.065842	0.792467	city	10	1	0.547010	0.547010	0	1	0	0	CorrectCommission	1.283160	0.819984	0	0
128.858109	0.792046	city	9	1	0.609528	0.609528	0	1	0	0	CorrectCommission	0.703493	0.793871	0	0
129.650253	0.792269	city	5	1	0.546823	0.546823	0	1	0	0	CorrectCommission	1.284894	0.766227	0	0
130.442520	0.792262	city	2	1	0.596262	0.596262	0	1	0	0	CorrectCommission	0.826500	0.739780	0	0
131.234787	0.792263	city	6	1	0.610265	0.610265	0	1	0	0	CorrectCommission	0.696667	0.717496	1	0
132.027054	0.792264	city	9	1	0.651561	0.651561	0	1	0	0	CorrectCommission	0.313767	0.702260	1	0
132.819427	0.792484	city	3	1	0.658304	0.658304	0	1	0	0	CorrectCommission	0.251246	0.696608	1	0
133.611694	0.792048	city	1	1	0.657683	0.657683	0	1	0	0	CorrectCommission	0.257005	0.702371	1	0
134.403961	0.792482	city	3	1	0.695323	0.695323	0	1	0	0	CorrectCommission	0.091991	0.720395	1	0
135.196335	0.792263	city	8	1	0.596119	0.596119	0	1	0	0	CorrectCommission	0.827820	0.750364	0	0
135.988586	0.792266	city	1	1	0.596356	0.596356	0	1	0	0	CorrectCommission	0.825623	0.790734	0	0
136.780746	0.792048	city	3	1	0.744621	0.744621	0	1	0	0	CorrectCommission	0.549077	0.838806	0	0
137.572937	0.792312	mountain	1	0	0.000000	0.712182	1	0	0	0	CorrectOmission	0.248301	0.890960	0	0
138.365295	0.792432	city	9	1	0.609489	0.609489	0	1	0	0	CorrectCommission	0.703858	0.943002	0	0
139.157547	0.792051	city	4	1	0.546994	0.546994	0	1	0	0	CorrectCommission	1.283304	0.990600	0	0
139.949707	0.792268	city	1	1	0.505481	0.505481	0	1	0	0	CorrectCommission	1.668216	1.029803	0	0
140.741959	0.792257	city	9	1	0.497192	0.497192	0	1	0	0	CorrectCommission	1.745070	1.057501	0	0
141.534225	0.792267	city	1	1	0.449261	0.449261	0	1	0	0	CorrectCommission	2.189475	1.071783	0	0
142.326492	0.792266	city	4	1	0.497287	0.497287	0	1	0	0	CorrectCommission	1.744187	1.072094	0	0
143.118820	0.792371	city	3	1	0.560180	0.560180	0	1	0	0	CorrectCommission	1.161045	1.059280	0	0
143.911072	0.792155	city	2	1	0.605653	0.605653	0	1	0	0	CorrectCommission	0.739425	1.035332	0	0
144.703308	0.792296	city	10	1	0.645968	0.645968	0	1	0	0	CorrectCommission	0.365623	1.003080	0	0
145.495621	0.792342	city	5	1	0.794263	0.794263	0	1	0	0	CorrectCommission	1.009350	0.965725	0	0
146.287872	0.792157	mountain	1	0	0.000000	0.770396	1	0	0	0	CorrectOmission	0.788055	0.926423	0	0
147.080093	0.792296	city	8	1	0.659496	0.659496	0	1	0	0	CorrectCommission	0.240198	0.887966	0	0
147.872360	0.792233	city	2	1	0.546693	0.546693	0	1	0	0	CorrectCommission	1.286101	0.852527	0	0
148.664688	0.792428	city	10	1	0.497424	0.497424	0	1	0	0	CorrectCommission	1.742916	0.821469	0	0
149.457062	0.792320	city	7	1	0.653628	0.653628	0	1	0	0	CorrectCommission	0.294606	0.795364	0	0
150.249252	0.792047	mountain	5	0	0.000000	0.667677	1	0	0	0	CorrectOmission	0.164347	0.774064	0	0
151.041428	0.792299	city	8	1	0.646049	0.646049	0	1	0	0	CorrectCommission	0.364877	0.756767	0	0
151.833679	0.792229	city	1	1	0.695224	0.695224	0	1	0	0	CorrectCommission	0.091066	0.742246	0	0
152.625931	0.792269	city	5	1	0.794811	0.794811	0	1	0	0	CorrectCommission	1.014429	0.729076	1	0
153.418213	0.792289	city	1	1	0.794465	0.794465	0	1	0	0	CorrectCommission	1.011228	0.715870	1	0
154.210480	0.792237	city	5	1	0.843763	0.843763	0	1	0	0	CorrectCommission	1.468316	0.701570	1	0
155.002747	0.792301	city	8	1	0.844474	0.844474	0	1	0	0	CorrectCommission	1.474907	0.685572	1	0
155.795013	0.792230	city	9	1	0.760611	0.760611	0	1	0	0	CorrectCommission	0.697336	0.667814	1	0
156.587250	0.792262	city	8	1	0.657213	0.657213	0	1	0	0	CorrectCommission	0.261366	0.648730	1	0
157.379517	0.792266	city	9	1	0.695309	0.695309	0	1	0	0	CorrectCommission	0.091860	0.629106	1	0
158.171814	0.792334	city	3	1	0.648441	0.648441	0	1	0	0	CorrectCommission	0.342701	0.609911	1	0
158.964020	0.792072	city	7	1	0.695243	0.695243	0	1	0	0	CorrectCommission	0.091248	0.592098	1	0
159.756256	0.792398	city	6	1	0.794727	0.794727	0	1	0	0	CorrectCommission	1.013653	0.576503	1	0
160.548615	0.792315	mountain	2	0	0.000000	0.784305	1	0	0	0	CorrectOmission	0.917018	0.563743	1	0
161.340881	0.792206	city	4	1	0.705667	0.705667	0	1	0	0	CorrectCommission	0.187894	0.554236	1	0
162.133224	0.792481	city	1	1	0.600503	0.600503	0	1	0	0	CorrectCommission	0.787172	0.548251	1	0
162.925491	0.792048	city	3	1	0.608797	0.608797	0	1	0	0	CorrectCommission	0.710275	0.545893	1	0
163.717651	0.792294	city	2	1	0.695461	0.695461	0	1	0	0	CorrectCommission	0.093266	0.547187	1	0
164.509979	0.792343	city	10	1	0.645723	0.645723	0	1	0	0	CorrectCommission	0.367898	0.552112	1	0
165.302277	0.792264	city	1	1	0.645640	0.645640	0	1	0	0	CorrectCommission	0.368666	0.560534	1	0
166.094482	0.792154	city	10	1	0.600099	0.600099	0	1	0	0	CorrectCommission	0.790923	0.572204	1	0
166.886749	0.792373	city	8	1	0.794265	0.794265	0	1	0	0	CorrectCommission	1.009367	0.586739	1	0
167.679016	0.792159	city	4	1	0.645657	0.645657	0	1	0	0	CorrectCommission	0.368513	0.603575	1	0
168.471237	0.792266	city	9	1	0.695254	0.695254	0	1	0	0	CorrectCommission	0.091345	0.621949	1	0
169.263489	0.792264	city	6	1	0.756765	0.756765	0	1	0	0	CorrectCommission	0.661676	0.640890	1	0
170.055817	0.792371	city	9	1	0.744799	0.744799	0	1	0	0	CorrectCommission	0.550722	0.659252	1	0
170.848068	0.792155	city	4	1	0.596146	0.596146	0	1	0	0	CorrectCommission	0.827570	0.675813	1	0
171.640335	0.792375	city	8	1	0.597046	0.597046	0	1	0	0	CorrectCommission	0.819229	0.689378	1	0
172.432663	0.792264	city	5	1	0.596107	0.596107	0	1	0	0	CorrectCommission	0.827932	0.698926	1	0
173.224884	0.792174	city	9	1	0.547169	0.547169	0	1	0	0	CorrectCommission	1.281689	0.703719	1	0
174.017151	0.792356	city	10	1	0.597144	0.597144	0	1	0	0	CorrectCommission	0.818321	0.703395	1	0
174.809402	0.792160	city	1	1	0.596312	0.596312	0	1	0	0	CorrectCommission	0.826038	0.697992	1	0
175.601715	0.792479	city	4	1	0.609779	0.609779	0	1	0	0	CorrectCommission	0.701170	0.687908	1	0
176.394043	0.792155	city	3	1	0.695098	0.695098	0	1	0	0	CorrectCommission	0.089901	0.673861	1	0
177.186310	0.792373	city	5	1	0.757402	0.757402	0	1	0	0	CorrectCommission	0.667579	0.656762	1	0
177.978561	0.792157	city	7	1	0.794244	0.794244	0	1	0	0	CorrectCommission	1.009177	0.637620	1	0
178.770721	0.792156	city	5	1	0.744739	0.744739	0	1	0	0	CorrectCommission	0.550172	0.617463	1	0
179.562988	0.792372	city	6	1	0.794281	0.794281	0	1	0	0	CorrectCommission	1.009518	0.597242	1	0
180.355255	0.792164	city	10	1	0.744687	0.744687	0	1	0	0	CorrectCommission	0.549684	0.577747	1	0
181.147491	0.792317	mountain	1	0	0.000000	0.704499	1	0	0	0	CorrectOmission	0.177067	0.559611	1	0
181.939865	0.792424	city	7	1	0.695556	0.695556	0	1	0	0	CorrectCommission	0.094145	0.543237	1	0
182.732101	0.792046	mountain	6	0	0.000000	0.739694	1	0	0	0	CorrectOmission	0.503393	0.528823	1	0
183.524261	0.792266	city	6	1	0.751545	0.751545	0	1	0	0	CorrectCommission	0.613274	0.516381	1	0
184.316528	0.792268	city	3	1	0.645739	0.645739	0	1	0	0	CorrectCommission	0.367748	0.505782	1	0
185.108795	0.792285	mountain	7	1	0.551554	0.551554	0	0	1	0	CommissionError	1.241030	0.496854	1	0
185.901062	0.792243	city	4	1	0.705822	0.705822	0	1	0	0	CorrectCommission	0.189337	0.489396	1	0
186.693329	0.792273	city	3	1	0.645854	0.645854	0	1	0	0	CorrectCommission	0.366684	0.483277	1	1
187.485641	0.792362	city	4	1	0.744877	0.744877	0	1	0	0	CorrectCommission	0.551448	0.478385	1	1
188.277908	0.792170	city	9	1	0.695161	0.695161	0	1	0	0	CorrectCommission	0.090482	0.474676	1	1
189.070114	0.792254	city	8	1	0.794315	0.794315	0	1	0	0	CorrectCommission	1.009834	0.472151	1	1
189.862488	0.792479	city	2	1	0.695237	0.695237	0	1	0	0	CorrectCommission	0.091195	0.470803	1	1
190.654800	0.792154	city	3	1	0.702766	0.702766	0	1	0	0	CorrectCommission	0.161002	0.470671	1	1
191.446960	0.792157	city	4	1	0.760310	0.760310	0	1	0	0	CorrectCommission	0.694543	0.471809	1	1
192.239166	0.792266	city	7	1	0.701785	0.701785	0	1	0	0	CorrectCommission	0.151900	0.474328	1	1
193.031494	0.792372	city	5	1	0.807192	0.807192	0	1	0	0	CorrectCommission	1.129228	0.478399	1	1
193.823761	0.792168	city	4	1	0.757059	0.757059	0	1	0	0	CorrectCommission	0.664402	0.484238	1	1
194.616074	0.792471	city	8	1	0.652267	0.652267	0	1	0	0	CorrectCommission	0.307227	0.492082	1	1
195.408386	0.792157	city	6	1	0.695043	0.695043	0	1	0	0	CorrectCommission	0.089389	0.502113	1	1
196.200607	0.792265	city	9	1	0.744681	0.744681	0	1	0	0	CorrectCommission	0.549633	0.514373	1	1
196.992920	0.792372	city	8	1	0.707401	0.707401	0	1	0	0	CorrectCommission	0.203972	0.528649	1	1
197.785141	0.792053	city	1	1	0.744536	0.744536	0	1	0	0	CorrectCommission	0.548283	0.544447	1	1
198.577286	0.792259	city	6	1	0.794278	0.794278	0	1	0	0	CorrectCommission	1.009492	0.560930	1	1
199.369553	0.792265	city	3	1	0.695266	0.695266	0	1	0	0	CorrectCommission	0.091458	0.576950	1	1
200.161819	0.792265	city	7	1	0.753990	0.753990	0	1	0	0	CorrectCommission	0.635940	0.591153	1	1
200.954132	0.792372	city	9	1	0.744773	0.744773	0	1	0	0	CorrectCommission	0.550488	0.602063	1	1
201.746460	0.792265	city	10	1	0.794603	0.794603	0	1	0	0	CorrectCommission	1.012501	0.608300	1	1
202.538666	0.792156	city	2	1	0.707854	0.707854	0	1	0	0	CorrectCommission	0.208177	0.608739	1	1
203.330872	0.792267	city	6	1	0.848402	0.848402	0	1	0	0	CorrectCommission	1.511321	0.602720	1	1
204.123199	0.792370	city	7	1	0.811701	0.811701	0	1	0	0	CorrectCommission	1.171033	0.590094	1	1
204.915482	0.792201	city	4	1	0.755114	0.755114	0	1	0	0	CorrectCommission	0.646367	0.571354	1	1
205.707748	0.792330	city	6	1	0.704337	0.704337	0	1	0	0	CorrectCommission	0.175568	0.547607	1	1
206.500000	0.792170	city	9	1	0.695639	0.695639	0	1	0	0	CorrectCommission	0.094918	0.520462	1	1
207.292206	0.792252	city	8	1	0.803072	0.803072	0	1	0	0	CorrectCommission	1.091027	0.491942	1	1
208.084473	0.792265	city	2	1	0.695294	0.695294	0	1	0	0	CorrectCommission	0.091721	0.464276	1	1
208.876724	0.792262	city	7	1	0.744772	0.744772	0	1	0	0	CorrectCommission	0.550478	0.439754	1	1
209.669006	0.792289	city	8	1	0.695268	0.695268	0	1	0	0	CorrectCommission	0.091474	0.420515	1	1
210.461273	0.792243	city	2	1	0.645766	0.645766	0	1	0	0	CorrectCommission	0.367504	0.408356	1	1
211.253525	0.792264	city	10	1	0.645782	0.645782	0	1	0	0	CorrectCommission	0.367354	0.404564	1	1
212.045898	0.792479	city	5	1	0.695420	0.695420	0	1	0	0	CorrectCommission	0.092888	0.409792	1	1
212.838272	0.792265	mountain	5	0	0.000000	0.716474	1	0	0	0	CorrectOmission	0.288100	0.423924	1	1
213.630432	0.792050	city	3	1	0.702194	0.702194	0	1	0	0	CorrectCommission	0.155699	0.446021	1	1
214.422638	0.792370	city	4	1	0.645831	0.645831	0	1	0	0	CorrectCommission	0.366895	0.474373	1	1
215.214905	0.792155	city	2	1	0.709796	0.709796	0	1	0	0	CorrectCommission	0.226177	0.506614	1	1
216.007172	0.792376	city	5	1	0.695253	0.695253	0	1	0	0	CorrectCommission	0.091337	0.539964	1	1
216.799438	0.792158	city	10	1	0.709109	0.709109	0	1	0	0	CorrectCommission	0.219810	0.571595	1	1
217.591644	0.792281	city	7	1	0.843852	0.843852	0	1	0	0	CorrectCommission	1.469139	0.598981	1	1
218.383972	0.792355	city	2	1	0.843820	0.843820	0	1	0	0	CorrectCommission	1.468844	0.620242	1	1
219.176331	0.792374	mountain	1	0	0.000000	0.833418	1	0	0	0	CorrectOmission	1.372394	0.634457	1	1
219.968536	0.792046	city	6	1	0.803468	0.803468	0	1	0	0	CorrectCommission	1.094701	0.641769	1	1
220.760712	0.792290	city	3	1	0.744794	0.744794	0	1	0	0	CorrectCommission	0.550677	0.643286	1	1
221.552994	0.792267	city	5	1	0.699240	0.699240	0	1	0	0	CorrectCommission	0.128310	0.640848	1	1
222.345245	0.792241	city	2	1	0.744770	0.744770	0	1	0	0	CorrectCommission	0.550454	0.636647	1	1
223.137604	0.792478	city	4	1	0.744766	0.744766	0	1	0	0	CorrectCommission	0.550417	0.632766	1	1
223.929871	0.792047	city	2	1	0.695250	0.695250	0	1	0	0	CorrectCommission	0.091309	0.630791	1	1
224.722031	0.792269	city	9	1	0.744783	0.744783	0	1	0	0	CorrectCommission	0.550579	0.631536	1	1
225.514343	0.792371	city	1	1	0.695389	0.695389	0	1	0	0	CorrectCommission	0.092600	0.634925	1	1
226.306610	0.792155	city	9	1	0.695186	0.695186	0	1	0	0	CorrectCommission	0.090722	0.640085	1	1
227.098846	0.792325	mountain	5	1	0.546858	0.546858	0	0	1	0	CommissionError	1.284566	0.645620	1	1
227.891113	0.792207	city	5	1	0.596200	0.596200	0	1	0	0	CorrectCommission	0.827075	0.649923	1	1
228.683350	0.792262	city	10	1	0.546935	0.546935	0	1	0	0	CorrectCommission	1.283855	0.651647	1	1
229.475616	0.792268	mountain	9	1	0.546874	0.546874	0	0	1	0	CommissionError	1.284418	0.649934	1	1
230.267883	0.792264	city	6	1	0.808603	0.808603	0	1	0	0	CorrectCommission	1.142316	0.644680	1	1
231.060257	0.792479	city	3	1	0.666940	0.666940	0	1	0	0	CorrectCommission	0.171176	0.636578	1	1
231.852509	0.792051	city	10	1	0.645511	0.645511	0	1	0	0	CorrectCommission	0.369868	0.627003	1	1
232.644669	0.792264	city	9	1	0.744932	0.744932	0	1	0	0	CorrectCommission	0.551963	0.617751	1	1
233.436935	0.792263	city	4	1	0.695372	0.695372	0	1	0	0	CorrectCommission	0.092445	0.610753	1	1
234.229309	0.792481	city	7	1	0.753490	0.753490	0	1	0	0	CorrectCommission	0.631305	0.607868	1	1
235.021576	0.792048	city	9	1	0.712986	0.712986	0	1	0	0	CorrectCommission	0.255763	0.610607	1	1
235.813721	0.792263	city	2	1	0.745157	0.745157	0	1	0	0	CorrectCommission	0.554048	0.620064	1	1
236.606018	0.792319	city	1	1	0.645729	0.645729	0	1	0	0	CorrectCommission	0.367844	0.636844	1	1
237.398392	0.792428	city	5	1	0.794272	0.794272	0	1	0	0	CorrectCommission	1.009438	0.661088	1	1
238.190628	0.792049	city	9	1	0.794222	0.794222	0	1	0	0	CorrectCommission	1.008970	0.692465	1	1
238.982895	0.792480	city	7	1	0.708606	0.708606	0	1	0	0	CorrectCommission	0.215143	0.730207	1	1
239.775208	0.792156	city	1	1	0.794194	0.794194	0	1	0	0	CorrectCommission	1.008708	0.773067	0	1
240.567398	0.792221	city	9	1	0.745203	0.745203	0	1	0	0	CorrectCommission	0.554471	0.819248	0	1
241.359619	0.792204	city	5	1	0.695328	0.695328	0	1	0	0	CorrectCommission	0.092031	0.866471	0	1
242.151840	0.792260	city	1	1	0.794428	0.794428	0	1	0	0	CorrectCommission	1.010887	0.911952	0	1
242.944107	0.792266	city	3	1	0.812703	0.812703	0	1	0	0	CorrectCommission	1.180327	0.952517	0	1
243.736420	0.792344	city	9	1	0.893417	0.893417	0	1	0	0	CorrectCommission	1.928697	0.984888	0	1
244.528732	0.792292	city	6	1	0.695163	0.695163	0	1	0	0	CorrectCommission	0.090505	1.005979	0	1
245.320984	0.792219	city	3	1	0.746920	0.746920	0	1	0	0	CorrectCommission	0.570388	1.013373	0	1
246.113205	0.792202	city	5	1	0.909821	0.909821	0	1	0	0	CorrectCommission	2.080799	1.005632	0	0
246.905441	0.792269	mountain	7	0	0.000000	0.994821	1	0	0	0	CorrectOmission	2.868910	0.982631	0	0
247.697708	0.792264	city	1	1	0.942955	0.942955	0	1	0	0	CorrectCommission	2.388016	0.945735	0	0
248.489990	0.792302	city	3	1	0.695261	0.695261	0	1	0	0	CorrectCommission	0.091411	0.897754	0	0
249.282303	0.792334	city	7	1	0.754326	0.754326	0	1	0	0	CorrectCommission	0.639061	0.842626	0	0
250.074554	0.792159	city	9	1	0.744703	0.744703	0	1	0	0	CorrectCommission	0.549838	0.784839	0	0
250.866760	0.792262	city	6	1	0.695263	0.695263	0	1	0	0	CorrectCommission	0.091436	0.728926	1	0
251.659027	0.792265	mountain	1	0	0.000000	0.693350	1	0	0	0	CorrectOmission	0.073690	0.678857	1	0
252.451294	0.792265	city	7	1	0.695319	0.695319	0	1	0	0	CorrectCommission	0.091954	0.637549	1	0
253.243561	0.792276	city	10	1	0.657530	0.657530	0	1	0	0	CorrectCommission	0.258421	0.606588	1	0
254.035828	0.792256	city	8	1	0.601652	0.601652	0	1	0	0	CorrectCommission	0.776521	0.586175	1	0
254.828079	0.792260	city	3	1	0.645726	0.645726	0	1	0	0	CorrectCommission	0.367868	0.575278	1	0
255.620346	0.792265	city	1	1	0.695708	0.695708	0	1	0	0	CorrectCommission	0.095560	0.571987	1	0
256.412598	0.792265	city	6	1	0.808011	0.808011	0	1	0	0	CorrectCommission	1.136824	0.573951	1	0
257.204865	0.792262	city	3	1	0.794301	0.794301	0	1	0	0	CorrectCommission	1.009704	0.578766	1	0
257.997131	0.792268	city	5	1	0.745142	0.745142	0	1	0	0	CorrectCommission	0.553902	0.584424	1	0
258.789520	0.792481	city	10	1	0.744769	0.744769	0	1	0	0	CorrectCommission	0.550446	0.589565	1	0
259.581787	0.792049	city	6	1	0.798331	0.798331	0	1	0	0	CorrectCommission	1.047074	0.593572	1	0
260.373962	0.792291	city	4	1	0.749356	0.749356	0	1	0	0	CorrectCommission	0.592977	0.596542	1	0
261.166199	0.792236	city	6	1	0.744748	0.744748	0	1	0	0	CorrectCommission	0.550253	0.599118	1	0
261.958527	0.792372	city	9	1	0.645796	0.645796	0	1	0	0	CorrectCommission	0.367225	0.602280	1	0
262.750793	0.792167	city	2	1	0.645655	0.645655	0	1	0	0	CorrectCommission	0.368530	0.607020	1	0
263.543030	0.792296	city	8	1	0.596231	0.596231	0	1	0	0	CorrectCommission	0.826790	0.614084	1	0
264.335266	0.792224	city	1	1	0.646017	0.646017	0	1	0	0	CorrectCommission	0.365173	0.623807	1	0
265.127563	0.792372	city	7	1	0.696508	0.696508	0	1	0	0	CorrectCommission	0.102978	0.636059	1	0
265.919891	0.792266	city	9	1	0.710798	0.710798	0	1	0	0	CorrectCommission	0.235471	0.650317	1	0
266.712097	0.792155	city	8	1	0.794170	0.794170	0	1	0	0	CorrectCommission	1.008491	0.665790	1	0
267.504333	0.792275	city	7	1	0.794635	0.794635	0	1	0	0	CorrectCommission	1.012805	0.681690	1	0
268.296631	0.792363	city	6	1	0.794305	0.794305	0	1	0	0	CorrectCommission	1.009743	0.697476	1	0
269.088898	0.792159	city	7	1	0.794260	0.794260	0	1	0	0	CorrectCommission	1.009320	0.713039	1	0
269.881226	0.792480	city	2	1	0.794674	0.794674	0	1	0	0	CorrectCommission	1.013160	0.728796	1	0
270.673492	0.792048	city	1	1	0.744577	0.744577	0	1	0	0	CorrectCommission	0.548670	0.745613	0	0
271.465668	0.792346	mountain	3	0	0.000000	0.748772	1	0	0	0	CorrectOmission	0.587563	0.764623	0	0
272.258057	0.792400	mountain	4	0	0.000000	0.763481	1	0	0	0	CorrectOmission	0.723941	0.786921	0	0
273.050323	0.792157	city	3	1	0.744926	0.744926	0	1	0	0	CorrectCommission	0.551903	0.813240	0	0
273.842590	0.792372	city	9	1	0.649331	0.649331	0	1	0	0	CorrectCommission	0.334449	0.843635	0	0
274.634918	0.792266	city	6	1	0.596086	0.596086	0	1	0	0	CorrectCommission	0.828126	0.877279	0	0
275.427185	0.792264	city	3	1	0.596859	0.596859	0	1	0	0	CorrectCommission	0.820963	0.912416	0	0
276.219452	0.792266	city	10	1	0.695126	0.695126	0	1	0	0	CorrectCommission	0.090161	0.946563	0	0
277.011597	0.792055	city	8	1	0.560570	0.560570	0	1	0	0	CorrectCommission	1.157429	0.976821	0	0
277.803772	0.792296	city	7	1	0.554209	0.554209	0	1	0	0	CorrectCommission	1.216412	1.000311	0	0
278.596039	0.792225	city	1	1	0.497689	0.497689	0	1	0	0	CorrectCommission	1.740457	1.014721	0	0
279.388306	0.792295	city	10	1	0.398539	0.398539	0	1	0	0	CorrectCommission	2.659771	1.018710	0	0
280.180573	0.792235	city	9	1	0.497676	0.497676	0	1	0	0	CorrectCommission	1.740583	1.012164	0	0
280.972809	0.792266	city	7	1	0.596265	0.596265	0	1	0	0	CorrectCommission	0.826467	0.996245	0	0
281.765076	0.792266	city	9	1	0.645749	0.645749	0	1	0	0	CorrectCommission	0.367659	0.973176	0	0
282.557465	0.792479	city	5	1	0.547587	0.547587	0	1	0	0	CorrectCommission	1.277813	0.945799	0	0
283.349823	0.792265	city	6	1	0.744735	0.744735	0	1	0	0	CorrectCommission	0.550129	0.917024	0	0
284.141998	0.792097	city	5	1	0.695036	0.695036	0	1	0	0	CorrectCommission	0.089327	0.889351	0	0
284.934204	0.792323	city	1	1	0.758327	0.758327	0	1	0	0	CorrectCommission	0.676155	0.864439	0	0
285.726562	0.792376	mountain	5	0	0.000000	0.725381	1	0	0	0	CorrectOmission	0.370686	0.842855	0	0
286.518829	0.792155	city	2	1	0.652532	0.652532	0	1	0	0	CorrectCommission	0.304769	0.824133	0	0
287.311096	0.792372	city	7	1	0.596111	0.596111	0	1	0	0	CorrectCommission	0.827896	0.807009	0	0
288.103333	0.792088	city	9	1	0.546508	0.546508	0	1	0	0	CorrectCommission	1.287809	0.789811	0	0
288.895477	0.792229	city	3	1	0.448521	0.448521	0	1	0	0	CorrectCommission	2.196341	0.770922	0	0
289.687744	0.792260	city	8	1	0.546857	0.546857	0	1	0	0	CorrectCommission	1.284573	0.749193	0	0
290.479980	0.792266	city	1	1	0.703332	0.703332	0	1	0	0	CorrectCommission	0.166247	0.724243	1	0
291.272247	0.792264	city	9	1	0.596217	0.596217	0	1	0	0	CorrectCommission	0.826919	0.696572	1	0
292.064514	0.792266	city	5	1	0.745290	0.745290	0	1	0	0	CorrectCommission	0.555278	0.667405	1	0
292.856781	0.792267	city	7	1	0.700435	0.700435	0	1	0	0	CorrectCommission	0.139384	0.638554	1	0
293.649109	0.792371	city	5	1	0.645717	0.645717	0	1	0	0	CorrectCommission	0.367958	0.612063	1	0
294.441376	0.792153	city	1	1	0.609835	0.609835	0	1	0	0	CorrectCommission	0.700652	0.589879	1	0
295.233582	0.792269	city	5	1	0.596619	0.596619	0	1	0	0	CorrectCommission	0.823187	0.573597	1	0
296.025848	0.792262	city	6	1	0.695288	0.695288	0	1	0	0	CorrectCommission	0.091664	0.564292	1	0
296.818115	0.792289	city	5	1	0.645756	0.645756	0	1	0	0	CorrectCommission	0.367591	0.562376	1	0
297.610382	0.792260	city	4	1	0.713275	0.713275	0	1	0	0	CorrectCommission	0.258437	0.567657	1	0
298.402710	0.792352	city	2	1	0.695280	0.695280	0	1	0	0	CorrectCommission	0.091593	0.579448	1	0
299.195068	0.792375	city	1	1	0.656954	0.656954	0	1	0	0	CorrectCommission	0.263763	0.596748	1	0
299.987305	0.792120	city	8	1	0.844886	0.844886	0	1	0	0	CorrectCommission	1.478721	0.618391	1	0
300.779572	0.792410	city	4	1	0.811317	0.811317	0	1	0	0	CorrectCommission	1.167477	0.643219	1	0
301.571808	0.792049	city	1	1	0.745004	0.745004	0	1	0	0	CorrectCommission	0.552629	0.670251	1	0
302.364014	0.792373	city	2	1	0.607780	0.607780	0	1	0	0	CorrectCommission	0.719707	0.698657	1	0
303.156342	0.792262	city	7	1	0.608496	0.608496	0	1	0	0	CorrectCommission	0.713066	0.727714	1	0
303.948547	0.792160	city	1	1	0.662767	0.662767	0	1	0	0	CorrectCommission	0.209870	0.756726	0	0
304.740814	0.792372	city	10	1	0.596234	0.596234	0	1	0	0	CorrectCommission	0.826758	0.784899	0	0
305.533081	0.792157	city	5	1	0.695155	0.695155	0	1	0	0	CorrectCommission	0.090433	0.811280	0	1
306.325287	0.792278	city	1	1	0.809531	0.809531	0	1	0	0	CorrectCommission	1.150915	0.834781	0	1
307.117615	0.792359	city	4	1	0.795540	0.795540	0	1	0	0	CorrectCommission	1.021189	0.854232	0	1
307.909882	0.792159	city	5	1	0.904408	0.904408	0	1	0	0	CorrectCommission	2.030605	0.868607	0	1
308.702087	0.792260	city	3	1	0.749276	0.749276	0	1	0	0	CorrectCommission	0.592236	0.877130	0	1
309.494354	0.792277	city	7	1	0.745617	0.745617	0	1	0	0	CorrectCommission	0.558311	0.879548	0	1
310.286621	0.792257	city	5	1	0.797068	0.797068	0	1	0	0	CorrectCommission	1.035360	0.876175	0	1
311.078888	0.792284	city	6	1	0.942821	0.942821	0	1	0	0	CorrectCommission	2.386771	0.867918	0	1
311.871246	0.792459	city	3	1	0.703519	0.703519	0	1	0	0	CorrectCommission	0.167983	0.856238	0	1
312.663513	0.792048	city	9	1	0.645997	0.645997	0	1	0	0	CorrectCommission	0.365362	0.843117	0	1
313.455688	0.792322	city	6	1	0.645750	0.645750	0	1	0	0	CorrectCommission	0.367648	0.830783	0	1
314.247955	0.792207	city	7	1	0.563678	0.563678	0	1	0	0	CorrectCommission	1.128615	0.821549	0	1
315.040192	0.792269	city	10	1	0.563437	0.563437	0	1	0	0	CorrectCommission	1.130849	0.817571	0	1
315.832489	0.792306	city	1	1	0.645749	0.645749	0	1	0	0	CorrectCommission	0.367654	0.820667	0	1
316.624817	0.792328	city	7	1	0.744685	0.744685	0	1	0	0	CorrectCommission	0.549671	0.832142	0	1
317.417084	0.792237	city	5	1	0.744726	0.744726	0	1	0	0	CorrectCommission	0.550050	0.852636	0	1
318.209290	0.792184	city	3	1	0.753980	0.753980	0	1	0	0	CorrectCommission	0.635848	0.882100	0	1
319.001526	0.792267	city	5	1	0.803378	0.803378	0	1	0	0	CorrectCommission	1.093863	0.919751	0	1
319.793884	0.792479	city	3	1	0.747845	0.747845	0	1	0	0	CorrectCommission	0.578965	0.964097	0	1
320.586151	0.792053	city	7	1	0.808500	0.808500	0	1	0	0	CorrectCommission	1.141359	1.013075	0	1
321.378326	0.792259	city	2	1	0.794550	0.794550	0	1	0	0	CorrectCommission	1.012011	1.064143	0	1
322.170593	0.792266	city	5	1	0.744812	0.744812	0	1	0	0	CorrectCommission	0.550845	1.114513	0	1
322.962891	0.792330	city	1	1	0.794362	0.794362	0	1	0	0	CorrectCommission	1.010273	1.161399	0	1
323.755157	0.792201	city	2	1	0.843736	0.843736	0	1	0	0	CorrectCommission	1.468058	1.202194	0	1
324.547485	0.792479	mountain	8	0	0.000000	0.959526	1	0	0	0	CorrectOmission	2.541655	1.234713	0	1
325.339783	0.792117	city	4	1	0.992716	0.992716	0	1	0	0	CorrectCommission	2.849396	1.257319	0	1
326.131927	0.792200	city	7	1	0.794291	0.794291	0	1	0	0	CorrectCommission	1.009612	1.269060	0	1
326.924194	0.792318	city	4	1	0.658496	0.658496	0	1	0	0	CorrectCommission	0.249467	1.269673	0	1
327.716583	0.792425	city	8	1	0.655560	0.655560	0	1	0	0	CorrectCommission	0.276687	1.259478	0	1
328.508911	0.792266	mountain	5	0	0.000000	0.795742	1	0	0	0	CorrectOmission	1.023064	1.239319	0	1
329.301117	0.792129	city	7	1	0.942652	0.942652	0	1	0	0	CorrectCommission	2.385206	1.210535	0	1
330.093292	0.792208	mountain	5	0	0.000000	0.959904	1	0	0	0	CorrectOmission	2.545159	1.174861	0	1
330.885620	0.792454	city	6	1	0.862331	0.862331	0	1	0	0	CorrectCommission	1.640474	1.134384	0	1
331.677856	0.792047	city	3	1	0.664770	0.664770	0	1	0	0	CorrectCommission	0.191298	1.091418	0	1
332.470062	0.792325	mountain	8	0	0.000000	0.739748	1	0	0	0	CorrectOmission	0.503891	1.048354	0	1
333.262329	0.792204	city	8	1	0.846805	0.846805	0	1	0	0	CorrectCommission	1.496517	1.007459	0	1
334.054596	0.792375	city	1	1	0.745482	0.745482	0	1	0	0	CorrectCommission	0.557055	0.970664	0	1
334.846985	0.792372	city	9	1	0.695234	0.695234	0	1	0	0	CorrectCommission	0.091166	0.939470	0	1
335.639313	0.792265	city	1	1	0.615529	0.615529	0	1	0	0	CorrectCommission	0.647859	0.914791	0	1
336.431458	0.792049	city	10	1	0.745270	0.745270	0	1	0	0	CorrectCommission	0.555090	0.896970	0	1
337.223724	0.792481	city	4	1	0.807168	0.807168	0	1	0	0	CorrectCommission	1.129007	0.885890	0	1
338.016052	0.792156	mountain	2	0	0.000000	0.866780	1	0	0	0	CorrectOmission	1.681725	0.881070	0	1
338.808258	0.792263	city	7	1	0.844189	0.844189	0	1	0	0	CorrectCommission	1.472261	0.881818	0	1
339.600464	0.792156	city	10	1	0.659478	0.659478	0	1	0	0	CorrectCommission	0.240368	0.887343	0	1
340.392792	0.792483	city	1	1	0.646635	0.646635	0	1	0	0	CorrectCommission	0.359445	0.896771	0	1
341.185059	0.792051	city	4	1	0.596073	0.596073	0	1	0	0	CorrectCommission	0.828247	0.909128	0	1
341.977203	0.792264	city	8	1	0.596302	0.596302	0	1	0	0	CorrectCommission	0.826128	0.923297	0	1
342.769470	0.792264	city	4	1	0.645939	0.645939	0	1	0	0	CorrectCommission	0.365899	0.938034	0	1
343.561737	0.792266	city	3	1	0.546849	0.546849	0	1	0	0	CorrectCommission	1.284654	0.952034	0	1
344.354004	0.792265	city	9	1	0.546845	0.546845	0	1	0	0	CorrectCommission	1.284684	0.963952	0	1
345.146271	0.792266	city	5	1	0.497223	0.497223	0	1	0	0	CorrectCommission	1.744777	0.972567	0	1
345.938538	0.792306	city	7	1	0.553627	0.553627	0	1	0	0	CorrectCommission	1.221808	0.976914	0	1
346.730865	0.792327	mountain	1	0	0.000000	0.629464	1	0	0	0	CorrectOmission	0.518648	0.976485	0	1
347.523102	0.792156	city	6	1	0.651562	0.651562	0	1	0	0	CorrectCommission	0.313762	0.971386	0	1
348.315338	0.792328	city	7	1	0.546745	0.546745	0	1	0	0	CorrectCommission	1.285613	0.962459	0	1
349.107605	0.792202	city	10	1	0.546831	0.546831	0	1	0	0	CorrectCommission	1.284822	0.951355	0	1
349.899872	0.792333	city	1	1	0.497183	0.497183	0	1	0	0	CorrectCommission	1.745151	0.940505	0	1
350.692139	0.792197	city	6	1	0.596178	0.596178	0	1	0	0	CorrectCommission	0.827278	0.932919	0	1
351.484406	0.792295	city	5	1	0.548794	0.548794	0	1	0	0	CorrectCommission	1.266616	0.931927	0	1
352.276642	0.792232	city	9	1	0.663908	0.663908	0	1	0	0	CorrectCommission	0.199285	0.940663	0	1
353.068909	0.792271	city	3	1	0.645761	0.645761	0	1	0	0	CorrectCommission	0.367547	0.961593	0	1
353.861176	0.792291	city	8	1	0.645737	0.645737	0	1	0	0	CorrectCommission	0.367768	0.995943	0	1
354.653442	0.792235	city	1	1	0.596422	0.596422	0	1	0	0	CorrectCommission	0.825013	1.043292	0	1
355.445709	0.792272	city	5	1	0.711880	0.711880	0	1	0	0	CorrectCommission	0.245504	1.101330	0	1
356.237976	0.792256	city	6	1	0.794409	0.794409	0	1	0	0	CorrectCommission	1.010704	1.165925	0	1
357.030273	0.792374	city	8	1	0.744831	0.744831	0	1	0	0	CorrectCommission	0.551026	1.231452	0	1
357.822540	0.792156	city	4	1	0.596523	0.596523	0	1	0	0	CorrectCommission	0.824075	1.291470	0	1
358.614746	0.792265	city	3	1	0.462018	0.462018	0	1	0	0	CorrectCommission	2.071198	1.339484	0	1
359.407043	0.792282	city	10	1	0.358504	0.358504	0	1	0	0	CorrectCommission	3.030971	1.369903	0	1
360.199310	0.792248	city	2	1	0.348947	0.348947	0	1	0	0	CorrectCommission	3.119583	1.378851	0	1
360.991577	0.792326	city	5	1	0.399609	0.399609	0	1	0	0	CorrectCommission	2.649848	1.364757	0	1
361.783844	0.792206	city	3	1	0.452533	0.452533	0	1	0	0	CorrectCommission	2.159138	1.328597	0	1
362.576202	0.792478	city	1	1	0.550652	0.550652	0	1	0	0	CorrectCommission	1.249389	1.273673	0	1
363.368469	0.792049	city	6	1	0.707027	0.707027	0	1	0	0	CorrectCommission	0.200511	1.205156	0	1
364.160675	0.792372	city	8	1	0.645744	0.645744	0	1	0	0	CorrectCommission	0.367703	1.129327	0	1
364.952942	0.792165	city	6	1	0.645682	0.645682	0	1	0	0	CorrectCommission	0.368280	1.052742	0	0
365.745148	0.792274	city	10	1	0.557522	0.557522	0	1	0	0	CorrectCommission	1.185696	0.981469	0	0
366.537415	0.792248	city	1	1	0.562603	0.562603	0	1	0	0	CorrectCommission	1.138584	0.920488	0	0
367.329712	0.792372	city	4	1	0.647345	0.647345	0	1	0	0	CorrectCommission	0.352857	0.873313	0	0
368.121979	0.792154	city	10	1	0.646038	0.646038	0	1	0	0	CorrectCommission	0.364980	0.841834	0	0
368.914185	0.792267	city	3	1	0.657474	0.657474	0	1	0	0	CorrectCommission	0.258947	0.826336	0	0
369.706451	0.792263	city	8	1	0.650626	0.650626	0	1	0	0	CorrectCommission	0.322441	0.825784	0	0
370.498718	0.792266	city	3	1	0.596360	0.596360	0	1	0	0	CorrectCommission	0.825585	0.838131	0	0
371.290985	0.792267	city	5	1	0.596264	0.596264	0	1	0	0	CorrectCommission	0.826477	0.860694	0	0
372.083282	0.792330	city	10	1	0.546753	0.546753	0	1	0	0	CorrectCommission	1.285544	0.890561	0	0
372.875549	0.792198	mountain	5	1	0.497653	0.497653	0	0	1	0	CommissionError	1.740790	0.924923	0	0
373.667786	0.792265	city	8	1	0.704687	0.704687	0	1	0	0	CorrectCommission	0.178806	0.961301	0	0
374.460114	0.792370	city	5	1	0.560596	0.560596	0	1	0	0	CorrectCommission	1.157193	0.997757	0	0
375.252380	0.792158	city	9	1	0.651046	0.651046	0	1	0	0	CorrectCommission	0.318546	1.032808	0	0
376.044586	0.792268	city	3	1	0.546870	0.546870	0	1	0	0	CorrectCommission	1.284452	1.065440	0	0
376.836884	0.792305	city	4	1	0.408460	0.408460	0	1	0	0	CorrectCommission	2.567784	1.094924	0	0
377.629120	0.792220	city	8	1	0.547250	0.547250	0	1	0	0	CorrectCommission	1.280933	1.120651	0	0
378.421387	0.792265	city	9	1	0.794283	0.794283	0	1	0	0	CorrectCommission	1.009541	1.142037	0	0
379.213654	0.792308	city	4	1	0.695798	0.695798	0	1	0	0	CorrectCommission	0.096396	1.158330	0	0
380.006042	0.792440	city	7	1	0.646490	0.646490	0	1	0	0	CorrectCommission	0.360790	1.168614	0	0
380.798279	0.792046	city	3	1	0.794266	0.794266	0	1	0	0	CorrectCommission	1.009382	1.171855	0	0
381.590424	0.792265	city	6	1	0.447662	0.447662	0	1	0	0	CorrectCommission	2.204309	1.167043	0	0
382.382690	0.792266	mountain	2	1	0.399364	0.399364	0	0	1	0	CommissionError	2.652119	1.153459	0	0
383.174957	0.792268	city	3	1	0.559820	0.559820	0	1	0	0	CorrectCommission	1.164385	1.130934	0	0
383.967255	0.792303	city	6	1	0.612057	0.612057	0	1	0	0	CorrectCommission	0.680043	1.100096	0	0
384.759583	0.792331	city	8	1	0.546723	0.546723	0	1	0	0	CorrectCommission	1.285817	1.062387	0	0
385.551819	0.792159	city	1	1	0.462915	0.462915	0	1	0	0	CorrectCommission	2.062876	1.019992	0	0
386.344025	0.792262	city	9	1	0.606786	0.606786	0	1	0	0	CorrectCommission	0.728922	0.975639	0	0
387.136292	0.792266	city	5	1	0.647579	0.647579	0	1	0	0	CorrectCommission	0.350693	0.932289	0	0
387.928558	0.792262	mountain	9	0	0.000000	0.701287	1	0	0	0	CorrectOmission	0.147285	0.892712	0	0
388.720917	0.792483	city	2	1	0.695348	0.695348	0	1	0	0	CorrectCommission	0.092223	0.859161	0	0
389.513245	0.792156	city	4	1	0.557201	0.557201	0	1	0	0	CorrectCommission	1.188670	0.833063	0	0
390.305511	0.792375	city	9	1	0.794343	0.794343	0	1	0	0	CorrectCommission	1.010093	0.814897	0	0
391.097717	0.792046	city	1	1	0.647227	0.647227	0	1	0	0	CorrectCommission	0.353953	0.804260	0	0
391.889893	0.792271	city	3	1	0.546987	0.546987	0	1	0	0	CorrectCommission	1.283371	0.799935	0	0
392.682159	0.792312	city	8	1	0.646147	0.646147	0	1	0	0	CorrectCommission	0.363964	0.800139	0	0
393.474457	0.792262	city	6	1	0.695197	0.695197	0	1	0	0	CorrectCommission	0.090821	0.802918	0	0
394.266693	0.792217	mountain	6	1	0.597261	0.597261	0	0	1	0	CommissionError	0.817235	0.806454	0	0
395.058960	0.792325	city	10	1	0.546735	0.546735	0	1	0	0	CorrectCommission	1.285707	0.809440	0	0
395.851257	0.792239	city	7	1	0.451448	0.451448	0	1	0	0	CorrectCommission	2.169202	0.811334	0	0
396.643585	0.792443	city	4	1	0.601151	0.601151	0	1	0	0	CorrectCommission	0.781164	0.812511	0	0
397.435852	0.792067	city	3	1	0.607686	0.607686	0	1	0	0	CorrectCommission	0.720575	0.814236	0	0
398.228058	0.792354	mountain	6	0	0.000000	0.731228	1	0	0	0	CorrectOmission	0.424894	0.818402	0	0
399.020325	0.792156	city	3	1	0.800884	0.800884	0	1	0	0	CorrectCommission	1.070745	0.827241	0	0
399.812531	0.792311	city	10	1	0.645764	0.645764	0	1	0	0	CorrectCommission	0.367517	0.842854	0	0
400.604828	0.792279	city	7	1	0.645850	0.645850	0	1	0	0	CorrectCommission	0.366723	0.866859	0	0
401.397095	0.792206	city	6	1	0.744797	0.744797	0	1	0	0	CorrectCommission	0.550706	0.900017	0	0
402.189362	0.792370	city	2	1	0.705931	0.705931	0	1	0	0	CorrectCommission	0.190343	0.942054	0	0
402.981628	0.792156	city	6	1	0.759160	0.759160	0	1	0	0	CorrectCommission	0.683882	0.991699	0	0
403.773834	0.792264	city	4	1	0.856889	0.856889	0	1	0	0	CorrectCommission	1.590016	1.046870	0	0
404.566101	0.792267	city	1	1	0.695386	0.695386	0	1	0	0	CorrectCommission	0.092570	1.105055	0	0
405.358398	0.792331	city	2	1	0.497177	0.497177	0	1	0	0	CorrectCommission	1.745209	1.163790	0	0
406.150665	0.792196	city	6	1	0.416008	0.416008	0	1	0	0	CorrectCommission	2.497797	1.220937	0	0
406.942902	0.792265	city	2	1	0.447692	0.447692	0	1	0	0	CorrectCommission	2.204030	1.275003	0	0
407.735229	0.792375	city	7	1	0.546734	0.546734	0	1	0	0	CorrectCommission	1.285718	1.325237	0	0
408.527588	0.792373	city	8	1	0.566935	0.566935	0	1	0	0	CorrectCommission	1.098414	1.371466	0	0
409.319916	0.792266	city	2	1	0.563546	0.563546	0	1	0	0	CorrectCommission	1.129837	1.413740	0	0
410.112061	0.792044	city	1	1	0.566638	0.566638	0	1	0	0	CorrectCommission	1.101171	1.451952	0	0
410.904266	0.792375	city	8	1	0.597300	0.597300	0	1	0	0	CorrectCommission	0.816873	1.485455	0	0
411.696533	0.792155	city	10	1	0.497063	0.497063	0	1	0	0	CorrectCommission	1.746266	1.512823	0	0
412.488770	0.792270	city	5	1	0.546819	0.546819	0	1	0	0	CorrectCommission	1.284928	1.531806	0	0
413.281036	0.792263	city	7	1	0.596243	0.596243	0	1	0	0	CorrectCommission	0.826670	1.539611	0	0
414.073303	0.792266	city	2	1	0.398309	0.398309	0	1	0	0	CorrectCommission	2.661901	1.533335	0	0
414.865540	0.792265	city	6	1	0.398791	0.398791	0	1	0	0	CorrectCommission	2.657434	1.510547	0	0
415.657806	0.792263	city	4	1	0.465855	0.465855	0	1	0	0	CorrectCommission	2.035619	1.469936	0	0
416.450073	0.792268	city	5	1	0.450352	0.450352	0	1	0	0	CorrectCommission	2.179364	1.411752	0	0
417.242340	0.792259	city	2	1	0.447877	0.447877	0	1	0	0	CorrectCommission	2.202309	1.338077	0	0
418.034729	0.792482	city	3	1	0.466411	0.466411	0	1	0	0	CorrectCommission	2.030467	1.252808	0	0
418.827026	0.792157	city	6	1	0.657057	0.657057	0	1	0	0	CorrectCommission	0.262812	1.161321	0	0
419.619202	0.792160	city	8	1	0.645656	0.645656	0	1	0	0	CorrectCommission	0.368521	1.069926	0	0
420.411438	0.792345	city	9	1	0.755571	0.755571	0	1	0	0	CorrectCommission	0.650599	0.985059	0	0
421.203705	0.792183	city	6	1	0.744678	0.744678	0	1	0	0	CorrectCommission	0.549606	0.912530	0	0
421.995941	0.792266	city	10	1	0.695377	0.695377	0	1	0	0	CorrectCommission	0.092489	0.856874	0	0
422.788269	0.792369	city	5	1	0.744782	0.744782	0	1	0	0	CorrectCommission	0.550564	0.820778	0	0
423.580505	0.792158	city	3	1	0.695659	0.695659	0	1	0	0	CorrectCommission	0.095104	0.804774	0	0
424.372772	0.792329	mountain	2	0	0.000000	0.728915	1	0	0	0	CorrectOmission	0.403452	0.807280	0	1
425.165039	0.792198	city	1	1	0.745350	0.745350	0	1	0	0	CorrectCommission	0.555831	0.824798	0	1
425.957245	0.792268	city	3	1	0.645762	0.645762	0	1	0	0	CorrectCommission	0.367539	0.852422	0	1
426.749512	0.792263	city	9	1	0.596469	0.596469	0	1	0	0	CorrectCommission	0.824582	0.884471	0	1
427.541779	0.792268	city	3	1	0.546921	0.546921	0	1	0	0	CorrectCommission	1.283988	0.915209	0	1
428.334106	0.792367	city	5	1	0.497309	0.497309	0	1	0	0	CorrectCommission	1.743980	0.939592	0	1
429.126434	0.792265	mountain	7	1	0.596130	0.596130	0	0	1	0	CommissionError	0.827722	0.953868	0	1
429.918640	0.792156	city	6	1	0.992259	0.992259	0	1	0	0	CorrectCommission	2.845159	0.956001	0	1
430.710907	0.792373	city	9	1	0.942951	0.942951	0	1	0	0	CorrectCommission	2.387973	0.945732	0	1
431.503204	0.792265	city	4	1	0.745814	0.745814	0	1	0	0	CorrectCommission	0.560134	0.924484	0	1
432.295441	0.792162	mountain	2	0	0.000000	0.683131	1	0	0	0	CorrectOmission	0.021054	0.894963	0	1
433.087738	0.792476	city	9	1	0.700057	0.700057	0	1	0	0	CorrectCommission	0.135882	0.860556	0	1
433.880005	0.792050	mountain	7	0	0.000000	0.741746	1	0	0	0	CorrectOmission	0.522417	0.824721	0	1
434.672180	0.792261	city	8	1	0.745049	0.745049	0	1	0	0	CorrectCommission	0.553043	0.790460	0	1
435.464478	0.792375	city	5	1	0.646818	0.646818	0	1	0	0	CorrectCommission	0.357751	0.759941	0	1
436.256805	0.792263	city	1	1	0.596613	0.596613	0	1	0	0	CorrectCommission	0.823239	0.734354	0	1
437.049072	0.792265	city	3	1	0.794197	0.794197	0	1	0	0	CorrectCommission	1.008745	0.713874	1	1
437.841309	0.792218	city	7	1	0.794807	0.794807	0	1	0	0	CorrectCommission	1.014394	0.697837	1	1
438.633514	0.792215	city	2	1	0.745211	0.745211	0	1	0	0	CorrectCommission	0.554546	0.685004	1	1
439.425751	0.792258	city	5	1	0.763888	0.763888	0	1	0	0	CorrectCommission	0.727720	0.673881	1	1
440.218018	0.792261	city	7	1	0.695483	0.695483	0	1	0	0	CorrectCommission	0.093470	0.662969	1	1
441.010345	0.792373	city	6	1	0.597081	0.597081	0	1	0	0	CorrectCommission	0.818906	0.651061	1	1
441.802673	0.792263	city	9	1	0.596248	0.596248	0	1	0	0	CorrectCommission	0.826631	0.637381	1	1
442.594879	0.792156	city	8	1	0.609892	0.609892	0	1	0	0	CorrectCommission	0.700121	0.621753	1	1
443.387085	0.792266	city	1	1	0.611810	0.611810	0	1	0	0	CorrectCommission	0.682334	0.604623	1	1
444.179352	0.792265	city	10	1	0.843880	0.843880	0	1	0	0	CorrectCommission	1.469394	0.586990	1	1
444.971619	0.792268	city	3	1	0.745049	0.745049	0	1	0	0	CorrectCommission	0.553042	0.570227	1	1
445.763885	0.792265	mountain	3	0	0.000000	0.708695	1	0	0	0	CorrectOmission	0.215970	0.555870	1	1
446.556183	0.792342	mountain	10	1	0.695260	0.695260	0	0	1	0	CommissionError	0.091407	0.545333	1	1
447.348541	0.792400	mountain	5	0	0.000000	0.665188	1	0	0	0	CorrectOmission	0.187419	0.539567	1	1
448.140778	0.792049	city	10	1	0.645822	0.645822	0	1	0	0	CorrectCommission	0.366982	0.538851	1	1
448.932983	0.792374	city	5	1	0.664505	0.664505	0	1	0	0	CorrectCommission	0.193756	0.542704	1	1
449.725311	0.792263	city	2	1	0.710886	0.710886	0	1	0	0	CorrectCommission	0.236291	0.549915	1	1
450.517517	0.792176	city	4	1	0.705568	0.705568	0	1	0	0	CorrectCommission	0.186978	0.558692	1	1
451.309753	0.792251	city	5	1	0.794266	0.794266	0	1	0	0	CorrectCommission	1.009379	0.566980	1	1
452.102020	0.792324	city	3	1	0.843789	0.843789	0	1	0	0	CorrectCommission	1.468550	0.572796	1	1
452.894287	0.792202	city	9	1	0.794378	0.794378	0	1	0	0	CorrectCommission	1.010414	0.574592	1	1
453.686554	0.792326	city	8	1	0.745260	0.745260	0	1	0	0	CorrectCommission	0.554997	0.571536	1	1
454.478821	0.792201	city	6	1	0.744781	0.744781	0	1	0	0	CorrectCommission	0.550558	0.563631	1	1
455.271057	0.792268	city	2	1	0.596677	0.596677	0	1	0	0	CorrectCommission	0.822654	0.551696	1	1
456.063324	0.792265	mountain	2	0	0.000000	0.606301	1	0	0	0	CorrectOmission	0.733419	0.537206	1	1
456.855682	0.792479	city	7	1	0.660439	0.660439	0	1	0	0	CorrectCommission	0.231454	0.522031	1	1
457.648071	0.792265	city	1	1	0.645876	0.645876	0	1	0	0	CorrectCommission	0.366478	0.508139	1	1
458.440247	0.792100	city	5	1	0.696877	0.696877	0	1	0	0	CorrectCommission	0.106397	0.497281	1	1
459.232452	0.792319	city	1	1	0.695250	0.695250	0	1	0	0	CorrectCommission	0.091315	0.490759	1	1
460.024689	0.792158	mountain	10	0	0.000000	0.711500	1	0	0	0	CorrectOmission	0.241984	0.489324	1	1
460.816895	0.792263	city	7	1	0.695272	0.695272	0	1	0	0	CorrectCommission	0.091516	0.493184	1	1
461.609161	0.792266	city	3	1	0.596210	0.596210	0	1	0	0	CorrectCommission	0.826980	0.502128	1	1
462.401550	0.792479	city	9	1	0.547170	0.547170	0	1	0	0	CorrectCommission	1.281671	0.515684	1	1
463.193817	0.792048	city	3	1	0.645659	0.645659	0	1	0	0	CorrectCommission	0.368492	0.533327	1	1
463.985962	0.792268	city	8	1	0.650621	0.650621	0	1	0	0	CorrectCommission	0.322486	0.554655	1	1
464.778351	0.792479	city	9	1	0.609861	0.609861	0	1	0	0	CorrectCommission	0.700409	0.579423	1	1
465.570709	0.792266	city	2	1	0.645539	0.645539	0	1	0	0	CorrectCommission	0.369609	0.607548	1	1
466.362854	0.792049	city	9	1	0.604563	0.604563	0	1	0	0	CorrectCommission	0.749536	0.639048	1	1
467.155121	0.792480	city	10	1	0.600963	0.600963	0	1	0	0	CorrectCommission	0.782913	0.673920	1	1
467.947449	0.792157	city	7	1	0.695054	0.695054	0	1	0	0	CorrectCommission	0.089491	0.712041	1	1
468.739716	0.792372	city	8	1	0.646314	0.646314	0	1	0	0	CorrectCommission	0.362423	0.753049	0	1
469.531952	0.792112	city	4	1	0.597378	0.597378	0	1	0	0	CorrectCommission	0.816155	0.796279	0	1
470.324158	0.792309	city	3	1	0.546641	0.546641	0	1	0	0	CorrectCommission	1.286580	0.840785	0	1
471.116394	0.792170	city	10	1	0.596160	0.596160	0	1	0	0	CorrectCommission	0.827441	0.885377	0	1
471.908630	0.792270	city	8	1	0.758733	0.758733	0	1	0	0	CorrectCommission	0.679923	0.928700	0	1
472.700989	0.792463	city	5	1	0.794283	0.794283	0	1	0	0	CorrectCommission	1.009542	0.969275	0	1
473.493256	0.792086	city	6	1	0.943092	0.943092	0	1	0	0	CorrectCommission	2.389281	1.005543	0	1
474.285431	0.792225	city	3	1	0.794268	0.794268	0	1	0	0	CorrectCommission	1.009395	1.035891	0	1
475.077789	0.792484	city	6	1	0.744815	0.744815	0	1	0	0	CorrectCommission	0.550878	1.058720	0	1
475.870056	0.792050	city	5	1	0.655377	0.655377	0	1	0	0	CorrectCommission	0.278388	1.072403	0	1
476.662201	0.792260	city	2	1	0.546873	0.546873	0	1	0	0	CorrectCommission	1.284424	1.075392	0	1
477.454468	0.792269	city	8	1	0.565024	0.565024	0	1	0	0	CorrectCommission	1.116131	1.066321	0	1
478.246735	0.792288	city	6	1	0.843781	0.843781	0	1	0	0	CorrectCommission	1.468480	1.044229	0	1
479.039124	0.792457	city	5	1	0.893676	0.893676	0	1	0	0	CorrectCommission	1.931104	1.008722	0	1
479.831421	0.792156	city	9	1	0.907795	0.907795	0	1	0	0	CorrectCommission	2.062014	0.960125	0	1
480.623627	0.792264	city	2	1	0.860548	0.860548	0	1	0	0	CorrectCommission	1.623941	0.899561	0	1
481.415863	0.792199	city	7	1	0.709042	0.709042	0	1	0	0	CorrectCommission	0.219186	0.828843	0	1
482.208069	0.792222	city	10	1	0.652594	0.652594	0	1	0	0	CorrectCommission	0.304187	0.750253	0	1
483.000305	0.792263	city	9	1	0.612733	0.612733	0	1	0	0	CorrectCommission	0.673782	0.666221	1	1
483.792603	0.792301	city	7	1	0.695574	0.695574	0	1	0	0	CorrectCommission	0.094318	0.578982	1	1
484.584869	0.792227	city	8	1	0.653971	0.653971	0	1	0	0	CorrectCommission	0.291420	0.490333	1	1
485.377106	0.792268	city	7	1	0.744781	0.744781	0	1	0	0	CorrectCommission	0.550556	0.401426	1	1
486.169373	0.792263	city	2	1	0.645772	0.645772	0	1	0	0	CorrectCommission	0.367445	0.312791	1	1
486.961700	0.792374	city	7	1	0.661195	0.661195	0	1	0	0	CorrectCommission	0.224441	0.224441	1	1
