onset	duration	trial_type	image_type	Press	ReactionTime	ReactionTime_Interpolated	CorrectOmission	CorrectCommission	CommissionError	OmissionError	response_type	nonsmoothVarianceTimeCourse	VarianceTimeCourse	In_the_Zone	Reward_trial
8.433956	0.792090	city	4	1	0.796444	0.796444	0	1	0	0	CorrectCommission	1.268433	1.268433	0	0
9.226165	0.792329	city	1	1	0.942816	0.942816	0	1	0	0	CorrectCommission	2.392579	1.282108	0	0
10.018409	0.792158	city	2	1	0.745118	0.745118	0	1	0	0	CorrectCommission	0.874252	1.294157	0	0
10.810620	0.792265	city	7	1	0.497230	0.497230	0	1	0	0	CorrectCommission	1.029541	1.302933	0	0
11.602885	0.792265	city	2	1	0.407514	0.407514	0	1	0	0	CorrectCommission	1.718561	1.306650	0	0
12.395148	0.792261	city	1	1	0.462363	0.462363	0	1	0	0	CorrectCommission	1.297319	1.303403	0	0
13.187412	0.792267	city	6	1	0.497301	0.497301	0	1	0	0	CorrectCommission	1.028996	1.291297	0	0
13.979732	0.792371	city	9	1	0.414229	0.414229	0	1	0	0	CorrectCommission	1.666989	1.268598	0	0
14.771997	0.792161	mountain	10	1	0.497119	0.497119	0	0	1	0	CommissionError	1.030394	1.233931	0	0
15.564263	0.792370	city	1	1	0.447807	0.447807	0	1	0	0	CorrectCommission	1.409115	1.186612	0	0
16.356546	0.792195	mountain	5	1	0.348551	0.348551	0	0	1	0	CommissionError	2.171405	1.126822	0	0
17.148756	0.792224	mountain	1	1	0.357887	0.357887	0	0	1	0	CommissionError	2.099699	1.055801	0	0
17.941031	0.792326	city	4	1	0.546648	0.546648	0	1	0	0	CorrectCommission	0.650009	0.975926	0	0
18.733297	0.792207	city	2	1	0.460299	0.460299	0	1	0	0	CorrectCommission	1.313169	0.890588	0	0
19.525532	0.792262	city	8	1	0.546680	0.546680	0	1	0	0	CorrectCommission	0.649763	0.803866	0	0
20.317904	0.792483	mountain	6	0	0.000000	0.609317	1	0	0	0	CorrectOmission	0.168712	0.720219	1	0
21.110170	0.792050	city	1	1	0.645578	0.645578	0	1	0	0	CorrectCommission	0.109781	0.643949	1	0
21.902328	0.792263	city	3	1	0.652835	0.652835	0	1	0	0	CorrectCommission	0.165514	0.578765	1	0
22.694592	0.792263	city	4	1	0.645811	0.645811	0	1	0	0	CorrectCommission	0.111566	0.527391	1	0
23.486908	0.792372	mountain	2	0	0.000000	0.611452	1	0	0	0	CorrectOmission	0.152315	0.491312	1	0
24.279173	0.792159	city	1	1	0.596142	0.596142	0	1	0	0	CorrectCommission	0.269893	0.470621	1	0
25.071421	0.792336	city	3	1	0.646267	0.646267	0	1	0	0	CorrectCommission	0.115069	0.464129	1	0
25.863686	0.792193	city	9	1	0.596142	0.596142	0	1	0	0	CorrectCommission	0.269895	0.469550	1	0
26.655947	0.792326	city	7	1	0.546694	0.546694	0	1	0	0	CorrectCommission	0.649657	0.483783	1	0
27.448210	0.792200	city	1	1	0.609914	0.609914	0	1	0	0	CorrectCommission	0.164122	0.503395	1	0
28.240458	0.792297	city	7	1	0.609711	0.609711	0	1	0	0	CorrectCommission	0.165679	0.525030	1	0
29.032717	0.792221	city	1	1	0.466112	0.466112	0	1	0	0	CorrectCommission	1.268529	0.545791	1	0
29.824965	0.792277	city	8	1	0.511530	0.511530	0	1	0	0	CorrectCommission	0.919719	0.563547	1	0
30.617237	0.792266	mountain	9	0	0.000000	0.460442	1	0	0	0	CorrectOmission	1.312078	0.577167	1	0
31.409502	0.792264	city	8	1	0.457106	0.457106	0	1	0	0	CorrectCommission	1.337693	0.586466	1	0
32.201767	0.792269	city	7	1	0.645782	0.645782	0	1	0	0	CorrectCommission	0.111348	0.592095	1	0
32.994034	0.792259	city	6	1	0.603429	0.603429	0	1	0	0	CorrectCommission	0.213927	0.595288	1	0
33.786301	0.792276	city	2	1	0.608621	0.608621	0	1	0	0	CorrectCommission	0.174052	0.597428	1	0
34.578674	0.792472	city	9	1	0.695309	0.695309	0	1	0	0	CorrectCommission	0.491713	0.599735	1	0
35.370934	0.792051	city	2	1	0.549387	0.549387	0	1	0	0	CorrectCommission	0.628970	0.603032	1	0
36.163109	0.792295	city	6	1	0.646177	0.646177	0	1	0	0	CorrectCommission	0.114375	0.607580	1	0
36.955425	0.792340	city	10	1	0.597003	0.597003	0	1	0	0	CorrectCommission	0.263279	0.613148	1	0
37.747726	0.792265	city	6	1	0.695978	0.695978	0	1	0	0	CorrectCommission	0.496849	0.619138	1	0
38.539970	0.792223	city	7	1	0.893221	0.893221	0	1	0	0	CorrectCommission	2.011683	0.624828	1	0
39.332199	0.792229	city	5	1	0.546953	0.546953	0	1	0	0	CorrectCommission	0.647665	0.629613	1	0
40.124439	0.792255	city	2	1	0.546662	0.546662	0	1	0	0	CorrectCommission	0.649903	0.633252	1	0
40.916691	0.792245	city	10	1	0.498298	0.498298	0	1	0	0	CorrectCommission	1.021337	0.635901	1	0
41.708942	0.792263	city	7	1	0.645779	0.645779	0	1	0	0	CorrectCommission	0.111321	0.638090	1	0
42.501316	0.792483	city	6	1	0.550807	0.550807	0	1	0	0	CorrectCommission	0.618069	0.640610	1	0
43.293583	0.792050	city	3	1	0.546683	0.546683	0	1	0	0	CorrectCommission	0.649742	0.644247	1	0
44.085777	0.792338	city	4	1	0.546953	0.546953	0	1	0	0	CorrectCommission	0.647670	0.649581	1	0
44.878094	0.792297	city	9	1	0.596792	0.596792	0	1	0	0	CorrectCommission	0.264903	0.656763	1	0
45.670429	0.792373	city	7	1	0.603153	0.603153	0	1	0	0	CorrectCommission	0.216049	0.665441	1	0
46.462666	0.792099	city	4	1	0.596763	0.596763	0	1	0	0	CorrectCommission	0.265127	0.674751	1	0
47.254822	0.792211	city	5	1	0.596315	0.596315	0	1	0	0	CorrectCommission	0.268565	0.683464	1	0
48.047096	0.792336	city	6	1	0.903492	0.903492	0	1	0	0	CorrectCommission	2.090565	0.690213	1	0
48.839470	0.792412	city	10	1	0.844164	0.844164	0	1	0	0	CorrectCommission	1.634929	0.693688	1	0
49.631702	0.792050	city	7	1	0.707293	0.707293	0	1	0	0	CorrectCommission	0.583754	0.692958	1	0
50.423859	0.792267	city	1	1	0.562828	0.562828	0	1	0	0	CorrectCommission	0.525744	0.687567	1	0
51.216175	0.792367	city	8	1	0.596192	0.596192	0	1	0	0	CorrectCommission	0.269509	0.677551	1	0
52.008438	0.792155	mountain	3	0	0.000000	0.706630	1	0	0	0	CorrectOmission	0.578662	0.663437	1	0
52.800652	0.792270	city	7	1	0.744785	0.744785	0	1	0	0	CorrectCommission	0.871693	0.646101	1	0
53.592953	0.792336	city	1	1	0.561299	0.561299	0	1	0	0	CorrectCommission	0.537491	0.626637	1	0
54.385269	0.792297	city	8	1	0.794198	0.794198	0	1	0	0	CorrectCommission	1.251185	0.606238	1	0
55.177498	0.792159	city	10	1	0.608393	0.608393	0	1	0	0	CorrectCommission	0.175808	0.586037	1	0
55.969727	0.792302	city	2	1	0.697811	0.697811	0	1	0	0	CorrectCommission	0.510931	0.567055	1	0
56.761990	0.792224	city	3	1	0.596203	0.596203	0	1	0	0	CorrectCommission	0.269426	0.550147	1	0
57.554234	0.792265	city	5	1	0.645679	0.645679	0	1	0	0	CorrectCommission	0.110551	0.536037	1	0
58.346512	0.792286	city	6	1	0.695249	0.695249	0	1	0	0	CorrectCommission	0.491254	0.525341	1	0
59.138775	0.792246	city	1	1	0.447959	0.447959	0	1	0	0	CorrectCommission	1.407942	0.518619	1	0
59.931087	0.792372	city	5	1	0.645776	0.645776	0	1	0	0	CorrectCommission	0.111297	0.516398	1	0
60.723351	0.792156	city	10	1	0.597551	0.597551	0	1	0	0	CorrectCommission	0.259069	0.519233	1	0
61.515560	0.792265	city	3	1	0.747454	0.747454	0	1	0	0	CorrectCommission	0.892188	0.527585	1	0
62.307827	0.792269	city	10	1	0.661626	0.661626	0	1	0	0	CorrectCommission	0.233030	0.541729	1	0
63.100090	0.792259	city	2	1	0.695563	0.695563	0	1	0	0	CorrectCommission	0.493665	0.561662	1	0
63.892372	0.792305	city	9	1	0.601819	0.601819	0	1	0	0	CorrectCommission	0.226297	0.586893	1	0
64.684677	0.792298	city	5	1	0.596205	0.596205	0	1	0	0	CorrectCommission	0.269408	0.616410	1	0
65.476921	0.792191	city	10	1	0.546667	0.546667	0	1	0	0	CorrectCommission	0.649863	0.648620	1	0
66.269257	0.792485	city	8	1	0.596240	0.596240	0	1	0	0	CorrectCommission	0.269142	0.681426	1	0
67.061577	0.792154	city	5	1	0.498918	0.498918	0	1	0	0	CorrectCommission	1.016580	0.712473	1	0
67.853783	0.792265	city	3	1	0.497206	0.497206	0	1	0	0	CorrectCommission	1.029723	0.739373	1	1
68.645996	0.792158	city	6	1	0.695160	0.695160	0	1	0	0	CorrectCommission	0.490572	0.760067	0	1
69.438240	0.792328	city	9	1	0.447821	0.447821	0	1	0	0	CorrectCommission	1.409004	0.773092	0	1
70.230522	0.792237	city	5	1	0.398112	0.398112	0	1	0	0	CorrectCommission	1.790773	0.777791	0	1
71.022758	0.792227	city	8	1	0.448294	0.448294	0	1	0	0	CorrectCommission	1.405372	0.774479	0	1
71.815056	0.792373	city	4	1	0.562380	0.562380	0	1	0	0	CorrectCommission	0.529185	0.764342	0	1
72.607430	0.792373	mountain	1	0	0.000000	0.573513	1	0	0	0	CorrectOmission	0.443684	0.749280	0	1
73.399750	0.792266	city	7	1	0.559020	0.559020	0	1	0	0	CorrectCommission	0.554994	0.731578	1	1
74.191902	0.792048	city	8	1	0.596227	0.596227	0	1	0	0	CorrectCommission	0.269238	0.713583	1	1
74.984062	0.792266	city	2	1	0.596548	0.596548	0	1	0	0	CorrectCommission	0.266775	0.697386	1	1
75.776321	0.792262	city	8	1	0.546678	0.546678	0	1	0	0	CorrectCommission	0.649777	0.684593	1	1
76.568596	0.792276	city	7	1	0.497316	0.497316	0	1	0	0	CorrectCommission	1.028878	0.676141	1	1
77.360878	0.792284	city	8	1	0.695258	0.695258	0	1	0	0	CorrectCommission	0.491325	0.672329	1	1
78.153130	0.792233	city	4	1	0.744735	0.744735	0	1	0	0	CorrectCommission	0.871304	0.672882	1	1
78.945381	0.792269	city	10	1	0.646402	0.646402	0	1	0	0	CorrectCommission	0.116105	0.677020	1	1
79.737648	0.792265	city	5	1	0.695329	0.695329	0	1	0	0	CorrectCommission	0.491871	0.683711	1	1
80.529915	0.792262	city	10	1	0.845088	0.845088	0	1	0	0	CorrectCommission	1.642025	0.691766	1	1
81.322235	0.792373	city	7	1	0.596234	0.596234	0	1	0	0	CorrectCommission	0.269185	0.700021	1	1
82.114494	0.792157	city	3	1	0.596585	0.596585	0	1	0	0	CorrectCommission	0.266490	0.707501	1	1
82.906715	0.792272	mountain	10	0	0.000000	0.761756	1	0	0	0	CorrectOmission	1.002027	0.713472	1	1
83.699074	0.792446	city	6	1	0.844153	0.844153	0	1	0	0	CorrectCommission	1.634844	0.717460	1	1
84.491356	0.792117	city	1	1	0.596185	0.596185	0	1	0	0	CorrectCommission	0.269562	0.719332	1	1
85.283524	0.792223	city	5	1	0.596227	0.596227	0	1	0	0	CorrectCommission	0.269243	0.719256	1	1
86.075821	0.792371	city	8	1	0.795302	0.795302	0	1	0	0	CorrectCommission	1.259667	0.717662	1	1
86.868111	0.792218	city	2	1	0.506554	0.506554	0	1	0	0	CorrectCommission	0.957935	0.715135	1	1
87.660431	0.792423	city	4	1	0.645792	0.645792	0	1	0	0	CorrectCommission	0.111418	0.712424	1	1
88.452721	0.792155	mountain	6	0	0.000000	0.734953	1	0	0	0	CorrectOmission	0.796179	0.710386	1	1
89.244987	0.792374	city	7	1	0.744673	0.744673	0	1	0	0	CorrectCommission	0.870828	0.709898	1	1
90.037224	0.792098	city	3	1	0.645586	0.645586	0	1	0	0	CorrectCommission	0.109842	0.711831	1	1
90.829491	0.792431	city	6	1	0.794287	0.794287	0	1	0	0	CorrectCommission	1.251869	0.717036	1	1
91.621834	0.792265	city	8	1	0.546564	0.546564	0	1	0	0	CorrectCommission	0.650657	0.726199	1	1
92.413994	0.792051	city	1	1	0.546533	0.546533	0	1	0	0	CorrectCommission	0.650888	0.739871	1	1
93.206154	0.792274	city	8	1	0.497200	0.497200	0	1	0	0	CorrectCommission	1.029769	0.758333	0	1
93.998474	0.792359	city	4	1	0.648175	0.648175	0	1	0	0	CorrectCommission	0.129723	0.781532	0	1
94.790787	0.792268	city	7	1	0.546658	0.546658	0	1	0	0	CorrectCommission	0.649930	0.809064	0	1
95.583008	0.792176	city	3	1	0.562544	0.562544	0	1	0	0	CorrectCommission	0.527926	0.840065	0	1
96.375221	0.792242	city	10	1	0.497197	0.497197	0	1	0	0	CorrectCommission	1.029793	0.873295	0	1
97.167473	0.792262	mountain	4	1	0.596547	0.596547	0	0	1	0	CommissionError	0.266785	0.907181	0	1
97.959785	0.792374	city	7	1	0.893384	0.893384	0	1	0	0	CorrectCommission	2.012941	0.939942	0	1
98.752060	0.792161	city	1	1	0.603142	0.603142	0	1	0	0	CorrectCommission	0.216131	0.969706	0	1
99.544266	0.792263	city	10	1	0.313082	0.313082	0	1	0	0	CorrectCommission	2.443809	0.994817	0	1
100.336533	0.792265	mountain	5	1	0.546717	0.546717	0	0	1	0	CommissionError	0.649480	1.013724	0	1
101.128799	0.792261	city	2	1	0.843867	0.843867	0	1	0	0	CorrectCommission	1.632647	1.025305	0	1
101.921074	0.792301	city	1	1	0.702890	0.702890	0	1	0	0	CorrectCommission	0.549938	1.028835	0	1
102.713348	0.792244	city	3	1	0.695234	0.695234	0	1	0	0	CorrectCommission	0.491139	1.024114	0	1
103.505592	0.792250	city	9	1	0.497556	0.497556	0	1	0	0	CorrectCommission	1.027040	1.011428	0	1
104.297867	0.792293	city	2	1	0.420299	0.420299	0	1	0	0	CorrectCommission	1.620375	0.991604	0	1
105.090134	0.792243	city	10	1	0.497469	0.497469	0	1	0	0	CorrectCommission	1.027707	0.966021	0	1
105.882416	0.792317	city	5	1	0.942860	0.942860	0	1	0	0	CorrectCommission	2.392915	0.936530	0	1
106.674744	0.792342	city	3	1	0.744844	0.744844	0	1	0	0	CorrectCommission	0.872143	0.905267	0	1
107.466980	0.792130	city	10	1	0.596115	0.596115	0	1	0	0	CorrectCommission	0.270098	0.874512	0	1
108.259232	0.792374	city	4	1	0.651055	0.651055	0	1	0	0	CorrectCommission	0.151843	0.846307	0	1
109.051498	0.792155	city	2	1	0.695655	0.695655	0	1	0	0	CorrectCommission	0.494370	0.822201	0	1
109.843704	0.792265	city	7	1	0.547935	0.547935	0	1	0	0	CorrectCommission	0.640125	0.802981	0	1
110.635994	0.792313	city	3	1	0.554686	0.554686	0	1	0	0	CorrectCommission	0.588280	0.788544	0	1
111.428261	0.792219	city	6	1	0.596202	0.596202	0	1	0	0	CorrectCommission	0.269433	0.777950	0	1
112.220505	0.792265	city	10	1	0.497305	0.497305	0	1	0	0	CorrectCommission	1.028962	0.769543	0	1
113.012772	0.792265	city	6	1	0.695328	0.695328	0	1	0	0	CorrectCommission	0.491858	0.761290	0	1
113.805138	0.792479	mountain	10	1	0.547422	0.547422	0	0	1	0	CommissionError	0.644068	0.751140	0	1
114.597458	0.792155	city	6	1	1.041673	1.041673	0	1	0	0	CorrectCommission	3.151806	0.737458	1	1
115.389725	0.792374	city	10	1	0.651918	0.651918	0	1	0	0	CorrectCommission	0.158469	0.719174	1	1
116.181931	0.792048	city	8	0	0.000000	0.674468	0	0	0	1	OmissionError	0.331655	0.696222	1	1
116.974091	0.792268	city	9	1	0.745097	0.745097	0	1	0	0	CorrectCommission	0.874085	0.669330	1	1
117.766357	0.792262	city	8	1	0.499576	0.499576	0	1	0	0	CorrectCommission	1.011522	0.640035	1	1
118.558617	0.792262	city	10	1	0.596341	0.596341	0	1	0	0	CorrectCommission	0.268361	0.610418	1	1
119.350990	0.792484	mountain	1	0	0.000000	0.604154	1	0	0	0	CorrectOmission	0.208360	0.582852	1	1
120.143364	0.792265	mountain	3	1	0.596284	0.596284	0	0	1	0	CommissionError	0.268803	0.559630	1	1
120.935577	0.792155	city	9	1	0.646001	0.646001	0	1	0	0	CorrectCommission	0.113025	0.542690	1	1
121.727837	0.792374	city	3	1	0.497332	0.497332	0	1	0	0	CorrectCommission	1.028755	0.533379	1	1
122.520050	0.792050	city	1	1	0.606000	0.606000	0	1	0	0	CorrectCommission	0.194185	0.532305	1	1
123.312210	0.792261	city	3	1	0.695499	0.695499	0	1	0	0	CorrectCommission	0.493172	0.539281	1	1
124.104507	0.792336	city	2	1	0.695344	0.695344	0	1	0	0	CorrectCommission	0.491980	0.553318	1	1
124.896828	0.792304	city	9	1	0.658276	0.658276	0	1	0	0	CorrectCommission	0.207303	0.572739	1	1
125.689056	0.792158	city	1	1	0.645674	0.645674	0	1	0	0	CorrectCommission	0.110516	0.595354	1	1
126.481285	0.792303	city	6	1	0.745388	0.745388	0	1	0	0	CorrectCommission	0.876324	0.618716	1	1
127.273552	0.792229	city	5	1	0.645685	0.645685	0	1	0	0	CorrectCommission	0.110603	0.640399	1	0
128.065903	0.792476	city	8	1	0.807883	0.807883	0	1	0	0	CorrectCommission	1.356284	0.658472	1	0
128.858170	0.792052	city	4	1	0.695060	0.695060	0	1	0	0	CorrectCommission	0.489805	0.671686	1	0
129.650330	0.792259	city	7	1	0.999125	0.999125	0	1	0	0	CorrectCommission	2.825034	0.679790	1	0
130.442596	0.792268	city	10	1	0.744790	0.744790	0	1	0	0	CorrectCommission	0.871727	0.683579	1	0
131.234848	0.792264	city	1	1	0.655289	0.655289	0	1	0	0	CorrectCommission	0.184362	0.684923	1	0
132.027222	0.792481	city	7	1	0.655221	0.655221	0	1	0	0	CorrectCommission	0.183839	0.686382	1	0
132.819489	0.792050	city	1	1	0.645655	0.645655	0	1	0	0	CorrectCommission	0.110366	0.690910	1	0
133.611755	0.792479	city	2	1	0.596272	0.596272	0	1	0	0	CorrectCommission	0.268895	0.701368	1	0
134.404022	0.792050	city	10	1	0.496993	0.496993	0	1	0	0	CorrectCommission	1.031363	0.720066	1	0
135.196289	0.792479	city	2	1	0.695332	0.695332	0	1	0	0	CorrectCommission	0.491888	0.748372	0	0
135.988663	0.792265	city	6	1	0.550931	0.550931	0	1	0	0	CorrectCommission	0.617117	0.786458	0	0
136.780823	0.792049	city	8	1	0.596233	0.596233	0	1	0	0	CorrectCommission	0.269198	0.833170	0	0
137.572968	0.792261	city	4	1	0.695361	0.695361	0	1	0	0	CorrectCommission	0.492116	0.886090	0	0
138.365265	0.792329	city	3	1	0.745343	0.745343	0	1	0	0	CorrectCommission	0.875976	0.941744	0	0
139.157639	0.792420	city	9	1	0.756041	0.756041	0	1	0	0	CorrectCommission	0.958138	0.995989	0	0
139.949875	0.792048	city	4	1	0.794103	0.794103	0	1	0	0	CorrectCommission	1.250453	1.044469	0	0
140.742142	0.792481	city	8	1	0.844019	0.844019	0	1	0	0	CorrectCommission	1.633810	1.083153	0	0
141.534424	0.792091	city	6	1	0.893126	0.893126	0	1	0	0	CorrectCommission	2.010956	1.108815	0	0
142.326584	0.792233	city	2	1	0.547132	0.547132	0	1	0	0	CorrectCommission	0.646290	1.119420	0	0
143.118942	0.792470	city	10	1	1.042266	1.042266	0	1	0	0	CorrectCommission	3.156356	1.114418	0	0
143.911194	0.792053	city	3	1	0.843574	0.843574	0	1	0	0	CorrectCommission	1.630393	1.094608	0	0
144.703354	0.792259	city	5	1	0.646110	0.646110	0	1	0	0	CorrectCommission	0.113867	1.062179	0	0
145.495728	0.792484	city	6	1	0.815200	0.815200	0	1	0	0	CorrectCommission	1.412483	1.020236	0	0
146.287994	0.792049	city	3	1	0.698983	0.698983	0	1	0	0	CorrectCommission	0.519927	0.972346	0	0
147.080154	0.792266	city	9	1	0.745638	0.745638	0	1	0	0	CorrectCommission	0.878242	0.922136	0	0
147.872421	0.792278	city	7	1	0.662068	0.662068	0	1	0	0	CorrectCommission	0.236418	0.872858	0	0
148.664734	0.792355	city	5	1	0.600910	0.600910	0	1	0	0	CorrectCommission	0.233271	0.827159	0	0
149.457016	0.792194	city	7	1	0.757746	0.757746	0	1	0	0	CorrectCommission	0.971229	0.786856	0	0
150.249252	0.792288	city	9	1	0.857761	0.857761	0	1	0	0	CorrectCommission	1.739350	0.752938	0	0
151.041504	0.792203	city	7	1	0.645674	0.645674	0	1	0	0	CorrectCommission	0.110518	0.725672	1	0
151.833740	0.792267	city	10	1	0.546752	0.546752	0	1	0	0	CorrectCommission	0.649207	0.704761	1	0
152.626007	0.792268	city	4	1	0.601538	0.601538	0	1	0	0	CorrectCommission	0.228450	0.689501	1	0
153.418320	0.792369	city	2	1	0.607606	0.607606	0	1	0	0	CorrectCommission	0.181848	0.678996	1	0
154.210587	0.792161	city	9	1	0.843729	0.843729	0	1	0	0	CorrectCommission	1.631589	0.672289	1	0
155.002823	0.792315	city	7	1	0.645999	0.645999	0	1	0	0	CorrectCommission	0.113010	0.668490	1	0
155.795197	0.792426	city	2	1	0.497725	0.497725	0	1	0	0	CorrectCommission	1.025743	0.666922	1	0
156.587540	0.792267	city	8	1	0.496988	0.496988	0	1	0	0	CorrectCommission	1.031399	0.667044	1	0
157.379700	0.792048	mountain	7	0	0.000000	0.642168	1	0	0	0	CorrectOmission	0.083590	0.668533	1	0
158.171875	0.792291	city	7	1	0.752148	0.752148	0	1	0	0	CorrectCommission	0.928241	0.671205	1	0
158.964127	0.792235	city	2	1	0.645812	0.645812	0	1	0	0	CorrectCommission	0.111572	0.674918	1	0
159.756393	0.792273	city	8	1	0.501892	0.501892	0	1	0	0	CorrectCommission	0.993737	0.679591	1	0
160.548706	0.792373	city	4	1	0.499755	0.499755	0	1	0	0	CorrectCommission	1.010150	0.685035	1	0
161.341080	0.792367	city	1	1	0.596209	0.596209	0	1	0	0	CorrectCommission	0.269379	0.691026	1	0
162.133316	0.792109	city	3	1	0.744710	0.744710	0	1	0	0	CorrectCommission	0.871113	0.697309	1	0
162.925476	0.792204	city	7	1	0.645875	0.645875	0	1	0	0	CorrectCommission	0.112061	0.703580	1	0
163.717712	0.792262	city	4	1	0.796946	0.796946	0	1	0	0	CorrectCommission	1.272289	0.709642	1	0
164.510025	0.792374	city	10	1	0.556100	0.556100	0	1	0	0	CorrectCommission	0.577419	0.715397	1	0
165.302307	0.792185	city	7	1	0.744640	0.744640	0	1	0	0	CorrectCommission	0.870578	0.720999	1	0
166.094574	0.792346	city	2	1	0.794259	0.794259	0	1	0	0	CorrectCommission	1.251657	0.726797	1	0
166.886826	0.792156	city	3	1	0.612537	0.612537	0	1	0	0	CorrectCommission	0.143979	0.733351	1	0
167.679031	0.792264	city	10	1	0.497509	0.497509	0	1	0	0	CorrectCommission	1.027399	0.741312	0	0
168.471298	0.792265	city	4	1	0.744991	0.744991	0	1	0	0	CorrectCommission	0.873276	0.751274	0	0
169.263565	0.792289	city	5	1	0.650337	0.650337	0	1	0	0	CorrectCommission	0.146328	0.763632	0	0
170.055847	0.792258	city	1	1	0.744943	0.744943	0	1	0	0	CorrectCommission	0.872908	0.778429	0	0
170.848206	0.792465	city	7	1	0.761197	0.761197	0	1	0	0	CorrectCommission	0.997733	0.795217	0	0
171.640457	0.792050	city	9	1	0.645501	0.645501	0	1	0	0	CorrectCommission	0.109189	0.813017	0	0
172.432648	0.792309	city	4	1	0.745073	0.745073	0	1	0	0	CorrectCommission	0.873907	0.830478	0	0
173.225021	0.792437	city	10	1	0.596208	0.596208	0	1	0	0	CorrectCommission	0.269385	0.845934	0	0
174.017319	0.792156	city	4	1	0.795018	0.795018	0	1	0	0	CorrectCommission	1.257486	0.857766	0	0
174.809570	0.792372	city	8	1	0.497172	0.497172	0	1	0	0	CorrectCommission	1.029990	0.864610	0	0
175.601791	0.792057	city	10	1	0.348458	0.348458	0	1	0	0	CorrectCommission	2.172113	0.865650	0	0
176.393997	0.792363	mountain	5	1	0.398176	0.398176	0	0	1	0	CommissionError	1.790280	0.860750	0	0
177.186371	0.792375	city	4	1	0.547422	0.547422	0	1	0	0	CorrectCommission	0.644062	0.850500	0	0
177.978577	0.792049	city	3	1	0.546578	0.546578	0	1	0	0	CorrectCommission	0.650548	0.836110	0	0
178.770798	0.792372	city	2	1	0.645864	0.645864	0	1	0	0	CorrectCommission	0.111971	0.819158	0	0
179.563049	0.792155	city	5	1	0.614286	0.614286	0	1	0	0	CorrectCommission	0.130543	0.801324	0	0
180.355270	0.792265	city	8	1	0.546857	0.546857	0	1	0	0	CorrectCommission	0.648404	0.784164	0	0
181.147537	0.792267	city	1	1	0.610872	0.610872	0	1	0	0	CorrectCommission	0.156763	0.768870	0	0
181.939819	0.792312	city	10	1	0.910277	0.910277	0	1	0	0	CorrectCommission	2.142678	0.756264	0	0
182.732086	0.792218	city	9	1	0.744738	0.744738	0	1	0	0	CorrectCommission	0.871333	0.746682	0	0
183.524323	0.792267	city	3	1	0.558331	0.558331	0	1	0	0	CorrectCommission	0.560281	0.740130	1	0
184.316589	0.792261	city	2	1	0.709547	0.709547	0	1	0	0	CorrectCommission	0.601065	0.736310	1	0
185.108963	0.792481	city	1	1	0.704484	0.704484	0	1	0	0	CorrectCommission	0.562182	0.734633	1	0
185.901230	0.792061	city	7	1	0.744600	0.744600	0	1	0	0	CorrectCommission	0.870272	0.734312	1	0
186.693451	0.792360	city	2	1	0.613418	0.613418	0	1	0	0	CorrectCommission	0.137211	0.734414	1	1
187.485809	0.792375	mountain	9	0	0.000000	0.541850	1	0	0	0	CorrectOmission	0.686857	0.733947	1	1
188.278015	0.792045	city	10	1	0.596555	0.596555	0	1	0	0	CorrectCommission	0.266721	0.731954	1	1
189.070175	0.792269	city	7	1	0.844192	0.844192	0	1	0	0	CorrectCommission	1.635141	0.727703	1	1
189.862442	0.792269	city	8	1	0.499767	0.499767	0	1	0	0	CorrectCommission	1.010055	0.720737	1	1
190.654709	0.792259	city	5	1	0.500089	0.500089	0	1	0	0	CorrectCommission	1.007581	0.711072	1	1
191.446976	0.792263	city	2	1	0.497309	0.497309	0	1	0	0	CorrectCommission	1.028935	0.699176	1	1
192.239243	0.792264	city	8	1	0.695313	0.695313	0	1	0	0	CorrectCommission	0.491747	0.685927	1	1
193.031555	0.792373	city	10	1	0.546721	0.546721	0	1	0	0	CorrectCommission	0.649448	0.672486	1	1
193.823853	0.792221	city	5	1	0.698936	0.698936	0	1	0	0	CorrectCommission	0.519566	0.660104	1	1
194.616058	0.792201	mountain	10	0	0.000000	0.630843	1	0	0	0	CorrectOmission	0.003391	0.649909	1	1
195.408295	0.792265	mountain	9	1	0.546730	0.546730	0	0	1	0	CommissionError	0.649379	0.642723	1	1
196.200562	0.792267	city	8	1	0.650886	0.650886	0	1	0	0	CorrectCommission	0.150541	0.638972	1	1
196.992859	0.792343	city	4	1	0.513055	0.513055	0	1	0	0	CorrectCommission	0.908003	0.638655	1	1
197.785187	0.792293	city	2	1	0.695350	0.695350	0	1	0	0	CorrectCommission	0.492029	0.641386	1	1
198.577408	0.792159	city	8	1	0.695362	0.695362	0	1	0	0	CorrectCommission	0.492120	0.646649	1	1
199.369644	0.792314	city	5	1	0.412520	0.412520	0	1	0	0	CorrectCommission	1.680118	0.653833	1	1
200.161911	0.792213	city	9	1	0.546700	0.546700	0	1	0	0	CorrectCommission	0.649611	0.662501	1	1
200.954208	0.792374	city	6	1	0.547061	0.547061	0	1	0	0	CorrectCommission	0.646833	0.672520	1	1
201.746475	0.792157	city	9	1	0.608894	0.608894	0	1	0	0	CorrectCommission	0.171958	0.684050	1	1
202.538788	0.792479	city	8	1	0.645781	0.645781	0	1	0	0	CorrectCommission	0.111336	0.697581	1	1
203.331055	0.792051	city	1	1	0.759988	0.759988	0	1	0	0	CorrectCommission	0.988449	0.713868	1	1
204.123322	0.792480	city	4	1	0.794317	0.794317	0	1	0	0	CorrectCommission	1.252100	0.733855	1	1
204.915573	0.792046	city	6	1	0.751288	0.751288	0	1	0	0	CorrectCommission	0.921636	0.758487	0	1
205.707733	0.792267	city	9	1	0.663160	0.663160	0	1	0	0	CorrectCommission	0.244812	0.788629	0	1
206.500000	0.792263	city	7	1	0.747224	0.747224	0	1	0	0	CorrectCommission	0.890425	0.824878	0	1
207.292282	0.792306	city	3	1	0.645876	0.645876	0	1	0	0	CorrectCommission	0.112064	0.867380	0	1
208.084549	0.792228	city	10	1	0.546709	0.546709	0	1	0	0	CorrectCommission	0.649537	0.915774	0	1
208.876801	0.792261	city	7	1	0.843859	0.843859	0	1	0	0	CorrectCommission	1.632587	0.969096	0	1
209.669067	0.792265	mountain	1	0	0.000000	0.710829	1	0	0	0	CorrectOmission	0.610911	1.025829	0	1
210.461380	0.792372	city	2	1	0.596428	0.596428	0	1	0	0	CorrectCommission	0.267697	1.084030	0	1
211.253647	0.792159	city	3	1	0.949464	0.949464	0	1	0	0	CorrectCommission	2.443635	1.141430	0	1
212.045853	0.792261	mountain	4	0	0.000000	0.773950	1	0	0	0	CorrectOmission	1.095677	1.195632	0	1
212.838226	0.792485	mountain	6	1	0.596240	0.596240	0	0	1	0	CommissionError	0.269143	1.244409	0	1
213.630493	0.792045	city	9	1	0.942689	0.942689	0	1	0	0	CorrectCommission	2.391605	1.285857	0	1
214.422653	0.792268	city	8	1	0.707884	0.707884	0	1	0	0	CorrectCommission	0.588288	1.318480	0	1
215.214920	0.792263	city	9	1	1.004052	1.004052	0	1	0	0	CorrectCommission	2.862874	1.341406	0	1
216.007172	0.792268	city	8	0	0.000000	0.976293	0	0	0	1	OmissionError	2.649683	1.354227	0	1
216.799545	0.792479	mountain	1	0	0.000000	0.799188	1	0	0	0	CorrectOmission	1.289509	1.356969	0	1
217.591812	0.792046	city	6	1	0.647319	0.647319	0	1	0	0	CorrectCommission	0.123152	1.349935	0	1
218.383972	0.792263	city	3	1	0.695269	0.695269	0	1	0	0	CorrectCommission	0.491407	1.333492	0	1
219.176254	0.792290	city	5	1	0.909850	0.909850	0	1	0	0	CorrectCommission	2.139396	1.307970	0	1
219.968521	0.792259	city	2	1	0.596189	0.596189	0	1	0	0	CorrectCommission	0.269534	1.273652	0	1
220.760834	0.792355	city	10	1	0.455122	0.455122	0	1	0	0	CorrectCommission	1.352930	1.230968	0	1
221.553101	0.792193	city	5	1	1.042366	1.042366	0	1	0	0	CorrectCommission	3.157127	1.180555	0	1
222.345367	0.792336	mountain	8	0	0.000000	0.892258	1	0	0	0	CorrectOmission	2.004288	1.123492	0	1
223.137604	0.792144	city	7	1	0.546594	0.546594	0	1	0	0	CorrectCommission	0.650422	1.061498	0	1
223.929855	0.792340	city	10	1	0.547173	0.547173	0	1	0	0	CorrectCommission	0.645977	0.996852	0	1
224.722122	0.792201	city	3	1	0.744898	0.744898	0	1	0	0	CorrectCommission	0.872557	0.932235	0	1
225.514389	0.792323	city	4	1	0.516382	0.516382	0	1	0	0	CorrectCommission	0.882456	0.870505	0	1
226.306702	0.792318	city	9	1	0.607833	0.607833	0	1	0	0	CorrectCommission	0.180107	0.814253	0	1
227.098938	0.792159	city	3	1	0.549652	0.549652	0	1	0	0	CorrectCommission	0.626937	0.765587	0	1
227.891251	0.792477	city	10	1	0.598674	0.598674	0	1	0	0	CorrectCommission	0.250443	0.725795	1	1
228.683578	0.792156	city	3	1	0.654587	0.654587	0	1	0	0	CorrectCommission	0.178965	0.695227	1	1
229.475723	0.792156	city	5	1	0.695326	0.695326	0	1	0	0	CorrectCommission	0.491845	0.673383	1	1
230.267944	0.792272	city	2	1	0.615205	0.615205	0	1	0	0	CorrectCommission	0.123488	0.659092	1	1
231.060226	0.792281	city	6	1	0.794466	0.794466	0	1	0	0	CorrectCommission	1.253240	0.650762	1	1
231.852585	0.792461	mountain	4	0	0.000000	0.822557	1	0	0	0	CorrectOmission	1.468981	0.646749	1	1
232.644958	0.792262	city	4	1	0.744680	0.744680	0	1	0	0	CorrectCommission	0.870884	0.645607	1	1
233.437134	0.792105	city	7	1	0.606037	0.606037	0	1	0	0	CorrectCommission	0.193899	0.646319	1	1
234.229309	0.792252	city	3	1	0.547203	0.547203	0	1	0	0	CorrectCommission	0.645746	0.648330	1	1
235.021667	0.792438	city	5	1	0.546748	0.546748	0	1	0	0	CorrectCommission	0.649244	0.651447	1	1
235.813919	0.792067	city	4	1	0.745077	0.745077	0	1	0	0	CorrectCommission	0.873935	0.655665	1	1
236.606064	0.792247	city	6	1	0.546670	0.546670	0	1	0	0	CorrectCommission	0.649838	0.660900	1	1
237.398376	0.792371	city	3	1	0.596717	0.596717	0	1	0	0	CorrectCommission	0.265476	0.666840	1	1
238.190643	0.792162	mountain	9	0	0.000000	0.639654	1	0	0	0	CorrectOmission	0.064280	0.672776	1	1
238.982971	0.792477	city	8	1	0.648471	0.648471	0	1	0	0	CorrectCommission	0.131996	0.677597	1	1
239.775284	0.792155	city	10	1	0.596159	0.596159	0	1	0	0	CorrectCommission	0.269762	0.679996	1	1
240.567444	0.792159	city	1	1	0.992952	0.992952	0	1	0	0	CorrectCommission	2.777624	0.678733	1	1
241.359650	0.792271	city	9	1	0.596240	0.596240	0	1	0	0	CorrectCommission	0.269140	0.672889	1	1
242.152023	0.792473	mountain	4	1	0.447818	0.447818	0	0	1	0	CommissionError	1.409029	0.662306	1	1
242.944290	0.792047	city	1	1	0.750478	0.750478	0	1	0	0	CorrectCommission	0.915414	0.647573	1	1
243.736450	0.792275	city	2	1	0.695327	0.695327	0	1	0	0	CorrectCommission	0.491854	0.630210	1	1
244.528763	0.792365	city	4	1	0.702884	0.702884	0	1	0	0	CorrectCommission	0.549890	0.612440	1	1
245.321075	0.792263	city	10	1	0.553296	0.553296	0	1	0	0	CorrectCommission	0.598953	0.596896	1	1
246.113312	0.792206	city	9	1	0.645960	0.645960	0	1	0	0	CorrectCommission	0.112710	0.586250	1	0
246.905518	0.792214	city	6	1	0.645724	0.645724	0	1	0	0	CorrectCommission	0.110896	0.582802	1	0
247.697769	0.792269	city	5	1	0.613234	0.613234	0	1	0	0	CorrectCommission	0.138627	0.588119	1	0
248.490082	0.792371	city	3	1	0.695288	0.695288	0	1	0	0	CorrectCommission	0.491554	0.602804	1	0
249.282349	0.792163	city	4	1	0.600035	0.600035	0	1	0	0	CorrectCommission	0.239994	0.626406	1	0
250.074570	0.792262	mountain	2	0	0.000000	0.673354	1	0	0	0	CorrectOmission	0.323102	0.657541	1	0
250.866821	0.792262	city	6	1	0.695742	0.695742	0	1	0	0	CorrectCommission	0.495036	0.694066	1	0
251.659149	0.792372	mountain	5	1	0.447692	0.447692	0	0	1	0	CommissionError	1.409996	0.733390	1	0
252.451401	0.792155	city	3	1	0.454462	0.454462	0	1	0	0	CorrectCommission	1.357997	0.772783	0	0
253.243729	0.792482	city	2	1	0.497726	0.497726	0	1	0	0	CorrectCommission	1.025735	0.809734	0	0
254.035995	0.792048	city	1	1	0.702133	0.702133	0	1	0	0	CorrectCommission	0.544119	0.842121	0	0
254.828140	0.792265	city	6	1	0.744904	0.744904	0	1	0	0	CorrectCommission	0.872602	0.868386	0	0
255.620422	0.792270	city	9	1	0.507443	0.507443	0	1	0	0	CorrectCommission	0.951106	0.887552	0	0
256.412689	0.792268	city	10	1	0.497199	0.497199	0	1	0	0	CorrectCommission	1.029779	0.899225	0	0
257.204956	0.792259	city	4	1	0.844274	0.844274	0	1	0	0	CorrectCommission	1.635773	0.903517	0	0
257.997253	0.792370	city	8	1	0.665586	0.665586	0	1	0	0	CorrectCommission	0.263441	0.900866	0	0
258.789520	0.792157	city	5	1	0.447696	0.447696	0	1	0	0	CorrectCommission	1.409966	0.892066	0	0
259.581787	0.792372	city	2	1	0.498886	0.498886	0	1	0	0	CorrectCommission	1.016825	0.878009	0	0
260.374054	0.792156	city	1	1	0.697157	0.697157	0	1	0	0	CorrectCommission	0.505906	0.859672	0	0
261.166382	0.792483	city	10	1	0.746183	0.746183	0	1	0	0	CorrectCommission	0.882428	0.838024	0	0
261.958649	0.792046	city	5	1	0.499630	0.499630	0	1	0	0	CorrectCommission	1.011111	0.813922	0	0
262.750916	0.792483	city	2	1	0.547486	0.547486	0	1	0	0	CorrectCommission	0.643575	0.788124	0	0
263.543213	0.792156	city	6	1	0.506716	0.506716	0	1	0	0	CorrectCommission	0.956687	0.761264	0	0
264.335388	0.792198	city	1	1	0.547498	0.547498	0	1	0	0	CorrectCommission	0.643478	0.733837	1	0
265.127655	0.792332	city	4	1	0.744761	0.744761	0	1	0	0	CorrectCommission	0.871509	0.706279	1	0
265.919952	0.792266	city	10	1	0.609827	0.609827	0	1	0	0	CorrectCommission	0.164790	0.678969	1	0
266.712158	0.792154	city	3	1	0.695264	0.695264	0	1	0	0	CorrectCommission	0.491372	0.652320	1	0
267.504395	0.792272	city	5	1	0.695463	0.695463	0	1	0	0	CorrectCommission	0.492899	0.626790	1	0
268.296661	0.792259	city	8	1	0.893373	0.893373	0	1	0	0	CorrectCommission	2.012857	0.602956	1	0
269.088928	0.792282	city	2	1	0.649587	0.649587	0	1	0	0	CorrectCommission	0.140568	0.581455	1	0
269.881195	0.792262	city	8	1	0.596271	0.596271	0	1	0	0	CorrectCommission	0.268899	0.563065	1	0
270.673553	0.792466	city	9	1	0.646019	0.646019	0	1	0	0	CorrectCommission	0.113163	0.548509	1	0
271.465851	0.792135	city	6	1	0.549380	0.549380	0	1	0	0	CorrectCommission	0.629027	0.538429	1	0
272.258026	0.792182	city	2	1	0.560452	0.560452	0	1	0	0	CorrectCommission	0.543992	0.533224	1	0
273.050232	0.792275	city	6	1	0.645772	0.645772	0	1	0	0	CorrectCommission	0.111266	0.532993	1	0
273.842560	0.792357	city	3	1	0.654808	0.654808	0	1	0	0	CorrectCommission	0.180668	0.537519	1	0
274.634857	0.792204	city	4	1	0.744973	0.744973	0	1	0	0	CorrectCommission	0.873133	0.546247	1	0
275.427063	0.792218	city	5	1	0.695471	0.695471	0	1	0	0	CorrectCommission	0.492959	0.558397	1	0
276.219360	0.792374	city	9	1	0.744785	0.744785	0	1	0	0	CorrectCommission	0.871692	0.573053	1	0
277.011627	0.792155	city	4	1	0.646192	0.646192	0	1	0	0	CorrectCommission	0.114492	0.589303	1	0
277.803864	0.792339	city	1	1	0.499513	0.499513	0	1	0	0	CorrectCommission	1.012011	0.606393	1	0
278.596161	0.792279	city	5	1	0.701785	0.701785	0	1	0	0	CorrectCommission	0.541448	0.623741	1	0
279.388519	0.792395	city	3	1	0.600928	0.600928	0	1	0	0	CorrectCommission	0.233133	0.641052	1	0
280.180725	0.792048	mountain	10	0	0.000000	0.491321	1	0	0	0	CorrectOmission	1.074923	0.658276	1	0
280.972870	0.792266	mountain	1	1	0.448157	0.448157	0	0	1	0	CommissionError	1.406424	0.675488	1	0
281.765137	0.792261	city	2	1	0.546631	0.546631	0	1	0	0	CorrectCommission	0.650139	0.692814	1	0
282.557404	0.792264	city	5	1	0.596267	0.596267	0	1	0	0	CorrectCommission	0.268935	0.710265	1	0
283.349701	0.792324	city	2	1	0.596240	0.596240	0	1	0	0	CorrectCommission	0.269136	0.727584	1	0
284.142029	0.792314	mountain	10	0	0.000000	0.677326	1	0	0	0	CorrectOmission	0.353607	0.744143	0	0
284.934296	0.792234	city	7	1	0.705531	0.705531	0	1	0	0	CorrectCommission	0.570220	0.759000	0	0
285.726624	0.792405	city	9	1	0.546861	0.546861	0	1	0	0	CorrectCommission	0.648376	0.770951	0	0
286.518860	0.792049	city	10	1	0.400475	0.400475	0	1	0	0	CorrectCommission	1.772625	0.778830	0	0
287.311005	0.792262	city	2	1	0.803596	0.803596	0	1	0	0	CorrectCommission	1.323360	0.781699	0	0
288.103302	0.792354	mountain	4	0	0.000000	0.717538	1	0	0	0	CorrectOmission	0.662432	0.779158	0	0
288.895630	0.792284	city	3	1	0.497101	0.497101	0	1	0	0	CorrectCommission	1.030530	0.771531	0	0
289.687836	0.792160	city	7	1	0.497086	0.497086	0	1	0	0	CorrectCommission	1.030647	0.759937	0	0
290.480072	0.792265	city	2	1	0.507053	0.507053	0	1	0	0	CorrectCommission	0.954100	0.746299	0	0
291.272339	0.792262	city	1	1	0.649641	0.649641	0	1	0	0	CorrectCommission	0.140979	0.733106	1	0
292.064636	0.792373	city	8	1	0.695907	0.695907	0	1	0	0	CorrectCommission	0.496308	0.723189	1	0
292.856964	0.792266	city	9	1	0.744667	0.744667	0	1	0	0	CorrectCommission	0.870788	0.719340	1	0
293.649170	0.792160	city	2	1	0.560544	0.560544	0	1	0	0	CorrectCommission	0.543284	0.723950	1	0
294.441376	0.792259	city	7	1	0.695406	0.695406	0	1	0	0	CorrectCommission	0.492462	0.738708	1	0
295.233673	0.792322	city	5	1	0.596217	0.596217	0	1	0	0	CorrectCommission	0.269319	0.764281	0	0
296.025940	0.792213	city	8	1	0.645710	0.645710	0	1	0	0	CorrectCommission	0.110794	0.800174	0	0
296.818176	0.792278	city	2	1	0.547294	0.547294	0	1	0	0	CorrectCommission	0.645044	0.844688	0	0
297.610443	0.792252	city	1	1	0.497469	0.497469	0	1	0	0	CorrectCommission	1.027702	0.895007	0	0
298.402710	0.792268	city	6	1	0.744939	0.744939	0	1	0	0	CorrectCommission	0.872873	0.947506	0	0
299.194977	0.792256	city	1	1	0.546849	0.546849	0	1	0	0	CorrectCommission	0.648464	0.998104	0	0
299.987274	0.792320	city	7	1	0.408739	0.408739	0	1	0	0	CorrectCommission	1.709157	1.042726	0	0
300.779541	0.792231	city	5	1	0.448104	0.448104	0	1	0	0	CorrectCommission	1.406833	1.077702	0	0
301.571838	0.792353	city	2	1	0.356275	0.356275	0	1	0	0	CorrectCommission	2.112079	1.100221	0	0
302.364197	0.792373	city	6	1	0.398020	0.398020	0	1	0	0	CorrectCommission	1.791476	1.108561	0	0
303.156403	0.792048	city	9	1	0.546671	0.546671	0	1	0	0	CorrectCommission	0.649836	1.102284	0	0
303.948578	0.792306	city	6	1	0.497225	0.497225	0	1	0	0	CorrectCommission	1.029576	1.082192	0	0
304.740906	0.792332	city	3	1	0.447659	0.447659	0	1	0	0	CorrectCommission	1.410251	1.050127	0	0
305.533142	0.792158	city	4	1	0.950092	0.950092	0	1	0	0	CorrectCommission	2.448460	1.008726	0	1
306.325348	0.792266	city	5	1	0.612221	0.612221	0	1	0	0	CorrectCommission	0.146405	0.961089	0	1
307.117615	0.792265	city	2	1	0.546893	0.546893	0	1	0	0	CorrectCommission	0.648128	0.910421	0	1
307.910004	0.792479	city	1	1	0.596243	0.596243	0	1	0	0	CorrectCommission	0.269115	0.859719	0	1
308.702362	0.792264	city	2	1	0.596472	0.596472	0	1	0	0	CorrectCommission	0.267360	0.811570	0	1
309.494507	0.792048	city	5	1	0.546732	0.546732	0	1	0	0	CorrectCommission	0.649366	0.768044	0	1
310.286682	0.792268	city	9	1	0.497330	0.497330	0	1	0	0	CorrectCommission	1.028771	0.730713	1	1
311.079041	0.792478	city	7	1	0.497823	0.497823	0	1	0	0	CorrectCommission	1.024988	0.700762	1	1
311.871368	0.792156	city	10	1	0.546817	0.546817	0	1	0	0	CorrectCommission	0.648707	0.679106	1	1
312.663574	0.792266	city	5	1	0.615209	0.615209	0	1	0	0	CorrectCommission	0.123457	0.666500	1	1
313.455841	0.792237	city	1	1	0.465477	0.465477	0	1	0	0	CorrectCommission	1.273407	0.663554	1	1
314.248108	0.792292	city	7	1	0.596181	0.596181	0	1	0	0	CorrectCommission	0.269592	0.670577	1	1
315.040344	0.792213	city	4	1	0.562438	0.562438	0	1	0	0	CorrectCommission	0.528738	0.687539	1	1
315.832672	0.792425	city	10	1	0.600191	0.600191	0	1	0	0	CorrectCommission	0.238793	0.713812	1	1
316.624908	0.792054	city	9	1	0.645542	0.645542	0	1	0	0	CorrectCommission	0.109501	0.748049	0	1
317.417084	0.792326	city	4	1	0.596202	0.596202	0	1	0	0	CorrectCommission	0.269434	0.788098	0	1
318.209351	0.792196	city	2	1	0.497110	0.497110	0	1	0	0	CorrectCommission	1.030462	0.831087	0	1
319.001648	0.792372	mountain	7	0	0.000000	0.466049	1	0	0	0	CorrectOmission	1.269016	0.873608	0	1
319.793976	0.792265	mountain	3	0	0.000000	0.524820	1	0	0	0	CorrectOmission	0.817652	0.912095	0	1
320.586273	0.792373	city	1	1	0.695226	0.695226	0	1	0	0	CorrectCommission	0.491074	0.943261	0	1
321.378479	0.792046	city	6	1	0.999069	0.999069	0	1	0	0	CorrectCommission	2.824605	0.964514	0	1
322.170654	0.792265	city	2	1	0.654852	0.654852	0	1	0	0	CorrectCommission	0.180999	0.974245	0	1
322.962952	0.792374	city	1	1	0.999648	0.999648	0	1	0	0	CorrectCommission	2.829052	0.972196	0	1
323.755219	0.792159	city	10	1	0.844261	0.844261	0	1	0	0	CorrectCommission	1.635674	0.959321	0	1
324.547455	0.792262	city	2	1	0.547196	0.547196	0	1	0	0	CorrectCommission	0.645801	0.937731	0	1
325.339722	0.792267	city	8	1	0.599018	0.599018	0	1	0	0	CorrectCommission	0.247803	0.910283	0	1
326.132019	0.792372	city	6	1	0.646102	0.646102	0	1	0	0	CorrectCommission	0.113803	0.880119	0	1
326.924286	0.792159	city	9	1	0.614648	0.614648	0	1	0	0	CorrectCommission	0.127769	0.850227	0	1
327.716522	0.792287	city	10	1	0.500263	0.500263	0	1	0	0	CorrectCommission	1.006249	0.823061	0	1
328.508881	0.792458	city	2	1	0.852966	0.852966	0	1	0	0	CorrectCommission	1.702528	0.800287	0	1
329.301147	0.792049	city	4	1	0.596248	0.596248	0	1	0	0	CorrectCommission	0.269081	0.782660	0	1
330.093292	0.792260	city	5	1	0.556433	0.556433	0	1	0	0	CorrectCommission	0.574862	0.770138	0	1
330.885559	0.792268	city	6	1	0.745391	0.745391	0	1	0	0	CorrectCommission	0.876348	0.761902	0	1
331.677856	0.792301	city	7	1	0.596302	0.596302	0	1	0	0	CorrectCommission	0.268663	0.756694	0	1
332.470215	0.792445	city	3	1	0.547298	0.547298	0	1	0	0	CorrectCommission	0.645016	0.753056	0	1
333.262482	0.792090	city	5	1	0.509118	0.509118	0	1	0	0	CorrectCommission	0.938239	0.749599	0	1
334.054657	0.792277	city	4	1	0.498009	0.498009	0	1	0	0	CorrectCommission	1.023562	0.745239	0	1
334.846924	0.792260	city	2	1	0.497149	0.497149	0	1	0	0	CorrectCommission	1.030160	0.739399	1	1
335.639160	0.792213	city	4	1	0.752389	0.752389	0	1	0	0	CorrectCommission	0.930087	0.732112	1	1
336.431427	0.792265	city	8	1	0.811335	0.811335	0	1	0	0	CorrectCommission	1.382795	0.723940	1	1
337.223663	0.792265	city	4	1	0.609823	0.609823	0	1	0	0	CorrectCommission	0.164820	0.715889	1	1
338.015961	0.792305	city	7	1	0.695261	0.695261	0	1	0	0	CorrectCommission	0.491347	0.709210	1	1
338.808289	0.792332	city	3	1	0.562873	0.562873	0	1	0	0	CorrectCommission	0.525400	0.705029	1	1
339.600586	0.792264	city	2	1	0.546659	0.546659	0	1	0	0	CorrectCommission	0.649924	0.704231	1	1
340.392792	0.792158	city	3	1	0.695199	0.695199	0	1	0	0	CorrectCommission	0.490866	0.707152	1	1
341.184998	0.792263	city	4	1	0.649190	0.649190	0	1	0	0	CorrectCommission	0.137520	0.713555	1	1
341.977264	0.792265	city	3	1	0.649707	0.649707	0	1	0	0	CorrectCommission	0.141488	0.722644	1	1
342.769592	0.792380	city	7	1	0.744927	0.744927	0	1	0	0	CorrectCommission	0.872784	0.733212	1	1
343.561951	0.792366	city	10	1	0.904831	0.904831	0	1	0	0	CorrectCommission	2.100855	0.743832	0	1
344.354156	0.792053	city	3	1	0.745080	0.745080	0	1	0	0	CorrectCommission	0.873955	0.753113	0	1
345.146423	0.792477	city	5	1	0.744959	0.744959	0	1	0	0	CorrectCommission	0.873025	0.759964	0	1
345.938751	0.792157	city	10	1	0.663937	0.663937	0	1	0	0	CorrectCommission	0.250772	0.763689	0	1
346.730896	0.792160	city	7	1	0.744982	0.744982	0	1	0	0	CorrectCommission	0.873202	0.764083	0	1
347.523132	0.792261	city	6	1	0.748261	0.748261	0	1	0	0	CorrectCommission	0.898388	0.761377	0	1
348.315430	0.792369	city	9	1	0.794289	0.794289	0	1	0	0	CorrectCommission	1.251881	0.756199	0	1
349.107697	0.792162	city	6	1	0.615648	0.615648	0	1	0	0	CorrectCommission	0.120086	0.749409	0	1
349.900024	0.792479	city	8	1	0.655906	0.655906	0	1	0	0	CorrectCommission	0.189101	0.742001	0	1
350.692291	0.792050	city	9	1	0.902662	0.902662	0	1	0	0	CorrectCommission	2.084195	0.734898	1	1
351.484436	0.792268	city	8	1	0.658449	0.658449	0	1	0	0	CorrectCommission	0.208630	0.728838	1	1
352.276703	0.792262	city	9	1	0.546735	0.546735	0	1	0	0	CorrectCommission	0.649340	0.724414	1	1
353.068970	0.792275	city	1	1	0.645762	0.645762	0	1	0	0	CorrectCommission	0.111192	0.721918	1	1
353.861298	0.792359	city	3	1	0.661632	0.661632	0	1	0	0	CorrectCommission	0.233076	0.721411	1	1
354.653564	0.792159	city	5	1	0.796886	0.796886	0	1	0	0	CorrectCommission	1.271833	0.722737	1	1
355.445770	0.792263	mountain	10	0	0.000000	0.811965	1	0	0	0	CorrectOmission	1.387634	0.725598	1	1
356.238068	0.792334	mountain	9	0	0.000000	0.747936	1	0	0	0	CorrectOmission	0.895892	0.729651	1	1
357.030365	0.792257	city	1	1	0.645870	0.645870	0	1	0	0	CorrectCommission	0.112018	0.734548	1	1
357.822632	0.792264	city	7	1	0.546835	0.546835	0	1	0	0	CorrectCommission	0.648575	0.740014	1	1
358.614899	0.792311	city	9	1	0.546698	0.546698	0	1	0	0	CorrectCommission	0.649626	0.745830	0	1
359.407135	0.792157	city	5	1	0.546639	0.546639	0	1	0	0	CorrectCommission	0.650077	0.751882	0	1
360.199341	0.792266	mountain	9	0	0.000000	0.742938	1	0	0	0	CorrectOmission	0.857508	0.758193	0	1
360.991669	0.792371	city	8	1	0.857734	0.857734	0	1	0	0	CorrectCommission	1.739147	0.764882	0	1
361.783936	0.792156	city	10	1	0.613167	0.613167	0	1	0	0	CorrectCommission	0.139143	0.772203	0	1
362.576172	0.792291	city	3	1	0.647100	0.647100	0	1	0	0	CorrectCommission	0.121467	0.780540	0	1
363.368439	0.792241	city	4	1	0.468015	0.468015	0	1	0	0	CorrectCommission	1.253913	0.790313	0	1
364.160706	0.792305	city	10	1	0.514771	0.514771	0	1	0	0	CorrectCommission	0.894826	0.801895	0	1
364.952972	0.792224	city	3	1	0.794270	0.794270	0	1	0	0	CorrectCommission	1.251742	0.815594	0	0
365.745270	0.792370	city	2	1	0.695298	0.695298	0	1	0	0	CorrectCommission	0.491628	0.831465	0	0
366.537537	0.792179	city	9	1	0.645692	0.645692	0	1	0	0	CorrectCommission	0.110656	0.849303	0	0
367.329865	0.792460	city	5	1	0.751734	0.751734	0	1	0	0	CorrectCommission	0.925063	0.868534	0	0
368.122223	0.792266	city	10	1	0.764710	0.764710	0	1	0	0	CorrectCommission	1.024720	0.888186	0	0
368.914368	0.792048	city	8	1	0.794100	0.794100	0	1	0	0	CorrectCommission	1.250430	0.906981	0	0
369.706543	0.792261	city	6	1	0.607592	0.607592	0	1	0	0	CorrectCommission	0.181960	0.923472	0	0
370.498810	0.792269	city	3	1	0.497231	0.497231	0	1	0	0	CorrectCommission	1.029533	0.936265	0	0
371.291077	0.792266	city	8	1	0.398294	0.398294	0	1	0	0	CorrectCommission	1.789375	0.944193	0	0
372.083374	0.792371	city	4	1	0.510874	0.510874	0	1	0	0	CorrectCommission	0.924754	0.946572	0	0
372.875763	0.792371	city	1	1	0.413914	0.413914	0	1	0	0	CorrectCommission	1.669411	0.943405	0	0
373.668030	0.792156	mountain	3	0	0.000000	0.488969	1	0	0	0	CorrectOmission	1.092987	0.935413	0	0
374.460175	0.792157	city	10	1	0.645832	0.645832	0	1	0	0	CorrectCommission	0.111726	0.924090	0	0
375.252502	0.792481	city	2	1	0.794296	0.794296	0	1	0	0	CorrectCommission	1.251936	0.911512	0	0
376.044861	0.792265	city	1	1	0.501872	0.501872	0	1	0	0	CorrectCommission	0.993893	0.900074	0	0
376.837036	0.792051	mountain	6	1	0.447807	0.447807	0	0	1	0	CommissionError	1.409110	0.892202	0	0
377.629181	0.792263	city	5	1	0.702302	0.702302	0	1	0	0	CorrectCommission	0.545423	0.889959	0	0
378.421448	0.792264	city	8	1	0.646464	0.646464	0	1	0	0	CorrectCommission	0.116581	0.894722	0	0
379.213715	0.792264	city	2	1	0.645764	0.645764	0	1	0	0	CorrectCommission	0.111203	0.906914	0	0
380.006012	0.792324	city	5	1	0.744800	0.744800	0	1	0	0	CorrectCommission	0.871810	0.925839	0	0
380.798279	0.792205	city	3	1	0.596219	0.596219	0	1	0	0	CorrectCommission	0.269299	0.949695	0	0
381.590546	0.792373	city	2	1	0.515164	0.515164	0	1	0	0	CorrectCommission	0.891806	0.975841	0	0
382.382843	0.792180	city	1	1	0.447761	0.447761	0	1	0	0	CorrectCommission	1.409463	1.001064	0	0
383.175049	0.792244	city	9	1	1.041877	1.041877	0	1	0	0	CorrectCommission	3.153371	1.022041	0	0
383.967285	0.792262	city	3	1	0.660284	0.660284	0	1	0	0	CorrectCommission	0.222719	1.035717	0	0
384.759583	0.792309	city	8	1	0.502705	0.502705	0	1	0	0	CorrectCommission	0.987489	1.039802	0	0
385.551849	0.792221	city	1	1	0.497308	0.497308	0	1	0	0	CorrectCommission	1.028946	1.032861	0	0
386.344086	0.792264	city	6	1	0.447976	0.447976	0	1	0	0	CorrectCommission	1.407815	1.014553	0	0
387.136475	0.792481	city	5	1	0.398169	0.398169	0	1	0	0	CorrectCommission	1.790336	0.985601	0	0
387.928772	0.792126	city	10	1	0.447489	0.447489	0	1	0	0	CorrectCommission	1.411551	0.947650	0	0
388.720917	0.792188	city	8	1	0.695201	0.695201	0	1	0	0	CorrectCommission	0.490881	0.903029	0	0
389.513153	0.792266	mountain	5	0	0.000000	0.744191	1	0	0	0	CorrectOmission	0.867132	0.854498	0	0
390.305420	0.792261	city	9	1	0.657369	0.657369	0	1	0	0	CorrectCommission	0.200337	0.804874	0	0
391.097717	0.792328	city	2	1	0.497643	0.497643	0	1	0	0	CorrectCommission	1.026368	0.756790	0	0
391.889984	0.792215	city	4	1	0.596367	0.596367	0	1	0	0	CorrectCommission	0.268161	0.712438	1	0
392.682281	0.792361	city	7	1	0.646181	0.646181	0	1	0	0	CorrectCommission	0.114412	0.673423	1	0
393.474640	0.792373	city	8	1	0.516373	0.516373	0	1	0	0	CorrectCommission	0.882523	0.640699	1	0
394.266876	0.792080	city	4	1	0.496993	0.496993	0	1	0	0	CorrectCommission	1.031363	0.614549	1	0
395.059021	0.792234	city	7	1	0.596268	0.596268	0	1	0	0	CorrectCommission	0.268927	0.594702	1	0
395.851257	0.792266	mountain	3	0	0.000000	0.662327	1	0	0	0	CorrectOmission	0.238408	0.580460	1	0
396.643585	0.792368	city	5	1	0.695295	0.695295	0	1	0	0	CorrectCommission	0.491607	0.570781	1	0
397.435944	0.792375	city	6	1	0.695299	0.695299	0	1	0	0	CorrectCommission	0.491641	0.564409	1	0
398.228210	0.792156	city	1	1	0.496998	0.496998	0	1	0	0	CorrectCommission	1.031322	0.560041	1	0
399.020386	0.792158	city	3	1	0.645680	0.645680	0	1	0	0	CorrectCommission	0.110564	0.556429	1	0
399.812622	0.792296	city	9	1	0.745241	0.745241	0	1	0	0	CorrectCommission	0.875194	0.552552	1	0
400.604889	0.792259	city	2	1	0.645755	0.645755	0	1	0	0	CorrectCommission	0.111138	0.547613	1	0
401.397247	0.792454	mountain	1	1	0.497209	0.497209	0	0	1	0	CommissionError	1.029701	0.541246	1	0
402.189514	0.792096	city	8	1	0.546581	0.546581	0	1	0	0	CorrectCommission	0.650525	0.533477	1	0
402.981689	0.792239	city	10	1	0.497803	0.497803	0	1	0	0	CorrectCommission	1.025140	0.524718	1	0
403.773926	0.792243	city	3	1	0.596190	0.596190	0	1	0	0	CorrectCommission	0.269526	0.515716	1	0
404.566223	0.792331	city	1	1	0.652793	0.652793	0	1	0	0	CorrectCommission	0.165192	0.507462	1	0
405.358459	0.792196	city	8	1	0.552476	0.552476	0	1	0	0	CorrectCommission	0.605252	0.501070	1	0
406.150726	0.792324	city	5	1	0.596242	0.596242	0	1	0	0	CorrectCommission	0.269124	0.497634	1	0
406.942993	0.792206	city	1	1	0.563931	0.563931	0	1	0	0	CorrectCommission	0.517275	0.498118	1	0
407.735352	0.792484	city	9	1	0.614961	0.614961	0	1	0	0	CorrectCommission	0.125365	0.503263	1	0
408.527710	0.792263	city	4	1	0.695025	0.695025	0	1	0	0	CorrectCommission	0.489533	0.513548	1	0
409.319885	0.792050	mountain	8	0	0.000000	0.675388	1	0	0	0	CorrectOmission	0.338724	0.529198	1	0
410.112091	0.792371	city	6	1	0.596219	0.596219	0	1	0	0	CorrectCommission	0.269303	0.550231	1	0
410.904388	0.792266	city	9	1	0.497684	0.497684	0	1	0	0	CorrectCommission	1.026056	0.576480	1	0
411.696625	0.792160	city	3	1	0.497221	0.497221	0	1	0	0	CorrectCommission	1.029606	0.607600	1	0
412.488831	0.792279	city	8	1	0.563715	0.563715	0	1	0	0	CorrectCommission	0.518937	0.643110	1	0
413.281128	0.792311	city	3	1	0.609965	0.609965	0	1	0	0	CorrectCommission	0.163733	0.682336	1	0
414.073395	0.792203	city	9	1	0.596302	0.596302	0	1	0	0	CorrectCommission	0.268667	0.724357	1	0
414.865662	0.792370	city	5	1	0.515853	0.515853	0	1	0	0	CorrectCommission	0.886516	0.767948	0	0
415.657928	0.792155	mountain	3	0	0.000000	0.527007	1	0	0	0	CorrectOmission	0.800852	0.811574	0	0
416.450134	0.792268	city	9	1	0.663700	0.663700	0	1	0	0	CorrectCommission	0.248959	0.853459	0	0
417.242401	0.792266	city	8	1	0.959869	0.959869	0	1	0	0	CorrectCommission	2.523547	0.891669	0	0
418.034668	0.792264	city	5	1	0.695522	0.695522	0	1	0	0	CorrectCommission	0.493347	0.924216	0	0
418.826935	0.792263	city	3	1	0.510745	0.510745	0	1	0	0	CorrectCommission	0.925746	0.949388	0	0
419.619202	0.792266	city	9	1	0.664252	0.664252	0	1	0	0	CorrectCommission	0.253198	0.965826	0	0
420.411591	0.792481	city	6	1	0.407529	0.407529	0	1	0	0	CorrectCommission	1.718451	0.972773	0	0
421.203857	0.792089	city	3	1	0.398013	0.398013	0	1	0	0	CorrectCommission	1.791533	0.970137	0	0
421.996063	0.792331	mountain	10	0	0.000000	0.411845	1	0	0	0	CorrectOmission	1.685302	0.958632	0	0
422.788330	0.792171	city	1	1	0.497100	0.497100	0	1	0	0	CorrectCommission	1.030537	0.939651	0	0
423.580536	0.792257	city	2	1	0.701855	0.701855	0	1	0	0	CorrectCommission	0.541984	0.915162	0	0
424.372864	0.792368	mountain	5	0	0.000000	0.724396	1	0	0	0	CorrectOmission	0.715106	0.887441	0	1
425.165161	0.792263	city	6	1	0.695186	0.695186	0	1	0	0	CorrectCommission	0.490766	0.858799	0	1
425.957489	0.792376	city	10	1	0.744682	0.744682	0	1	0	0	CorrectCommission	0.870904	0.831305	0	1
426.749695	0.792049	city	3	1	0.695068	0.695068	0	1	0	0	CorrectCommission	0.489861	0.806574	0	1
427.541840	0.792262	city	9	1	0.699984	0.699984	0	1	0	0	CorrectCommission	0.527618	0.785655	0	1
428.334106	0.792268	city	8	1	0.552746	0.552746	0	1	0	0	CorrectCommission	0.603173	0.768963	0	1
429.126373	0.792259	city	5	1	0.497275	0.497275	0	1	0	0	CorrectCommission	1.029197	0.756369	0	1
429.918701	0.792374	city	9	1	0.546746	0.546746	0	1	0	0	CorrectCommission	0.649258	0.747336	0	1
430.710968	0.792156	city	1	1	0.458862	0.458862	0	1	0	0	CorrectCommission	1.324208	0.741100	0	1
431.503296	0.792484	city	8	1	0.562502	0.562502	0	1	0	0	CorrectCommission	0.528252	0.736773	1	1
432.295654	0.792264	city	1	1	0.695764	0.695764	0	1	0	0	CorrectCommission	0.495207	0.733552	1	1
433.087830	0.792048	city	8	1	0.648888	0.648888	0	1	0	0	CorrectCommission	0.135197	0.730778	1	1
433.880035	0.792373	city	9	1	0.497208	0.497208	0	1	0	0	CorrectCommission	1.029708	0.728034	1	1
434.672302	0.792158	city	4	1	0.461975	0.461975	0	1	0	0	CorrectCommission	1.300300	0.725102	1	1
435.464508	0.792297	mountain	10	1	0.497208	0.497208	0	0	1	0	CommissionError	1.029711	0.722049	1	1
436.256775	0.792245	city	6	1	0.596262	0.596262	0	1	0	0	CorrectCommission	0.268971	0.719158	1	1
437.049103	0.792357	city	9	1	0.497164	0.497164	0	1	0	0	CorrectCommission	1.030047	0.716824	1	1
437.841400	0.792266	mountain	5	0	0.000000	0.604372	1	0	0	0	CorrectOmission	0.206687	0.715439	1	1
438.633636	0.792211	city	1	1	0.695205	0.695205	0	1	0	0	CorrectCommission	0.490915	0.715382	1	1
439.425903	0.792318	city	5	1	0.546983	0.546983	0	1	0	0	CorrectCommission	0.647434	0.716906	1	1
440.218170	0.792190	city	10	1	0.497194	0.497194	0	1	0	0	CorrectCommission	1.029820	0.720155	1	1
441.010406	0.792287	city	9	1	0.695303	0.695303	0	1	0	0	CorrectCommission	0.491667	0.725149	1	1
441.802673	0.792271	city	10	1	0.510820	0.510820	0	1	0	0	CorrectCommission	0.925172	0.731858	1	1
442.594910	0.792205	city	2	1	0.497553	0.497553	0	1	0	0	CorrectCommission	1.027060	0.740234	0	1
443.387146	0.792264	city	7	1	0.695403	0.695403	0	1	0	0	CorrectCommission	0.492438	0.750258	0	1
444.179535	0.792481	city	10	1	0.662739	0.662739	0	1	0	0	CorrectCommission	0.241578	0.762015	0	1
444.971802	0.792094	city	2	1	0.747537	0.747537	0	1	0	0	CorrectCommission	0.892824	0.775652	0	1
445.763977	0.792218	city	9	1	0.799474	0.799474	0	1	0	0	CorrectCommission	1.291706	0.791345	0	1
446.556274	0.792374	city	7	1	0.549416	0.549416	0	1	0	0	CorrectCommission	0.628747	0.809222	0	1
447.348541	0.792157	city	9	1	0.497254	0.497254	0	1	0	0	CorrectCommission	1.029356	0.829286	0	1
448.140747	0.792266	city	1	1	0.497229	0.497229	0	1	0	0	CorrectCommission	1.029549	0.851232	0	1
448.933044	0.792322	city	7	1	0.645798	0.645798	0	1	0	0	CorrectCommission	0.111464	0.874401	0	1
449.725311	0.792245	city	5	1	0.596323	0.596323	0	1	0	0	CorrectCommission	0.268500	0.897693	0	1
450.517578	0.792289	city	1	1	0.546684	0.546684	0	1	0	0	CorrectCommission	0.649730	0.919621	0	1
451.309875	0.792307	city	5	1	0.943128	0.943128	0	1	0	0	CorrectCommission	2.394976	0.938409	0	1
452.102112	0.792159	city	3	1	0.564946	0.564946	0	1	0	0	CorrectCommission	0.509481	0.952181	0	1
452.894379	0.792371	mountain	6	1	0.497214	0.497214	0	0	1	0	CommissionError	1.029662	0.959411	0	1
453.686676	0.792206	city	10	1	0.497104	0.497104	0	1	0	0	CorrectCommission	1.030508	0.959107	0	1
454.478882	0.792217	city	4	1	0.449889	0.449889	0	1	0	0	CorrectCommission	1.393125	0.951135	0	1
455.271179	0.792371	city	9	1	0.412250	0.412250	0	1	0	0	CorrectCommission	1.682188	0.936387	0	1
456.063446	0.792163	city	8	1	0.504731	0.504731	0	1	0	0	CorrectCommission	0.971932	0.916778	0	1
456.855652	0.792259	city	2	1	0.497195	0.497195	0	1	0	0	CorrectCommission	1.029810	0.895137	0	1
457.647919	0.792276	city	7	1	0.794693	0.794693	0	1	0	0	CorrectCommission	1.254989	0.874719	0	1
458.440186	0.792253	city	2	1	0.596254	0.596254	0	1	0	0	CorrectCommission	0.269035	0.858815	0	1
459.232452	0.792271	city	10	1	0.560852	0.560852	0	1	0	0	CorrectCommission	0.540923	0.850216	0	1
460.024719	0.792262	city	9	1	0.645777	0.645777	0	1	0	0	CorrectCommission	0.111309	0.850650	0	1
460.816986	0.792265	city	5	1	0.599769	0.599769	0	1	0	0	CorrectCommission	0.242035	0.860474	0	1
461.609222	0.792259	city	1	1	0.596209	0.596209	0	1	0	0	CorrectCommission	0.269381	0.878551	0	1
462.401520	0.792296	mountain	2	0	0.000000	0.653384	1	0	0	0	CorrectOmission	0.169731	0.902438	0	1
463.193787	0.792235	city	3	1	0.744771	0.744771	0	1	0	0	CorrectCommission	0.871583	0.928757	0	1
463.986023	0.792264	city	6	1	0.843843	0.843843	0	1	0	0	CorrectCommission	1.632459	0.953879	0	1
464.778320	0.792331	city	9	1	0.797294	0.797294	0	1	0	0	CorrectCommission	1.274963	0.974561	0	1
465.570587	0.792202	city	4	1	1.008515	1.008515	0	1	0	0	CorrectCommission	2.897147	0.988572	0	1
466.362885	0.792371	city	9	1	0.992480	0.992480	0	1	0	0	CorrectCommission	2.773998	0.995020	0	1
467.155151	0.792160	city	3	1	0.596033	0.596033	0	1	0	0	CorrectCommission	0.270730	0.994475	0	1
467.947357	0.792260	city	10	1	0.547013	0.547013	0	1	0	0	CorrectCommission	0.647207	0.988716	0	1
468.739624	0.792282	city	2	1	0.596247	0.596247	0	1	0	0	CorrectCommission	0.269090	0.980118	0	1
469.531891	0.792273	city	1	1	0.645762	0.645762	0	1	0	0	CorrectCommission	0.111193	0.971151	0	1
470.324158	0.792245	city	4	1	0.605587	0.605587	0	1	0	0	CorrectCommission	0.197354	0.963748	0	1
471.116425	0.792262	city	5	1	0.646418	0.646418	0	1	0	0	CorrectCommission	0.116226	0.958908	0	1
471.908783	0.792480	city	6	1	1.006857	1.006857	0	1	0	0	CorrectCommission	2.884416	0.956494	0	1
472.701172	0.792266	city	9	1	0.645985	0.645985	0	1	0	0	CorrectCommission	0.112905	0.955258	0	1
473.493317	0.792048	mountain	7	0	0.000000	0.717307	1	0	0	0	CorrectOmission	0.660662	0.953359	0	1
474.285461	0.792266	city	7	1	0.893768	0.893768	0	1	0	0	CorrectCommission	2.015890	0.948593	0	1
475.077789	0.792371	mountain	3	0	0.000000	0.848314	1	0	0	0	CorrectOmission	1.666795	0.938894	0	1
475.870148	0.792373	city	3	1	0.699777	0.699777	0	1	0	0	CorrectCommission	0.526025	0.922812	0	1
476.662384	0.792053	city	10	1	0.566991	0.566991	0	1	0	0	CorrectCommission	0.493772	0.899745	0	1
477.454529	0.792259	city	3	1	0.348705	0.348705	0	1	0	0	CorrectCommission	2.170217	0.870052	0	1
478.246796	0.792268	city	9	1	0.612090	0.612090	0	1	0	0	CorrectCommission	0.147408	0.834993	0	1
479.039154	0.792479	city	1	1	0.460609	0.460609	0	1	0	0	CorrectCommission	1.310796	0.796653	0	1
479.831421	0.792052	city	4	1	0.745196	0.745196	0	1	0	0	CorrectCommission	0.874849	0.757533	0	1
480.623596	0.792263	city	9	1	0.596397	0.596397	0	1	0	0	CorrectCommission	0.267935	0.720328	1	1
481.415863	0.792262	city	7	1	0.596233	0.596233	0	1	0	0	CorrectCommission	0.269192	0.687493	1	1
482.208130	0.792273	city	3	1	0.546836	0.546836	0	1	0	0	CorrectCommission	0.648568	0.661020	1	1
483.000488	0.792476	city	7	1	0.645742	0.645742	0	1	0	0	CorrectCommission	0.111039	0.642156	1	1
483.792877	0.792264	mountain	2	0	0.000000	0.678607	1	0	0	0	CorrectOmission	0.363443	0.631311	1	1
484.585022	0.792046	city	8	1	0.645564	0.645564	0	1	0	0	CorrectCommission	0.109667	0.628068	1	1
485.377167	0.792264	city	10	1	0.546744	0.546744	0	1	0	0	CorrectCommission	0.649268	0.631262	1	1
486.169434	0.792267	city	7	1	0.897443	0.897443	0	1	0	0	CorrectCommission	2.044113	0.639111	1	1
486.961700	0.792265	mountain	9	1	0.546734	0.546734	0	0	1	0	CommissionError	0.649348	0.649348	1	1
