onset	duration	trial_type	image_type	Press	ReactionTime	ReactionTime_Interpolated	CorrectOmission	CorrectCommission	CommissionError	OmissionError	response_type	nonsmoothVarianceTimeCourse	VarianceTimeCourse	In_the_Zone	Reward_trial
8.438296	0.795797	city	3	1	1.050612	1.050612	0	1	0	0	CorrectCommission	1.770466	1.770466	0	0
9.234149	0.795909	city	6	1	0.798248	0.798248	0	1	0	0	CorrectCommission	0.383187	1.588004	0	0
10.029951	0.795695	city	5	1	0.707965	0.707965	0	1	0	0	CorrectCommission	0.113109	1.412331	0	0
10.825697	0.795798	mountain	7	1	0.649170	0.649170	0	0	1	0	CommissionError	0.436309	1.249591	0	0
11.621607	0.796020	city	8	1	0.900789	0.900789	0	1	0	0	CorrectCommission	0.946870	1.104764	0	0
12.417410	0.795587	mountain	4	0	0.000000	0.891207	1	0	0	0	CorrectOmission	0.894199	0.981270	0	0
13.213211	0.796016	city	7	1	0.797834	0.797834	0	1	0	0	CorrectCommission	0.380912	0.880827	0	0
14.009042	0.795644	mountain	3	1	0.798076	0.798076	0	0	1	0	CommissionError	0.382245	0.803457	1	0
14.804749	0.795771	city	3	1	0.648963	0.648963	0	1	0	0	CorrectCommission	0.437448	0.747630	1	0
15.600521	0.795773	mountain	9	1	0.608449	0.608449	0	0	1	0	CommissionError	0.660161	0.710596	1	0
16.396418	0.796020	city	7	1	0.649256	0.649256	0	1	0	0	CorrectCommission	0.435836	0.688790	1	0
17.192219	0.795584	city	4	1	0.655546	0.655546	0	1	0	0	CorrectCommission	0.401262	0.678300	1	0
17.987930	0.795837	city	7	1	0.648605	0.648605	0	1	0	0	CorrectCommission	0.439416	0.675316	1	0
18.783785	0.795872	city	1	1	0.797798	0.797798	0	1	0	0	CorrectCommission	0.380714	0.676595	1	0
19.579676	0.795912	city	6	1	0.499857	0.499857	0	1	0	0	CorrectCommission	1.257102	0.679828	1	0
20.375423	0.795583	city	10	1	1.046296	1.046296	0	1	0	0	CorrectCommission	1.746740	0.683870	1	0
21.171227	0.796022	city	4	1	0.947544	0.947544	0	1	0	0	CorrectCommission	1.203887	0.688827	1	0
21.967028	0.795583	city	3	1	0.797779	0.797779	0	1	0	0	CorrectCommission	0.380609	0.695934	1	0
22.762720	0.795798	city	2	1	0.897432	0.897432	0	1	0	0	CorrectCommission	0.928417	0.707194	1	0
23.558523	0.795808	mountain	1	1	0.751018	0.751018	0	0	1	0	CommissionError	0.123563	0.724855	1	0
24.354326	0.795798	city	10	1	0.698461	0.698461	0	1	0	0	CorrectCommission	0.165350	0.750884	1	0
25.150137	0.795825	city	9	1	0.748102	0.748102	0	1	0	0	CorrectCommission	0.107532	0.786393	1	0
25.945993	0.795886	city	8	1	0.650324	0.650324	0	1	0	0	CorrectCommission	0.429964	0.831237	0	0
26.741785	0.795695	city	9	1	0.797764	0.797764	0	1	0	0	CorrectCommission	0.380530	0.883817	0	0
27.537531	0.795797	city	1	1	0.797829	0.797829	0	1	0	0	CorrectCommission	0.380886	0.941130	0	0
28.333353	0.795850	city	5	1	0.506577	0.506577	0	1	0	0	CorrectCommission	1.220159	0.999072	0	0
29.129175	0.795793	city	3	1	0.399882	0.399882	0	1	0	0	CorrectCommission	1.806679	1.052956	0	0
29.924982	0.795822	city	8	1	0.449634	0.449634	0	1	0	0	CorrectCommission	1.533184	1.098187	0	0
30.720819	0.795850	city	4	1	0.400205	0.400205	0	1	0	0	CorrectCommission	1.804901	1.130926	0	0
31.516594	0.795699	city	3	1	0.399837	0.399837	0	1	0	0	CorrectCommission	1.806923	1.148596	0	0
32.312344	0.795799	city	1	1	0.399931	0.399931	0	1	0	0	CorrectCommission	1.806406	1.150256	0	0
33.108143	0.795799	city	3	1	0.959998	0.959998	0	1	0	0	CorrectCommission	1.272350	1.136717	0	0
33.903950	0.795819	city	7	1	0.956463	0.956463	0	1	0	0	CorrectCommission	1.252916	1.110420	0	0
34.699860	0.796002	city	3	1	0.904414	0.904414	0	1	0	0	CorrectCommission	0.966795	1.075051	0	0
35.495655	0.795588	city	7	1	0.946862	0.946862	0	1	0	0	CorrectCommission	1.200140	1.035025	0	0
36.291351	0.795804	city	6	1	0.908730	0.908730	0	1	0	0	CorrectCommission	0.990523	0.994862	0	0
37.087151	0.795794	city	3	1	0.856848	0.856848	0	1	0	0	CorrectCommission	0.705321	0.958601	0	0
37.883060	0.796021	mountain	2	0	0.000000	0.757788	1	0	0	0	CorrectOmission	0.160778	0.929301	0	0
38.678860	0.795582	city	2	1	0.698297	0.698297	0	1	0	0	CorrectCommission	0.166254	0.908719	0	0
39.474556	0.795806	city	9	1	0.765119	0.765119	0	1	0	0	CorrectCommission	0.201077	0.897196	0	0
40.270359	0.795800	city	8	1	0.598982	0.598982	0	1	0	0	CorrectCommission	0.712199	0.893734	0	0
41.066185	0.795856	city	3	1	0.549124	0.549124	0	1	0	0	CorrectCommission	0.986277	0.896310	0	0
41.861984	0.795744	city	9	1	0.418303	0.418303	0	1	0	0	CorrectCommission	1.705413	0.902302	0	0
42.657795	0.795876	city	3	1	0.997044	0.997044	0	1	0	0	CorrectCommission	1.475997	0.908943	0	0
43.453598	0.795727	mountain	9	0	0.000000	0.911241	1	0	0	0	CorrectOmission	1.004324	0.913769	0	0
44.249470	0.796022	city	3	1	0.599192	0.599192	0	1	0	0	CorrectCommission	0.711047	0.914936	0	0
45.045326	0.795691	city	2	1	0.499197	0.499197	0	1	0	0	CorrectCommission	1.260727	0.911422	0	0
45.841022	0.795698	city	3	1	0.996688	0.996688	0	1	0	0	CorrectCommission	1.474039	0.903042	0	0
46.636772	0.795799	city	10	1	0.853743	0.853743	0	1	0	0	CorrectCommission	0.688250	0.890371	0	0
47.432678	0.796017	city	2	1	0.748124	0.748124	0	1	0	0	CorrectCommission	0.107654	0.874603	0	0
48.228481	0.795588	city	5	1	0.650840	0.650840	0	1	0	0	CorrectCommission	0.427128	0.857333	0	0
49.024231	0.795913	city	7	1	0.549801	0.549801	0	1	0	0	CorrectCommission	0.982551	0.840338	0	0
49.820053	0.795727	city	6	1	0.449600	0.449600	0	1	0	0	CorrectCommission	1.533369	0.825392	0	0
50.615826	0.795818	city	9	1	0.996923	0.996923	0	1	0	0	CorrectCommission	1.475329	0.814091	0	0
51.411659	0.795852	city	8	1	0.849279	0.849279	0	1	0	0	CorrectCommission	0.663716	0.807679	1	0
52.207542	0.795913	city	5	1	0.764061	0.764061	0	1	0	0	CorrectCommission	0.195262	0.806869	1	0
53.003288	0.795581	city	1	1	0.747854	0.747854	0	1	0	0	CorrectCommission	0.106166	0.811693	1	0
53.799091	0.796022	city	10	1	0.748855	0.748855	0	1	0	0	CorrectCommission	0.111670	0.821440	0	0
54.594913	0.795621	city	6	1	0.605845	0.605845	0	1	0	0	CorrectCommission	0.674474	0.834695	0	0
55.390602	0.795762	city	7	1	0.598842	0.598842	0	1	0	0	CorrectCommission	0.712970	0.849494	0	0
56.186497	0.796024	city	6	1	0.500082	0.500082	0	1	0	0	CorrectCommission	1.255864	0.863584	0	0
56.982300	0.795584	city	5	1	0.413316	0.413316	0	1	0	0	CorrectCommission	1.732830	0.874722	0	0
57.777992	0.795802	city	2	1	1.046954	1.046954	0	1	0	0	CorrectCommission	1.750356	0.880998	0	0
58.573795	0.795802	city	7	1	0.906775	0.906775	0	1	0	0	CorrectCommission	0.979774	0.881093	0	0
59.369595	0.795798	city	2	1	0.698359	0.698359	0	1	0	0	CorrectCommission	0.165911	0.874429	0	0
60.165409	0.795830	city	3	1	0.599158	0.599158	0	1	0	0	CorrectCommission	0.711231	0.861164	0	0
60.961319	0.795991	city	9	1	0.449928	0.449928	0	1	0	0	CorrectCommission	1.531566	0.842064	0	0
61.757217	0.795803	city	8	1	0.962942	0.962942	0	1	0	0	CorrectCommission	1.288533	0.818324	0	0
62.552963	0.795691	city	9	1	0.816111	0.816111	0	1	0	0	CorrectCommission	0.481383	0.791330	1	0
63.348656	0.795696	city	1	1	0.797832	0.797832	0	1	0	0	CorrectCommission	0.380903	0.762409	1	0
64.144409	0.795803	city	7	1	0.798433	0.798433	0	1	0	0	CorrectCommission	0.384205	0.732627	1	0
64.940208	0.795800	city	9	1	0.652319	0.652319	0	1	0	0	CorrectCommission	0.419000	0.702684	1	0
65.736008	0.795798	city	2	1	0.598939	0.598939	0	1	0	0	CorrectCommission	0.712434	0.672893	1	0
66.531807	0.795803	mountain	5	1	0.508867	0.508867	0	0	1	0	CommissionError	1.207574	0.643211	1	0
67.327721	0.796019	city	8	1	0.603989	0.603989	0	1	0	0	CorrectCommission	0.684676	0.613391	1	0
68.123520	0.795584	city	10	1	0.612527	0.612527	0	1	0	0	CorrectCommission	0.637743	0.583153	1	1
68.919228	0.795836	mountain	1	1	0.649196	0.649196	0	0	1	0	CommissionError	0.436169	0.552331	1	1
69.715141	0.795986	city	5	1	0.648993	0.648993	0	1	0	0	CorrectCommission	0.437281	0.520998	1	1
70.510979	0.795691	city	2	1	0.599306	0.599306	0	1	0	0	CorrectCommission	0.710419	0.489507	1	1
71.306778	0.795913	city	7	1	0.599489	0.599489	0	1	0	0	CorrectCommission	0.709415	0.458508	1	1
72.102585	0.795690	city	3	1	0.699318	0.699318	0	1	0	0	CorrectCommission	0.160642	0.428898	1	1
72.898277	0.795692	city	5	1	0.797734	0.797734	0	1	0	0	CorrectCommission	0.380366	0.401742	1	1
73.694130	0.796022	mountain	5	0	0.000000	0.731165	1	0	0	0	CorrectOmission	0.014427	0.378131	1	1
74.489937	0.795586	city	2	1	0.648457	0.648457	0	1	0	0	CorrectCommission	0.440229	0.359090	1	1
75.285736	0.796018	city	6	1	0.698457	0.698457	0	1	0	0	CorrectCommission	0.165373	0.345456	1	1
76.081650	0.795801	city	1	1	0.698239	0.698239	0	1	0	0	CorrectCommission	0.166573	0.337829	1	1
76.877365	0.795641	city	7	1	0.667051	0.667051	0	1	0	0	CorrectCommission	0.338018	0.336499	1	1
77.673058	0.795744	city	2	1	0.648563	0.648563	0	1	0	0	CorrectCommission	0.439645	0.341419	1	1
78.468849	0.795835	city	4	1	0.748067	0.748067	0	1	0	0	CorrectCommission	0.107339	0.352215	1	1
79.264656	0.795772	city	9	1	0.715029	0.715029	0	1	0	0	CorrectCommission	0.074275	0.368253	1	1
80.060547	0.796016	city	2	1	0.748344	0.748344	0	1	0	0	CorrectCommission	0.108863	0.388698	1	1
80.856354	0.795591	city	9	1	0.897084	0.897084	0	1	0	0	CorrectCommission	0.926504	0.412620	1	1
81.652039	0.795793	city	8	1	0.698414	0.698414	0	1	0	0	CorrectCommission	0.165611	0.439111	1	1
82.447845	0.795811	mountain	7	0	0.000000	0.657760	1	0	0	0	CorrectOmission	0.389089	0.467438	1	1
83.243645	0.795793	city	5	1	0.649761	0.649761	0	1	0	0	CorrectCommission	0.433060	0.497088	1	1
84.039551	0.796020	city	6	1	0.549055	0.549055	0	1	0	0	CorrectCommission	0.986655	0.527819	1	1
84.835350	0.795582	city	8	1	0.565190	0.565190	0	1	0	0	CorrectCommission	0.897958	0.559697	1	1
85.631050	0.795807	city	3	1	0.648951	0.648951	0	1	0	0	CorrectCommission	0.437512	0.593031	1	1
86.426888	0.795864	city	8	1	0.650837	0.650837	0	1	0	0	CorrectCommission	0.427145	0.628239	1	1
87.222679	0.795723	mountain	2	0	0.000000	0.629007	1	0	0	0	CorrectOmission	0.547147	0.665694	1	1
88.018448	0.795814	city	5	1	0.617069	0.617069	0	1	0	0	CorrectCommission	0.612772	0.705558	1	1
88.814255	0.795799	city	1	1	0.648631	0.648631	0	1	0	0	CorrectCommission	0.439275	0.747658	1	1
89.610077	0.795842	mountain	7	0	0.000000	0.654979	1	0	0	0	CorrectOmission	0.404379	0.791454	1	1
90.405930	0.795871	city	10	1	0.617550	0.617550	0	1	0	0	CorrectCommission	0.610127	0.836034	0	1
91.201820	0.795913	city	8	1	0.517783	0.517783	0	1	0	0	CorrectCommission	1.158559	0.880255	0	1
91.997574	0.795585	city	4	1	0.505706	0.505706	0	1	0	0	CorrectCommission	1.224949	0.922870	0	1
92.793289	0.795851	city	7	1	0.449650	0.449650	0	1	0	0	CorrectCommission	1.533096	0.962755	0	1
93.589081	0.795735	city	10	1	0.996816	0.996816	0	1	0	0	CorrectCommission	1.474742	0.999022	0	1
94.384857	0.795817	mountain	5	0	0.000000	0.963254	1	0	0	0	CorrectOmission	1.290245	1.031076	0	1
95.180664	0.795800	city	10	1	0.760115	0.760115	0	1	0	0	CorrectCommission	0.173566	1.058634	0	1
95.976471	0.795807	city	2	1	0.798551	0.798551	0	1	0	0	CorrectCommission	0.384854	1.081677	0	1
96.772385	0.796014	city	5	1	0.450551	0.450551	0	1	0	0	CorrectCommission	1.528142	1.100297	0	1
97.568184	0.795588	city	6	1	0.349993	0.349993	0	1	0	0	CorrectCommission	2.080924	1.114598	0	1
98.363876	0.795801	mountain	4	1	0.399937	0.399937	0	0	1	0	CommissionError	1.806373	1.124574	0	1
99.159698	0.795837	city	4	1	0.748447	0.748447	0	1	0	0	CorrectCommission	0.109430	1.130099	0	1
99.955605	0.795981	city	3	1	0.606196	0.606196	0	1	0	0	CorrectCommission	0.672544	1.130920	0	1
100.751495	0.795800	city	10	1	0.503956	0.503956	0	1	0	0	CorrectCommission	1.234570	1.126647	0	1
101.547195	0.795599	city	4	1	0.548936	0.548936	0	1	0	0	CorrectCommission	0.987306	1.116919	0	1
102.342941	0.795897	city	10	1	0.449974	0.449974	0	1	0	0	CorrectCommission	1.531315	1.101571	0	1
103.138741	0.795695	city	2	1	0.402225	0.402225	0	1	0	0	CorrectCommission	1.793795	1.080752	0	1
103.934517	0.795866	city	3	1	0.996775	0.996775	0	1	0	0	CorrectCommission	1.474514	1.055047	0	1
104.730316	0.795733	city	7	1	0.996708	0.996708	0	1	0	0	CorrectCommission	1.474148	1.025515	0	1
105.526192	0.796020	city	8	1	0.847819	0.847819	0	1	0	0	CorrectCommission	0.655685	0.993609	0	1
106.322105	0.795802	city	2	1	0.847335	0.847335	0	1	0	0	CorrectCommission	0.653028	0.961041	0	1
107.117798	0.795584	city	7	1	0.747901	0.747901	0	1	0	0	CorrectCommission	0.106425	0.929563	0	1
107.913490	0.795803	city	9	1	0.554950	0.554950	0	1	0	0	CorrectCommission	0.954248	0.900803	0	1
108.709297	0.795798	city	5	1	0.996839	0.996839	0	1	0	0	CorrectCommission	1.474870	0.876062	0	1
109.505096	0.795805	city	8	1	0.699450	0.699450	0	1	0	0	CorrectCommission	0.159912	0.856258	0	1
110.300896	0.795798	city	6	1	0.797835	0.797835	0	1	0	0	CorrectCommission	0.380919	0.841946	0	1
111.096809	0.796020	city	4	1	0.608645	0.608645	0	1	0	0	CorrectCommission	0.659080	0.833316	0	1
111.892609	0.795583	city	8	1	0.499579	0.499579	0	1	0	0	CorrectCommission	1.258630	0.830290	0	1
112.688309	0.795815	mountain	8	1	0.400350	0.400350	0	0	1	0	CommissionError	1.804103	0.832600	0	1
113.484108	0.795788	city	10	1	0.598946	0.598946	0	1	0	0	CorrectCommission	0.712396	0.839796	0	1
114.279907	0.795805	city	2	1	0.649084	0.649084	0	1	0	0	CorrectCommission	0.436781	0.851245	0	1
115.075813	0.796018	city	9	1	0.649469	0.649469	0	1	0	0	CorrectCommission	0.434669	0.866036	0	1
115.871727	0.795801	city	2	1	0.698256	0.698256	0	1	0	0	CorrectCommission	0.166476	0.882920	0	1
116.667526	0.795802	city	6	1	0.598788	0.598788	0	1	0	0	CorrectCommission	0.713266	0.900366	0	1
117.463226	0.795589	city	1	1	0.549059	0.549059	0	1	0	0	CorrectCommission	0.986632	0.916578	0	1
118.259026	0.796015	city	6	1	0.499535	0.499535	0	1	0	0	CorrectCommission	1.258869	0.929716	0	1
119.054825	0.795584	city	7	1	0.499355	0.499355	0	1	0	0	CorrectCommission	1.259859	0.938130	0	1
119.850517	0.795798	city	3	1	0.413849	0.413849	0	1	0	0	CorrectCommission	1.729896	0.940668	0	1
120.646317	0.795807	city	6	1	1.046493	1.046493	0	1	0	0	CorrectCommission	1.747824	0.936900	0	1
121.442177	0.795908	city	5	1	0.847572	0.847572	0	1	0	0	CorrectCommission	0.654332	0.927281	0	1
122.238029	0.795800	city	6	1	0.667454	0.667454	0	1	0	0	CorrectCommission	0.335800	0.913187	0	1
123.033798	0.795736	city	4	1	0.598917	0.598917	0	1	0	0	CorrectCommission	0.712560	0.896758	0	1
123.829597	0.795869	city	10	1	0.499538	0.499538	0	1	0	0	CorrectCommission	1.258855	0.880641	0	1
124.625381	0.795691	city	4	1	0.946993	0.946993	0	1	0	0	CorrectCommission	1.200861	0.867680	0	1
125.421234	0.796022	city	7	1	0.847803	0.847803	0	1	0	0	CorrectCommission	0.655601	0.860516	0	1
126.217041	0.795582	city	4	1	0.867286	0.867286	0	1	0	0	CorrectCommission	0.762701	0.861210	0	1
127.012787	0.795910	city	10	1	0.698370	0.698370	0	1	0	0	CorrectCommission	0.165854	0.870955	0	1
127.808693	0.795913	mountain	3	1	0.705400	0.705400	0	0	1	0	CommissionError	0.127206	0.889885	0	0
128.604446	0.795582	city	1	1	0.698791	0.698791	0	1	0	0	CorrectCommission	0.163538	0.917035	0	0
129.400131	0.795805	city	2	1	0.604294	0.604294	0	1	0	0	CorrectCommission	0.682999	0.950479	0	0
130.196045	0.796018	city	5	1	0.464778	0.464778	0	1	0	0	CorrectCommission	1.449937	0.987623	0	0
130.991852	0.795586	city	10	1	0.499315	0.499315	0	1	0	0	CorrectCommission	1.260082	1.025588	0	0
131.787598	0.795909	city	7	1	0.409745	0.409745	0	1	0	0	CorrectCommission	1.752458	1.061646	0	0
132.583405	0.795698	city	2	1	0.368779	0.368779	0	1	0	0	CorrectCommission	1.977651	1.093491	0	0
133.379150	0.795797	mountain	10	1	0.350916	0.350916	0	0	1	0	CommissionError	2.075848	1.119461	0	0
134.175003	0.795907	city	7	1	0.799558	0.799558	0	1	0	0	CorrectCommission	0.390389	1.138567	0	0
134.970901	0.795912	city	10	1	0.598797	0.598797	0	1	0	0	CorrectCommission	0.713217	1.150411	0	0
135.766769	0.795801	city	3	1	0.598672	0.598672	0	1	0	0	CorrectCommission	0.713905	1.154950	0	0
136.562454	0.795584	city	4	1	0.598689	0.598689	0	1	0	0	CorrectCommission	0.713811	1.152359	0	0
137.358261	0.796019	city	2	1	0.499402	0.499402	0	1	0	0	CorrectCommission	1.259601	1.142927	0	0
138.154175	0.795801	city	1	1	0.450722	0.450722	0	1	0	0	CorrectCommission	1.527200	1.127038	0	0
138.949860	0.795588	city	7	1	0.418126	0.418126	0	1	0	0	CorrectCommission	1.706389	1.105262	0	0
139.745575	0.795830	city	1	1	0.360195	0.360195	0	1	0	0	CorrectCommission	2.024839	1.078430	0	0
140.541382	0.795773	mountain	5	1	0.449640	0.449640	0	0	1	0	CommissionError	1.533150	1.047690	0	0
141.337265	0.796016	city	2	1	0.648621	0.648621	0	1	0	0	CorrectCommission	0.439326	1.014516	0	0
142.133118	0.795692	city	9	1	0.648392	0.648392	0	1	0	0	CorrectCommission	0.440587	0.980618	0	0
142.928818	0.795696	city	3	1	0.798289	0.798289	0	1	0	0	CorrectCommission	0.383414	0.947745	0	0
143.724579	0.795828	city	8	1	0.556223	0.556223	0	1	0	0	CorrectCommission	0.947248	0.917480	0	0
144.520386	0.795773	city	6	1	0.598894	0.598894	0	1	0	0	CorrectCommission	0.712681	0.891041	0	0
145.316177	0.795824	city	10	1	0.452284	0.452284	0	1	0	0	CorrectCommission	1.518619	0.869124	0	0
146.112000	0.795808	city	3	1	0.648996	0.648996	0	1	0	0	CorrectCommission	0.437264	0.851787	0	0
146.907837	0.795880	city	10	1	0.598910	0.598910	0	1	0	0	CorrectCommission	0.712598	0.838481	0	0
147.703629	0.795695	city	8	1	0.648598	0.648598	0	1	0	0	CorrectCommission	0.439454	0.828051	0	0
148.499374	0.795811	city	7	1	0.648929	0.648929	0	1	0	0	CorrectCommission	0.437635	0.818923	0	0
149.295181	0.795791	city	10	1	0.509163	0.509163	0	1	0	0	CorrectCommission	1.205945	0.809301	1	0
150.091034	0.795910	city	3	1	0.499529	0.499529	0	1	0	0	CorrectCommission	1.258902	0.797391	1	0
150.886841	0.795712	city	5	1	0.499470	0.499470	0	1	0	0	CorrectCommission	1.259232	0.781685	1	0
151.682587	0.795784	city	7	1	0.797797	0.797797	0	1	0	0	CorrectCommission	0.380713	0.761207	1	0
152.478485	0.796019	city	3	1	0.851661	0.851661	0	1	0	0	CorrectCommission	0.676806	0.735689	1	0
153.274292	0.795584	mountain	4	0	0.000000	0.918449	1	0	0	0	CorrectOmission	1.043952	0.705648	1	0
154.069992	0.795812	city	2	1	0.947037	0.947037	0	1	0	0	CorrectCommission	1.201098	0.672430	1	0
154.865784	0.795789	mountain	8	0	0.000000	0.886295	1	0	0	0	CorrectOmission	0.867192	0.638095	1	0
155.661591	0.795804	city	10	1	0.802841	0.802841	0	1	0	0	CorrectCommission	0.408440	0.605227	1	0
156.457428	0.795890	city	8	1	0.763295	0.763295	0	1	0	0	CorrectCommission	0.191047	0.576685	1	0
157.253296	0.795820	city	9	1	0.648683	0.648683	0	1	0	0	CorrectCommission	0.438989	0.555222	1	0
158.049042	0.795693	city	5	1	0.748373	0.748373	0	1	0	0	CorrectCommission	0.109020	0.543176	1	0
158.844788	0.795802	city	3	1	0.698338	0.698338	0	1	0	0	CorrectCommission	0.166029	0.542194	1	0
159.640594	0.795804	mountain	6	0	0.000000	0.698172	1	0	0	0	CorrectOmission	0.166940	0.552959	1	0
160.436401	0.795801	city	4	1	0.748106	0.748106	0	1	0	0	CorrectCommission	0.107552	0.575082	1	0
161.232193	0.795802	mountain	10	1	0.848370	0.848370	0	0	1	0	CommissionError	0.658714	0.607094	1	0
162.028061	0.795909	city	2	1	0.848157	0.848157	0	1	0	0	CorrectCommission	0.657546	0.646553	1	0
162.823914	0.795803	city	10	1	0.858037	0.858037	0	1	0	0	CorrectCommission	0.711858	0.690290	1	0
163.619659	0.795690	city	8	1	0.798235	0.798235	0	1	0	0	CorrectCommission	0.383120	0.734732	1	0
164.415405	0.795802	city	5	1	0.897623	0.897623	0	1	0	0	CorrectCommission	0.929465	0.776253	1	0
165.211227	0.795841	city	3	1	0.956430	0.956430	0	1	0	0	CorrectCommission	1.252733	0.811500	1	0
166.007034	0.795768	mountain	7	0	0.000000	0.979510	1	0	0	0	CorrectOmission	1.379610	0.837749	0	0
166.802872	0.795905	city	4	1	0.961625	0.961625	0	1	0	0	CorrectCommission	1.281291	0.853127	0	0
167.598724	0.795805	mountain	9	1	0.897534	0.897534	0	0	1	0	CommissionError	0.928975	0.856766	0	0
168.394485	0.795734	city	3	1	0.913975	0.913975	0	1	0	0	CorrectCommission	1.019356	0.848809	0	0
169.190292	0.795867	city	7	1	0.999907	0.999907	0	1	0	0	CorrectCommission	1.491733	0.830303	0	0
169.986069	0.795691	city	2	1	0.914156	0.914156	0	1	0	0	CorrectCommission	1.020350	0.802973	1	0
170.781921	0.796021	city	1	1	0.748433	0.748433	0	1	0	0	CorrectCommission	0.109351	0.769035	1	0
171.577728	0.795586	city	6	1	0.950306	0.950306	0	1	0	0	CorrectCommission	1.219073	0.730813	1	0
172.373428	0.795817	city	7	1	0.718610	0.718610	0	1	0	0	CorrectCommission	0.054590	0.690519	1	0
173.169342	0.796001	city	1	1	0.748204	0.748204	0	1	0	0	CorrectCommission	0.108091	0.650161	1	0
173.965149	0.795606	city	8	1	0.851206	0.851206	0	1	0	0	CorrectCommission	0.674307	0.611408	1	0
174.760941	0.795997	city	7	1	0.848020	0.848020	0	1	0	0	CorrectCommission	0.656793	0.575624	1	0
175.556732	0.795586	city	6	1	0.897097	0.897097	0	1	0	0	CorrectCommission	0.926575	0.543987	1	0
176.352432	0.795802	city	7	1	0.897396	0.897396	0	1	0	0	CorrectCommission	0.928220	0.517583	1	0
177.148285	0.795907	city	1	1	0.716979	0.716979	0	1	0	0	CorrectCommission	0.063558	0.497504	1	0
177.944092	0.795695	city	10	1	0.705144	0.705144	0	1	0	0	CorrectCommission	0.128612	0.484907	1	0
178.739944	0.796018	city	3	1	0.798294	0.798294	0	1	0	0	CorrectCommission	0.383443	0.480928	1	0
179.535751	0.795586	city	4	1	0.601728	0.601728	0	1	0	0	CorrectCommission	0.697103	0.486618	1	0
180.331497	0.795907	city	6	1	0.764278	0.764278	0	1	0	0	CorrectCommission	0.196453	0.502760	1	0
181.127304	0.795722	city	9	1	0.712152	0.712152	0	1	0	0	CorrectCommission	0.090089	0.529720	1	0
181.923050	0.795771	mountain	2	0	0.000000	0.746316	1	0	0	0	CorrectOmission	0.097713	0.567296	1	0
182.718842	0.795804	city	6	1	0.797852	0.797852	0	1	0	0	CorrectCommission	0.381015	0.614615	1	0
183.514694	0.795911	city	9	1	0.797845	0.797845	0	1	0	0	CorrectCommission	0.380973	0.670113	1	0
184.310501	0.795695	city	3	1	0.797725	0.797725	0	1	0	0	CorrectCommission	0.380317	0.731667	1	0
185.106247	0.795801	city	1	1	0.797839	0.797839	0	1	0	0	CorrectCommission	0.380940	0.796697	1	0
185.902054	0.795797	mountain	10	1	1.345308	1.345308	0	0	1	0	CommissionError	3.390447	0.862370	0	0
186.697952	0.796022	city	5	1	0.798404	0.798404	0	1	0	0	CorrectCommission	0.384049	0.925715	0	0
187.493759	0.795582	city	9	1	0.797714	0.797714	0	1	0	0	CorrectCommission	0.380255	0.983994	0	1
188.289474	0.795847	city	1	1	0.598894	0.598894	0	1	0	0	CorrectCommission	0.712684	1.034671	0	1
189.085297	0.795790	city	9	1	0.499471	0.499471	0	1	0	0	CorrectCommission	1.259223	1.075563	0	1
189.881180	0.795986	city	3	1	0.449782	0.449782	0	1	0	0	CorrectCommission	1.532371	1.104966	0	1
190.676971	0.795598	city	10	1	0.997408	0.997408	0	1	0	0	CorrectCommission	1.477999	1.121750	0	1
191.472672	0.795785	city	7	1	1.047265	1.047265	0	1	0	0	CorrectCommission	1.752064	1.125413	0	1
192.268463	0.795807	city	10	1	0.997175	0.997175	0	1	0	0	CorrectCommission	1.476716	1.116143	0	1
193.064270	0.795799	city	1	1	0.949783	0.949783	0	1	0	0	CorrectCommission	1.216196	1.094838	0	1
193.860077	0.795812	city	2	1	0.898010	0.898010	0	1	0	0	CorrectCommission	0.931591	1.063073	0	1
194.655899	0.795831	city	10	1	1.008290	1.008290	0	1	0	0	CorrectCommission	1.537815	1.023040	0	1
195.451691	0.795764	city	9	1	0.909429	0.909429	0	1	0	0	CorrectCommission	0.994366	0.977377	0	1
196.247467	0.795798	city	1	1	0.712277	0.712277	0	1	0	0	CorrectCommission	0.089403	0.929027	0	1
197.043274	0.795804	city	2	1	0.499443	0.499443	0	1	0	0	CorrectCommission	1.259379	0.881044	0	1
197.839081	0.795830	mountain	2	0	0.000000	0.534161	1	0	0	0	CorrectOmission	1.068529	0.836331	0	1
198.634949	0.795879	city	5	1	0.716598	0.716598	0	1	0	0	CorrectCommission	0.065648	0.797515	1	1
199.430832	0.795914	city	6	1	0.946923	0.946923	0	1	0	0	CorrectCommission	1.200474	0.766718	1	1
200.226593	0.795581	city	10	1	0.648808	0.648808	0	1	0	0	CorrectCommission	0.438301	0.745321	1	1
201.022278	0.795802	mountain	5	0	0.000000	0.648360	1	0	0	0	CorrectOmission	0.440760	0.733932	1	1
201.818085	0.795802	city	7	1	0.710223	0.710223	0	1	0	0	CorrectCommission	0.100695	0.732253	1	1
202.613907	0.795839	city	5	1	0.599037	0.599037	0	1	0	0	CorrectCommission	0.711899	0.739138	1	1
203.409714	0.795773	city	9	1	0.703841	0.703841	0	1	0	0	CorrectCommission	0.135778	0.752629	1	1
204.205490	0.795793	city	1	1	0.859272	0.859272	0	1	0	0	CorrectCommission	0.718648	0.770313	1	1
205.001404	0.796021	city	10	1	0.847947	0.847947	0	1	0	0	CorrectCommission	0.656392	0.789516	1	1
205.797195	0.795581	city	6	1	0.996662	0.996662	0	1	0	0	CorrectCommission	1.473895	0.807660	1	1
206.592911	0.795839	city	5	1	1.011796	1.011796	0	1	0	0	CorrectCommission	1.557091	0.822528	0	1
207.388763	0.795875	city	6	1	1.003365	1.003365	0	1	0	0	CorrectCommission	1.510742	0.832515	0	1
208.184662	0.795910	city	2	1	0.897213	0.897213	0	1	0	0	CorrectCommission	0.927210	0.836701	0	1
208.980423	0.795629	city	7	1	0.797721	0.797721	0	1	0	0	CorrectCommission	0.380294	0.834822	0	1
209.776123	0.795760	mountain	4	0	0.000000	0.864180	1	0	0	0	CorrectOmission	0.745628	0.827112	0	1
210.572006	0.796017	city	9	1	0.897392	0.897392	0	1	0	0	CorrectCommission	0.928199	0.814093	0	1
211.367813	0.795590	city	6	1	0.698159	0.698159	0	1	0	0	CorrectCommission	0.167009	0.796395	1	1
212.163513	0.795798	city	2	1	0.549606	0.549606	0	1	0	0	CorrectCommission	0.983626	0.774616	1	1
212.959335	0.795864	city	3	1	0.648675	0.648675	0	1	0	0	CorrectCommission	0.439029	0.749231	1	1
213.755142	0.795739	city	1	1	0.996767	0.996767	0	1	0	0	CorrectCommission	1.474471	0.720682	1	1
214.550903	0.795801	city	4	1	0.909650	0.909650	0	1	0	0	CorrectCommission	0.995578	0.689355	1	1
215.346741	0.795859	city	2	1	0.812958	0.812958	0	1	0	0	CorrectCommission	0.464050	0.655766	1	1
216.142548	0.795747	city	3	1	0.897448	0.897448	0	1	0	0	CorrectCommission	0.928504	0.620625	1	1
216.938324	0.795808	city	6	1	0.861493	0.861493	0	1	0	0	CorrectCommission	0.730857	0.584792	1	1
217.734116	0.795793	city	9	1	0.754849	0.754849	0	1	0	0	CorrectCommission	0.144622	0.549311	1	1
218.529922	0.795819	city	2	1	0.655402	0.655402	0	1	0	0	CorrectCommission	0.402050	0.515290	1	1
219.325729	0.795785	city	5	1	0.807748	0.807748	0	1	0	0	CorrectCommission	0.435412	0.483758	1	1
220.121536	0.795838	city	1	1	0.797900	0.797900	0	1	0	0	CorrectCommission	0.381276	0.455552	1	1
220.917374	0.795821	city	6	1	0.755236	0.755236	0	1	0	0	CorrectCommission	0.146746	0.431234	1	1
221.713196	0.795852	city	7	1	0.698289	0.698289	0	1	0	0	CorrectCommission	0.166295	0.411029	1	1
222.509003	0.795762	city	3	1	0.805069	0.805069	0	1	0	0	CorrectCommission	0.420686	0.394830	1	1
223.304810	0.795842	city	5	1	0.797749	0.797749	0	1	0	0	CorrectCommission	0.380449	0.382271	1	1
224.100586	0.795693	city	2	1	0.615283	0.615283	0	1	0	0	CorrectCommission	0.622592	0.372819	1	1
224.896332	0.795806	city	8	1	0.808074	0.808074	0	1	0	0	CorrectCommission	0.437207	0.365879	1	1
225.692245	0.796014	city	1	1	0.660217	0.660217	0	1	0	0	CorrectCommission	0.375583	0.360909	1	1
226.488144	0.795805	city	5	1	0.748749	0.748749	0	1	0	0	CorrectCommission	0.111087	0.357486	1	1
227.283844	0.795585	city	9	1	0.754141	0.754141	0	1	0	0	CorrectCommission	0.140727	0.355319	1	1
228.079651	0.796016	mountain	8	0	0.000000	0.825770	1	0	0	0	CorrectOmission	0.534483	0.354274	1	1
228.875549	0.795801	city	10	1	0.861274	0.861274	0	1	0	0	CorrectCommission	0.729649	0.354351	1	1
229.671280	0.795658	city	3	1	0.758287	0.758287	0	1	0	0	CorrectCommission	0.163519	0.355601	1	1
230.466980	0.795732	city	4	1	0.748051	0.748051	0	1	0	0	CorrectCommission	0.107253	0.358172	1	1
231.262741	0.795800	city	10	1	0.649199	0.649199	0	1	0	0	CorrectCommission	0.436149	0.362229	1	1
232.058594	0.795909	city	7	1	0.699746	0.699746	0	1	0	0	CorrectCommission	0.158286	0.367997	1	1
232.854446	0.795800	city	10	1	0.809136	0.809136	0	1	0	0	CorrectCommission	0.443042	0.375810	1	1
233.650192	0.795693	mountain	4	0	0.000000	0.815033	1	0	0	0	CorrectOmission	0.475459	0.386118	1	1
234.445953	0.795807	city	3	1	0.750504	0.750504	0	1	0	0	CorrectCommission	0.120738	0.399580	1	1
235.241776	0.795855	city	4	1	0.648618	0.648618	0	1	0	0	CorrectCommission	0.439346	0.417151	1	1
236.037582	0.795745	city	7	1	0.598821	0.598821	0	1	0	0	CorrectCommission	0.713085	0.440034	1	1
236.833344	0.795800	city	6	1	0.847540	0.847540	0	1	0	0	CorrectCommission	0.654154	0.469640	1	1
237.629150	0.795800	mountain	7	0	0.000000	0.748094	1	0	0	0	CorrectOmission	0.107486	0.507463	1	1
238.425003	0.795912	city	5	1	0.599028	0.599028	0	1	0	0	CorrectCommission	0.711948	0.554876	1	1
239.220825	0.795726	city	6	1	0.698887	0.698887	0	1	0	0	CorrectCommission	0.163009	0.612810	1	1
240.016602	0.795819	city	4	1	0.748219	0.748219	0	1	0	0	CorrectCommission	0.108175	0.681506	1	1
240.812378	0.795751	city	1	1	0.698297	0.698297	0	1	0	0	CorrectCommission	0.166254	0.760246	1	1
241.608154	0.795802	city	5	1	0.620294	0.620294	0	1	0	0	CorrectCommission	0.595047	0.847180	0	1
242.403961	0.795800	city	3	1	0.797842	0.797842	0	1	0	0	CorrectCommission	0.380958	0.939303	0	1
243.199768	0.795803	city	2	1	0.399955	0.399955	0	1	0	0	CorrectCommission	1.806275	1.032578	0	1
243.995682	0.796020	mountain	7	1	0.365243	0.365243	0	0	1	0	CommissionError	1.997093	1.122157	0	1
244.791473	0.795585	city	3	1	0.801579	0.801579	0	1	0	0	CorrectCommission	0.401501	1.202841	0	1
245.587173	0.795805	city	6	1	0.897319	0.897319	0	1	0	0	CorrectCommission	0.927797	1.269564	0	1
246.382980	0.795801	mountain	9	1	1.065425	1.065425	0	0	1	0	CommissionError	1.851894	1.317874	0	1
247.178879	0.796016	city	2	1	1.195766	1.195766	0	1	0	0	CorrectCommission	2.568397	1.344465	0	0
247.974686	0.795586	city	9	0	0.000000	1.238454	0	0	0	1	OmissionError	2.803055	1.347580	0	0
248.770386	0.795830	city	6	1	1.065573	1.065573	0	1	0	0	CorrectCommission	1.852709	1.327272	0	0
249.566254	0.795878	city	1	1	0.549210	0.549210	0	1	0	0	CorrectCommission	0.985802	1.285459	0	0
250.362061	0.795749	city	4	1	0.350407	0.350407	0	1	0	0	CorrectCommission	2.078648	1.225702	0	0
251.157806	0.795747	city	5	1	0.450065	0.450065	0	1	0	0	CorrectCommission	1.530813	1.152805	0	0
251.953583	0.795799	city	6	1	0.611708	0.611708	0	1	0	0	CorrectCommission	0.642245	1.072355	0	0
252.749390	0.795827	mountain	10	0	0.000000	0.777675	1	0	0	0	CorrectOmission	0.270097	0.990091	0	0
253.545197	0.795778	city	6	1	0.866778	0.866778	0	1	0	0	CorrectCommission	0.759908	0.911344	0	0
254.341034	0.795909	city	4	1	0.797827	0.797827	0	1	0	0	CorrectCommission	0.380878	0.840556	0	0
255.136841	0.795701	city	9	1	0.748013	0.748013	0	1	0	0	CorrectCommission	0.107039	0.781038	1	0
255.932587	0.795792	city	2	1	0.666859	0.666859	0	1	0	0	CorrectCommission	0.339070	0.734808	1	0
256.728455	0.795913	city	10	1	0.648782	0.648782	0	1	0	0	CorrectCommission	0.438441	0.702680	1	0
257.524353	0.795909	city	5	1	0.897109	0.897109	0	1	0	0	CorrectCommission	0.926638	0.684455	1	0
258.320099	0.795587	city	3	1	0.897227	0.897227	0	1	0	0	CorrectCommission	0.927289	0.679171	1	0
259.115814	0.795834	city	1	1	0.602536	0.602536	0	1	0	0	CorrectCommission	0.692663	0.685414	1	0
259.911652	0.795821	city	3	1	0.856955	0.856955	0	1	0	0	CorrectCommission	0.705907	0.701552	1	0
260.707428	0.795746	city	1	1	0.764328	0.764328	0	1	0	0	CorrectCommission	0.196730	0.725878	1	0
261.503204	0.795801	city	10	1	0.847595	0.847595	0	1	0	0	CorrectCommission	0.654455	0.756732	1	0
262.299103	0.796022	city	4	1	0.847577	0.847577	0	1	0	0	CorrectCommission	0.654356	0.792514	1	0
263.094910	0.795584	city	8	1	0.752807	0.752807	0	1	0	0	CorrectCommission	0.133397	0.831674	0	0
263.890656	0.795908	city	4	1	0.951334	0.951334	0	1	0	0	CorrectCommission	1.224721	0.872681	0	0
264.686462	0.795695	city	5	1	1.011135	1.011135	0	1	0	0	CorrectCommission	1.553456	0.913955	0	0
265.482208	0.795827	city	8	1	0.947046	0.947046	0	1	0	0	CorrectCommission	1.201150	0.953854	0	0
266.278015	0.795776	mountain	8	0	0.000000	0.954591	1	0	0	0	CorrectOmission	1.242627	0.990678	0	0
267.073914	0.796018	city	1	1	0.902087	0.902087	0	1	0	0	CorrectCommission	0.954004	1.022611	0	0
267.869720	0.795585	city	7	1	0.657848	0.657848	0	1	0	0	CorrectCommission	0.388607	1.047735	0	0
268.665527	0.796021	city	3	1	0.552229	0.552229	0	1	0	0	CorrectCommission	0.969208	1.064115	0	0
269.461334	0.795580	city	6	1	0.548928	0.548928	0	1	0	0	CorrectCommission	0.987351	1.069922	0	0
270.257019	0.795826	city	10	1	0.457022	0.457022	0	1	0	0	CorrectCommission	1.492571	1.063685	0	0
271.052826	0.795784	city	1	1	0.456289	0.456289	0	1	0	0	CorrectCommission	1.496603	1.044492	0	0
271.848633	0.795835	city	5	1	0.359778	0.359778	0	1	0	0	CorrectCommission	2.027131	1.012281	0	0
272.644501	0.795873	city	7	1	0.405118	0.405118	0	1	0	0	CorrectCommission	1.777893	0.967988	0	0
273.440308	0.795735	city	2	1	0.904255	0.904255	0	1	0	0	CorrectCommission	0.965923	0.913620	0	0
274.236053	0.795763	city	3	1	0.897290	0.897290	0	1	0	0	CorrectCommission	0.927634	0.852167	0	0
275.031952	0.796017	city	7	1	0.802165	0.802165	0	1	0	0	CorrectCommission	0.404725	0.787320	1	0
275.827759	0.795598	city	10	1	0.659797	0.659797	0	1	0	0	CorrectCommission	0.377894	0.723186	1	0
276.623444	0.795787	city	3	1	0.812967	0.812967	0	1	0	0	CorrectCommission	0.464104	0.663863	1	0
277.419220	0.795800	city	2	1	0.748113	0.748113	0	1	0	0	CorrectCommission	0.107590	0.613061	1	0
278.215027	0.795800	city	1	1	0.698375	0.698375	0	1	0	0	CorrectCommission	0.165826	0.573797	1	0
279.010956	0.796022	city	2	1	0.698365	0.698365	0	1	0	0	CorrectCommission	0.165880	0.548119	1	0
279.806763	0.795635	city	1	1	0.598761	0.598761	0	1	0	0	CorrectCommission	0.713417	0.536978	1	0
280.602478	0.795753	city	10	1	0.748241	0.748241	0	1	0	0	CorrectCommission	0.108296	0.540176	1	0
281.398346	0.796016	city	6	1	0.598878	0.598878	0	1	0	0	CorrectCommission	0.712770	0.556397	1	0
282.194183	0.795643	city	2	1	0.648501	0.648501	0	1	0	0	CorrectCommission	0.439985	0.583260	1	0
282.989868	0.795748	city	4	1	0.648561	0.648561	0	1	0	0	CorrectCommission	0.439655	0.617529	1	0
283.785645	0.795793	city	2	1	0.703101	0.703101	0	1	0	0	CorrectCommission	0.139844	0.655324	1	0
284.581451	0.795840	city	4	1	0.754443	0.754443	0	1	0	0	CorrectCommission	0.142390	0.692422	1	0
285.377258	0.795773	city	9	1	0.897278	0.897278	0	1	0	0	CorrectCommission	0.927567	0.724657	1	0
286.173157	0.796011	city	8	1	0.947373	0.947373	0	1	0	0	CorrectCommission	1.202948	0.748326	1	0
286.969025	0.795692	city	4	1	0.996582	0.996582	0	1	0	0	CorrectCommission	1.473457	0.760669	1	0
287.764709	0.795697	mountain	1	0	0.000000	1.046347	1	0	0	0	CorrectOmission	1.747019	0.760221	1	0
288.560455	0.795796	mountain	10	0	0.000000	1.046609	1	0	0	0	CorrectOmission	1.748459	0.747067	1	0
289.356262	0.795803	city	7	1	0.947310	0.947310	0	1	0	0	CorrectCommission	1.202600	0.722891	1	0
290.152069	0.795800	city	1	1	0.698391	0.698391	0	1	0	0	CorrectCommission	0.165734	0.690813	1	0
290.947876	0.795835	city	9	1	0.660644	0.660644	0	1	0	0	CorrectCommission	0.373236	0.655056	1	0
291.743683	0.795774	city	5	1	0.748087	0.748087	0	1	0	0	CorrectCommission	0.107449	0.620381	1	0
292.539520	0.795907	city	3	1	0.702497	0.702497	0	1	0	0	CorrectCommission	0.143165	0.591572	1	0
293.335327	0.795724	city	8	1	0.800133	0.800133	0	1	0	0	CorrectCommission	0.393554	0.572849	1	0
294.131134	0.795878	city	4	1	0.798080	0.798080	0	1	0	0	CorrectCommission	0.382264	0.567373	1	0
294.926971	0.795803	city	1	1	0.698258	0.698258	0	1	0	0	CorrectCommission	0.166467	0.576908	1	0
295.722717	0.795697	city	10	1	0.797754	0.797754	0	1	0	0	CorrectCommission	0.380477	0.601608	1	0
296.518585	0.796014	city	6	1	0.797794	0.797794	0	1	0	0	CorrectCommission	0.380692	0.639958	1	0
297.314484	0.795802	city	4	1	0.747874	0.747874	0	1	0	0	CorrectCommission	0.106276	0.688903	1	0
298.110229	0.795653	city	10	1	0.698286	0.698286	0	1	0	0	CorrectCommission	0.166315	0.744163	1	0
298.905945	0.795774	city	5	1	0.517727	0.517727	0	1	0	0	CorrectCommission	1.158867	0.800633	1	0
299.701813	0.795978	city	10	1	0.561703	0.561703	0	1	0	0	CorrectCommission	0.917125	0.852926	0	0
300.497620	0.795636	city	4	1	0.499567	0.499567	0	1	0	0	CorrectCommission	1.258697	0.895982	0	0
301.293304	0.795751	city	3	1	0.449654	0.449654	0	1	0	0	CorrectCommission	1.533074	0.925636	0	0
302.089081	0.795803	city	9	1	0.350459	0.350459	0	1	0	0	CorrectCommission	2.078360	0.939101	0	0
302.884979	0.796018	city	3	1	0.449837	0.449837	0	1	0	0	CorrectCommission	1.532068	0.935265	0	0
303.680817	0.795644	city	10	1	0.449464	0.449464	0	1	0	0	CorrectCommission	1.534120	0.914812	0	0
304.476532	0.795753	city	6	1	0.499700	0.499700	0	1	0	0	CorrectCommission	1.257965	0.880042	0	0
305.272308	0.795789	city	3	1	0.797847	0.797847	0	1	0	0	CorrectCommission	0.380983	0.834529	0	0
306.068085	0.795799	city	6	1	0.612873	0.612873	0	1	0	0	CorrectCommission	0.635837	0.782629	1	0
306.863922	0.795866	city	7	1	0.698401	0.698401	0	1	0	0	CorrectCommission	0.165681	0.728866	1	1
307.659729	0.795741	city	3	1	0.798183	0.798183	0	1	0	0	CorrectCommission	0.382832	0.677405	1	1
308.455505	0.795801	city	2	1	0.848240	0.848240	0	1	0	0	CorrectCommission	0.658000	0.631574	1	1
309.251312	0.795802	mountain	10	0	0.000000	0.802366	1	0	0	0	CorrectOmission	0.405825	0.593588	1	1
310.047089	0.795800	city	1	1	0.717006	0.717006	0	1	0	0	CorrectCommission	0.063408	0.564444	1	1
310.842896	0.795806	city	8	1	0.648605	0.648605	0	1	0	0	CorrectCommission	0.439415	0.543978	1	1
311.638702	0.795797	city	2	1	0.698876	0.698876	0	1	0	0	CorrectCommission	0.163070	0.531064	1	1
312.434509	0.795807	city	8	1	0.698391	0.698391	0	1	0	0	CorrectCommission	0.165736	0.523979	1	1
313.230316	0.795824	city	5	1	0.613385	0.613385	0	1	0	0	CorrectCommission	0.633023	0.520751	1	1
314.026215	0.795992	city	7	1	0.500301	0.500301	0	1	0	0	CorrectCommission	1.254662	0.519488	1	1
314.822021	0.795609	city	8	1	0.458964	0.458964	0	1	0	0	CorrectCommission	1.481893	0.518670	1	1
315.617828	0.795994	city	1	1	0.797837	0.797837	0	1	0	0	CorrectCommission	0.380931	0.517290	1	1
316.413635	0.795588	city	9	1	0.648707	0.648707	0	1	0	0	CorrectCommission	0.438857	0.514864	1	1
317.209320	0.795832	city	10	1	0.698391	0.698391	0	1	0	0	CorrectCommission	0.165739	0.511306	1	1
318.005127	0.795778	city	5	1	0.762569	0.762569	0	1	0	0	CorrectCommission	0.187056	0.506755	1	1
318.800934	0.795790	mountain	10	0	0.000000	0.760480	1	0	0	0	CorrectOmission	0.175576	0.501413	1	1
319.596741	0.795866	city	4	1	0.714985	0.714985	0	1	0	0	CorrectCommission	0.074517	0.495417	1	1
320.392548	0.795742	city	8	1	0.648942	0.648942	0	1	0	0	CorrectCommission	0.437564	0.488811	1	1
321.188324	0.795799	city	3	1	0.499412	0.499412	0	1	0	0	CorrectCommission	1.259546	0.481581	1	1
321.984131	0.795802	city	1	1	0.449669	0.449669	0	1	0	0	CorrectCommission	1.532990	0.473758	1	1
322.779938	0.795803	mountain	10	1	0.748568	0.748568	0	0	1	0	CommissionError	0.110095	0.465539	1	1
323.575775	0.795865	city	2	1	0.748462	0.748462	0	1	0	0	CorrectCommission	0.109508	0.457355	1	1
324.371613	0.795843	city	10	1	0.748031	0.748031	0	1	0	0	CorrectCommission	0.107141	0.449841	1	1
325.167389	0.795694	mountain	9	0	0.000000	0.648303	1	0	0	0	CorrectOmission	0.441075	0.443795	1	1
325.963135	0.795801	city	10	1	0.599382	0.599382	0	1	0	0	CorrectCommission	0.710000	0.440045	1	1
326.758972	0.795860	city	4	1	0.751372	0.751372	0	1	0	0	CorrectCommission	0.125507	0.439339	1	1
327.554749	0.795745	city	8	1	0.665334	0.665334	0	1	0	0	CorrectCommission	0.347453	0.442221	1	1
328.350525	0.795801	city	2	1	0.617366	0.617366	0	1	0	0	CorrectCommission	0.611139	0.448883	1	1
329.146454	0.796018	city	9	1	0.698476	0.698476	0	1	0	0	CorrectCommission	0.165268	0.459114	1	1
329.942261	0.795585	city	4	1	0.763249	0.763249	0	1	0	0	CorrectCommission	0.190798	0.472326	1	1
330.738007	0.795909	city	2	1	0.797823	0.797823	0	1	0	0	CorrectCommission	0.380855	0.487553	1	1
331.533813	0.795717	city	5	1	0.802528	0.802528	0	1	0	0	CorrectCommission	0.406720	0.503598	1	1
332.329590	0.795840	city	3	1	0.915371	0.915371	0	1	0	0	CorrectCommission	1.027026	0.519195	1	1
333.125427	0.795846	city	2	1	0.797742	0.797742	0	1	0	0	CorrectCommission	0.380409	0.533228	1	1
333.921204	0.795694	city	5	1	0.897259	0.897259	0	1	0	0	CorrectCommission	0.927468	0.544863	1	1
334.716949	0.795812	city	9	1	0.897266	0.897266	0	1	0	0	CorrectCommission	0.927503	0.553723	1	1
335.512756	0.795794	mountain	7	0	0.000000	0.799709	1	0	0	0	CorrectOmission	0.391220	0.559968	1	1
336.308563	0.795798	mountain	2	0	0.000000	0.672784	1	0	0	0	CorrectOmission	0.306499	0.564338	1	1
337.104340	0.795805	mountain	1	0	0.000000	0.584688	1	0	0	0	CorrectOmission	0.790773	0.568064	1	1
337.900146	0.795799	city	9	1	0.603617	0.603617	0	1	0	0	CorrectCommission	0.686720	0.572714	1	1
338.695953	0.795804	city	8	1	0.797767	0.797767	0	1	0	0	CorrectCommission	0.380543	0.580063	1	1
339.491760	0.795805	city	9	1	0.847890	0.847890	0	1	0	0	CorrectCommission	0.656078	0.591852	1	1
340.287628	0.795905	city	6	1	0.847575	0.847575	0	1	0	0	CorrectCommission	0.654347	0.609571	1	1
341.083435	0.795741	mountain	9	0	0.000000	0.731271	1	0	0	0	CorrectOmission	0.015011	0.634240	1	1
341.879211	0.795813	city	5	1	0.660834	0.660834	0	1	0	0	CorrectCommission	0.372193	0.666279	1	1
342.675018	0.795784	city	1	1	0.798117	0.798117	0	1	0	0	CorrectCommission	0.382472	0.705429	1	1
343.470795	0.795758	city	8	1	0.848054	0.848054	0	1	0	0	CorrectCommission	0.656981	0.750774	1	1
344.266571	0.795802	city	9	0	0.000000	0.636639	0	0	0	1	OmissionError	0.505196	0.800892	1	1
345.062378	0.795802	city	6	1	0.465604	0.465604	0	1	0	0	CorrectCommission	1.445395	0.854017	0	1
345.858185	0.795804	mountain	5	0	0.000000	0.636684	1	0	0	0	CorrectOmission	0.504950	0.908278	0	1
346.653961	0.795801	city	2	1	0.897782	0.897782	0	1	0	0	CorrectCommission	0.930341	0.961996	0	1
347.449890	0.796019	city	9	1	0.996805	0.996805	0	1	0	0	CorrectCommission	1.474680	1.013796	0	1
348.245697	0.795585	city	7	1	1.245696	1.245696	0	1	0	0	CorrectCommission	2.842864	1.062726	0	1
349.041382	0.795803	mountain	8	1	0.748546	0.748546	0	0	1	0	CommissionError	0.109971	1.108208	0	1
349.837189	0.795799	city	10	1	0.914317	0.914317	0	1	0	0	CorrectCommission	1.021236	1.150000	0	1
350.632996	0.795855	city	4	1	0.807675	0.807675	0	1	0	0	CorrectCommission	0.435009	1.187868	0	1
351.428802	0.795750	city	8	1	0.997213	0.997213	0	1	0	0	CorrectCommission	1.476922	1.221466	0	1
352.224701	0.796019	city	2	1	1.000614	1.000614	0	1	0	0	CorrectCommission	1.495618	1.250125	0	1
353.020508	0.795607	city	3	1	0.797780	0.797780	0	1	0	0	CorrectCommission	0.380615	1.272869	0	1
353.816193	0.795787	city	1	1	1.056015	1.056015	0	1	0	0	CorrectCommission	1.800168	1.288448	0	1
354.612000	0.795795	city	5	1	1.146128	1.146128	0	1	0	0	CorrectCommission	2.295528	1.295430	0	1
355.407806	0.795802	city	1	1	1.096242	1.096242	0	1	0	0	CorrectCommission	2.021298	1.292524	0	1
356.203583	0.795799	city	4	1	0.897317	0.897317	0	1	0	0	CorrectCommission	0.927783	1.278873	0	1
356.999390	0.795800	city	2	1	0.797844	0.797844	0	1	0	0	CorrectCommission	0.380970	1.254242	0	1
357.795197	0.795807	city	6	1	1.046501	1.046501	0	1	0	0	CorrectCommission	1.747867	1.219232	0	1
358.591064	0.795908	city	9	1	1.006532	1.006532	0	1	0	0	CorrectCommission	1.528152	1.175347	0	1
359.386841	0.795691	city	8	1	1.214691	1.214691	0	1	0	0	CorrectCommission	2.672427	1.125005	0	1
360.182709	0.796021	city	9	0	0.000000	0.900469	0	0	0	1	OmissionError	0.945110	1.071283	0	1
360.978516	0.795582	city	8	1	0.549870	0.549870	0	1	0	0	CorrectCommission	0.982174	1.017683	0	1
361.774200	0.795820	city	4	1	0.648899	0.648899	0	1	0	0	CorrectCommission	0.437802	0.967626	0	1
362.570068	0.795894	city	5	1	0.710205	0.710205	0	1	0	0	CorrectCommission	0.100792	0.924024	0	1
363.365875	0.795708	city	7	1	0.698398	0.698398	0	1	0	0	CorrectCommission	0.165696	0.888923	0	1
364.161682	0.795895	mountain	10	0	0.000000	0.771448	1	0	0	0	CorrectOmission	0.235864	0.863233	0	1
364.957458	0.795695	city	9	1	0.859009	0.859009	0	1	0	0	CorrectCommission	0.717200	0.846704	0	1
365.753265	0.795909	mountain	3	0	0.000000	0.890739	1	0	0	0	CorrectOmission	0.891623	0.838060	0	1
366.549072	0.795694	city	3	1	0.897810	0.897810	0	1	0	0	CorrectCommission	0.930493	0.835435	0	0
367.344818	0.795800	city	10	1	0.911395	0.911395	0	1	0	0	CorrectCommission	1.005170	0.836746	0	0
368.140625	0.795803	city	6	1	1.064246	1.064246	0	1	0	0	CorrectCommission	1.845412	0.840162	0	0
368.936432	0.795799	city	4	1	0.897330	0.897330	0	1	0	0	CorrectCommission	0.927853	0.844383	0	0
369.732239	0.795868	city	6	1	0.798599	0.798599	0	1	0	0	CorrectCommission	0.385118	0.848864	0	0
370.528046	0.795735	city	5	1	0.598834	0.598834	0	1	0	0	CorrectCommission	0.713014	0.853743	0	0
371.323853	0.795869	mountain	6	1	0.301067	0.301067	0	0	1	0	CommissionError	2.349875	0.859569	0	0
372.119659	0.795733	city	2	1	0.748569	0.748569	0	1	0	0	CorrectCommission	0.110099	0.866954	0	0
372.915436	0.795808	city	5	1	0.712577	0.712577	0	1	0	0	CorrectCommission	0.087756	0.876281	0	0
373.711243	0.795798	city	8	1	0.760416	0.760416	0	1	0	0	CorrectCommission	0.175221	0.887248	0	0
374.507080	0.795910	city	6	1	0.605547	0.605547	0	1	0	0	CorrectCommission	0.676111	0.898750	0	0
375.302948	0.795801	city	10	1	0.797733	0.797733	0	1	0	0	CorrectCommission	0.380360	0.908862	0	0
376.098694	0.795697	city	1	1	0.499462	0.499462	0	1	0	0	CorrectCommission	1.259271	0.915123	0	0
376.894531	0.796016	city	7	1	0.449696	0.449696	0	1	0	0	CorrectCommission	1.532843	0.914938	0	0
377.690369	0.795648	city	9	1	0.449465	0.449465	0	1	0	0	CorrectCommission	1.534111	0.906116	0	0
378.486053	0.795735	city	6	1	1.053349	1.053349	0	1	0	0	CorrectCommission	1.785509	0.887334	0	0
379.281830	0.795807	city	10	1	1.046568	1.046568	0	1	0	0	CorrectCommission	1.748236	0.858477	0	0
380.077759	0.796015	city	4	1	0.947099	0.947099	0	1	0	0	CorrectCommission	1.201444	0.820809	0	0
380.873657	0.795803	city	6	1	0.798173	0.798173	0	1	0	0	CorrectCommission	0.382778	0.776868	1	0
381.669342	0.795583	city	10	1	0.714218	0.714218	0	1	0	0	CorrectCommission	0.078733	0.730204	1	0
382.465057	0.795802	city	1	1	0.749321	0.749321	0	1	0	0	CorrectCommission	0.114234	0.684938	1	0
383.260834	0.795805	city	6	1	0.649018	0.649018	0	1	0	0	CorrectCommission	0.437144	0.645309	1	0
384.056641	0.795806	city	9	1	0.656100	0.656100	0	1	0	0	CorrectCommission	0.398216	0.615254	1	0
384.852509	0.795901	city	10	1	0.609362	0.609362	0	1	0	0	CorrectCommission	0.655139	0.598085	1	0
385.648315	0.795705	city	5	1	0.804815	0.804815	0	1	0	0	CorrectCommission	0.419291	0.596226	1	0
386.444092	0.795857	city	1	1	0.748447	0.748447	0	1	0	0	CorrectCommission	0.109429	0.611125	1	0
387.239899	0.795735	mountain	3	0	0.000000	0.812496	1	0	0	0	CorrectOmission	0.461515	0.643208	1	0
388.035645	0.795802	city	9	1	0.849493	0.849493	0	1	0	0	CorrectCommission	0.664890	0.691862	1	0
388.831451	0.795804	city	4	1	0.711967	0.711967	0	1	0	0	CorrectCommission	0.091107	0.755519	1	0
389.627258	0.795800	city	3	1	0.652500	0.652500	0	1	0	0	CorrectCommission	0.418007	0.831842	0	0
390.423065	0.795804	city	5	1	0.599598	0.599598	0	1	0	0	CorrectCommission	0.708813	0.917798	0	0
391.218872	0.795798	city	6	1	0.748166	0.748166	0	1	0	0	CorrectCommission	0.107880	1.009873	0	0
392.014648	0.795801	city	3	1	0.300419	0.300419	0	1	0	0	CorrectCommission	2.353439	1.104282	0	0
392.810577	0.796022	city	4	1	0.399936	0.399936	0	1	0	0	CorrectCommission	1.806378	1.197099	0	0
393.606445	0.795693	city	7	1	0.449765	0.449765	0	1	0	0	CorrectCommission	1.532461	1.284517	0	0
394.402222	0.795909	city	9	1	0.499397	0.499397	0	1	0	0	CorrectCommission	1.259633	1.362922	0	0
395.197968	0.795586	city	1	1	0.450294	0.450294	0	1	0	0	CorrectCommission	1.529558	1.429007	0	0
395.993683	0.795811	city	2	1	0.499413	0.499413	0	1	0	0	CorrectCommission	1.259544	1.479838	0	0
396.789520	0.795901	city	7	1	0.399966	0.399966	0	1	0	0	CorrectCommission	1.806215	1.512978	0	0
397.585449	0.795910	city	9	1	0.351788	0.351788	0	1	0	0	CorrectCommission	2.071055	1.526575	0	0
398.381287	0.795802	city	10	1	0.399834	0.399834	0	1	0	0	CorrectCommission	1.806941	1.519574	0	0
399.176971	0.795580	city	5	1	0.399687	0.399687	0	1	0	0	CorrectCommission	1.807749	1.491891	0	0
399.972687	0.795803	city	7	1	0.350501	0.350501	0	1	0	0	CorrectCommission	2.078129	1.444572	0	0
400.768494	0.795801	city	2	1	0.350192	0.350192	0	1	0	0	CorrectCommission	2.079826	1.379885	0	0
401.564392	0.796021	city	9	1	0.399962	0.399962	0	1	0	0	CorrectCommission	1.806236	1.301327	0	0
402.360229	0.795642	city	1	1	0.400641	0.400641	0	1	0	0	CorrectCommission	1.802506	1.213460	0	0
403.155945	0.795831	city	8	1	0.798242	0.798242	0	1	0	0	CorrectCommission	0.383156	1.121612	0	0
403.951843	0.795934	city	9	1	0.608045	0.608045	0	1	0	0	CorrectCommission	0.662378	1.031489	0	0
404.747589	0.795584	mountain	1	1	0.549753	0.549753	0	0	1	0	CommissionError	0.982815	0.948634	0	0
405.543304	0.795798	city	5	1	0.698809	0.698809	0	1	0	0	CorrectCommission	0.163440	0.877988	0	0
406.339081	0.795803	city	4	1	0.769619	0.769619	0	1	0	0	CorrectCommission	0.225812	0.823512	0	0
407.134949	0.795910	city	5	1	0.705555	0.705555	0	1	0	0	CorrectCommission	0.126354	0.787879	1	0
407.930756	0.795717	city	6	1	0.698211	0.698211	0	1	0	0	CorrectCommission	0.166726	0.772362	1	0
408.726501	0.795778	city	8	1	0.809616	0.809616	0	1	0	0	CorrectCommission	0.445681	0.776911	1	0
409.522339	0.795911	city	6	1	0.854096	0.854096	0	1	0	0	CorrectCommission	0.690195	0.800254	1	0
410.318146	0.795691	city	10	1	0.897207	0.897207	0	1	0	0	CorrectCommission	0.927182	0.840191	0	0
411.113953	0.795912	mountain	9	0	0.000000	0.954077	1	0	0	0	CorrectOmission	1.239802	0.893838	0	0
411.909821	0.795800	city	9	1	0.947020	0.947020	0	1	0	0	CorrectCommission	1.201007	0.957826	0	0
412.705566	0.795695	city	1	1	0.798349	0.798349	0	1	0	0	CorrectCommission	0.383746	1.028473	0	0
413.501312	0.795816	city	4	1	0.897276	0.897276	0	1	0	0	CorrectCommission	0.927561	1.101896	0	0
414.297119	0.795806	city	2	1	0.897290	0.897290	0	1	0	0	CorrectCommission	0.927634	1.174037	0	0
415.092987	0.795891	city	10	1	1.011065	1.011065	0	1	0	0	CorrectCommission	1.553069	1.240813	0	0
415.888824	0.795801	city	7	1	0.963814	0.963814	0	1	0	0	CorrectCommission	1.293326	1.298197	0	0
416.684570	0.795698	city	8	1	1.003835	1.003835	0	1	0	0	CorrectCommission	1.513326	1.342470	0	0
417.480316	0.795799	city	5	1	1.046539	1.046539	0	1	0	0	CorrectCommission	1.748077	1.370450	0	0
418.276123	0.795803	city	6	1	1.096769	1.096769	0	1	0	0	CorrectCommission	2.024197	1.379801	0	0
419.071930	0.795808	city	5	1	1.096810	1.096810	0	1	0	0	CorrectCommission	2.024422	1.369307	0	0
419.867767	0.795901	city	10	1	1.096285	1.096285	0	1	0	0	CorrectCommission	2.021536	1.339062	0	0
420.663574	0.795694	city	8	1	1.096296	1.096296	0	1	0	0	CorrectCommission	2.021595	1.290504	0	0
421.459320	0.795801	city	5	1	0.996902	0.996902	0	1	0	0	CorrectCommission	1.475215	1.226308	0	0
422.255157	0.795855	city	8	1	0.947612	0.947612	0	1	0	0	CorrectCommission	1.204262	1.150146	0	0
423.050964	0.795747	city	2	1	0.850236	0.850236	0	1	0	0	CorrectCommission	0.668976	1.066274	0	0
423.846741	0.795808	city	7	1	0.847576	0.847576	0	1	0	0	CorrectCommission	0.654353	0.979122	0	0
424.642548	0.795800	city	9	1	0.651930	0.651930	0	1	0	0	CorrectCommission	0.421137	0.892877	0	0
425.438324	0.795800	city	10	1	0.801465	0.801465	0	1	0	0	CorrectCommission	0.400875	0.811197	1	0
426.234131	0.795799	city	4	1	0.897283	0.897283	0	1	0	0	CorrectCommission	0.927595	0.736965	1	1
427.029938	0.795801	city	7	1	0.802798	0.802798	0	1	0	0	CorrectCommission	0.408201	0.672214	1	1
427.825745	0.795807	city	9	1	0.848159	0.848159	0	1	0	0	CorrectCommission	0.657558	0.618214	1	1
428.621552	0.795797	city	8	1	0.698333	0.698333	0	1	0	0	CorrectCommission	0.166056	0.575546	1	1
429.417389	0.795911	city	6	1	0.699823	0.699823	0	1	0	0	CorrectCommission	0.157864	0.544273	1	1
430.213318	0.795912	city	4	1	0.500312	0.500312	0	1	0	0	CorrectCommission	1.254601	0.524073	1	1
431.009094	0.795692	city	2	1	0.648460	0.648460	0	1	0	0	CorrectCommission	0.440211	0.514266	1	1
431.804901	0.795912	mountain	2	0	0.000000	0.707723	1	0	0	0	CorrectOmission	0.114437	0.513943	1	1
432.600677	0.795627	mountain	1	0	0.000000	0.722678	1	0	0	0	CorrectOmission	0.032230	0.521905	1	1
433.396362	0.795760	mountain	5	0	0.000000	0.737901	1	0	0	0	CorrectOmission	0.051455	0.536674	1	1
434.192139	0.795801	city	8	1	0.797971	0.797971	0	1	0	0	CorrectCommission	0.381665	0.556496	1	1
434.988068	0.796017	city	9	1	0.947464	0.947464	0	1	0	0	CorrectCommission	1.203446	0.579393	1	1
435.783844	0.795583	city	2	1	0.764769	0.764769	0	1	0	0	CorrectCommission	0.199151	0.603241	1	1
436.579559	0.795806	city	10	1	0.813334	0.813334	0	1	0	0	CorrectCommission	0.466118	0.625967	1	1
437.375397	0.795909	city	7	1	1.096234	1.096234	0	1	0	0	CorrectCommission	2.021253	0.645637	1	1
438.171204	0.795699	mountain	1	1	0.598775	0.598775	0	0	1	0	CommissionError	0.713339	0.660609	1	1
438.966949	0.795792	city	10	1	0.748227	0.748227	0	1	0	0	CorrectCommission	0.108217	0.669727	1	1
439.762817	0.795913	city	7	1	0.757616	0.757616	0	1	0	0	CorrectCommission	0.159829	0.672326	1	1
440.558655	0.795800	city	9	1	1.050053	1.050053	0	1	0	0	CorrectCommission	1.767392	0.668284	1	1
441.354401	0.795691	city	10	0	0.000000	0.931224	0	0	0	1	OmissionError	1.114174	0.657982	1	1
442.150208	0.795914	city	1	1	0.698352	0.698352	0	1	0	0	CorrectCommission	0.165950	0.642375	1	1
442.946136	0.795909	city	5	1	0.648662	0.648662	0	1	0	0	CorrectCommission	0.439104	0.622909	1	1
443.741882	0.795584	city	8	1	0.598998	0.598998	0	1	0	0	CorrectCommission	0.712112	0.601448	1	1
444.537567	0.795801	city	4	1	0.598868	0.598868	0	1	0	0	CorrectCommission	0.712828	0.580240	1	1
445.333374	0.795800	city	2	1	0.549120	0.549120	0	1	0	0	CorrectCommission	0.986295	0.561823	1	1
446.129272	0.796023	city	9	1	0.748058	0.748058	0	1	0	0	CorrectCommission	0.107289	0.548875	1	1
446.925201	0.795801	city	6	1	0.698684	0.698684	0	1	0	0	CorrectCommission	0.164128	0.544069	1	1
447.720886	0.795584	city	4	1	0.648409	0.648409	0	1	0	0	CorrectCommission	0.440495	0.549767	1	1
448.516632	0.795909	city	1	1	0.648614	0.648614	0	1	0	0	CorrectCommission	0.439366	0.567790	1	1
449.312439	0.795691	city	2	1	0.648848	0.648848	0	1	0	0	CorrectCommission	0.438078	0.599109	1	1
450.108215	0.795868	city	5	1	0.648788	0.648788	0	1	0	0	CorrectCommission	0.438409	0.643567	1	1
450.904022	0.795735	city	6	1	0.748395	0.748395	0	1	0	0	CorrectCommission	0.109144	0.699666	1	1
451.699829	0.795911	city	7	1	0.748809	0.748809	0	1	0	0	CorrectCommission	0.111420	0.764512	1	1
452.495636	0.795694	city	3	1	0.698252	0.698252	0	1	0	0	CorrectCommission	0.166500	0.833888	0	1
453.291504	0.796019	city	1	1	0.549437	0.549437	0	1	0	0	CorrectCommission	0.984556	0.902600	0	1
454.087311	0.795585	city	8	1	0.499185	0.499185	0	1	0	0	CorrectCommission	1.260796	0.964928	0	1
454.882996	0.795801	city	4	1	0.449685	0.449685	0	1	0	0	CorrectCommission	1.532902	1.015238	0	1
455.678802	0.795839	city	7	1	0.350230	0.350230	0	1	0	0	CorrectCommission	2.079620	1.048689	0	1
456.474609	0.795763	city	2	1	0.399907	0.399907	0	1	0	0	CorrectCommission	1.806541	1.061803	0	1
457.270386	0.795801	city	10	1	0.350192	0.350192	0	1	0	0	CorrectCommission	2.079829	1.052933	0	1
458.066315	0.796021	city	3	1	1.014220	1.014220	0	1	0	0	CorrectCommission	1.570415	1.022398	0	1
458.862152	0.795692	city	6	1	0.998885	0.998885	0	1	0	0	CorrectCommission	1.486117	0.972469	0	1
459.657867	0.795694	city	3	1	0.897189	0.897189	0	1	0	0	CorrectCommission	0.927078	0.906987	0	1
460.453705	0.796019	city	1	1	0.850008	0.850008	0	1	0	0	CorrectCommission	0.667723	0.830862	0	1
461.249542	0.795636	city	2	1	0.761889	0.761889	0	1	0	0	CorrectCommission	0.183320	0.749419	1	1
462.045227	0.795747	city	4	1	0.715015	0.715015	0	1	0	0	CorrectCommission	0.074352	0.667807	1	1
462.841003	0.795807	city	6	1	0.698431	0.698431	0	1	0	0	CorrectCommission	0.165516	0.590477	1	1
463.636810	0.795797	city	9	1	0.649244	0.649244	0	1	0	0	CorrectCommission	0.435903	0.520878	1	1
464.432709	0.796022	city	10	1	0.668043	0.668043	0	1	0	0	CorrectCommission	0.332565	0.461325	1	1
465.228516	0.795600	city	4	1	0.648430	0.648430	0	1	0	0	CorrectCommission	0.440378	0.413055	1	1
466.024261	0.795894	city	3	1	0.750261	0.750261	0	1	0	0	CorrectCommission	0.119400	0.376417	1	1
466.820099	0.795753	city	7	1	0.698329	0.698329	0	1	0	0	CorrectCommission	0.166076	0.351163	1	1
467.615906	0.795851	city	9	1	0.707929	0.707929	0	1	0	0	CorrectCommission	0.113303	0.336714	1	1
468.411713	0.795762	city	3	1	0.860035	0.860035	0	1	0	0	CorrectCommission	0.722839	0.332436	1	1
469.207550	0.795949	city	5	1	0.797895	0.797895	0	1	0	0	CorrectCommission	0.381250	0.337795	1	1
470.003448	0.795803	city	10	1	0.747980	0.747980	0	1	0	0	CorrectCommission	0.106858	0.352471	1	1
470.799164	0.795634	mountain	9	1	0.747984	0.747984	0	0	1	0	CommissionError	0.106884	0.376308	1	1
471.594971	0.795968	city	3	1	0.748028	0.748028	0	1	0	0	CorrectCommission	0.107125	0.409223	1	1
472.390778	0.795692	city	8	1	0.761925	0.761925	0	1	0	0	CorrectCommission	0.183516	0.451052	1	1
473.186584	0.795911	city	10	1	0.648799	0.648799	0	1	0	0	CorrectCommission	0.438348	0.501385	1	1
473.982452	0.795804	city	4	1	0.602780	0.602780	0	1	0	0	CorrectCommission	0.691321	0.559423	1	1
474.778168	0.795640	city	7	1	0.748129	0.748129	0	1	0	0	CorrectCommission	0.107680	0.623854	1	1
475.573883	0.795765	city	6	1	0.897283	0.897283	0	1	0	0	CorrectCommission	0.927600	0.692842	1	1
476.369629	0.795779	city	2	1	0.899550	0.899550	0	1	0	0	CorrectCommission	0.940056	0.763995	1	1
477.165527	0.796019	city	4	1	0.859310	0.859310	0	1	0	0	CorrectCommission	0.718855	0.834536	0	1
477.961334	0.795583	city	2	1	0.802735	0.802735	0	1	0	0	CorrectCommission	0.407855	0.901469	0	1
478.757050	0.795806	city	5	1	0.652564	0.652564	0	1	0	0	CorrectCommission	0.417651	0.961838	0	1
479.552887	0.795907	city	9	1	0.449818	0.449818	0	1	0	0	CorrectCommission	1.532170	1.013022	0	1
480.348755	0.795802	city	4	1	0.364140	0.364140	0	1	0	0	CorrectCommission	2.003155	1.052983	0	1
481.144501	0.795697	city	1	1	0.350087	0.350087	0	1	0	0	CorrectCommission	2.080407	1.080518	0	1
481.940247	0.795799	city	10	1	0.350313	0.350313	0	1	0	0	CorrectCommission	2.079166	1.095367	0	1
482.736053	0.795799	city	8	1	0.949105	0.949105	0	1	0	0	CorrectCommission	1.212471	1.098169	0	1
483.531860	0.795803	city	2	1	0.857910	0.857910	0	1	0	0	CorrectCommission	0.711158	1.090349	0	1
484.327637	0.795800	city	4	1	0.797828	0.797828	0	1	0	0	CorrectCommission	0.380881	1.073825	0	1
485.123444	0.795802	mountain	9	0	0.000000	0.835538	1	0	0	0	CorrectOmission	0.588175	1.050778	0	1
485.919250	0.795805	city	6	1	0.897295	0.897295	0	1	0	0	CorrectCommission	0.927661	1.023431	0	1
486.715057	0.795831	city	2	1	0.909355	0.909355	0	1	0	0	CorrectCommission	0.993960	0.993960	0	1
