onset	duration	trial_type	image_type	Press	ReactionTime	ReactionTime_Interpolated	CorrectOmission	CorrectCommission	CommissionError	OmissionError	response_type	nonsmoothVarianceTimeCourse	VarianceTimeCourse	In_the_Zone	Reward_trial
8.438362	0.795914	city	5	1	0.660194	0.660194	0	1	0	0	CorrectCommission	0.438440	0.438440	1	1
9.234275	0.795911	city	4	1	0.616749	0.616749	0	1	0	0	CorrectCommission	0.782829	0.564973	1	1
10.030039	0.795618	city	8	1	0.461010	0.461010	0	1	0	0	CorrectCommission	2.017350	0.684064	1	1
10.825730	0.795765	mountain	3	1	0.549513	0.549513	0	0	1	0	CommissionError	1.315799	0.788934	0	1
11.621569	0.795911	city	8	1	0.598886	0.598886	0	1	0	0	CorrectCommission	0.924424	0.874142	0	1
12.417373	0.795696	city	7	1	0.500233	0.500233	0	1	0	0	CorrectCommission	1.706438	0.935996	0	1
13.213175	0.795908	city	3	1	0.499396	0.499396	0	1	0	0	CorrectCommission	1.713074	0.972806	0	1
14.008975	0.795694	city	1	1	0.499302	0.499302	0	1	0	0	CorrectCommission	1.713814	0.984972	0	1
14.804776	0.795907	city	3	1	0.549145	0.549145	0	1	0	0	CorrectCommission	1.318716	0.974781	0	1
15.600589	0.795718	mountain	1	0	0.000000	0.574587	1	0	0	0	CorrectOmission	1.117041	0.946097	0	1
16.396446	0.795996	city	2	1	0.599714	0.599714	0	1	0	0	CorrectCommission	0.917860	0.903855	0	1
17.192240	0.795592	city	10	1	0.648614	0.648614	0	1	0	0	CorrectCommission	0.530240	0.853513	0	1
17.987946	0.795819	mountain	10	0	0.000000	0.622848	1	0	0	0	CorrectOmission	0.734479	0.800554	0	1
18.783741	0.795774	city	2	1	0.614211	0.614211	0	1	0	0	CorrectCommission	0.802948	0.749923	0	1
19.579531	0.795802	city	9	1	0.714493	0.714493	0	1	0	0	CorrectCommission	0.008022	0.705675	1	1
20.375332	0.795802	city	2	1	0.660439	0.660439	0	1	0	0	CorrectCommission	0.436501	0.670731	1	1
21.171244	0.796020	mountain	1	0	0.000000	0.700956	1	0	0	0	CorrectOmission	0.115330	0.646713	1	1
21.967154	0.795801	city	4	1	0.758681	0.758681	0	1	0	0	CorrectCommission	0.342255	0.634033	1	1
22.762850	0.795591	city	9	1	0.756254	0.756254	0	1	0	0	CorrectCommission	0.323017	0.631994	1	1
23.558651	0.796013	city	5	1	0.649229	0.649229	0	1	0	0	CorrectCommission	0.525357	0.639071	1	1
24.354450	0.795584	city	7	1	0.601387	0.601387	0	1	0	0	CorrectCommission	0.904596	0.653182	1	1
25.150145	0.795806	city	9	1	0.549438	0.549438	0	1	0	0	CorrectCommission	1.316395	0.671937	1	1
25.945948	0.795802	city	5	1	0.598885	0.598885	0	1	0	0	CorrectCommission	0.924429	0.692870	1	1
26.741749	0.795801	city	3	1	0.797830	0.797830	0	1	0	0	CorrectCommission	0.652579	0.713631	1	1
27.537659	0.796016	city	6	1	0.698540	0.698540	0	1	0	0	CorrectCommission	0.134480	0.732056	1	1
28.333460	0.795589	city	1	1	0.649680	0.649680	0	1	0	0	CorrectCommission	0.521785	0.746303	0	1
29.129154	0.795800	city	7	1	0.610831	0.610831	0	1	0	0	CorrectCommission	0.829741	0.754894	0	1
29.924953	0.795798	city	3	1	0.598893	0.598893	0	1	0	0	CorrectCommission	0.924366	0.756816	0	1
30.720753	0.795800	city	2	1	0.553921	0.553921	0	1	0	0	CorrectCommission	1.280859	0.751659	0	1
31.516571	0.795838	city	6	1	0.549126	0.549126	0	1	0	0	CorrectCommission	1.318870	0.739709	1	1
32.312374	0.795769	city	3	1	0.648658	0.648658	0	1	0	0	CorrectCommission	0.529891	0.722025	1	1
33.108158	0.795798	mountain	10	1	0.499571	0.499571	0	0	1	0	CommissionError	1.711683	0.700472	1	1
33.904015	0.795913	city	1	1	0.660912	0.660912	0	1	0	0	CorrectCommission	0.432748	0.677517	1	1
34.699818	0.795696	city	7	1	0.752155	0.752155	0	1	0	0	CorrectCommission	0.290519	0.656110	1	1
35.495567	0.795797	city	1	1	0.748304	0.748304	0	1	0	0	CorrectCommission	0.259996	0.639261	1	1
36.291367	0.795809	city	6	1	0.698374	0.698374	0	1	0	0	CorrectCommission	0.135791	0.629707	1	1
37.087200	0.795857	city	10	1	0.648619	0.648619	0	1	0	0	CorrectCommission	0.530195	0.629549	1	1
37.882999	0.795742	city	3	1	0.698428	0.698428	0	1	0	0	CorrectCommission	0.135370	0.639906	1	1
38.678772	0.795801	city	7	1	0.648655	0.648655	0	1	0	0	CorrectCommission	0.529914	0.660766	1	1
39.474575	0.795803	city	4	1	0.659846	0.659846	0	1	0	0	CorrectCommission	0.441205	0.690899	1	1
40.270374	0.795798	city	5	1	0.598954	0.598954	0	1	0	0	CorrectCommission	0.923882	0.727941	1	1
41.066284	0.796020	city	2	1	0.648646	0.648646	0	1	0	0	CorrectCommission	0.529984	0.768654	0	1
41.862141	0.795692	city	3	1	0.649708	0.649708	0	1	0	0	CorrectCommission	0.521564	0.809313	0	1
42.657864	0.795752	city	9	1	0.652479	0.652479	0	1	0	0	CorrectCommission	0.499598	0.846150	0	1
43.453609	0.795747	city	10	1	0.549232	0.549232	0	1	0	0	CorrectCommission	1.318028	0.875850	0	1
44.249493	0.796015	city	1	1	0.499629	0.499629	0	1	0	0	CorrectCommission	1.711226	0.895992	0	1
45.045292	0.795583	city	4	1	0.499537	0.499537	0	1	0	0	CorrectCommission	1.711955	0.905419	0	1
45.841003	0.795845	city	6	1	0.449731	0.449731	0	1	0	0	CorrectCommission	2.106763	0.904363	0	1
46.636845	0.795834	city	2	1	0.549113	0.549113	0	1	0	0	CorrectCommission	1.318967	0.894366	0	1
47.432629	0.795737	city	7	1	0.698370	0.698370	0	1	0	0	CorrectCommission	0.135823	0.877996	0	1
48.228409	0.795818	city	8	1	0.797857	0.797857	0	1	0	0	CorrectCommission	0.652793	0.858367	0	1
49.024212	0.795794	city	1	1	0.698382	0.698382	0	1	0	0	CorrectCommission	0.135729	0.838544	0	1
49.820011	0.795801	city	10	1	0.750537	0.750537	0	1	0	0	CorrectCommission	0.277697	0.821091	0	1
50.615803	0.795781	city	2	1	0.698343	0.698343	0	1	0	0	CorrectCommission	0.136041	0.807608	0	1
51.411621	0.795857	city	6	1	0.618371	0.618371	0	1	0	0	CorrectCommission	0.769968	0.798588	0	1
52.207447	0.795796	mountain	10	1	0.556312	0.556312	0	0	1	0	CommissionError	1.261903	0.793399	0	1
53.003254	0.795814	city	2	1	0.618661	0.618661	0	1	0	0	CorrectCommission	0.767674	0.790503	0	1
53.799030	0.795740	mountain	4	0	0.000000	0.832284	1	0	0	0	CorrectOmission	0.925693	0.787801	0	1
54.594803	0.795805	city	4	1	0.947158	0.947158	0	1	0	0	CorrectCommission	1.836287	0.782978	0	1
55.390659	0.795908	city	10	1	0.713259	0.713259	0	1	0	0	CorrectCommission	0.017805	0.773898	0	1
56.186462	0.795698	city	6	1	0.797876	0.797876	0	1	0	0	CorrectCommission	0.652945	0.758957	0	1
56.982243	0.795862	city	7	1	0.599089	0.599089	0	1	0	0	CorrectCommission	0.922818	0.737225	1	1
57.778046	0.795745	city	6	1	0.506275	0.506275	0	1	0	0	CorrectCommission	1.658540	0.708573	1	1
58.573814	0.795793	mountain	2	0	0.000000	0.607523	1	0	0	0	CorrectOmission	0.855961	0.673674	1	1
59.369614	0.795801	city	1	1	0.754530	0.754530	0	1	0	0	CorrectCommission	0.309349	0.633941	1	1
60.165524	0.796019	mountain	10	0	0.000000	0.798996	1	0	0	0	CorrectOmission	0.661824	0.591338	1	1
60.961353	0.795645	city	4	1	0.749660	0.749660	0	1	0	0	CorrectCommission	0.270746	0.548149	1	1
61.757046	0.795741	city	5	1	0.615263	0.615263	0	1	0	0	CorrectCommission	0.794602	0.506770	1	1
62.552818	0.795799	city	2	1	0.698509	0.698509	0	1	0	0	CorrectCommission	0.134723	0.469465	1	1
63.348621	0.795806	city	7	1	0.748134	0.748134	0	1	0	0	CorrectCommission	0.258649	0.438219	1	1
64.144463	0.795880	city	10	1	0.698871	0.698871	0	1	0	0	CorrectCommission	0.131852	0.414594	1	1
64.940285	0.795768	city	1	1	0.698306	0.698306	0	1	0	0	CorrectCommission	0.136337	0.399680	1	1
65.736076	0.795815	city	6	1	0.748064	0.748064	0	1	0	0	CorrectCommission	0.258097	0.394002	1	1
66.531914	0.795850	city	3	1	0.698921	0.698921	0	1	0	0	CorrectCommission	0.131455	0.397599	1	1
67.327690	0.795701	city	8	1	0.660686	0.660686	0	1	0	0	CorrectCommission	0.434542	0.410075	1	1
68.123436	0.795791	city	7	1	0.800620	0.800620	0	1	0	0	CorrectCommission	0.674698	0.430645	1	0
68.919342	0.796021	city	1	1	0.748393	0.748393	0	1	0	0	CorrectCommission	0.260704	0.458236	1	0
69.715141	0.795585	city	10	1	0.698272	0.698272	0	1	0	0	CorrectCommission	0.136602	0.491531	1	0
70.510834	0.795800	city	2	1	0.649117	0.649117	0	1	0	0	CorrectCommission	0.526249	0.529033	1	0
71.306633	0.795806	mountain	6	0	0.000000	0.774106	1	0	0	0	CorrectOmission	0.464526	0.569099	1	0
72.102547	0.796016	city	9	1	0.848815	0.848815	0	1	0	0	CorrectCommission	1.056736	0.609996	1	0
72.898376	0.795646	city	6	1	0.648820	0.648820	0	1	0	0	CorrectCommission	0.528605	0.649964	1	0
73.694069	0.795741	mountain	8	0	0.000000	0.680404	1	0	0	0	CorrectOmission	0.278241	0.687300	1	0
74.489952	0.796018	city	2	1	0.797970	0.797970	0	1	0	0	CorrectCommission	0.653692	0.720444	1	0
75.285759	0.795601	city	4	1	0.855921	0.855921	0	1	0	0	CorrectCommission	1.113063	0.748072	0	0
76.081505	0.795894	city	6	1	0.947145	0.947145	0	1	0	0	CorrectCommission	1.836183	0.769233	0	0
76.877304	0.795695	city	2	1	0.847465	0.847465	0	1	0	0	CorrectCommission	1.046032	0.783418	0	0
77.673050	0.795800	city	8	1	0.698549	0.698549	0	1	0	0	CorrectCommission	0.134403	0.790645	0	0
78.468857	0.795808	city	5	1	0.698667	0.698667	0	1	0	0	CorrectCommission	0.133471	0.791436	0	0
79.264763	0.796012	mountain	8	0	0.000000	0.888007	1	0	0	0	CorrectOmission	1.367407	0.786798	0	0
80.060562	0.795588	city	6	1	0.996845	0.996845	0	1	0	0	CorrectCommission	2.230155	0.778148	0	0
80.856270	0.795822	city	3	1	0.755457	0.755457	0	1	0	0	CorrectCommission	0.316698	0.767228	0	0
81.652069	0.795778	city	9	1	0.699048	0.699048	0	1	0	0	CorrectCommission	0.130452	0.756033	0	0
82.447861	0.795805	city	4	1	0.648954	0.648954	0	1	0	0	CorrectCommission	0.527543	0.746567	0	0
83.243660	0.795799	city	2	1	0.748140	0.748140	0	1	0	0	CorrectCommission	0.258694	0.740708	0	0
84.039459	0.795800	city	5	1	0.859441	0.859441	0	1	0	0	CorrectCommission	1.140968	0.740139	1	0
84.835258	0.795801	city	1	1	0.800358	0.800358	0	1	0	0	CorrectCommission	0.672617	0.746164	0	0
85.631065	0.795801	city	8	1	0.798029	0.798029	0	1	0	0	CorrectCommission	0.654159	0.759643	0	0
86.426865	0.795803	city	1	1	0.659582	0.659582	0	1	0	0	CorrectCommission	0.443297	0.780898	0	0
87.222694	0.795858	city	2	1	0.549804	0.549804	0	1	0	0	CorrectCommission	1.313493	0.809631	0	0
88.018494	0.795747	city	1	1	0.648659	0.648659	0	1	0	0	CorrectCommission	0.529881	0.844849	0	0
88.814323	0.795907	mountain	9	0	0.000000	0.739599	1	0	0	0	CorrectOmission	0.190988	0.884908	0	0
89.610130	0.795699	city	9	1	0.748009	0.748009	0	1	0	0	CorrectCommission	0.257659	0.927502	0	0
90.405876	0.795799	city	4	1	0.599277	0.599277	0	1	0	0	CorrectCommission	0.921322	0.969810	0	0
91.201675	0.795802	city	6	1	0.513533	0.513533	0	1	0	0	CorrectCommission	1.601007	1.008708	0	0
91.997475	0.795800	city	3	1	0.501846	0.501846	0	1	0	0	CorrectCommission	1.693649	1.041017	0	0
92.793282	0.795804	mountain	7	1	0.449757	0.449757	0	0	1	0	CommissionError	2.106550	1.063820	0	0
93.589088	0.795815	city	3	1	0.662696	0.662696	0	1	0	0	CorrectCommission	0.418614	1.074737	0	0
94.384941	0.795894	city	6	1	0.565109	0.565109	0	1	0	0	CorrectCommission	1.192171	1.072221	0	0
95.180847	0.795912	city	4	1	0.558218	0.558218	0	1	0	0	CorrectCommission	1.246797	1.055664	0	0
95.976593	0.795583	city	2	1	0.548940	0.548940	0	1	0	0	CorrectCommission	1.320344	1.025502	0	0
96.772285	0.795801	city	6	1	0.454377	0.454377	0	1	0	0	CorrectCommission	2.069931	0.983183	0	0
97.568085	0.795805	mountain	7	1	0.549146	0.549146	0	0	1	0	CommissionError	1.318712	0.931006	0	0
98.363899	0.795813	city	3	1	0.700153	0.700153	0	1	0	0	CorrectCommission	0.121692	0.872008	0	0
99.159698	0.795797	city	8	1	0.606835	0.606835	0	1	0	0	CorrectCommission	0.861412	0.809616	0	0
99.955498	0.795793	city	4	1	0.599011	0.599011	0	1	0	0	CorrectCommission	0.923437	0.747270	0	0
100.751312	0.795835	city	6	1	0.707652	0.707652	0	1	0	0	CorrectCommission	0.062248	0.688177	1	0
101.547218	0.795987	city	7	1	0.648684	0.648684	0	1	0	0	CorrectCommission	0.529681	0.635017	1	0
102.343033	0.795629	city	6	1	0.698612	0.698612	0	1	0	0	CorrectCommission	0.133906	0.589748	1	0
103.138779	0.795865	city	9	1	0.664680	0.664680	0	1	0	0	CorrectCommission	0.402880	0.553542	1	0
103.934555	0.795697	city	3	1	0.653384	0.653384	0	1	0	0	CorrectCommission	0.492422	0.526806	1	0
104.730301	0.795797	city	9	1	0.698383	0.698383	0	1	0	0	CorrectCommission	0.135723	0.509280	1	0
105.526115	0.795829	city	3	1	0.698345	0.698345	0	1	0	0	CorrectCommission	0.136027	0.500255	1	0
106.321976	0.795884	city	8	1	0.847568	0.847568	0	1	0	0	CorrectCommission	1.046849	0.498742	1	0
107.117760	0.795693	city	4	1	0.798025	0.798025	0	1	0	0	CorrectCommission	0.654131	0.503635	1	0
107.913551	0.795885	city	5	1	0.748591	0.748591	0	1	0	0	CorrectCommission	0.262272	0.513865	1	0
108.709351	0.795720	city	9	1	0.808453	0.808453	0	1	0	0	CorrectCommission	0.736788	0.528422	1	0
109.505219	0.796018	city	10	1	0.756675	0.756675	0	1	0	0	CorrectCommission	0.326354	0.546322	1	0
110.301048	0.795629	city	6	1	0.847346	0.847346	0	1	0	0	CorrectCommission	1.045092	0.566545	1	0
111.096741	0.795756	city	5	1	0.714752	0.714752	0	1	0	0	CorrectCommission	0.005971	0.587932	1	0
111.892517	0.795804	city	2	1	0.698511	0.698511	0	1	0	0	CorrectCommission	0.134707	0.609155	1	0
112.688324	0.795801	city	5	1	0.708155	0.708155	0	1	0	0	CorrectCommission	0.058261	0.628670	1	0
113.484123	0.795798	city	6	1	0.847727	0.847727	0	1	0	0	CorrectCommission	1.048114	0.644846	1	0
114.279922	0.795801	city	10	1	0.897478	0.897478	0	1	0	0	CorrectCommission	1.442484	0.656130	1	0
115.075722	0.795804	city	9	1	0.847793	0.847793	0	1	0	0	CorrectCommission	1.048634	0.661300	1	0
115.871521	0.795799	mountain	7	0	0.000000	0.812790	1	0	0	0	CorrectOmission	0.771166	0.659726	1	0
116.667358	0.795866	city	4	1	0.807682	0.807682	0	1	0	0	CorrectCommission	0.730678	0.651467	1	0
117.463158	0.795738	city	7	1	0.847684	0.847684	0	1	0	0	CorrectCommission	1.047772	0.637378	1	0
118.259041	0.796021	city	3	1	0.797832	0.797832	0	1	0	0	CorrectCommission	0.652598	0.619061	1	0
119.054840	0.795583	city	1	1	0.815054	0.815054	0	1	0	0	CorrectCommission	0.789114	0.598692	1	0
119.850533	0.795808	city	3	1	0.748194	0.748194	0	1	0	0	CorrectCommission	0.259124	0.578716	1	0
120.646339	0.795798	city	10	1	0.748719	0.748719	0	1	0	0	CorrectCommission	0.263284	0.561563	1	0
121.442139	0.795801	city	5	1	0.752876	0.752876	0	1	0	0	CorrectCommission	0.296234	0.549303	1	0
122.237991	0.795910	city	2	1	0.748211	0.748211	0	1	0	0	CorrectCommission	0.259261	0.543394	1	0
123.033852	0.795802	city	4	1	0.698425	0.698425	0	1	0	0	CorrectCommission	0.135386	0.544517	1	0
123.829597	0.795693	city	5	1	0.757557	0.757557	0	1	0	0	CorrectCommission	0.333340	0.552528	1	0
124.625397	0.795909	mountain	1	0	0.000000	0.787737	1	0	0	0	CorrectOmission	0.572576	0.566549	1	0
125.421310	0.795910	city	3	1	0.798115	0.798115	0	1	0	0	CorrectCommission	0.654839	0.585153	1	0
126.217056	0.795588	city	8	1	0.797838	0.797838	0	1	0	0	CorrectCommission	0.652646	0.606591	1	0
127.012802	0.795905	city	2	1	0.847708	0.847708	0	1	0	0	CorrectCommission	1.047963	0.629060	1	0
127.808655	0.795804	city	5	1	0.812208	0.812208	0	1	0	0	CorrectCommission	0.766556	0.650921	1	1
128.604431	0.795746	city	9	1	0.698322	0.698322	0	1	0	0	CorrectCommission	0.136205	0.670877	1	1
129.400284	0.795966	city	3	1	0.563201	0.563201	0	1	0	0	CorrectCommission	1.207296	0.688038	1	1
130.196060	0.795585	city	9	1	0.598680	0.598680	0	1	0	0	CorrectCommission	0.926059	0.701907	1	1
130.991760	0.795803	city	4	1	0.549465	0.549465	0	1	0	0	CorrectCommission	1.316178	0.712350	1	1
131.787552	0.795798	city	2	1	0.712494	0.712494	0	1	0	0	CorrectCommission	0.023866	0.719455	1	1
132.583389	0.795870	city	3	1	0.662392	0.662392	0	1	0	0	CorrectCommission	0.421023	0.723474	1	1
133.379303	0.795954	city	8	1	0.797980	0.797980	0	1	0	0	CorrectCommission	0.653770	0.724703	1	1
134.175079	0.795586	city	3	1	0.862982	0.862982	0	1	0	0	CorrectCommission	1.169033	0.723474	1	1
134.970764	0.795800	city	1	1	0.748150	0.748150	0	1	0	0	CorrectCommission	0.258776	0.720157	1	1
135.766571	0.795798	mountain	9	0	0.000000	0.812083	1	0	0	0	CorrectOmission	0.765563	0.715286	1	1
136.562363	0.795803	city	2	1	0.897616	0.897616	0	1	0	0	CorrectCommission	1.443575	0.709523	1	1
137.358200	0.795872	city	4	1	0.847586	0.847586	0	1	0	0	CorrectCommission	1.046994	0.703771	1	1
138.154007	0.795733	city	3	1	0.648800	0.648800	0	1	0	0	CorrectCommission	0.528762	0.699175	1	1
138.949768	0.795800	city	4	1	0.649343	0.649343	0	1	0	0	CorrectCommission	0.524457	0.697019	1	1
139.745590	0.795821	city	5	1	0.657850	0.657850	0	1	0	0	CorrectCommission	0.457024	0.698574	1	1
140.541382	0.795781	city	1	1	0.648673	0.648673	0	1	0	0	CorrectCommission	0.529768	0.704919	1	1
141.337173	0.795801	city	10	1	0.748151	0.748151	0	1	0	0	CorrectCommission	0.258784	0.716776	1	1
142.132980	0.795805	city	8	1	0.709899	0.709899	0	1	0	0	CorrectCommission	0.044439	0.734411	1	1
142.928894	0.796017	city	3	1	0.897319	0.897319	0	1	0	0	CorrectCommission	1.441218	0.757557	0	1
143.724747	0.795695	city	10	1	0.807514	0.807514	0	1	0	0	CorrectCommission	0.729346	0.785416	0	1
144.520432	0.795690	city	1	1	0.749030	0.749030	0	1	0	0	CorrectCommission	0.265749	0.816802	0	1
145.316193	0.795805	city	5	1	0.865735	0.865735	0	1	0	0	CorrectCommission	1.190858	0.850262	0	1
146.112015	0.795843	mountain	7	0	0.000000	0.892920	1	0	0	0	CorrectOmission	1.406347	0.884235	0	1
146.907806	0.795757	mountain	6	1	0.847925	0.847925	0	0	1	0	CommissionError	1.049682	0.917207	0	1
147.703583	0.795806	city	2	1	0.748094	0.748094	0	1	0	0	CorrectCommission	0.258330	0.947842	0	1
148.499496	0.796015	city	4	1	0.847640	0.847640	0	1	0	0	CorrectCommission	1.047424	0.975073	0	1
149.295303	0.795590	city	3	1	0.897529	0.897529	0	1	0	0	CorrectCommission	1.442882	0.998114	0	1
150.091003	0.795798	city	5	1	0.857428	0.857428	0	1	0	0	CorrectCommission	1.125008	1.016479	0	1
150.886856	0.795907	city	9	1	0.950091	0.950091	0	1	0	0	CorrectCommission	1.859541	1.029935	0	1
151.682648	0.795694	city	5	1	0.748179	0.748179	0	1	0	0	CorrectCommission	0.259005	1.038419	0	1
152.478394	0.795804	mountain	7	0	0.000000	0.780947	1	0	0	0	CorrectOmission	0.518750	1.042051	0	1
153.274307	0.796018	city	2	1	0.897474	0.897474	0	1	0	0	CorrectCommission	1.442451	1.040960	0	1
154.070114	0.795583	city	10	1	0.946841	0.946841	0	1	0	0	CorrectCommission	1.833779	1.035271	0	1
154.865799	0.795803	city	7	1	0.898193	0.898193	0	1	0	0	CorrectCommission	1.448149	1.025099	0	1
155.661606	0.795800	city	10	1	0.748107	0.748107	0	1	0	0	CorrectCommission	0.258431	1.010552	0	1
156.457413	0.795805	city	9	1	0.698535	0.698535	0	1	0	0	CorrectCommission	0.134517	0.991755	0	1
157.253235	0.795851	city	4	1	0.553435	0.553435	0	1	0	0	CorrectCommission	1.284707	0.968869	0	1
158.049042	0.795746	city	7	1	0.499342	0.499342	0	1	0	0	CorrectCommission	1.713498	0.942157	0	1
158.844803	0.795804	city	9	1	0.517992	0.517992	0	1	0	0	CorrectCommission	1.565664	0.912113	0	1
159.640610	0.795801	city	2	1	0.649275	0.649275	0	1	0	0	CorrectCommission	0.525000	0.879491	0	1
160.436417	0.795800	city	4	1	0.797841	0.797841	0	1	0	0	CorrectCommission	0.652670	0.845292	0	1
161.232269	0.795914	city	3	1	0.848061	0.848061	0	1	0	0	CorrectCommission	1.050758	0.810785	0	1
162.028076	0.795690	city	1	1	0.847507	0.847507	0	1	0	0	CorrectCommission	1.046363	0.777483	0	1
162.823822	0.795802	city	7	1	0.718057	0.718057	0	1	0	0	CorrectCommission	0.020230	0.747110	0	1
163.619629	0.795806	city	9	1	0.760388	0.760388	0	1	0	0	CorrectCommission	0.355782	0.721542	1	1
164.415436	0.795813	city	8	1	0.660464	0.660464	0	1	0	0	CorrectCommission	0.436307	0.702830	1	1
165.211334	0.796004	city	9	1	0.847647	0.847647	0	1	0	0	CorrectCommission	1.047478	0.693150	1	1
166.007248	0.795803	city	10	1	0.648520	0.648520	0	1	0	0	CorrectCommission	0.530978	0.694763	1	1
166.802933	0.795585	city	7	1	0.601926	0.601926	0	1	0	0	CorrectCommission	0.900323	0.709922	1	1
167.598663	0.795872	city	2	1	0.606788	0.606788	0	1	0	0	CorrectCommission	0.861784	0.740644	0	1
168.394470	0.795729	city	4	1	0.698276	0.698276	0	1	0	0	CorrectCommission	0.136569	0.788395	0	1
169.190231	0.795801	city	10	1	0.648859	0.648859	0	1	0	0	CorrectCommission	0.528292	0.853755	0	1
169.986038	0.795800	city	5	1	0.649062	0.649062	0	1	0	0	CorrectCommission	0.526684	0.935963	0	1
170.781891	0.795914	city	10	1	0.663992	0.663992	0	1	0	0	CorrectCommission	0.408340	1.032612	0	1
171.577698	0.795690	city	4	1	0.668218	0.668218	0	1	0	0	CorrectCommission	0.374838	1.139500	0	1
172.373474	0.795874	city	3	1	0.704648	0.704648	0	1	0	0	CorrectCommission	0.086059	1.250716	0	1
173.169281	0.795733	city	10	1	0.598847	0.598847	0	1	0	0	CorrectCommission	0.924732	1.359049	0	1
173.965057	0.795821	city	8	1	1.053530	1.053530	0	1	0	0	CorrectCommission	2.679484	1.456595	0	1
174.760849	0.795777	city	5	1	1.109030	1.109030	0	1	0	0	CorrectCommission	3.119431	1.535589	0	1
175.556641	0.795802	city	3	1	0.958934	0.958934	0	1	0	0	CorrectCommission	1.929634	1.589361	0	1
176.352448	0.795807	city	9	1	1.058742	1.058742	0	1	0	0	CorrectCommission	2.720802	1.613158	0	1
177.148254	0.795801	city	3	1	1.113579	1.113579	0	1	0	0	CorrectCommission	3.155492	1.604691	0	1
177.944061	0.795807	city	4	1	1.146139	1.146139	0	1	0	0	CorrectCommission	3.413587	1.564406	0	1
178.739960	0.796011	city	2	0	0.000000	0.781252	0	0	0	1	OmissionError	0.521173	1.495419	0	1
179.535767	0.795584	city	10	1	0.468076	0.468076	0	1	0	0	CorrectCommission	1.961340	1.403131	0	1
180.331451	0.795799	city	7	1	0.655767	0.655767	0	1	0	0	CorrectCommission	0.473539	1.294471	0	1
181.127258	0.795807	city	4	1	0.600567	0.600567	0	1	0	0	CorrectCommission	0.911098	1.177310	0	1
181.923065	0.795807	city	7	1	0.598939	0.598939	0	1	0	0	CorrectCommission	0.924008	1.059610	0	1
182.718857	0.795794	city	8	1	0.598866	0.598866	0	1	0	0	CorrectCommission	0.924586	0.948872	0	1
183.514664	0.795805	mountain	2	0	0.000000	0.673445	1	0	0	0	CorrectOmission	0.333403	0.851609	0	1
184.310471	0.795798	city	10	1	0.748097	0.748097	0	1	0	0	CorrectCommission	0.258358	0.773044	0	1
185.106369	0.796019	city	6	1	0.748243	0.748243	0	1	0	0	CorrectCommission	0.259510	0.716905	1	1
185.902176	0.795585	mountain	4	0	0.000000	0.695839	1	0	0	0	CorrectOmission	0.155887	0.685358	1	1
186.697983	0.796018	mountain	10	0	0.000000	0.648316	1	0	0	0	CorrectOmission	0.532601	0.678986	1	1
187.493881	0.795801	city	1	1	0.663101	0.663101	0	1	0	0	CorrectCommission	0.415400	0.696808	1	0
188.289627	0.795693	city	4	1	0.797624	0.797624	0	1	0	0	CorrectCommission	0.650948	0.736358	1	0
189.085327	0.795700	city	10	1	0.698161	0.698161	0	1	0	0	CorrectCommission	0.137479	0.793788	0	0
189.881073	0.795796	city	1	1	0.698356	0.698356	0	1	0	0	CorrectCommission	0.135939	0.864086	0	0
190.676880	0.795803	city	7	1	0.748309	0.748309	0	1	0	0	CorrectCommission	0.260035	0.941358	0	0
191.472733	0.795905	city	4	1	0.802560	0.802560	0	1	0	0	CorrectCommission	0.690074	1.019222	0	0
192.268539	0.795700	city	8	1	0.946862	0.946862	0	1	0	0	CorrectCommission	1.833943	1.091359	0	0
193.064392	0.796014	city	5	1	0.954252	0.954252	0	1	0	0	CorrectCommission	1.892522	1.152053	0	0
193.860199	0.795585	city	6	1	1.145936	1.145936	0	1	0	0	CorrectCommission	3.411983	1.196710	0	0
194.655884	0.795798	mountain	1	0	0.000000	0.993482	1	0	0	0	CorrectOmission	2.203496	1.222196	0	0
195.451691	0.795804	city	10	1	0.798089	0.798089	0	1	0	0	CorrectCommission	0.654636	1.227076	0	0
196.247604	0.796019	city	6	1	0.860956	0.860956	0	1	0	0	CorrectCommission	1.152974	1.211608	0	0
197.043457	0.795690	city	10	1	0.800268	0.800268	0	1	0	0	CorrectCommission	0.671906	1.177397	0	0
197.839142	0.795695	city	5	1	0.996756	0.996756	0	1	0	0	CorrectCommission	2.229443	1.127175	0	0
198.634949	0.795908	city	6	1	0.816247	0.816247	0	1	0	0	CorrectCommission	0.798569	1.064304	0	0
199.430740	0.795692	city	7	1	0.815075	0.815075	0	1	0	0	CorrectCommission	0.789285	0.992511	0	0
200.226608	0.796022	city	6	1	0.847570	0.847570	0	1	0	0	CorrectCommission	1.046868	0.915487	0	0
201.022400	0.795584	city	9	1	0.804745	0.804745	0	1	0	0	CorrectCommission	0.707393	0.836671	0	0
201.818100	0.795797	city	1	1	0.847573	0.847573	0	1	0	0	CorrectCommission	1.046889	0.759115	0	0
202.613892	0.795805	city	8	1	0.798608	0.798608	0	1	0	0	CorrectCommission	0.658750	0.685340	1	0
203.409698	0.795803	city	1	1	0.749503	0.749503	0	1	0	0	CorrectCommission	0.269498	0.617330	1	0
204.205551	0.795908	city	2	1	0.748113	0.748113	0	1	0	0	CorrectCommission	0.258477	0.556485	1	0
205.001465	0.795917	city	6	1	0.699341	0.699341	0	1	0	0	CorrectCommission	0.128132	0.503656	1	0
205.797226	0.795581	city	1	1	0.648377	0.648377	0	1	0	0	CorrectCommission	0.532115	0.459161	1	0
206.592911	0.795801	city	3	1	0.717436	0.717436	0	1	0	0	CorrectCommission	0.015311	0.422872	1	0
207.388718	0.795831	city	1	1	0.797896	0.797896	0	1	0	0	CorrectCommission	0.653105	0.394340	1	0
208.184525	0.795770	city	7	1	0.709629	0.709629	0	1	0	0	CorrectCommission	0.046574	0.372916	1	0
208.980316	0.795802	city	3	1	0.699724	0.699724	0	1	0	0	CorrectCommission	0.125096	0.357910	1	0
209.776215	0.796019	city	1	1	0.648632	0.648632	0	1	0	0	CorrectCommission	0.530095	0.348700	1	0
210.572021	0.795583	city	5	1	0.648528	0.648528	0	1	0	0	CorrectCommission	0.530915	0.344847	1	0
211.367722	0.795814	city	2	1	0.648626	0.648626	0	1	0	0	CorrectCommission	0.530144	0.346133	1	0
212.163528	0.795793	city	1	1	0.754428	0.754428	0	1	0	0	CorrectCommission	0.308538	0.352559	1	0
212.959335	0.795814	city	9	1	0.748072	0.748072	0	1	0	0	CorrectCommission	0.258155	0.364260	1	0
213.755188	0.795896	city	6	1	0.714543	0.714543	0	1	0	0	CorrectCommission	0.007625	0.381319	1	0
214.550980	0.795696	city	5	1	0.703534	0.703534	0	1	0	0	CorrectCommission	0.094888	0.403623	1	0
215.346756	0.795861	city	8	1	0.648764	0.648764	0	1	0	0	CorrectCommission	0.529051	0.430667	1	0
216.142578	0.795776	city	3	1	0.698279	0.698279	0	1	0	0	CorrectCommission	0.136544	0.461488	1	0
216.938339	0.795762	city	10	1	0.648585	0.648585	0	1	0	0	CorrectCommission	0.530469	0.494673	1	0
217.734146	0.795839	city	8	1	0.698983	0.698983	0	1	0	0	CorrectCommission	0.130967	0.528355	1	0
218.530060	0.795983	city	10	1	0.648608	0.648608	0	1	0	0	CorrectCommission	0.530287	0.560478	1	0
219.325836	0.795582	mountain	8	0	0.000000	0.806031	1	0	0	0	CorrectOmission	0.717592	0.589008	1	0
220.121536	0.795803	city	1	1	0.947203	0.947203	0	1	0	0	CorrectCommission	1.836642	0.612204	1	0
220.917374	0.795870	city	9	1	0.848071	0.848071	0	1	0	0	CorrectCommission	1.050837	0.628856	1	0
221.713287	0.795952	city	6	1	0.748062	0.748062	0	1	0	0	CorrectCommission	0.258081	0.638504	1	0
222.509155	0.795801	city	9	1	0.698604	0.698604	0	1	0	0	CorrectCommission	0.133974	0.641462	1	0
223.304855	0.795584	city	8	1	0.548917	0.548917	0	1	0	0	CorrectCommission	1.320521	0.638770	1	0
224.100601	0.795909	city	6	1	0.599400	0.599400	0	1	0	0	CorrectCommission	0.920352	0.632020	1	0
224.896408	0.795722	city	7	1	0.598770	0.598770	0	1	0	0	CorrectCommission	0.925343	0.623176	1	0
225.692169	0.795804	mountain	9	0	0.000000	0.681914	1	0	0	0	CorrectOmission	0.266273	0.614270	1	0
226.488068	0.795988	city	4	1	0.748486	0.748486	0	1	0	0	CorrectCommission	0.261436	0.607107	1	0
227.283859	0.795584	city	7	1	0.698141	0.698141	0	1	0	0	CorrectCommission	0.137642	0.603044	1	0
228.079666	0.796021	city	6	1	0.748421	0.748421	0	1	0	0	CorrectCommission	0.260926	0.602872	1	0
228.875565	0.795800	mountain	9	0	0.000000	0.779779	1	0	0	0	CorrectOmission	0.509497	0.606769	1	0
229.671265	0.795582	city	5	1	0.747872	0.747872	0	1	0	0	CorrectCommission	0.256574	0.614419	1	0
230.466965	0.795826	city	9	1	0.608358	0.608358	0	1	0	0	CorrectCommission	0.849340	0.625185	1	0
231.262772	0.795787	mountain	8	0	0.000000	0.826075	1	0	0	0	CorrectOmission	0.876479	0.638283	1	0
232.058563	0.795800	city	3	1	0.996920	0.996920	0	1	0	0	CorrectCommission	2.230749	0.652989	1	0
232.854370	0.795795	city	7	1	0.716790	0.716790	0	1	0	0	CorrectCommission	0.010187	0.668691	1	0
233.650177	0.795826	city	4	1	0.715833	0.715833	0	1	0	0	CorrectCommission	0.002603	0.684981	1	0
234.445969	0.795777	city	6	1	0.847534	0.847534	0	1	0	0	CorrectCommission	1.046580	0.701464	1	0
235.241821	0.795912	city	9	1	0.748190	0.748190	0	1	0	0	CorrectCommission	0.259095	0.717657	1	0
236.037628	0.795704	city	1	1	0.648570	0.648570	0	1	0	0	CorrectCommission	0.530589	0.732921	1	0
236.833405	0.795848	city	2	1	0.599591	0.599591	0	1	0	0	CorrectCommission	0.918835	0.746366	0	0
237.629227	0.795788	city	8	1	0.648577	0.648577	0	1	0	0	CorrectCommission	0.530527	0.756883	0	0
238.424988	0.795757	city	1	1	0.598812	0.598812	0	1	0	0	CorrectCommission	0.925015	0.763340	0	0
239.220779	0.795829	city	3	1	0.649719	0.649719	0	1	0	0	CorrectCommission	0.521474	0.764806	0	0
240.016586	0.795775	city	7	1	0.549221	0.549221	0	1	0	0	CorrectCommission	1.318112	0.760869	0	0
240.812424	0.795910	city	2	1	0.454596	0.454596	0	1	0	0	CorrectCommission	2.068199	0.751782	0	0
241.608246	0.795714	city	5	1	0.648521	0.648521	0	1	0	0	CorrectCommission	0.530976	0.738641	1	0
242.403992	0.795779	city	8	1	0.615075	0.615075	0	1	0	0	CorrectCommission	0.796095	0.723394	1	0
243.199783	0.795805	city	7	1	0.599427	0.599427	0	1	0	0	CorrectCommission	0.920138	0.708551	1	0
243.995590	0.795802	city	5	1	0.699497	0.699497	0	1	0	0	CorrectCommission	0.126896	0.696858	1	0
244.791382	0.795800	city	7	1	0.748304	0.748304	0	1	0	0	CorrectCommission	0.259998	0.690882	1	0
245.587189	0.795799	city	8	1	0.753643	0.753643	0	1	0	0	CorrectCommission	0.302317	0.692505	1	0
246.382980	0.795804	city	6	1	0.748634	0.748634	0	1	0	0	CorrectCommission	0.262613	0.702572	1	0
247.178787	0.795801	city	3	1	0.667021	0.667021	0	1	0	0	CorrectCommission	0.384324	0.720688	1	1
247.974594	0.795803	city	2	1	0.600681	0.600681	0	1	0	0	CorrectCommission	0.910193	0.745187	0	1
248.770447	0.795908	city	9	1	0.698388	0.698388	0	1	0	0	CorrectCommission	0.135685	0.773355	0	1
249.566284	0.795752	city	6	1	0.648506	0.648506	0	1	0	0	CorrectCommission	0.531095	0.801844	0	1
250.362061	0.795806	city	3	1	0.611579	0.611579	0	1	0	0	CorrectCommission	0.823805	0.827212	0	1
251.157837	0.795745	city	2	1	0.499361	0.499361	0	1	0	0	CorrectCommission	1.713348	0.846477	0	1
251.953598	0.795799	city	4	1	0.399959	0.399959	0	1	0	0	CorrectCommission	2.501295	0.857566	0	1
252.749420	0.795833	city	10	1	0.947081	0.947081	0	1	0	0	CorrectCommission	1.835675	0.859680	0	1
253.545227	0.795769	city	8	1	0.648918	0.648918	0	1	0	0	CorrectCommission	0.527828	0.853389	0	1
254.341110	0.796018	mountain	5	0	0.000000	0.730416	1	0	0	0	CorrectOmission	0.118199	0.840473	0	1
255.136917	0.795585	city	7	1	0.847366	0.847366	0	1	0	0	CorrectCommission	1.045248	0.823527	0	1
255.932663	0.795908	city	8	1	0.655558	0.655558	0	1	0	0	CorrectCommission	0.475188	0.805468	0	1
256.728455	0.795694	city	6	1	0.698919	0.698919	0	1	0	0	CorrectCommission	0.131478	0.789120	0	1
257.524261	0.795909	city	2	1	0.648619	0.648619	0	1	0	0	CorrectCommission	0.530197	0.776724	0	1
258.320068	0.795697	city	8	1	0.651194	0.651194	0	1	0	0	CorrectCommission	0.509783	0.769652	0	1
259.115814	0.795797	city	9	1	0.655606	0.655606	0	1	0	0	CorrectCommission	0.474811	0.768359	0	1
259.911621	0.795805	city	1	1	0.555961	0.555961	0	1	0	0	CorrectCommission	1.264690	0.772404	0	1
260.707428	0.795799	city	5	1	0.599612	0.599612	0	1	0	0	CorrectCommission	0.918673	0.780605	0	1
261.503235	0.795826	city	4	1	0.603648	0.603648	0	1	0	0	CorrectCommission	0.886674	0.791360	0	1
262.299133	0.795994	city	9	1	0.598883	0.598883	0	1	0	0	CorrectCommission	0.924450	0.802864	0	1
263.095032	0.795801	city	5	1	0.648549	0.648549	0	1	0	0	CorrectCommission	0.530748	0.813390	0	1
263.890747	0.795585	city	6	1	0.649421	0.649421	0	1	0	0	CorrectCommission	0.523839	0.821527	0	1
264.686432	0.795805	city	9	1	0.598971	0.598971	0	1	0	0	CorrectCommission	0.923754	0.826356	0	1
265.482239	0.795795	city	7	1	0.549584	0.549584	0	1	0	0	CorrectCommission	1.315235	0.827540	0	1
266.278015	0.795806	city	5	1	0.549131	0.549131	0	1	0	0	CorrectCommission	1.318825	0.825391	0	1
267.073944	0.796018	city	8	1	0.598936	0.598936	0	1	0	0	CorrectCommission	0.924027	0.820800	0	1
267.869843	0.795801	city	2	1	0.648541	0.648541	0	1	0	0	CorrectCommission	0.530814	0.815108	0	1
268.665558	0.795592	mountain	1	0	0.000000	0.804762	1	0	0	0	CorrectOmission	0.707535	0.809875	0	1
269.461304	0.795901	city	7	1	0.898801	0.898801	0	1	0	0	CorrectCommission	1.452968	0.806577	0	1
270.257202	0.795912	city	9	1	0.761858	0.761858	0	1	0	0	CorrectCommission	0.367436	0.806307	0	1
271.053009	0.795692	city	3	1	0.703216	0.703216	0	1	0	0	CorrectCommission	0.097413	0.809591	0	1
271.848694	0.795698	city	10	1	0.648511	0.648511	0	1	0	0	CorrectCommission	0.531052	0.816163	0	1
272.644440	0.795795	city	8	1	0.656304	0.656304	0	1	0	0	CorrectCommission	0.469281	0.824929	0	1
273.440247	0.795805	city	4	1	0.648730	0.648730	0	1	0	0	CorrectCommission	0.529315	0.834168	0	1
274.236053	0.795798	city	3	1	0.598935	0.598935	0	1	0	0	CorrectCommission	0.924038	0.841845	0	1
275.031952	0.796022	city	1	1	0.549174	0.549174	0	1	0	0	CorrectCommission	1.318484	0.846020	0	1
275.827759	0.795589	city	3	1	0.551550	0.551550	0	1	0	0	CorrectCommission	1.299652	0.845313	0	1
276.623474	0.795829	city	5	1	0.455168	0.455168	0	1	0	0	CorrectCommission	2.063664	0.839351	0	1
277.419281	0.795768	city	9	1	0.551581	0.551581	0	1	0	0	CorrectCommission	1.299407	0.828991	0	1
278.215057	0.795805	city	1	1	0.599000	0.599000	0	1	0	0	CorrectCommission	0.923520	0.816417	0	1
279.010895	0.795858	city	3	1	0.698677	0.698677	0	1	0	0	CorrectCommission	0.133389	0.804956	0	1
279.806793	0.795962	city	10	1	0.648584	0.648584	0	1	0	0	CorrectCommission	0.530471	0.798700	0	1
280.602570	0.795586	city	4	1	0.698158	0.698158	0	1	0	0	CorrectCommission	0.137504	0.801968	0	1
281.398254	0.795807	city	7	1	0.648751	0.648751	0	1	0	0	CorrectCommission	0.529149	0.818769	0	1
282.194061	0.795791	city	2	1	0.698346	0.698346	0	1	0	0	CorrectCommission	0.136016	0.852191	0	1
282.989868	0.795802	city	9	1	0.797877	0.797877	0	1	0	0	CorrectCommission	0.652959	0.903983	0	1
283.785675	0.795801	city	5	1	0.853064	0.853064	0	1	0	0	CorrectCommission	1.090417	0.974176	0	1
284.581451	0.795802	city	8	1	0.847715	0.847715	0	1	0	0	CorrectCommission	1.048018	1.060937	0	1
285.377258	0.795802	city	9	1	0.709090	0.709090	0	1	0	0	CorrectCommission	0.050853	1.160628	0	1
286.173065	0.795804	city	4	1	0.648782	0.648782	0	1	0	0	CorrectCommission	0.528907	1.268050	0	1
286.968872	0.795803	city	9	1	0.554118	0.554118	0	1	0	0	CorrectCommission	1.279298	1.376785	0	1
287.764679	0.795800	city	2	1	0.499772	0.499772	0	1	0	0	CorrectCommission	1.710094	1.479861	0	1
288.560486	0.795800	city	10	1	0.461264	0.461264	0	1	0	0	CorrectCommission	2.015343	1.570481	0	1
289.356262	0.795800	city	9	1	0.350207	0.350207	0	1	0	0	CorrectCommission	2.895677	1.642695	0	1
290.152130	0.795913	city	2	1	0.317982	0.317982	0	1	0	0	CorrectCommission	3.151117	1.692059	0	1
290.947937	0.795714	city	10	1	0.449701	0.449701	0	1	0	0	CorrectCommission	2.107000	1.716105	0	1
291.743683	0.795778	city	5	1	0.412270	0.412270	0	1	0	0	CorrectCommission	2.403705	1.714540	0	1
292.539520	0.795913	city	10	1	0.400079	0.400079	0	1	0	0	CorrectCommission	2.500345	1.689116	0	1
293.335358	0.795751	city	5	1	0.549049	0.549049	0	1	0	0	CorrectCommission	1.319479	1.643297	0	1
294.131165	0.795851	city	2	1	0.499373	0.499373	0	1	0	0	CorrectCommission	1.713255	1.581707	0	1
294.926941	0.795725	city	1	1	0.556019	0.556019	0	1	0	0	CorrectCommission	1.264228	1.509436	0	1
295.722717	0.795770	city	9	1	0.601702	0.601702	0	1	0	0	CorrectCommission	0.902099	1.431434	0	1
296.518494	0.795811	city	7	1	0.549134	0.549134	0	1	0	0	CorrectCommission	1.318801	1.351966	0	1
297.314301	0.795793	city	6	1	0.648727	0.648727	0	1	0	0	CorrectCommission	0.529339	1.274238	0	1
298.110107	0.795804	city	10	1	0.568070	0.568070	0	1	0	0	CorrectCommission	1.168700	1.200337	0	1
298.905914	0.795842	city	2	1	0.552640	0.552640	0	1	0	0	CorrectCommission	1.291014	1.131238	0	1
299.701813	0.795976	city	7	1	0.653312	0.653312	0	1	0	0	CorrectCommission	0.492996	1.067118	0	1
300.497711	0.795806	mountain	5	0	0.000000	0.874799	1	0	0	0	CorrectOmission	1.262704	1.007673	0	1
301.293396	0.795583	city	7	1	0.996543	0.996543	0	1	0	0	CorrectCommission	2.227760	0.952437	0	1
302.089203	0.796015	city	5	1	0.797990	0.797990	0	1	0	0	CorrectCommission	0.653849	0.901077	0	1
302.885040	0.795639	city	9	1	0.698222	0.698222	0	1	0	0	CorrectCommission	0.136997	0.853621	0	1
303.680847	0.795965	city	2	1	0.550566	0.550566	0	1	0	0	CorrectCommission	1.307455	0.810392	0	1
304.476624	0.795583	city	1	1	0.649541	0.649541	0	1	0	0	CorrectCommission	0.522886	0.771904	0	1
305.272369	0.795909	city	7	1	0.661687	0.661687	0	1	0	0	CorrectCommission	0.426609	0.738733	1	1
306.068207	0.795803	city	10	1	0.648520	0.648520	0	1	0	0	CorrectCommission	0.530984	0.711270	1	1
306.864075	0.795911	city	9	1	0.708243	0.708243	0	1	0	0	CorrectCommission	0.057560	0.689540	1	0
307.659821	0.795586	mountain	4	0	0.000000	0.794245	1	0	0	0	CorrectOmission	0.624164	0.673138	1	0
308.455566	0.795907	city	10	1	0.797831	0.797831	0	1	0	0	CorrectCommission	0.652589	0.661197	1	0
309.251373	0.795694	city	8	1	0.610308	0.610308	0	1	0	0	CorrectCommission	0.833885	0.652509	1	0
310.047119	0.795801	city	6	1	0.603581	0.603581	0	1	0	0	CorrectCommission	0.887207	0.645677	1	0
310.842926	0.795838	city	2	1	0.603880	0.603880	0	1	0	0	CorrectCommission	0.884836	0.639321	1	0
311.638733	0.795765	city	6	1	0.660236	0.660236	0	1	0	0	CorrectCommission	0.438110	0.632268	1	0
312.434509	0.795803	city	9	1	0.665357	0.665357	0	1	0	0	CorrectCommission	0.397517	0.623737	1	0
313.230347	0.795872	city	3	1	0.600509	0.600509	0	1	0	0	CorrectCommission	0.911560	0.613392	1	0
314.026276	0.795949	city	9	1	0.608439	0.608439	0	1	0	0	CorrectCommission	0.848697	0.601377	1	0
314.822021	0.795582	city	4	1	0.598648	0.598648	0	1	0	0	CorrectCommission	0.926309	0.588306	1	0
315.617737	0.795804	city	9	1	0.748711	0.748711	0	1	0	0	CorrectCommission	0.263224	0.575111	1	0
316.413635	0.796019	city	7	1	0.648647	0.648647	0	1	0	0	CorrectCommission	0.529972	0.562902	1	0
317.209503	0.795692	mountain	6	0	0.000000	0.654479	1	0	0	0	CorrectOmission	0.483744	0.552768	1	0
318.005280	0.795911	mountain	10	0	0.000000	0.695430	1	0	0	0	CorrectOmission	0.159134	0.545618	1	0
318.801147	0.795802	city	4	1	0.700722	0.700722	0	1	0	0	CorrectCommission	0.117181	0.542014	1	0
319.596832	0.795585	city	3	1	0.599580	0.599580	0	1	0	0	CorrectCommission	0.918924	0.542111	1	0
320.392548	0.795800	city	2	1	0.654209	0.654209	0	1	0	0	CorrectCommission	0.485882	0.545609	1	0
321.188324	0.795801	mountain	7	1	0.649663	0.649663	0	0	1	0	CommissionError	0.521917	0.551833	1	0
321.984131	0.795801	city	7	1	0.754709	0.754709	0	1	0	0	CorrectCommission	0.310769	0.559822	1	0
322.779999	0.795914	city	3	1	0.615102	0.615102	0	1	0	0	CorrectCommission	0.795883	0.568471	1	0
323.575897	0.795910	mountain	9	0	0.000000	0.669597	1	0	0	0	CorrectOmission	0.363907	0.576674	1	0
324.371765	0.795802	mountain	8	0	0.000000	0.793219	1	0	0	0	CorrectOmission	0.616035	0.583522	1	0
325.167511	0.795692	city	3	1	0.860994	0.860994	0	1	0	0	CorrectCommission	1.153279	0.588374	1	0
325.963196	0.795693	city	9	1	0.747947	0.747947	0	1	0	0	CorrectCommission	0.257164	0.590946	1	0
326.758942	0.795803	mountain	7	0	0.000000	0.834179	1	0	0	0	CorrectOmission	0.940714	0.591361	1	0
327.554749	0.795798	city	8	1	0.897811	0.897811	0	1	0	0	CorrectCommission	1.445119	0.589994	1	0
328.350616	0.795912	city	5	1	0.716964	0.716964	0	1	0	0	CorrectCommission	0.011566	0.587407	1	0
329.146454	0.795774	city	4	1	0.749803	0.749803	0	1	0	0	CorrectCommission	0.271876	0.584223	1	0
329.942291	0.795936	city	10	1	0.698334	0.698334	0	1	0	0	CorrectCommission	0.136110	0.580878	1	0
330.738068	0.795588	city	3	1	0.797643	0.797643	0	1	0	0	CorrectCommission	0.651100	0.577592	1	0
331.533752	0.795801	city	9	1	0.752241	0.752241	0	1	0	0	CorrectCommission	0.291205	0.574324	1	0
332.329559	0.795803	city	10	1	0.648646	0.648646	0	1	0	0	CorrectCommission	0.529981	0.570860	1	0
333.125458	0.796015	city	6	1	0.848703	0.848703	0	1	0	0	CorrectCommission	1.055849	0.566937	1	0
333.921265	0.795584	city	9	1	0.847342	0.847342	0	1	0	0	CorrectCommission	1.045055	0.562436	1	0
334.717010	0.795910	city	10	1	0.648927	0.648927	0	1	0	0	CorrectCommission	0.527759	0.557579	1	0
335.512817	0.795693	mountain	3	0	0.000000	0.735619	1	0	0	0	CorrectOmission	0.159445	0.553066	1	0
336.308563	0.795801	city	9	1	0.817442	0.817442	0	1	0	0	CorrectCommission	0.808048	0.550104	1	0
337.104492	0.796020	city	2	1	0.604419	0.604419	0	1	0	0	CorrectCommission	0.880566	0.550299	1	0
337.900299	0.795645	city	7	1	0.655692	0.655692	0	1	0	0	CorrectCommission	0.474132	0.555507	1	0
338.696014	0.795741	city	6	1	0.698281	0.698281	0	1	0	0	CorrectCommission	0.136531	0.567544	1	0
339.491791	0.795840	city	8	1	0.748637	0.748637	0	1	0	0	CorrectCommission	0.262633	0.587857	1	0
340.287598	0.795764	city	6	1	0.748338	0.748338	0	1	0	0	CorrectCommission	0.260265	0.617210	1	0
341.083374	0.795804	city	9	1	0.698703	0.698703	0	1	0	0	CorrectCommission	0.133187	0.655476	1	0
341.879211	0.795883	city	2	1	0.598886	0.598886	0	1	0	0	CorrectCommission	0.924424	0.701514	1	0
342.675018	0.795717	mountain	10	0	0.000000	0.726967	1	0	0	0	CorrectOmission	0.090863	0.753163	0	0
343.470795	0.795804	city	6	1	0.805095	0.805095	0	1	0	0	CorrectCommission	0.710171	0.807486	0	0
344.266571	0.795800	city	10	1	0.555416	0.555416	0	1	0	0	CorrectCommission	1.269003	0.861001	0	0
345.062378	0.795802	mountain	10	1	0.748106	0.748106	0	0	1	0	CommissionError	0.258427	0.910122	0	0
345.858185	0.795798	city	4	1	0.913465	0.913465	0	1	0	0	CorrectCommission	1.569205	0.951618	0	0
346.654083	0.796021	mountain	8	0	0.000000	1.004934	1	0	0	0	CorrectOmission	2.294276	0.982891	0	0
347.449951	0.795693	city	3	1	0.996606	0.996606	0	1	0	0	CorrectCommission	2.228259	1.002284	0	0
348.245636	0.795694	city	7	1	0.862571	0.862571	0	1	0	0	CorrectCommission	1.165774	1.009169	0	0
349.041504	0.796019	city	9	1	0.809395	0.809395	0	1	0	0	CorrectCommission	0.744254	1.003914	0	0
349.837311	0.795585	city	8	1	0.747921	0.747921	0	1	0	0	CorrectCommission	0.256960	0.987663	0	0
350.632996	0.795801	city	6	1	0.748118	0.748118	0	1	0	0	CorrectCommission	0.258520	0.962111	0	0
351.428802	0.795800	mountain	10	0	0.000000	0.813982	1	0	0	0	CorrectOmission	0.780619	0.929246	0	0
352.224609	0.795809	city	7	1	0.897772	0.897772	0	1	0	0	CorrectCommission	1.444815	0.891170	0	0
353.020416	0.795793	mountain	6	0	0.000000	0.951747	1	0	0	0	CorrectOmission	1.872662	0.849975	0	0
353.816223	0.795850	city	4	1	0.897296	0.897296	0	1	0	0	CorrectCommission	1.441040	0.807642	0	0
354.612030	0.795755	city	10	1	0.655812	0.655812	0	1	0	0	CorrectCommission	0.473175	0.765985	0	0
355.407837	0.795857	city	8	1	0.718318	0.718318	0	1	0	0	CorrectCommission	0.022297	0.726568	1	0
356.203644	0.795746	city	7	1	0.699357	0.699357	0	1	0	0	CorrectCommission	0.128001	0.690608	1	0
356.999420	0.795801	city	5	1	0.765054	0.765054	0	1	0	0	CorrectCommission	0.392770	0.658918	1	0
357.795227	0.795806	mountain	6	0	0.000000	0.794740	1	0	0	0	CorrectOmission	0.628090	0.631865	1	0
358.591003	0.795802	mountain	9	0	0.000000	0.776574	1	0	0	0	CorrectOmission	0.484090	0.609438	1	0
359.386841	0.795830	city	7	1	0.698715	0.698715	0	1	0	0	CorrectCommission	0.133095	0.591356	1	0
360.182648	0.795773	city	3	1	0.549319	0.549319	0	1	0	0	CorrectCommission	1.317334	0.577227	1	0
360.978455	0.795840	city	5	1	0.598904	0.598904	0	1	0	0	CorrectCommission	0.924281	0.566667	1	0
361.774231	0.795765	city	3	1	0.600368	0.600368	0	1	0	0	CorrectCommission	0.912679	0.559508	1	0
362.570068	0.795906	city	4	1	0.698419	0.698419	0	1	0	0	CorrectCommission	0.135435	0.555856	1	0
363.365936	0.795803	city	5	1	0.712307	0.712307	0	1	0	0	CorrectCommission	0.025351	0.556109	1	0
364.161713	0.795748	city	1	1	0.756330	0.756330	0	1	0	0	CorrectCommission	0.323617	0.560861	1	0
364.957550	0.795969	city	3	1	0.798168	0.798168	0	1	0	0	CorrectCommission	0.655261	0.570799	1	0
365.753387	0.795686	city	1	1	0.847391	0.847391	0	1	0	0	CorrectCommission	1.045447	0.586548	1	0
366.549072	0.795698	city	8	1	0.748105	0.748105	0	1	0	0	CorrectCommission	0.258417	0.608479	1	1
367.344879	0.795905	city	5	1	0.715025	0.715025	0	1	0	0	CorrectCommission	0.003800	0.636566	1	1
368.140686	0.795697	city	1	1	0.655761	0.655761	0	1	0	0	CorrectCommission	0.473583	0.670197	1	1
368.936432	0.795819	city	5	1	0.851596	0.851596	0	1	0	0	CorrectCommission	1.078777	0.708097	1	1
369.732239	0.795782	city	8	1	0.847975	0.847975	0	1	0	0	CorrectCommission	1.050079	0.748306	0	1
370.528107	0.795910	city	2	1	0.660977	0.660977	0	1	0	0	CorrectCommission	0.432235	0.788271	0	1
371.323883	0.795700	city	1	1	0.748265	0.748265	0	1	0	0	CorrectCommission	0.259683	0.825036	0	1
372.119690	0.795902	city	8	1	0.847970	0.847970	0	1	0	0	CorrectCommission	1.050040	0.855496	0	1
372.915497	0.795692	city	10	1	0.648640	0.648640	0	1	0	0	CorrectCommission	0.530029	0.876754	0	1
373.711273	0.795865	city	4	1	0.556319	0.556319	0	1	0	0	CorrectCommission	1.261851	0.886557	0	1
374.507080	0.795739	mountain	2	1	0.399942	0.399942	0	0	1	0	CommissionError	2.501432	0.883620	0	1
375.302887	0.795910	city	8	1	0.947229	0.947229	0	1	0	0	CorrectCommission	1.836854	0.867880	0	1
376.098724	0.795735	city	1	1	0.847523	0.847523	0	1	0	0	CorrectCommission	1.046490	0.840641	0	1
376.894501	0.795830	city	9	1	0.847824	0.847824	0	1	0	0	CorrectCommission	1.048878	0.804429	0	1
377.690277	0.795732	city	4	1	0.698445	0.698445	0	1	0	0	CorrectCommission	0.135230	0.762638	0	1
378.486053	0.795800	city	8	1	0.649209	0.649209	0	1	0	0	CorrectCommission	0.525523	0.719128	1	1
379.281860	0.795838	city	3	1	0.698391	0.698391	0	1	0	0	CorrectCommission	0.135663	0.677658	1	1
380.077667	0.795771	mountain	5	0	0.000000	0.740839	1	0	0	0	CorrectOmission	0.200822	0.641492	1	1
380.873474	0.795848	city	3	1	0.762187	0.762187	0	1	0	0	CorrectCommission	0.370043	0.612991	1	1
381.669281	0.795749	city	9	1	0.748066	0.748066	0	1	0	0	CorrectCommission	0.258111	0.593450	1	1
382.465088	0.795827	city	8	1	0.648780	0.648780	0	1	0	0	CorrectCommission	0.528924	0.583127	1	1
383.260895	0.795836	city	9	1	0.699062	0.699062	0	1	0	0	CorrectCommission	0.130341	0.581391	1	1
384.056702	0.795747	city	7	1	0.599035	0.599035	0	1	0	0	CorrectCommission	0.923240	0.587046	1	1
384.852478	0.795804	city	4	1	0.615480	0.615480	0	1	0	0	CorrectCommission	0.792883	0.598617	1	1
385.648376	0.796015	city	8	1	0.610483	0.610483	0	1	0	0	CorrectCommission	0.832496	0.614685	1	1
386.444183	0.795582	city	1	1	0.561960	0.561960	0	1	0	0	CorrectCommission	1.217133	0.634123	1	1
387.239990	0.796019	mountain	7	1	0.648786	0.648786	0	0	1	0	CommissionError	0.528871	0.656203	1	1
388.035797	0.795589	city	8	1	0.698128	0.698128	0	1	0	0	CorrectCommission	0.137743	0.680687	1	1
388.831543	0.795951	city	4	1	0.698463	0.698463	0	1	0	0	CorrectCommission	0.135091	0.707762	1	1
389.627350	0.795651	city	10	1	0.611087	0.611087	0	1	0	0	CorrectCommission	0.827706	0.737877	1	1
390.423065	0.795797	city	7	1	0.648718	0.648718	0	1	0	0	CorrectCommission	0.529409	0.771653	0	1
391.218872	0.795807	city	3	1	0.598884	0.598884	0	1	0	0	CorrectCommission	0.924442	0.809758	0	1
392.014740	0.795907	mountain	4	1	0.549307	0.549307	0	0	1	0	CommissionError	1.317434	0.852705	0	1
392.810547	0.795692	city	9	1	0.897507	0.897507	0	1	0	0	CorrectCommission	1.442708	0.900722	0	1
393.606293	0.795817	city	5	1	0.805220	0.805220	0	1	0	0	CorrectCommission	0.711160	0.953572	0	1
394.402161	0.795895	city	4	1	0.698355	0.698355	0	1	0	0	CorrectCommission	0.135946	1.010358	0	1
395.197998	0.795801	city	8	1	0.598781	0.598781	0	1	0	0	CorrectCommission	0.925256	1.069380	0	1
395.993866	0.795911	city	6	1	0.798316	0.798316	0	1	0	0	CorrectCommission	0.656436	1.128031	0	1
396.789612	0.795588	city	9	1	0.797771	0.797771	0	1	0	0	CorrectCommission	0.652116	1.182956	0	1
397.585327	0.795837	city	6	1	0.897382	0.897382	0	1	0	0	CorrectCommission	1.441722	1.230229	0	1
398.381104	0.795760	city	3	1	0.951233	0.951233	0	1	0	0	CorrectCommission	1.868592	1.265767	0	1
399.176910	0.795823	city	4	1	0.997171	0.997171	0	1	0	0	CorrectCommission	2.232733	1.285838	0	1
399.972748	0.795891	city	9	1	0.996782	0.996782	0	1	0	0	CorrectCommission	2.229650	1.287583	0	1
400.768555	0.795706	city	10	1	0.902148	0.902148	0	1	0	0	CorrectCommission	1.479496	1.269512	0	1
401.564423	0.796008	city	2	1	0.996817	0.996817	0	1	0	0	CorrectCommission	2.229928	1.231805	0	1
402.360321	0.795800	city	10	1	0.813285	0.813285	0	1	0	0	CorrectCommission	0.775091	1.176392	0	1
403.156006	0.795583	city	5	1	0.865993	0.865993	0	1	0	0	CorrectCommission	1.192904	1.106922	0	1
403.951691	0.795802	city	7	1	0.996917	0.996917	0	1	0	0	CorrectCommission	2.230719	1.028352	0	1
404.747498	0.795811	city	1	1	0.800595	0.800595	0	1	0	0	CorrectCommission	0.674499	0.946482	0	1
405.543427	0.796010	city	3	1	0.751046	0.751046	0	1	0	0	CorrectCommission	0.281728	0.867360	0	1
406.339264	0.795694	city	8	1	0.747932	0.747932	0	1	0	0	CorrectCommission	0.257043	0.796594	0	1
407.134979	0.795734	city	3	1	0.698272	0.698272	0	1	0	0	CorrectCommission	0.136601	0.738709	1	1
407.930725	0.795763	city	9	1	0.699047	0.699047	0	1	0	0	CorrectCommission	0.130458	0.696724	1	1
408.726624	0.796013	city	6	1	0.712352	0.712352	0	1	0	0	CorrectCommission	0.024991	0.671852	1	1
409.522430	0.795585	city	9	1	0.698161	0.698161	0	1	0	0	CorrectCommission	0.137482	0.663453	1	1
410.318176	0.795911	city	7	1	0.698354	0.698354	0	1	0	0	CorrectCommission	0.135956	0.669220	1	1
411.113983	0.795696	city	3	1	0.648817	0.648817	0	1	0	0	CorrectCommission	0.528623	0.685584	1	1
411.909760	0.795862	city	5	1	0.499464	0.499464	0	1	0	0	CorrectCommission	1.712530	0.708200	1	1
412.705566	0.795736	city	7	1	0.598808	0.598808	0	1	0	0	CorrectCommission	0.925043	0.732499	1	1
413.501312	0.795800	mountain	5	1	0.549189	0.549189	0	0	1	0	CommissionError	1.318365	0.754263	0	1
414.297119	0.795808	city	9	1	0.797957	0.797957	0	1	0	0	CorrectCommission	0.653592	0.769996	0	1
415.092987	0.795906	city	10	1	0.648641	0.648641	0	1	0	0	CorrectCommission	0.530020	0.777228	0	1
415.888794	0.795694	city	6	1	0.901224	0.901224	0	1	0	0	CorrectCommission	1.472174	0.774623	0	1
416.684570	0.795909	mountain	9	0	0.000000	0.897904	1	0	0	0	CorrectOmission	1.445858	0.761958	0	1
417.480438	0.795801	city	7	1	0.797750	0.797750	0	1	0	0	CorrectCommission	0.651945	0.740014	1	1
418.276184	0.795694	city	6	1	0.759829	0.759829	0	1	0	0	CorrectCommission	0.351349	0.710381	1	1
419.071930	0.795799	city	10	1	0.648688	0.648688	0	1	0	0	CorrectCommission	0.529652	0.675165	1	1
419.867737	0.795809	city	3	1	0.567932	0.567932	0	1	0	0	CorrectCommission	1.169790	0.636738	1	1
420.663544	0.795796	city	7	1	0.698518	0.698518	0	1	0	0	CorrectCommission	0.134657	0.597505	1	1
421.459351	0.795828	city	1	1	0.598970	0.598970	0	1	0	0	CorrectCommission	0.923761	0.559721	1	1
422.255249	0.795996	city	3	1	0.748091	0.748091	0	1	0	0	CorrectCommission	0.258307	0.525308	1	1
423.051056	0.795582	city	1	1	0.698238	0.698238	0	1	0	0	CorrectCommission	0.136872	0.495787	1	1
423.846863	0.796020	city	4	1	0.652344	0.652344	0	1	0	0	CorrectCommission	0.500667	0.472207	1	1
424.642670	0.795589	city	5	1	0.698102	0.698102	0	1	0	0	CorrectCommission	0.137954	0.455109	1	1
425.438446	0.796014	city	9	1	0.698469	0.698469	0	1	0	0	CorrectCommission	0.135038	0.444594	1	1
426.234375	0.795803	city	3	1	0.797610	0.797610	0	1	0	0	CorrectCommission	0.650840	0.440377	1	0
427.030060	0.795594	city	9	1	0.716749	0.716749	0	1	0	0	CorrectCommission	0.009860	0.441858	1	0
427.825745	0.795791	city	2	1	0.617428	0.617428	0	1	0	0	CorrectCommission	0.777443	0.448265	1	0
428.621674	0.796019	city	6	1	0.648634	0.648634	0	1	0	0	CorrectCommission	0.530077	0.458701	1	0
429.417511	0.795657	city	3	1	0.610607	0.610607	0	1	0	0	CorrectCommission	0.831511	0.472243	1	0
430.213196	0.795736	city	2	1	0.698318	0.698318	0	1	0	0	CorrectCommission	0.136241	0.487998	1	0
431.008972	0.795796	city	10	1	0.698404	0.698404	0	1	0	0	CorrectCommission	0.135557	0.505116	1	0
431.804749	0.795802	city	8	1	0.657480	0.657480	0	1	0	0	CorrectCommission	0.459956	0.522818	1	0
432.600555	0.795798	city	2	1	0.654101	0.654101	0	1	0	0	CorrectCommission	0.486738	0.540414	1	0
433.396484	0.796022	mountain	6	0	0.000000	0.800286	1	0	0	0	CorrectOmission	0.672047	0.557355	1	0
434.192383	0.795804	city	5	1	0.897677	0.897677	0	1	0	0	CorrectCommission	1.444058	0.573274	1	0
434.988068	0.795580	city	10	1	0.747921	0.747921	0	1	0	0	CorrectCommission	0.256955	0.588000	1	0
435.783783	0.795860	city	2	1	0.765078	0.765078	0	1	0	0	CorrectCommission	0.392957	0.601636	1	0
436.579590	0.795741	mountain	4	0	0.000000	0.792672	1	0	0	0	CorrectOmission	0.611699	0.614488	1	0
437.375366	0.795805	city	1	1	0.797969	0.797969	0	1	0	0	CorrectCommission	0.653687	0.627031	1	0
438.171173	0.795799	city	2	1	0.748232	0.748232	0	1	0	0	CorrectCommission	0.259424	0.639856	1	0
438.966980	0.795803	city	5	1	0.899754	0.899754	0	1	0	0	CorrectCommission	1.460524	0.653536	1	0
439.762878	0.796020	city	4	1	0.797840	0.797840	0	1	0	0	CorrectCommission	0.652662	0.668477	1	0
440.558685	0.795598	city	6	1	0.648430	0.648430	0	1	0	0	CorrectCommission	0.531698	0.684847	1	0
441.354492	0.796005	city	4	1	0.648895	0.648895	0	1	0	0	CorrectCommission	0.528008	0.702401	1	0
442.150299	0.795583	city	1	1	0.698164	0.698164	0	1	0	0	CorrectCommission	0.137459	0.720430	1	0
442.946075	0.796020	city	6	1	0.698358	0.698358	0	1	0	0	CorrectCommission	0.135924	0.737852	1	0
443.742004	0.795803	mountain	2	0	0.000000	0.794702	1	0	0	0	CorrectOmission	0.627789	0.753294	0	0
444.537689	0.795589	mountain	4	0	0.000000	0.905894	1	0	0	0	CorrectOmission	1.509191	0.765340	0	0
445.333405	0.795798	city	6	1	0.950628	0.950628	0	1	0	0	CorrectCommission	1.863793	0.772789	0	0
446.129181	0.795803	city	3	1	0.847600	0.847600	0	1	0	0	CorrectCommission	1.047105	0.774972	0	0
446.924988	0.795801	city	9	1	0.798007	0.798007	0	1	0	0	CorrectCommission	0.653983	0.771957	0	0
447.720795	0.795831	city	5	1	0.748122	0.748122	0	1	0	0	CorrectCommission	0.258553	0.764659	0	0
448.516663	0.795878	mountain	8	0	0.000000	0.836142	1	0	0	0	CorrectOmission	0.956275	0.754828	0	0
449.312469	0.795725	city	3	1	0.897245	0.897245	0	1	0	0	CorrectCommission	1.440633	0.744818	0	0
450.108215	0.795772	city	6	1	0.766611	0.766611	0	1	0	0	CorrectCommission	0.405110	0.737354	1	0
450.903992	0.795804	city	8	1	0.667237	0.667237	0	1	0	0	CorrectCommission	0.382613	0.735187	1	0
451.699921	0.796015	city	10	1	0.648610	0.648610	0	1	0	0	CorrectCommission	0.530271	0.740605	0	0
452.495697	0.795583	city	9	1	0.797650	0.797650	0	1	0	0	CorrectCommission	0.651155	0.755133	0	0
453.291412	0.795804	city	2	1	0.698376	0.698376	0	1	0	0	CorrectCommission	0.135777	0.779237	0	0
454.087219	0.795838	city	10	1	0.698363	0.698363	0	1	0	0	CorrectCommission	0.135880	0.812197	0	0
454.883026	0.795766	city	6	1	0.659441	0.659441	0	1	0	0	CorrectCommission	0.444412	0.852131	0	0
455.678802	0.795801	city	3	1	0.566681	0.566681	0	1	0	0	CorrectCommission	1.179707	0.896229	0	0
456.474640	0.795858	city	8	1	0.549133	0.549133	0	1	0	0	CorrectCommission	1.318812	0.941072	0	0
457.270447	0.795751	city	5	1	0.698300	0.698300	0	1	0	0	CorrectCommission	0.136380	0.983127	0	0
458.066223	0.795823	city	2	1	0.960910	0.960910	0	1	0	0	CorrectCommission	1.945301	1.019220	0	0
458.862030	0.795769	city	9	1	0.996733	0.996733	0	1	0	0	CorrectCommission	2.229267	1.046838	0	0
459.657806	0.795802	city	7	1	0.947073	0.947073	0	1	0	0	CorrectCommission	1.835616	1.064465	0	0
460.453613	0.795802	city	4	1	0.897397	0.897397	0	1	0	0	CorrectCommission	1.441836	1.071608	0	0
461.249481	0.795912	city	1	1	0.847717	0.847717	0	1	0	0	CorrectCommission	1.048033	1.068651	0	0
462.045258	0.795683	city	5	1	0.747976	0.747976	0	1	0	0	CorrectCommission	0.257397	1.056617	0	0
462.841003	0.795811	city	10	1	0.698568	0.698568	0	1	0	0	CorrectCommission	0.134260	1.036896	0	0
463.636932	0.796021	city	6	1	0.897506	0.897506	0	1	0	0	CorrectCommission	1.442707	1.010941	0	0
464.432739	0.795584	city	8	1	0.657725	0.657725	0	1	0	0	CorrectCommission	0.458012	0.980104	0	0
465.228424	0.795802	city	2	1	0.558358	0.558358	0	1	0	0	CorrectCommission	1.245682	0.945666	0	0
466.024292	0.795909	city	5	1	0.996807	0.996807	0	1	0	0	CorrectCommission	2.229853	0.908796	0	0
466.820190	0.795910	city	6	1	0.848086	0.848086	0	1	0	0	CorrectCommission	1.050954	0.870709	0	0
467.615967	0.795648	city	7	1	0.814100	0.814100	0	1	0	0	CorrectCommission	0.781553	0.832776	0	0
468.411652	0.795736	city	4	1	0.648989	0.648989	0	1	0	0	CorrectCommission	0.527261	0.796495	0	0
469.207428	0.795801	city	10	1	0.698486	0.698486	0	1	0	0	CorrectCommission	0.134904	0.763445	0	0
470.003235	0.795804	city	6	1	0.655647	0.655647	0	1	0	0	CorrectCommission	0.474488	0.735171	1	0
470.799133	0.796018	city	2	1	0.598911	0.598911	0	1	0	0	CorrectCommission	0.924228	0.712985	1	0
471.594940	0.795587	city	6	1	0.608012	0.608012	0	1	0	0	CorrectCommission	0.852081	0.697822	1	0
472.390747	0.796017	city	3	1	0.748128	0.748128	0	1	0	0	CorrectCommission	0.258602	0.690114	1	0
473.186676	0.795802	city	2	1	0.715476	0.715476	0	1	0	0	CorrectCommission	0.000231	0.689698	1	0
473.982361	0.795590	mountain	5	0	0.000000	0.765881	1	0	0	0	CorrectOmission	0.399326	0.695834	1	0
474.778046	0.795796	mountain	3	0	0.000000	0.834012	1	0	0	0	CorrectOmission	0.939391	0.707303	1	0
475.573883	0.795858	city	2	1	0.854535	0.854535	0	1	0	0	CorrectCommission	1.102080	0.722507	1	0
476.369690	0.795744	city	1	1	0.762119	0.762119	0	1	0	0	CorrectCommission	0.369508	0.739652	1	0
477.165466	0.795847	city	5	1	0.847558	0.847558	0	1	0	0	CorrectCommission	1.046774	0.756959	0	0
477.961273	0.795756	city	4	1	0.948052	0.948052	0	1	0	0	CorrectCommission	1.843378	0.772710	0	0
478.757111	0.795910	city	1	1	0.798011	0.798011	0	1	0	0	CorrectCommission	0.654018	0.785341	0	0
479.552917	0.795705	city	3	1	0.698525	0.698525	0	1	0	0	CorrectCommission	0.134600	0.793520	0	0
480.348694	0.795868	city	8	1	0.703160	0.703160	0	1	0	0	CorrectCommission	0.097858	0.796093	0	0
481.144501	0.795725	city	4	1	0.654373	0.654373	0	1	0	0	CorrectCommission	0.484589	0.792122	0	0
481.940277	0.795805	city	5	1	0.996840	0.996840	0	1	0	0	CorrectCommission	2.230110	0.780968	0	0
482.736084	0.795846	city	4	1	0.860809	0.860809	0	1	0	0	CorrectCommission	1.151808	0.762299	0	0
483.531921	0.795812	mountain	2	0	0.000000	0.838198	1	0	0	0	CorrectOmission	0.972578	0.736258	1	0
484.327698	0.795746	city	8	1	0.797787	0.797787	0	1	0	0	CorrectCommission	0.652239	0.703480	1	0
485.123474	0.795797	city	3	1	0.608352	0.608352	0	1	0	0	CorrectCommission	0.849393	0.665106	1	0
485.919281	0.795802	city	8	1	0.698401	0.698401	0	1	0	0	CorrectCommission	0.135584	0.622710	1	0
486.715057	0.795805	mountain	6	0	0.000000	0.788450	1	0	0	0	CorrectOmission	0.578225	0.578225	1	0
