onset	duration	trial_type	image_type	Press	ReactionTime	ReactionTime_Interpolated	CorrectOmission	CorrectCommission	CommissionError	OmissionError	response_type	nonsmoothVarianceTimeCourse	VarianceTimeCourse	In_the_Zone	Reward_trial
8.433798	0.792264	mountain	10	1	0.497287	0.497287	0	0	1	0	CommissionError	1.468381	1.468381	0	1
9.226117	0.792374	city	4	1	0.652320	0.652320	0	1	0	0	CorrectCommission	0.185501	1.363678	0	1
10.018401	0.792194	city	3	1	0.447896	0.447896	0	1	0	0	CorrectCommission	1.995282	1.262124	0	1
10.810612	0.792228	city	1	1	0.546715	0.546715	0	1	0	0	CorrectCommission	0.941089	1.166756	0	1
11.602913	0.792375	mountain	10	0	0.000000	0.664213	1	0	0	0	CorrectOmission	0.312375	1.080592	0	1
12.395178	0.792155	mountain	8	0	0.000000	0.747829	1	0	0	0	CorrectOmission	1.204377	1.006454	0	1
13.187389	0.792268	city	3	1	0.744998	0.744998	0	1	0	0	CorrectCommission	1.174182	0.946910	0	1
13.979654	0.792262	city	6	1	0.603159	0.603159	0	1	0	0	CorrectCommission	0.338943	0.904196	0	1
14.772027	0.792483	city	5	1	0.719723	0.719723	0	1	0	0	CorrectCommission	0.904545	0.880089	0	1
15.564400	0.792264	city	3	1	0.645549	0.645549	0	1	0	0	CorrectCommission	0.113269	0.875762	0	1
16.356556	0.792046	mountain	3	0	0.000000	0.614042	1	0	0	0	CorrectOmission	0.222852	0.891711	0	1
17.148710	0.792265	city	6	1	0.604793	0.604793	0	1	0	0	CorrectCommission	0.321512	0.927661	0	1
17.940977	0.792268	city	7	1	0.597398	0.597398	0	1	0	0	CorrectCommission	0.400403	0.982585	0	1
18.733246	0.792267	city	6	1	0.512921	0.512921	0	1	0	0	CorrectCommission	1.301600	1.054719	0	1
19.525520	0.792283	city	8	1	0.548395	0.548395	0	1	0	0	CorrectCommission	0.923161	1.141631	0	1
20.317781	0.792240	city	3	1	0.456729	0.456729	0	1	0	0	CorrectCommission	1.901052	1.240266	0	1
21.110037	0.792270	city	2	1	0.497273	0.497273	0	1	0	0	CorrectCommission	1.468531	1.346974	0	1
21.902304	0.792263	city	4	1	0.560833	0.560833	0	1	0	0	CorrectCommission	0.790472	1.457562	0	1
22.694675	0.792480	city	10	1	0.447735	0.447735	0	1	0	0	CorrectCommission	1.997000	1.567254	0	1
23.486938	0.792045	city	4	1	0.551011	0.551011	0	1	0	0	CorrectCommission	0.895254	1.670749	0	1
24.279095	0.792270	city	7	1	0.745230	0.745230	0	1	0	0	CorrectCommission	1.176650	1.762480	0	1
25.071360	0.792260	city	10	1	0.398174	0.398174	0	1	0	0	CorrectCommission	2.525712	1.836775	0	1
25.863731	0.792482	city	2	1	0.366582	0.366582	0	1	0	0	CorrectCommission	2.862733	1.888340	0	1
26.656052	0.792156	city	7	1	0.398536	0.398536	0	1	0	0	CorrectCommission	2.521846	1.912802	0	1
27.448208	0.792159	city	1	1	0.402380	0.402380	0	1	0	0	CorrectCommission	2.480845	1.907197	0	1
28.240417	0.792260	city	2	1	0.352548	0.352548	0	1	0	0	CorrectCommission	3.012443	1.870435	0	1
29.032684	0.792271	city	9	1	0.398147	0.398147	0	1	0	0	CorrectCommission	2.525993	1.803564	0	1
29.824951	0.792262	city	1	1	0.357987	0.357987	0	1	0	0	CorrectCommission	2.954420	1.709807	0	1
30.617239	0.792313	city	7	1	0.398179	0.398179	0	1	0	0	CorrectCommission	2.525660	1.594260	0	1
31.409538	0.792285	city	1	1	0.497150	0.497150	0	1	0	0	CorrectCommission	1.469841	1.463410	0	1
32.201775	0.792192	city	9	1	0.646165	0.646165	0	1	0	0	CorrectCommission	0.119842	1.324419	0	1
32.994007	0.792267	mountain	1	0	0.000000	0.662865	1	0	0	0	CorrectOmission	0.297994	1.184373	0	1
33.786270	0.792262	city	7	1	0.646575	0.646575	0	1	0	0	CorrectCommission	0.124207	1.049539	0	1
34.578537	0.792270	city	5	1	0.696619	0.696619	0	1	0	0	CorrectCommission	0.658077	0.924900	0	1
35.370819	0.792293	city	2	1	0.659368	0.659368	0	1	0	0	CorrectCommission	0.260684	0.813873	0	1
36.163078	0.792232	mountain	5	0	0.000000	0.721030	1	0	0	0	CorrectOmission	0.918496	0.718327	1	1
36.955330	0.792266	city	1	1	0.745386	0.745386	0	1	0	0	CorrectCommission	1.178314	0.638791	1	1
37.747597	0.792267	city	10	1	0.596212	0.596212	0	1	0	0	CorrectCommission	0.413060	0.574774	1	1
38.539970	0.792478	city	8	1	0.645784	0.645784	0	1	0	0	CorrectCommission	0.115769	0.525171	1	1
39.332233	0.792052	city	3	1	0.613171	0.613171	0	1	0	0	CorrectCommission	0.232135	0.488598	1	1
40.124390	0.792261	city	8	1	0.649495	0.649495	0	1	0	0	CorrectCommission	0.155357	0.463595	1	1
40.916653	0.792263	city	10	1	0.695458	0.695458	0	1	0	0	CorrectCommission	0.645687	0.448829	1	1
41.708931	0.792298	city	1	1	0.646262	0.646262	0	1	0	0	CorrectCommission	0.120876	0.443114	1	1
42.501209	0.792256	city	5	1	0.695575	0.695575	0	1	0	0	CorrectCommission	0.646943	0.445400	1	1
43.293457	0.792243	city	10	1	0.600768	0.600768	0	1	0	0	CorrectCommission	0.364456	0.454668	1	1
44.085712	0.792267	city	3	1	0.646134	0.646134	0	1	0	0	CorrectCommission	0.119505	0.469884	1	1
44.878033	0.792371	city	2	1	0.596191	0.596191	0	1	0	0	CorrectCommission	0.413278	0.489938	1	1
45.670406	0.792374	city	8	1	0.596596	0.596596	0	1	0	0	CorrectCommission	0.408959	0.513593	1	1
46.462616	0.792049	mountain	7	0	0.000000	0.649037	1	0	0	0	CorrectOmission	0.150472	0.539565	1	1
47.254803	0.792321	mountain	3	0	0.000000	0.712191	1	0	0	0	CorrectOmission	0.824192	0.566571	1	1
48.047173	0.792423	city	1	1	0.744736	0.744736	0	1	0	0	CorrectCommission	1.171380	0.593432	1	1
48.839409	0.792050	city	5	1	0.705350	0.705350	0	1	0	0	CorrectCommission	0.751213	0.619215	1	1
49.631565	0.792260	city	6	1	0.695411	0.695411	0	1	0	0	CorrectCommission	0.645191	0.643326	1	1
50.423828	0.792265	city	7	1	0.664081	0.664081	0	1	0	0	CorrectCommission	0.310965	0.665523	1	1
51.216091	0.792265	city	3	1	0.596235	0.596235	0	1	0	0	CorrectCommission	0.412816	0.685925	1	1
52.008358	0.792265	city	1	1	0.498757	0.498757	0	1	0	0	CorrectCommission	1.452703	0.704922	1	1
52.800678	0.792373	mountain	7	0	0.000000	0.537609	1	0	0	0	CorrectOmission	1.038224	0.723044	0	1
53.593052	0.792375	city	9	1	0.596724	0.596724	0	1	0	0	CorrectCommission	0.407596	0.740842	0	1
54.385265	0.792051	city	7	1	0.560031	0.560031	0	1	0	0	CorrectCommission	0.799037	0.758701	0	1
55.177422	0.792262	city	8	1	0.646370	0.646370	0	1	0	0	CorrectCommission	0.122022	0.776714	0	1
55.969704	0.792304	city	6	1	0.596799	0.596799	0	1	0	0	CorrectCommission	0.406791	0.794632	0	1
56.761967	0.792222	city	7	1	0.556210	0.556210	0	1	0	0	CorrectCommission	0.839797	0.811790	0	1
57.554211	0.792267	city	8	1	0.499459	0.499459	0	1	0	0	CorrectCommission	1.445212	0.827223	0	1
58.346478	0.792266	city	5	1	0.509483	0.509483	0	1	0	0	CorrectCommission	1.338276	0.839774	0	1
59.138798	0.792371	city	9	1	0.603375	0.603375	0	1	0	0	CorrectCommission	0.336644	0.848330	0	1
59.931168	0.792373	city	8	1	0.546668	0.546668	0	1	0	0	CorrectCommission	0.941585	0.852027	0	1
60.723381	0.792052	city	7	1	0.546995	0.546995	0	1	0	0	CorrectCommission	0.938103	0.850396	0	1
61.515644	0.792478	city	1	1	0.497471	0.497471	0	1	0	0	CorrectCommission	1.466413	0.843533	0	1
62.308018	0.792264	city	9	1	0.546792	0.546792	0	1	0	0	CorrectCommission	0.940260	0.832124	0	1
63.100227	0.792158	city	8	1	0.546772	0.546772	0	1	0	0	CorrectCommission	0.940479	0.817451	0	1
63.892437	0.792263	city	2	1	0.546942	0.546942	0	1	0	0	CorrectCommission	0.938668	0.801276	0	1
64.684647	0.792158	city	3	1	0.596241	0.596241	0	1	0	0	CorrectCommission	0.412742	0.785655	0	1
65.476860	0.792271	city	4	1	0.596389	0.596389	0	1	0	0	CorrectCommission	0.411165	0.772731	0	1
66.269234	0.792477	city	8	1	0.563745	0.563745	0	1	0	0	CorrectCommission	0.759408	0.764454	0	1
67.061607	0.792264	city	5	1	0.546509	0.546509	0	1	0	0	CorrectCommission	0.943279	0.762340	0	1
67.853867	0.792264	city	2	1	0.596026	0.596026	0	1	0	0	CorrectCommission	0.415039	0.767262	0	0
68.646080	0.792156	city	7	1	0.657069	0.657069	0	1	0	0	CorrectCommission	0.236160	0.779328	0	0
69.438347	0.792374	city	6	1	0.645801	0.645801	0	1	0	0	CorrectCommission	0.115952	0.797761	0	0
70.230667	0.792264	city	2	1	0.547439	0.547439	0	1	0	0	CorrectCommission	0.933363	0.820960	0	0
71.022820	0.792046	mountain	3	1	0.463867	0.463867	0	0	1	0	CommissionError	1.824902	0.846619	0	0
71.814972	0.792265	city	6	1	0.546781	0.546781	0	1	0	0	CorrectCommission	0.940378	0.871879	0	0
72.607292	0.792374	city	10	1	0.547413	0.547413	0	1	0	0	CorrectCommission	0.933642	0.893679	0	0
73.399666	0.792373	city	3	1	0.646182	0.646182	0	1	0	0	CorrectCommission	0.120023	0.908978	0	0
74.191933	0.792155	city	7	1	0.609311	0.609311	0	1	0	0	CorrectCommission	0.273317	0.915158	0	0
74.984146	0.792265	city	4	1	0.497148	0.497148	0	1	0	0	CorrectCommission	1.469863	0.910330	0	0
75.776405	0.792264	city	9	1	0.398123	0.398123	0	1	0	0	CorrectCommission	2.526251	0.893643	0	0
76.568619	0.792162	city	7	1	0.447635	0.447635	0	1	0	0	CorrectCommission	1.998064	0.865486	0	0
77.360886	0.792369	city	2	1	0.502019	0.502019	0	1	0	0	CorrectCommission	1.417897	0.827520	0	0
78.153259	0.792374	city	9	1	0.613708	0.613708	0	1	0	0	CorrectCommission	0.226409	0.782479	0	0
78.945465	0.792046	city	7	1	0.615544	0.615544	0	1	0	0	CorrectCommission	0.206829	0.733852	0	0
79.737732	0.792483	city	4	1	0.648219	0.648219	0	1	0	0	CorrectCommission	0.141748	0.685383	1	0
80.530106	0.792265	city	9	1	0.695886	0.695886	0	1	0	0	CorrectCommission	0.650260	0.640588	1	0
81.322258	0.792047	city	7	1	0.645525	0.645525	0	1	0	0	CorrectCommission	0.113013	0.602271	1	0
82.114418	0.792263	city	4	1	0.645788	0.645788	0	1	0	0	CorrectCommission	0.115816	0.572225	1	0
82.906693	0.792282	city	10	1	0.659891	0.659891	0	1	0	0	CorrectCommission	0.266270	0.551050	1	0
83.699066	0.792466	city	3	1	0.695368	0.695368	0	1	0	0	CorrectCommission	0.644729	0.538183	1	0
84.491371	0.792156	mountain	3	0	0.000000	0.662126	1	0	0	0	CorrectOmission	0.290108	0.532086	1	0
85.283531	0.792155	city	5	1	0.650293	0.650293	0	1	0	0	CorrectCommission	0.163874	0.530613	1	0
86.075821	0.792429	city	3	1	0.749996	0.749996	0	1	0	0	CorrectCommission	1.227498	0.531358	1	0
86.868088	0.792101	city	10	1	0.695129	0.695129	0	1	0	0	CorrectCommission	0.642184	0.532030	1	0
87.660271	0.792264	city	4	1	0.754104	0.754104	0	1	0	0	CorrectCommission	1.271318	0.530820	1	0
88.452568	0.792339	city	6	1	0.695301	0.695301	0	1	0	0	CorrectCommission	0.644020	0.526543	1	0
89.244850	0.792215	city	3	1	0.645847	0.645847	0	1	0	0	CorrectCommission	0.116446	0.518826	1	0
90.037186	0.792457	city	10	1	0.656983	0.656983	0	1	0	0	CorrectCommission	0.235246	0.508056	1	0
90.829491	0.792156	city	6	1	0.695043	0.695043	0	1	0	0	CorrectCommission	0.641260	0.495296	1	0
91.621704	0.792263	city	3	1	0.695229	0.695229	0	1	0	0	CorrectCommission	0.643254	0.482127	1	0
92.413910	0.792156	city	1	1	0.561098	0.561098	0	1	0	0	CorrectCommission	0.787655	0.470461	1	0
93.206123	0.792266	city	8	1	0.648340	0.648340	0	1	0	0	CorrectCommission	0.143037	0.462323	1	0
93.998390	0.792264	city	10	1	0.596675	0.596675	0	1	0	0	CorrectCommission	0.408117	0.459682	1	0
94.790649	0.792267	city	6	1	0.646496	0.646496	0	1	0	0	CorrectCommission	0.123364	0.464220	1	0
95.582970	0.792373	city	2	1	0.645752	0.645752	0	1	0	0	CorrectCommission	0.115427	0.477165	1	0
96.375275	0.792228	city	9	1	0.607480	0.607480	0	1	0	0	CorrectCommission	0.292849	0.499122	1	0
97.167480	0.792193	mountain	8	0	0.000000	0.654373	1	0	0	0	CorrectOmission	0.207396	0.529961	1	0
97.959824	0.792481	city	7	1	0.713270	0.713270	0	1	0	0	CorrectCommission	0.835705	0.568756	1	0
98.752136	0.792155	city	9	1	0.711012	0.711012	0	1	0	0	CorrectCommission	0.811621	0.613812	1	0
99.544296	0.792159	city	5	1	0.649968	0.649968	0	1	0	0	CorrectCommission	0.160409	0.662763	1	0
100.336533	0.792316	city	4	1	0.664572	0.664572	0	1	0	0	CorrectCommission	0.316205	0.712773	1	0
101.128906	0.792428	city	9	1	0.605168	0.605168	0	1	0	0	CorrectCommission	0.317519	0.760749	0	0
101.921249	0.792266	city	6	1	0.548888	0.548888	0	1	0	0	CorrectCommission	0.917910	0.803694	0	0
102.713516	0.792263	city	2	1	0.447458	0.447458	0	1	0	0	CorrectCommission	1.999955	0.839026	0	0
103.505684	0.792078	city	1	1	0.497020	0.497020	0	1	0	0	CorrectCommission	1.471231	0.864830	0	0
104.297897	0.792343	city	3	1	0.508537	0.508537	0	1	0	0	CorrectCommission	1.348370	0.880134	0	0
105.090149	0.792157	city	8	1	0.511065	0.511065	0	1	0	0	CorrectCommission	1.321400	0.884898	0	0
105.882416	0.792372	city	3	1	0.546736	0.546736	0	1	0	0	CorrectCommission	0.940863	0.879938	0	0
106.674675	0.792157	city	8	1	0.546748	0.546748	0	1	0	0	CorrectCommission	0.940736	0.866719	0	0
107.466888	0.792263	city	6	1	0.596624	0.596624	0	1	0	0	CorrectCommission	0.408662	0.847045	0	0
108.259209	0.792373	city	1	1	0.610712	0.610712	0	1	0	0	CorrectCommission	0.258374	0.822746	0	0
109.051468	0.792157	city	8	1	0.613499	0.613499	0	1	0	0	CorrectCommission	0.228641	0.795488	0	0
109.843681	0.792271	city	5	1	0.745084	0.745084	0	1	0	0	CorrectCommission	1.175095	0.766641	0	0
110.635948	0.792260	city	3	1	0.699085	0.699085	0	1	0	0	CorrectCommission	0.684383	0.737325	0	0
111.428322	0.792483	city	2	1	0.744915	0.744915	0	1	0	0	CorrectCommission	1.173296	0.708592	1	0
112.220589	0.792049	city	1	1	0.744948	0.744948	0	1	0	0	CorrectCommission	1.173650	0.681585	1	0
113.012848	0.792478	city	5	1	0.708400	0.708400	0	1	0	0	CorrectCommission	0.783752	0.657761	1	0
113.805115	0.792048	city	2	1	0.695057	0.695057	0	1	0	0	CorrectCommission	0.641413	0.639017	1	0
114.597313	0.792343	city	6	1	0.645898	0.645898	0	1	0	0	CorrectCommission	0.116988	0.627684	1	0
115.389580	0.792191	city	7	1	0.597444	0.597444	0	1	0	0	CorrectCommission	0.399912	0.626399	1	0
116.181801	0.792259	city	8	1	0.646545	0.646545	0	1	0	0	CorrectCommission	0.123892	0.637832	1	0
116.974091	0.792319	city	7	1	0.645973	0.645973	0	1	0	0	CorrectCommission	0.117785	0.664361	1	0
117.766357	0.792212	city	1	1	0.713420	0.713420	0	1	0	0	CorrectCommission	0.837309	0.707639	1	0
118.558594	0.792262	city	7	1	0.695335	0.695335	0	1	0	0	CorrectCommission	0.644377	0.768192	0	0
119.350861	0.792269	city	9	1	0.695366	0.695366	0	1	0	0	CorrectCommission	0.644707	0.845072	0	0
120.143127	0.792264	city	5	1	0.695272	0.695272	0	1	0	0	CorrectCommission	0.643712	0.935587	0	0
120.935440	0.792369	city	10	1	0.645771	0.645771	0	1	0	0	CorrectCommission	0.115632	1.035314	0	0
121.727707	0.792161	city	8	1	0.657459	0.657459	0	1	0	0	CorrectCommission	0.240322	1.138292	0	0
122.519974	0.792372	city	5	1	0.759107	0.759107	0	1	0	0	CorrectCommission	1.324694	1.237482	0	0
123.312347	0.792372	city	9	1	0.695140	0.695140	0	1	0	0	CorrectCommission	0.642299	1.325462	0	0
124.104607	0.792156	city	4	1	0.893122	0.893122	0	1	0	0	CorrectCommission	2.754351	1.395397	0	0
124.896767	0.792160	city	10	1	0.893737	0.893737	0	1	0	0	CorrectCommission	2.760911	1.441882	0	0
125.689034	0.792369	city	1	1	0.942882	0.942882	0	1	0	0	CorrectCommission	3.285189	1.461816	0	0
126.481293	0.792156	city	7	1	0.949785	0.949785	0	1	0	0	CorrectCommission	3.358831	1.454830	0	0
127.273506	0.792267	mountain	8	0	0.000000	0.855351	1	0	0	0	CorrectOmission	2.351416	1.423358	0	1
128.065765	0.792264	city	8	1	0.744838	0.744838	0	1	0	0	CorrectCommission	1.172472	1.372278	0	1
128.858047	0.792279	city	6	1	0.703504	0.703504	0	1	0	0	CorrectCommission	0.731530	1.308093	0	1
129.650360	0.792359	city	10	1	0.647512	0.647512	0	1	0	0	CorrectCommission	0.134205	1.237919	0	1
130.442734	0.792373	city	4	1	0.646420	0.646420	0	1	0	0	CorrectCommission	0.122556	1.168486	0	1
131.234940	0.792046	city	1	1	0.613817	0.613817	0	1	0	0	CorrectCommission	0.225244	1.105239	0	1
132.027100	0.792268	city	3	1	0.612393	0.612393	0	1	0	0	CorrectCommission	0.240435	1.051830	0	1
132.819366	0.792264	city	9	1	0.546810	0.546810	0	1	0	0	CorrectCommission	0.940075	1.010006	0	1
133.611740	0.792481	city	2	1	0.459283	0.459283	0	1	0	0	CorrectCommission	1.873801	0.979786	0	1
134.403992	0.792049	city	10	1	0.496978	0.496978	0	1	0	0	CorrectCommission	1.471680	0.960019	0	1
135.196213	0.792370	city	4	1	0.597332	0.597332	0	1	0	0	CorrectCommission	0.401108	0.948997	0	1
135.988464	0.792156	city	1	1	0.547295	0.547295	0	1	0	0	CorrectCommission	0.934900	0.945037	0	1
136.780685	0.792265	city	5	1	0.497368	0.497368	0	1	0	0	CorrectCommission	1.467516	0.946874	0	1
137.572952	0.792266	city	1	1	0.465841	0.465841	0	1	0	0	CorrectCommission	1.803842	0.953865	0	1
138.365204	0.792263	city	4	1	0.651653	0.651653	0	1	0	0	CorrectCommission	0.178378	0.965949	0	1
139.157486	0.792287	city	7	1	0.601029	0.601029	0	1	0	0	CorrectCommission	0.361666	0.983426	0	1
139.949799	0.792351	city	3	1	0.546652	0.546652	0	1	0	0	CorrectCommission	0.941759	1.006470	0	1
140.742111	0.792267	city	4	1	0.547400	0.547400	0	1	0	0	CorrectCommission	0.933780	1.034821	0	1
141.534332	0.792156	city	9	1	0.596635	0.596635	0	1	0	0	CorrectCommission	0.408547	1.067464	0	1
142.326584	0.792371	city	5	1	0.547143	0.547143	0	1	0	0	CorrectCommission	0.936525	1.102561	0	1
143.118851	0.792158	city	10	1	0.546748	0.546748	0	1	0	0	CorrectCommission	0.940737	1.137505	0	1
143.911072	0.792281	city	7	1	0.546724	0.546724	0	1	0	0	CorrectCommission	0.940990	1.169227	0	1
144.703445	0.792467	city	6	1	0.498173	0.498173	0	1	0	0	CorrectCommission	1.458927	1.194702	0	1
145.495758	0.792153	city	8	1	0.398105	0.398105	0	1	0	0	CorrectCommission	2.526442	1.211403	0	1
146.287949	0.792217	city	7	1	0.448756	0.448756	0	1	0	0	CorrectCommission	1.986101	1.217737	0	1
147.080261	0.792424	city	8	1	0.497175	0.497175	0	1	0	0	CorrectCommission	1.469576	1.213381	0	1
147.872498	0.792044	city	3	1	0.413955	0.413955	0	1	0	0	CorrectCommission	2.357355	1.199278	0	1
148.664658	0.792267	city	10	1	0.596268	0.596268	0	1	0	0	CorrectCommission	0.412462	1.177416	0	1
149.457031	0.792482	city	8	1	0.547153	0.547153	0	1	0	0	CorrectCommission	0.936411	1.150512	0	1
150.249283	0.792045	city	7	1	0.546542	0.546542	0	1	0	0	CorrectCommission	0.942934	1.121393	0	1
151.041473	0.792325	city	10	1	0.615729	0.615729	0	1	0	0	CorrectCommission	0.204850	1.092530	0	1
151.833801	0.792314	city	9	1	0.695681	0.695681	0	1	0	0	CorrectCommission	0.648071	1.065663	0	1
152.626144	0.792375	city	10	1	0.695128	0.695128	0	1	0	0	CorrectCommission	0.642168	1.041524	0	1
153.418365	0.792086	city	7	1	0.744558	0.744558	0	1	0	0	CorrectCommission	1.169490	1.019841	0	1
154.210526	0.792226	city	4	1	0.803150	0.803150	0	1	0	0	CorrectCommission	1.794537	0.999500	0	1
155.002777	0.792268	mountain	2	0	0.000000	0.758870	1	0	0	0	CorrectOmission	1.322161	0.978843	0	1
155.795044	0.792265	city	5	1	0.695984	0.695984	0	1	0	0	CorrectCommission	0.651308	0.956102	0	1
156.587357	0.792369	city	10	1	0.698760	0.698760	0	1	0	0	CorrectCommission	0.680920	0.929692	0	1
157.379623	0.792162	mountain	10	0	0.000000	0.774921	1	0	0	0	CorrectOmission	1.493401	0.898473	0	1
158.171936	0.792477	city	4	1	0.799062	0.799062	0	1	0	0	CorrectCommission	1.750935	0.861930	0	1
158.964203	0.792046	city	5	1	0.645778	0.645778	0	1	0	0	CorrectCommission	0.115706	0.820238	0	1
159.756363	0.792270	city	3	1	0.744760	0.744760	0	1	0	0	CorrectCommission	1.171638	0.774236	0	1
160.548676	0.792370	city	8	1	0.695284	0.695284	0	1	0	0	CorrectCommission	0.643840	0.725201	0	1
161.340942	0.792155	city	3	1	0.646090	0.646090	0	1	0	0	CorrectCommission	0.119034	0.674786	1	1
162.133209	0.792375	city	7	1	0.695288	0.695288	0	1	0	0	CorrectCommission	0.643874	0.624836	1	1
162.925476	0.792161	mountain	3	0	0.000000	0.711314	1	0	0	0	CorrectOmission	0.814838	0.577256	1	1
163.717728	0.792345	city	5	1	0.695549	0.695549	0	1	0	0	CorrectCommission	0.646664	0.533965	1	1
164.510101	0.792397	city	7	1	0.649376	0.649376	0	1	0	0	CorrectCommission	0.154088	0.496849	1	1
165.302322	0.792046	city	1	1	0.607418	0.607418	0	1	0	0	CorrectCommission	0.293511	0.467676	1	1
166.094513	0.792335	city	5	1	0.645945	0.645945	0	1	0	0	CorrectCommission	0.117489	0.448082	1	1
166.886780	0.792198	city	6	1	0.712114	0.712114	0	1	0	0	CorrectCommission	0.823371	0.439446	1	1
167.679001	0.792265	city	10	1	0.646196	0.646196	0	1	0	0	CorrectCommission	0.120166	0.442739	1	1
168.471329	0.792373	city	6	1	0.645835	0.645835	0	1	0	0	CorrectCommission	0.116314	0.458393	1	1
169.263641	0.792264	city	9	1	0.664383	0.664383	0	1	0	0	CorrectCommission	0.314185	0.486070	1	1
170.055862	0.792159	mountain	4	0	0.000000	0.625124	1	0	0	0	CorrectOmission	0.104627	0.524512	1	1
170.848068	0.792264	city	8	1	0.596248	0.596248	0	1	0	0	CorrectCommission	0.412671	0.571478	1	1
171.640335	0.792261	city	6	1	0.645946	0.645946	0	1	0	0	CorrectCommission	0.117506	0.623746	1	1
172.432587	0.792264	city	10	1	0.646243	0.646243	0	1	0	0	CorrectCommission	0.120668	0.677388	1	1
173.224854	0.792265	city	2	1	0.701760	0.701760	0	1	0	0	CorrectCommission	0.712916	0.728063	0	1
174.017181	0.792376	city	5	1	0.745365	0.745365	0	1	0	0	CorrectCommission	1.178098	0.771495	0	1
174.809448	0.792155	city	3	1	0.844206	0.844206	0	1	0	0	CorrectCommission	2.232527	0.803992	0	1
175.601654	0.792264	city	2	1	0.794296	0.794296	0	1	0	0	CorrectCommission	1.700091	0.822904	0	1
176.393936	0.792309	city	6	1	0.745135	0.745135	0	1	0	0	CorrectCommission	1.175642	0.827056	0	1
177.186203	0.792226	city	10	1	0.696784	0.696784	0	1	0	0	CorrectCommission	0.659837	0.816805	0	1
177.978455	0.792264	city	1	1	0.744766	0.744766	0	1	0	0	CorrectCommission	1.171709	0.793981	0	1
178.770737	0.792321	city	10	1	0.745476	0.745476	0	1	0	0	CorrectCommission	1.179284	0.761578	0	1
179.563004	0.792205	city	8	1	0.699805	0.699805	0	1	0	0	CorrectCommission	0.692065	0.723301	0	1
180.355240	0.792269	city	1	1	0.653678	0.653678	0	1	0	0	CorrectCommission	0.199985	0.683019	1	1
181.147614	0.792479	city	2	1	0.645755	0.645755	0	1	0	0	CorrectCommission	0.115466	0.644219	1	1
181.939957	0.792209	city	6	1	0.645645	0.645645	0	1	0	0	CorrectCommission	0.114288	0.609569	1	1
182.732224	0.792319	city	9	1	0.597968	0.597968	0	1	0	0	CorrectCommission	0.394323	0.580647	1	1
183.524445	0.792107	mountain	2	0	0.000000	0.637885	1	0	0	0	CorrectOmission	0.031511	0.557871	1	1
184.316589	0.792204	city	8	1	0.695370	0.695370	0	1	0	0	CorrectCommission	0.644748	0.540625	1	1
185.108826	0.792264	city	1	1	0.700394	0.700394	0	1	0	0	CorrectCommission	0.698344	0.527536	1	1
185.901093	0.792265	city	8	1	0.708047	0.708047	0	1	0	0	CorrectCommission	0.779994	0.516880	1	1
186.693466	0.792484	city	10	1	0.651866	0.651866	0	1	0	0	CorrectCommission	0.180658	0.506959	1	0
187.485733	0.792048	city	2	1	0.804144	0.804144	0	1	0	0	CorrectCommission	1.805149	0.496463	1	0
188.277924	0.792331	city	8	1	0.695382	0.695382	0	1	0	0	CorrectCommission	0.644881	0.484608	1	0
189.070190	0.792202	city	7	1	0.645660	0.645660	0	1	0	0	CorrectCommission	0.114453	0.471315	1	0
189.862473	0.792370	mountain	8	0	0.000000	0.629434	1	0	0	0	CorrectOmission	0.058649	0.457067	1	0
190.654739	0.792155	city	1	1	0.646147	0.646147	0	1	0	0	CorrectCommission	0.119642	0.442720	1	0
191.447006	0.792374	city	4	1	0.695243	0.695243	0	1	0	0	CorrectCommission	0.643394	0.429298	1	0
192.239288	0.792196	city	2	1	0.695121	0.695121	0	1	0	0	CorrectCommission	0.642091	0.417734	1	0
193.031494	0.792227	city	3	1	0.650318	0.650318	0	1	0	0	CorrectCommission	0.164142	0.408717	1	0
193.823746	0.792261	city	6	1	0.645873	0.645873	0	1	0	0	CorrectCommission	0.116718	0.402553	1	0
194.616013	0.792265	mountain	7	0	0.000000	0.660254	1	0	0	0	CorrectOmission	0.270133	0.399120	1	0
195.408264	0.792268	mountain	8	0	0.000000	0.672405	1	0	0	0	CorrectOmission	0.399768	0.397899	1	0
196.200531	0.792260	city	7	1	0.661273	0.661273	0	1	0	0	CorrectCommission	0.281005	0.398097	1	0
196.992859	0.792375	city	10	1	0.605800	0.605800	0	1	0	0	CorrectCommission	0.310775	0.398795	1	0
197.785126	0.792156	city	3	1	0.703840	0.703840	0	1	0	0	CorrectCommission	0.735110	0.399106	1	0
198.577332	0.792265	city	6	1	0.709069	0.709069	0	1	0	0	CorrectCommission	0.790888	0.398305	1	0
199.369614	0.792289	city	3	1	0.696607	0.696607	0	1	0	0	CorrectCommission	0.657944	0.395938	1	0
200.161865	0.792243	city	8	1	0.606069	0.606069	0	1	0	0	CorrectCommission	0.307901	0.391852	1	0
200.954132	0.792262	city	9	1	0.652768	0.652768	0	1	0	0	CorrectCommission	0.190280	0.386198	1	0
201.746490	0.792481	mountain	5	0	0.000000	0.623870	1	0	0	0	CorrectOmission	0.117998	0.379332	1	0
202.538757	0.792047	city	8	1	0.595992	0.595992	0	1	0	0	CorrectCommission	0.415406	0.371739	1	0
203.330948	0.792340	city	7	1	0.645748	0.645748	0	1	0	0	CorrectCommission	0.115388	0.363952	1	0
204.123260	0.792272	city	6	1	0.695196	0.695196	0	1	0	0	CorrectCommission	0.642892	0.356544	1	0
204.915604	0.792400	city	2	1	0.695656	0.695656	0	1	0	0	CorrectCommission	0.647799	0.350025	1	0
205.707825	0.792054	city	9	1	0.645523	0.645523	0	1	0	0	CorrectCommission	0.112992	0.344914	1	0
206.500000	0.792314	city	8	1	0.609893	0.609893	0	1	0	0	CorrectCommission	0.267105	0.341718	1	0
207.292282	0.792241	city	3	1	0.603285	0.603285	0	1	0	0	CorrectCommission	0.337607	0.340917	1	0
208.084518	0.792234	city	10	1	0.596936	0.596936	0	1	0	0	CorrectCommission	0.405335	0.342976	1	0
208.876770	0.792269	mountain	4	0	0.000000	0.627764	1	0	0	0	CorrectOmission	0.076464	0.348324	1	0
209.669098	0.792366	city	8	1	0.645764	0.645764	0	1	0	0	CorrectCommission	0.115558	0.357314	1	0
210.461380	0.792223	city	3	1	0.600930	0.600930	0	1	0	0	CorrectCommission	0.362722	0.370165	1	0
211.253616	0.792228	city	5	1	0.698311	0.698311	0	1	0	0	CorrectCommission	0.676125	0.386930	1	0
212.045837	0.792239	mountain	4	0	0.000000	0.690967	1	0	0	0	CorrectOmission	0.597780	0.407433	1	0
212.838104	0.792266	city	10	1	0.649806	0.649806	0	1	0	0	CorrectCommission	0.158681	0.431248	1	0
213.630356	0.792262	city	8	1	0.645737	0.645737	0	1	0	0	CorrectCommission	0.115268	0.457683	1	0
214.422623	0.792262	mountain	1	0	0.000000	0.628542	1	0	0	0	CorrectOmission	0.068164	0.485774	1	0
215.214890	0.792265	city	6	1	0.645731	0.645731	0	1	0	0	CorrectCommission	0.115212	0.514348	1	0
216.007156	0.792269	city	4	1	0.744814	0.744814	0	1	0	0	CorrectCommission	1.172222	0.542105	1	0
216.799423	0.792263	mountain	2	0	0.000000	0.753131	1	0	0	0	CorrectOmission	1.260942	0.567734	1	0
217.591690	0.792263	city	9	1	0.695387	0.695387	0	1	0	0	CorrectCommission	0.644935	0.590059	1	0
218.383957	0.792286	city	8	1	0.596289	0.596289	0	1	0	0	CorrectCommission	0.412237	0.608127	1	0
219.176224	0.792249	city	4	1	0.559169	0.559169	0	1	0	0	CorrectCommission	0.808231	0.621257	1	0
219.968521	0.792335	city	5	1	0.558457	0.558457	0	1	0	0	CorrectCommission	0.815829	0.629059	1	0
220.760773	0.792188	city	8	1	0.558302	0.558302	0	1	0	0	CorrectCommission	0.817480	0.631478	1	0
221.553116	0.792482	city	2	1	0.656569	0.656569	0	1	0	0	CorrectCommission	0.230829	0.628752	1	0
222.345383	0.792060	city	9	1	0.645570	0.645570	0	1	0	0	CorrectCommission	0.113485	0.621417	1	0
223.137650	0.792469	city	5	1	0.695233	0.695233	0	1	0	0	CorrectCommission	0.643289	0.610312	1	0
223.929916	0.792051	city	1	1	0.794078	0.794078	0	1	0	0	CorrectCommission	1.697762	0.596530	1	0
224.722122	0.792369	city	9	1	0.749071	0.749071	0	1	0	0	CorrectCommission	1.217630	0.581415	1	0
225.514435	0.792264	city	8	1	0.662670	0.662670	0	1	0	0	CorrectCommission	0.295916	0.566514	1	0
226.306702	0.792265	city	5	1	0.646300	0.646300	0	1	0	0	CorrectCommission	0.121281	0.553434	1	0
227.099014	0.792374	city	2	1	0.645838	0.645838	0	1	0	0	CorrectCommission	0.116348	0.543647	1	0
227.891235	0.792064	city	9	1	0.646237	0.646237	0	1	0	0	CorrectCommission	0.120602	0.538314	1	0
228.683411	0.792276	city	7	1	0.695791	0.695791	0	1	0	0	CorrectCommission	0.649246	0.538110	1	0
229.475662	0.792237	city	3	1	0.602655	0.602655	0	1	0	0	CorrectCommission	0.344322	0.543093	1	0
230.267929	0.792284	city	1	1	0.596262	0.596262	0	1	0	0	CorrectCommission	0.412529	0.552703	1	0
231.060242	0.792352	city	9	1	0.653656	0.653656	0	1	0	0	CorrectCommission	0.199755	0.565785	1	0
231.852493	0.792157	mountain	9	0	0.000000	0.717244	1	0	0	0	CorrectOmission	0.878108	0.580739	1	0
232.644821	0.792483	city	2	1	0.745073	0.745073	0	1	0	0	CorrectCommission	1.174978	0.595685	1	0
233.437103	0.792079	city	6	1	0.695188	0.695188	0	1	0	0	CorrectCommission	0.642815	0.608713	1	0
234.229279	0.792291	city	7	1	0.596184	0.596184	0	1	0	0	CorrectCommission	0.413358	0.618123	1	0
235.021591	0.792314	city	1	1	0.646161	0.646161	0	1	0	0	CorrectCommission	0.119791	0.622619	1	0
235.813828	0.792159	city	4	1	0.548322	0.548322	0	1	0	0	CorrectCommission	0.923946	0.621499	1	0
236.606049	0.792287	city	9	1	0.503931	0.503931	0	1	0	0	CorrectCommission	1.397506	0.614725	1	0
237.398331	0.792282	city	1	1	0.546879	0.546879	0	1	0	0	CorrectCommission	0.939339	0.603010	1	0
238.190582	0.792226	city	8	1	0.512263	0.512263	0	1	0	0	CorrectCommission	1.308617	0.587747	1	0
238.982834	0.792266	city	5	1	0.645854	0.645854	0	1	0	0	CorrectCommission	0.116516	0.570823	1	0
239.775146	0.792370	city	1	1	0.645935	0.645935	0	1	0	0	CorrectCommission	0.117386	0.554427	1	0
240.567520	0.792373	mountain	9	0	0.000000	0.641952	1	0	0	0	CorrectOmission	0.074894	0.540714	1	0
241.359726	0.792046	city	3	1	0.645506	0.645506	0	1	0	0	CorrectCommission	0.112812	0.531524	1	0
242.151886	0.792266	mountain	1	0	0.000000	0.668201	1	0	0	0	CorrectOmission	0.354914	0.528159	1	0
242.944153	0.792268	city	10	1	0.695310	0.695310	0	1	0	0	CorrectCommission	0.644107	0.531215	1	0
243.736420	0.792265	city	7	1	0.712107	0.712107	0	1	0	0	CorrectCommission	0.823302	0.540498	1	0
244.528687	0.792260	city	6	1	0.695257	0.695257	0	1	0	0	CorrectCommission	0.643549	0.555010	1	0
245.321060	0.792484	city	9	1	0.645830	0.645830	0	1	0	0	CorrectCommission	0.116261	0.573077	1	0
246.113327	0.792061	city	8	1	0.596158	0.596158	0	1	0	0	CorrectCommission	0.413632	0.592494	1	1
246.905487	0.792251	city	2	1	0.596209	0.596209	0	1	0	0	CorrectCommission	0.413086	0.610752	1	1
247.697845	0.792483	city	9	1	0.645881	0.645881	0	1	0	0	CorrectCommission	0.116805	0.625369	1	1
248.490219	0.792265	city	7	1	0.745104	0.745104	0	1	0	0	CorrectCommission	1.175316	0.634216	1	1
249.282440	0.792152	city	2	1	0.794079	0.794079	0	1	0	0	CorrectCommission	1.697771	0.635789	1	1
250.074585	0.792158	city	1	1	0.744716	0.744716	0	1	0	0	CorrectCommission	1.171172	0.629503	1	1
250.866806	0.792268	city	6	1	0.745795	0.745795	0	1	0	0	CorrectCommission	1.182677	0.615881	1	1
251.659073	0.792260	city	10	1	0.646656	0.646656	0	1	0	0	CorrectCommission	0.125072	0.596515	1	1
252.451431	0.792483	city	4	1	0.706341	0.706341	0	1	0	0	CorrectCommission	0.761795	0.573951	1	1
253.243729	0.792114	city	1	1	0.596181	0.596181	0	1	0	0	CorrectCommission	0.413389	0.551349	1	1
254.035889	0.792200	city	7	1	0.646494	0.646494	0	1	0	0	CorrectCommission	0.123348	0.532129	1	1
254.828156	0.792320	city	9	1	0.645957	0.645957	0	1	0	0	CorrectCommission	0.117617	0.519570	1	1
255.620422	0.792221	city	2	1	0.597172	0.597172	0	1	0	0	CorrectCommission	0.402819	0.516351	1	1
256.412689	0.792292	city	4	1	0.645745	0.645745	0	1	0	0	CorrectCommission	0.115357	0.524243	1	1
257.204926	0.792221	city	6	1	0.645715	0.645715	0	1	0	0	CorrectCommission	0.115038	0.543875	1	1
257.997284	0.792485	city	2	1	0.596235	0.596235	0	1	0	0	CorrectCommission	0.412807	0.574611	1	1
258.789612	0.792156	city	5	1	0.548721	0.548721	0	1	0	0	CorrectCommission	0.919692	0.614573	1	1
259.581757	0.792156	mountain	4	0	0.000000	0.636628	1	0	0	0	CorrectOmission	0.018094	0.660789	1	1
260.374084	0.792480	city	3	1	0.695293	0.695293	0	1	0	0	CorrectCommission	0.643932	0.709501	1	1
261.166382	0.792086	city	8	1	0.560053	0.560053	0	1	0	0	CorrectCommission	0.798798	0.756468	0	1
261.958557	0.792299	city	7	1	0.596204	0.596204	0	1	0	0	CorrectCommission	0.413144	0.797450	0	1
262.750793	0.792191	city	1	1	0.497197	0.497197	0	1	0	0	CorrectCommission	1.469343	0.828658	0	1
263.543030	0.792266	city	6	1	0.447665	0.447665	0	1	0	0	CorrectCommission	1.997740	0.847119	0	1
264.335297	0.792268	city	3	1	0.465262	0.465262	0	1	0	0	CorrectCommission	1.810016	0.851037	0	1
265.127625	0.792370	city	8	1	0.547193	0.547193	0	1	0	0	CorrectCommission	0.935988	0.839966	0	1
265.919891	0.792159	mountain	5	0	0.000000	0.540795	1	0	0	0	CorrectOmission	1.004237	0.814818	0	1
266.712128	0.792317	city	5	1	0.546725	0.546725	0	1	0	0	CorrectCommission	0.940983	0.777698	0	1
267.504486	0.792427	city	2	1	0.665636	0.665636	0	1	0	0	CorrectCommission	0.327552	0.731675	0	1
268.296722	0.792047	city	7	1	0.695702	0.695702	0	1	0	0	CorrectCommission	0.648291	0.680403	1	1
269.088898	0.792268	city	8	1	0.646535	0.646535	0	1	0	0	CorrectCommission	0.123782	0.627757	1	1
269.881165	0.792262	city	10	1	0.546968	0.546968	0	1	0	0	CorrectCommission	0.938392	0.577492	1	1
270.673462	0.792373	city	6	1	0.696893	0.696893	0	1	0	0	CorrectCommission	0.661001	0.532887	1	1
271.465851	0.792374	city	5	1	0.646837	0.646837	0	1	0	0	CorrectCommission	0.127002	0.496569	1	1
272.258179	0.792266	mountain	1	0	0.000000	0.642202	1	0	0	0	CorrectOmission	0.077556	0.470313	1	1
273.050415	0.792265	city	3	1	0.652149	0.652149	0	1	0	0	CorrectCommission	0.183674	0.454954	1	1
273.842682	0.792263	city	4	1	0.645840	0.645840	0	1	0	0	CorrectCommission	0.116368	0.450349	1	1
274.634888	0.792155	city	7	1	0.645498	0.645498	0	1	0	0	CorrectCommission	0.112718	0.455467	1	1
275.427063	0.792157	city	3	1	0.596133	0.596133	0	1	0	0	CorrectCommission	0.413903	0.468516	1	1
276.219269	0.792290	city	6	1	0.653687	0.653687	0	1	0	0	CorrectCommission	0.200081	0.487150	1	1
277.011536	0.792242	city	9	1	0.695150	0.695150	0	1	0	0	CorrectCommission	0.642404	0.508761	1	1
277.803833	0.792325	city	4	1	0.701766	0.701766	0	1	0	0	CorrectCommission	0.712984	0.530727	1	1
278.596161	0.792309	city	5	1	0.547140	0.547140	0	1	0	0	CorrectCommission	0.936553	0.550702	1	1
279.388397	0.792161	city	1	1	0.506330	0.506330	0	1	0	0	CorrectCommission	1.371910	0.566819	1	1
280.180634	0.792369	city	3	1	0.597088	0.597088	0	1	0	0	CorrectCommission	0.403711	0.577802	1	1
280.972931	0.792199	mountain	6	0	0.000000	0.654856	1	0	0	0	CorrectOmission	0.212557	0.583041	1	1
281.765259	0.792440	city	5	1	0.697928	0.697928	0	1	0	0	CorrectCommission	0.672041	0.582514	1	1
282.557617	0.792266	city	3	1	0.744596	0.744596	0	1	0	0	CorrectCommission	1.169888	0.576688	1	1
283.349762	0.792048	city	10	1	0.611397	0.611397	0	1	0	0	CorrectCommission	0.251060	0.566349	1	1
284.141937	0.792275	city	8	1	0.597116	0.597116	0	1	0	0	CorrectCommission	0.403409	0.552493	1	1
284.934174	0.792255	city	6	1	0.547422	0.547422	0	1	0	0	CorrectCommission	0.933544	0.536120	1	1
285.726471	0.792310	city	4	1	0.599836	0.599836	0	1	0	0	CorrectCommission	0.374394	0.518173	1	1
286.518799	0.792327	mountain	8	0	0.000000	0.614982	1	0	0	0	CorrectOmission	0.212817	0.499483	1	1
287.311127	0.792373	city	1	1	0.645911	0.645911	0	1	0	0	CorrectCommission	0.117128	0.480728	1	1
288.103363	0.792048	city	6	1	0.745673	0.745673	0	1	0	0	CorrectCommission	1.181378	0.462506	1	1
288.895508	0.792266	city	1	1	0.655425	0.655425	0	1	0	0	CorrectCommission	0.218626	0.445361	1	1
289.687775	0.792283	city	10	1	0.596491	0.596491	0	1	0	0	CorrectCommission	0.410076	0.429888	1	1
290.480042	0.792259	city	8	1	0.596189	0.596189	0	1	0	0	CorrectCommission	0.413302	0.416739	1	1
291.272339	0.792296	city	7	1	0.695299	0.695299	0	1	0	0	CorrectCommission	0.643997	0.406616	1	1
292.064575	0.792219	city	1	1	0.645689	0.645689	0	1	0	0	CorrectCommission	0.114756	0.400247	1	1
292.856842	0.792271	city	5	1	0.605726	0.605726	0	1	0	0	CorrectCommission	0.311566	0.398303	1	1
293.649109	0.792262	city	4	1	0.596553	0.596553	0	1	0	0	CorrectCommission	0.409422	0.401271	1	1
294.441345	0.792262	city	7	1	0.615821	0.615821	0	1	0	0	CorrectCommission	0.203874	0.409347	1	1
295.233643	0.792291	city	2	1	0.645859	0.645859	0	1	0	0	CorrectCommission	0.116570	0.422367	1	1
296.025909	0.792284	city	4	1	0.645724	0.645724	0	1	0	0	CorrectCommission	0.115130	0.439802	1	1
296.818237	0.792328	city	6	1	0.596189	0.596189	0	1	0	0	CorrectCommission	0.413307	0.460765	1	1
297.610474	0.792155	city	10	1	0.555860	0.555860	0	1	0	0	CorrectCommission	0.843533	0.484177	1	1
298.402679	0.792270	city	7	1	0.647226	0.647226	0	1	0	0	CorrectCommission	0.131161	0.508936	1	1
299.194977	0.792317	city	1	1	0.546694	0.546694	0	1	0	0	CorrectCommission	0.941307	0.534168	1	1
299.987244	0.792208	city	9	1	0.646196	0.646196	0	1	0	0	CorrectCommission	0.120168	0.559388	1	1
300.779480	0.792266	city	2	1	0.804436	0.804436	0	1	0	0	CorrectCommission	1.808258	0.584755	1	1
301.571777	0.792329	city	1	1	0.695407	0.695407	0	1	0	0	CorrectCommission	0.645148	0.611042	1	1
302.364105	0.792307	city	10	1	0.645708	0.645708	0	1	0	0	CorrectCommission	0.114958	0.639666	1	1
303.156311	0.792159	mountain	3	1	0.695155	0.695155	0	0	1	0	CommissionError	0.642459	0.672466	1	1
303.948578	0.792370	city	2	1	0.695344	0.695344	0	1	0	0	CorrectCommission	0.644476	0.711362	1	1
304.740845	0.792162	city	1	1	0.646210	0.646210	0	1	0	0	CorrectCommission	0.120320	0.757995	0	1
305.533081	0.792264	city	3	1	0.754598	0.754598	0	1	0	0	CorrectCommission	1.276589	0.813289	0	0
306.325348	0.792317	mountain	6	1	0.657167	0.657167	0	0	1	0	CommissionError	0.237201	0.877063	0	0
307.117737	0.792425	city	4	1	0.695269	0.695269	0	1	0	0	CorrectCommission	0.643679	0.947824	0	0
307.909973	0.792047	mountain	6	0	0.000000	0.702530	1	0	0	0	CorrectOmission	0.721140	1.022601	0	0
308.702118	0.792269	city	9	1	0.699051	0.699051	0	1	0	0	CorrectCommission	0.684017	1.097089	0	0
309.494415	0.792297	city	7	1	0.704931	0.704931	0	1	0	0	CorrectCommission	0.746745	1.166027	0	0
310.286682	0.792232	city	6	1	0.555026	0.555026	0	1	0	0	CorrectCommission	0.852429	1.223758	0	0
311.079041	0.792478	city	3	1	0.893311	0.893311	0	1	0	0	CorrectCommission	2.756372	1.264939	0	0
311.871277	0.792052	city	1	1	0.847107	0.847107	0	1	0	0	CorrectCommission	2.263474	1.285269	0	0
312.663452	0.792262	city	4	1	0.902440	0.902440	0	1	0	0	CorrectCommission	2.853760	1.282205	0	0
313.455811	0.792481	city	3	1	0.843822	0.843822	0	1	0	0	CorrectCommission	2.228423	1.255318	0	0
314.248077	0.792048	mountain	9	0	0.000000	0.796094	1	0	0	0	CorrectOmission	1.719272	1.206489	0	0
315.040283	0.792374	city	3	1	0.751460	0.751460	0	1	0	0	CorrectCommission	1.243114	1.139685	0	0
315.832550	0.792157	city	4	1	0.702119	0.702119	0	1	0	0	CorrectCommission	0.716753	1.060470	0	0
316.624817	0.792374	city	5	1	0.596866	0.596866	0	1	0	0	CorrectCommission	0.406084	0.975303	0	0
317.417145	0.792265	mountain	4	0	0.000000	0.627392	1	0	0	0	CorrectOmission	0.080432	0.890816	0	0
318.209381	0.792209	city	3	1	0.695144	0.695144	0	1	0	0	CorrectCommission	0.642343	0.813047	0	0
319.001587	0.792216	city	5	1	0.701568	0.701568	0	1	0	0	CorrectCommission	0.710871	0.746906	0	0
319.793823	0.792262	city	9	1	0.645916	0.645916	0	1	0	0	CorrectCommission	0.117185	0.695815	1	0
320.586090	0.792264	city	2	1	0.646588	0.646588	0	1	0	0	CorrectCommission	0.124349	0.661524	1	0
321.378418	0.792372	city	5	1	0.614564	0.614564	0	1	0	0	CorrectCommission	0.217284	0.644146	1	0
322.170685	0.792191	mountain	1	0	0.000000	0.567008	1	0	0	0	CorrectOmission	0.724599	0.642382	1	0
322.962891	0.792230	city	10	1	0.550303	0.550303	0	1	0	0	CorrectCommission	0.902814	0.653785	1	0
323.755188	0.792327	city	5	1	0.610827	0.610827	0	1	0	0	CorrectCommission	0.257150	0.675175	1	0
324.547455	0.792203	mountain	9	0	0.000000	0.601212	1	0	0	0	CorrectOmission	0.359717	0.703007	1	0
325.339722	0.792326	city	4	1	0.565419	0.565419	0	1	0	0	CorrectCommission	0.741556	0.733678	0	0
326.132080	0.792419	city	10	1	0.547406	0.547406	0	1	0	0	CorrectCommission	0.933712	0.763850	0	0
326.924316	0.792045	city	8	1	0.497412	0.497412	0	1	0	0	CorrectCommission	1.467043	0.790693	0	0
327.716522	0.792375	city	7	1	0.516827	0.516827	0	1	0	0	CorrectCommission	1.259928	0.812031	0	0
328.508911	0.792380	city	4	1	0.596494	0.596494	0	1	0	0	CorrectCommission	0.410050	0.826409	0	0
329.301117	0.792045	city	8	1	0.546520	0.546520	0	1	0	0	CorrectCommission	0.943171	0.833109	0	0
330.093262	0.792262	city	5	1	0.456892	0.456892	0	1	0	0	CorrectCommission	1.899306	0.832035	0	0
330.885529	0.792262	city	6	1	0.562428	0.562428	0	1	0	0	CorrectCommission	0.773462	0.823591	0	0
331.677795	0.792265	city	3	1	0.659687	0.659687	0	1	0	0	CorrectCommission	0.264094	0.808591	0	0
332.470062	0.792264	city	5	1	0.596557	0.596557	0	1	0	0	CorrectCommission	0.409378	0.788087	0	0
333.262390	0.792374	city	7	1	0.600024	0.600024	0	1	0	0	CorrectCommission	0.372393	0.763260	0	0
334.054657	0.792159	city	1	1	0.745238	0.745238	0	1	0	0	CorrectCommission	1.176741	0.735392	0	0
334.846863	0.792261	city	2	1	0.794466	0.794466	0	1	0	0	CorrectCommission	1.701904	0.705810	1	0
335.639130	0.792268	city	3	1	0.712360	0.712360	0	1	0	0	CorrectCommission	0.826002	0.675880	1	0
336.431396	0.792268	city	5	1	0.596411	0.596411	0	1	0	0	CorrectCommission	0.410936	0.646977	1	0
337.223663	0.792261	city	9	1	0.614434	0.614434	0	1	0	0	CorrectCommission	0.218664	0.620406	1	0
338.015930	0.792262	city	1	1	0.645825	0.645825	0	1	0	0	CorrectCommission	0.116215	0.597285	1	0
338.808289	0.792485	city	10	1	0.661950	0.661950	0	1	0	0	CorrectCommission	0.288232	0.578443	1	0
339.600586	0.792110	city	6	1	0.744611	0.744611	0	1	0	0	CorrectCommission	1.170051	0.564325	1	0
340.392792	0.792308	city	5	1	0.605324	0.605324	0	1	0	0	CorrectCommission	0.315854	0.554927	1	0
341.185059	0.792233	city	6	1	0.645681	0.645681	0	1	0	0	CorrectCommission	0.114677	0.549896	1	0
341.977386	0.792406	city	8	1	0.596618	0.596618	0	1	0	0	CorrectCommission	0.408722	0.548552	1	0
342.769623	0.792047	city	2	1	0.596115	0.596115	0	1	0	0	CorrectCommission	0.414095	0.550034	1	0
343.561890	0.792482	city	6	1	0.563954	0.563954	0	1	0	0	CorrectCommission	0.757179	0.553484	1	0
344.354187	0.792158	city	8	1	0.596254	0.596254	0	1	0	0	CorrectCommission	0.412614	0.558234	1	0
345.146362	0.792159	city	10	1	0.497107	0.497107	0	1	0	0	CorrectCommission	1.470303	0.563965	1	0
345.938568	0.792260	city	8	1	0.564341	0.564341	0	1	0	0	CorrectCommission	0.753058	0.570736	1	0
346.730835	0.792266	city	5	1	0.602974	0.602974	0	1	0	0	CorrectCommission	0.340921	0.578998	1	0
347.523102	0.792266	city	6	1	0.700131	0.700131	0	1	0	0	CorrectCommission	0.695545	0.589404	1	0
348.315460	0.792480	city	8	1	0.645885	0.645885	0	1	0	0	CorrectCommission	0.116852	0.602644	1	0
349.107788	0.792157	city	4	1	0.610368	0.610368	0	1	0	0	CorrectCommission	0.262045	0.619209	1	0
349.900055	0.792373	city	8	1	0.645752	0.645752	0	1	0	0	CorrectCommission	0.115437	0.639165	1	0
350.692291	0.792088	city	3	1	0.695412	0.695412	0	1	0	0	CorrectCommission	0.645200	0.662055	1	0
351.484497	0.792333	city	1	1	0.695220	0.695220	0	1	0	0	CorrectCommission	0.643153	0.686842	1	0
352.276733	0.792154	city	7	1	0.745181	0.745181	0	1	0	0	CorrectCommission	1.176131	0.712028	1	0
353.068939	0.792278	city	1	1	0.744815	0.744815	0	1	0	0	CorrectCommission	1.172227	0.735819	0	0
353.861237	0.792287	city	5	1	0.695263	0.695263	0	1	0	0	CorrectCommission	0.643616	0.756370	0	0
354.653503	0.792230	city	2	1	0.695279	0.695279	0	1	0	0	CorrectCommission	0.643778	0.772064	0	0
355.445862	0.792483	city	1	1	0.645756	0.645756	0	1	0	0	CorrectCommission	0.115470	0.781733	0	0
356.238159	0.792155	city	2	1	0.503756	0.503756	0	1	0	0	CorrectCommission	1.399369	0.784899	0	0
357.030334	0.792155	city	9	1	0.447753	0.447753	0	1	0	0	CorrectCommission	1.996803	0.781812	0	0
357.822632	0.792484	city	10	1	0.497223	0.497223	0	1	0	0	CorrectCommission	1.469060	0.773514	0	0
358.614960	0.792154	city	9	1	0.645523	0.645523	0	1	0	0	CorrectCommission	0.112986	0.761709	0	0
359.407104	0.792159	city	10	1	0.655019	0.655019	0	1	0	0	CorrectCommission	0.214287	0.748514	0	0
360.199432	0.792479	city	1	1	0.695385	0.695385	0	1	0	0	CorrectCommission	0.644911	0.736093	0	0
360.991699	0.792052	city	4	1	0.698553	0.698553	0	1	0	0	CorrectCommission	0.678708	0.726331	0	0
361.783875	0.792298	city	7	1	0.695258	0.695258	0	1	0	0	CorrectCommission	0.643557	0.720533	0	0
362.576141	0.792227	city	9	1	0.608937	0.608937	0	1	0	0	CorrectCommission	0.277308	0.719157	1	0
363.368378	0.792268	city	3	1	0.546839	0.546839	0	1	0	0	CorrectCommission	0.939764	0.721744	0	0
364.160675	0.792275	city	7	1	0.646563	0.646563	0	1	0	0	CorrectCommission	0.124078	0.726978	0	0
364.952911	0.792252	city	6	1	0.656644	0.656644	0	1	0	0	CorrectCommission	0.231628	0.732928	0	1
365.745239	0.792372	mountain	5	0	0.000000	0.700981	1	0	0	0	CorrectOmission	0.704613	0.737381	0	1
366.537506	0.792158	mountain	4	0	0.000000	0.755049	1	0	0	0	CorrectOmission	1.281400	0.738264	0	1
367.329712	0.792268	city	2	1	0.794321	0.794321	0	1	0	0	CorrectCommission	1.700355	0.734064	0	1
368.122040	0.792369	city	7	1	0.794273	0.794273	0	1	0	0	CorrectCommission	1.699842	0.724163	0	1
368.914337	0.792220	city	1	1	0.709607	0.709607	0	1	0	0	CorrectCommission	0.796629	0.708992	1	1
369.706543	0.792200	city	5	1	0.695203	0.695203	0	1	0	0	CorrectCommission	0.642976	0.690005	1	1
370.498779	0.792264	city	2	1	0.646929	0.646929	0	1	0	0	CorrectCommission	0.127991	0.669412	1	1
371.291046	0.792267	mountain	7	1	0.596385	0.596385	0	0	1	0	CommissionError	0.411213	0.649818	1	1
372.083313	0.792264	city	3	1	0.695328	0.695328	0	1	0	0	CorrectCommission	0.644300	0.633795	1	1
372.875671	0.792483	city	6	1	0.645739	0.645739	0	1	0	0	CorrectCommission	0.115297	0.623438	1	1
373.668060	0.792265	city	2	1	0.645967	0.645967	0	1	0	0	CorrectCommission	0.117721	0.620039	1	1
374.460205	0.792049	city	7	1	0.596913	0.596913	0	1	0	0	CorrectCommission	0.405582	0.623940	1	1
375.252380	0.792307	city	4	1	0.610146	0.610146	0	1	0	0	CorrectCommission	0.264414	0.634587	1	1
376.044647	0.792222	city	8	1	0.547126	0.547126	0	1	0	0	CorrectCommission	0.936702	0.650770	1	1
376.836945	0.792372	city	7	1	0.553669	0.553669	0	1	0	0	CorrectCommission	0.866907	0.670899	1	1
377.629211	0.792157	mountain	3	0	0.000000	0.551816	1	0	0	0	CorrectOmission	0.886673	0.693396	1	1
378.421478	0.792372	city	7	1	0.600986	0.600986	0	1	0	0	CorrectCommission	0.362126	0.717005	1	1
379.213745	0.792160	city	8	1	0.760599	0.760599	0	1	0	0	CorrectCommission	1.340613	0.741011	0	1
380.005951	0.792267	city	1	1	0.744757	0.744757	0	1	0	0	CorrectCommission	1.171605	0.765254	0	1
380.798218	0.792256	city	9	1	0.744946	0.744946	0	1	0	0	CorrectCommission	1.173621	0.790019	0	1
381.590576	0.792484	city	2	1	0.695297	0.695297	0	1	0	0	CorrectCommission	0.643969	0.815753	0	1
382.382904	0.792157	city	1	1	0.654694	0.654694	0	1	0	0	CorrectCommission	0.210825	0.842733	0	1
383.175171	0.792372	city	6	1	0.558744	0.558744	0	1	0	0	CorrectCommission	0.812762	0.870642	0	1
383.967377	0.792051	city	2	1	0.607487	0.607487	0	1	0	0	CorrectCommission	0.292778	0.898345	0	1
384.759583	0.792370	city	1	1	0.596234	0.596234	0	1	0	0	CorrectCommission	0.412820	0.923894	0	1
385.551880	0.792186	city	8	1	0.654818	0.654818	0	1	0	0	CorrectCommission	0.212150	0.944723	0	1
386.344147	0.792344	city	7	1	0.645933	0.645933	0	1	0	0	CorrectCommission	0.117364	0.958139	0	1
387.136383	0.792160	city	4	1	0.943287	0.943287	0	1	0	0	CorrectCommission	3.289510	0.961904	0	1
387.928589	0.792263	mountain	8	0	0.000000	0.932575	1	0	0	0	CorrectOmission	3.175241	0.954780	0	1
388.720856	0.792262	city	6	1	0.794263	0.794263	0	1	0	0	CorrectCommission	1.699738	0.937098	0	1
389.513123	0.792269	city	4	1	0.708815	0.708815	0	1	0	0	CorrectCommission	0.788188	0.910871	0	1
390.305389	0.792262	city	8	1	0.596210	0.596210	0	1	0	0	CorrectCommission	0.413073	0.879614	0	1
391.097656	0.792262	city	2	1	0.605235	0.605235	0	1	0	0	CorrectCommission	0.316802	0.847836	0	1
391.890015	0.792483	city	3	1	0.596248	0.596248	0	1	0	0	CorrectCommission	0.412675	0.820303	0	1
392.682281	0.792049	city	7	1	0.596060	0.596060	0	1	0	0	CorrectCommission	0.414682	0.801223	0	1
393.474457	0.792263	city	10	1	0.645813	0.645813	0	1	0	0	CorrectCommission	0.116077	0.793503	0	1
394.266724	0.792268	city	2	1	0.647631	0.647631	0	1	0	0	CorrectCommission	0.135474	0.798246	0	1
395.058990	0.792261	city	6	1	0.646392	0.646392	0	1	0	0	CorrectCommission	0.122260	0.814554	0	1
395.851227	0.792267	city	9	1	0.645836	0.645836	0	1	0	0	CorrectCommission	0.116326	0.839672	0	1
396.643524	0.792317	city	5	1	0.611033	0.611033	0	1	0	0	CorrectCommission	0.254946	0.869482	0	1
397.435791	0.792228	city	4	1	0.899748	0.899748	0	1	0	0	CorrectCommission	2.825038	0.899184	0	1
398.228058	0.792248	city	5	1	0.794272	0.794272	0	1	0	0	CorrectCommission	1.699830	0.924029	0	1
399.020294	0.792269	city	8	1	0.794347	0.794347	0	1	0	0	CorrectCommission	1.700629	0.940164	0	1
399.812622	0.792369	city	9	1	0.745328	0.745328	0	1	0	0	CorrectCommission	1.177695	0.945078	0	1
400.604889	0.792155	mountain	5	0	0.000000	0.740888	1	0	0	0	CorrectOmission	1.130340	0.937877	0	1
401.397156	0.792374	city	9	1	0.744777	0.744777	0	1	0	0	CorrectCommission	1.171827	0.919263	0	1
402.189423	0.792199	mountain	2	0	0.000000	0.720742	1	0	0	0	CorrectOmission	0.915421	0.891217	0	1
402.981628	0.792222	city	10	1	0.695548	0.695548	0	1	0	0	CorrectCommission	0.646654	0.856574	0	1
403.773895	0.792266	city	2	1	0.695961	0.695961	0	1	0	0	CorrectCommission	0.651062	0.818475	0	1
404.566193	0.792370	city	7	1	0.645753	0.645753	0	1	0	0	CorrectCommission	0.115446	0.779827	0	1
405.358459	0.792162	city	3	1	0.596294	0.596294	0	1	0	0	CorrectCommission	0.412177	0.742979	0	1
406.150726	0.792370	city	9	1	0.548033	0.548033	0	1	0	0	CorrectCommission	0.927025	0.709478	1	1
406.943024	0.792210	city	10	1	0.546631	0.546631	0	1	0	0	CorrectCommission	0.941987	0.680026	1	1
407.735229	0.792210	city	6	1	0.599877	0.599877	0	1	0	0	CorrectCommission	0.373961	0.654578	1	1
408.527527	0.792373	city	3	1	0.596406	0.596406	0	1	0	0	CorrectCommission	0.410985	0.632533	1	1
409.319855	0.792265	mountain	8	0	0.000000	0.685752	1	0	0	0	CorrectOmission	0.542151	0.612971	1	1
410.112061	0.792156	city	7	1	0.744709	0.744709	0	1	0	0	CorrectCommission	1.171101	0.594932	1	1
410.904266	0.792264	city	10	1	0.650073	0.650073	0	1	0	0	CorrectCommission	0.161523	0.577617	1	1
411.696655	0.792482	city	3	1	0.744811	0.744811	0	1	0	0	CorrectCommission	1.172189	0.560574	1	1
412.488922	0.792061	city	10	1	0.708888	0.708888	0	1	0	0	CorrectCommission	0.788960	0.543677	1	1
413.281128	0.792358	city	8	1	0.646241	0.646241	0	1	0	0	CorrectCommission	0.120647	0.527160	1	1
414.073395	0.792157	city	3	1	0.615707	0.615707	0	1	0	0	CorrectCommission	0.205088	0.511512	1	1
414.865692	0.792483	city	1	1	0.596267	0.596267	0	1	0	0	CorrectCommission	0.412472	0.497267	1	1
415.657990	0.792087	city	10	1	0.596440	0.596440	0	1	0	0	CorrectCommission	0.410624	0.484937	1	1
416.450195	0.792335	city	7	1	0.711058	0.711058	0	1	0	0	CorrectCommission	0.812105	0.474846	1	1
417.242493	0.792263	city	8	1	0.652450	0.652450	0	1	0	0	CorrectCommission	0.186885	0.467043	1	1
418.034698	0.792158	city	6	1	0.695202	0.695202	0	1	0	0	CorrectCommission	0.642956	0.461289	1	1
418.826935	0.792293	city	10	1	0.645907	0.645907	0	1	0	0	CorrectCommission	0.117081	0.457054	1	1
419.619202	0.792236	city	1	1	0.596270	0.596270	0	1	0	0	CorrectCommission	0.412442	0.453604	1	1
420.411438	0.792264	mountain	4	0	0.000000	0.609663	1	0	0	0	CorrectOmission	0.269561	0.450146	1	1
421.203766	0.792371	city	5	1	0.658090	0.658090	0	1	0	0	CorrectCommission	0.247055	0.446023	1	1
421.996033	0.792169	city	1	1	0.713554	0.713554	0	1	0	0	CorrectCommission	0.838743	0.440930	1	1
422.788239	0.792255	city	8	1	0.745143	0.745143	0	1	0	0	CorrectCommission	1.175727	0.435078	1	1
423.580505	0.792265	city	6	1	0.695281	0.695281	0	1	0	0	CorrectCommission	0.643806	0.429318	1	1
424.372772	0.792261	city	4	1	0.645673	0.645673	0	1	0	0	CorrectCommission	0.114584	0.425172	1	0
425.165100	0.792374	city	5	1	0.600868	0.600868	0	1	0	0	CorrectCommission	0.363387	0.424767	1	0
425.957367	0.792193	city	7	1	0.645647	0.645647	0	1	0	0	CorrectCommission	0.114308	0.430557	1	0
426.749573	0.792228	city	10	1	0.600974	0.600974	0	1	0	0	CorrectCommission	0.362259	0.445044	1	0
427.541840	0.792265	city	6	1	0.596949	0.596949	0	1	0	0	CorrectCommission	0.405198	0.470392	1	0
428.334198	0.792483	city	7	1	0.646003	0.646003	0	1	0	0	CorrectCommission	0.118115	0.508094	1	0
429.126465	0.792045	mountain	8	0	0.000000	0.654267	1	0	0	0	CorrectOmission	0.206269	0.558619	1	0
429.918610	0.792267	city	9	1	0.646101	0.646101	0	1	0	0	CorrectCommission	0.119160	0.621216	1	0
430.710876	0.792267	city	5	1	0.645869	0.645869	0	1	0	0	CorrectCommission	0.116684	0.693857	1	0
431.503265	0.792479	city	6	1	0.646200	0.646200	0	1	0	0	CorrectCommission	0.120210	0.773326	0	0
432.295532	0.792066	city	9	1	0.598711	0.598711	0	1	0	0	CorrectCommission	0.386403	0.855521	0	0
433.087708	0.792295	city	4	1	0.497920	0.497920	0	1	0	0	CorrectCommission	1.461623	0.935828	0	0
433.880035	0.792325	city	6	1	0.348682	0.348682	0	1	0	0	CorrectCommission	3.053681	1.009589	0	0
434.672272	0.792154	city	3	1	0.497135	0.497135	0	1	0	0	CorrectCommission	1.470005	1.072589	0	0
435.464478	0.792265	city	7	1	0.513807	0.513807	0	1	0	0	CorrectCommission	1.292151	1.121492	0	0
436.256744	0.792269	city	6	1	0.546784	0.546784	0	1	0	0	CorrectCommission	0.940349	1.154022	0	0
437.049042	0.792314	city	9	1	0.745606	0.745606	0	1	0	0	CorrectCommission	1.180667	1.169105	0	0
437.841309	0.792214	mountain	9	0	0.000000	0.789675	1	0	0	0	CorrectOmission	1.650788	1.166906	0	0
438.633545	0.792263	city	6	1	0.749462	0.749462	0	1	0	0	CorrectCommission	1.221802	1.148755	0	0
439.425812	0.792264	city	1	1	0.695439	0.695439	0	1	0	0	CorrectCommission	0.645493	1.117028	0	0
440.218048	0.792265	city	6	1	0.853262	0.853262	0	1	0	0	CorrectCommission	2.329133	1.075004	0	0
441.010315	0.792264	city	2	1	0.803539	0.803539	0	1	0	0	CorrectCommission	1.798695	1.026613	0	0
441.802612	0.792329	city	9	1	0.696657	0.696657	0	1	0	0	CorrectCommission	0.658480	0.976242	0	0
442.594940	0.792310	city	8	1	0.695231	0.695231	0	1	0	0	CorrectCommission	0.643267	0.928360	0	0
443.387268	0.792347	city	6	1	0.612572	0.612572	0	1	0	0	CorrectCommission	0.238535	0.887102	0	0
444.179474	0.792083	city	9	1	0.645684	0.645684	0	1	0	0	CorrectCommission	0.114709	0.855880	0	0
444.971710	0.792365	city	5	1	0.706591	0.706591	0	1	0	0	CorrectCommission	0.764455	0.837003	0	0
445.764069	0.792372	city	9	1	0.695224	0.695224	0	1	0	0	CorrectCommission	0.643196	0.831370	0	0
446.556305	0.792048	city	3	1	0.653496	0.653496	0	1	0	0	CorrectCommission	0.198048	0.838380	0	0
447.348450	0.792267	city	4	1	0.751572	0.751572	0	1	0	0	CorrectCommission	1.244315	0.855971	0	0
448.140839	0.792486	city	5	1	0.645670	0.645670	0	1	0	0	CorrectCommission	0.114561	0.880809	0	0
448.933136	0.792119	city	6	1	0.645952	0.645952	0	1	0	0	CorrectCommission	0.117570	0.908859	0	0
449.725281	0.792192	city	8	1	0.546932	0.546932	0	1	0	0	CorrectCommission	0.938775	0.935881	0	0
450.517517	0.792260	city	7	1	0.451660	0.451660	0	1	0	0	CorrectCommission	1.955120	0.958145	0	0
451.309814	0.792374	city	8	1	0.448373	0.448373	0	1	0	0	CorrectCommission	1.990194	0.973034	0	0
452.102142	0.792265	city	1	1	0.497295	0.497295	0	1	0	0	CorrectCommission	1.468296	0.979589	0	0
452.894409	0.792263	city	6	1	0.448261	0.448261	0	1	0	0	CorrectCommission	1.991386	0.978663	0	0
453.686676	0.792266	city	1	1	0.463468	0.463468	0	1	0	0	CorrectCommission	1.829155	0.972766	0	0
454.478882	0.792158	city	6	1	0.654693	0.654693	0	1	0	0	CorrectCommission	0.210811	0.965624	0	0
455.271088	0.792260	city	1	1	0.664101	0.664101	0	1	0	0	CorrectCommission	0.311180	0.961443	0	0
456.063354	0.792271	city	3	1	0.598746	0.598746	0	1	0	0	CorrectCommission	0.386028	0.964003	0	0
456.855652	0.792315	city	1	1	0.645736	0.645736	0	1	0	0	CorrectCommission	0.115266	0.975884	0	0
457.647980	0.792318	mountain	3	0	0.000000	0.628719	1	0	0	0	CorrectOmission	0.066277	0.997815	0	0
458.440216	0.792159	city	5	1	0.596112	0.596112	0	1	0	0	CorrectCommission	0.414119	1.028426	0	0
459.232422	0.792261	city	1	1	0.596338	0.596338	0	1	0	0	CorrectCommission	0.411718	1.064364	0	0
460.024780	0.792483	city	8	1	0.502174	0.502174	0	1	0	0	CorrectCommission	1.416251	1.100811	0	0
460.817047	0.792047	city	9	1	0.496964	0.496964	0	1	0	0	CorrectCommission	1.471828	1.132289	0	0
461.609222	0.792269	city	8	1	0.398173	0.398173	0	1	0	0	CorrectCommission	2.525723	1.153622	0	0
462.401489	0.792266	city	4	1	0.348766	0.348766	0	1	0	0	CorrectCommission	3.052790	1.160755	0	0
463.193756	0.792314	city	2	1	0.497138	0.497138	0	1	0	0	CorrectCommission	1.469971	1.151461	0	0
463.986053	0.792271	city	9	1	0.448201	0.448201	0	1	0	0	CorrectCommission	1.992026	1.125727	0	0
464.778290	0.792205	city	4	1	0.659358	0.659358	0	1	0	0	CorrectCommission	0.260584	1.085591	0	0
465.570526	0.792267	city	8	1	0.546786	0.546786	0	1	0	0	CorrectCommission	0.940330	1.034887	0	0
466.362823	0.792292	city	3	1	0.556280	0.556280	0	1	0	0	CorrectCommission	0.839051	0.978489	0	0
467.155090	0.792254	mountain	2	1	0.546695	0.546695	0	0	1	0	CommissionError	0.941299	0.921617	0	0
467.947357	0.792297	city	10	1	0.596200	0.596200	0	1	0	0	CorrectCommission	0.413189	0.869068	0	0
468.739624	0.792214	city	4	1	0.596162	0.596162	0	1	0	0	CorrectCommission	0.413586	0.824594	0	0
469.531921	0.792372	city	10	1	0.596412	0.596412	0	1	0	0	CorrectCommission	0.410927	0.790489	0	0
470.324188	0.792202	city	5	1	0.645677	0.645677	0	1	0	0	CorrectCommission	0.114632	0.767407	0	0
471.116455	0.792330	city	4	1	0.646504	0.646504	0	1	0	0	CorrectCommission	0.123456	0.754458	0	0
471.908752	0.792262	mountain	3	0	0.000000	0.693400	1	0	0	0	CorrectOmission	0.623736	0.749517	0	0
472.701019	0.792265	city	1	1	0.753568	0.753568	0	1	0	0	CorrectCommission	1.265602	0.749660	0	0
473.493225	0.792162	city	8	1	0.794212	0.794212	0	1	0	0	CorrectCommission	1.699187	0.751734	0	0
474.285461	0.792264	city	1	1	0.704778	0.704778	0	1	0	0	CorrectCommission	0.745121	0.752896	0	0
475.077698	0.792259	city	6	1	0.611758	0.611758	0	1	0	0	CorrectCommission	0.247217	0.751081	0	0
475.870026	0.792373	city	1	1	0.508459	0.508459	0	1	0	0	CorrectCommission	1.349195	0.745227	0	0
476.662292	0.792160	city	10	1	0.497222	0.497222	0	1	0	0	CorrectCommission	1.469078	0.735379	0	0
477.454498	0.792262	mountain	3	0	0.000000	0.561427	1	0	0	0	CorrectOmission	0.784138	0.722632	0	0
478.246765	0.792277	city	4	1	0.645849	0.645849	0	1	0	0	CorrectCommission	0.116468	0.708899	1	0
479.039032	0.792255	city	8	1	0.695260	0.695260	0	1	0	0	CorrectCommission	0.643584	0.696561	1	0
479.831360	0.792368	city	2	1	0.695298	0.695298	0	1	0	0	CorrectCommission	0.643982	0.688064	1	0
480.623718	0.792374	city	9	1	0.695660	0.695660	0	1	0	0	CorrectCommission	0.647851	0.685640	1	0
481.416046	0.792266	city	5	1	0.645556	0.645556	0	1	0	0	CorrectCommission	0.113337	0.690945	1	0
482.208191	0.792046	city	8	1	0.645537	0.645537	0	1	0	0	CorrectCommission	0.113134	0.704938	1	0
483.000427	0.792373	city	6	1	0.695768	0.695768	0	1	0	0	CorrectCommission	0.649002	0.727770	0	0
483.792725	0.792265	city	7	1	0.645953	0.645953	0	1	0	0	CorrectCommission	0.117574	0.758878	0	0
484.584930	0.792157	city	3	1	0.546645	0.546645	0	1	0	0	CorrectCommission	0.941833	0.797127	0	0
485.377167	0.792314	city	10	1	0.497219	0.497219	0	1	0	0	CorrectCommission	1.469110	0.840954	0	0
486.169434	0.792217	city	6	1	0.454302	0.454302	0	1	0	0	CorrectCommission	1.926944	0.888575	0	0
486.961700	0.792296	city	2	1	0.546995	0.546995	0	1	0	0	CorrectCommission	0.938096	0.938096	0	0
