onset	duration	trial_type	image_type	Press	ReactionTime	ReactionTime_Interpolated	CorrectOmission	CorrectCommission	CommissionError	OmissionError	response_type	nonsmoothVarianceTimeCourse	VarianceTimeCourse	In_the_Zone	Reward_trial
8.433864	0.792156	city	5	1	0.745097	0.745097	0	1	0	0	CorrectCommission	0.575201	0.575201	1	0
9.226075	0.792267	city	2	1	0.596254	0.596254	0	1	0	0	CorrectCommission	0.817982	0.723115	0	0
10.018394	0.792372	city	10	1	0.547082	0.547082	0	1	0	0	CorrectCommission	1.278238	0.866905	0	0
10.810661	0.792161	city	8	1	0.497063	0.497063	0	1	0	0	CorrectCommission	1.746420	1.002663	0	0
11.602926	0.792371	city	6	1	0.547065	0.547065	0	1	0	0	CorrectCommission	1.278396	1.126973	0	0
12.395190	0.792157	city	2	1	0.546958	0.546958	0	1	0	0	CorrectCommission	1.279398	1.237042	0	0
13.187400	0.792262	mountain	9	0	0.000000	0.532001	1	0	0	0	CorrectOmission	1.419393	1.330812	0	0
13.979665	0.792268	city	7	1	0.501008	0.501008	0	1	0	0	CorrectCommission	1.709490	1.407002	0	0
14.771932	0.792266	city	2	1	0.452792	0.452792	0	1	0	0	CorrectCommission	2.160794	1.465124	0	0
15.564250	0.792370	city	4	1	0.509025	0.509025	0	1	0	0	CorrectCommission	1.634448	1.505448	0	0
16.356546	0.792225	city	10	1	0.497099	0.497099	0	1	0	0	CorrectCommission	1.746083	1.528956	0	0
17.148758	0.792199	city	2	1	0.459553	0.459553	0	1	0	0	CorrectCommission	2.097513	1.537268	0	0
17.940989	0.792259	city	9	1	0.546734	0.546734	0	1	0	0	CorrectCommission	1.281488	1.532548	0	0
18.733250	0.792265	city	3	1	0.497516	0.497516	0	1	0	0	CorrectCommission	1.742172	1.517419	0	0
19.525518	0.792271	city	8	1	0.497301	0.497301	0	1	0	0	CorrectCommission	1.744193	1.494842	0	0
20.317892	0.792476	city	1	1	0.562863	0.562863	0	1	0	0	CorrectCommission	1.130526	1.468005	0	0
21.110264	0.792265	city	4	1	0.513487	0.513487	0	1	0	0	CorrectCommission	1.592691	1.440189	0	0
21.902420	0.792048	city	6	1	0.547184	0.547184	0	1	0	0	CorrectCommission	1.277282	1.414586	0	0
22.694685	0.792483	city	5	1	0.497767	0.497767	0	1	0	0	CorrectCommission	1.739826	1.394207	0	0
23.487059	0.792263	city	6	1	0.596913	0.596913	0	1	0	0	CorrectCommission	0.811813	1.381692	0	0
24.279215	0.792049	city	2	1	0.562193	0.562193	0	1	0	0	CorrectCommission	1.136794	1.379170	0	0
25.071371	0.792264	city	10	1	0.553642	0.553642	0	1	0	0	CorrectCommission	1.216833	1.388036	0	0
25.863649	0.792295	city	6	1	0.646304	0.646304	0	1	0	0	CorrectCommission	0.349504	1.408852	0	0
26.655943	0.792289	city	8	1	0.517025	0.517025	0	1	0	0	CorrectCommission	1.559569	1.441268	0	0
27.448246	0.792318	city	7	1	0.547055	0.547055	0	1	0	0	CorrectCommission	1.278487	1.483922	0	0
28.240484	0.792158	city	1	1	0.497255	0.497255	0	1	0	0	CorrectCommission	1.744616	1.534532	0	0
29.032694	0.792262	city	3	1	0.497182	0.497182	0	1	0	0	CorrectCommission	1.745301	1.589945	0	0
29.824957	0.792266	mountain	1	1	0.510816	0.510816	0	0	1	0	CommissionError	1.617686	1.646328	0	0
30.617224	0.792268	city	2	1	0.505757	0.505757	0	1	0	0	CorrectCommission	1.665039	1.699361	0	0
31.409489	0.792260	city	6	1	0.547293	0.547293	0	1	0	0	CorrectCommission	1.276264	1.744533	0	0
32.201771	0.792305	city	1	1	0.497940	0.497940	0	1	0	0	CorrectCommission	1.738210	1.777516	0	0
32.994038	0.792227	city	2	1	0.447687	0.447687	0	1	0	0	CorrectCommission	2.208583	1.794556	0	0
33.786335	0.792373	city	9	1	0.447700	0.447700	0	1	0	0	CorrectCommission	2.208458	1.792896	0	0
34.578602	0.792155	city	1	1	0.353741	0.353741	0	1	0	0	CorrectCommission	3.087924	1.771089	0	0
35.370811	0.792265	city	8	1	0.299169	0.299169	0	1	0	0	CorrectCommission	3.598720	1.729199	0	0
36.163086	0.792285	city	9	1	0.942846	0.942846	0	1	0	0	CorrectCommission	2.426152	1.668808	0	0
36.955353	0.792249	city	7	1	0.745271	0.745271	0	1	0	0	CorrectCommission	0.576829	1.592853	0	0
37.747608	0.792261	mountain	10	0	0.000000	0.619585	1	0	0	0	CorrectOmission	0.599602	1.505250	0	0
38.539898	0.792320	city	3	1	0.547156	0.547156	0	1	0	0	CorrectCommission	1.277539	1.410344	0	0
39.332165	0.792210	city	9	1	0.509353	0.509353	0	1	0	0	CorrectCommission	1.631379	1.312445	0	0
40.124508	0.792480	mountain	3	0	0.000000	0.555148	1	0	0	0	CorrectOmission	1.202738	1.215381	0	0
40.916771	0.792049	city	7	1	0.613607	0.613607	0	1	0	0	CorrectCommission	0.655558	1.122210	0	0
41.708927	0.792262	mountain	9	0	0.000000	0.613797	1	0	0	0	CorrectOmission	0.653779	1.035021	0	0
42.501301	0.792483	city	9	1	0.596263	0.596263	0	1	0	0	CorrectCommission	0.817898	0.954919	0	0
43.293564	0.792046	mountain	7	0	0.000000	0.601550	1	0	0	0	CorrectOmission	0.768406	0.882179	0	0
44.085743	0.792306	city	8	1	0.596266	0.596266	0	1	0	0	CorrectCommission	0.817863	0.816429	0	0
44.878006	0.792225	city	1	1	0.547019	0.547019	0	1	0	0	CorrectCommission	1.278825	0.756913	0	0
45.670254	0.792270	city	5	1	0.596768	0.596768	0	1	0	0	CorrectCommission	0.813173	0.702695	0	0
46.462521	0.792264	city	2	1	0.695254	0.695254	0	1	0	0	CorrectCommission	0.108668	0.652908	1	0
47.254791	0.792279	mountain	9	0	0.000000	0.703374	1	0	0	0	CorrectOmission	0.184670	0.606908	1	0
48.047054	0.792247	city	2	1	0.645711	0.645711	0	1	0	0	CorrectCommission	0.355055	0.564327	1	0
48.839314	0.792270	mountain	2	1	0.546852	0.546852	0	0	1	0	CommissionError	1.280392	0.525160	1	0
49.631580	0.792263	city	10	1	0.596258	0.596258	0	1	0	0	CorrectCommission	0.817943	0.489672	1	0
50.423950	0.792477	city	1	1	0.714061	0.714061	0	1	0	0	CorrectCommission	0.284708	0.458387	1	0
51.216221	0.792061	city	7	1	0.695054	0.695054	0	1	0	0	CorrectCommission	0.106798	0.431944	1	0
52.008377	0.792252	city	3	1	0.695317	0.695317	0	1	0	0	CorrectCommission	0.109258	0.410945	1	0
52.800659	0.792310	mountain	1	0	0.000000	0.702054	1	0	0	0	CorrectOmission	0.172320	0.395824	1	0
53.592976	0.792326	city	2	1	0.695239	0.695239	0	1	0	0	CorrectCommission	0.108533	0.386735	1	0
54.385326	0.792376	city	10	1	0.654846	0.654846	0	1	0	0	CorrectCommission	0.269556	0.383497	1	0
55.177544	0.792055	city	4	1	0.744994	0.744994	0	1	0	0	CorrectCommission	0.574238	0.385527	1	0
55.969700	0.792260	city	2	1	0.744891	0.744891	0	1	0	0	CorrectCommission	0.573274	0.391853	1	0
56.761959	0.792261	city	8	1	0.709649	0.709649	0	1	0	0	CorrectCommission	0.243406	0.401202	1	0
57.554333	0.792482	city	10	1	0.695300	0.695300	0	1	0	0	CorrectCommission	0.109099	0.412115	1	0
58.346596	0.792046	city	4	1	0.695073	0.695073	0	1	0	0	CorrectCommission	0.106973	0.423041	1	0
59.138752	0.792266	city	1	1	0.601470	0.601470	0	1	0	0	CorrectCommission	0.769156	0.432487	1	0
59.931019	0.792265	city	6	1	0.551233	0.551233	0	1	0	0	CorrectCommission	1.239380	0.439126	1	0
60.723297	0.792296	city	5	1	0.645793	0.645793	0	1	0	0	CorrectCommission	0.354292	0.441933	1	0
61.515617	0.792342	city	7	1	0.695729	0.695729	0	1	0	0	CorrectCommission	0.113119	0.440292	1	0
62.307865	0.792155	city	2	1	0.606996	0.606996	0	1	0	0	CorrectCommission	0.717430	0.433997	1	0
63.100075	0.792265	city	5	1	0.662811	0.662811	0	1	0	0	CorrectCommission	0.194997	0.423280	1	0
63.892342	0.792265	city	9	1	0.563849	0.563849	0	1	0	0	CorrectCommission	1.121292	0.408777	1	0
64.684662	0.792373	city	3	1	0.645892	0.645892	0	1	0	0	CorrectCommission	0.353359	0.391409	1	0
65.476921	0.792155	city	7	1	0.645817	0.645817	0	1	0	0	CorrectCommission	0.354068	0.372343	1	0
66.269150	0.792301	city	4	1	0.696020	0.696020	0	1	0	0	CorrectCommission	0.115841	0.352788	1	0
67.061417	0.792230	mountain	2	0	0.000000	0.670727	1	0	0	0	CorrectOmission	0.120906	0.333928	1	0
67.853775	0.792483	city	7	1	0.646268	0.646268	0	1	0	0	CorrectCommission	0.349847	0.316801	1	1
68.646042	0.792053	city	6	1	0.698973	0.698973	0	1	0	0	CorrectCommission	0.143481	0.302224	1	1
69.438194	0.792256	mountain	4	0	0.000000	0.714743	1	0	0	0	CorrectOmission	0.291092	0.290766	1	1
70.230461	0.792269	city	3	1	0.707475	0.707475	0	1	0	0	CorrectCommission	0.223061	0.282712	1	1
71.022751	0.792312	mountain	3	0	0.000000	0.691065	1	0	0	0	CorrectOmission	0.069464	0.278115	1	1
71.815063	0.792322	city	5	1	0.658031	0.658031	0	1	0	0	CorrectCommission	0.239738	0.276827	1	1
72.607414	0.792375	city	10	1	0.600890	0.600890	0	1	0	0	CorrectCommission	0.774587	0.278545	1	1
73.399628	0.792047	city	5	1	0.695068	0.695068	0	1	0	0	CorrectCommission	0.106925	0.282845	1	1
74.191788	0.792282	city	2	1	0.704509	0.704509	0	1	0	0	CorrectCommission	0.195299	0.289246	1	1
74.984055	0.792251	city	10	1	0.695233	0.695233	0	1	0	0	CorrectCommission	0.108474	0.297206	1	1
75.776321	0.792282	mountain	4	0	0.000000	0.700545	1	0	0	0	CorrectOmission	0.158196	0.306168	1	1
76.568611	0.792295	city	4	1	0.695380	0.695380	0	1	0	0	CorrectCommission	0.109848	0.315591	1	1
77.360916	0.792322	city	2	1	0.654671	0.654671	0	1	0	0	CorrectCommission	0.271190	0.325009	1	1
78.153267	0.792375	city	10	1	0.559258	0.559258	0	1	0	0	CorrectCommission	1.164263	0.334078	1	1
78.945587	0.792265	city	4	1	0.662140	0.662140	0	1	0	0	CorrectCommission	0.201285	0.342597	1	1
79.737801	0.792154	city	9	1	0.711090	0.711090	0	1	0	0	CorrectCommission	0.256894	0.350563	1	1
80.529953	0.792159	city	10	1	0.600480	0.600480	0	1	0	0	CorrectCommission	0.778420	0.358112	1	1
81.322197	0.792320	city	4	1	0.695239	0.695239	0	1	0	0	CorrectCommission	0.108532	0.365437	1	1
82.114563	0.792424	city	2	1	0.695536	0.695536	0	1	0	0	CorrectCommission	0.111312	0.372782	1	1
82.906799	0.792047	city	8	1	0.695215	0.695215	0	1	0	0	CorrectCommission	0.108303	0.380295	1	1
83.699013	0.792375	city	3	1	0.646001	0.646001	0	1	0	0	CorrectCommission	0.352340	0.388003	1	1
84.491333	0.792266	city	1	1	0.605551	0.605551	0	1	0	0	CorrectCommission	0.730963	0.395770	1	1
85.283600	0.792262	city	8	1	0.645761	0.645761	0	1	0	0	CorrectCommission	0.354589	0.403325	1	1
86.075806	0.792155	city	1	1	0.709348	0.709348	0	1	0	0	CorrectCommission	0.240588	0.410337	1	1
86.868019	0.792267	city	4	1	0.646660	0.646660	0	1	0	0	CorrectCommission	0.346172	0.416463	1	1
87.660393	0.792480	city	9	1	0.597153	0.597153	0	1	0	0	CorrectCommission	0.809567	0.421431	1	1
88.452652	0.792050	city	5	1	0.596541	0.596541	0	1	0	0	CorrectCommission	0.815290	0.425105	1	1
89.244812	0.792262	city	7	1	0.646453	0.646453	0	1	0	0	CorrectCommission	0.348111	0.427527	1	1
90.037079	0.792267	city	9	1	0.662294	0.662294	0	1	0	0	CorrectCommission	0.199839	0.428887	1	1
90.829338	0.792261	city	6	1	0.659569	0.659569	0	1	0	0	CorrectCommission	0.225346	0.429505	1	1
91.621628	0.792310	city	4	1	0.646373	0.646373	0	1	0	0	CorrectCommission	0.348861	0.429808	1	1
92.413895	0.792223	city	3	1	0.596306	0.596306	0	1	0	0	CorrectCommission	0.817490	0.430284	1	1
93.206192	0.792371	mountain	3	0	0.000000	0.645654	1	0	0	0	CorrectOmission	0.355591	0.431462	1	1
93.998566	0.792373	city	7	1	0.695161	0.695161	0	1	0	0	CorrectCommission	0.107804	0.433913	1	1
94.790771	0.792048	city	5	1	0.645574	0.645574	0	1	0	0	CorrectCommission	0.356340	0.438230	1	1
95.582932	0.792267	city	9	1	0.612089	0.612089	0	1	0	0	CorrectCommission	0.669765	0.444980	1	1
96.375206	0.792284	city	6	1	0.645896	0.645896	0	1	0	0	CorrectCommission	0.353326	0.454709	1	1
97.167580	0.792462	city	10	1	0.596234	0.596234	0	1	0	0	CorrectCommission	0.818167	0.467859	1	1
97.959915	0.792207	city	2	1	0.645970	0.645970	0	1	0	0	CorrectCommission	0.352631	0.484612	1	1
98.752090	0.792148	city	1	1	0.645932	0.645932	0	1	0	0	CorrectCommission	0.352991	0.504831	1	1
99.544327	0.792328	city	6	1	0.645767	0.645767	0	1	0	0	CorrectCommission	0.354529	0.527909	1	1
100.336594	0.792200	city	4	1	0.658352	0.658352	0	1	0	0	CorrectCommission	0.236735	0.552723	1	1
101.128807	0.792223	city	2	1	0.645736	0.645736	0	1	0	0	CorrectCommission	0.354823	0.577646	1	1
101.921051	0.792265	city	3	1	0.695343	0.695343	0	1	0	0	CorrectCommission	0.109505	0.600693	1	1
102.713310	0.792266	mountain	2	0	0.000000	0.646054	1	0	0	0	CorrectOmission	0.351852	0.619800	1	1
103.505684	0.792478	city	10	1	0.547039	0.547039	0	1	0	0	CorrectCommission	1.278635	0.633117	1	1
104.297951	0.792046	city	4	1	0.447472	0.447472	0	1	0	0	CorrectCommission	2.210590	0.639352	1	1
105.090103	0.792265	city	3	1	0.558255	0.558255	0	1	0	0	CorrectCommission	1.173652	0.638065	1	1
105.882477	0.792484	city	9	1	0.645761	0.645761	0	1	0	0	CorrectCommission	0.354585	0.629854	1	1
106.674744	0.792046	city	10	1	0.596036	0.596036	0	1	0	0	CorrectCommission	0.820019	0.616319	1	1
107.466896	0.792266	city	8	1	0.645770	0.645770	0	1	0	0	CorrectCommission	0.354502	0.599808	1	1
108.259171	0.792277	city	4	1	0.744735	0.744735	0	1	0	0	CorrectCommission	0.571814	0.583146	1	1
109.051491	0.792359	city	8	1	0.695445	0.695445	0	1	0	0	CorrectCommission	0.110453	0.569153	1	1
109.843857	0.792375	mountain	4	0	0.000000	0.678767	1	0	0	0	CorrectOmission	0.045647	0.560254	1	1
110.636124	0.792156	city	5	1	0.695074	0.695074	0	1	0	0	CorrectCommission	0.106985	0.558114	1	1
111.428276	0.792157	city	8	1	0.744735	0.744735	0	1	0	0	CorrectCommission	0.571820	0.563406	1	1
112.220596	0.792482	city	5	1	0.596375	0.596375	0	1	0	0	CorrectCommission	0.816844	0.575713	1	1
113.012970	0.792264	city	6	1	0.660673	0.660673	0	1	0	0	CorrectCommission	0.215016	0.593621	1	1
113.805130	0.792052	city	8	1	0.645754	0.645754	0	1	0	0	CorrectCommission	0.354656	0.614924	1	1
114.597282	0.792262	city	3	1	0.758386	0.758386	0	1	0	0	CorrectCommission	0.699588	0.636887	1	1
115.389656	0.792481	city	10	1	0.794324	0.794324	0	1	0	0	CorrectCommission	1.035973	0.656637	1	1
116.182030	0.792265	city	1	1	0.744895	0.744895	0	1	0	0	CorrectCommission	0.573315	0.671522	1	1
116.974228	0.792134	city	5	1	0.794636	0.794636	0	1	0	0	CorrectCommission	1.038892	0.679434	0	1
117.766388	0.792180	city	1	1	0.843718	0.843718	0	1	0	0	CorrectCommission	1.498308	0.679044	0	1
118.558662	0.792371	city	8	1	0.794348	0.794348	0	1	0	0	CorrectCommission	1.036197	0.669944	1	1
119.350952	0.792214	city	4	1	0.745187	0.745187	0	1	0	0	CorrectCommission	0.576052	0.652673	1	1
120.143173	0.792224	city	3	1	0.744833	0.744833	0	1	0	0	CorrectCommission	0.572735	0.628608	1	1
120.935478	0.792384	city	2	1	0.714524	0.714524	0	1	0	0	CorrectCommission	0.289039	0.599739	1	1
121.727737	0.792140	city	1	1	0.794629	0.794629	0	1	0	0	CorrectCommission	1.038827	0.568422	1	1
122.519936	0.792257	city	10	1	0.704401	0.704401	0	1	0	0	CorrectCommission	0.194284	0.537086	1	1
123.312195	0.792263	city	4	1	0.744794	0.744794	0	1	0	0	CorrectCommission	0.572371	0.508000	1	1
124.104477	0.792293	city	8	1	0.695400	0.695400	0	1	0	0	CorrectCommission	0.110033	0.482963	1	1
124.896736	0.792234	city	4	1	0.664155	0.664155	0	1	0	0	CorrectCommission	0.182421	0.463207	1	1
125.688988	0.792269	mountain	3	0	0.000000	0.648573	1	0	0	0	CorrectOmission	0.328273	0.449281	1	1
126.481255	0.792261	city	2	1	0.646341	0.646341	0	1	0	0	CorrectCommission	0.349162	0.441041	1	1
127.273514	0.792266	city	4	1	0.655148	0.655148	0	1	0	0	CorrectCommission	0.266726	0.437754	1	0
128.065811	0.792319	city	9	1	0.616837	0.616837	0	1	0	0	CorrectCommission	0.625316	0.438270	1	0
128.858185	0.792428	city	8	1	0.645923	0.645923	0	1	0	0	CorrectCommission	0.353076	0.441217	1	0
129.650436	0.792092	city	5	1	0.695627	0.695627	0	1	0	0	CorrectCommission	0.112165	0.445251	1	0
130.442596	0.792218	mountain	7	1	0.749536	0.749536	0	0	1	0	CommissionError	0.616758	0.449294	1	0
131.234833	0.792265	city	10	1	0.558498	0.558498	0	1	0	0	CorrectCommission	1.171383	0.452691	1	0
132.027100	0.792267	city	5	1	0.646595	0.646595	0	1	0	0	CorrectCommission	0.346784	0.455348	1	0
132.819473	0.792481	city	4	1	0.756601	0.756601	0	1	0	0	CorrectCommission	0.682880	0.457729	1	0
133.611740	0.792047	mountain	8	0	0.000000	0.752338	1	0	0	0	CorrectOmission	0.642978	0.460778	1	0
134.404007	0.792482	city	2	1	0.711210	0.711210	0	1	0	0	CorrectCommission	0.258022	0.465737	1	0
135.196274	0.792051	city	6	1	0.710623	0.710623	0	1	0	0	CorrectCommission	0.252526	0.473925	1	0
135.988434	0.792264	city	10	1	0.700152	0.700152	0	1	0	0	CorrectCommission	0.154515	0.486524	1	0
136.780731	0.792334	mountain	6	0	0.000000	0.668825	1	0	0	0	CorrectOmission	0.138708	0.504316	1	0
137.572998	0.792196	city	5	1	0.645701	0.645701	0	1	0	0	CorrectCommission	0.355147	0.527579	1	0
138.365326	0.792477	city	9	1	0.659841	0.659841	0	1	0	0	CorrectCommission	0.222804	0.556057	1	0
139.157608	0.792083	city	5	1	0.701254	0.701254	0	1	0	0	CorrectCommission	0.164833	0.588979	1	0
139.949799	0.792284	city	2	1	0.795451	0.795451	0	1	0	0	CorrectCommission	1.046527	0.625219	1	0
140.742157	0.792428	city	8	1	0.893901	0.893901	0	1	0	0	CorrectCommission	1.968025	0.663412	1	0
141.534393	0.792050	city	4	1	0.744641	0.744641	0	1	0	0	CorrectCommission	0.570934	0.702120	0	0
142.326553	0.792261	city	2	1	0.695246	0.695246	0	1	0	0	CorrectCommission	0.108598	0.739987	0	0
143.118805	0.792268	mountain	8	0	0.000000	0.742147	1	0	0	0	CorrectOmission	0.547589	0.775728	0	0
143.911072	0.792263	city	9	1	0.794329	0.794329	0	1	0	0	CorrectCommission	1.036017	0.808177	0	0
144.703354	0.792305	city	5	1	0.760779	0.760779	0	1	0	0	CorrectCommission	0.721991	0.836346	0	0
145.495636	0.792231	city	3	1	0.761436	0.761436	0	1	0	0	CorrectCommission	0.728138	0.859460	0	0
146.287872	0.792257	city	4	1	0.794472	0.794472	0	1	0	0	CorrectCommission	1.037358	0.877029	0	0
147.080139	0.792266	city	7	1	0.897383	0.897383	0	1	0	0	CorrectCommission	2.000621	0.888884	0	0
147.872513	0.792481	city	5	1	0.744917	0.744917	0	1	0	0	CorrectCommission	0.573521	0.895239	0	0
148.664886	0.792264	city	6	1	0.794087	0.794087	0	1	0	0	CorrectCommission	1.033759	0.896787	0	0
149.457031	0.792050	mountain	8	0	0.000000	0.749406	1	0	0	0	CorrectOmission	0.615535	0.894564	0	0
150.249191	0.792264	city	1	1	0.751980	0.751980	0	1	0	0	CorrectCommission	0.639627	0.889899	0	0
151.041458	0.792264	city	7	1	0.942916	0.942916	0	1	0	0	CorrectCommission	2.426813	0.884214	0	0
151.833740	0.792311	city	1	1	0.656179	0.656179	0	1	0	0	CorrectCommission	0.257074	0.878808	0	0
152.626007	0.792218	mountain	9	1	0.655465	0.655465	0	0	1	0	CommissionError	0.263755	0.874702	0	0
153.418365	0.792483	city	3	1	0.596548	0.596548	0	1	0	0	CorrectCommission	0.815230	0.872370	0	0
154.210617	0.792045	city	8	1	0.661772	0.661772	0	1	0	0	CorrectCommission	0.204725	0.871666	0	0
155.002884	0.792484	city	7	1	0.701930	0.701930	0	1	0	0	CorrectCommission	0.171158	0.871882	0	0
155.795166	0.792084	city	5	1	0.796535	0.796535	0	1	0	0	CorrectCommission	1.056674	0.871863	0	0
156.587326	0.792230	city	1	1	0.844158	0.844158	0	1	0	0	CorrectCommission	1.502427	0.870249	0	0
157.379578	0.792279	city	6	1	0.893391	0.893391	0	1	0	0	CorrectCommission	1.963247	0.865763	0	0
158.171844	0.792251	mountain	6	0	0.000000	0.825311	1	0	0	0	CorrectOmission	1.326016	0.857445	0	0
158.964111	0.792272	city	6	1	0.745031	0.745031	0	1	0	0	CorrectCommission	0.574586	0.844875	0	0
159.756378	0.792260	city	3	1	0.757662	0.757662	0	1	0	0	CorrectCommission	0.692811	0.828176	0	0
160.548630	0.792259	mountain	3	0	0.000000	0.635124	1	0	0	0	CorrectOmission	0.454156	0.807913	0	0
161.340958	0.792375	city	5	1	0.546716	0.546716	0	1	0	0	CorrectCommission	1.281657	0.784967	0	0
162.133224	0.792157	city	8	1	0.661739	0.661739	0	1	0	0	CorrectCommission	0.205037	0.760335	0	0
162.925476	0.792371	city	4	1	0.695207	0.695207	0	1	0	0	CorrectCommission	0.108226	0.734992	0	0
163.717773	0.792217	city	10	1	0.850988	0.850988	0	1	0	0	CorrectCommission	1.566353	0.709738	0	0
164.509995	0.792203	city	5	1	0.744722	0.744722	0	1	0	0	CorrectCommission	0.571698	0.685145	0	0
165.302216	0.792268	city	4	1	0.645759	0.645759	0	1	0	0	CorrectCommission	0.354612	0.661717	1	0
166.094543	0.792371	city	9	1	0.645788	0.645788	0	1	0	0	CorrectCommission	0.354333	0.639894	1	0
166.886810	0.792155	city	5	1	0.843691	0.843691	0	1	0	0	CorrectCommission	1.498057	0.620187	1	0
167.679031	0.792308	city	9	1	0.745071	0.745071	0	1	0	0	CorrectCommission	0.574957	0.603240	1	0
168.471298	0.792225	city	5	1	0.744869	0.744869	0	1	0	0	CorrectCommission	0.573074	0.589859	1	0
169.263550	0.792261	city	3	1	0.713873	0.713873	0	1	0	0	CorrectCommission	0.282945	0.581014	1	0
170.055817	0.792269	city	6	1	0.714017	0.714017	0	1	0	0	CorrectCommission	0.284293	0.577691	1	0
170.848083	0.792267	city	3	1	0.714908	0.714908	0	1	0	0	CorrectCommission	0.292633	0.580761	1	0
171.640457	0.792478	city	5	1	0.745166	0.745166	0	1	0	0	CorrectCommission	0.575847	0.590870	1	0
172.432709	0.792047	city	3	1	0.744705	0.744705	0	1	0	0	CorrectCommission	0.571536	0.608314	1	0
173.224869	0.792265	city	6	1	0.744823	0.744823	0	1	0	0	CorrectCommission	0.572645	0.632980	1	0
174.017166	0.792323	city	7	1	0.744796	0.744796	0	1	0	0	CorrectCommission	0.572387	0.664398	1	0
174.809433	0.792207	city	10	1	0.711285	0.711285	0	1	0	0	CorrectCommission	0.258725	0.701824	0	0
175.601669	0.792263	mountain	9	0	0.000000	0.697621	1	0	0	0	CorrectOmission	0.130822	0.744407	0	0
176.393982	0.792374	city	10	1	0.744817	0.744817	0	1	0	0	CorrectCommission	0.572586	0.791328	0	0
177.186249	0.792160	city	5	1	0.893890	0.893890	0	1	0	0	CorrectCommission	1.967925	0.841900	0	0
177.978485	0.792326	city	10	1	0.843970	0.843970	0	1	0	0	CorrectCommission	1.500665	0.895595	0	0
178.770752	0.792208	city	4	1	0.794954	0.794954	0	1	0	0	CorrectCommission	1.041873	0.951974	0	0
179.562988	0.792255	city	6	1	0.794374	0.794374	0	1	0	0	CorrectCommission	1.036438	1.010500	0	0
180.355255	0.792283	city	8	1	0.744741	0.744741	0	1	0	0	CorrectCommission	0.571873	1.070227	0	0
181.147522	0.792251	city	7	1	0.744779	0.744779	0	1	0	0	CorrectCommission	0.572227	1.129517	0	0
181.939835	0.792371	city	8	1	0.745288	0.745288	0	1	0	0	CorrectCommission	0.576990	1.185883	0	0
182.732208	0.792373	city	10	1	0.794180	0.794180	0	1	0	0	CorrectCommission	1.034626	1.235970	0	0
183.524414	0.792051	city	6	1	0.645955	0.645955	0	1	0	0	CorrectCommission	0.352778	1.275794	0	0
184.316605	0.792318	city	8	1	0.448371	0.448371	0	1	0	0	CorrectCommission	2.202180	1.301214	0	0
185.108917	0.792314	city	6	1	0.447622	0.447622	0	1	0	0	CorrectCommission	2.209188	1.308510	0	0
185.901154	0.792161	city	9	1	0.398833	0.398833	0	1	0	0	CorrectCommission	2.665863	1.295093	0	0
186.693375	0.792263	city	7	1	0.348977	0.348977	0	1	0	0	CorrectCommission	3.132512	1.259979	0	1
187.485641	0.792262	city	6	1	0.954447	0.954447	0	1	0	0	CorrectCommission	2.534739	1.204056	0	1
188.277893	0.792269	city	4	1	0.744794	0.744794	0	1	0	0	CorrectCommission	0.572364	1.130068	0	1
189.070267	0.792478	city	5	1	0.645863	0.645863	0	1	0	0	CorrectCommission	0.353633	1.042253	0	1
189.862534	0.792053	city	8	1	0.697460	0.697460	0	1	0	0	CorrectCommission	0.129319	0.945733	0	1
190.654694	0.792265	city	9	1	0.645770	0.645770	0	1	0	0	CorrectCommission	0.354509	0.845898	0	1
191.446960	0.792262	city	4	1	0.645895	0.645895	0	1	0	0	CorrectCommission	0.353336	0.747752	0	1
192.239227	0.792265	city	1	1	0.596246	0.596246	0	1	0	0	CorrectCommission	0.818058	0.655489	1	1
193.031601	0.792480	city	5	1	0.600909	0.600909	0	1	0	0	CorrectCommission	0.774404	0.572199	1	1
193.823883	0.792105	city	3	1	0.695090	0.695090	0	1	0	0	CorrectCommission	0.107130	0.499845	1	1
194.616058	0.792223	city	8	1	0.645724	0.645724	0	1	0	0	CorrectCommission	0.354937	0.439343	1	1
195.408310	0.792302	mountain	1	0	0.000000	0.670571	1	0	0	0	CorrectOmission	0.122366	0.390776	1	1
196.200684	0.792429	city	7	1	0.695320	0.695320	0	1	0	0	CorrectCommission	0.109287	0.353662	1	1
196.992935	0.792075	city	3	1	0.645660	0.645660	0	1	0	0	CorrectCommission	0.355538	0.327181	1	1
197.785141	0.792345	city	10	1	0.654736	0.654736	0	1	0	0	CorrectCommission	0.270583	0.310364	1	1
198.577454	0.792265	city	9	1	0.655115	0.655115	0	1	0	0	CorrectCommission	0.267039	0.302223	1	1
199.369659	0.792157	city	3	1	0.705537	0.705537	0	1	0	0	CorrectCommission	0.204922	0.301808	1	1
200.161972	0.792480	city	7	1	0.665144	0.665144	0	1	0	0	CorrectCommission	0.173159	0.308216	1	1
200.954239	0.792048	city	1	1	0.696225	0.696225	0	1	0	0	CorrectCommission	0.117763	0.320588	1	1
201.746399	0.792263	city	3	1	0.656464	0.656464	0	1	0	0	CorrectCommission	0.254412	0.338039	1	1
202.538773	0.792483	city	2	1	0.695399	0.695399	0	1	0	0	CorrectCommission	0.110023	0.359702	1	1
203.331039	0.792053	city	4	1	0.745110	0.745110	0	1	0	0	CorrectCommission	0.575323	0.384708	1	1
204.123306	0.792477	city	5	1	0.709139	0.709139	0	1	0	0	CorrectCommission	0.238631	0.412251	1	1
204.915573	0.792050	city	2	1	0.744506	0.744506	0	1	0	0	CorrectCommission	0.569676	0.441663	1	1
205.707733	0.792264	city	4	1	0.794461	0.794461	0	1	0	0	CorrectCommission	1.037255	0.472444	1	1
206.499985	0.792260	city	3	1	0.652929	0.652929	0	1	0	0	CorrectCommission	0.287497	0.504268	1	1
207.292252	0.792274	city	9	1	0.645759	0.645759	0	1	0	0	CorrectCommission	0.354609	0.536997	1	1
208.084656	0.792528	city	10	1	0.646224	0.646224	0	1	0	0	CorrectCommission	0.350258	0.570556	1	1
208.876923	0.791996	city	8	1	0.763016	0.763016	0	1	0	0	CorrectCommission	0.742928	0.604863	1	1
209.669052	0.792268	city	10	1	0.596237	0.596237	0	1	0	0	CorrectCommission	0.818135	0.639681	1	1
210.461319	0.792257	city	4	1	0.745090	0.745090	0	1	0	0	CorrectCommission	0.575136	0.674533	0	1
211.253571	0.792269	city	6	1	0.646141	0.646141	0	1	0	0	CorrectCommission	0.351031	0.708615	0	1
212.045868	0.792324	city	3	1	0.596618	0.596618	0	1	0	0	CorrectCommission	0.814575	0.740754	0	1
212.838135	0.792205	city	4	1	0.596668	0.596668	0	1	0	0	CorrectCommission	0.814106	0.769437	0	1
213.630371	0.792264	city	6	1	0.604686	0.604686	0	1	0	0	CorrectCommission	0.739053	0.792943	0	1
214.422638	0.792264	city	9	1	0.596311	0.596311	0	1	0	0	CorrectCommission	0.817443	0.809497	0	1
215.215012	0.792482	city	3	1	0.547731	0.547731	0	1	0	0	CorrectCommission	1.272157	0.817479	0	1
216.007278	0.792048	city	10	1	0.546513	0.546513	0	1	0	0	CorrectCommission	1.283561	0.815639	0	1
216.799423	0.792262	city	3	1	0.596587	0.596587	0	1	0	0	CorrectCommission	0.814863	0.803303	0	1
217.591690	0.792266	city	10	1	0.504126	0.504126	0	1	0	0	CorrectCommission	1.680308	0.780499	0	1
218.383972	0.792295	mountain	9	1	0.645987	0.645987	0	0	1	0	CommissionError	0.352471	0.747972	0	1
219.176346	0.792452	city	10	1	0.596122	0.596122	0	1	0	0	CorrectCommission	0.819214	0.707203	0	1
219.968643	0.792155	city	1	1	0.547629	0.547629	0	1	0	0	CorrectCommission	1.273117	0.660214	1	1
220.760864	0.792264	city	4	1	0.645830	0.645830	0	1	0	0	CorrectCommission	0.353939	0.609388	1	1
221.553131	0.792266	city	9	1	0.711646	0.711646	0	1	0	0	CorrectCommission	0.262101	0.557282	1	1
222.345337	0.792154	city	10	1	0.646036	0.646036	0	1	0	0	CorrectCommission	0.352016	0.506345	1	1
223.137543	0.792270	mountain	4	0	0.000000	0.669259	1	0	0	0	CorrectOmission	0.134642	0.458745	1	1
223.929810	0.792259	city	10	1	0.713252	0.713252	0	1	0	0	CorrectCommission	0.277129	0.416233	1	1
224.722076	0.792268	city	8	1	0.709948	0.709948	0	1	0	0	CorrectCommission	0.246205	0.380047	1	1
225.514389	0.792371	city	9	1	0.745215	0.745215	0	1	0	0	CorrectCommission	0.576305	0.350938	1	1
226.306656	0.792162	city	2	1	0.702159	0.702159	0	1	0	0	CorrectCommission	0.173300	0.329163	1	1
227.098877	0.792260	city	1	1	0.702690	0.702690	0	1	0	0	CorrectCommission	0.178267	0.314617	1	1
227.891159	0.792311	city	4	1	0.702752	0.702752	0	1	0	0	CorrectCommission	0.178856	0.306924	1	1
228.683426	0.792222	city	9	1	0.701805	0.701805	0	1	0	0	CorrectCommission	0.169987	0.305565	1	1
229.475769	0.792477	city	1	1	0.695417	0.695417	0	1	0	0	CorrectCommission	0.110192	0.309999	1	1
230.268143	0.792266	city	9	1	0.696743	0.696743	0	1	0	0	CorrectCommission	0.122610	0.319810	1	1
231.060349	0.792155	city	6	1	0.646352	0.646352	0	1	0	0	CorrectCommission	0.349057	0.334812	1	1
231.852615	0.792374	city	5	1	0.614418	0.614418	0	1	0	0	CorrectCommission	0.647962	0.355100	1	1
232.644836	0.792048	city	1	1	0.744596	0.744596	0	1	0	0	CorrectCommission	0.570519	0.381020	1	1
233.436996	0.792272	city	9	1	0.646244	0.646244	0	1	0	0	CorrectCommission	0.350073	0.413096	1	1
234.229309	0.792365	city	4	1	0.646040	0.646040	0	1	0	0	CorrectCommission	0.351977	0.451874	1	1
235.021576	0.792155	city	3	1	0.645783	0.645783	0	1	0	0	CorrectCommission	0.354381	0.497640	1	1
235.813797	0.792308	city	8	1	0.646099	0.646099	0	1	0	0	CorrectCommission	0.351426	0.550224	1	1
236.606125	0.792331	city	6	1	0.695218	0.695218	0	1	0	0	CorrectCommission	0.108329	0.608711	1	1
237.398361	0.792157	city	4	1	0.695366	0.695366	0	1	0	0	CorrectCommission	0.109722	0.671340	1	1
238.190582	0.792268	city	10	1	0.596271	0.596271	0	1	0	0	CorrectCommission	0.817820	0.735516	0	1
238.982956	0.792480	city	8	1	0.645790	0.645790	0	1	0	0	CorrectCommission	0.354321	0.797940	0	1
239.775269	0.792154	city	9	1	0.744585	0.744585	0	1	0	0	CorrectCommission	0.570411	0.854986	0	1
240.567429	0.792157	city	6	1	0.893238	0.893238	0	1	0	0	CorrectCommission	1.961821	0.903097	0	1
241.359634	0.792266	city	3	1	0.859506	0.859506	0	1	0	0	CorrectCommission	1.646089	0.939237	0	1
242.151901	0.792268	city	5	1	0.893355	0.893355	0	1	0	0	CorrectCommission	1.962916	0.961371	0	1
242.944168	0.792260	city	7	1	0.893478	0.893478	0	1	0	0	CorrectCommission	1.964067	0.968619	0	1
243.736435	0.792266	city	1	1	0.808510	0.808510	0	1	0	0	CorrectCommission	1.168756	0.961460	0	1
244.528809	0.792482	city	10	1	0.695860	0.695860	0	1	0	0	CorrectCommission	0.114345	0.941580	0	1
245.321121	0.792155	mountain	6	0	0.000000	0.718000	1	0	0	0	CorrectOmission	0.321575	0.911631	0	1
246.113281	0.792160	city	1	1	0.794284	0.794284	0	1	0	0	CorrectCommission	1.035596	0.874900	0	0
246.905487	0.792264	city	7	1	0.844065	0.844065	0	1	0	0	CorrectCommission	1.501555	0.834951	0	0
247.697754	0.792264	city	4	1	0.745231	0.745231	0	1	0	0	CorrectCommission	0.576463	0.795298	0	0
248.490021	0.792263	city	8	1	0.655203	0.655203	0	1	0	0	CorrectCommission	0.266213	0.759165	0	0
249.282333	0.792374	city	3	1	0.745269	0.745269	0	1	0	0	CorrectCommission	0.576812	0.729234	0	0
250.074661	0.792265	city	8	1	0.744832	0.744832	0	1	0	0	CorrectCommission	0.572721	0.707504	0	0
250.866913	0.792263	city	10	1	0.560206	0.560206	0	1	0	0	CorrectCommission	1.155390	0.695179	0	0
251.659164	0.792235	city	6	1	0.696240	0.696240	0	1	0	0	CorrectCommission	0.117903	0.692583	0	0
252.451385	0.792191	city	3	1	0.652422	0.652422	0	1	0	0	CorrectCommission	0.292241	0.699175	0	0
253.243607	0.792263	city	8	1	0.596423	0.596423	0	1	0	0	CorrectCommission	0.816394	0.713512	0	0
254.035873	0.792262	city	2	1	0.696172	0.696172	0	1	0	0	CorrectCommission	0.117267	0.733365	0	0
254.836380	0.808771	city	10	1	0.718589	0.718589	0	1	0	0	CorrectCommission	0.327089	0.755939	0	0
255.636963	0.792374	city	7	1	0.745009	0.745009	0	1	0	0	CorrectCommission	0.574377	0.778084	0	0
256.429230	0.792156	city	6	1	0.803879	0.803879	0	1	0	0	CorrectCommission	1.125413	0.796665	0	0
257.221497	0.792372	city	3	1	0.942862	0.942862	0	1	0	0	CorrectCommission	2.426307	0.808918	0	0
258.013794	0.792266	city	5	0	0.000000	0.700743	0	0	0	1	OmissionError	0.160048	0.812744	0	0
258.806061	0.792218	city	9	1	0.447611	0.447611	0	1	0	0	CorrectCommission	2.209288	0.807048	0	0
259.598267	0.792200	city	7	1	0.553557	0.553557	0	1	0	0	CorrectCommission	1.217624	0.791688	0	0
260.390503	0.792265	mountain	4	0	0.000000	0.675976	1	0	0	0	CorrectOmission	0.071777	0.767549	0	0
261.182800	0.792374	city	2	1	0.760830	0.760830	0	1	0	0	CorrectCommission	0.722471	0.736338	0	0
261.975189	0.792374	city	4	1	0.754085	0.754085	0	1	0	0	CorrectCommission	0.659337	0.700306	0	0
262.767456	0.792156	city	8	1	0.700766	0.700766	0	1	0	0	CorrectCommission	0.160264	0.661997	1	0
263.559601	0.792155	city	4	1	0.645880	0.645880	0	1	0	0	CorrectCommission	0.353475	0.623991	1	0
264.351929	0.792483	city	6	1	0.601124	0.601124	0	1	0	0	CorrectCommission	0.772394	0.588662	1	0
265.144196	0.792088	mountain	1	1	0.546539	0.546539	0	0	1	0	CommissionError	1.283319	0.558050	1	0
265.936371	0.792224	city	10	1	0.646310	0.646310	0	1	0	0	CorrectCommission	0.349447	0.533747	1	0
266.728607	0.792264	city	1	1	0.695362	0.695362	0	1	0	0	CorrectCommission	0.109684	0.516812	1	0
267.520874	0.792267	city	8	1	0.695572	0.695572	0	1	0	0	CorrectCommission	0.111646	0.507702	1	0
268.313171	0.792317	city	10	1	0.645763	0.645763	0	1	0	0	CorrectCommission	0.354570	0.506218	1	0
269.105499	0.792319	city	9	1	0.695259	0.695259	0	1	0	0	CorrectCommission	0.108714	0.511544	1	0
269.897766	0.792265	mountain	7	0	0.000000	0.736441	1	0	0	0	CorrectOmission	0.494185	0.522314	1	0
270.689972	0.792154	city	8	1	0.744685	0.744685	0	1	0	0	CorrectCommission	0.571348	0.536696	1	0
271.482239	0.792377	city	7	1	0.695365	0.695365	0	1	0	0	CorrectCommission	0.109707	0.552646	1	0
272.274506	0.792155	city	8	1	0.749360	0.749360	0	1	0	0	CorrectCommission	0.615105	0.568131	1	0
273.066772	0.792375	city	9	1	0.805743	0.805743	0	1	0	0	CorrectCommission	1.142862	0.581355	1	0
273.859039	0.792157	city	5	1	0.794321	0.794321	0	1	0	0	CorrectCommission	1.035942	0.590983	1	0
274.651367	0.792481	city	3	1	0.853226	0.853226	0	1	0	0	CorrectCommission	1.587304	0.596256	1	0
275.443634	0.792047	city	1	1	0.744472	0.744472	0	1	0	0	CorrectCommission	0.569358	0.597080	1	0
276.235779	0.792262	mountain	9	0	0.000000	0.673162	1	0	0	0	CorrectOmission	0.098118	0.593924	1	0
277.028046	0.792268	city	5	1	0.652547	0.652547	0	1	0	0	CorrectCommission	0.291075	0.587678	1	0
277.820312	0.792267	city	3	1	0.695880	0.695880	0	1	0	0	CorrectCommission	0.114534	0.579502	1	0
278.612701	0.792478	city	2	1	0.747214	0.747214	0	1	0	0	CorrectCommission	0.595018	0.570651	1	0
279.404999	0.792157	mountain	5	0	0.000000	0.748810	1	0	0	0	CorrectOmission	0.609960	0.562393	1	0
280.197174	0.792165	city	6	1	0.748549	0.748549	0	1	0	0	CorrectCommission	0.607519	0.556011	1	0
280.989380	0.792255	city	8	1	0.794311	0.794311	0	1	0	0	CorrectCommission	1.035858	0.552809	1	0
281.781647	0.792270	city	9	1	0.745140	0.745140	0	1	0	0	CorrectCommission	0.575610	0.554129	1	0
282.573914	0.792289	city	4	1	0.744795	0.744795	0	1	0	0	CorrectCommission	0.572380	0.561390	1	0
283.366302	0.792455	city	8	1	0.646977	0.646977	0	1	0	0	CorrectCommission	0.343207	0.576036	1	0
284.158569	0.792113	mountain	9	0	0.000000	0.686002	1	0	0	0	CorrectOmission	0.022074	0.599445	1	0
284.950745	0.792197	city	5	1	0.745248	0.745248	0	1	0	0	CorrectCommission	0.576621	0.632797	1	0
285.742950	0.792266	city	10	1	0.708091	0.708091	0	1	0	0	CorrectCommission	0.228830	0.676870	0	0
286.535248	0.792334	city	4	1	0.745206	0.745206	0	1	0	0	CorrectCommission	0.576229	0.731904	0	0
287.327515	0.792197	city	9	1	0.761361	0.761361	0	1	0	0	CorrectCommission	0.727442	0.797405	0	0
288.119751	0.792272	city	3	1	0.795946	0.795946	0	1	0	0	CorrectCommission	1.051158	0.872057	0	0
288.912140	0.792474	city	9	1	0.744842	0.744842	0	1	0	0	CorrectCommission	0.572821	0.953669	0	0
289.704437	0.792100	city	10	1	0.695071	0.695071	0	1	0	0	CorrectCommission	0.106958	1.039230	0	0
290.496582	0.792212	city	8	1	0.794267	0.794267	0	1	0	0	CorrectCommission	1.035440	1.125025	0	0
291.288818	0.792299	city	4	1	0.893444	0.893444	0	1	0	0	CorrectCommission	1.963743	1.206817	0	0
292.081238	0.792501	city	5	1	0.893341	0.893341	0	1	0	0	CorrectCommission	1.962787	1.280146	0	0
292.873474	0.791996	city	6	1	0.902414	0.902414	0	1	0	0	CorrectCommission	2.047706	1.340701	0	0
293.665619	0.792262	city	7	1	0.794332	0.794332	0	1	0	0	CorrectCommission	1.036045	1.384644	0	0
294.457886	0.792263	city	3	1	0.794281	0.794281	0	1	0	0	CorrectCommission	1.035569	1.408991	0	0
295.250244	0.792484	mountain	8	0	0.000000	0.872706	1	0	0	0	CorrectOmission	1.769640	1.411886	0	0
296.042542	0.792077	city	10	1	0.949337	0.949337	0	1	0	0	CorrectCommission	2.486911	1.392848	0	0
296.834686	0.792237	city	1	1	0.943902	0.943902	0	1	0	0	CorrectCommission	2.436036	1.352912	0	0
297.626953	0.792294	city	3	0	0.000000	0.926342	0	0	0	1	OmissionError	2.271673	1.294642	0	0
298.419220	0.792239	city	2	1	0.844486	0.844486	0	1	0	0	CorrectCommission	1.505494	1.221889	0	0
299.211578	0.792475	city	4	1	0.646163	0.646163	0	1	0	0	CorrectCommission	0.350827	1.139487	0	0
300.003845	0.792051	city	6	1	0.596034	0.596034	0	1	0	0	CorrectCommission	0.820037	1.052760	0	0
300.796112	0.792480	city	9	1	0.596502	0.596502	0	1	0	0	CorrectCommission	0.815657	0.966947	0	0
301.588470	0.792264	city	1	1	0.646242	0.646242	0	1	0	0	CorrectCommission	0.350083	0.886700	0	0
302.380646	0.792050	city	9	1	0.645544	0.645544	0	1	0	0	CorrectCommission	0.356617	0.815650	0	0
303.172882	0.792479	city	2	1	0.645736	0.645736	0	1	0	0	CorrectCommission	0.354824	0.756122	0	0
303.965149	0.792049	city	9	1	0.695075	0.695075	0	1	0	0	CorrectCommission	0.106997	0.709039	0	0
304.757416	0.792482	city	8	1	0.744810	0.744810	0	1	0	0	CorrectCommission	0.572519	0.674018	0	0
305.549683	0.792046	city	4	1	0.794150	0.794150	0	1	0	0	CorrectCommission	1.034350	0.649586	1	1
306.341949	0.792482	city	1	1	0.604670	0.604670	0	1	0	0	CorrectCommission	0.739204	0.633533	1	1
307.134216	0.792047	city	6	1	0.646005	0.646005	0	1	0	0	CorrectCommission	0.352302	0.623299	1	1
307.926483	0.792483	city	5	1	0.748797	0.748797	0	1	0	0	CorrectCommission	0.609835	0.616307	1	1
308.718750	0.792050	city	3	1	0.744723	0.744723	0	1	0	0	CorrectCommission	0.571706	0.610274	1	1
309.510895	0.792266	city	7	1	0.801244	0.801244	0	1	0	0	CorrectCommission	1.100749	0.603470	1	1
310.303192	0.792276	city	10	1	0.754269	0.754269	0	1	0	0	CorrectCommission	0.661059	0.594854	1	1
311.095428	0.792248	city	8	1	0.596200	0.596200	0	1	0	0	CorrectCommission	0.818481	0.584156	1	1
311.887695	0.792266	city	1	1	0.646373	0.646373	0	1	0	0	CorrectCommission	0.348857	0.571796	1	1
312.679993	0.792322	city	7	1	0.794345	0.794345	0	1	0	0	CorrectCommission	1.036174	0.558785	1	1
313.472260	0.792208	city	9	1	0.695964	0.695964	0	1	0	0	CorrectCommission	0.115314	0.546507	1	1
314.264496	0.792268	city	3	1	0.695381	0.695381	0	1	0	0	CorrectCommission	0.109859	0.536584	1	1
315.056824	0.792368	mountain	10	1	0.745188	0.745188	0	0	1	0	CommissionError	0.576060	0.530565	1	1
315.849121	0.792266	city	8	1	0.596169	0.596169	0	1	0	0	CorrectCommission	0.818779	0.529718	1	1
316.641357	0.792158	city	4	1	0.645674	0.645674	0	1	0	0	CorrectCommission	0.355402	0.534857	1	1
317.433563	0.792289	mountain	4	0	0.000000	0.644642	1	0	0	0	CorrectOmission	0.365066	0.546167	1	1
318.225830	0.792238	city	7	1	0.645736	0.645736	0	1	0	0	CorrectCommission	0.354820	0.563101	1	1
319.018127	0.792329	city	6	1	0.701623	0.701623	0	1	0	0	CorrectCommission	0.168287	0.584403	1	1
319.810394	0.792206	mountain	4	0	0.000000	0.697245	1	0	0	0	CorrectOmission	0.127306	0.608188	1	1
320.602722	0.792475	city	9	1	0.645733	0.645733	0	1	0	0	CorrectCommission	0.354851	0.632149	1	1
321.394989	0.792048	city	10	1	0.560219	0.560219	0	1	0	0	CorrectCommission	1.155273	0.653816	1	1
322.187164	0.792309	city	5	1	0.549195	0.549195	0	1	0	0	CorrectCommission	1.258455	0.670890	1	1
322.979431	0.792222	city	7	1	0.552311	0.552311	0	1	0	0	CorrectCommission	1.229294	0.681559	0	1
323.771790	0.792480	city	3	1	0.555961	0.555961	0	1	0	0	CorrectCommission	1.195127	0.684739	0	1
324.564056	0.792076	city	9	1	0.596389	0.596389	0	1	0	0	CorrectCommission	0.816718	0.680191	0	1
325.356232	0.792296	city	7	1	0.596207	0.596207	0	1	0	0	CorrectCommission	0.818422	0.668523	1	1
326.148560	0.792314	city	9	1	0.614202	0.614202	0	1	0	0	CorrectCommission	0.649982	0.651068	1	1
326.940796	0.792153	city	6	1	0.695161	0.695161	0	1	0	0	CorrectCommission	0.107803	0.629664	1	1
327.733002	0.792270	city	7	1	0.659353	0.659353	0	1	0	0	CorrectCommission	0.227368	0.606447	1	1
328.525269	0.792261	mountain	1	1	0.659678	0.659678	0	0	1	0	CommissionError	0.224328	0.583585	1	1
329.317566	0.792325	city	10	1	0.546711	0.546711	0	1	0	0	CorrectCommission	1.281704	0.563132	1	1
330.109802	0.792203	city	5	1	0.603222	0.603222	0	1	0	0	CorrectCommission	0.752757	0.546829	1	1
330.902039	0.792270	city	3	1	0.654227	0.654227	0	1	0	0	CorrectCommission	0.275348	0.536153	1	1
331.694305	0.792262	city	4	1	0.646235	0.646235	0	1	0	0	CorrectCommission	0.350155	0.532173	1	1
332.486633	0.792374	city	1	1	0.648746	0.648746	0	1	0	0	CorrectCommission	0.326646	0.535587	1	1
333.278900	0.792156	city	4	1	0.695180	0.695180	0	1	0	0	CorrectCommission	0.107980	0.546744	1	1
334.071106	0.792268	city	2	1	0.745087	0.745087	0	1	0	0	CorrectCommission	0.575113	0.565672	1	1
334.863373	0.792274	city	5	1	0.657705	0.657705	0	1	0	0	CorrectCommission	0.242796	0.592113	1	1
335.655640	0.792266	city	6	1	0.761024	0.761024	0	1	0	0	CorrectCommission	0.724279	0.625598	1	1
336.447906	0.792251	city	1	1	0.695323	0.695323	0	1	0	0	CorrectCommission	0.109316	0.665492	1	1
337.240173	0.792262	city	7	1	0.794328	0.794328	0	1	0	0	CorrectCommission	1.036013	0.711050	0	1
338.032440	0.792268	mountain	6	0	0.000000	0.828398	1	0	0	0	CorrectOmission	1.354911	0.761360	0	1
338.824707	0.792263	mountain	4	0	0.000000	0.808375	1	0	0	0	CorrectOmission	1.167491	0.815309	0	1
339.616974	0.792264	city	7	1	0.745100	0.745100	0	1	0	0	CorrectCommission	0.575232	0.871517	0	1
340.409241	0.792267	city	10	1	0.649415	0.649415	0	1	0	0	CorrectCommission	0.320386	0.928262	0	1
341.201508	0.792261	city	5	1	0.746799	0.746799	0	1	0	0	CorrectCommission	0.591140	0.983414	0	1
341.993866	0.792484	city	10	1	0.744968	0.744968	0	1	0	0	CorrectCommission	0.573997	1.034477	0	1
342.786133	0.792046	mountain	3	0	0.000000	0.797997	1	0	0	0	CorrectOmission	1.070359	1.078772	0	1
343.578400	0.792482	city	3	1	0.862022	0.862022	0	1	0	0	CorrectCommission	1.669631	1.113760	0	1
344.370728	0.792157	city	9	1	0.893174	0.893174	0	1	0	0	CorrectCommission	1.961219	1.137307	0	1
345.162872	0.792178	city	4	1	0.843723	0.843723	0	1	0	0	CorrectCommission	1.498350	1.148118	0	1
345.955139	0.792352	city	5	1	0.992942	0.992942	0	1	0	0	CorrectCommission	2.895058	1.146034	0	1
346.747437	0.792214	city	1	1	0.745507	0.745507	0	1	0	0	CorrectCommission	0.579040	1.132134	0	1
347.539642	0.792208	city	10	1	0.806260	0.806260	0	1	0	0	CorrectCommission	1.147699	1.108877	0	1
348.331879	0.792262	city	9	1	0.843814	0.843814	0	1	0	0	CorrectCommission	1.499202	1.079706	0	1
349.124146	0.792272	mountain	5	0	0.000000	0.744151	1	0	0	0	CorrectOmission	0.566350	1.048762	0	1
349.916443	0.792321	city	9	1	0.647815	0.647815	0	1	0	0	CorrectCommission	0.335367	1.020480	0	1
350.708710	0.792200	city	10	1	0.695347	0.695347	0	1	0	0	CorrectCommission	0.109537	0.999094	0	1
351.500946	0.792268	city	1	1	0.794309	0.794309	0	1	0	0	CorrectCommission	1.035830	0.988201	0	1
352.293213	0.792269	city	8	1	0.843842	0.843842	0	1	0	0	CorrectCommission	1.499472	0.990378	0	1
353.085571	0.792475	city	7	1	0.843816	0.843816	0	1	0	0	CorrectCommission	1.499229	1.006936	0	1
353.877838	0.792081	city	9	1	0.695291	0.695291	0	1	0	0	CorrectCommission	0.109018	1.037757	0	1
354.670013	0.792244	mountain	5	0	0.000000	0.687501	1	0	0	0	CorrectOmission	0.036103	1.081235	0	1
355.462280	0.792312	city	1	1	0.745498	0.745498	0	1	0	0	CorrectCommission	0.578955	1.134332	0	1
356.254578	0.792259	city	9	1	0.794331	0.794331	0	1	0	0	CorrectCommission	1.036041	1.192852	0	1
357.046936	0.792428	city	4	1	0.761024	0.761024	0	1	0	0	CorrectCommission	0.724284	1.251866	0	1
357.839172	0.792056	city	5	1	0.801224	0.801224	0	1	0	0	CorrectCommission	1.100560	1.306234	0	1
358.631317	0.792258	city	6	1	1.190432	1.190432	0	1	0	0	CorrectCommission	4.743583	1.351133	0	1
359.423676	0.792479	city	9	1	0.844456	0.844456	0	1	0	0	CorrectCommission	1.505219	1.382542	0	1
360.215942	0.792050	city	8	1	0.808770	0.808770	0	1	0	0	CorrectCommission	1.171189	1.397850	0	1
361.008209	0.792480	city	4	1	0.751851	0.751851	0	1	0	0	CorrectCommission	0.638426	1.395945	0	1
361.800537	0.792156	city	3	1	0.843927	0.843927	0	1	0	0	CorrectCommission	1.500260	1.377310	0	1
362.592712	0.792188	city	9	1	1.091302	1.091302	0	1	0	0	CorrectCommission	3.815721	1.343848	0	1
363.385040	0.792450	city	3	1	0.893309	0.893309	0	1	0	0	CorrectCommission	1.962483	1.298538	0	1
364.177277	0.792046	city	1	1	0.695048	0.695048	0	1	0	0	CorrectCommission	0.106740	1.245151	0	1
364.969452	0.792325	mountain	2	0	0.000000	0.682948	1	0	0	0	CorrectOmission	0.006514	1.187687	0	0
365.761719	0.792206	city	3	1	0.751282	0.751282	0	1	0	0	CorrectCommission	0.633098	1.129975	0	0
366.553955	0.792264	city	1	1	0.794322	0.794322	0	1	0	0	CorrectCommission	1.035954	1.075447	0	0
367.346222	0.792267	city	4	1	0.760940	0.760940	0	1	0	0	CorrectCommission	0.723499	1.026961	0	0
368.138611	0.792480	city	7	1	0.843824	0.843824	0	1	0	0	CorrectCommission	1.499301	0.986844	0	0
368.930878	0.792049	city	1	1	0.843608	0.843608	0	1	0	0	CorrectCommission	1.497279	0.956925	0	0
369.723022	0.792265	city	5	1	0.794758	0.794758	0	1	0	0	CorrectCommission	1.040035	0.938659	0	0
370.515289	0.792261	city	7	1	0.646890	0.646890	0	1	0	0	CorrectCommission	0.344019	0.933171	0	0
371.307556	0.792265	city	6	1	0.695376	0.695376	0	1	0	0	CorrectCommission	0.109807	0.941223	0	0
372.099854	0.792328	mountain	1	0	0.000000	0.758973	1	0	0	0	CorrectOmission	0.705085	0.963032	0	0
372.892120	0.792204	city	1	1	0.803542	0.803542	0	1	0	0	CorrectCommission	1.122256	0.998041	0	0
373.684357	0.792266	city	9	1	0.794942	0.794942	0	1	0	0	CorrectCommission	1.041764	1.044722	0	0
374.476654	0.792372	city	3	1	0.747248	0.747248	0	1	0	0	CorrectCommission	0.595343	1.100445	0	0
375.268921	0.792156	city	1	1	0.699034	0.699034	0	1	0	0	CorrectCommission	0.144046	1.161451	0	0
376.061188	0.792370	city	3	1	0.547677	0.547677	0	1	0	0	CorrectCommission	1.272664	1.222927	0	0
376.853455	0.792161	city	4	1	0.515554	0.515554	0	1	0	0	CorrectCommission	1.573342	1.279457	0	0
377.645660	0.792264	city	3	1	0.794761	0.794761	0	1	0	0	CorrectCommission	1.040063	1.325493	0	0
378.437958	0.792323	city	8	1	0.413138	0.413138	0	1	0	0	CorrectCommission	2.531958	1.355996	0	0
379.230347	0.792421	city	6	1	0.447609	0.447609	0	1	0	0	CorrectCommission	2.209307	1.367030	0	0
380.022614	0.792157	city	4	1	0.496977	0.496977	0	1	0	0	CorrectCommission	1.747221	1.356335	0	0
380.814789	0.792191	city	3	1	0.409721	0.409721	0	1	0	0	CorrectCommission	2.563944	1.323693	0	0
381.606995	0.792228	city	4	1	0.348630	0.348630	0	1	0	0	CorrectCommission	3.135767	1.270959	0	0
382.399353	0.792484	city	7	1	0.596826	0.596826	0	1	0	0	CorrectCommission	0.812629	1.201815	0	0
383.191620	0.792046	city	1	1	0.657036	0.657036	0	1	0	0	CorrectCommission	0.249052	1.121320	0	0
383.983826	0.792318	city	10	1	0.645775	0.645775	0	1	0	0	CorrectCommission	0.354458	1.035150	0	0
384.776184	0.792429	city	4	1	0.645810	0.645810	0	1	0	0	CorrectCommission	0.354127	0.948903	0	0
385.568420	0.792051	city	9	1	0.607687	0.607687	0	1	0	0	CorrectCommission	0.710963	0.867441	0	0
386.360596	0.792261	city	2	1	0.602471	0.602471	0	1	0	0	CorrectCommission	0.759789	0.794391	0	0
387.152954	0.792483	city	1	1	0.607829	0.607829	0	1	0	0	CorrectCommission	0.709632	0.731881	0	0
387.945221	0.792049	city	4	1	0.695079	0.695079	0	1	0	0	CorrectCommission	0.107030	0.680503	0	0
388.737396	0.792294	city	2	1	0.702445	0.702445	0	1	0	0	CorrectCommission	0.175978	0.639502	1	0
389.529755	0.792451	city	1	1	0.744763	0.744763	0	1	0	0	CorrectCommission	0.572081	0.607062	1	0
390.322052	0.792108	city	8	1	0.608908	0.608908	0	1	0	0	CorrectCommission	0.699539	0.580758	1	0
391.114197	0.792206	mountain	4	0	0.000000	0.711894	1	0	0	0	CorrectOmission	0.264418	0.558019	1	0
391.906464	0.792323	city	10	1	0.843802	0.843802	0	1	0	0	CorrectCommission	1.499094	0.536562	1	0
392.698761	0.792249	city	2	1	0.794714	0.794714	0	1	0	0	CorrectCommission	1.039628	0.514660	1	0
393.490997	0.792221	city	3	1	0.702464	0.702464	0	1	0	0	CorrectCommission	0.176155	0.491392	1	0
394.283234	0.792268	city	2	1	0.744987	0.744987	0	1	0	0	CorrectCommission	0.574174	0.466644	1	0
395.075500	0.792261	city	7	1	0.646267	0.646267	0	1	0	0	CorrectCommission	0.349852	0.441006	1	0
395.867859	0.792483	city	1	1	0.646820	0.646820	0	1	0	0	CorrectCommission	0.344678	0.415583	1	0
396.660156	0.792110	city	6	1	0.709103	0.709103	0	1	0	0	CorrectCommission	0.238301	0.391762	1	0
397.452332	0.792201	city	3	1	0.659292	0.659292	0	1	0	0	CorrectCommission	0.227938	0.370965	1	0
398.244629	0.792431	city	5	1	0.696050	0.696050	0	1	0	0	CorrectCommission	0.116117	0.354424	1	0
399.037018	0.792316	city	9	1	0.645574	0.645574	0	1	0	0	CorrectCommission	0.356342	0.343009	1	0
399.829193	0.792051	mountain	10	1	0.695133	0.695133	0	0	1	0	CommissionError	0.107535	0.337214	1	0
400.621338	0.792263	city	4	1	0.707261	0.707261	0	1	0	0	CorrectCommission	0.221058	0.337127	1	0
401.413727	0.792482	city	9	1	0.646231	0.646231	0	1	0	0	CorrectCommission	0.350186	0.342450	1	0
402.205994	0.792051	mountain	5	1	0.701082	0.701082	0	0	1	0	CommissionError	0.163223	0.352618	1	0
402.998199	0.792368	city	6	1	0.645896	0.645896	0	1	0	0	CorrectCommission	0.353325	0.366903	1	0
403.790466	0.792160	city	1	1	0.596136	0.596136	0	1	0	0	CorrectCommission	0.819085	0.384506	1	0
404.582733	0.792371	city	4	1	0.645900	0.645900	0	1	0	0	CorrectCommission	0.353289	0.404620	1	0
405.375000	0.792156	city	6	1	0.716363	0.716363	0	1	0	0	CorrectCommission	0.306252	0.426505	1	0
406.167206	0.792269	city	9	1	0.695353	0.695353	0	1	0	0	CorrectCommission	0.109595	0.449474	1	0
406.959473	0.792264	city	7	1	0.645692	0.645692	0	1	0	0	CorrectCommission	0.355237	0.472877	1	0
407.751770	0.792328	city	3	1	0.646081	0.646081	0	1	0	0	CorrectCommission	0.351592	0.496085	1	0
408.544037	0.792198	city	9	1	0.546997	0.546997	0	1	0	0	CorrectCommission	1.279028	0.518467	1	0
409.336243	0.792263	city	1	1	0.596239	0.596239	0	1	0	0	CorrectCommission	0.818119	0.539336	1	0
410.128510	0.792265	city	7	1	0.651108	0.651108	0	1	0	0	CorrectCommission	0.304542	0.557975	1	0
410.920776	0.792268	city	10	1	0.696291	0.696291	0	1	0	0	CorrectCommission	0.118372	0.573657	1	0
411.713165	0.792479	city	6	1	0.745098	0.745098	0	1	0	0	CorrectCommission	0.575217	0.585631	1	0
412.505432	0.792049	city	1	1	0.751705	0.751705	0	1	0	0	CorrectCommission	0.637056	0.593219	1	0
413.297577	0.792265	city	4	1	0.794458	0.794458	0	1	0	0	CorrectCommission	1.037229	0.595972	1	0
414.089966	0.792480	city	10	1	0.646196	0.646196	0	1	0	0	CorrectCommission	0.350516	0.593734	1	0
414.882233	0.792051	city	6	1	0.805958	0.805958	0	1	0	0	CorrectCommission	1.144867	0.586856	1	0
415.674377	0.792282	city	3	1	0.558530	0.558530	0	1	0	0	CorrectCommission	1.171079	0.576229	1	0
416.466644	0.792243	city	1	1	0.646216	0.646216	0	1	0	0	CorrectCommission	0.350335	0.563456	1	0
417.258911	0.792265	city	4	1	0.645870	0.645870	0	1	0	0	CorrectCommission	0.353569	0.550751	1	0
418.051178	0.792263	city	6	1	0.645923	0.645923	0	1	0	0	CorrectCommission	0.353075	0.540809	1	0
418.843445	0.792298	city	5	1	0.596464	0.596464	0	1	0	0	CorrectCommission	0.816014	0.536607	1	0
419.635712	0.792236	city	6	1	0.663251	0.663251	0	1	0	0	CorrectCommission	0.190878	0.541091	1	0
420.427948	0.792261	city	2	1	0.663079	0.663079	0	1	0	0	CorrectCommission	0.192495	0.556864	1	0
421.220215	0.792269	city	7	1	0.652732	0.652732	0	1	0	0	CorrectCommission	0.289345	0.585760	1	0
422.012543	0.792370	mountain	5	0	0.000000	0.705217	1	0	0	0	CorrectOmission	0.201925	0.628550	1	0
422.804810	0.792159	city	10	1	0.744684	0.744684	0	1	0	0	CorrectCommission	0.571340	0.684683	0	0
423.597046	0.792309	city	2	1	0.695281	0.695281	0	1	0	0	CorrectCommission	0.108924	0.752161	0	0
424.389374	0.792327	city	6	1	0.758013	0.758013	0	1	0	0	CorrectCommission	0.696097	0.827613	0	1
425.181671	0.792265	city	9	1	0.706746	0.706746	0	1	0	0	CorrectCommission	0.216233	0.906498	0	1
425.973877	0.792157	city	10	1	0.794566	0.794566	0	1	0	0	CorrectCommission	1.038236	0.983555	0	1
426.766113	0.792299	city	9	1	0.794709	0.794709	0	1	0	0	CorrectCommission	1.039581	1.053351	0	1
427.558411	0.792337	city	5	1	0.845194	0.845194	0	1	0	0	CorrectCommission	1.512125	1.110977	0	1
428.350708	0.792265	city	9	1	1.091324	1.091324	0	1	0	0	CorrectCommission	3.815921	1.152575	0	1
429.142944	0.792187	city	2	1	0.843775	0.843775	0	1	0	0	CorrectCommission	1.498839	1.175776	0	1
429.935303	0.792506	city	7	1	0.848687	0.848687	0	1	0	0	CorrectCommission	1.544815	1.180090	0	1
430.727661	0.792210	city	6	1	0.700154	0.700154	0	1	0	0	CorrectCommission	0.154535	1.166719	0	1
431.519806	0.792110	city	5	1	0.992155	0.992155	0	1	0	0	CorrectCommission	2.887692	1.138409	0	1
432.312012	0.792282	city	1	1	0.808447	0.808447	0	1	0	0	CorrectCommission	1.168163	1.098837	0	1
433.104340	0.792403	city	8	1	0.695714	0.695714	0	1	0	0	CorrectCommission	0.112979	1.052206	0	1
433.896576	0.792048	city	7	1	0.658531	0.658531	0	1	0	0	CorrectCommission	0.235061	1.002607	0	1
434.688721	0.792263	city	5	1	0.645887	0.645887	0	1	0	0	CorrectCommission	0.353407	0.953526	0	1
435.480988	0.792266	city	1	1	0.547044	0.547044	0	1	0	0	CorrectCommission	1.278594	0.907587	0	1
436.273376	0.792487	city	9	1	0.596219	0.596219	0	1	0	0	CorrectCommission	0.818305	0.866417	0	1
437.065643	0.792042	mountain	6	0	0.000000	0.604412	1	0	0	0	CorrectOmission	0.741617	0.830763	0	1
437.857788	0.792264	city	6	1	0.596220	0.596220	0	1	0	0	CorrectCommission	0.818302	0.800660	0	1
438.650055	0.792269	city	7	1	0.596238	0.596238	0	1	0	0	CorrectCommission	0.818129	0.775685	0	1
439.442322	0.792260	city	1	1	0.547488	0.547488	0	1	0	0	CorrectCommission	1.274439	0.755210	0	1
440.234619	0.792323	city	5	1	0.601940	0.601940	0	1	0	0	CorrectCommission	0.764759	0.738578	0	1
441.026886	0.792208	city	3	1	0.695281	0.695281	0	1	0	0	CorrectCommission	0.108924	0.725246	0	1
441.819122	0.792266	city	10	1	0.695272	0.695272	0	1	0	0	CorrectCommission	0.108840	0.714791	0	1
442.611389	0.792265	city	2	1	0.860923	0.860923	0	1	0	0	CorrectCommission	1.659346	0.706880	0	1
443.403656	0.792266	city	6	1	0.744736	0.744736	0	1	0	0	CorrectCommission	0.571828	0.701159	0	1
444.195892	0.792261	mountain	9	1	0.695249	0.695249	0	0	1	0	CommissionError	0.108624	0.697289	0	1
444.988159	0.792270	city	1	1	0.596911	0.596911	0	1	0	0	CorrectCommission	0.811829	0.694842	0	1
445.780426	0.792261	city	10	1	0.647843	0.647843	0	1	0	0	CorrectCommission	0.335102	0.693239	0	1
446.572723	0.792318	city	2	1	0.794900	0.794900	0	1	0	0	CorrectCommission	1.041368	0.691910	0	1
447.364990	0.792210	city	4	1	0.803311	0.803311	0	1	0	0	CorrectCommission	1.120091	0.690238	0	1
448.157227	0.792267	city	9	1	0.613364	0.613364	0	1	0	0	CorrectCommission	0.657824	0.687703	0	1
448.949615	0.792480	city	6	1	0.610163	0.610163	0	1	0	0	CorrectCommission	0.687789	0.683879	0	1
449.741974	0.792263	city	5	1	0.744947	0.744947	0	1	0	0	CorrectCommission	0.573798	0.678520	0	1
450.534180	0.792157	city	3	1	0.744731	0.744731	0	1	0	0	CorrectCommission	0.571780	0.671573	0	1
451.326355	0.792155	city	4	1	0.794312	0.794312	0	1	0	0	CorrectCommission	1.035862	0.663165	1	1
452.118652	0.792483	city	10	1	0.695440	0.695440	0	1	0	0	CorrectCommission	0.110411	0.653598	1	1
452.911041	0.792264	city	6	1	0.600728	0.600728	0	1	0	0	CorrectCommission	0.776104	0.643347	1	1
453.703217	0.792086	city	2	1	0.596005	0.596005	0	1	0	0	CorrectCommission	0.820309	0.633036	1	1
454.495483	0.792444	city	3	1	0.596199	0.596199	0	1	0	0	CorrectCommission	0.818498	0.623412	1	1
455.287720	0.792050	city	2	1	0.596482	0.596482	0	1	0	0	CorrectCommission	0.815843	0.615328	1	1
456.079926	0.792372	city	9	1	0.646044	0.646044	0	1	0	0	CorrectCommission	0.351937	0.609689	1	1
456.872192	0.792155	city	10	1	0.651174	0.651174	0	1	0	0	CorrectCommission	0.303926	0.607407	1	1
457.664398	0.792276	city	8	1	0.744793	0.744793	0	1	0	0	CorrectCommission	0.572359	0.609308	1	1
458.456665	0.792254	city	6	1	0.645742	0.645742	0	1	0	0	CorrectCommission	0.354764	0.616063	1	1
459.248932	0.792264	city	5	1	0.646026	0.646026	0	1	0	0	CorrectCommission	0.352105	0.628132	1	1
460.041260	0.792374	city	7	1	0.598644	0.598644	0	1	0	0	CorrectCommission	0.795611	0.645642	1	1
460.833527	0.792154	city	3	1	0.751667	0.751667	0	1	0	0	CorrectCommission	0.636704	0.668391	1	1
461.625824	0.792482	city	5	1	0.794405	0.794405	0	1	0	0	CorrectCommission	1.036732	0.695807	0	1
462.418091	0.792050	mountain	10	1	0.745382	0.745382	0	0	1	0	CommissionError	0.577869	0.726886	0	1
463.210266	0.792263	city	6	1	0.654318	0.654318	0	1	0	0	CorrectCommission	0.274493	0.760231	0	1
464.002625	0.792482	mountain	6	0	0.000000	0.609940	1	0	0	0	CorrectOmission	0.689874	0.794073	0	1
464.794891	0.792047	city	8	1	0.595992	0.595992	0	1	0	0	CorrectCommission	0.820431	0.826360	0	1
465.587067	0.792267	city	9	1	0.596218	0.596218	0	1	0	0	CorrectCommission	0.818320	0.854933	0	1
466.379303	0.792260	city	6	1	0.596220	0.596220	0	1	0	0	CorrectCommission	0.818299	0.877745	0	1
467.171600	0.792287	city	1	1	0.546731	0.546731	0	1	0	0	CorrectCommission	1.281524	0.893114	0	1
467.963867	0.792246	mountain	7	1	0.547042	0.547042	0	0	1	0	CommissionError	1.278612	0.899963	0	1
468.756104	0.792269	mountain	3	1	0.448111	0.448111	0	0	1	0	CommissionError	2.204611	0.898012	0	1
469.548370	0.792263	city	1	1	0.794346	0.794346	0	1	0	0	CorrectCommission	1.036184	0.887880	0	1
470.340698	0.792370	city	3	1	0.745039	0.745039	0	1	0	0	CorrectCommission	0.574665	0.871067	0	1
471.133026	0.792265	city	7	1	0.646125	0.646125	0	1	0	0	CorrectCommission	0.351185	0.849760	0	1
471.925323	0.792374	city	8	1	0.596137	0.596137	0	1	0	0	CorrectCommission	0.819074	0.826571	0	1
472.717560	0.792106	city	1	1	0.596042	0.596042	0	1	0	0	CorrectCommission	0.819968	0.804193	0	1
473.509735	0.792207	city	5	1	0.596204	0.596204	0	1	0	0	CorrectCommission	0.818449	0.785076	0	1
474.301971	0.792283	city	7	1	0.603040	0.603040	0	1	0	0	CorrectCommission	0.754461	0.771098	0	1
475.094299	0.792356	mountain	3	0	0.000000	0.675637	1	0	0	0	CorrectOmission	0.074948	0.763330	0	1
475.886566	0.792204	mountain	10	0	0.000000	0.745654	1	0	0	0	CorrectOmission	0.580416	0.761914	0	1
476.678802	0.792249	city	4	1	0.744750	0.744750	0	1	0	0	CorrectCommission	0.571960	0.766028	0	1
477.471039	0.792235	city	2	1	0.604586	0.604586	0	1	0	0	CorrectCommission	0.739988	0.774031	0	1
478.263275	0.792260	city	4	1	0.646294	0.646294	0	1	0	0	CorrectCommission	0.349602	0.783701	0	1
479.055573	0.792337	city	6	1	0.596394	0.596394	0	1	0	0	CorrectCommission	0.816667	0.792535	0	1
479.847839	0.792196	city	9	1	0.848409	0.848409	0	1	0	0	CorrectCommission	1.542218	0.798097	0	1
480.640076	0.792266	city	4	1	0.562940	0.562940	0	1	0	0	CorrectCommission	1.129800	0.798339	0	1
481.432373	0.792295	city	6	1	0.546829	0.546829	0	1	0	0	CorrectCommission	1.280600	0.791842	0	1
482.224670	0.792339	city	2	1	0.551422	0.551422	0	1	0	0	CorrectCommission	1.237616	0.777921	0	1
483.016937	0.792184	mountain	10	0	0.000000	0.582940	1	0	0	0	CorrectOmission	0.942600	0.756625	0	1
483.809265	0.792454	city	5	1	0.645834	0.645834	0	1	0	0	CorrectCommission	0.353904	0.728636	0	1
484.601501	0.792052	city	4	1	0.744554	0.744554	0	1	0	0	CorrectCommission	0.570123	0.695057	0	1
485.393707	0.792328	city	10	1	0.646217	0.646217	0	1	0	0	CorrectCommission	0.350322	0.657228	1	1
486.185974	0.792199	city	2	1	0.645803	0.645803	0	1	0	0	CorrectCommission	0.354192	0.616566	1	1
486.978302	0.792481	city	9	1	0.745021	0.745021	0	1	0	0	CorrectCommission	0.574498	0.574498	1	1
