onset	duration	trial_type	image_type	Press	ReactionTime	ReactionTime_Interpolated	CorrectOmission	CorrectCommission	CommissionError	OmissionError	response_type	nonsmoothVarianceTimeCourse	VarianceTimeCourse	In_the_Zone	Reward_trial
8.433818	0.792248	city	5	1	0.564442	0.564442	0	1	0	0	CorrectCommission	0.410692	0.410692	1	1
9.226074	0.792266	city	10	1	0.411851	0.411851	0	1	0	0	CorrectCommission	1.734713	0.704451	0	1
10.018339	0.792263	city	8	1	0.348635	0.348635	0	1	0	0	CorrectCommission	2.283232	0.984736	0	1
10.810711	0.792481	city	7	1	0.405832	0.405832	0	1	0	0	CorrectCommission	1.786935	1.239380	0	1
11.603085	0.792266	city	2	1	0.349076	0.349076	0	1	0	0	CorrectCommission	2.279407	1.458572	0	1
12.395268	0.792102	city	8	1	1.041698	1.041698	0	1	0	0	CorrectCommission	3.730423	1.635637	0	1
13.187479	0.792318	city	6	1	0.942770	0.942770	0	1	0	0	CorrectCommission	2.872026	1.767447	0	1
13.979728	0.792180	city	5	1	0.946199	0.946199	0	1	0	0	CorrectCommission	2.901779	1.854447	0	1
14.771940	0.792245	city	4	1	0.893283	0.893283	0	1	0	0	CorrectCommission	2.442633	1.900177	0	1
15.564301	0.792479	city	8	1	0.942860	0.942860	0	1	0	0	CorrectCommission	2.872808	1.910569	0	1
16.356564	0.792045	city	5	0	0.000000	0.769531	0	0	0	1	OmissionError	1.368852	1.893071	0	1
17.148720	0.792266	city	8	1	0.546697	0.546697	0	1	0	0	CorrectCommission	0.564665	1.855760	0	1
17.940985	0.792264	city	7	1	0.447756	0.447756	0	1	0	0	CorrectCommission	1.423172	1.806554	0	1
18.733250	0.792269	city	6	1	0.447700	0.447700	0	1	0	0	CorrectCommission	1.423658	1.752628	0	1
19.525517	0.792262	city	8	1	0.398194	0.398194	0	1	0	0	CorrectCommission	1.853213	1.700112	0	1
20.317780	0.792266	city	6	1	0.348716	0.348716	0	1	0	0	CorrectCommission	2.282534	1.653967	0	1
21.110046	0.792267	city	9	1	0.398250	0.398250	0	1	0	0	CorrectCommission	1.852725	1.618005	0	1
21.902340	0.792320	city	10	1	0.463608	0.463608	0	1	0	0	CorrectCommission	1.285625	1.595025	0	1
22.694603	0.792204	city	2	1	0.497608	0.497608	0	1	0	0	CorrectCommission	0.990603	1.586827	0	1
23.486864	0.792320	city	9	1	0.398287	0.398287	0	1	0	0	CorrectCommission	1.852406	1.594186	0	1
24.279129	0.792211	city	7	1	0.498362	0.498362	0	1	0	0	CorrectCommission	0.984063	1.616798	0	1
25.071367	0.792263	city	1	1	0.596376	0.596376	0	1	0	0	CorrectCommission	0.133602	1.653238	0	1
25.863634	0.792270	city	8	1	0.447716	0.447716	0	1	0	0	CorrectCommission	1.423517	1.700892	0	1
26.656008	0.792478	city	2	1	0.398720	0.398720	0	1	0	0	CorrectCommission	1.848652	1.755961	0	1
27.448380	0.792266	city	9	1	0.398165	0.398165	0	1	0	0	CorrectCommission	1.853469	1.813723	0	1
28.240536	0.792047	city	4	1	0.348552	0.348552	0	1	0	0	CorrectCommission	2.283955	1.868866	0	1
29.032719	0.792319	city	10	1	0.348652	0.348652	0	1	0	0	CorrectCommission	2.283087	1.915880	0	1
29.824984	0.792212	city	8	1	0.311556	0.311556	0	1	0	0	CorrectCommission	2.604967	1.949535	0	1
30.617222	0.792263	city	1	1	0.348790	0.348790	0	1	0	0	CorrectCommission	2.281889	1.965330	0	1
31.409496	0.792286	city	2	1	0.299442	0.299442	0	1	0	0	CorrectCommission	2.710075	1.959885	0	1
32.201759	0.792243	city	6	1	0.359223	0.359223	0	1	0	0	CorrectCommission	2.191359	1.931201	0	1
32.994030	0.792298	city	1	1	0.349394	0.349394	0	1	0	0	CorrectCommission	2.276647	1.878799	0	1
33.786297	0.792230	city	3	1	0.364489	0.364489	0	1	0	0	CorrectCommission	2.145674	1.803751	0	1
34.578552	0.792283	city	8	1	0.355504	0.355504	0	1	0	0	CorrectCommission	2.223633	1.708571	0	1
35.370926	0.792464	city	2	1	0.398165	0.398165	0	1	0	0	CorrectCommission	1.853464	1.596948	0	1
36.163235	0.792155	city	8	1	0.448039	0.448039	0	1	0	0	CorrectCommission	1.420713	1.473493	0	1
36.955391	0.792156	city	3	1	0.447823	0.447823	0	1	0	0	CorrectCommission	1.422584	1.343366	0	1
37.747711	0.792481	city	5	1	0.402917	0.402917	0	1	0	0	CorrectCommission	1.812229	1.211876	0	1
38.540085	0.792265	city	10	1	0.546502	0.546502	0	1	0	0	CorrectCommission	0.566358	1.084099	0	1
39.332279	0.792124	city	4	1	0.609354	0.609354	0	1	0	0	CorrectCommission	0.020996	0.964558	0	1
40.124439	0.792196	city	5	1	0.604554	0.604554	0	1	0	0	CorrectCommission	0.062647	0.856899	0	1
40.916687	0.792302	city	7	1	0.514290	0.514290	0	1	0	0	CorrectCommission	0.845858	0.763692	0	1
41.709057	0.792436	city	2	1	0.553379	0.553379	0	1	0	0	CorrectCommission	0.506688	0.686364	0	1
42.501301	0.792053	city	6	1	0.600882	0.600882	0	1	0	0	CorrectCommission	0.094505	0.625284	0	1
43.293457	0.792260	city	2	1	0.657252	0.657252	0	1	0	0	CorrectCommission	0.394610	0.579840	1	1
44.085758	0.792337	city	1	1	0.648313	0.648313	0	1	0	0	CorrectCommission	0.317045	0.548635	1	1
44.878040	0.792229	city	7	1	0.744766	0.744766	0	1	0	0	CorrectCommission	1.153963	0.529715	1	1
45.670376	0.792444	city	3	1	0.645688	0.645688	0	1	0	0	CorrectCommission	0.294276	0.520803	1	1
46.462624	0.792051	city	7	1	0.596155	0.596155	0	1	0	0	CorrectCommission	0.135522	0.519544	1	1
47.254780	0.792264	city	5	1	0.645728	0.645728	0	1	0	0	CorrectCommission	0.294618	0.523658	1	1
48.047043	0.792261	city	8	1	0.607828	0.607828	0	1	0	0	CorrectCommission	0.034239	0.531116	1	1
48.839306	0.792265	mountain	9	0	0.000000	0.716865	1	0	0	0	CorrectOmission	0.911871	0.540285	1	1
49.631626	0.792374	city	6	1	0.794306	0.794306	0	1	0	0	CorrectCommission	1.583820	0.550037	1	1
50.423893	0.792157	city	5	1	0.661616	0.661616	0	1	0	0	CorrectCommission	0.432479	0.559810	1	1
51.216103	0.792268	city	3	1	0.646174	0.646174	0	1	0	0	CorrectCommission	0.298487	0.569649	1	1
52.008476	0.792478	mountain	6	0	0.000000	0.666913	1	0	0	0	CorrectOmission	0.478440	0.580087	1	1
52.800743	0.792050	city	1	1	0.695076	0.695076	0	1	0	0	CorrectCommission	0.722806	0.592053	0	1
53.592911	0.792290	city	2	1	0.701904	0.701904	0	1	0	0	CorrectCommission	0.782054	0.606689	0	1
54.385178	0.792242	city	8	1	0.661607	0.661607	0	1	0	0	CorrectCommission	0.432401	0.625170	0	1
55.177464	0.792333	city	5	1	0.645754	0.645754	0	1	0	0	CorrectCommission	0.294846	0.648513	0	1
55.969730	0.792198	city	3	1	0.662086	0.662086	0	1	0	0	CorrectCommission	0.436553	0.677399	0	1
56.761959	0.792261	city	2	1	0.645680	0.645680	0	1	0	0	CorrectCommission	0.294204	0.712054	0	1
57.554253	0.792324	city	8	1	0.546726	0.546726	0	1	0	0	CorrectCommission	0.564410	0.752189	0	1
58.346542	0.792258	city	5	1	0.499542	0.499542	0	1	0	0	CorrectCommission	0.973826	0.796974	0	1
59.138885	0.792427	city	9	1	0.452925	0.452925	0	1	0	0	CorrectCommission	1.378313	0.845083	0	1
59.931122	0.792047	city	3	1	0.600163	0.600163	0	1	0	0	CorrectCommission	0.100749	0.894787	0	1
60.723389	0.792483	city	7	1	0.453854	0.453854	0	1	0	0	CorrectCommission	1.370258	0.944048	0	1
61.515762	0.792264	city	5	1	0.459700	0.459700	0	1	0	0	CorrectCommission	1.319534	0.990539	0	1
62.307972	0.792158	city	2	1	0.447680	0.447680	0	1	0	0	CorrectCommission	1.423828	1.031812	0	1
63.100128	0.792155	mountain	10	1	0.513910	0.513910	0	0	1	0	CommissionError	0.849154	1.065425	0	1
63.892338	0.792264	city	4	1	0.598007	0.598007	0	1	0	0	CorrectCommission	0.119450	1.089085	0	1
64.684715	0.792483	city	8	1	0.447681	0.447681	0	1	0	0	CorrectCommission	1.423823	1.100832	0	1
65.476974	0.792047	city	10	1	0.409727	0.409727	0	1	0	0	CorrectCommission	1.753142	1.099243	0	1
66.269150	0.792297	city	9	1	0.409758	0.409758	0	1	0	0	CorrectCommission	1.752874	1.083697	0	1
67.061417	0.792232	city	6	1	0.398342	0.398342	0	1	0	0	CorrectCommission	1.851933	1.054534	0	1
67.853691	0.792321	city	9	1	0.398252	0.398252	0	1	0	0	CorrectCommission	1.852709	1.013137	0	0
68.645958	0.792208	city	8	1	0.704972	0.704972	0	1	0	0	CorrectCommission	0.808676	0.961870	0	0
69.438301	0.792482	city	2	1	0.658799	0.658799	0	1	0	0	CorrectCommission	0.408033	0.903866	0	0
70.230583	0.792091	city	4	1	0.751142	0.751142	0	1	0	0	CorrectCommission	1.209290	0.842658	0	0
71.022743	0.792220	city	1	1	0.658343	0.658343	0	1	0	0	CorrectCommission	0.404080	0.781776	0	0
71.814987	0.792268	mountain	6	0	0.000000	0.620081	1	0	0	0	CorrectOmission	0.072078	0.724400	0	0
72.607269	0.792307	city	1	1	0.596230	0.596230	0	1	0	0	CorrectCommission	0.134867	0.672982	0	0
73.399643	0.792438	city	8	1	0.546669	0.546669	0	1	0	0	CorrectCommission	0.564911	0.629051	0	0
74.191902	0.792081	city	9	1	0.600204	0.600204	0	1	0	0	CorrectCommission	0.100393	0.593166	0	0
74.984093	0.792291	city	10	1	0.497459	0.497459	0	1	0	0	CorrectCommission	0.991900	0.565018	1	0
75.776451	0.792423	mountain	4	0	0.000000	0.521361	1	0	0	0	CorrectOmission	0.784499	0.543594	1	0
76.568687	0.792050	city	8	1	0.596066	0.596066	0	1	0	0	CorrectCommission	0.136292	0.527478	1	0
77.360840	0.792259	city	1	1	0.645728	0.645728	0	1	0	0	CorrectCommission	0.294622	0.515117	1	0
78.153099	0.792264	mountain	8	1	0.752710	0.752710	0	0	1	0	CommissionError	1.222890	0.505018	1	0
78.945366	0.792266	city	5	1	0.701780	0.701780	0	1	0	0	CorrectCommission	0.780980	0.495934	1	0
79.737686	0.792374	mountain	1	0	0.000000	0.640630	1	0	0	0	CorrectOmission	0.250386	0.486992	1	0
80.530006	0.792265	city	10	1	0.596428	0.596428	0	1	0	0	CorrectCommission	0.133155	0.477707	1	0
81.322212	0.792154	city	9	1	0.596341	0.596341	0	1	0	0	CorrectCommission	0.133907	0.467980	1	0
82.114426	0.792266	city	8	1	0.546726	0.546726	0	1	0	0	CorrectCommission	0.564414	0.458043	1	0
82.906799	0.792482	city	9	1	0.548572	0.548572	0	1	0	0	CorrectCommission	0.548396	0.448419	1	0
83.699066	0.792052	city	8	1	0.497179	0.497179	0	1	0	0	CorrectCommission	0.994326	0.439892	1	0
84.491219	0.792261	mountain	4	0	0.000000	0.540762	1	0	0	0	CorrectOmission	0.616163	0.433429	1	0
85.283516	0.792321	city	6	1	0.613500	0.613500	0	1	0	0	CorrectCommission	0.014979	0.430088	1	0
86.075890	0.792426	mountain	6	0	0.000000	0.649573	1	0	0	0	CorrectOmission	0.327985	0.430894	1	0
86.868126	0.792047	city	10	1	0.645565	0.645565	0	1	0	0	CorrectCommission	0.293205	0.436690	1	0
87.660278	0.792270	city	6	1	0.598058	0.598058	0	1	0	0	CorrectCommission	0.119007	0.447962	1	0
88.452583	0.792327	city	10	1	0.646628	0.646628	0	1	0	0	CorrectCommission	0.302430	0.464752	1	0
89.244843	0.792198	city	1	1	0.649083	0.649083	0	1	0	0	CorrectCommission	0.323728	0.486561	1	0
90.037071	0.792263	city	3	1	0.645787	0.645787	0	1	0	0	CorrectCommission	0.295134	0.512352	1	0
90.829338	0.792264	city	7	1	0.546869	0.546869	0	1	0	0	CorrectCommission	0.563170	0.540628	1	0
91.621620	0.792297	city	8	1	0.497176	0.497176	0	1	0	0	CorrectCommission	0.994353	0.569566	1	0
92.413879	0.792234	city	1	1	0.596247	0.596247	0	1	0	0	CorrectCommission	0.134728	0.597206	0	0
93.206131	0.792270	mountain	4	0	0.000000	0.686840	1	0	0	0	CorrectOmission	0.651341	0.621713	0	0
93.998505	0.792478	city	1	1	0.745300	0.745300	0	1	0	0	CorrectCommission	1.158594	0.641531	0	0
94.790771	0.792046	mountain	6	0	0.000000	0.747971	1	0	0	0	CorrectOmission	1.181771	0.655570	0	0
95.582924	0.792267	mountain	1	0	0.000000	0.722257	1	0	0	0	CorrectOmission	0.958657	0.663307	0	0
96.375244	0.792371	city	8	1	0.695564	0.695564	0	1	0	0	CorrectCommission	0.727038	0.664786	0	0
97.167511	0.792158	city	4	1	0.695294	0.695294	0	1	0	0	CorrectCommission	0.724699	0.660561	0	0
97.959778	0.792374	city	9	1	0.646367	0.646367	0	1	0	0	CorrectCommission	0.300160	0.651575	0	0
98.752075	0.792229	city	4	1	0.596255	0.596255	0	1	0	0	CorrectCommission	0.134654	0.639041	0	0
99.544289	0.792194	city	9	1	0.497989	0.497989	0	1	0	0	CorrectCommission	0.987300	0.624279	0	0
100.336517	0.792262	city	1	1	0.512040	0.512040	0	1	0	0	CorrectCommission	0.865380	0.608605	0	0
101.128784	0.792266	city	4	1	0.645970	0.645970	0	1	0	0	CorrectCommission	0.296722	0.593258	0	0
101.921043	0.792262	city	8	1	0.502225	0.502225	0	1	0	0	CorrectCommission	0.950549	0.579337	1	0
102.713364	0.792373	city	1	1	0.546975	0.546975	0	1	0	0	CorrectCommission	0.562251	0.567705	1	0
103.505623	0.792155	city	6	1	0.645644	0.645644	0	1	0	0	CorrectCommission	0.293891	0.558984	1	0
104.297943	0.792484	mountain	6	0	0.000000	0.655719	1	0	0	0	CorrectOmission	0.381311	0.553461	1	0
105.090263	0.792154	city	3	1	0.651967	0.651967	0	1	0	0	CorrectCommission	0.348754	0.551042	1	0
105.882477	0.792265	city	2	1	0.709155	0.709155	0	1	0	0	CorrectCommission	0.844968	0.551246	1	0
106.674698	0.792179	city	3	1	0.646137	0.646137	0	1	0	0	CorrectCommission	0.298168	0.553212	1	0
107.466965	0.792351	city	6	1	0.602888	0.602888	0	1	0	0	CorrectCommission	0.077097	0.555827	1	0
108.259216	0.792157	city	3	1	0.547009	0.547009	0	1	0	0	CorrectCommission	0.561956	0.557834	1	0
109.051483	0.792380	city	2	1	0.565630	0.565630	0	1	0	0	CorrectCommission	0.400383	0.558032	1	0
109.843750	0.792151	city	5	1	0.506438	0.506438	0	1	0	0	CorrectCommission	0.913989	0.555525	1	0
110.636009	0.792370	city	8	1	0.402943	0.402943	0	1	0	0	CorrectCommission	1.812007	0.549852	1	0
111.428276	0.792161	city	7	1	0.497124	0.497124	0	1	0	0	CorrectCommission	0.994808	0.541116	1	0
112.220490	0.792262	city	4	1	0.596275	0.596275	0	1	0	0	CorrectCommission	0.134480	0.530029	1	0
113.012749	0.792263	city	3	1	0.603370	0.603370	0	1	0	0	CorrectCommission	0.072914	0.517812	1	0
113.805122	0.792484	mountain	2	0	0.000000	0.639834	1	0	0	0	CorrectOmission	0.243476	0.506007	1	0
114.597389	0.792048	city	8	1	0.645526	0.645526	0	1	0	0	CorrectCommission	0.292867	0.496337	1	0
115.389595	0.792374	city	10	1	0.560308	0.560308	0	1	0	0	CorrectCommission	0.446564	0.490526	1	0
116.181877	0.792188	city	3	1	0.657968	0.657968	0	1	0	0	CorrectCommission	0.400820	0.490125	1	0
116.974091	0.792231	city	10	1	0.657608	0.657608	0	1	0	0	CorrectCommission	0.397701	0.496474	1	0
117.766388	0.792374	city	4	1	0.601415	0.601415	0	1	0	0	CorrectCommission	0.089879	0.510678	1	0
118.558655	0.792156	city	5	1	0.512303	0.512303	0	1	0	0	CorrectCommission	0.863101	0.533601	1	0
119.350975	0.792483	city	2	1	0.514260	0.514260	0	1	0	0	CorrectCommission	0.846118	0.565810	1	0
120.143250	0.792068	city	6	1	0.596023	0.596023	0	1	0	0	CorrectCommission	0.136670	0.607562	0	0
120.935410	0.792244	city	9	1	0.546794	0.546794	0	1	0	0	CorrectCommission	0.563824	0.658758	0	0
121.727768	0.792481	city	7	1	0.546733	0.546733	0	1	0	0	CorrectCommission	0.564350	0.718771	0	0
122.520035	0.792047	city	10	1	0.546407	0.546407	0	1	0	0	CorrectCommission	0.567181	0.786407	0	0
123.312248	0.792373	city	9	1	0.596251	0.596251	0	1	0	0	CorrectCommission	0.134688	0.859832	0	0
124.104507	0.792155	city	10	1	0.511257	0.511257	0	1	0	0	CorrectCommission	0.872175	0.936743	0	0
124.896729	0.792286	city	8	1	0.512328	0.512328	0	1	0	0	CorrectCommission	0.862884	1.014519	0	0
125.688995	0.792246	city	1	1	0.497278	0.497278	0	1	0	0	CorrectCommission	0.993467	1.090588	0	0
126.481255	0.792264	city	8	1	0.399146	0.399146	0	1	0	0	CorrectCommission	1.844953	1.162786	0	0
127.273621	0.792482	city	1	1	0.404519	0.404519	0	1	0	0	CorrectCommission	1.798331	1.229672	0	1
128.065918	0.792097	city	9	1	0.398061	0.398061	0	1	0	0	CorrectCommission	1.854371	1.290802	0	1
128.858093	0.792271	city	4	1	0.497166	0.497166	0	1	0	0	CorrectCommission	0.994445	1.346788	0	1
129.650360	0.792268	city	3	1	0.318610	0.318610	0	1	0	0	CorrectCommission	2.543755	1.399075	0	1
130.442719	0.792422	mountain	7	1	0.308424	0.308424	0	0	1	0	CommissionError	2.632140	1.449469	0	1
131.234970	0.792103	city	2	1	0.596669	0.596669	0	1	0	0	CorrectCommission	0.131064	1.499644	0	1
132.027237	0.792425	city	7	1	0.556139	0.556139	0	1	0	0	CorrectCommission	0.482737	1.550532	0	1
132.819473	0.792049	mountain	10	1	0.496979	0.496979	0	0	1	0	CommissionError	0.996064	1.601724	0	1
133.611740	0.792480	city	10	1	0.546823	0.546823	0	1	0	0	CorrectCommission	0.563576	1.651276	0	1
134.404007	0.792049	city	7	1	0.496996	0.496996	0	1	0	0	CorrectCommission	0.995913	1.695858	0	1
135.196167	0.792284	city	1	1	0.500959	0.500959	0	1	0	0	CorrectCommission	0.961526	1.731157	0	1
135.988464	0.792305	city	5	1	1.044983	1.044983	0	1	0	0	CorrectCommission	3.758921	1.752658	0	1
136.780716	0.792203	city	2	1	1.142449	1.142449	0	1	0	0	CorrectCommission	4.604630	1.756391	0	1
137.572968	0.792297	city	5	1	1.091374	1.091374	0	1	0	0	CorrectCommission	4.161450	1.739784	0	1
138.365234	0.792233	mountain	9	0	0.000000	0.744685	1	0	0	0	CorrectOmission	1.153257	1.702085	0	1
139.157486	0.792268	city	5	1	0.447945	0.447945	0	1	0	0	CorrectCommission	1.421524	1.644532	0	1
139.949783	0.792324	city	1	1	0.546720	0.546720	0	1	0	0	CorrectCommission	0.564468	1.569999	0	1
140.742050	0.792203	city	4	1	0.448540	0.448540	0	1	0	0	CorrectCommission	1.416362	1.482592	0	1
141.534286	0.792268	city	2	1	0.463379	0.463379	0	1	0	0	CorrectCommission	1.287609	1.386937	0	1
142.326660	0.792479	city	8	1	0.551362	0.551362	0	1	0	0	CorrectCommission	0.524184	1.287647	0	1
143.118912	0.792049	city	3	1	0.504781	0.504781	0	1	0	0	CorrectCommission	0.928368	1.188864	0	1
143.911072	0.792272	city	1	1	0.893459	0.893459	0	1	0	0	CorrectCommission	2.444162	1.093904	0	1
144.703339	0.792256	city	6	1	0.695281	0.695281	0	1	0	0	CorrectCommission	0.724589	1.005193	0	1
145.495651	0.792370	city	2	1	0.596241	0.596241	0	1	0	0	CorrectCommission	0.134776	0.924370	0	1
146.287918	0.792156	city	5	1	0.744710	0.744710	0	1	0	0	CorrectCommission	1.153476	0.852348	0	1
147.080139	0.792269	city	6	1	0.695413	0.695413	0	1	0	0	CorrectCommission	0.725728	0.789392	0	1
147.872406	0.792290	city	2	1	0.552747	0.552747	0	1	0	0	CorrectCommission	0.512166	0.735341	0	1
148.664780	0.792454	mountain	8	0	0.000000	0.615057	1	0	0	0	CorrectOmission	0.028490	0.689709	0	1
149.457031	0.792047	city	6	1	0.695077	0.695077	0	1	0	0	CorrectCommission	0.722818	0.651745	0	1
150.249191	0.792265	city	5	1	0.605543	0.605543	0	1	0	0	CorrectCommission	0.054061	0.620503	0	1
151.041458	0.792269	city	6	1	0.744827	0.744827	0	1	0	0	CorrectCommission	1.154493	0.594968	0	1
151.833725	0.792260	city	4	1	0.695450	0.695450	0	1	0	0	CorrectCommission	0.726049	0.574048	1	1
152.625992	0.792267	city	7	1	0.699807	0.699807	0	1	0	0	CorrectCommission	0.763857	0.556763	1	1
153.418304	0.792372	city	8	1	0.596348	0.596348	0	1	0	0	CorrectCommission	0.133851	0.542229	1	1
154.210571	0.792159	city	3	1	0.646478	0.646478	0	1	0	0	CorrectCommission	0.301128	0.529774	1	1
155.002777	0.792264	mountain	3	0	0.000000	0.685956	1	0	0	0	CorrectOmission	0.643670	0.518975	1	1
155.795044	0.792262	city	3	1	0.695318	0.695318	0	1	0	0	CorrectCommission	0.724907	0.509744	1	1
156.587311	0.792269	mountain	2	0	0.000000	0.655103	1	0	0	0	CorrectOmission	0.375970	0.502264	1	1
157.379578	0.792260	city	1	1	0.645856	0.645856	0	1	0	0	CorrectCommission	0.295728	0.496991	1	1
158.171860	0.792318	city	6	1	0.748119	0.748119	0	1	0	0	CorrectCommission	1.183054	0.494530	1	1
158.964127	0.792212	city	10	1	0.596326	0.596326	0	1	0	0	CorrectCommission	0.134036	0.495505	1	1
159.756363	0.792263	city	2	1	0.645699	0.645699	0	1	0	0	CorrectCommission	0.294371	0.500479	1	1
160.548737	0.792483	city	7	1	0.645901	0.645901	0	1	0	0	CorrectCommission	0.296118	0.509710	1	1
161.341003	0.792047	city	8	1	0.553336	0.553336	0	1	0	0	CorrectCommission	0.507059	0.523020	1	1
162.133163	0.792285	mountain	9	0	0.000000	0.616490	1	0	0	0	CorrectOmission	0.040919	0.539748	1	1
162.925430	0.792247	city	9	1	0.695252	0.695252	0	1	0	0	CorrectCommission	0.724331	0.558738	1	1
163.717697	0.792264	city	2	1	0.649513	0.649513	0	1	0	0	CorrectCommission	0.327458	0.578377	1	1
164.509949	0.792262	city	1	1	0.645749	0.645749	0	1	0	0	CorrectCommission	0.294802	0.596812	0	1
165.302246	0.792328	city	2	1	0.751527	0.751527	0	1	0	0	CorrectCommission	1.212632	0.612183	0	1
166.094620	0.792420	city	4	1	0.751132	0.751132	0	1	0	0	CorrectCommission	1.209200	0.622846	0	1
166.886963	0.792264	city	10	1	0.663547	0.663547	0	1	0	0	CorrectCommission	0.449231	0.627719	0	1
167.679123	0.792060	city	7	1	0.744680	0.744680	0	1	0	0	CorrectCommission	1.153216	0.626448	0	1
168.471283	0.792255	mountain	8	0	0.000000	0.726433	1	0	0	0	CorrectOmission	0.994892	0.619485	0	1
169.263550	0.792260	mountain	10	0	0.000000	0.672298	1	0	0	0	CorrectOmission	0.525161	0.608185	0	1
170.055801	0.792264	city	8	1	0.645763	0.645763	0	1	0	0	CorrectCommission	0.294922	0.594690	0	1
170.848068	0.792267	city	9	1	0.710320	0.710320	0	1	0	0	CorrectCommission	0.855074	0.581773	1	1
171.640335	0.792270	city	6	1	0.645949	0.645949	0	1	0	0	CorrectCommission	0.296537	0.572530	1	1
172.432602	0.792267	city	9	1	0.645775	0.645775	0	1	0	0	CorrectCommission	0.295028	0.570112	1	1
173.224869	0.792256	mountain	1	0	0.000000	0.642055	1	0	0	0	CorrectOmission	0.262746	0.577360	1	1
174.017136	0.792268	city	10	1	0.652609	0.652609	0	1	0	0	CorrectCommission	0.354325	0.596451	0	1
174.809402	0.792261	mountain	10	1	0.695259	0.695259	0	0	1	0	CommissionError	0.724399	0.628599	0	1
175.601715	0.792374	city	7	1	0.645895	0.645895	0	1	0	0	CorrectCommission	0.296070	0.673752	0	1
176.393982	0.792160	city	2	1	0.654671	0.654671	0	1	0	0	CorrectCommission	0.372218	0.730514	0	1
177.186188	0.792263	city	4	1	0.645754	0.645754	0	1	0	0	CorrectCommission	0.294848	0.796067	0	1
177.978455	0.792261	city	7	1	0.645722	0.645722	0	1	0	0	CorrectCommission	0.294565	0.866337	0	1
178.770767	0.792376	city	4	1	0.499565	0.499565	0	1	0	0	CorrectCommission	0.973630	0.936313	0	1
179.563034	0.792158	city	5	1	0.546633	0.546633	0	1	0	0	CorrectCommission	0.565221	1.000543	0	1
180.355255	0.792260	mountain	1	1	0.398261	0.398261	0	0	1	0	CommissionError	1.852635	1.053756	0	1
181.147507	0.792268	city	5	1	0.500193	0.500193	0	1	0	0	CorrectCommission	0.968174	1.091449	0	1
181.939804	0.792301	city	9	1	1.042793	1.042793	0	1	0	0	CorrectCommission	3.739922	1.110529	0	1
182.732086	0.792275	city	6	1	0.893300	0.893300	0	1	0	0	CorrectCommission	2.442778	1.109533	0	1
183.524353	0.792248	mountain	4	0	0.000000	0.787513	1	0	0	0	CorrectOmission	1.524875	1.088912	0	1
184.316696	0.792450	city	8	1	0.697684	0.697684	0	1	0	0	CorrectCommission	0.745438	1.050778	0	1
185.109055	0.792265	city	2	1	0.596064	0.596064	0	1	0	0	CorrectCommission	0.136308	0.998495	0	1
185.901215	0.792051	city	8	1	0.695060	0.695060	0	1	0	0	CorrectCommission	0.722668	0.936145	0	1
186.693375	0.792262	city	4	1	0.596606	0.596606	0	1	0	0	CorrectCommission	0.131611	0.867961	0	0
187.485733	0.792480	city	6	1	0.560226	0.560226	0	1	0	0	CorrectCommission	0.447272	0.797900	0	0
188.278000	0.792047	city	10	1	0.448142	0.448142	0	1	0	0	CorrectCommission	1.419817	0.729274	0	0
189.070160	0.792269	city	1	1	0.513493	0.513493	0	1	0	0	CorrectCommission	0.852772	0.664640	0	0
189.862427	0.792261	city	6	1	0.503749	0.503749	0	1	0	0	CorrectCommission	0.937319	0.605806	0	0
190.654694	0.792265	city	1	1	0.607781	0.607781	0	1	0	0	CorrectCommission	0.034648	0.553894	1	0
191.446960	0.792267	city	2	1	0.646064	0.646064	0	1	0	0	CorrectCommission	0.297538	0.509527	1	0
192.239334	0.792479	city	4	1	0.645745	0.645745	0	1	0	0	CorrectCommission	0.294765	0.472890	1	0
193.031601	0.792047	city	10	1	0.596209	0.596209	0	1	0	0	CorrectCommission	0.135049	0.443894	1	0
193.823746	0.792267	city	9	1	0.596368	0.596368	0	1	0	0	CorrectCommission	0.133676	0.422253	1	0
194.616043	0.792330	city	8	1	0.558035	0.558035	0	1	0	0	CorrectCommission	0.466286	0.407530	1	0
195.408417	0.792414	city	1	1	0.695309	0.695309	0	1	0	0	CorrectCommission	0.724831	0.399176	1	0
196.200653	0.792047	city	3	1	0.645531	0.645531	0	1	0	0	CorrectCommission	0.292906	0.396542	1	0
196.992813	0.792268	city	8	1	0.646693	0.646693	0	1	0	0	CorrectCommission	0.302995	0.398908	1	0
197.785080	0.792280	city	3	1	0.607591	0.607591	0	1	0	0	CorrectCommission	0.036295	0.405437	1	0
198.577347	0.792249	city	9	1	0.564890	0.564890	0	1	0	0	CorrectCommission	0.406802	0.415227	1	0
199.369598	0.792261	city	1	1	0.555931	0.555931	0	1	0	0	CorrectCommission	0.484538	0.427226	1	0
200.161865	0.792265	city	3	1	0.695278	0.695278	0	1	0	0	CorrectCommission	0.724560	0.440336	1	0
200.954132	0.792271	city	8	1	0.645778	0.645778	0	1	0	0	CorrectCommission	0.295053	0.453427	1	0
201.746506	0.792475	city	1	1	0.645899	0.645899	0	1	0	0	CorrectCommission	0.296107	0.465422	1	0
202.538818	0.792155	city	6	1	0.645508	0.645508	0	1	0	0	CorrectCommission	0.292708	0.475350	1	0
203.330994	0.792173	city	1	1	0.546973	0.546973	0	1	0	0	CorrectCommission	0.562269	0.482426	1	0
204.123306	0.792467	city	2	1	0.459890	0.459890	0	1	0	0	CorrectCommission	1.317886	0.486139	1	0
204.915588	0.792099	city	1	1	0.546608	0.546608	0	1	0	0	CorrectCommission	0.565435	0.486300	1	0
205.707748	0.792221	city	4	1	0.597356	0.597356	0	1	0	0	CorrectCommission	0.125102	0.483077	1	0
206.500000	0.792282	city	6	1	0.514501	0.514501	0	1	0	0	CorrectCommission	0.844023	0.476958	1	0
207.292267	0.792243	city	3	1	0.547049	0.547049	0	1	0	0	CorrectCommission	0.561612	0.468660	1	0
208.084534	0.792301	city	2	1	0.598184	0.598184	0	1	0	0	CorrectCommission	0.117916	0.459082	1	0
208.876907	0.792440	city	7	1	0.555166	0.555166	0	1	0	0	CorrectCommission	0.491178	0.449163	1	0
209.669174	0.792084	city	2	1	0.646241	0.646241	0	1	0	0	CorrectCommission	0.299067	0.439763	1	0
210.461319	0.792228	city	7	1	0.646176	0.646176	0	1	0	0	CorrectCommission	0.298506	0.431599	1	0
211.253632	0.792373	city	2	1	0.657299	0.657299	0	1	0	0	CorrectCommission	0.395017	0.425201	1	0
212.045883	0.792145	city	10	1	0.645971	0.645971	0	1	0	0	CorrectCommission	0.296727	0.420856	1	0
212.838104	0.792277	mountain	7	0	0.000000	0.677065	1	0	0	0	CorrectOmission	0.566526	0.418643	1	0
213.630417	0.792372	city	1	1	0.695368	0.695368	0	1	0	0	CorrectCommission	0.725344	0.418437	1	0
214.422699	0.792181	city	7	1	0.645669	0.645669	0	1	0	0	CorrectCommission	0.294106	0.419944	1	0
215.214935	0.792280	city	8	1	0.645725	0.645725	0	1	0	0	CorrectCommission	0.294591	0.422733	1	0
216.007187	0.792223	city	7	1	0.600077	0.600077	0	1	0	0	CorrectCommission	0.101487	0.426227	1	0
216.799438	0.792279	city	1	1	0.558857	0.558857	0	1	0	0	CorrectCommission	0.459153	0.429759	1	0
217.591751	0.792360	city	2	1	0.546713	0.546713	0	1	0	0	CorrectCommission	0.564529	0.432595	1	0
218.384125	0.792374	city	7	1	0.665198	0.665198	0	1	0	0	CorrectCommission	0.463561	0.434013	1	0
219.176331	0.792049	city	3	1	0.645496	0.645496	0	1	0	0	CorrectCommission	0.292608	0.433373	1	0
219.968491	0.792264	mountain	1	0	0.000000	0.691486	1	0	0	0	CorrectOmission	0.691654	0.430206	1	0
220.760757	0.792282	city	9	1	0.695298	0.695298	0	1	0	0	CorrectCommission	0.724736	0.424268	1	0
221.553055	0.792314	city	2	1	0.549066	0.549066	0	1	0	0	CorrectCommission	0.544106	0.415577	1	0
222.345306	0.792198	mountain	6	0	0.000000	0.541276	1	0	0	0	CorrectOmission	0.611703	0.404453	1	0
223.137543	0.792263	city	2	1	0.596241	0.596241	0	1	0	0	CorrectCommission	0.134777	0.391477	1	0
223.929916	0.792484	mountain	4	0	0.000000	0.638275	1	0	0	0	CorrectOmission	0.229952	0.377445	1	0
224.722214	0.792112	city	6	1	0.645535	0.645535	0	1	0	0	CorrectCommission	0.292944	0.363274	1	0
225.514374	0.792203	city	4	1	0.596176	0.596176	0	1	0	0	CorrectCommission	0.135343	0.349943	1	0
226.306656	0.792371	city	3	1	0.515250	0.515250	0	1	0	0	CorrectCommission	0.837532	0.338429	1	0
227.098923	0.792159	mountain	10	1	0.596112	0.596112	0	0	1	0	CommissionError	0.135894	0.329635	1	0
227.891129	0.792264	city	2	1	0.596255	0.596255	0	1	0	0	CorrectCommission	0.134658	0.324392	1	0
228.683411	0.792279	city	8	1	0.596206	0.596206	0	1	0	0	CorrectCommission	0.135081	0.323377	1	0
229.475784	0.792466	city	1	1	0.645740	0.645740	0	1	0	0	CorrectCommission	0.294727	0.327092	1	0
230.268036	0.792045	mountain	10	0	0.000000	0.662282	1	0	0	0	CorrectOmission	0.438253	0.335823	1	0
231.060226	0.792348	city	6	1	0.645720	0.645720	0	1	0	0	CorrectCommission	0.294552	0.349576	1	0
231.852493	0.792182	mountain	1	0	0.000000	0.595948	1	0	0	0	CorrectOmission	0.137319	0.368050	1	0
232.644775	0.792373	city	6	1	0.563060	0.563060	0	1	0	0	CorrectCommission	0.422681	0.390606	1	0
233.437042	0.792157	city	9	1	0.597153	0.597153	0	1	0	0	CorrectCommission	0.126859	0.416267	1	0
234.229309	0.792373	city	2	1	0.600874	0.600874	0	1	0	0	CorrectCommission	0.094572	0.443757	1	0
235.021561	0.792157	city	1	1	0.695128	0.695128	0	1	0	0	CorrectCommission	0.723256	0.471584	1	0
235.813782	0.792265	city	2	1	0.707095	0.707095	0	1	0	0	CorrectCommission	0.827095	0.498189	1	0
236.606049	0.792262	city	4	1	0.657716	0.657716	0	1	0	0	CorrectCommission	0.398639	0.522104	1	0
237.398315	0.792275	city	1	1	0.645721	0.645721	0	1	0	0	CorrectCommission	0.294554	0.542132	1	0
238.190628	0.792363	city	7	1	0.695751	0.695751	0	1	0	0	CorrectCommission	0.728667	0.557479	1	0
238.982895	0.792158	city	4	1	0.794196	0.794196	0	1	0	0	CorrectCommission	1.582866	0.567867	1	0
239.775101	0.792264	city	7	1	0.744776	0.744776	0	1	0	0	CorrectCommission	1.154054	0.573531	1	0
240.567383	0.792295	city	5	1	0.646068	0.646068	0	1	0	0	CorrectCommission	0.297567	0.575194	1	0
241.359650	0.792237	city	9	1	0.646015	0.646015	0	1	0	0	CorrectCommission	0.297106	0.573909	1	0
242.151917	0.792299	city	2	1	0.596207	0.596207	0	1	0	0	CorrectCommission	0.135072	0.570828	1	0
242.944199	0.792265	city	6	1	0.596320	0.596320	0	1	0	0	CorrectCommission	0.134090	0.567056	1	0
243.736481	0.792316	city	10	1	0.557924	0.557924	0	1	0	0	CorrectCommission	0.467246	0.563470	1	0
244.528748	0.792198	mountain	7	1	0.546810	0.546810	0	0	1	0	CommissionError	0.563687	0.560641	1	0
245.320969	0.792248	city	2	1	0.760272	0.760272	0	1	0	0	CorrectCommission	1.288507	0.558811	1	0
246.113220	0.792265	city	4	1	0.696762	0.696762	0	1	0	0	CorrectCommission	0.737435	0.557916	1	1
246.905594	0.792478	city	7	1	0.645763	0.645763	0	1	0	0	CorrectCommission	0.294926	0.557683	1	1
247.697861	0.792052	city	6	1	0.663100	0.663100	0	1	0	0	CorrectCommission	0.445354	0.557677	1	1
248.490067	0.792371	city	7	1	0.695390	0.695390	0	1	0	0	CorrectCommission	0.725530	0.557395	1	1
249.282364	0.792209	city	3	1	0.607286	0.607286	0	1	0	0	CorrectCommission	0.038940	0.556325	1	1
250.074585	0.792238	city	10	1	0.612135	0.612135	0	1	0	0	CorrectCommission	0.003138	0.554035	1	1
250.866821	0.792238	city	7	1	0.448595	0.448595	0	1	0	0	CorrectCommission	1.415892	0.550232	1	1
251.659103	0.792331	city	4	1	0.706493	0.706493	0	1	0	0	CorrectCommission	0.821874	0.544779	1	1
252.451431	0.792305	mountain	8	0	0.000000	0.710741	1	0	0	0	CorrectOmission	0.858734	0.537793	1	1
253.243729	0.792292	city	1	1	0.645615	0.645615	0	1	0	0	CorrectCommission	0.293634	0.529602	1	1
254.035995	0.792237	city	10	1	0.695388	0.695388	0	1	0	0	CorrectCommission	0.725517	0.520714	1	1
254.828293	0.792374	city	8	1	0.645680	0.645680	0	1	0	0	CorrectCommission	0.294201	0.511700	1	1
255.620499	0.792050	city	6	1	0.596655	0.596655	0	1	0	0	CorrectCommission	0.131181	0.503135	1	1
256.412720	0.792371	city	7	1	0.546691	0.546691	0	1	0	0	CorrectCommission	0.564714	0.495479	1	1
257.205048	0.792262	city	10	1	0.596169	0.596169	0	1	0	0	CorrectCommission	0.135401	0.489023	1	1
257.997284	0.792234	mountain	4	0	0.000000	0.659887	1	0	0	0	CorrectOmission	0.417478	0.483909	1	1
258.789551	0.792297	city	10	1	0.704203	0.704203	0	1	0	0	CorrectCommission	0.801998	0.480112	1	1
259.581787	0.792159	city	6	1	0.695471	0.695471	0	1	0	0	CorrectCommission	0.726236	0.477496	1	1
260.374054	0.792369	city	7	1	0.645796	0.645796	0	1	0	0	CorrectCommission	0.295208	0.475883	1	1
261.166290	0.792162	city	4	1	0.695464	0.695464	0	1	0	0	CorrectCommission	0.726170	0.475082	1	1
261.958527	0.792261	city	5	1	0.562662	0.562662	0	1	0	0	CorrectCommission	0.426136	0.474881	1	1
262.750793	0.792314	city	6	1	0.599919	0.599919	0	1	0	0	CorrectCommission	0.102858	0.475036	1	1
263.543091	0.792276	city	4	1	0.695263	0.695263	0	1	0	0	CorrectCommission	0.724433	0.475253	1	1
264.335327	0.792204	city	9	1	0.654915	0.654915	0	1	0	0	CorrectCommission	0.374332	0.475129	1	1
265.127563	0.792266	city	2	1	0.596545	0.596545	0	1	0	0	CorrectCommission	0.132138	0.474172	1	1
265.919830	0.792267	city	6	1	0.695238	0.695238	0	1	0	0	CorrectCommission	0.724210	0.471817	1	1
266.712097	0.792263	city	10	1	0.646387	0.646387	0	1	0	0	CorrectCommission	0.300335	0.467484	1	1
267.504425	0.792369	city	5	1	0.645712	0.645712	0	1	0	0	CorrectCommission	0.294481	0.460714	1	1
268.296692	0.792177	city	4	1	0.758474	0.758474	0	1	0	0	CorrectCommission	1.272905	0.451217	1	1
269.088928	0.792309	city	2	1	0.702838	0.702838	0	1	0	0	CorrectCommission	0.790157	0.438966	1	1
269.881195	0.792203	city	6	1	0.645665	0.645665	0	1	0	0	CorrectCommission	0.294075	0.424275	1	1
270.673492	0.792369	city	7	1	0.596340	0.596340	0	1	0	0	CorrectCommission	0.133915	0.407754	1	1
271.465820	0.792321	city	10	1	0.552280	0.552280	0	1	0	0	CorrectCommission	0.516221	0.390226	1	1
272.258026	0.792103	city	2	1	0.645756	0.645756	0	1	0	0	CorrectCommission	0.294860	0.372621	1	1
273.050232	0.792261	city	5	1	0.645751	0.645751	0	1	0	0	CorrectCommission	0.294816	0.355884	1	1
273.842590	0.792484	city	4	1	0.646059	0.646059	0	1	0	0	CorrectCommission	0.297493	0.340828	1	1
274.634857	0.792050	city	3	1	0.612137	0.612137	0	1	0	0	CorrectCommission	0.003153	0.328085	1	1
275.427124	0.792481	city	5	1	0.612653	0.612653	0	1	0	0	CorrectCommission	0.007628	0.318107	1	1
276.219391	0.792045	city	2	1	0.650242	0.650242	0	1	0	0	CorrectCommission	0.333784	0.311144	1	1
277.011536	0.792266	city	7	1	0.695304	0.695304	0	1	0	0	CorrectCommission	0.724785	0.307356	1	1
277.803802	0.792267	city	3	1	0.645927	0.645927	0	1	0	0	CorrectCommission	0.296349	0.306892	1	1
278.596191	0.792480	city	5	1	0.557774	0.557774	0	1	0	0	CorrectCommission	0.468555	0.309947	1	1
279.388458	0.792049	mountain	7	1	0.650457	0.650457	0	0	1	0	CommissionError	0.335652	0.316768	1	1
280.180634	0.792326	city	7	1	0.603137	0.603137	0	1	0	0	CorrectCommission	0.074939	0.327639	1	1
280.973022	0.792419	city	9	1	0.602755	0.602755	0	1	0	0	CorrectCommission	0.078255	0.342778	1	1
281.765228	0.792045	city	1	1	0.601039	0.601039	0	1	0	0	CorrectCommission	0.093148	0.362224	1	1
282.557404	0.792265	city	6	1	0.596404	0.596404	0	1	0	0	CorrectCommission	0.133365	0.385762	1	1
283.349670	0.792300	city	5	1	0.695280	0.695280	0	1	0	0	CorrectCommission	0.724577	0.412809	1	1
284.141998	0.792338	city	10	1	0.649900	0.649900	0	1	0	0	CorrectCommission	0.330822	0.442385	1	1
284.934357	0.792374	city	7	1	0.695536	0.695536	0	1	0	0	CorrectCommission	0.726801	0.473205	1	1
285.726562	0.792047	city	8	1	0.645493	0.645493	0	1	0	0	CorrectCommission	0.292579	0.503748	1	1
286.518829	0.792481	city	7	1	0.645729	0.645729	0	1	0	0	CorrectCommission	0.294632	0.532460	1	1
287.311096	0.792076	city	1	1	0.646457	0.646457	0	1	0	0	CorrectCommission	0.300946	0.557961	1	1
288.103271	0.792246	city	10	1	0.506057	0.506057	0	1	0	0	CorrectCommission	0.917299	0.579274	1	1
288.895508	0.792254	mountain	6	0	0.000000	0.495152	1	0	0	0	CorrectOmission	1.011913	0.595998	0	1
289.687775	0.792270	city	2	1	0.497896	0.497896	0	1	0	0	CorrectCommission	0.988107	0.608436	0	1
290.480042	0.792261	mountain	7	1	0.398439	0.398439	0	0	1	0	CommissionError	1.851090	0.617572	0	1
291.272430	0.792483	city	6	1	0.596246	0.596246	0	1	0	0	CorrectCommission	0.134732	0.624876	0	1
292.064697	0.792049	mountain	10	0	0.000000	0.660102	1	0	0	0	CorrectOmission	0.419341	0.632068	0	1
292.856903	0.792371	mountain	2	0	0.000000	0.644830	1	0	0	0	CorrectOmission	0.286830	0.640664	0	1
293.649200	0.792267	city	4	1	0.605255	0.605255	0	1	0	0	CorrectCommission	0.056564	0.651633	0	1
294.441467	0.792263	city	1	1	0.596199	0.596199	0	1	0	0	CorrectCommission	0.135139	0.665099	0	1
295.233673	0.792156	city	5	1	0.645677	0.645677	0	1	0	0	CorrectCommission	0.294177	0.680214	0	1
296.025909	0.792268	city	8	1	0.695294	0.695294	0	1	0	0	CorrectCommission	0.724703	0.695219	0	1
296.818176	0.792262	city	9	1	0.566894	0.566894	0	1	0	0	CorrectCommission	0.389420	0.707719	0	1
297.610413	0.792264	city	8	1	0.411668	0.411668	0	1	0	0	CorrectCommission	1.736304	0.715130	0	1
298.402802	0.792484	city	9	1	0.398145	0.398145	0	1	0	0	CorrectCommission	1.853638	0.715094	0	1
299.195068	0.792049	city	1	1	0.555805	0.555805	0	1	0	0	CorrectCommission	0.485633	0.705958	0	1
299.987213	0.792260	mountain	7	0	0.000000	0.717870	1	0	0	0	CorrectOmission	0.920592	0.687119	0	1
300.779480	0.792270	city	4	1	0.794345	0.794345	0	1	0	0	CorrectCommission	1.584158	0.659084	0	1
301.571869	0.792478	city	1	1	0.695235	0.695235	0	1	0	0	CorrectCommission	0.724185	0.623455	0	1
302.364166	0.792108	mountain	3	0	0.000000	0.638001	1	0	0	0	CorrectOmission	0.227570	0.582697	0	1
303.156311	0.792208	city	4	1	0.609643	0.609643	0	1	0	0	CorrectCommission	0.018486	0.539776	1	1
303.948547	0.792265	city	6	1	0.597162	0.597162	0	1	0	0	CorrectCommission	0.126782	0.497744	1	1
304.740814	0.792261	city	10	1	0.596349	0.596349	0	1	0	0	CorrectCommission	0.133841	0.459382	1	1
305.533081	0.792264	mountain	5	0	0.000000	0.662251	1	0	0	0	CorrectOmission	0.437988	0.426888	1	0
306.325378	0.792374	city	1	1	0.695354	0.695354	0	1	0	0	CorrectCommission	0.725221	0.401717	1	0
307.117706	0.792264	city	5	1	0.596143	0.596143	0	1	0	0	CorrectCommission	0.135622	0.384494	1	0
307.909973	0.792266	city	8	1	0.596222	0.596222	0	1	0	0	CorrectCommission	0.134945	0.375052	1	0
308.702240	0.792263	city	4	1	0.599885	0.599885	0	1	0	0	CorrectCommission	0.103156	0.372545	1	0
309.494446	0.792166	city	9	1	0.645646	0.645646	0	1	0	0	CorrectCommission	0.293911	0.375597	1	0
310.286652	0.792257	city	7	1	0.648221	0.648221	0	1	0	0	CorrectCommission	0.316251	0.382506	1	0
311.078918	0.792266	city	5	1	0.596235	0.596235	0	1	0	0	CorrectCommission	0.134826	0.391444	1	0
311.871185	0.792264	city	1	1	0.654813	0.654813	0	1	0	0	CorrectCommission	0.373450	0.400674	1	0
312.663452	0.792266	city	7	1	0.744810	0.744810	0	1	0	0	CorrectCommission	1.154346	0.408725	1	0
313.455719	0.792261	city	9	1	0.744923	0.744923	0	1	0	0	CorrectCommission	1.155329	0.414493	1	0
314.248047	0.792374	city	2	1	0.609276	0.609276	0	1	0	0	CorrectCommission	0.021674	0.417364	1	0
315.040405	0.792373	city	6	1	0.605430	0.605430	0	1	0	0	CorrectCommission	0.055043	0.417205	1	0
315.832642	0.792088	mountain	10	0	0.000000	0.666305	1	0	0	0	CorrectOmission	0.473160	0.414280	1	0
316.624847	0.792333	city	9	1	0.695405	0.695405	0	1	0	0	CorrectCommission	0.725667	0.409204	1	0
317.417114	0.792214	city	10	1	0.596239	0.596239	0	1	0	0	CorrectCommission	0.134792	0.402829	1	0
318.209351	0.792212	city	2	1	0.546871	0.546871	0	1	0	0	CorrectCommission	0.563152	0.396148	1	0
319.001587	0.792259	city	3	1	0.596220	0.596220	0	1	0	0	CorrectCommission	0.134958	0.390202	1	0
319.793854	0.792268	city	4	1	0.552036	0.552036	0	1	0	0	CorrectCommission	0.518338	0.386042	1	0
320.586121	0.792266	city	1	1	0.596253	0.596253	0	1	0	0	CorrectCommission	0.134672	0.384647	1	0
321.378357	0.792260	city	9	1	0.699947	0.699947	0	1	0	0	CorrectCommission	0.765072	0.386928	1	0
322.170624	0.792266	city	2	1	0.596234	0.596234	0	1	0	0	CorrectCommission	0.134840	0.393665	1	0
322.962952	0.792373	city	3	1	0.645755	0.645755	0	1	0	0	CorrectCommission	0.294851	0.405567	1	0
323.755219	0.792157	city	10	1	0.596130	0.596130	0	1	0	0	CorrectCommission	0.135743	0.423190	1	0
324.547455	0.792339	city	6	1	0.647241	0.647241	0	1	0	0	CorrectCommission	0.307747	0.447001	1	0
325.339783	0.792296	city	4	1	0.695255	0.695255	0	1	0	0	CorrectCommission	0.724361	0.477340	1	0
326.132050	0.792265	city	7	1	0.603192	0.603192	0	1	0	0	CorrectCommission	0.074462	0.514413	1	0
326.924316	0.792264	city	6	1	0.596144	0.596144	0	1	0	0	CorrectCommission	0.135619	0.558268	1	0
327.716522	0.792156	city	5	1	0.497211	0.497211	0	1	0	0	CorrectCommission	0.994051	0.608719	0	0
328.508759	0.792291	city	2	1	0.514373	0.514373	0	1	0	0	CorrectCommission	0.845140	0.665244	0	0
329.301025	0.792245	city	3	1	0.547052	0.547052	0	1	0	0	CorrectCommission	0.561582	0.726911	0	0
330.093323	0.792369	city	5	1	0.512931	0.512931	0	1	0	0	CorrectCommission	0.857652	0.792246	0	0
330.885590	0.792155	city	6	1	0.704346	0.704346	0	1	0	0	CorrectCommission	0.803239	0.859151	0	0
331.677795	0.792265	city	4	1	0.645781	0.645781	0	1	0	0	CorrectCommission	0.295081	0.924917	0	0
332.470062	0.792270	city	9	1	0.546761	0.546761	0	1	0	0	CorrectCommission	0.564108	0.986334	0	0
333.262329	0.792263	city	6	1	0.511748	0.511748	0	1	0	0	CorrectCommission	0.867914	1.039878	0	0
334.054626	0.792280	city	1	1	0.450028	0.450028	0	1	0	0	CorrectCommission	1.403456	1.082119	0	0
334.846985	0.792463	city	7	1	0.398509	0.398509	0	1	0	0	CorrectCommission	1.850479	1.110142	0	0
335.639252	0.792048	city	4	1	0.356721	0.356721	0	1	0	0	CorrectCommission	2.213074	1.121969	0	0
336.431396	0.792269	city	9	1	0.348705	0.348705	0	1	0	0	CorrectCommission	2.282630	1.116912	0	0
337.223785	0.792476	city	8	1	0.447638	0.447638	0	1	0	0	CorrectCommission	1.424194	1.095716	0	0
338.016022	0.792047	mountain	7	1	0.398107	0.398107	0	0	1	0	CommissionError	1.853971	1.060509	0	0
338.808258	0.792374	city	9	1	0.645843	0.645843	0	1	0	0	CorrectCommission	0.295617	1.014433	0	0
339.600494	0.792156	city	1	1	0.664704	0.664704	0	1	0	0	CorrectCommission	0.459274	0.961282	0	0
340.392731	0.792309	city	5	1	0.645732	0.645732	0	1	0	0	CorrectCommission	0.294655	0.904893	0	0
341.185059	0.792330	city	7	1	0.695232	0.695232	0	1	0	0	CorrectCommission	0.724160	0.848702	0	0
341.977356	0.792264	city	8	1	0.560606	0.560606	0	1	0	0	CorrectCommission	0.443981	0.795355	0	0
342.769562	0.792158	city	4	1	0.502204	0.502204	0	1	0	0	CorrectCommission	0.950730	0.746544	0	0
343.561768	0.792265	city	8	1	0.552115	0.552115	0	1	0	0	CorrectCommission	0.517649	0.702993	0	0
344.354034	0.792268	city	5	1	0.546726	0.546726	0	1	0	0	CorrectCommission	0.564411	0.664641	0	0
345.146332	0.792289	city	10	1	0.546716	0.546716	0	1	0	0	CorrectCommission	0.564497	0.630867	0	0
345.938599	0.792238	city	5	1	0.497152	0.497152	0	1	0	0	CorrectCommission	0.994566	0.600817	0	0
346.730835	0.792264	city	4	1	0.547034	0.547034	0	1	0	0	CorrectCommission	0.561743	0.573670	1	0
347.523163	0.792372	city	9	1	0.499910	0.499910	0	1	0	0	CorrectCommission	0.970634	0.548837	1	0
348.315460	0.792211	mountain	7	0	0.000000	0.598364	1	0	0	0	CorrectOmission	0.116354	0.526033	1	0
349.107758	0.792427	city	9	1	0.695927	0.695927	0	1	0	0	CorrectCommission	0.730194	0.505306	1	0
349.899994	0.792051	city	8	1	0.646130	0.646130	0	1	0	0	CorrectCommission	0.298107	0.486866	1	0
350.692169	0.792265	city	1	1	0.609664	0.609664	0	1	0	0	CorrectCommission	0.018303	0.471015	1	0
351.484436	0.792301	city	3	1	0.596285	0.596285	0	1	0	0	CorrectCommission	0.134398	0.457954	1	0
352.276703	0.792228	city	5	1	0.695238	0.695238	0	1	0	0	CorrectCommission	0.724214	0.447677	1	0
353.069000	0.792327	city	6	1	0.695406	0.695406	0	1	0	0	CorrectCommission	0.725674	0.439906	1	0
353.861298	0.792280	city	3	1	0.646147	0.646147	0	1	0	0	CorrectCommission	0.298257	0.434100	1	0
354.653534	0.792187	city	7	1	0.596861	0.596861	0	1	0	0	CorrectCommission	0.129392	0.429533	1	0
355.445740	0.792263	city	1	1	0.645752	0.645752	0	1	0	0	CorrectCommission	0.294827	0.425366	1	0
356.238007	0.792266	city	9	1	0.547746	0.547746	0	1	0	0	CorrectCommission	0.555560	0.420817	1	0
357.030334	0.792371	city	10	1	0.546792	0.546792	0	1	0	0	CorrectCommission	0.563843	0.415261	1	0
357.822601	0.792159	city	3	1	0.695162	0.695162	0	1	0	0	CorrectCommission	0.723558	0.408366	1	0
358.614929	0.792480	city	7	1	0.695301	0.695301	0	1	0	0	CorrectCommission	0.724758	0.400170	1	0
359.407196	0.792050	city	4	1	0.663769	0.663769	0	1	0	0	CorrectCommission	0.451163	0.391126	1	0
360.199341	0.792260	city	5	1	0.609890	0.609890	0	1	0	0	CorrectCommission	0.016345	0.382071	1	0
360.991608	0.792272	city	2	1	0.596277	0.596277	0	1	0	0	CorrectCommission	0.134465	0.374157	1	0
361.783966	0.792477	city	1	1	0.661692	0.661692	0	1	0	0	CorrectCommission	0.433135	0.368698	1	0
362.576233	0.792045	city	6	1	0.614428	0.614428	0	1	0	0	CorrectCommission	0.023035	0.367032	1	0
363.368408	0.792269	city	1	1	0.547209	0.547209	0	1	0	0	CorrectCommission	0.560227	0.370355	1	0
364.160767	0.792480	city	4	1	0.695244	0.695244	0	1	0	0	CorrectCommission	0.724267	0.379556	1	0
364.953156	0.792264	city	3	1	0.614533	0.614533	0	1	0	0	CorrectCommission	0.023947	0.395066	1	1
365.745331	0.792102	city	4	1	0.646032	0.646032	0	1	0	0	CorrectCommission	0.297254	0.416809	1	1
366.537476	0.792210	city	2	1	0.605482	0.605482	0	1	0	0	CorrectCommission	0.054596	0.444027	1	1
367.329712	0.792268	mountain	10	0	0.000000	0.618902	1	0	0	0	CorrectOmission	0.061851	0.475366	1	1
368.122101	0.792479	city	1	1	0.645791	0.645791	0	1	0	0	CorrectCommission	0.295167	0.508985	1	1
368.914398	0.792156	city	8	1	0.645648	0.645648	0	1	0	0	CorrectCommission	0.293926	0.542739	1	1
369.706635	0.792263	city	5	1	0.546776	0.546776	0	1	0	0	CorrectCommission	0.563983	0.574466	1	1
370.498840	0.792170	city	2	1	0.447603	0.447603	0	1	0	0	CorrectCommission	1.424500	0.602296	0	1
371.291046	0.792251	mountain	8	1	0.402779	0.402779	0	0	1	0	CommissionError	1.813435	0.624916	0	1
372.083313	0.792273	city	10	1	0.447700	0.447700	0	1	0	0	CorrectCommission	1.423656	0.641763	0	1
372.875580	0.792256	city	3	1	0.602642	0.602642	0	1	0	0	CorrectCommission	0.079233	0.653080	0	1
373.667847	0.792269	mountain	3	1	0.603445	0.603445	0	0	1	0	CommissionError	0.072270	0.659839	0	1
374.460144	0.792370	city	9	1	0.596248	0.596248	0	1	0	0	CorrectCommission	0.134718	0.663522	0	1
375.252533	0.792374	city	7	1	0.695157	0.695157	0	1	0	0	CorrectCommission	0.723507	0.665928	0	1
376.044739	0.792047	city	1	1	0.497778	0.497778	0	1	0	0	CorrectCommission	0.989132	0.668911	0	1
376.837006	0.792483	city	2	1	0.497257	0.497257	0	1	0	0	CorrectCommission	0.993653	0.674182	0	1
377.629272	0.792049	city	6	1	0.546490	0.546490	0	1	0	0	CorrectCommission	0.566462	0.683188	0	1
378.421417	0.792261	mountain	7	0	0.000000	0.601306	1	0	0	0	CorrectOmission	0.090829	0.696995	0	1
379.213715	0.792330	city	2	1	0.645725	0.645725	0	1	0	0	CorrectCommission	0.294590	0.716259	0	1
380.006104	0.792418	city	5	1	0.663766	0.663766	0	1	0	0	CorrectCommission	0.451135	0.741250	0	1
380.798340	0.792045	city	9	1	0.858743	0.858743	0	1	0	0	CorrectCommission	2.142937	0.771918	0	1
381.590485	0.792280	city	4	1	0.663956	0.663956	0	1	0	0	CorrectCommission	0.452778	0.807950	0	1
382.382751	0.792253	city	2	1	0.602488	0.602488	0	1	0	0	CorrectCommission	0.080571	0.848976	0	1
383.175018	0.792262	city	9	1	0.711027	0.711027	0	1	0	0	CorrectCommission	0.861210	0.894540	0	1
383.967316	0.792327	city	7	1	0.695280	0.695280	0	1	0	0	CorrectCommission	0.724574	0.944195	0	1
384.759644	0.792312	mountain	4	0	0.000000	0.710738	1	0	0	0	CorrectOmission	0.858706	0.997515	0	1
385.551849	0.792154	city	2	1	0.744778	0.744778	0	1	0	0	CorrectCommission	1.154071	1.054088	0	1
386.344086	0.792264	mountain	2	0	0.000000	0.784776	1	0	0	0	CorrectOmission	1.501130	1.113439	0	1
387.136444	0.792483	mountain	7	0	0.000000	0.811197	1	0	0	0	CorrectOmission	1.730377	1.174890	0	1
387.928741	0.792109	mountain	4	0	0.000000	0.804504	1	0	0	0	CorrectOmission	1.672303	1.237417	0	1
388.720917	0.792213	city	2	1	0.745162	0.745162	0	1	0	0	CorrectCommission	1.157399	1.299485	0	1
389.513245	0.792472	city	9	1	0.613636	0.613636	0	1	0	0	CorrectCommission	0.016157	1.358936	0	1
390.305603	0.792265	city	7	1	0.546710	0.546710	0	1	0	0	CorrectCommission	0.564549	1.413014	0	1
391.097870	0.792265	city	2	1	0.504494	0.504494	0	1	0	0	CorrectCommission	0.930854	1.458505	0	1
391.890045	0.792047	city	4	1	0.459775	0.459775	0	1	0	0	CorrectCommission	1.318880	1.492134	0	1
392.682190	0.792267	city	7	1	0.997609	0.997609	0	1	0	0	CorrectCommission	3.347861	1.511022	0	1
393.474457	0.792265	city	2	1	1.041888	1.041888	0	1	0	0	CorrectCommission	3.732066	1.513172	0	1
394.266785	0.792370	city	7	1	0.942988	0.942988	0	1	0	0	CorrectCommission	2.873920	1.497912	0	1
395.059052	0.792212	mountain	1	0	0.000000	0.819258	1	0	0	0	CorrectOmission	1.800326	1.466064	0	1
395.851379	0.792428	mountain	9	0	0.000000	0.695458	1	0	0	0	CorrectOmission	0.726125	1.419835	0	1
396.643616	0.792053	city	7	1	0.596349	0.596349	0	1	0	0	CorrectCommission	0.133842	1.362478	0	1
397.435883	0.792477	city	3	1	0.546689	0.546689	0	1	0	0	CorrectCommission	0.564732	1.297814	0	1
398.228149	0.792047	city	1	1	0.497561	0.497561	0	1	0	0	CorrectCommission	0.991011	1.229634	0	1
399.020294	0.792263	city	3	1	0.893304	0.893304	0	1	0	0	CorrectCommission	2.442821	1.161306	0	1
399.812561	0.792269	city	8	1	0.695295	0.695295	0	1	0	0	CorrectCommission	0.724710	1.095396	0	1
400.604828	0.792264	city	1	1	0.497280	0.497280	0	1	0	0	CorrectCommission	0.993455	1.033547	0	1
401.397095	0.792263	city	2	1	0.497178	0.497178	0	1	0	0	CorrectCommission	0.994342	0.976390	0	1
402.189362	0.792263	city	6	1	0.596264	0.596264	0	1	0	0	CorrectCommission	0.134579	0.923704	0	1
402.981659	0.792332	city	10	1	0.546727	0.546727	0	1	0	0	CorrectCommission	0.564407	0.874626	0	1
403.773987	0.792307	city	5	1	0.467458	0.467458	0	1	0	0	CorrectCommission	1.252213	0.827905	0	1
404.566315	0.792372	mountain	1	0	0.000000	0.503046	1	0	0	0	CorrectOmission	0.943420	0.782215	0	1
405.358521	0.792050	city	9	1	0.548093	0.548093	0	1	0	0	CorrectCommission	0.552550	0.736465	0	1
406.150696	0.792260	city	1	1	0.497202	0.497202	0	1	0	0	CorrectCommission	0.994126	0.690045	0	1
406.943054	0.792483	city	8	1	0.447720	0.447720	0	1	0	0	CorrectCommission	1.423484	0.642966	0	1
407.735321	0.792052	city	2	1	0.551549	0.551549	0	1	0	0	CorrectCommission	0.522566	0.595873	0	1
408.527496	0.792265	city	4	1	0.546711	0.546711	0	1	0	0	CorrectCommission	0.564547	0.550029	1	1
409.319763	0.792264	city	7	1	0.596212	0.596212	0	1	0	0	CorrectCommission	0.135025	0.507081	1	1
410.112030	0.792262	city	10	1	0.596212	0.596212	0	1	0	0	CorrectCommission	0.135028	0.468858	1	1
410.904266	0.792266	city	1	1	0.608873	0.608873	0	1	0	0	CorrectCommission	0.025167	0.437119	1	1
411.696594	0.792371	city	6	1	0.614674	0.614674	0	1	0	0	CorrectCommission	0.025168	0.413380	1	1
412.488983	0.792373	city	10	1	0.508995	0.508995	0	1	0	0	CorrectCommission	0.891802	0.398762	1	1
413.281281	0.792267	city	4	1	0.614387	0.614387	0	1	0	0	CorrectCommission	0.022678	0.393841	1	1
414.073547	0.792264	city	5	1	0.596035	0.596035	0	1	0	0	CorrectCommission	0.136563	0.398687	1	1
414.865723	0.792045	city	9	1	0.564787	0.564787	0	1	0	0	CorrectCommission	0.407704	0.412822	1	1
415.657928	0.792373	mountain	4	0	0.000000	0.591781	1	0	0	0	CorrectOmission	0.173471	0.435306	1	1
416.450195	0.792168	city	3	1	0.645754	0.645754	0	1	0	0	CorrectCommission	0.294846	0.464802	1	1
417.242523	0.792472	city	6	1	0.695439	0.695439	0	1	0	0	CorrectCommission	0.725953	0.499704	1	1
418.034760	0.792051	city	5	1	0.645574	0.645574	0	1	0	0	CorrectCommission	0.293283	0.538200	1	1
418.827026	0.792479	city	8	1	0.695329	0.695329	0	1	0	0	CorrectCommission	0.724999	0.578386	1	1
419.619293	0.792047	city	2	1	0.695192	0.695192	0	1	0	0	CorrectCommission	0.723814	0.618365	0	1
420.411469	0.792267	city	9	1	0.603280	0.603280	0	1	0	0	CorrectCommission	0.073701	0.656373	0	1
421.203766	0.792371	city	8	1	0.497275	0.497275	0	1	0	0	CorrectCommission	0.993497	0.690874	0	1
421.996033	0.792155	city	7	1	0.448195	0.448195	0	1	0	0	CorrectCommission	1.419356	0.720641	0	1
422.788300	0.792373	city	1	1	0.517059	0.517059	0	1	0	0	CorrectCommission	0.821833	0.744860	0	1
423.580688	0.792375	city	2	1	0.466171	0.466171	0	1	0	0	CorrectCommission	1.263386	0.763180	0	1
424.372894	0.792045	city	1	1	0.546525	0.546525	0	1	0	0	CorrectCommission	0.566158	0.775628	0	0
425.165039	0.792269	city	7	1	0.546720	0.546720	0	1	0	0	CorrectCommission	0.564466	0.782643	0	0
425.957306	0.792261	city	8	1	0.596299	0.596299	0	1	0	0	CorrectCommission	0.134276	0.784929	0	0
426.749573	0.792265	city	7	1	0.497753	0.497753	0	1	0	0	CorrectCommission	0.989352	0.783374	0	0
427.541840	0.792300	city	5	1	0.349722	0.349722	0	1	0	0	CorrectCommission	2.273806	0.778873	0	0
428.334137	0.792242	city	1	1	0.513517	0.513517	0	1	0	0	CorrectCommission	0.852564	0.772230	0	0
429.126404	0.792315	city	3	1	0.596255	0.596255	0	1	0	0	CorrectCommission	0.134658	0.764084	0	0
429.918671	0.792205	city	6	1	0.596229	0.596229	0	1	0	0	CorrectCommission	0.134883	0.754747	0	0
430.710907	0.792268	mountain	8	0	0.000000	0.630955	1	0	0	0	CorrectOmission	0.166439	0.744214	0	0
431.503174	0.792261	mountain	2	0	0.000000	0.685495	1	0	0	0	CorrectOmission	0.639678	0.732218	0	0
432.295441	0.792299	city	1	1	0.744909	0.744909	0	1	0	0	CorrectCommission	1.155209	0.718356	0	0
433.087708	0.792242	city	5	1	0.794258	0.794258	0	1	0	0	CorrectCommission	1.583403	0.702276	0	0
433.879974	0.792255	city	2	1	0.711793	0.711793	0	1	0	0	CorrectCommission	0.867862	0.683853	0	0
434.672211	0.792264	city	1	1	0.695380	0.695380	0	1	0	0	CorrectCommission	0.725443	0.663347	0	0
435.464600	0.792481	city	2	1	0.702331	0.702331	0	1	0	0	CorrectCommission	0.785758	0.641445	0	0
436.256866	0.792044	city	5	1	0.646039	0.646039	0	1	0	0	CorrectCommission	0.297316	0.619226	0	0
437.049011	0.792264	city	6	1	0.645759	0.645759	0	1	0	0	CorrectCommission	0.294891	0.598039	0	0
437.841278	0.792269	city	1	1	0.645765	0.645765	0	1	0	0	CorrectCommission	0.294940	0.579301	1	0
438.633545	0.792278	city	4	1	0.748448	0.748448	0	1	0	0	CorrectCommission	1.185910	0.564285	1	0
439.425812	0.792253	city	3	1	0.646448	0.646448	0	1	0	0	CorrectCommission	0.300864	0.553904	1	0
440.218109	0.792315	city	2	1	0.596227	0.596227	0	1	0	0	CorrectCommission	0.134896	0.548693	1	0
441.010376	0.792211	city	1	1	0.596187	0.596187	0	1	0	0	CorrectCommission	0.135247	0.548694	1	0
441.802643	0.792327	mountain	10	0	0.000000	0.578745	1	0	0	0	CorrectOmission	0.286584	0.553550	1	0
442.594910	0.792202	city	1	1	0.610568	0.610568	0	1	0	0	CorrectCommission	0.010460	0.562641	1	0
443.387177	0.792349	city	3	1	0.758320	0.758320	0	1	0	0	CorrectCommission	1.271571	0.575284	1	0
444.179443	0.792186	city	5	1	0.750464	0.750464	0	1	0	0	CorrectCommission	1.203403	0.590846	0	0
444.971649	0.792261	city	6	1	0.744789	0.744789	0	1	0	0	CorrectCommission	1.154165	0.608895	0	0
445.764038	0.792481	city	3	1	0.650545	0.650545	0	1	0	0	CorrectCommission	0.336419	0.629234	0	0
446.556305	0.792050	city	1	1	0.645963	0.645963	0	1	0	0	CorrectCommission	0.296662	0.651797	0	0
447.348450	0.792260	mountain	2	0	0.000000	0.678279	1	0	0	0	CorrectOmission	0.577065	0.676435	0	0
448.140778	0.792374	city	4	1	0.695512	0.695512	0	1	0	0	CorrectCommission	0.726593	0.702733	0	0
448.933044	0.792159	city	10	1	0.645681	0.645681	0	1	0	0	CorrectCommission	0.294212	0.729845	0	0
449.725250	0.792264	mountain	1	0	0.000000	0.620561	1	0	0	0	CorrectOmission	0.076248	0.756465	0	0
450.517578	0.792373	city	9	1	0.647993	0.647993	0	1	0	0	CorrectCommission	0.314274	0.780897	0	0
451.309845	0.792159	city	2	1	0.755818	0.755818	0	1	0	0	CorrectCommission	1.249866	0.801318	0	0
452.102051	0.792266	mountain	8	0	0.000000	0.794142	1	0	0	0	CorrectOmission	1.582392	0.816090	0	0
452.894318	0.792251	city	3	1	0.796176	0.796176	0	1	0	0	CorrectCommission	1.600041	0.824123	0	0
453.686584	0.792297	city	6	1	0.795134	0.795134	0	1	0	0	CorrectCommission	1.590999	0.825153	0	0
454.478851	0.792245	city	10	1	0.695877	0.695877	0	1	0	0	CorrectCommission	0.729754	0.819818	0	0
455.271088	0.792259	city	6	1	0.744788	0.744788	0	1	0	0	CorrectCommission	1.154152	0.809614	0	0
456.063385	0.792285	city	7	1	0.711082	0.711082	0	1	0	0	CorrectCommission	0.861690	0.796529	0	0
456.855652	0.792246	city	4	1	0.609502	0.609502	0	1	0	0	CorrectCommission	0.019710	0.782744	0	0
457.647949	0.792374	city	1	1	0.645728	0.645728	0	1	0	0	CorrectCommission	0.294622	0.770169	0	0
458.440247	0.792207	city	6	1	0.645618	0.645618	0	1	0	0	CorrectCommission	0.293663	0.760065	0	0
459.232513	0.792323	city	3	1	0.601553	0.601553	0	1	0	0	CorrectCommission	0.088681	0.752886	0	0
460.024750	0.792161	city	1	1	0.560636	0.560636	0	1	0	0	CorrectCommission	0.443716	0.748305	0	0
460.816956	0.792258	city	10	1	0.744783	0.744783	0	1	0	0	CorrectCommission	1.154110	0.745366	0	0
461.609222	0.792265	city	8	1	0.794316	0.794316	0	1	0	0	CorrectCommission	1.583908	0.742836	0	0
462.401489	0.792266	city	9	1	0.750241	0.750241	0	1	0	0	CorrectCommission	1.201466	0.739563	0	0
463.193848	0.792481	city	3	1	0.749677	0.749677	0	1	0	0	CorrectCommission	1.196580	0.734801	0	0
463.986145	0.792107	city	9	1	0.703597	0.703597	0	1	0	0	CorrectCommission	0.796742	0.728304	0	0
464.778320	0.792236	city	6	1	0.699987	0.699987	0	1	0	0	CorrectCommission	0.765424	0.720338	0	0
465.570587	0.792272	city	2	1	0.645788	0.645788	0	1	0	0	CorrectCommission	0.295140	0.711494	0	0
466.362946	0.792444	city	6	1	0.563457	0.563457	0	1	0	0	CorrectCommission	0.419238	0.702447	0	0
467.155182	0.792046	city	9	1	0.596499	0.596499	0	1	0	0	CorrectCommission	0.132537	0.693671	0	0
467.947327	0.792270	city	5	1	0.596645	0.596645	0	1	0	0	CorrectCommission	0.131267	0.685266	0	0
468.739716	0.792478	city	9	1	0.701607	0.701607	0	1	0	0	CorrectCommission	0.779473	0.676867	0	0
469.532043	0.792158	city	5	1	0.695404	0.695404	0	1	0	0	CorrectCommission	0.725651	0.667722	0	0
470.324188	0.792154	city	8	1	0.794216	0.794216	0	1	0	0	CorrectCommission	1.583037	0.656906	0	0
471.116394	0.792267	city	7	1	0.699636	0.699636	0	1	0	0	CorrectCommission	0.762374	0.643516	0	0
471.908661	0.792273	city	4	1	0.744943	0.744943	0	1	0	0	CorrectCommission	1.155502	0.626958	0	0
472.700928	0.792255	city	6	1	0.697896	0.697896	0	1	0	0	CorrectCommission	0.747277	0.607018	0	0
473.493195	0.792269	city	2	1	0.645756	0.645756	0	1	0	0	CorrectCommission	0.294862	0.583957	0	0
474.285461	0.792260	city	3	1	0.645753	0.645753	0	1	0	0	CorrectCommission	0.294834	0.558470	1	0
475.077728	0.792270	city	5	1	0.663895	0.663895	0	1	0	0	CorrectCommission	0.452256	0.531535	1	0
475.869995	0.792302	city	3	1	0.645913	0.645913	0	1	0	0	CorrectCommission	0.296227	0.504287	1	0
476.662292	0.792267	city	6	1	0.659116	0.659116	0	1	0	0	CorrectCommission	0.410786	0.477916	1	0
477.454651	0.792439	city	3	1	0.645772	0.645772	0	1	0	0	CorrectCommission	0.294997	0.453556	1	0
478.246887	0.792053	city	2	1	0.496986	0.496986	0	1	0	0	CorrectCommission	0.996001	0.432261	1	0
479.039093	0.792368	city	5	1	0.645736	0.645736	0	1	0	0	CorrectCommission	0.294691	0.414973	1	0
479.831360	0.792156	city	7	1	0.646032	0.646032	0	1	0	0	CorrectCommission	0.297261	0.402581	1	0
480.623566	0.792272	city	4	1	0.646102	0.646102	0	1	0	0	CorrectCommission	0.297864	0.395848	1	0
481.415955	0.792474	city	6	1	0.645735	0.645735	0	1	0	0	CorrectCommission	0.294676	0.395417	1	0
482.208252	0.792118	city	2	1	0.596082	0.596082	0	1	0	0	CorrectCommission	0.136157	0.401726	1	0
483.000397	0.792196	city	6	1	0.646506	0.646506	0	1	0	0	CorrectCommission	0.301366	0.414943	1	0
483.792755	0.792480	city	3	1	0.645795	0.645795	0	1	0	0	CorrectCommission	0.295202	0.434865	1	0
484.585052	0.792157	city	7	1	0.596435	0.596435	0	1	0	0	CorrectCommission	0.133092	0.460881	1	0
485.377228	0.792160	city	6	1	0.558536	0.558536	0	1	0	0	CorrectCommission	0.461942	0.491963	1	0
486.169434	0.792262	city	3	1	0.559826	0.559826	0	1	0	0	CorrectCommission	0.450748	0.526667	1	0
486.961700	0.792265	city	2	1	0.546858	0.546858	0	1	0	0	CorrectCommission	0.563268	0.563268	1	0
