onset	duration	trial_type	image_type	Press	ReactionTime	ReactionTime_Interpolated	CorrectOmission	CorrectCommission	CommissionError	OmissionError	response_type	nonsmoothVarianceTimeCourse	VarianceTimeCourse	In_the_Zone	Reward_trial
8.433854	0.792155	city	8	1	0.843683	0.843683	0	1	0	0	CorrectCommission	1.133498	1.133498	0	1
9.226173	0.792483	city	5	1	0.744782	0.744782	0	1	0	0	CorrectCommission	0.331923	1.026391	0	1
10.018437	0.792045	city	7	1	0.796721	0.796721	0	1	0	0	CorrectCommission	0.437662	0.923651	0	1
10.810648	0.792375	city	10	1	0.794286	0.794286	0	1	0	0	CorrectCommission	0.401572	0.829185	0	1
11.602913	0.792155	city	1	1	0.794090	0.794090	0	1	0	0	CorrectCommission	0.398676	0.746096	0	1
12.395177	0.792374	city	3	1	0.794373	0.794373	0	1	0	0	CorrectCommission	0.402864	0.676411	1	1
13.187443	0.792158	city	4	1	0.759160	0.759160	0	1	0	0	CorrectCommission	0.118880	0.621000	1	1
13.979655	0.792266	city	10	1	0.745504	0.745504	0	1	0	0	CorrectCommission	0.321232	0.579621	1	1
14.771920	0.792265	city	7	1	0.794295	0.794295	0	1	0	0	CorrectCommission	0.401703	0.551082	1	1
15.564292	0.792479	mountain	9	1	0.794356	0.794356	0	0	1	0	CommissionError	0.402620	0.533525	1	1
16.356558	0.792051	city	6	1	0.856155	0.856155	0	1	0	0	CorrectCommission	1.318289	0.524728	1	1
17.148726	0.792286	city	2	1	0.744876	0.744876	0	1	0	0	CorrectCommission	0.330540	0.522346	1	1
17.941097	0.792458	city	5	1	0.744653	0.744653	0	1	0	0	CorrectCommission	0.333844	0.524242	1	1
18.733459	0.792264	city	3	1	0.794089	0.794089	0	1	0	0	CorrectCommission	0.398659	0.528593	1	1
19.525616	0.792049	city	6	1	0.744577	0.744577	0	1	0	0	CorrectCommission	0.334965	0.534003	1	1
20.317772	0.792265	city	5	1	0.798450	0.798450	0	1	0	0	CorrectCommission	0.463282	0.539556	1	1
21.110090	0.792370	city	6	1	0.862788	0.862788	0	1	0	0	CorrectCommission	1.416576	0.544812	1	1
21.902353	0.792156	city	8	1	0.744683	0.744683	0	1	0	0	CorrectCommission	0.333397	0.549761	1	1
22.694567	0.792272	city	7	1	0.744854	0.744854	0	1	0	0	CorrectCommission	0.330852	0.554790	1	1
23.486940	0.792476	city	2	1	0.709846	0.709846	0	1	0	0	CorrectCommission	0.849578	0.560516	1	1
24.279203	0.792050	city	5	1	0.745019	0.745019	0	1	0	0	CorrectCommission	0.328411	0.567678	1	1
25.071360	0.792265	city	1	1	0.716545	0.716545	0	1	0	0	CorrectCommission	0.750309	0.577057	1	1
25.863634	0.792282	mountain	1	0	0.000000	0.756139	1	0	0	0	CorrectOmission	0.163656	0.589303	1	1
26.655899	0.792247	city	1	1	0.803624	0.803624	0	1	0	0	CorrectCommission	0.539935	0.604906	1	1
27.448261	0.792480	city	5	1	0.798826	0.798826	0	1	0	0	CorrectCommission	0.468849	0.624063	1	1
28.240635	0.792265	city	8	1	0.747674	0.747674	0	1	0	0	CorrectCommission	0.289074	0.646711	1	1
29.032793	0.792051	city	4	1	0.698548	0.698548	0	1	0	0	CorrectCommission	1.016971	0.672592	1	1
29.824951	0.792266	city	1	1	0.713580	0.713580	0	1	0	0	CorrectCommission	0.794244	0.701256	1	1
30.617268	0.792369	city	5	1	0.712797	0.712797	0	1	0	0	CorrectCommission	0.805852	0.732241	0	1
31.409533	0.792159	city	10	1	0.709756	0.709756	0	1	0	0	CorrectCommission	0.850910	0.765107	0	1
32.201744	0.792262	city	2	1	0.745489	0.745489	0	1	0	0	CorrectCommission	0.321457	0.799466	0	1
32.994007	0.792268	city	7	1	0.745326	0.745326	0	1	0	0	CorrectCommission	0.323871	0.835070	0	1
33.786274	0.792263	city	3	1	0.904981	0.904981	0	1	0	0	CorrectCommission	2.041751	0.871759	0	1
34.578545	0.792283	city	10	1	0.843803	0.843803	0	1	0	0	CorrectCommission	1.135264	0.909429	0	1
35.370811	0.792243	mountain	2	0	0.000000	0.799889	1	0	0	0	CorrectOmission	0.484599	0.948014	0	1
36.163174	0.792482	city	2	1	0.794283	0.794283	0	1	0	0	CorrectCommission	0.401539	0.987345	0	1
36.955490	0.792157	mountain	6	0	0.000000	0.848027	1	0	0	0	CorrectOmission	1.197865	1.027029	0	1
37.747757	0.792375	city	4	1	0.855537	0.855537	0	1	0	0	CorrectCommission	1.309128	1.066379	0	1
38.539970	0.792047	city	2	1	0.711226	0.711226	0	1	0	0	CorrectCommission	0.829121	1.104370	0	1
39.332123	0.792262	city	10	1	0.744836	0.744836	0	1	0	0	CorrectCommission	0.331120	1.139682	0	1
40.124386	0.792265	city	6	1	0.893352	0.893352	0	1	0	0	CorrectCommission	1.869442	1.170756	0	1
40.916668	0.792301	city	8	1	0.650167	0.650167	0	1	0	0	CorrectCommission	1.733834	1.195839	0	1
41.709042	0.792447	city	10	1	0.599189	0.599189	0	1	0	0	CorrectCommission	2.489185	1.213214	0	1
42.501347	0.792157	city	1	1	0.702017	0.702017	0	1	0	0	CorrectCommission	0.965570	1.221277	0	1
43.293503	0.792157	city	9	1	0.759166	0.759166	0	1	0	0	CorrectCommission	0.118797	1.218763	0	1
44.085766	0.792370	city	7	1	0.849189	0.849189	0	1	0	0	CorrectCommission	1.215069	1.204862	0	1
44.878029	0.792156	city	2	1	0.794216	0.794216	0	1	0	0	CorrectCommission	0.400534	1.179349	0	1
45.670242	0.792270	mountain	2	0	0.000000	0.936983	1	0	0	0	CorrectOmission	2.515919	1.142836	0	1
46.462616	0.792477	city	4	1	0.997617	0.997617	0	1	0	0	CorrectCommission	3.414332	1.096722	0	1
47.254879	0.792051	city	6	1	0.696243	0.696243	0	1	0	0	CorrectCommission	1.051122	1.043262	0	1
48.047092	0.792371	city	5	1	0.744842	0.744842	0	1	0	0	CorrectCommission	0.331039	0.985487	0	1
48.839355	0.792155	city	6	1	0.744741	0.744741	0	1	0	0	CorrectCommission	0.332537	0.926837	0	1
49.631565	0.792266	city	3	1	0.794493	0.794493	0	1	0	0	CorrectCommission	0.404638	0.870865	0	1
50.423832	0.792266	city	9	1	0.744829	0.744829	0	1	0	0	CorrectCommission	0.331230	0.820870	0	1
51.216095	0.792261	city	1	1	0.700598	0.700598	0	1	0	0	CorrectCommission	0.986600	0.779544	0	1
52.008385	0.792318	city	5	1	0.744806	0.744806	0	1	0	0	CorrectCommission	0.331563	0.748751	0	1
52.800652	0.792214	city	6	1	0.794275	0.794275	0	1	0	0	CorrectCommission	0.401418	0.729441	0	1
53.592915	0.792316	city	5	1	0.794182	0.794182	0	1	0	0	CorrectCommission	0.400029	0.721623	1	1
54.385212	0.792279	city	7	1	0.754109	0.754109	0	1	0	0	CorrectCommission	0.193731	0.724476	1	1
55.177452	0.792201	mountain	10	1	0.847692	0.847692	0	0	1	0	CommissionError	1.192888	0.736521	0	1
55.969791	0.792481	city	2	1	0.695354	0.695354	0	1	0	0	CorrectCommission	1.064295	0.755777	0	1
56.762054	0.792046	city	1	1	0.695145	0.695145	0	1	0	0	CorrectCommission	1.067396	0.779971	0	1
57.554214	0.792268	city	4	1	0.843970	0.843970	0	1	0	0	CorrectCommission	1.137751	0.806596	0	1
58.346531	0.792370	city	1	1	0.762674	0.762674	0	1	0	0	CorrectCommission	0.066821	0.833088	0	1
59.138905	0.792374	city	8	1	0.744678	0.744678	0	1	0	0	CorrectCommission	0.333471	0.856880	0	1
59.931118	0.792051	city	9	1	0.751081	0.751081	0	1	0	0	CorrectCommission	0.238595	0.875558	0	1
60.723270	0.792259	city	8	1	0.662525	0.662525	0	1	0	0	CorrectCommission	1.550728	0.887050	0	1
61.515591	0.792375	city	6	1	0.896671	0.896671	0	1	0	0	CorrectCommission	1.918611	0.889830	0	1
62.307964	0.792373	city	2	1	0.696386	0.696386	0	1	0	0	CorrectCommission	1.049009	0.883215	0	1
63.100212	0.792129	city	8	1	0.655072	0.655072	0	1	0	0	CorrectCommission	1.661165	0.867539	0	1
63.892391	0.792223	city	3	1	0.695870	0.695870	0	1	0	0	CorrectCommission	1.056652	0.844191	0	1
64.684616	0.792226	city	10	1	0.698366	0.698366	0	1	0	0	CorrectCommission	1.019676	0.815619	0	1
65.476860	0.792267	mountain	10	0	0.000000	0.723525	1	0	0	0	CorrectOmission	0.646898	0.785023	0	1
66.269127	0.792261	city	9	1	0.745940	0.745940	0	1	0	0	CorrectCommission	0.314766	0.755974	0	1
67.061394	0.792270	mountain	4	0	0.000000	0.740206	1	0	0	0	CorrectOmission	0.399733	0.731890	0	1
67.853653	0.792260	city	8	1	0.744755	0.744755	0	1	0	0	CorrectCommission	0.332325	0.715567	1	0
68.645920	0.792263	city	6	1	0.798022	0.798022	0	1	0	0	CorrectCommission	0.456930	0.708734	1	0
69.438202	0.792302	city	10	1	0.794347	0.794347	0	1	0	0	CorrectCommission	0.402486	0.711790	1	0
70.230576	0.792447	city	5	1	0.749628	0.749628	0	1	0	0	CorrectCommission	0.260126	0.723736	1	0
71.022820	0.792048	city	7	1	0.749956	0.749956	0	1	0	0	CorrectCommission	0.255259	0.742304	0	0
71.814987	0.792290	city	5	1	0.744931	0.744931	0	1	0	0	CorrectCommission	0.329725	0.764332	0	0
72.607254	0.792241	city	10	1	0.794292	0.794292	0	1	0	0	CorrectCommission	0.401659	0.786235	0	0
73.399612	0.792479	city	5	1	0.942853	0.942853	0	1	0	0	CorrectCommission	2.602895	0.804625	0	0
74.191879	0.792052	city	7	1	0.649221	0.649221	0	1	0	0	CorrectCommission	1.747863	0.816806	0	0
74.984039	0.792262	city	5	1	0.652130	0.652130	0	1	0	0	CorrectCommission	1.704753	0.821303	0	0
75.776299	0.792264	city	4	1	0.744932	0.744932	0	1	0	0	CorrectCommission	0.329709	0.818022	0	0
76.568619	0.792373	city	5	1	0.699492	0.699492	0	1	0	0	CorrectCommission	1.002985	0.808257	0	0
77.360886	0.792157	city	7	1	0.749884	0.749884	0	1	0	0	CorrectCommission	0.256326	0.794382	0	0
78.153091	0.792263	city	8	1	0.745393	0.745393	0	1	0	0	CorrectCommission	0.322879	0.779510	0	0
78.945358	0.792269	city	9	1	0.701372	0.701372	0	1	0	0	CorrectCommission	0.975133	0.766964	0	0
79.737625	0.792263	mountain	7	0	0.000000	0.743503	1	0	0	0	CorrectOmission	0.350870	0.759848	0	0
80.529892	0.792266	city	5	1	0.813415	0.813415	0	1	0	0	CorrectCommission	0.685005	0.760605	0	0
81.322159	0.792264	city	8	1	0.852733	0.852733	0	1	0	0	CorrectCommission	1.267587	0.770687	0	0
82.114418	0.792260	city	6	1	0.762390	0.762390	0	1	0	0	CorrectCommission	0.071021	0.790390	0	0
82.906685	0.792266	city	2	1	0.794315	0.794315	0	1	0	0	CorrectCommission	0.402008	0.818868	0	0
83.698944	0.792264	mountain	5	0	0.000000	0.762324	1	0	0	0	CorrectOmission	0.072005	0.854184	0	0
84.491318	0.792483	mountain	10	1	0.752025	0.752025	0	0	1	0	CommissionError	0.224608	0.893612	0	0
85.283691	0.792264	city	7	1	0.849025	0.849025	0	1	0	0	CorrectCommission	1.212652	0.933995	0	0
86.075882	0.792113	city	8	1	0.648229	0.648229	0	1	0	0	CorrectCommission	1.762560	0.972116	0	0
86.868042	0.792200	city	9	1	0.598579	0.598579	0	1	0	0	CorrectCommission	2.498213	1.005111	0	0
87.660271	0.792267	city	1	1	0.655443	0.655443	0	1	0	0	CorrectCommission	1.655665	1.030755	0	0
88.452538	0.792266	city	9	1	0.695440	0.695440	0	1	0	0	CorrectCommission	1.063027	1.047631	0	0
89.244804	0.792261	city	3	1	0.751570	0.751570	0	1	0	0	CorrectCommission	0.231350	1.055098	0	0
90.037064	0.792266	city	6	1	0.805784	0.805784	0	1	0	0	CorrectCommission	0.571938	1.053277	0	0
90.829330	0.792266	city	9	1	0.695286	0.695286	0	1	0	0	CorrectCommission	1.065305	1.042795	0	0
91.621597	0.792265	city	8	1	0.649232	0.649232	0	1	0	0	CorrectCommission	1.747698	1.024728	0	0
92.413864	0.792264	city	9	1	0.696054	0.696054	0	1	0	0	CorrectCommission	1.053925	1.000496	0	0
93.206177	0.792372	city	6	1	0.695304	0.695304	0	1	0	0	CorrectCommission	1.065042	0.971907	0	0
93.998444	0.792161	city	3	1	0.744830	0.744830	0	1	0	0	CorrectCommission	0.331212	0.941110	0	0
94.790657	0.792258	city	7	1	0.893614	0.893614	0	1	0	0	CorrectCommission	1.873327	0.910630	0	0
95.582970	0.792374	city	10	1	0.853181	0.853181	0	1	0	0	CorrectCommission	1.274227	0.883275	0	0
96.375237	0.792156	city	5	1	0.803572	0.803572	0	1	0	0	CorrectCommission	0.539161	0.862039	0	0
97.167450	0.792273	city	6	1	0.803203	0.803203	0	1	0	0	CorrectCommission	0.533703	0.849840	0	0
97.959717	0.792256	city	1	1	0.794306	0.794306	0	1	0	0	CorrectCommission	0.401866	0.849132	0	0
98.751976	0.792268	mountain	2	0	0.000000	0.783046	1	0	0	0	CorrectOmission	0.235034	0.861535	0	0
99.544243	0.792266	city	6	1	0.754876	0.754876	0	1	0	0	CorrectCommission	0.182356	0.887494	0	0
100.336502	0.792260	city	10	1	0.695248	0.695248	0	1	0	0	CorrectCommission	1.065866	0.925984	0	0
101.128769	0.792270	mountain	4	0	0.000000	0.726289	1	0	0	0	CorrectOmission	0.605942	0.974408	0	0
101.921036	0.792264	city	3	1	0.794327	0.794327	0	1	0	0	CorrectCommission	0.402190	1.028749	0	0
102.713409	0.792479	city	9	1	0.845695	0.845695	0	1	0	0	CorrectCommission	1.163300	1.083871	0	0
103.505676	0.792047	city	4	1	0.843657	0.843657	0	1	0	0	CorrectCommission	1.133115	1.134029	0	0
104.297829	0.792264	city	5	1	0.801530	0.801530	0	1	0	0	CorrectCommission	0.508906	1.173586	0	0
105.090096	0.792268	city	1	1	0.992512	0.992512	0	1	0	0	CorrectCommission	3.338704	1.197755	0	0
105.882416	0.792372	city	9	1	0.945672	0.945672	0	1	0	0	CorrectCommission	2.644673	1.203146	0	0
106.674683	0.792159	city	6	1	0.893219	0.893219	0	1	0	0	CorrectCommission	1.867470	1.188390	0	0
107.466888	0.792264	city	10	1	0.843965	0.843965	0	1	0	0	CorrectCommission	1.137677	1.154245	0	0
108.259178	0.792316	city	8	1	0.843820	0.843820	0	1	0	0	CorrectCommission	1.135529	1.103495	0	0
109.051445	0.792211	city	6	1	0.893259	0.893259	0	1	0	0	CorrectCommission	1.868065	1.040551	0	0
109.843681	0.792264	city	1	1	0.798976	0.798976	0	1	0	0	CorrectCommission	0.471070	0.970846	0	0
110.635948	0.792265	city	6	1	0.794338	0.794338	0	1	0	0	CorrectCommission	0.402354	0.900166	0	0
111.428215	0.792266	city	5	1	0.752468	0.752468	0	1	0	0	CorrectCommission	0.218037	0.833853	0	0
112.220589	0.792482	city	9	1	0.744712	0.744712	0	1	0	0	CorrectCommission	0.332968	0.776170	0	0
113.012848	0.792050	city	5	1	0.746230	0.746230	0	1	0	0	CorrectCommission	0.310468	0.729931	0	0
113.805061	0.792370	city	6	1	0.794307	0.794307	0	1	0	0	CorrectCommission	0.401893	0.696319	1	0
114.597435	0.792373	city	8	1	0.755136	0.755136	0	1	0	0	CorrectCommission	0.178505	0.674921	1	0
115.389641	0.792048	city	6	1	0.794230	0.794230	0	1	0	0	CorrectCommission	0.400748	0.664064	1	0
116.181908	0.792481	city	5	1	0.794298	0.794298	0	1	0	0	CorrectCommission	0.401761	0.661244	1	0
116.974174	0.792052	city	3	1	0.853055	0.853055	0	1	0	0	CorrectCommission	1.272355	0.663661	1	0
117.766388	0.792370	city	6	1	0.893537	0.893537	0	1	0	0	CorrectCommission	1.872181	0.668688	1	0
118.558754	0.792373	city	5	1	0.811085	0.811085	0	1	0	0	CorrectCommission	0.650490	0.674295	1	0
119.351074	0.792263	city	9	1	0.797166	0.797166	0	1	0	0	CorrectCommission	0.444248	0.679300	1	0
120.143234	0.792052	city	4	1	0.803281	0.803281	0	1	0	0	CorrectCommission	0.534857	0.683329	1	0
120.935410	0.792305	city	9	1	0.744761	0.744761	0	1	0	0	CorrectCommission	0.332236	0.686715	1	0
121.727676	0.792224	city	5	1	0.695264	0.695264	0	1	0	0	CorrectCommission	1.065636	0.690305	1	0
122.519920	0.792265	city	4	1	0.698853	0.698853	0	1	0	0	CorrectCommission	1.012461	0.694991	1	0
123.312187	0.792266	mountain	8	0	0.000000	0.753923	1	0	0	0	CorrectOmission	0.196486	0.701527	1	0
124.104446	0.792261	city	10	1	0.794373	0.794373	0	1	0	0	CorrectCommission	0.402860	0.710278	1	0
124.896820	0.792484	city	5	1	0.754101	0.754101	0	1	0	0	CorrectCommission	0.193851	0.721039	1	0
125.689087	0.792048	city	9	1	0.697869	0.697869	0	1	0	0	CorrectCommission	1.027036	0.733048	0	0
126.481239	0.792260	city	3	1	0.713555	0.713555	0	1	0	0	CorrectCommission	0.794614	0.745083	0	0
127.273506	0.792265	mountain	1	0	0.000000	0.772180	1	0	0	0	CorrectOmission	0.074037	0.755774	0	1
128.065765	0.792267	city	2	1	0.843858	0.843858	0	1	0	0	CorrectCommission	1.136086	0.763830	0	1
128.858093	0.792370	city	4	1	0.898701	0.898701	0	1	0	0	CorrectCommission	1.948700	0.768310	0	1
129.650360	0.792155	city	5	1	0.704243	0.704243	0	1	0	0	CorrectCommission	0.932598	0.768834	0	1
130.442673	0.792483	city	6	1	0.695314	0.695314	0	1	0	0	CorrectCommission	1.064893	0.765705	0	1
131.234940	0.792051	city	8	1	0.695098	0.695098	0	1	0	0	CorrectCommission	1.068089	0.759776	0	1
132.027100	0.792261	city	4	1	0.751400	0.751400	0	1	0	0	CorrectCommission	0.233868	0.752286	0	1
132.819473	0.792483	city	6	1	0.744791	0.744791	0	1	0	0	CorrectCommission	0.331791	0.744578	0	1
133.611725	0.792048	city	7	1	0.744768	0.744768	0	1	0	0	CorrectCommission	0.332137	0.737765	0	1
134.403915	0.792316	mountain	10	0	0.000000	0.737011	1	0	0	0	CorrectOmission	0.447063	0.732553	0	1
135.196198	0.792254	city	4	1	0.745507	0.745507	0	1	0	0	CorrectCommission	0.321186	0.729079	0	1
135.988541	0.792442	city	9	1	0.794239	0.794239	0	1	0	0	CorrectCommission	0.400876	0.726986	1	1
136.780899	0.792267	city	6	1	0.943509	0.943509	0	1	0	0	CorrectCommission	2.612622	0.725551	1	1
137.573059	0.792045	city	8	1	0.751292	0.751292	0	1	0	0	CorrectCommission	0.235472	0.723857	1	1
138.365234	0.792305	city	2	1	0.744792	0.744792	0	1	0	0	CorrectCommission	0.331777	0.721186	1	1
139.157501	0.792228	city	1	1	0.843959	0.843959	0	1	0	0	CorrectCommission	1.137581	0.717064	1	1
139.949783	0.792350	city	3	0	0.000000	0.833664	0	0	0	1	OmissionError	0.985037	0.711399	1	1
140.742050	0.792175	city	5	1	0.794338	0.794338	0	1	0	0	CorrectCommission	0.402346	0.704579	1	1
141.534271	0.792268	city	7	1	0.806413	0.806413	0	1	0	0	CorrectCommission	0.581265	0.697345	1	1
142.326538	0.792264	city	6	1	0.845752	0.845752	0	1	0	0	CorrectCommission	1.164150	0.690641	1	1
143.118805	0.792267	city	10	1	0.745369	0.745369	0	1	0	0	CorrectCommission	0.323221	0.685410	1	1
143.911072	0.792290	city	8	1	0.709781	0.709781	0	1	0	0	CorrectCommission	0.850536	0.682472	1	1
144.703369	0.792303	city	7	1	0.747196	0.747196	0	1	0	0	CorrectCommission	0.296159	0.682291	1	1
145.495621	0.792202	city	2	1	0.762981	0.762981	0	1	0	0	CorrectCommission	0.062275	0.684919	1	1
146.287964	0.792479	city	3	1	0.794340	0.794340	0	1	0	0	CorrectCommission	0.402382	0.689979	1	1
147.080231	0.792046	mountain	3	0	0.000000	0.832641	1	0	0	0	CorrectOmission	0.969881	0.696734	1	1
147.872498	0.792483	city	8	1	0.843985	0.843985	0	1	0	0	CorrectCommission	1.137968	0.704230	1	1
148.664764	0.792045	city	5	1	0.794476	0.794476	0	1	0	0	CorrectCommission	0.404390	0.711480	1	1
149.457031	0.792483	city	9	1	0.898022	0.898022	0	1	0	0	CorrectCommission	1.938630	0.717634	1	1
150.249298	0.792053	city	3	1	0.713366	0.713366	0	1	0	0	CorrectCommission	0.797420	0.721995	1	1
151.041443	0.792260	city	9	1	0.747020	0.747020	0	1	0	0	CorrectCommission	0.298761	0.724172	1	1
151.833771	0.792372	city	3	1	0.761958	0.761958	0	1	0	0	CorrectCommission	0.077435	0.724000	1	1
152.626038	0.792162	city	6	1	0.744685	0.744685	0	1	0	0	CorrectCommission	0.333367	0.721498	1	1
153.418304	0.792370	city	8	1	0.695304	0.695304	0	1	0	0	CorrectCommission	1.065043	0.716819	1	1
154.210663	0.792373	city	1	1	0.664718	0.664718	0	1	0	0	CorrectCommission	1.518238	0.710170	1	1
155.002884	0.792047	city	8	1	0.745290	0.745290	0	1	0	0	CorrectCommission	0.324405	0.701836	1	1
155.795044	0.792299	city	5	1	0.843892	0.843892	0	1	0	0	CorrectCommission	1.136597	0.692188	1	1
156.587311	0.792234	mountain	2	0	0.000000	0.814916	1	0	0	0	CorrectOmission	0.707248	0.681572	1	1
157.379608	0.792334	city	2	1	0.751020	0.751020	0	1	0	0	CorrectCommission	0.239503	0.670370	1	1
158.171890	0.792230	city	1	1	0.744864	0.744864	0	1	0	0	CorrectCommission	0.330708	0.658978	1	1
158.964127	0.792261	city	2	1	0.843761	0.843761	0	1	0	0	CorrectCommission	1.134645	0.647749	1	1
159.756378	0.792232	city	3	1	0.802047	0.802047	0	1	0	0	CorrectCommission	0.516579	0.636985	1	1
160.548737	0.792483	city	10	1	0.748556	0.748556	0	1	0	0	CorrectCommission	0.276013	0.627006	1	1
161.341110	0.792264	city	9	1	0.843775	0.843775	0	1	0	0	CorrectCommission	1.134857	0.618098	1	1
162.133377	0.792264	city	3	1	0.751071	0.751071	0	1	0	0	CorrectCommission	0.238740	0.610536	1	1
162.925537	0.792058	city	4	1	0.744541	0.744541	0	1	0	0	CorrectCommission	0.335495	0.604635	1	1
163.717789	0.792472	city	5	1	0.695283	0.695283	0	1	0	0	CorrectCommission	1.065356	0.600673	1	1
164.510056	0.792051	city	4	1	0.702563	0.702563	0	1	0	0	CorrectCommission	0.957486	0.598846	1	1
165.302216	0.792261	city	7	1	0.794330	0.794330	0	1	0	0	CorrectCommission	0.402228	0.599210	1	1
166.094589	0.792482	city	1	1	0.750207	0.750207	0	1	0	0	CorrectCommission	0.251537	0.601619	1	1
166.886963	0.792264	city	10	1	0.797262	0.797262	0	1	0	0	CorrectCommission	0.445673	0.605582	1	1
167.679214	0.792265	city	5	1	0.744577	0.744577	0	1	0	0	CorrectCommission	0.334966	0.610286	1	1
168.471420	0.792126	city	3	1	0.744661	0.744661	0	1	0	0	CorrectCommission	0.333715	0.614625	1	1
169.263611	0.792266	city	7	1	0.695207	0.695207	0	1	0	0	CorrectCommission	1.066484	0.617298	1	1
170.055893	0.792294	city	9	1	0.748343	0.748343	0	1	0	0	CorrectCommission	0.279166	0.616987	1	1
170.848175	0.792264	city	1	1	0.695307	0.695307	0	1	0	0	CorrectCommission	1.064994	0.612654	1	1
171.640442	0.792265	city	3	1	0.843737	0.843737	0	1	0	0	CorrectCommission	1.134294	0.603616	1	1
172.432648	0.792155	city	10	1	0.706959	0.706959	0	1	0	0	CorrectCommission	0.892344	0.589843	1	1
173.224915	0.792373	city	2	1	0.695267	0.695267	0	1	0	0	CorrectCommission	1.065588	0.571991	1	1
174.017181	0.792158	city	3	1	0.745219	0.745219	0	1	0	0	CorrectCommission	0.325455	0.551355	1	1
174.809448	0.792373	city	2	1	0.744781	0.744781	0	1	0	0	CorrectCommission	0.331936	0.529761	1	1
175.601761	0.792265	city	6	1	0.744726	0.744726	0	1	0	0	CorrectCommission	0.332761	0.509297	1	1
176.393967	0.792156	mountain	5	0	0.000000	0.751208	1	0	0	0	CorrectOmission	0.236712	0.492029	1	1
177.186234	0.792373	mountain	1	0	0.000000	0.757789	1	0	0	0	CorrectOmission	0.139207	0.479752	1	1
177.978500	0.792156	mountain	7	0	0.000000	0.758028	1	0	0	0	CorrectOmission	0.135666	0.473764	1	1
178.770737	0.792327	city	8	1	0.745485	0.745485	0	1	0	0	CorrectCommission	0.321507	0.474703	1	1
179.563004	0.792203	city	6	1	0.713722	0.713722	0	1	0	0	CorrectCommission	0.792148	0.482515	1	1
180.355347	0.792480	city	3	1	0.744985	0.744985	0	1	0	0	CorrectCommission	0.328914	0.496457	1	1
181.147614	0.792047	city	8	1	0.711437	0.711437	0	1	0	0	CorrectCommission	0.825995	0.515206	1	1
181.939926	0.792566	city	6	1	0.751383	0.751383	0	1	0	0	CorrectCommission	0.234113	0.537014	1	1
182.732178	0.791964	city	7	1	0.744384	0.744384	0	1	0	0	CorrectCommission	0.337815	0.559943	1	1
183.524292	0.792265	city	4	1	0.751881	0.751881	0	1	0	0	CorrectCommission	0.226746	0.582086	1	1
184.316559	0.792265	city	9	1	0.760294	0.760294	0	1	0	0	CorrectCommission	0.102086	0.601811	1	1
185.108826	0.792264	city	2	1	0.711903	0.711903	0	1	0	0	CorrectCommission	0.819090	0.618016	1	1
185.901093	0.792270	city	6	1	0.992378	0.992378	0	1	0	0	CorrectCommission	3.336717	0.630300	1	1
186.693359	0.792259	city	4	1	0.794285	0.794285	0	1	0	0	CorrectCommission	0.401569	0.638999	1	0
187.485626	0.792268	mountain	7	0	0.000000	0.771018	1	0	0	0	CorrectOmission	0.056815	0.645301	1	0
188.277939	0.792370	city	6	1	0.798471	0.798471	0	1	0	0	CorrectCommission	0.463590	0.650890	1	0
189.070206	0.792160	city	5	1	0.752540	0.752540	0	1	0	0	CorrectCommission	0.216973	0.657748	1	0
189.862534	0.792480	city	10	1	0.794285	0.794285	0	1	0	0	CorrectCommission	0.401566	0.667850	1	0
190.654892	0.792265	mountain	8	0	0.000000	0.813285	1	0	0	0	CorrectOmission	0.683086	0.682806	1	0
191.447159	0.792265	city	10	1	0.799923	0.799923	0	1	0	0	CorrectCommission	0.485093	0.703631	1	0
192.239380	0.792156	city	5	1	0.744581	0.744581	0	1	0	0	CorrectCommission	0.334908	0.730589	0	0
193.031540	0.792190	city	1	1	0.794280	0.794280	0	1	0	0	CorrectCommission	0.401493	0.763122	0	0
193.823792	0.792295	city	6	1	0.700462	0.700462	0	1	0	0	CorrectCommission	0.988617	0.799910	0	0
194.616043	0.792203	city	7	1	0.660729	0.660729	0	1	0	0	CorrectCommission	1.577337	0.839002	0	0
195.408295	0.792316	mountain	6	0	0.000000	0.702391	1	0	0	0	CorrectOmission	0.960034	0.878001	0	0
196.200562	0.792211	city	10	1	0.744727	0.744727	0	1	0	0	CorrectCommission	0.332746	0.914291	0	0
196.992798	0.792265	city	2	1	0.707015	0.707015	0	1	0	0	CorrectCommission	0.891513	0.945252	0	0
197.785080	0.792295	city	6	1	0.697678	0.697678	0	1	0	0	CorrectCommission	1.029866	0.968521	0	0
198.577347	0.792239	city	9	1	0.657192	0.657192	0	1	0	0	CorrectCommission	1.629755	0.982229	0	0
199.369598	0.792265	city	6	1	0.843851	0.843851	0	1	0	0	CorrectCommission	1.135978	0.985237	0	0
200.161865	0.792270	city	4	1	0.705501	0.705501	0	1	0	0	CorrectCommission	0.913957	0.977350	0	0
200.954132	0.792262	city	8	1	0.645857	0.645857	0	1	0	0	CorrectCommission	1.797703	0.959418	0	0
201.746506	0.792475	city	5	1	0.646490	0.646490	0	1	0	0	CorrectCommission	1.788321	0.933367	0	0
202.538818	0.792157	city	3	1	0.695089	0.695089	0	1	0	0	CorrectCommission	1.068233	0.902152	0	0
203.331085	0.792372	city	1	1	0.762507	0.762507	0	1	0	0	CorrectCommission	0.069287	0.869510	0	0
204.123322	0.792110	mountain	8	0	0.000000	0.804172	1	0	0	0	CorrectOmission	0.548059	0.839727	0	0
204.915497	0.792246	city	3	1	0.816094	0.816094	0	1	0	0	CorrectCommission	0.724712	0.817190	0	0
205.707733	0.792219	city	7	1	0.794286	0.794286	0	1	0	0	CorrectCommission	0.401580	0.805990	0	0
206.499985	0.792275	city	10	1	0.744908	0.744908	0	1	0	0	CorrectCommission	0.330052	0.809508	0	0
207.292252	0.792257	city	3	1	0.711351	0.711351	0	1	0	0	CorrectCommission	0.827280	0.830052	0	0
208.084503	0.792272	city	10	1	0.746795	0.746795	0	1	0	0	CorrectCommission	0.302094	0.868567	0	0
208.876831	0.792365	city	6	1	0.744805	0.744805	0	1	0	0	CorrectCommission	0.331580	0.924464	0	0
209.669098	0.792178	city	1	1	0.702055	0.702055	0	1	0	0	CorrectCommission	0.965013	0.995574	0	0
210.461304	0.792241	city	2	1	0.695233	0.695233	0	1	0	0	CorrectCommission	1.066094	1.078255	0	0
211.253555	0.792265	city	5	1	0.744789	0.744789	0	1	0	0	CorrectCommission	0.331819	1.167682	0	0
212.045822	0.792266	city	3	1	0.800962	0.800962	0	1	0	0	CorrectCommission	0.500492	1.258295	0	0
212.838089	0.792263	city	8	1	0.646169	0.646169	0	1	0	0	CorrectCommission	1.793079	1.344274	0	0
213.630356	0.792265	city	1	1	0.613327	0.613327	0	1	0	0	CorrectCommission	2.279693	1.420161	0	0
214.422623	0.792269	city	5	1	0.596376	0.596376	0	1	0	0	CorrectCommission	2.530863	1.481445	0	0
215.214890	0.792263	city	8	1	0.596240	0.596240	0	1	0	0	CorrectCommission	2.532882	1.524975	0	0
216.007156	0.792264	city	3	1	0.612524	0.612524	0	1	0	0	CorrectCommission	2.291593	1.549206	0	0
216.799423	0.792267	city	8	1	0.618557	0.618557	0	1	0	0	CorrectCommission	2.202202	1.554200	0	0
217.591736	0.792370	city	6	1	0.658211	0.658211	0	1	0	0	CorrectCommission	1.614657	1.541385	0	0
218.384003	0.792157	city	9	1	0.695492	0.695492	0	1	0	0	CorrectCommission	1.062260	1.513128	0	0
219.176239	0.792312	mountain	8	0	0.000000	0.806687	1	0	0	0	CorrectOmission	0.585316	1.472282	0	0
219.968506	0.792219	city	4	1	0.843773	0.843773	0	1	0	0	CorrectCommission	1.134823	1.421698	0	0
220.760742	0.792262	city	7	1	0.658728	0.658728	0	1	0	0	CorrectCommission	1.606989	1.363910	0	0
221.553055	0.792373	city	6	1	0.695287	0.695287	0	1	0	0	CorrectCommission	1.065288	1.300951	0	0
222.345383	0.792265	city	10	1	0.645647	0.645647	0	1	0	0	CorrectCommission	1.800809	1.234381	0	0
223.137604	0.792177	city	1	1	0.600787	0.600787	0	1	0	0	CorrectCommission	2.465500	1.165352	0	0
223.929840	0.792319	city	7	1	0.700749	0.700749	0	1	0	0	CorrectCommission	0.984366	1.094792	0	0
224.722122	0.792229	city	3	1	0.745247	0.745247	0	1	0	0	CorrectCommission	0.325043	1.023596	0	0
225.514359	0.792255	city	6	1	0.744815	0.744815	0	1	0	0	CorrectCommission	0.331437	0.952704	0	0
226.306610	0.792234	city	9	1	0.807957	0.807957	0	1	0	0	CorrectCommission	0.604144	0.883157	0	0
227.098907	0.792375	city	6	1	0.905034	0.905034	0	1	0	0	CorrectCommission	2.042536	0.816083	0	0
227.891174	0.792158	city	9	1	0.744672	0.744672	0	1	0	0	CorrectCommission	0.333552	0.752626	0	0
228.683441	0.792372	city	5	1	0.745794	0.745794	0	1	0	0	CorrectCommission	0.316929	0.693975	1	0
229.475708	0.792158	city	1	1	0.704926	0.704926	0	1	0	0	CorrectCommission	0.922480	0.641179	1	0
230.267914	0.792267	city	2	1	0.744836	0.744836	0	1	0	0	CorrectCommission	0.331129	0.595051	1	0
231.060211	0.792314	mountain	6	0	0.000000	0.756396	1	0	0	0	CorrectOmission	0.159833	0.556163	1	0
231.852585	0.792428	city	7	1	0.752244	0.752244	0	1	0	0	CorrectCommission	0.221364	0.524772	1	0
232.644821	0.792050	city	2	1	0.745014	0.745014	0	1	0	0	CorrectCommission	0.328491	0.500833	1	0
233.436981	0.792262	city	7	1	0.767176	0.767176	0	1	0	0	CorrectCommission	0.000107	0.484031	1	0
234.229248	0.792266	city	4	1	0.863446	0.863446	0	1	0	0	CorrectCommission	1.426327	0.473841	1	0
235.021622	0.792480	city	7	1	0.794410	0.794410	0	1	0	0	CorrectCommission	0.403407	0.469548	1	0
235.813873	0.792048	city	4	1	0.794114	0.794114	0	1	0	0	CorrectCommission	0.399026	0.470384	1	0
236.606049	0.792294	city	10	1	0.750236	0.750236	0	1	0	0	CorrectCommission	0.251113	0.475446	1	0
237.398331	0.792269	city	9	1	0.744744	0.744744	0	1	0	0	CorrectCommission	0.332488	0.483736	1	0
238.190582	0.792232	city	7	1	0.744778	0.744778	0	1	0	0	CorrectCommission	0.331992	0.494142	1	0
238.982834	0.792266	city	4	1	0.756430	0.756430	0	1	0	0	CorrectCommission	0.159333	0.505509	1	0
239.775101	0.792264	city	5	1	0.744898	0.744898	0	1	0	0	CorrectCommission	0.330204	0.516675	1	0
240.567413	0.792372	city	2	1	0.707899	0.707899	0	1	0	0	CorrectCommission	0.878425	0.526549	1	0
241.359726	0.792263	mountain	8	0	0.000000	0.689458	1	0	0	0	CorrectOmission	1.151656	0.534311	1	0
242.151947	0.792156	city	10	1	0.700178	0.700178	0	1	0	0	CorrectCommission	0.992823	0.539481	1	0
242.944168	0.792292	city	3	1	0.750659	0.750659	0	1	0	0	CorrectCommission	0.244849	0.542024	1	0
243.736435	0.792236	city	4	1	0.794259	0.794259	0	1	0	0	CorrectCommission	0.401184	0.542391	1	0
244.528687	0.792264	city	6	1	0.707072	0.707072	0	1	0	0	CorrectCommission	0.890681	0.541401	1	0
245.320953	0.792269	city	9	1	0.794951	0.794951	0	1	0	0	CorrectCommission	0.411437	0.540220	1	0
246.113220	0.792265	city	3	1	0.750136	0.750136	0	1	0	0	CorrectCommission	0.252593	0.540171	1	1
246.905472	0.792263	city	9	1	0.794280	0.794280	0	1	0	0	CorrectCommission	0.401495	0.542552	1	1
247.697739	0.792264	city	4	1	0.810950	0.810950	0	1	0	0	CorrectCommission	0.648481	0.548484	1	1
248.490005	0.792264	city	7	1	0.794338	0.794338	0	1	0	0	CorrectCommission	0.402342	0.558808	1	1
249.282272	0.792268	mountain	6	0	0.000000	0.749676	1	0	0	0	CorrectOmission	0.259413	0.573983	1	1
250.074539	0.792266	city	1	1	0.744806	0.744806	0	1	0	0	CorrectCommission	0.331574	0.594046	1	1
250.866806	0.792261	city	9	1	0.847569	0.847569	0	1	0	0	CorrectCommission	1.191068	0.618630	1	1
251.659180	0.792482	city	5	1	0.744804	0.744804	0	1	0	0	CorrectCommission	0.331599	0.646971	1	1
252.451492	0.792155	city	4	1	0.794075	0.794075	0	1	0	0	CorrectCommission	0.398443	0.678033	1	1
253.243759	0.792374	city	2	1	0.794116	0.794116	0	1	0	0	CorrectCommission	0.399062	0.710536	1	1
254.035965	0.792048	city	8	1	0.854631	0.854631	0	1	0	0	CorrectCommission	1.295715	0.743072	0	1
254.828125	0.792264	city	2	1	0.844003	0.844003	0	1	0	0	CorrectCommission	1.138234	0.774137	0	1
255.620422	0.792321	city	6	1	0.744811	0.744811	0	1	0	0	CorrectCommission	0.331496	0.802254	0	1
256.412720	0.792318	city	7	1	0.650407	0.650407	0	1	0	0	CorrectCommission	1.730280	0.826038	0	1
257.205017	0.792266	city	4	1	0.794203	0.794203	0	1	0	0	CorrectCommission	0.400349	0.844191	0	1
257.997223	0.792155	mountain	1	0	0.000000	0.746771	1	0	0	0	CorrectOmission	0.302447	0.855682	0	1
258.789490	0.792373	city	5	1	0.695818	0.695818	0	1	0	0	CorrectCommission	1.057423	0.859742	0	1
259.581787	0.792209	mountain	5	0	0.000000	0.829050	1	0	0	0	CorrectOmission	0.916669	0.855974	0	1
260.373993	0.792216	city	4	1	0.908309	0.908309	0	1	0	0	CorrectCommission	2.091062	0.844466	0	1
261.166260	0.792304	city	9	1	0.695441	0.695441	0	1	0	0	CorrectCommission	1.063009	0.825764	0	1
261.958527	0.792220	city	5	1	0.699805	0.699805	0	1	0	0	CorrectCommission	0.998352	0.800916	0	1
262.750885	0.792483	city	2	1	0.757002	0.757002	0	1	0	0	CorrectCommission	0.150859	0.771332	0	1
263.543182	0.792155	city	9	1	0.845007	0.845007	0	1	0	0	CorrectCommission	1.153107	0.738655	0	1
264.335358	0.792159	city	7	1	0.794218	0.794218	0	1	0	0	CorrectCommission	0.400574	0.704536	1	1
265.127625	0.792372	city	9	1	0.751306	0.751306	0	1	0	0	CorrectCommission	0.235263	0.670489	1	1
265.919952	0.792264	city	7	1	0.751223	0.751223	0	1	0	0	CorrectCommission	0.236495	0.637724	1	1
266.712158	0.792160	city	5	1	0.695129	0.695129	0	1	0	0	CorrectCommission	1.067634	0.607082	1	1
267.504364	0.792265	city	1	1	0.744849	0.744849	0	1	0	0	CorrectCommission	0.330935	0.579019	1	1
268.296631	0.792261	city	5	1	0.798704	0.798704	0	1	0	0	CorrectCommission	0.467036	0.553712	1	1
269.088928	0.792373	city	4	1	0.843821	0.843821	0	1	0	0	CorrectCommission	1.135535	0.531113	1	1
269.881195	0.792157	city	8	1	0.744762	0.744762	0	1	0	0	CorrectCommission	0.332215	0.511059	1	1
270.673462	0.792371	city	7	1	0.744931	0.744931	0	1	0	0	CorrectCommission	0.329718	0.493410	1	1
271.465729	0.792155	city	6	1	0.794579	0.794579	0	1	0	0	CorrectCommission	0.405925	0.478040	1	1
272.258057	0.792484	city	7	1	0.794436	0.794436	0	1	0	0	CorrectCommission	0.403796	0.464877	1	1
273.050323	0.792047	city	4	1	0.801317	0.801317	0	1	0	0	CorrectCommission	0.505754	0.453933	1	1
273.842529	0.792347	city	5	1	0.745936	0.745936	0	1	0	0	CorrectCommission	0.314822	0.445233	1	1
274.634766	0.792183	mountain	5	0	0.000000	0.736176	1	0	0	0	CorrectOmission	0.459443	0.438831	1	1
275.427124	0.792483	city	7	1	0.744802	0.744802	0	1	0	0	CorrectCommission	0.331626	0.434778	1	1
276.219391	0.792075	city	2	1	0.744582	0.744582	0	1	0	0	CorrectCommission	0.334887	0.433110	1	1
277.011536	0.792240	city	8	1	0.794296	0.794296	0	1	0	0	CorrectCommission	0.401727	0.433878	1	1
277.803802	0.792262	city	7	1	0.794325	0.794325	0	1	0	0	CorrectCommission	0.402157	0.437118	1	1
278.596069	0.792264	city	1	1	0.794298	0.794298	0	1	0	0	CorrectCommission	0.401754	0.442908	1	1
279.388336	0.792267	city	4	1	0.843944	0.843944	0	1	0	0	CorrectCommission	1.137365	0.451328	1	1
280.180603	0.792262	city	5	1	0.751966	0.751966	0	1	0	0	CorrectCommission	0.225481	0.462443	1	1
280.972900	0.792320	city	9	1	0.767412	0.767412	0	1	0	0	CorrectCommission	0.003382	0.476248	1	1
281.765167	0.792273	city	4	1	0.753186	0.753186	0	1	0	0	CorrectCommission	0.207408	0.492594	1	1
282.557404	0.792201	city	6	1	0.744779	0.744779	0	1	0	0	CorrectCommission	0.331977	0.511148	1	1
283.349762	0.792482	city	8	1	0.700597	0.700597	0	1	0	0	CorrectCommission	0.986619	0.531363	1	1
284.142029	0.792048	city	6	1	0.794073	0.794073	0	1	0	0	CorrectCommission	0.398420	0.552464	1	1
284.934235	0.792373	city	7	1	0.744801	0.744801	0	1	0	0	CorrectCommission	0.331644	0.573554	1	1
285.726624	0.792375	city	2	1	0.702605	0.702605	0	1	0	0	CorrectCommission	0.956867	0.593637	1	1
286.518890	0.792156	city	8	1	0.701578	0.701578	0	1	0	0	CorrectCommission	0.972077	0.611706	1	1
287.311127	0.792373	city	2	1	0.749407	0.749407	0	1	0	0	CorrectCommission	0.263391	0.626877	1	1
288.103363	0.792045	mountain	4	0	0.000000	0.803961	1	0	0	0	CorrectOmission	0.544936	0.638450	1	1
288.895599	0.792484	mountain	9	0	0.000000	0.835117	1	0	0	0	CorrectOmission	1.006563	0.645957	1	1
289.687927	0.792155	city	2	1	0.812750	0.812750	0	1	0	0	CorrectCommission	0.675152	0.649181	1	1
290.480103	0.792159	city	1	1	0.706737	0.706737	0	1	0	0	CorrectCommission	0.895636	0.648191	1	1
291.272308	0.792260	city	8	1	0.713600	0.713600	0	1	0	0	CorrectCommission	0.793945	0.643280	1	1
292.064575	0.792308	city	2	1	0.701705	0.701705	0	1	0	0	CorrectCommission	0.970204	0.634919	1	1
292.856842	0.792226	city	4	1	0.754012	0.754012	0	1	0	0	CorrectCommission	0.195168	0.623677	1	1
293.649109	0.792262	city	1	1	0.744775	0.744775	0	1	0	0	CorrectCommission	0.332025	0.610172	1	1
294.441345	0.792263	city	7	1	0.744805	0.744805	0	1	0	0	CorrectCommission	0.331591	0.594995	1	1
295.233643	0.792330	city	9	1	0.699514	0.699514	0	1	0	0	CorrectCommission	1.002664	0.578679	1	1
296.025940	0.792254	city	6	1	0.713694	0.713694	0	1	0	0	CorrectCommission	0.792560	0.561706	1	1
296.818237	0.792321	city	9	1	0.748724	0.748724	0	1	0	0	CorrectCommission	0.273521	0.544539	1	1
297.610474	0.792158	city	5	1	0.713365	0.713365	0	1	0	0	CorrectCommission	0.797430	0.527666	1	1
298.402679	0.792264	city	3	1	0.809289	0.809289	0	1	0	0	CorrectCommission	0.623872	0.511563	1	1
299.195068	0.792478	city	7	1	0.794187	0.794187	0	1	0	0	CorrectCommission	0.400106	0.496764	1	1
299.987335	0.792052	city	8	1	0.794231	0.794231	0	1	0	0	CorrectCommission	0.400767	0.483801	1	1
300.779541	0.792370	mountain	9	0	0.000000	0.760414	1	0	0	0	CorrectOmission	0.100307	0.473180	1	1
301.571808	0.792155	city	2	1	0.745691	0.745691	0	1	0	0	CorrectCommission	0.318458	0.465377	1	1
302.364014	0.792266	city	9	1	0.803019	0.803019	0	1	0	0	CorrectCommission	0.530971	0.460811	1	1
303.156372	0.792482	city	7	1	0.747116	0.747116	0	1	0	0	CorrectCommission	0.297349	0.459828	1	1
303.948639	0.792051	city	2	1	0.696107	0.696107	0	1	0	0	CorrectCommission	1.053150	0.462711	1	1
304.740814	0.792264	city	7	1	0.760736	0.760736	0	1	0	0	CorrectCommission	0.095538	0.469646	1	1
305.533112	0.792371	mountain	9	1	0.797721	0.797721	0	0	1	0	CommissionError	0.452467	0.480725	1	0
306.325378	0.792155	city	10	1	0.794217	0.794217	0	1	0	0	CorrectCommission	0.400559	0.495830	1	0
307.117584	0.792266	city	2	1	0.744942	0.744942	0	1	0	0	CorrectCommission	0.329559	0.514630	1	0
307.909973	0.792481	city	4	1	0.794278	0.794278	0	1	0	0	CorrectCommission	0.401453	0.536484	1	0
308.702271	0.792155	city	7	1	0.744583	0.744583	0	1	0	0	CorrectCommission	0.334881	0.560401	1	0
309.494507	0.792267	city	4	1	0.843881	0.843881	0	1	0	0	CorrectCommission	1.136425	0.585060	1	0
310.286713	0.792163	city	8	1	0.751796	0.751796	0	1	0	0	CorrectCommission	0.228003	0.608854	1	0
311.079041	0.792477	city	7	1	0.744788	0.744788	0	1	0	0	CorrectCommission	0.331840	0.630059	1	0
311.871338	0.792155	city	8	1	0.709302	0.709302	0	1	0	0	CorrectCommission	0.857630	0.646976	1	0
312.663513	0.792157	city	9	1	0.695174	0.695174	0	1	0	0	CorrectCommission	1.066969	0.658145	1	0
313.455719	0.792280	city	7	1	0.744911	0.744911	0	1	0	0	CorrectCommission	0.330012	0.662604	1	0
314.248077	0.792464	city	8	1	0.650401	0.650401	0	1	0	0	CorrectCommission	1.730377	0.660092	1	0
315.040466	0.792265	city	3	1	0.695216	0.695216	0	1	0	0	CorrectCommission	1.066344	0.651081	1	0
315.832611	0.792049	city	9	1	0.707657	0.707657	0	1	0	0	CorrectCommission	0.882011	0.636871	1	0
316.624878	0.792482	city	10	1	0.754043	0.754043	0	1	0	0	CorrectCommission	0.194703	0.619448	1	0
317.417145	0.792049	city	2	1	0.809746	0.809746	0	1	0	0	CorrectCommission	0.630650	0.601286	1	0
318.209290	0.792262	city	1	1	0.795075	0.795075	0	1	0	0	CorrectCommission	0.413265	0.585047	1	0
319.001587	0.792287	city	2	1	0.746649	0.746649	0	1	0	0	CorrectCommission	0.304264	0.573294	1	0
319.793854	0.792243	city	4	1	0.761446	0.761446	0	1	0	0	CorrectCommission	0.085010	0.568182	1	0
320.586212	0.792483	mountain	5	0	0.000000	0.764239	1	0	0	0	CorrectOmission	0.043628	0.571270	1	0
321.378479	0.792048	city	3	1	0.745391	0.745391	0	1	0	0	CorrectCommission	0.322897	0.583335	1	0
322.170624	0.792264	city	10	1	0.695267	0.695267	0	1	0	0	CorrectCommission	1.065595	0.604377	1	0
322.962891	0.792263	city	3	1	0.704447	0.704447	0	1	0	0	CorrectCommission	0.929577	0.633611	1	0
323.755157	0.792264	city	9	1	0.744890	0.744890	0	1	0	0	CorrectCommission	0.330323	0.669601	1	0
324.547424	0.792311	city	4	1	0.809430	0.809430	0	1	0	0	CorrectCommission	0.625962	0.710387	1	0
325.339691	0.792223	city	7	1	0.794252	0.794252	0	1	0	0	CorrectCommission	0.401069	0.753620	0	0
326.131989	0.792349	city	6	1	0.744961	0.744961	0	1	0	0	CorrectCommission	0.329267	0.796787	0	0
326.924255	0.792182	city	3	1	0.697485	0.697485	0	1	0	0	CorrectCommission	1.032723	0.837376	0	0
327.716522	0.792368	city	9	1	0.712248	0.712248	0	1	0	0	CorrectCommission	0.813978	0.873115	0	0
328.508789	0.792160	city	8	1	0.645692	0.645692	0	1	0	0	CorrectCommission	1.800140	0.902149	0	0
329.301025	0.792325	city	5	1	0.646526	0.646526	0	1	0	0	CorrectCommission	1.787791	0.923147	0	0
330.093292	0.792205	city	4	1	0.655376	0.655376	0	1	0	0	CorrectCommission	1.656661	0.935436	0	0
330.885529	0.792258	city	3	1	0.804540	0.804540	0	1	0	0	CorrectCommission	0.553504	0.938963	0	0
331.677795	0.792264	city	7	1	0.798755	0.798755	0	1	0	0	CorrectCommission	0.467792	0.934211	0	0
332.470093	0.792341	mountain	5	0	0.000000	0.746086	1	0	0	0	CorrectOmission	0.312601	0.922070	0	0
333.262421	0.792299	city	10	1	0.695353	0.695353	0	1	0	0	CorrectCommission	1.064322	0.903718	0	0
334.054688	0.792265	city	2	1	0.695373	0.695373	0	1	0	0	CorrectCommission	1.064017	0.880518	0	0
334.846924	0.792158	city	9	1	0.709223	0.709223	0	1	0	0	CorrectCommission	0.858810	0.853943	0	0
335.639130	0.792282	city	10	1	0.660831	0.660831	0	1	0	0	CorrectCommission	1.575836	0.825552	0	0
336.431396	0.792247	city	6	1	0.695281	0.695281	0	1	0	0	CorrectCommission	1.065384	0.796892	0	0
337.223663	0.792263	city	3	1	0.695344	0.695344	0	1	0	0	CorrectCommission	1.064446	0.769455	0	0
338.015930	0.792288	city	4	1	0.745040	0.745040	0	1	0	0	CorrectCommission	0.328106	0.744537	0	0
338.808197	0.792242	city	9	1	0.761697	0.761697	0	1	0	0	CorrectCommission	0.081292	0.723103	1	0
339.600464	0.792288	city	4	1	0.763413	0.763413	0	1	0	0	CorrectCommission	0.055873	0.705656	1	0
340.392731	0.792239	mountain	5	0	0.000000	0.754697	1	0	0	0	CorrectOmission	0.185015	0.692195	1	0
341.184967	0.792267	mountain	4	0	0.000000	0.733530	1	0	0	0	CorrectOmission	0.498652	0.682256	1	0
341.977234	0.792262	city	1	1	0.697891	0.697891	0	1	0	0	CorrectCommission	1.026712	0.675021	1	0
342.769501	0.792268	city	5	1	0.645761	0.645761	0	1	0	0	CorrectCommission	1.799128	0.669509	1	0
343.561798	0.792342	city	8	1	0.712233	0.712233	0	1	0	0	CorrectCommission	0.814209	0.664753	1	0
344.354065	0.792184	city	9	1	0.744991	0.744991	0	1	0	0	CorrectCommission	0.328828	0.659975	1	0
345.146301	0.792266	city	5	1	0.695250	0.695250	0	1	0	0	CorrectCommission	1.065836	0.654643	1	0
345.938629	0.792374	city	10	1	0.744767	0.744767	0	1	0	0	CorrectCommission	0.332140	0.648425	1	0
346.730896	0.792154	mountain	2	0	0.000000	0.786087	1	0	0	0	CorrectOmission	0.280089	0.641164	1	0
347.523193	0.792483	city	9	1	0.794311	0.794311	0	1	0	0	CorrectCommission	0.401953	0.632774	1	0
348.315460	0.792049	mountain	10	1	0.744544	0.744544	0	0	1	0	CommissionError	0.335449	0.623197	1	0
349.107635	0.792266	city	4	1	0.843984	0.843984	0	1	0	0	CorrectCommission	1.137950	0.612375	1	0
349.899902	0.792263	city	10	1	0.795602	0.795602	0	1	0	0	CorrectCommission	0.421082	0.600280	1	0
350.692139	0.792262	city	2	1	0.695366	0.695366	0	1	0	0	CorrectCommission	1.064123	0.587016	1	0
351.484406	0.792269	city	7	1	0.711426	0.711426	0	1	0	0	CorrectCommission	0.826160	0.572848	1	0
352.276703	0.792329	city	9	1	0.744863	0.744863	0	1	0	0	CorrectCommission	0.330724	0.558285	1	0
353.068970	0.792201	city	8	1	0.704485	0.704485	0	1	0	0	CorrectCommission	0.929012	0.544065	1	0
353.861206	0.792264	city	3	1	0.758832	0.758832	0	1	0	0	CorrectCommission	0.123749	0.531032	1	0
354.653595	0.792480	city	6	1	0.801268	0.801268	0	1	0	0	CorrectCommission	0.505023	0.520091	1	0
355.445862	0.792047	city	9	1	0.794084	0.794084	0	1	0	0	CorrectCommission	0.398577	0.511998	1	0
356.238129	0.792484	city	2	1	0.794297	0.794297	0	1	0	0	CorrectCommission	0.401736	0.507260	1	0
357.030365	0.792045	city	9	1	0.756102	0.756102	0	1	0	0	CorrectCommission	0.164195	0.506029	1	0
357.822540	0.792291	city	3	1	0.744803	0.744803	0	1	0	0	CorrectCommission	0.331610	0.508071	1	0
358.614929	0.792456	city	7	1	0.758791	0.758791	0	1	0	0	CorrectCommission	0.124358	0.512839	1	0
359.407166	0.792048	mountain	9	1	0.794097	0.794097	0	0	1	0	CommissionError	0.398772	0.519566	1	0
360.199341	0.792263	city	3	1	0.695273	0.695273	0	1	0	0	CorrectCommission	1.065499	0.527424	1	0
360.991638	0.792375	city	2	1	0.653107	0.653107	0	1	0	0	CorrectCommission	1.690273	0.535709	1	0
361.783936	0.792193	city	7	1	0.751045	0.751045	0	1	0	0	CorrectCommission	0.239122	0.543962	1	0
362.576141	0.792226	city	3	1	0.794327	0.794327	0	1	0	0	CorrectCommission	0.402183	0.552048	1	0
363.368378	0.792265	city	4	1	0.794323	0.794323	0	1	0	0	CorrectCommission	0.402125	0.560104	1	0
364.160675	0.792303	city	1	1	0.751010	0.751010	0	1	0	0	CorrectCommission	0.239646	0.568514	1	0
364.952942	0.792231	mountain	3	0	0.000000	0.745981	1	0	0	0	CorrectOmission	0.314154	0.577811	1	1
365.745178	0.792263	city	10	1	0.744782	0.744782	0	1	0	0	CorrectCommission	0.331928	0.588603	1	1
366.537506	0.792373	city	1	1	0.712956	0.712956	0	1	0	0	CorrectCommission	0.803497	0.601490	1	1
367.329834	0.792265	city	7	1	0.801113	0.801113	0	1	0	0	CorrectCommission	0.502735	0.617040	1	1
368.122040	0.792153	city	3	1	0.893266	0.893266	0	1	0	0	CorrectCommission	1.868171	0.635764	1	1
368.914307	0.792375	city	10	1	0.744773	0.744773	0	1	0	0	CorrectCommission	0.332055	0.658042	1	1
369.706604	0.792229	city	6	1	0.808252	0.808252	0	1	0	0	CorrectCommission	0.608505	0.684147	1	1
370.498810	0.792196	city	7	1	0.760972	0.760972	0	1	0	0	CorrectCommission	0.092035	0.714037	1	1
371.291138	0.792478	mountain	6	0	0.000000	0.774281	1	0	0	0	CorrectOmission	0.105166	0.747362	0	1
372.083435	0.792073	city	6	1	0.801090	0.801090	0	1	0	0	CorrectCommission	0.502396	0.783409	0	1
372.875580	0.792242	city	10	1	0.794311	0.794311	0	1	0	0	CorrectCommission	0.401944	0.821114	0	1
373.667816	0.792260	city	8	1	0.902530	0.902530	0	1	0	0	CorrectCommission	2.005436	0.859191	0	1
374.460114	0.792295	city	10	1	0.843934	0.843934	0	1	0	0	CorrectCommission	1.137217	0.896262	0	1
375.252380	0.792236	city	2	1	0.843783	0.843783	0	1	0	0	CorrectCommission	1.134970	0.931083	0	1
376.044678	0.792372	city	1	1	0.844017	0.844017	0	1	0	0	CorrectCommission	1.138440	0.962576	0	1
376.836945	0.792158	city	4	1	0.843759	0.843759	0	1	0	0	CorrectCommission	1.134627	0.989979	0	1
377.629150	0.792268	city	7	1	0.806082	0.806082	0	1	0	0	CorrectCommission	0.576365	1.012875	0	1
378.421417	0.792265	city	6	1	0.806251	0.806251	0	1	0	0	CorrectCommission	0.578861	1.031184	0	1
379.213684	0.792262	city	4	1	0.849510	0.849510	0	1	0	0	CorrectCommission	1.219826	1.045147	0	1
380.006012	0.792373	city	9	1	0.862749	0.862749	0	1	0	0	CorrectCommission	1.415989	1.055244	0	1
380.798309	0.792264	city	7	1	0.893241	0.893241	0	1	0	0	CorrectCommission	1.867799	1.062117	0	1
381.590515	0.792156	city	1	1	0.843688	0.843688	0	1	0	0	CorrectCommission	1.133565	1.066479	0	1
382.382782	0.792339	mountain	9	0	0.000000	0.801313	1	0	0	0	CorrectOmission	0.505698	1.069036	0	1
383.175049	0.792194	city	4	1	0.794244	0.794244	0	1	0	0	CorrectCommission	0.400956	1.070328	0	1
383.967377	0.792479	mountain	7	0	0.000000	0.850608	1	0	0	0	CorrectOmission	1.236097	1.070620	0	1
384.759766	0.792264	city	1	1	0.893024	0.893024	0	1	0	0	CorrectCommission	1.864573	1.069814	0	1
385.551910	0.792049	city	10	1	0.844111	0.844111	0	1	0	0	CorrectCommission	1.139837	1.067389	0	1
386.344055	0.792264	city	7	1	0.804112	0.804112	0	1	0	0	CorrectCommission	0.547174	1.062483	0	1
387.136322	0.792281	city	8	1	0.695292	0.695292	0	1	0	0	CorrectCommission	1.065216	1.053994	0	1
387.928619	0.792281	city	6	1	0.744749	0.744749	0	1	0	0	CorrectCommission	0.332412	1.040675	0	1
388.720886	0.792235	city	8	1	0.744898	0.744898	0	1	0	0	CorrectCommission	0.330202	1.021468	0	1
389.513123	0.792263	mountain	4	0	0.000000	0.916231	1	0	0	0	CorrectOmission	2.208441	0.995733	0	1
390.305420	0.792336	city	6	1	0.992396	0.992396	0	1	0	0	CorrectCommission	3.336985	0.963488	0	1
391.097687	0.792193	city	8	1	0.707043	0.707043	0	1	0	0	CorrectCommission	0.891108	0.925543	0	1
391.889923	0.792263	city	9	1	0.745023	0.745023	0	1	0	0	CorrectCommission	0.328356	0.883620	0	1
392.682220	0.792372	city	10	1	0.794445	0.794445	0	1	0	0	CorrectCommission	0.403933	0.840077	0	1
393.474487	0.792158	city	5	1	0.760483	0.760483	0	1	0	0	CorrectCommission	0.099282	0.797686	0	1
394.266846	0.792520	city	3	1	0.794580	0.794580	0	1	0	0	CorrectCommission	0.405931	0.759265	0	1
395.059174	0.792123	city	6	1	0.849386	0.849386	0	1	0	0	CorrectCommission	1.218001	0.727347	1	1
395.851288	0.792152	city	5	1	0.744706	0.744706	0	1	0	0	CorrectCommission	0.333048	0.703793	1	1
396.643555	0.792372	city	8	1	0.744914	0.744914	0	1	0	0	CorrectCommission	0.329967	0.689640	1	1
397.435822	0.792157	city	1	1	0.704021	0.704021	0	1	0	0	CorrectCommission	0.935887	0.684936	1	1
398.228058	0.792303	city	6	1	0.794406	0.794406	0	1	0	0	CorrectCommission	0.403360	0.688748	1	1
399.020325	0.792224	city	2	1	0.752389	0.752389	0	1	0	0	CorrectCommission	0.219214	0.699321	1	1
399.812561	0.792263	city	1	1	0.794303	0.794303	0	1	0	0	CorrectCommission	0.401831	0.714276	1	1
400.604889	0.792376	city	6	1	0.751720	0.751720	0	1	0	0	CorrectCommission	0.229125	0.730928	0	1
401.397156	0.792155	city	9	1	0.751942	0.751942	0	1	0	0	CorrectCommission	0.225839	0.746627	0	1
402.189453	0.792485	city	3	1	0.999439	0.999439	0	1	0	0	CorrectCommission	3.441339	0.759090	0	1
402.981720	0.792046	city	6	1	0.853215	0.853215	0	1	0	0	CorrectCommission	1.274728	0.766621	0	1
403.773895	0.792278	city	10	1	0.749662	0.749662	0	1	0	0	CorrectCommission	0.259622	0.768465	0	1
404.566254	0.792468	city	8	1	0.801038	0.801038	0	1	0	0	CorrectCommission	0.501624	0.764650	0	1
405.358521	0.792048	city	9	1	0.843578	0.843578	0	1	0	0	CorrectCommission	1.131940	0.755903	0	1
406.150696	0.792268	city	5	1	0.747102	0.747102	0	1	0	0	CorrectCommission	0.297548	0.743474	0	1
406.942932	0.792260	city	6	1	0.803584	0.803584	0	1	0	0	CorrectCommission	0.539348	0.728910	0	1
407.735229	0.792288	mountain	1	1	0.756131	0.756131	0	0	1	0	CommissionError	0.163762	0.713827	1	1
408.527496	0.792244	city	3	1	0.695301	0.695301	0	1	0	0	CorrectCommission	1.065089	0.699824	1	1
409.319855	0.792482	city	10	1	0.794328	0.794328	0	1	0	0	CorrectCommission	0.402193	0.688332	1	1
410.112122	0.792046	city	6	1	0.900624	0.900624	0	1	0	0	CorrectCommission	1.977191	0.680644	1	1
410.904327	0.792373	city	9	1	0.755507	0.755507	0	1	0	0	CorrectCommission	0.173015	0.677796	1	1
411.696686	0.792374	city	7	1	0.754332	0.754332	0	1	0	0	CorrectCommission	0.190424	0.680664	1	1
412.488922	0.792049	city	9	1	0.744547	0.744547	0	1	0	0	CorrectCommission	0.335412	0.689792	1	1
413.281158	0.792480	city	5	1	0.705796	0.705796	0	1	0	0	CorrectCommission	0.909577	0.705380	1	1
414.073547	0.792264	city	4	1	0.794453	0.794453	0	1	0	0	CorrectCommission	0.404050	0.727173	1	1
414.865753	0.792156	city	1	1	0.744587	0.744587	0	1	0	0	CorrectCommission	0.334816	0.754450	0	1
415.658020	0.792374	city	4	1	0.695183	0.695183	0	1	0	0	CorrectCommission	1.066839	0.786022	0	1
416.450287	0.792156	city	7	1	0.701180	0.701180	0	1	0	0	CorrectCommission	0.977974	0.820276	0	1
417.242432	0.792156	city	3	1	0.745991	0.745991	0	1	0	0	CorrectCommission	0.314012	0.855348	0	1
418.034668	0.792268	city	6	1	0.760933	0.760933	0	1	0	0	CorrectCommission	0.092614	0.889317	0	1
418.826904	0.792260	city	7	1	0.893332	0.893332	0	1	0	0	CorrectCommission	1.869138	0.920395	0	1
419.619171	0.792266	city	4	1	0.897342	0.897342	0	1	0	0	CorrectCommission	1.928565	0.947033	0	1
420.411469	0.792313	city	7	1	0.855361	0.855361	0	1	0	0	CorrectCommission	1.306523	0.968226	0	1
421.203735	0.792221	city	6	1	0.843775	0.843775	0	1	0	0	CorrectCommission	1.134853	0.983522	0	1
421.996002	0.792280	city	5	1	0.799035	0.799035	0	1	0	0	CorrectCommission	0.471939	0.992953	0	1
422.788300	0.792315	city	7	1	0.855591	0.855591	0	1	0	0	CorrectCommission	1.309941	0.996940	0	1
423.580597	0.792303	city	3	0	0.000000	0.826037	0	0	0	1	OmissionError	0.872033	0.996124	0	1
424.372833	0.792156	city	1	1	0.794202	0.794202	0	1	0	0	CorrectCommission	0.400334	0.991231	0	0
425.165039	0.792267	city	6	1	0.843917	0.843917	0	1	0	0	CorrectCommission	1.136963	0.982937	0	0
425.957306	0.792263	city	3	1	0.805729	0.805729	0	1	0	0	CorrectCommission	0.571123	0.971822	0	0
426.749603	0.792318	city	2	1	0.843842	0.843842	0	1	0	0	CorrectCommission	1.135849	0.958494	0	0
427.541870	0.792266	mountain	7	0	0.000000	0.893848	1	0	0	0	CorrectOmission	1.876793	0.943550	0	0
428.334229	0.792427	city	7	1	0.896894	0.896894	0	1	0	0	CorrectCommission	1.921918	0.927753	0	0
429.126526	0.792156	city	2	1	0.794125	0.794125	0	1	0	0	CorrectCommission	0.399187	0.912056	0	0
429.918732	0.792265	mountain	4	0	0.000000	0.752209	1	0	0	0	CorrectOmission	0.221881	0.897605	0	0
430.710938	0.792159	city	7	1	0.744720	0.744720	0	1	0	0	CorrectCommission	0.332845	0.885594	0	0
431.503174	0.792333	city	8	1	0.745232	0.745232	0	1	0	0	CorrectCommission	0.325261	0.877206	0	0
432.295471	0.792256	city	5	1	0.844436	0.844436	0	1	0	0	CorrectCommission	1.144651	0.873460	0	0
433.087708	0.792205	city	4	1	0.894326	0.894326	0	1	0	0	CorrectCommission	1.883871	0.875050	0	0
433.880005	0.792372	city	1	1	0.700270	0.700270	0	1	0	0	CorrectCommission	0.991465	0.882239	0	0
434.672272	0.792169	city	2	1	0.744663	0.744663	0	1	0	0	CorrectCommission	0.333692	0.894779	0	0
435.464600	0.792470	city	9	1	0.747442	0.747442	0	1	0	0	CorrectCommission	0.292517	0.911828	0	0
436.256897	0.792154	city	4	1	0.795719	0.795719	0	1	0	0	CorrectCommission	0.422816	0.931931	0	0
437.049072	0.792156	city	1	1	0.794574	0.794574	0	1	0	0	CorrectCommission	0.405840	0.953136	0	0
437.841370	0.792483	mountain	4	0	0.000000	0.853260	1	0	0	0	CorrectOmission	1.275395	0.973178	0	0
438.633636	0.792047	mountain	8	0	0.000000	0.907583	1	0	0	0	CorrectOmission	2.080299	0.989682	0	0
439.425812	0.792266	city	4	1	0.893348	0.893348	0	1	0	0	CorrectCommission	1.869375	1.000495	0	0
440.218079	0.792266	city	7	1	0.746359	0.746359	0	1	0	0	CorrectCommission	0.308558	1.003925	0	0
441.010345	0.792309	city	6	1	0.701189	0.701189	0	1	0	0	CorrectCommission	0.977851	0.998988	0	0
441.802612	0.792225	city	9	1	0.649561	0.649561	0	1	0	0	CorrectCommission	1.742811	0.985474	0	0
442.594971	0.792474	city	8	1	0.703311	0.703311	0	1	0	0	CorrectCommission	0.946402	0.963964	0	0
443.387238	0.792066	city	1	1	0.700315	0.700315	0	1	0	0	CorrectCommission	0.990790	0.935782	0	0
444.179413	0.792259	mountain	7	0	0.000000	0.689463	1	0	0	0	CorrectOmission	1.151594	0.902751	0	0
444.971649	0.792253	mountain	9	1	0.695907	0.695907	0	0	1	0	CommissionError	1.056101	0.866969	0	0
445.764038	0.792481	mountain	10	1	0.744804	0.744804	0	0	1	0	CommissionError	0.331599	0.830537	0	0
446.556305	0.792049	city	1	1	0.806649	0.806649	0	1	0	0	CorrectCommission	0.584761	0.795374	0	0
447.348450	0.792263	city	4	1	0.794374	0.794374	0	1	0	0	CorrectCommission	0.402887	0.762951	0	0
448.140717	0.792265	city	6	1	0.805776	0.805776	0	1	0	0	CorrectCommission	0.571829	0.734242	0	0
448.933014	0.792339	city	10	1	0.848162	0.848162	0	1	0	0	CorrectCommission	1.199855	0.709727	1	0
449.725281	0.792191	city	1	1	0.744626	0.744626	0	1	0	0	CorrectCommission	0.334244	0.689476	1	0
450.517517	0.792264	city	9	1	0.759359	0.759359	0	1	0	0	CorrectCommission	0.115941	0.673403	1	0
451.309753	0.792264	city	1	1	0.708837	0.708837	0	1	0	0	CorrectCommission	0.864530	0.661459	1	0
452.102020	0.792268	city	6	1	0.700591	0.700591	0	1	0	0	CorrectCommission	0.986710	0.653890	1	0
452.894318	0.792306	mountain	9	1	0.695299	0.695299	0	0	1	0	CommissionError	1.065120	0.651370	1	0
453.686584	0.792247	city	2	1	0.744751	0.744751	0	1	0	0	CorrectCommission	0.332378	0.655139	1	0
454.478851	0.792286	city	7	1	0.843876	0.843876	0	1	0	0	CorrectCommission	1.136346	0.666958	1	0
455.271179	0.792327	city	1	1	0.797545	0.797545	0	1	0	0	CorrectCommission	0.449867	0.688861	1	0
456.063416	0.792158	mountain	4	0	0.000000	0.763549	1	0	0	0	CorrectOmission	0.053860	0.722896	1	0
456.855621	0.792266	city	1	1	0.744937	0.744937	0	1	0	0	CorrectCommission	0.329626	0.770690	0	0
457.647919	0.792340	city	9	1	0.744762	0.744762	0	1	0	0	CorrectCommission	0.332222	0.833036	0	0
458.440308	0.792404	city	7	1	0.744734	0.744734	0	1	0	0	CorrectCommission	0.332644	0.909489	0	0
459.232513	0.792047	city	4	1	0.798867	0.798867	0	1	0	0	CorrectCommission	0.469448	0.998095	0	0
460.024719	0.792318	mountain	9	0	0.000000	0.862998	1	0	0	0	CorrectOmission	1.419679	1.095305	0	0
460.816986	0.792211	city	6	1	0.844442	0.844442	0	1	0	0	CorrectCommission	1.144737	1.196024	0	0
461.609222	0.792266	city	10	1	0.650514	0.650514	0	1	0	0	CorrectCommission	1.728691	1.293950	0	0
462.401489	0.792263	city	5	1	0.695380	0.695380	0	1	0	0	CorrectCommission	1.063920	1.382019	0	0
463.193787	0.792372	city	7	1	0.701760	0.701760	0	1	0	0	CorrectCommission	0.969390	1.453114	0	0
463.986053	0.792177	city	3	1	0.893261	0.893261	0	1	0	0	CorrectCommission	1.868087	1.500782	0	0
464.778320	0.792352	city	8	1	0.905396	0.905396	0	1	0	0	CorrectCommission	2.047898	1.520013	0	0
465.570587	0.792156	city	1	1	1.008250	1.008250	0	1	0	0	CorrectCommission	3.571891	1.507954	0	0
466.362854	0.792375	city	8	1	0.992804	0.992804	0	1	0	0	CorrectCommission	3.343016	1.464321	0	0
467.155121	0.792158	city	6	1	1.044166	1.044166	0	1	0	0	CorrectCommission	4.104051	1.391597	0	0
467.947327	0.792265	city	3	1	0.748201	0.748201	0	1	0	0	CorrectCommission	0.281263	1.294737	0	0
468.739594	0.792264	city	10	1	0.751130	0.751130	0	1	0	0	CorrectCommission	0.237865	1.180703	0	0
469.531921	0.792371	city	8	1	0.794324	0.794324	0	1	0	0	CorrectCommission	0.402147	1.057436	0	0
470.324188	0.792171	city	3	1	0.756755	0.756755	0	1	0	0	CorrectCommission	0.154519	0.933035	0	0
471.116394	0.792251	city	6	1	0.744933	0.744933	0	1	0	0	CorrectCommission	0.329682	0.814895	0	0
471.908661	0.792265	city	3	1	0.749939	0.749939	0	1	0	0	CorrectCommission	0.255516	0.709058	1	0
472.700928	0.792266	city	9	1	0.744810	0.744810	0	1	0	0	CorrectCommission	0.331509	0.619894	1	0
473.493195	0.792262	city	4	1	0.751401	0.751401	0	1	0	0	CorrectCommission	0.233850	0.550011	1	0
474.285431	0.792266	mountain	6	0	0.000000	0.787452	1	0	0	0	CorrectOmission	0.300319	0.500507	1	0
475.077698	0.792268	city	9	1	0.805889	0.805889	0	1	0	0	CorrectCommission	0.573500	0.471351	1	0
475.869995	0.792271	city	5	1	0.759638	0.759638	0	1	0	0	CorrectCommission	0.111803	0.461945	1	0
476.662262	0.792273	city	1	1	0.745424	0.745424	0	1	0	0	CorrectCommission	0.322415	0.471627	1	0
477.454529	0.792298	city	10	1	0.745321	0.745321	0	1	0	0	CorrectCommission	0.323946	0.500074	1	0
478.246765	0.792179	city	6	1	0.796136	0.796136	0	1	0	0	CorrectCommission	0.428989	0.547653	1	0
479.039032	0.792302	city	4	1	0.804033	0.804033	0	1	0	0	CorrectCommission	0.545994	0.615514	1	0
479.831329	0.792295	city	7	1	0.794525	0.794525	0	1	0	0	CorrectCommission	0.405118	0.705545	1	0
480.623627	0.792339	city	9	1	0.744793	0.744793	0	1	0	0	CorrectCommission	0.331760	0.820123	0	0
481.415894	0.792162	city	1	1	0.707692	0.707692	0	1	0	0	CorrectCommission	0.881488	0.961693	0	0
482.208130	0.792310	mountain	5	0	0.000000	0.729182	1	0	0	0	CorrectOmission	0.563068	1.132254	0	0
483.000488	0.792430	city	10	1	0.799073	0.799073	0	1	0	0	CorrectCommission	0.472502	1.332819	0	0
483.792725	0.792047	city	3	1	0.907172	0.907172	0	1	0	0	CorrectCommission	2.074219	1.562895	0	0
484.584930	0.792375	city	2	1	0.798503	0.798503	0	1	0	0	CorrectCommission	0.464063	1.820053	0	0
485.377197	0.792158	city	3	1	0.809459	0.809459	0	1	0	0	CorrectCommission	0.626388	2.099935	0	0
486.169403	0.792264	city	8	1	0.754559	0.754559	0	1	0	0	CorrectCommission	0.187055	2.396231	0	0
486.961700	0.792325	city	9	1	0.949485	0.949485	0	1	0	0	CorrectCommission	2.701163	2.701163	0	0
