onset	duration	trial_type	image_type	Press	ReactionTime	ReactionTime_Interpolated	CorrectOmission	CorrectCommission	CommissionError	OmissionError	response_type	nonsmoothVarianceTimeCourse	VarianceTimeCourse	In_the_Zone	Reward_trial
8.434000	0.792263	city	7	1	0.843593	0.843593	0	1	0	0	CorrectCommission	0.360477	0.360477	1	1
9.226156	0.792048	city	4	1	0.596009	0.596009	0	1	0	0	CorrectCommission	0.925277	0.379256	1	1
10.018313	0.792268	city	5	1	0.398817	0.398817	0	1	0	0	CorrectCommission	1.949331	0.397358	1	1
10.810687	0.792479	city	6	1	0.745138	0.745138	0	1	0	0	CorrectCommission	0.150819	0.414351	1	1
11.602957	0.792061	city	1	1	0.646007	0.646007	0	1	0	0	CorrectCommission	0.665626	0.430300	1	1
12.395222	0.792468	city	7	1	0.744758	0.744758	0	1	0	0	CorrectCommission	0.152794	0.445721	1	1
13.187588	0.792264	city	5	1	0.658873	0.658873	0	1	0	0	CorrectCommission	0.598808	0.461572	1	1
13.979797	0.792155	city	10	1	0.794143	0.794143	0	1	0	0	CorrectCommission	0.103674	0.479002	1	1
14.772062	0.792375	city	4	1	0.812754	0.812754	0	1	0	0	CorrectCommission	0.200326	0.499124	1	1
15.564291	0.792082	city	7	1	0.809958	0.809958	0	1	0	0	CorrectCommission	0.185804	0.522720	1	1
16.356451	0.792238	city	8	1	0.707214	0.707214	0	1	0	0	CorrectCommission	0.347765	0.550070	1	1
17.148752	0.792366	city	9	1	0.695248	0.695248	0	1	0	0	CorrectCommission	0.409906	0.580818	1	1
17.941013	0.792156	city	8	1	0.596106	0.596106	0	1	0	0	CorrectCommission	0.924771	0.614004	1	1
18.733223	0.792265	city	9	1	0.645704	0.645704	0	1	0	0	CorrectCommission	0.667200	0.648179	1	1
19.525490	0.792266	city	1	1	0.646233	0.646233	0	1	0	0	CorrectCommission	0.664452	0.681619	1	1
20.317770	0.792295	city	3	1	0.651091	0.651091	0	1	0	0	CorrectCommission	0.639222	0.712522	1	1
21.110033	0.792234	city	8	1	0.546664	0.546664	0	1	0	0	CorrectCommission	1.181531	0.739272	1	1
21.902283	0.792264	city	6	1	0.596265	0.596265	0	1	0	0	CorrectCommission	0.923947	0.760609	1	1
22.694601	0.792372	city	9	1	0.560257	0.560257	0	1	0	0	CorrectCommission	1.110943	0.775778	1	1
23.486921	0.792267	city	7	1	0.596159	0.596159	0	1	0	0	CorrectCommission	0.924494	0.784555	1	1
24.279186	0.792262	city	9	1	0.607749	0.607749	0	1	0	0	CorrectCommission	0.864305	0.787266	1	1
25.071396	0.792160	city	4	1	0.645655	0.645655	0	1	0	0	CorrectCommission	0.667455	0.784660	1	1
25.863609	0.792266	city	6	1	0.646053	0.646053	0	1	0	0	CorrectCommission	0.665389	0.777813	1	1
26.655920	0.792355	city	3	1	0.646100	0.646100	0	1	0	0	CorrectCommission	0.665143	0.767994	1	1
27.448185	0.792174	city	9	1	0.596200	0.596200	0	1	0	0	CorrectCommission	0.924281	0.756531	1	1
28.240410	0.792277	city	6	1	0.614285	0.614285	0	1	0	0	CorrectCommission	0.830364	0.744729	1	1
29.032673	0.792248	city	3	1	0.608914	0.608914	0	1	0	0	CorrectCommission	0.858256	0.733764	1	1
29.824930	0.792270	city	5	1	0.661437	0.661437	0	1	0	0	CorrectCommission	0.585495	0.724607	1	1
30.617197	0.792261	city	6	1	0.695274	0.695274	0	1	0	0	CorrectCommission	0.409771	0.717969	1	1
31.409475	0.792297	city	7	1	0.608818	0.608818	0	1	0	0	CorrectCommission	0.858754	0.714257	1	1
32.201847	0.792450	city	3	1	0.660767	0.660767	0	1	0	0	CorrectCommission	0.588976	0.713517	1	1
32.994118	0.792091	city	7	1	0.744565	0.744565	0	1	0	0	CorrectCommission	0.153793	0.715480	1	1
33.786278	0.792224	city	1	1	0.596528	0.596528	0	1	0	0	CorrectCommission	0.922579	0.719576	1	1
34.578560	0.792342	city	9	1	0.556002	0.556002	0	1	0	0	CorrectCommission	1.133038	0.724971	1	1
35.370930	0.792402	city	10	1	0.695267	0.695267	0	1	0	0	CorrectCommission	0.409807	0.730680	1	1
36.163174	0.792086	city	9	1	0.695659	0.695659	0	1	0	0	CorrectCommission	0.407776	0.735700	1	1
36.955334	0.792228	city	1	1	0.499686	0.499686	0	1	0	0	CorrectCommission	1.425497	0.739062	1	1
37.747635	0.792376	city	8	1	0.659492	0.659492	0	1	0	0	CorrectCommission	0.595598	0.739932	1	1
38.539898	0.792152	city	1	1	0.546753	0.546753	0	1	0	0	CorrectCommission	1.181069	0.737694	1	1
39.332108	0.792264	city	2	1	0.646218	0.646218	0	1	0	0	CorrectCommission	0.664528	0.731933	1	1
40.124390	0.792299	city	9	1	0.646436	0.646436	0	1	0	0	CorrectCommission	0.663398	0.722462	1	1
40.916672	0.792263	city	8	1	0.646163	0.646163	0	1	0	0	CorrectCommission	0.664817	0.709279	1	1
41.708973	0.792339	city	3	1	0.645731	0.645731	0	1	0	0	CorrectCommission	0.667059	0.692530	1	1
42.501221	0.792159	city	9	1	0.596127	0.596127	0	1	0	0	CorrectCommission	0.924664	0.672493	1	1
43.293541	0.792478	city	6	1	0.695382	0.695382	0	1	0	0	CorrectCommission	0.409213	0.649563	1	1
44.085804	0.792053	city	10	1	0.646166	0.646166	0	1	0	0	CorrectCommission	0.664800	0.624298	1	1
44.878017	0.792368	city	3	1	0.664329	0.664329	0	1	0	0	CorrectCommission	0.570476	0.597395	1	1
45.670387	0.792373	city	8	1	0.596137	0.596137	0	1	0	0	CorrectCommission	0.924608	0.569746	1	1
46.462650	0.792156	city	10	1	0.596094	0.596094	0	1	0	0	CorrectCommission	0.924831	0.542400	1	1
47.254848	0.792238	city	3	1	0.794751	0.794751	0	1	0	0	CorrectCommission	0.106831	0.516539	1	1
48.047058	0.792183	city	5	1	0.695406	0.695406	0	1	0	0	CorrectCommission	0.409088	0.493379	1	1
48.839283	0.792265	city	7	1	0.650737	0.650737	0	1	0	0	CorrectCommission	0.641060	0.474002	1	1
49.631657	0.792483	city	3	1	0.798924	0.798924	0	1	0	0	CorrectCommission	0.128501	0.459246	1	1
50.423977	0.792156	city	9	1	0.794248	0.794248	0	1	0	0	CorrectCommission	0.104220	0.449583	1	1
51.216148	0.792192	city	6	1	0.745576	0.745576	0	1	0	0	CorrectCommission	0.148545	0.444985	1	1
52.008469	0.792446	city	3	1	0.745191	0.745191	0	1	0	0	CorrectCommission	0.150542	0.444930	1	1
52.800770	0.792156	city	8	1	0.902136	0.902136	0	1	0	0	CorrectCommission	0.664501	0.448477	1	1
53.592979	0.792264	city	9	1	0.846602	0.846602	0	1	0	0	CorrectCommission	0.376104	0.454371	1	1
54.385189	0.792161	city	7	1	0.661006	0.661006	0	1	0	0	CorrectCommission	0.587733	0.461237	1	1
55.177402	0.792263	city	3	1	0.645947	0.645947	0	1	0	0	CorrectCommission	0.665936	0.467787	1	1
55.969669	0.792269	city	4	1	0.596976	0.596976	0	1	0	0	CorrectCommission	0.920252	0.472956	1	1
56.761986	0.792368	city	1	1	0.645849	0.645849	0	1	0	0	CorrectCommission	0.666447	0.476057	1	1
57.554249	0.792156	mountain	4	0	0.000000	0.717700	1	0	0	0	CorrectOmission	0.293309	0.476833	1	1
58.346458	0.792264	city	8	1	0.745412	0.745412	0	1	0	0	CorrectCommission	0.149394	0.475437	1	1
59.138725	0.792263	city	10	1	0.661867	0.661867	0	1	0	0	CorrectCommission	0.583261	0.472375	1	1
59.930988	0.792263	city	9	1	0.696007	0.696007	0	1	0	0	CorrectCommission	0.405968	0.468376	1	1
60.723278	0.792320	city	3	1	0.646215	0.646215	0	1	0	0	CorrectCommission	0.664548	0.464314	1	1
61.515549	0.792222	city	6	1	0.695890	0.695890	0	1	0	0	CorrectCommission	0.406576	0.461032	1	1
62.307789	0.792253	city	1	1	0.645939	0.645939	0	1	0	0	CorrectCommission	0.665980	0.459275	1	1
63.100086	0.792343	city	10	1	0.749862	0.749862	0	1	0	0	CorrectCommission	0.126287	0.459558	1	1
63.892353	0.792191	city	1	1	0.749598	0.749598	0	1	0	0	CorrectCommission	0.127656	0.462131	1	1
64.684593	0.792295	city	4	1	0.893490	0.893490	0	1	0	0	CorrectCommission	0.619601	0.466930	1	1
65.476913	0.792339	city	9	1	0.660425	0.660425	0	1	0	0	CorrectCommission	0.590751	0.473598	1	1
66.269173	0.792180	city	7	1	0.744693	0.744693	0	1	0	0	CorrectCommission	0.153131	0.481517	1	1
67.061386	0.792244	city	9	1	0.707896	0.707896	0	1	0	0	CorrectCommission	0.344222	0.489956	1	1
67.853638	0.792262	city	6	1	0.645734	0.645734	0	1	0	0	CorrectCommission	0.667041	0.498137	1	0
68.645897	0.792265	city	7	1	0.695497	0.695497	0	1	0	0	CorrectCommission	0.408615	0.505414	1	0
69.438164	0.792266	city	9	1	0.596218	0.596218	0	1	0	0	CorrectCommission	0.924188	0.511392	1	0
70.230431	0.792265	city	2	1	0.547305	0.547305	0	1	0	0	CorrectCommission	1.178206	0.515968	1	0
71.022751	0.792371	city	6	1	0.714481	0.714481	0	1	0	0	CorrectCommission	0.310026	0.519393	1	0
71.815025	0.792178	city	4	1	0.847233	0.847233	0	1	0	0	CorrectCommission	0.379378	0.522229	1	0
72.607246	0.792267	mountain	9	0	0.000000	0.834769	1	0	0	0	CorrectOmission	0.314653	0.525206	1	0
73.399612	0.792459	city	7	1	0.745045	0.745045	0	1	0	0	CorrectCommission	0.151300	0.529101	1	0
74.191864	0.792051	city	6	1	0.646016	0.646016	0	1	0	0	CorrectCommission	0.665578	0.534607	1	0
74.984024	0.792264	city	9	1	0.646138	0.646138	0	1	0	0	CorrectCommission	0.664947	0.542217	1	0
75.776337	0.792371	city	1	1	0.645895	0.645895	0	1	0	0	CorrectCommission	0.666207	0.552176	1	0
76.568634	0.792214	city	6	1	0.805912	0.805912	0	1	0	0	CorrectCommission	0.164793	0.564444	1	0
77.360840	0.792210	city	7	1	0.843733	0.843733	0	1	0	0	CorrectCommission	0.361202	0.578763	1	0
78.153130	0.792370	city	5	1	0.893735	0.893735	0	1	0	0	CorrectCommission	0.620875	0.594664	1	0
78.945396	0.792161	city	9	1	0.893244	0.893244	0	1	0	0	CorrectCommission	0.618325	0.611584	1	0
79.737663	0.792369	city	8	1	0.860711	0.860711	0	1	0	0	CorrectCommission	0.449371	0.628920	1	0
80.529922	0.792154	city	7	1	1.091334	1.091334	0	1	0	0	CorrectCommission	1.647045	0.646089	1	0
81.322136	0.792264	city	8	1	0.894220	0.894220	0	1	0	0	CorrectCommission	0.623395	0.662461	1	0
82.114441	0.792352	city	9	1	0.956552	0.956552	0	1	0	0	CorrectCommission	0.947094	0.677404	1	0
82.906708	0.792179	city	7	1	0.803524	0.803524	0	1	0	0	CorrectCommission	0.152389	0.690157	1	0
83.698982	0.792372	city	3	1	0.695431	0.695431	0	1	0	0	CorrectCommission	0.408960	0.699817	1	0
84.491272	0.792205	mountain	2	0	0.000000	0.708183	1	0	0	0	CorrectOmission	0.342731	0.705330	1	0
85.283485	0.792220	city	9	1	0.803442	0.803442	0	1	0	0	CorrectCommission	0.151967	0.705609	1	0
86.075729	0.792262	city	3	1	0.942867	0.942867	0	1	0	0	CorrectCommission	0.876028	0.699729	1	0
86.867989	0.792266	city	8	1	1.142542	1.142542	0	1	0	0	CorrectCommission	1.912977	0.687140	1	0
87.660255	0.792260	mountain	2	0	0.000000	1.122633	1	0	0	0	CorrectOmission	1.809584	0.667898	1	0
88.452629	0.792484	mountain	8	0	0.000000	0.988028	1	0	0	0	CorrectOmission	1.110555	0.642830	1	0
89.244896	0.792048	city	9	1	0.843616	0.843616	0	1	0	0	CorrectCommission	0.360594	0.613527	1	0
90.037048	0.792264	city	2	1	0.794284	0.794284	0	1	0	0	CorrectCommission	0.104407	0.582173	1	0
90.829315	0.792267	city	1	1	0.763095	0.763095	0	1	0	0	CorrectCommission	0.057567	0.551304	1	0
91.621582	0.792265	city	9	1	0.755055	0.755055	0	1	0	0	CorrectCommission	0.099318	0.523441	1	0
92.413864	0.792302	city	8	1	0.646000	0.646000	0	1	0	0	CorrectCommission	0.665665	0.500803	1	0
93.206131	0.792230	city	9	1	0.745121	0.745121	0	1	0	0	CorrectCommission	0.150905	0.485010	1	0
93.998375	0.792261	city	7	1	0.744775	0.744775	0	1	0	0	CorrectCommission	0.152704	0.476983	1	0
94.790695	0.792373	city	8	1	0.794320	0.794320	0	1	0	0	CorrectCommission	0.104590	0.476901	1	0
95.582970	0.792183	city	7	1	0.942745	0.942745	0	1	0	0	CorrectCommission	0.875394	0.484316	1	0
96.375175	0.792234	city	4	1	0.795301	0.795301	0	1	0	0	CorrectCommission	0.109689	0.498291	1	0
97.167458	0.792324	city	6	1	0.896191	0.896191	0	1	0	0	CorrectCommission	0.633629	0.517641	1	0
97.959724	0.792210	city	9	1	1.042405	1.042405	0	1	0	0	CorrectCommission	1.392944	0.541074	1	0
98.751968	0.792279	city	5	1	0.847797	0.847797	0	1	0	0	CorrectCommission	0.382309	0.567398	1	0
99.544342	0.792465	city	1	1	0.843973	0.843973	0	1	0	0	CorrectCommission	0.362450	0.595626	1	0
100.336601	0.792051	city	2	1	0.745022	0.745022	0	1	0	0	CorrectCommission	0.151420	0.625004	1	0
101.128860	0.792480	city	5	1	0.744870	0.744870	0	1	0	0	CorrectCommission	0.152210	0.655041	1	0
101.921234	0.792264	city	2	1	0.596312	0.596312	0	1	0	0	CorrectCommission	0.923700	0.685506	1	0
102.713402	0.792072	city	4	1	0.514489	0.514489	0	1	0	0	CorrectCommission	1.348623	0.716405	1	0
103.505615	0.792356	city	2	1	0.596691	0.596691	0	1	0	0	CorrectCommission	0.921732	0.747966	1	0
104.297867	0.792151	city	9	1	0.549133	0.549133	0	1	0	0	CorrectCommission	1.168711	0.780552	1	0
105.090080	0.792268	mountain	6	0	0.000000	0.787472	1	0	0	0	CorrectOmission	0.069031	0.814551	0	0
105.882378	0.792327	city	3	1	0.992288	0.992288	0	1	0	0	CorrectCommission	1.132680	0.850256	0	0
106.674667	0.792252	city	10	1	0.844161	0.844161	0	1	0	0	CorrectCommission	0.363426	0.887626	0	0
107.466904	0.792216	city	6	1	1.041879	1.041879	0	1	0	0	CorrectCommission	1.390213	0.926170	0	0
108.259193	0.792367	city	3	1	0.893337	0.893337	0	1	0	0	CorrectCommission	0.618806	0.964760	0	0
109.051559	0.792374	city	7	1	0.744899	0.744899	0	1	0	0	CorrectCommission	0.152061	1.001690	0	0
109.843826	0.792154	city	3	1	0.646067	0.646067	0	1	0	0	CorrectCommission	0.665313	1.034710	0	0
110.635986	0.792160	city	8	1	1.205335	1.205335	0	1	0	0	CorrectCommission	2.239074	1.061242	0	0
111.428192	0.792260	city	9	1	1.155341	1.155341	0	1	0	0	CorrectCommission	1.979445	1.078674	0	0
112.220459	0.792271	city	4	0	0.000000	0.864354	0	0	0	1	OmissionError	0.468293	1.084771	0	0
113.012726	0.792259	city	10	1	0.546860	0.546860	0	1	0	0	CorrectCommission	1.180513	1.077997	0	0
113.805000	0.792298	mountain	8	0	0.000000	0.417346	1	0	0	0	CorrectOmission	1.853107	1.057764	0	0
114.597275	0.792237	city	4	0	0.000000	0.419742	0	0	0	1	OmissionError	1.840663	1.024624	0	0
115.389626	0.792477	city	3	1	0.497980	0.497980	0	1	0	0	CorrectCommission	1.434357	0.980260	0	0
116.181999	0.792265	city	1	1	0.595992	0.595992	0	1	0	0	CorrectCommission	0.925362	0.927360	0	0
116.974266	0.792266	city	4	1	0.893123	0.893123	0	1	0	0	CorrectCommission	0.617697	0.869317	0	0
117.766418	0.792048	mountain	10	1	0.695113	0.695113	0	0	1	0	CommissionError	0.410611	0.809855	0	0
118.558632	0.792373	city	4	1	0.893338	0.893338	0	1	0	0	CorrectCommission	0.618814	0.752638	1	0
119.350899	0.792156	city	6	1	0.794352	0.794352	0	1	0	0	CorrectCommission	0.104759	0.700915	1	0
120.143158	0.792373	city	5	1	0.847747	0.847747	0	1	0	0	CorrectCommission	0.382049	0.657286	1	0
120.935425	0.792156	city	9	1	0.843745	0.843745	0	1	0	0	CorrectCommission	0.361264	0.623541	1	0
121.727692	0.792373	city	10	1	0.943712	0.943712	0	1	0	0	CorrectCommission	0.880413	0.600668	1	0
122.519951	0.792157	mountain	5	0	0.000000	0.840514	1	0	0	0	CorrectOmission	0.344487	0.588958	1	0
123.312202	0.792335	city	5	1	0.753061	0.753061	0	1	0	0	CorrectCommission	0.109673	0.588136	1	0
124.104477	0.792222	city	4	1	0.900263	0.900263	0	1	0	0	CorrectCommission	0.654777	0.597505	1	0
124.896706	0.792236	city	10	1	0.942878	0.942878	0	1	0	0	CorrectCommission	0.876085	0.616057	1	0
125.688995	0.792337	mountain	2	0	0.000000	0.931270	1	0	0	0	CorrectOmission	0.815798	0.642594	1	0
126.481262	0.792193	city	2	1	0.852928	0.852928	0	1	0	0	CorrectCommission	0.408953	0.675745	1	0
127.273514	0.792322	city	9	1	0.695344	0.695344	0	1	0	0	CorrectCommission	0.409410	0.713970	1	1
128.065781	0.792213	city	3	1	0.794421	0.794421	0	1	0	0	CorrectCommission	0.105116	0.755503	1	1
128.858017	0.792259	city	2	1	0.911317	0.911317	0	1	0	0	CorrectCommission	0.712182	0.798454	0	1
129.650284	0.792266	city	5	1	1.042363	1.042363	0	1	0	0	CorrectCommission	1.392725	0.840877	0	1
130.442551	0.792265	mountain	8	0	0.000000	0.980632	1	0	0	0	CorrectOmission	1.072148	0.880897	0	1
131.234863	0.792372	city	4	1	0.907294	0.907294	0	1	0	0	CorrectCommission	0.691288	0.916898	0	1
132.027130	0.792157	city	10	1	1.003515	1.003515	0	1	0	0	CorrectCommission	1.190984	0.947692	0	1
132.819382	0.792347	city	1	1	1.050999	1.050999	0	1	0	0	CorrectCommission	1.437574	0.972642	0	1
133.611649	0.792183	city	9	1	1.003771	1.003771	0	1	0	0	CorrectCommission	1.192310	0.991727	0	1
134.403870	0.792267	city	4	1	1.091580	1.091580	0	1	0	0	CorrectCommission	1.648323	1.005504	0	1
135.196198	0.792370	city	1	1	1.042260	1.042260	0	1	0	0	CorrectCommission	1.392194	1.014893	0	1
135.988495	0.792228	city	8	1	0.850390	0.850390	0	1	0	0	CorrectCommission	0.395772	1.020943	0	1
136.780701	0.792196	city	5	1	0.744888	0.744888	0	1	0	0	CorrectCommission	0.152120	1.024584	0	1
137.572937	0.792262	city	6	1	0.561232	0.561232	0	1	0	0	CorrectCommission	1.105881	1.026350	0	1
138.365189	0.792264	city	10	1	0.547136	0.547136	0	1	0	0	CorrectCommission	1.179082	1.026240	0	1
139.157516	0.792374	city	1	1	0.707757	0.707757	0	1	0	0	CorrectCommission	0.344947	1.023732	0	1
139.949829	0.792264	city	4	0	0.000000	0.612244	0	0	0	1	OmissionError	0.840961	1.017945	0	1
140.742035	0.792156	city	7	1	0.447616	0.447616	0	1	0	0	CorrectCommission	1.695911	1.007809	0	1
141.534256	0.792268	city	4	1	0.400887	0.400887	0	1	0	0	CorrectCommission	1.938580	0.992366	0	1
142.326538	0.792314	city	10	1	0.400636	0.400636	0	1	0	0	CorrectCommission	1.939884	0.971030	0	1
143.118820	0.792253	city	1	1	0.711889	0.711889	0	1	0	0	CorrectCommission	0.323490	0.943747	0	1
143.911072	0.792224	city	7	1	0.645756	0.645756	0	1	0	0	CorrectCommission	0.666928	0.911059	0	1
144.703339	0.792323	city	4	1	0.596543	0.596543	0	1	0	0	CorrectCommission	0.922501	0.873939	0	1
145.495605	0.792206	city	7	1	0.547912	0.547912	0	1	0	0	CorrectCommission	1.175050	0.833663	0	1
146.287842	0.792273	city	1	1	0.645790	0.645790	0	1	0	0	CorrectCommission	0.666752	0.791580	1	1
147.080109	0.792260	city	7	1	0.809150	0.809150	0	1	0	0	CorrectCommission	0.181608	0.748934	1	1
147.872375	0.792261	city	10	1	0.794321	0.794321	0	1	0	0	CorrectCommission	0.104595	0.706733	1	1
148.664642	0.792289	city	9	1	0.846447	0.846447	0	1	0	0	CorrectCommission	0.375298	0.665699	1	1
149.456909	0.792252	city	8	1	1.091387	1.091387	0	1	0	0	CorrectCommission	1.647320	0.626296	1	1
150.249283	0.792473	city	9	0	0.000000	1.022489	0	0	0	1	OmissionError	1.289518	0.588815	1	1
151.041550	0.792063	city	6	1	0.843879	0.843879	0	1	0	0	CorrectCommission	0.361963	0.553525	1	1
151.833710	0.792263	city	3	1	0.759684	0.759684	0	1	0	0	CorrectCommission	0.075277	0.520717	1	1
152.625961	0.792248	city	7	1	0.812132	0.812132	0	1	0	0	CorrectCommission	0.197093	0.490728	1	1
153.418274	0.792376	city	4	1	0.700020	0.700020	0	1	0	0	CorrectCommission	0.385126	0.463957	1	1
154.210556	0.792182	mountain	5	1	0.699737	0.699737	0	0	1	0	CommissionError	0.386596	0.440804	1	1
155.002777	0.792247	city	10	1	0.893635	0.893635	0	1	0	0	CorrectCommission	0.620355	0.421629	1	1
155.795029	0.792256	city	8	1	0.803309	0.803309	0	1	0	0	CorrectCommission	0.151272	0.406678	1	1
156.587311	0.792320	city	4	1	0.815345	0.815345	0	1	0	0	CorrectCommission	0.213781	0.396105	1	1
157.379593	0.792239	mountain	10	0	0.000000	0.740149	1	0	0	0	CorrectOmission	0.176728	0.389940	1	1
158.171829	0.792238	city	1	1	0.661073	0.661073	0	1	0	0	CorrectCommission	0.587385	0.388121	1	1
158.964081	0.792264	city	3	1	0.661471	0.661471	0	1	0	0	CorrectCommission	0.585319	0.390556	1	1
159.756393	0.792372	city	9	1	0.699207	0.699207	0	1	0	0	CorrectCommission	0.389350	0.397145	1	1
160.548660	0.792153	city	5	1	0.748241	0.748241	0	1	0	0	CorrectCommission	0.134706	0.407835	1	1
161.340866	0.792269	city	1	1	0.745304	0.745304	0	1	0	0	CorrectCommission	0.149957	0.422601	1	1
162.133133	0.792263	mountain	6	0	0.000000	0.684696	1	0	0	0	CorrectOmission	0.464708	0.441414	1	1
162.925461	0.792372	city	9	1	0.645676	0.645676	0	1	0	0	CorrectCommission	0.667343	0.464184	1	1
163.717773	0.792264	city	1	1	0.707507	0.707507	0	1	0	0	CorrectCommission	0.346245	0.490726	1	1
164.509979	0.792157	city	8	1	0.704247	0.704247	0	1	0	0	CorrectCommission	0.363173	0.520713	1	1
165.302216	0.792320	city	2	1	0.646225	0.646225	0	1	0	0	CorrectCommission	0.664496	0.553633	1	1
166.094482	0.792208	city	4	1	0.645683	0.645683	0	1	0	0	CorrectCommission	0.667307	0.588774	1	1
166.886719	0.792268	mountain	1	0	0.000000	0.711677	1	0	0	0	CorrectOmission	0.324587	0.625245	1	1
167.679047	0.792372	city	3	1	0.744807	0.744807	0	1	0	0	CorrectCommission	0.152538	0.662046	1	1
168.471313	0.792156	city	6	1	0.645673	0.645673	0	1	0	0	CorrectCommission	0.667362	0.698151	1	1
169.263519	0.792264	city	10	1	0.651260	0.651260	0	1	0	0	CorrectCommission	0.638345	0.732607	1	1
170.055893	0.792483	city	1	1	1.141217	1.141217	0	1	0	0	CorrectCommission	1.906097	0.764608	1	1
170.848206	0.792155	city	6	1	1.041636	1.041636	0	1	0	0	CorrectCommission	1.388951	0.793509	1	1
171.640427	0.792265	mountain	8	0	0.000000	0.973285	1	0	0	0	CorrectOmission	1.033991	0.818873	0	1
172.432663	0.792207	city	2	1	0.893276	0.893276	0	1	0	0	CorrectCommission	0.618489	0.840309	0	1
173.224884	0.792253	city	1	1	0.758720	0.758720	0	1	0	0	CorrectCommission	0.080283	0.857405	0	1
174.017120	0.792226	city	3	1	0.893364	0.893364	0	1	0	0	CorrectCommission	0.618946	0.869635	0	1
174.809418	0.792371	city	5	1	0.695250	0.695250	0	1	0	0	CorrectCommission	0.409896	0.876302	0	1
175.601791	0.792375	city	3	1	0.843697	0.843697	0	1	0	0	CorrectCommission	0.361018	0.876683	0	1
176.394043	0.792125	city	5	1	1.140726	1.140726	0	1	0	0	CorrectCommission	1.903546	0.870204	0	1
177.186310	0.792403	city	4	0	0.000000	1.209941	0	0	0	1	OmissionError	2.262995	0.856678	0	1
177.978577	0.792115	city	1	1	1.108654	1.108654	0	1	0	0	CorrectCommission	1.736991	0.836524	0	1
178.770844	0.792415	city	2	1	0.894175	0.894175	0	1	0	0	CorrectCommission	0.623161	0.810875	0	1
179.563171	0.792264	city	5	1	0.794089	0.794089	0	1	0	0	CorrectCommission	0.103394	0.781577	1	1
180.355331	0.792052	mountain	9	0	0.000000	0.711844	1	0	0	0	CorrectOmission	0.323724	0.750994	1	1
181.147491	0.792265	city	9	1	0.646405	0.646405	0	1	0	0	CorrectCommission	0.663560	0.721737	1	1
181.939865	0.792478	city	1	1	0.596739	0.596739	0	1	0	0	CorrectCommission	0.921484	0.696361	1	1
182.732132	0.792050	city	4	1	0.701095	0.701095	0	1	0	0	CorrectCommission	0.379541	0.677055	1	1
183.524277	0.792261	city	7	1	0.747632	0.747632	0	1	0	0	CorrectCommission	0.137869	0.665431	1	1
184.316650	0.792484	city	5	1	0.906856	0.906856	0	1	0	0	CorrectCommission	0.689013	0.662392	1	1
185.109024	0.792264	city	4	1	0.794361	0.794361	0	1	0	0	CorrectCommission	0.104806	0.668136	1	1
185.901184	0.792048	city	8	1	0.744565	0.744565	0	1	0	0	CorrectCommission	0.153792	0.682308	1	1
186.693420	0.792427	city	4	1	1.008931	1.008931	0	1	0	0	CorrectCommission	1.219107	0.704174	1	0
187.485687	0.792101	city	5	1	0.898963	0.898963	0	1	0	0	CorrectCommission	0.648025	0.732800	1	0
188.277878	0.792270	city	4	0	0.000000	1.024144	0	0	0	1	OmissionError	1.298114	0.767329	1	0
189.070160	0.792308	city	6	1	1.091382	1.091382	0	1	0	0	CorrectCommission	1.647291	0.807010	0	0
189.862427	0.792216	city	7	1	0.807584	0.807584	0	1	0	0	CorrectCommission	0.173477	0.851228	0	0
190.654663	0.792270	city	6	1	0.761615	0.761615	0	1	0	0	CorrectCommission	0.065249	0.899429	0	0
191.446991	0.792370	city	10	1	0.795776	0.795776	0	1	0	0	CorrectCommission	0.112152	0.950860	0	0
192.239258	0.792162	city	6	1	1.194108	1.194108	0	1	0	0	CorrectCommission	2.180769	1.004440	0	0
193.031464	0.792260	city	2	1	1.042080	1.042080	0	1	0	0	CorrectCommission	1.391256	1.058572	0	0
193.823730	0.792276	city	3	1	0.794951	0.794951	0	1	0	0	CorrectCommission	0.107869	1.111147	0	0
194.615997	0.792252	city	2	1	0.596235	0.596235	0	1	0	0	CorrectCommission	0.924100	1.159652	0	0
195.408249	0.792264	city	8	1	0.510859	0.510859	0	1	0	0	CorrectCommission	1.367475	1.201335	0	0
196.200516	0.792265	city	6	1	0.497221	0.497221	0	1	0	0	CorrectCommission	1.438302	1.233613	0	0
196.992844	0.792374	city	9	1	0.409021	0.409021	0	1	0	0	CorrectCommission	1.896339	1.254462	0	0
197.785110	0.792187	city	2	1	0.398120	0.398120	0	1	0	0	CorrectCommission	1.952953	1.262722	0	0
198.577332	0.792233	city	6	1	0.405045	0.405045	0	1	0	0	CorrectCommission	1.916986	1.258373	0	0
199.369690	0.792483	city	8	1	0.447710	0.447710	0	1	0	0	CorrectCommission	1.695419	1.242604	0	0
200.161957	0.792070	city	7	1	0.508257	0.508257	0	1	0	0	CorrectCommission	1.380988	1.217698	0	0
200.954117	0.792241	city	4	1	0.497161	0.497161	0	1	0	0	CorrectCommission	1.438612	1.186701	0	0
201.746475	0.792483	city	1	1	0.555989	0.555989	0	1	0	0	CorrectCommission	1.133107	1.152931	0	0
202.538803	0.792156	city	9	1	0.794099	0.794099	0	1	0	0	CorrectCommission	0.103446	1.119486	0	0
203.330963	0.792167	city	5	1	0.843755	0.843755	0	1	0	0	CorrectCommission	0.361318	1.088758	0	0
204.123169	0.792254	city	3	1	0.843840	0.843840	0	1	0	0	CorrectCommission	0.361760	1.062080	0	0
204.915436	0.792268	mountain	6	0	0.000000	0.916266	1	0	0	0	CorrectOmission	0.737883	1.039689	0	0
205.707718	0.792295	city	9	1	0.992734	0.992734	0	1	0	0	CorrectCommission	1.134997	1.020835	0	0
206.499969	0.792231	city	1	1	1.004946	1.004946	0	1	0	0	CorrectCommission	1.198414	1.004117	0	0
207.292221	0.792266	mountain	6	0	0.000000	1.185774	1	0	0	0	CorrectOmission	2.137489	0.987934	0	0
208.084488	0.792267	city	8	1	1.195719	1.195719	0	1	0	0	CorrectCommission	2.189137	0.970859	0	0
208.876755	0.792266	city	2	1	0.695283	0.695283	0	1	0	0	CorrectCommission	0.409728	0.951997	0	0
209.669022	0.792262	city	3	1	0.898122	0.898122	0	1	0	0	CorrectCommission	0.643655	0.931126	0	0
210.461304	0.792313	city	4	1	0.764128	0.764128	0	1	0	0	CorrectCommission	0.052199	0.908651	0	0
211.253586	0.792254	city	3	1	0.904572	0.904572	0	1	0	0	CorrectCommission	0.677150	0.885538	0	0
212.045837	0.792227	city	2	1	1.105036	1.105036	0	1	0	0	CorrectCommission	1.718201	0.863001	0	0
212.838074	0.792266	city	9	1	1.009221	1.009221	0	1	0	0	CorrectCommission	1.220615	0.842256	0	0
213.630402	0.792371	city	3	1	0.895921	0.895921	0	1	0	0	CorrectCommission	0.632227	0.824328	0	0
214.422775	0.792372	city	5	1	0.745814	0.745814	0	1	0	0	CorrectCommission	0.147310	0.809823	0	0
215.215027	0.792156	city	2	1	0.760987	0.760987	0	1	0	0	CorrectCommission	0.068512	0.798855	0	0
216.007233	0.792232	city	4	1	0.706227	0.706227	0	1	0	0	CorrectCommission	0.352894	0.791058	1	0
216.799438	0.792201	city	10	1	0.547983	0.547983	0	1	0	0	CorrectCommission	1.174683	0.785708	1	0
217.591782	0.792476	city	3	1	0.447697	0.447697	0	1	0	0	CorrectCommission	1.695486	0.781897	1	0
218.384048	0.792054	city	2	1	0.598359	0.598359	0	1	0	0	CorrectCommission	0.913070	0.778757	1	0
219.176208	0.792254	city	7	1	0.596215	0.596215	0	1	0	0	CorrectCommission	0.924207	0.775659	1	0
219.968460	0.792263	mountain	5	0	0.000000	0.653488	1	0	0	0	CorrectOmission	0.626776	0.772343	1	0
220.760727	0.792264	city	3	1	0.695309	0.695309	0	1	0	0	CorrectCommission	0.409589	0.768950	1	0
221.553040	0.792375	city	9	1	0.646809	0.646809	0	1	0	0	CorrectCommission	0.661459	0.765977	1	0
222.345367	0.792264	city	1	1	0.646001	0.646001	0	1	0	0	CorrectCommission	0.665658	0.764171	1	0
223.137680	0.792372	mountain	4	0	0.000000	0.594734	1	0	0	0	CorrectOmission	0.931894	0.764366	1	0
223.929886	0.792050	city	10	1	0.559226	0.559226	0	1	0	0	CorrectCommission	1.116297	0.767292	1	0
224.722061	0.792286	city	7	1	0.605691	0.605691	0	1	0	0	CorrectCommission	0.874992	0.773401	1	0
225.514328	0.792244	city	3	1	0.750586	0.750586	0	1	0	0	CorrectCommission	0.122528	0.782717	1	0
226.306580	0.792265	city	6	1	0.893741	0.893741	0	1	0	0	CorrectCommission	0.620906	0.794781	1	0
227.098862	0.792311	city	3	1	0.695485	0.695485	0	1	0	0	CorrectCommission	0.408676	0.808540	0	0
227.891129	0.792213	city	9	1	0.645861	0.645861	0	1	0	0	CorrectCommission	0.666386	0.822478	0	0
228.683365	0.792270	city	8	1	0.556050	0.556050	0	1	0	0	CorrectCommission	1.132788	0.834765	0	0
229.475632	0.792260	city	1	1	0.596228	0.596228	0	1	0	0	CorrectCommission	0.924136	0.843473	0	0
230.267899	0.792267	city	4	1	0.546704	0.546704	0	1	0	0	CorrectCommission	1.181324	0.846911	0	0
231.060165	0.792266	city	8	1	0.546705	0.546705	0	1	0	0	CorrectCommission	1.181321	0.843859	0	0
231.852432	0.792263	city	5	1	0.497224	0.497224	0	1	0	0	CorrectCommission	1.438284	0.833809	0	0
232.644699	0.792261	city	4	1	0.547803	0.547803	0	1	0	0	CorrectCommission	1.175620	0.817040	0	0
233.436966	0.792270	city	3	1	0.596307	0.596307	0	1	0	0	CorrectCommission	0.923728	0.794606	1	0
234.229233	0.792264	city	2	1	0.744769	0.744769	0	1	0	0	CorrectCommission	0.152733	0.768196	1	0
235.021545	0.792371	city	4	1	0.905854	0.905854	0	1	0	0	CorrectCommission	0.683809	0.739971	1	0
235.813919	0.792373	city	8	1	0.945375	0.945375	0	1	0	0	CorrectCommission	0.889051	0.712274	1	0
236.606125	0.792049	city	1	1	0.807945	0.807945	0	1	0	0	CorrectCommission	0.175350	0.687398	1	0
237.398285	0.792262	city	5	1	0.907512	0.907512	0	1	0	0	CorrectCommission	0.692419	0.667406	1	0
238.190659	0.792482	city	4	1	0.911722	0.911722	0	1	0	0	CorrectCommission	0.714286	0.653952	1	0
238.982925	0.792049	city	5	1	0.751112	0.751112	0	1	0	0	CorrectCommission	0.119797	0.648214	1	0
239.775085	0.792291	city	10	1	0.844292	0.844292	0	1	0	0	CorrectCommission	0.364109	0.650853	1	0
240.567368	0.792277	city	9	1	0.905788	0.905788	0	1	0	0	CorrectCommission	0.683465	0.661996	1	0
241.359619	0.792225	city	1	1	0.992515	0.992515	0	1	0	0	CorrectCommission	1.133858	0.681257	1	0
242.151871	0.792280	city	2	1	0.911447	0.911447	0	1	0	0	CorrectCommission	0.712856	0.707728	1	0
242.944138	0.792249	city	4	1	0.794316	0.794316	0	1	0	0	CorrectCommission	0.104573	0.740032	1	0
243.736404	0.792288	city	10	1	0.608866	0.608866	0	1	0	0	CorrectCommission	0.858505	0.776302	1	0
244.528778	0.792460	city	1	1	0.843923	0.843923	0	1	0	0	CorrectCommission	0.362192	0.814219	0	0
245.321045	0.792048	city	4	1	0.893103	0.893103	0	1	0	0	CorrectCommission	0.617593	0.851191	0	0
246.113220	0.792304	city	7	1	0.908970	0.908970	0	1	0	0	CorrectCommission	0.699991	0.884423	0	1
246.905594	0.792443	city	9	1	1.091430	1.091430	0	1	0	0	CorrectCommission	1.647541	0.911255	0	1
247.697861	0.792108	city	8	1	1.151400	1.151400	0	1	0	0	CorrectCommission	1.958977	0.929345	0	1
248.490021	0.792209	mountain	6	0	0.000000	0.957078	1	0	0	0	CorrectOmission	0.949826	0.937030	0	1
249.282272	0.792293	city	5	1	0.843966	0.843966	0	1	0	0	CorrectCommission	0.362412	0.933536	0	1
250.074539	0.792230	city	2	1	1.147565	1.147565	0	1	0	0	CorrectCommission	1.939062	0.919083	0	1
250.866806	0.792330	city	6	0	0.000000	1.100198	0	0	0	1	OmissionError	1.693076	0.894890	0	1
251.659073	0.792203	city	7	1	0.893270	0.893270	0	1	0	0	CorrectCommission	0.618457	0.863149	0	1
252.451324	0.792295	city	1	0	0.000000	0.718185	0	0	0	1	OmissionError	0.290790	0.826769	0	1
253.243591	0.792235	city	2	1	0.612178	0.612178	0	1	0	0	CorrectCommission	0.841305	0.789057	1	1
254.035843	0.792265	city	8	1	0.612482	0.612482	0	1	0	0	CorrectCommission	0.839726	0.753396	1	1
254.828217	0.792480	mountain	3	0	0.000000	0.716914	1	0	0	0	CorrectOmission	0.297393	0.722897	1	1
255.620483	0.792048	city	2	1	0.851653	0.851653	0	1	0	0	CorrectCommission	0.402336	0.700162	1	1
256.412689	0.792374	city	4	1	0.942883	0.942883	0	1	0	0	CorrectCommission	0.876106	0.687019	1	1
257.204956	0.792156	city	8	1	0.745354	0.745354	0	1	0	0	CorrectCommission	0.149696	0.684445	1	1
257.997284	0.792481	city	5	1	0.794335	0.794335	0	1	0	0	CorrectCommission	0.104668	0.692581	1	1
258.789551	0.792074	city	9	1	0.845003	0.845003	0	1	0	0	CorrectCommission	0.367800	0.710766	1	1
259.581726	0.792292	city	6	1	0.844171	0.844171	0	1	0	0	CorrectCommission	0.363480	0.737724	1	1
260.374054	0.792320	city	8	1	1.144482	1.144482	0	1	0	0	CorrectCommission	1.923051	0.771795	1	1
261.166290	0.792157	city	3	0	0.000000	0.803292	0	0	0	1	OmissionError	0.151187	0.811092	0	1
261.958496	0.792266	city	8	1	0.447656	0.447656	0	1	0	0	CorrectCommission	1.695700	0.853789	0	1
262.750793	0.792334	city	6	1	0.704627	0.704627	0	1	0	0	CorrectCommission	0.361199	0.898103	0	1
263.543060	0.792224	city	10	1	1.041829	1.041829	0	1	0	0	CorrectCommission	1.389955	0.942488	0	1
264.335297	0.792232	city	3	1	0.546684	0.546684	0	1	0	0	CorrectCommission	1.181431	0.985482	0	1
265.127655	0.792484	city	5	1	0.744932	0.744932	0	1	0	0	CorrectCommission	0.151890	1.025754	0	1
265.919922	0.792057	mountain	4	0	0.000000	0.878836	1	0	0	0	CorrectOmission	0.543498	1.062054	0	1
266.712067	0.792256	city	4	1	0.992352	0.992352	0	1	0	0	CorrectCommission	1.133013	1.093170	0	1
267.504333	0.792264	mountain	8	0	0.000000	1.129439	1	0	0	0	CorrectOmission	1.844932	1.117923	0	1
268.296600	0.792265	mountain	3	0	0.000000	1.206778	1	0	0	0	CorrectOmission	2.246567	1.135255	0	1
269.088867	0.792274	city	6	1	1.141050	1.141050	0	1	0	0	CorrectCommission	1.905230	1.144295	0	1
269.881134	0.792256	city	9	1	0.848938	0.848938	0	1	0	0	CorrectCommission	0.388234	1.144387	0	1
270.673401	0.792266	city	10	1	0.559927	0.559927	0	1	0	0	CorrectCommission	1.112654	1.135132	0	1
271.465698	0.792303	city	6	1	0.794650	0.794650	0	1	0	0	CorrectCommission	0.106307	1.116366	0	1
272.257965	0.792227	city	2	1	0.992473	0.992473	0	1	0	0	CorrectCommission	1.133637	1.088287	0	1
273.050201	0.792263	city	1	1	1.190552	1.190552	0	1	0	0	CorrectCommission	2.162303	1.051415	0	1
273.842468	0.792264	city	5	1	1.091407	1.091407	0	1	0	0	CorrectCommission	1.647424	1.006664	0	1
274.634735	0.792267	city	6	1	0.992339	0.992339	0	1	0	0	CorrectCommission	1.132943	0.955491	0	1
275.427094	0.792481	city	9	1	0.942857	0.942857	0	1	0	0	CorrectCommission	0.875974	0.899798	0	1
276.219360	0.792048	city	1	1	0.992301	0.992301	0	1	0	0	CorrectCommission	1.132747	0.841878	0	1
277.011536	0.792266	city	10	1	0.844270	0.844270	0	1	0	0	CorrectCommission	0.363990	0.784327	1	1
277.803802	0.792275	city	5	1	0.794886	0.794886	0	1	0	0	CorrectCommission	0.107530	0.729848	1	1
278.596039	0.792249	city	2	1	0.906847	0.906847	0	1	0	0	CorrectCommission	0.688967	0.681075	1	1
279.388306	0.792270	city	9	1	0.843842	0.843842	0	1	0	0	CorrectCommission	0.361771	0.640335	1	1
280.180573	0.792261	mountain	10	0	0.000000	0.865763	1	0	0	0	CorrectOmission	0.475610	0.609588	1	1
280.972839	0.792264	city	6	1	0.844320	0.844320	0	1	0	0	CorrectCommission	0.364252	0.590264	1	1
281.765106	0.792268	city	1	1	0.651224	0.651224	0	1	0	0	CorrectCommission	0.638532	0.583265	1	1
282.557495	0.792480	city	9	1	0.753821	0.753821	0	1	0	0	CorrectCommission	0.105727	0.588936	1	1
283.349731	0.792051	mountain	4	0	0.000000	0.895668	1	0	0	0	CorrectOmission	0.630911	0.607062	1	1
284.141907	0.792259	city	9	1	0.942839	0.942839	0	1	0	0	CorrectCommission	0.875878	0.636830	1	1
284.934204	0.792374	city	1	1	0.761407	0.761407	0	1	0	0	CorrectCommission	0.066334	0.676867	1	1
285.726471	0.792156	mountain	7	0	0.000000	0.772392	1	0	0	0	CorrectOmission	0.009281	0.725288	1	1
286.518707	0.792264	city	2	1	0.893391	0.893391	0	1	0	0	CorrectCommission	0.619088	0.779724	1	1
287.310944	0.792267	city	3	1	1.041997	1.041997	0	1	0	0	CorrectCommission	1.390829	0.837430	0	1
288.103241	0.792288	city	2	1	0.547177	0.547177	0	1	0	0	CorrectCommission	1.178870	0.895369	0	1
288.895508	0.792241	mountain	7	0	0.000000	0.825627	1	0	0	0	CorrectOmission	0.267177	0.950449	0	1
289.687805	0.792374	city	10	1	1.199813	1.199813	0	1	0	0	CorrectCommission	2.210394	0.999658	0	1
290.480072	0.792172	city	9	1	0.992197	0.992197	0	1	0	0	CorrectCommission	1.132203	1.040213	0	1
291.272278	0.792249	city	7	1	0.794939	0.794939	0	1	0	0	CorrectCommission	0.107807	1.069879	0	1
292.064545	0.792267	city	8	1	0.497381	0.497381	0	1	0	0	CorrectCommission	1.437470	1.087064	0	1
292.856842	0.792322	city	4	1	0.317180	0.317180	0	1	0	0	CorrectCommission	2.373287	1.090944	0	1
293.649109	0.792207	city	8	1	1.091382	1.091382	0	1	0	0	CorrectCommission	1.647291	1.081562	0	1
294.441345	0.792263	city	4	1	1.042376	1.042376	0	1	0	0	CorrectCommission	1.392797	1.059892	0	1
295.233673	0.792372	city	9	1	0.949237	0.949237	0	1	0	0	CorrectCommission	0.909106	1.027710	0	1
296.025970	0.792265	city	10	1	0.796967	0.796967	0	1	0	0	CorrectCommission	0.118337	0.987458	0	1
296.818176	0.792159	city	7	1	0.992419	0.992419	0	1	0	0	CorrectCommission	1.133356	0.942058	0	1
297.610443	0.792370	city	4	1	1.042628	1.042628	0	1	0	0	CorrectCommission	1.394103	0.894602	0	1
298.402710	0.792158	city	10	1	1.003535	1.003535	0	1	0	0	CorrectCommission	1.191086	0.848131	0	1
299.194946	0.792267	city	3	0	0.000000	0.867026	0	0	0	1	OmissionError	0.482169	0.805377	0	1
299.987244	0.792369	city	9	1	0.744945	0.744945	0	1	0	0	CorrectCommission	0.151823	0.768543	1	1
300.779572	0.792265	city	1	1	0.749135	0.749135	0	1	0	0	CorrectCommission	0.130063	0.739107	1	1
301.571838	0.792265	city	7	1	0.946405	0.946405	0	1	0	0	CorrectCommission	0.894401	0.717733	1	1
302.364166	0.792374	city	10	0	0.000000	0.900882	0	0	0	1	OmissionError	0.657990	0.704277	1	1
303.156403	0.792154	city	7	1	0.753726	0.753726	0	1	0	0	CorrectCommission	0.106218	0.697878	1	1
303.948578	0.792160	city	10	1	0.646100	0.646100	0	1	0	0	CorrectCommission	0.665145	0.697127	1	1
304.740784	0.792262	mountain	8	0	0.000000	0.824773	1	0	0	0	CorrectOmission	0.262738	0.700248	1	1
305.533142	0.792483	city	2	0	0.000000	1.052322	0	0	0	1	OmissionError	1.444447	0.705405	1	0
306.325409	0.792047	city	4	1	1.091324	1.091324	0	1	0	0	CorrectCommission	1.646994	0.710897	1	0
307.117676	0.792483	city	9	1	0.704357	0.704357	0	1	0	0	CorrectCommission	0.362605	0.715305	1	0
307.910004	0.792153	city	10	1	0.600842	0.600842	0	1	0	0	CorrectCommission	0.900175	0.717649	1	0
308.702148	0.792161	city	7	1	0.695591	0.695591	0	1	0	0	CorrectCommission	0.408128	0.717336	1	0
309.494385	0.792266	city	4	1	0.645908	0.645908	0	1	0	0	CorrectCommission	0.666142	0.714153	1	0
310.286621	0.792258	city	5	1	0.695858	0.695858	0	1	0	0	CorrectCommission	0.406738	0.708189	1	0
311.079010	0.792484	mountain	7	1	0.893323	0.893323	0	0	1	0	CommissionError	0.618736	0.699843	1	0
311.871307	0.792086	mountain	9	0	0.000000	0.988932	1	0	0	0	CorrectOmission	1.115250	0.689779	1	0
312.663544	0.792444	mountain	8	0	0.000000	0.975832	1	0	0	0	CorrectOmission	1.047221	0.678896	1	0
313.455872	0.792155	city	1	1	0.847173	0.847173	0	1	0	0	CorrectCommission	0.379069	0.668397	1	0
314.248016	0.792157	city	2	1	0.596103	0.596103	0	1	0	0	CorrectCommission	0.924789	0.659686	1	0
315.040222	0.792265	city	8	1	0.646737	0.646737	0	1	0	0	CorrectCommission	0.661836	0.654306	1	0
315.832520	0.792338	city	10	1	0.695315	0.695315	0	1	0	0	CorrectCommission	0.409559	0.653812	1	0
316.624817	0.792256	city	9	1	0.661901	0.661901	0	1	0	0	CorrectCommission	0.583085	0.659603	1	0
317.417084	0.792243	city	7	1	0.646363	0.646363	0	1	0	0	CorrectCommission	0.663779	0.672707	1	0
318.209351	0.792331	city	5	1	0.745098	0.745098	0	1	0	0	CorrectCommission	0.151029	0.693601	1	0
319.001617	0.792157	city	4	1	0.843709	0.843709	0	1	0	0	CorrectCommission	0.361078	0.722071	1	0
319.793854	0.792369	city	5	1	0.756287	0.756287	0	1	0	0	CorrectCommission	0.092922	0.757167	1	0
320.586121	0.792160	mountain	9	0	0.000000	0.859114	1	0	0	0	CorrectOmission	0.441078	0.797276	0	0
321.378357	0.792260	city	10	1	1.003784	1.003784	0	1	0	0	CorrectCommission	1.192379	0.840232	0	0
322.170654	0.792375	city	3	1	1.041893	1.041893	0	1	0	0	CorrectCommission	1.390285	0.883589	0	0
322.962921	0.792155	city	10	1	1.100265	1.100265	0	1	0	0	CorrectCommission	1.693426	0.924851	0	0
323.755249	0.792483	city	1	1	1.046942	1.046942	0	1	0	0	CorrectCommission	1.416507	0.961738	0	0
324.547577	0.792157	city	10	1	0.942875	0.942875	0	1	0	0	CorrectCommission	0.876068	0.992414	0	0
325.339722	0.792157	city	1	1	0.893365	0.893365	0	1	0	0	CorrectCommission	0.618950	1.015579	0	0
326.131927	0.792265	city	5	1	0.894857	0.894857	0	1	0	0	CorrectCommission	0.626701	1.030574	0	0
326.924255	0.792371	city	7	1	1.005174	1.005174	0	1	0	0	CorrectCommission	1.199597	1.037409	0	0
327.716614	0.792373	city	2	1	0.894136	0.894136	0	1	0	0	CorrectCommission	0.622958	1.036749	0	0
328.508820	0.792051	city	7	1	1.196410	1.196410	0	1	0	0	CorrectCommission	2.192722	1.029894	0	0
329.301025	0.792325	city	6	1	1.097706	1.097706	0	1	0	0	CorrectCommission	1.680132	1.018591	0	0
330.093292	0.792204	city	7	1	1.190495	1.190495	0	1	0	0	CorrectCommission	2.162004	1.004918	0	0
330.885498	0.792247	city	9	1	0.695874	0.695874	0	1	0	0	CorrectCommission	0.406654	0.990918	0	0
331.677795	0.792297	mountain	1	1	0.794378	0.794378	0	0	1	0	CommissionError	0.104895	0.978300	0	0
332.470123	0.792354	city	10	1	0.794263	0.794263	0	1	0	0	CorrectCommission	0.104299	0.968044	0	0
333.262360	0.792158	mountain	3	0	0.000000	0.812725	1	0	0	0	CorrectOmission	0.200171	0.960185	0	0
334.054626	0.792375	city	3	1	0.744928	0.744928	0	1	0	0	CorrectCommission	0.151908	0.953744	0	0
334.846924	0.792227	city	1	0	0.000000	0.486042	0	0	0	1	OmissionError	1.496355	0.946904	0	0
335.639130	0.792191	city	3	1	0.447941	0.447941	0	1	0	0	CorrectCommission	1.694220	0.937335	0	0
336.431488	0.792484	city	4	1	1.042502	1.042502	0	1	0	0	CorrectCommission	1.393447	0.922690	0	0
337.223755	0.792047	mountain	3	0	0.000000	1.114667	1	0	0	0	CorrectOmission	1.768214	0.901114	0	0
338.015900	0.792281	city	10	1	0.992505	0.992505	0	1	0	0	CorrectCommission	1.133807	0.871618	0	0
338.808167	0.792247	mountain	2	0	0.000000	1.004087	1	0	0	0	CorrectOmission	1.193953	0.834345	0	0
339.600433	0.792295	city	10	1	0.992339	0.992339	0	1	0	0	CorrectCommission	1.132941	0.790555	1	0
340.392822	0.792452	city	3	1	0.800187	0.800187	0	1	0	0	CorrectCommission	0.135060	0.742465	1	0
341.185181	0.792266	city	4	1	0.712389	0.712389	0	1	0	0	CorrectCommission	0.320893	0.692912	1	0
341.977325	0.792046	city	7	1	0.893109	0.893109	0	1	0	0	CorrectCommission	0.617624	0.644921	1	0
342.769501	0.792265	city	6	1	0.843831	0.843831	0	1	0	0	CorrectCommission	0.361715	0.601292	1	0
343.561737	0.792264	city	2	1	0.744787	0.744787	0	1	0	0	CorrectCommission	0.152643	0.564280	1	0
344.354126	0.792484	city	6	1	0.745267	0.745267	0	1	0	0	CorrectCommission	0.150151	0.535358	1	0
345.146484	0.792264	city	10	1	0.900032	0.900032	0	1	0	0	CorrectCommission	0.653574	0.515150	1	0
345.938751	0.792266	city	1	1	0.854813	0.854813	0	1	0	0	CorrectCommission	0.418743	0.503408	1	0
346.730927	0.792049	mountain	8	0	0.000000	0.861015	1	0	0	0	CorrectOmission	0.450953	0.499236	1	0
347.523071	0.792264	mountain	5	0	0.000000	0.874356	1	0	0	0	CorrectOmission	0.520235	0.501202	1	0
348.315338	0.792260	city	1	1	0.850553	0.850553	0	1	0	0	CorrectCommission	0.396619	0.507631	1	0
349.107605	0.792271	city	4	1	0.745322	0.745322	0	1	0	0	CorrectCommission	0.149863	0.516789	1	0
349.899872	0.792265	city	5	1	0.645770	0.645770	0	1	0	0	CorrectCommission	0.666857	0.527084	1	0
350.692200	0.792369	city	10	1	0.547005	0.547005	0	1	0	0	CorrectCommission	1.179764	0.537205	1	0
351.484467	0.792200	city	1	0	0.000000	0.670569	0	0	0	1	OmissionError	0.538069	0.546265	1	0
352.276794	0.792437	mountain	6	0	0.000000	0.843570	1	0	0	0	CorrectOmission	0.360357	0.553831	1	0
353.069031	0.792051	city	6	1	0.893112	0.893112	0	1	0	0	CorrectCommission	0.617641	0.559932	1	0
353.861237	0.792370	city	10	1	0.646303	0.646303	0	1	0	0	CorrectCommission	0.664090	0.565051	1	0
354.653625	0.792373	city	8	1	0.695171	0.695171	0	1	0	0	CorrectCommission	0.410306	0.570084	1	0
355.445862	0.792117	city	9	1	0.960401	0.960401	0	1	0	0	CorrectCommission	0.967085	0.576198	1	0
356.238037	0.792230	city	6	1	0.713371	0.713371	0	1	0	0	CorrectCommission	0.315790	0.584721	1	0
357.030334	0.792336	city	4	1	0.648046	0.648046	0	1	0	0	CorrectCommission	0.655039	0.596999	1	0
357.822571	0.792159	city	6	1	0.695451	0.695451	0	1	0	0	CorrectCommission	0.408854	0.614212	1	0
358.614777	0.792261	city	3	1	0.794383	0.794383	0	1	0	0	CorrectCommission	0.104918	0.637195	1	0
359.407104	0.792376	city	10	1	0.893314	0.893314	0	1	0	0	CorrectCommission	0.618688	0.666298	1	0
360.199371	0.792158	city	5	1	0.942812	0.942812	0	1	0	0	CorrectCommission	0.875742	0.701254	1	0
360.991577	0.792264	city	3	1	0.847535	0.847535	0	1	0	0	CorrectCommission	0.380950	0.741134	1	0
361.783844	0.792262	city	5	1	0.992358	0.992358	0	1	0	0	CorrectCommission	1.133042	0.784362	1	0
362.576111	0.792271	city	4	1	0.706716	0.706716	0	1	0	0	CorrectCommission	0.350352	0.828768	0	0
363.368378	0.792266	city	8	1	0.645776	0.645776	0	1	0	0	CorrectCommission	0.666824	0.871813	0	0
364.160645	0.792258	city	6	1	0.893315	0.893315	0	1	0	0	CorrectCommission	0.618692	0.910776	0	0
364.952942	0.792375	city	2	0	0.000000	0.572568	0	0	0	1	OmissionError	1.047006	0.943069	0	1
365.745209	0.792155	city	10	1	0.449354	0.449354	0	1	0	0	CorrectCommission	1.686882	0.966525	0	1
366.537445	0.792296	city	1	1	1.289489	1.289489	0	1	0	0	CorrectCommission	2.676102	0.979663	0	1
367.329803	0.792452	city	9	1	1.041974	1.041974	0	1	0	0	CorrectCommission	1.390706	0.981854	0	1
368.122070	0.792073	city	4	1	0.859984	0.859984	0	1	0	0	CorrectCommission	0.445600	0.973399	0	1
368.914246	0.792279	city	10	1	0.794381	0.794381	0	1	0	0	CorrectCommission	0.104909	0.955485	0	1
369.706573	0.792332	city	6	1	1.141013	1.141013	0	1	0	0	CorrectCommission	1.905036	0.929970	0	1
370.498810	0.792159	city	4	1	0.797347	0.797347	0	1	0	0	CorrectCommission	0.120312	0.899166	0	1
371.291016	0.792266	city	7	1	0.614408	0.614408	0	1	0	0	CorrectCommission	0.829727	0.865707	0	1
372.083282	0.792261	city	4	1	0.546942	0.546942	0	1	0	0	CorrectCommission	1.180089	0.832243	0	1
372.875549	0.792268	city	2	1	0.517715	0.517715	0	1	0	0	CorrectCommission	1.331871	0.801271	0	1
373.667877	0.792372	city	7	1	0.695304	0.695304	0	1	0	0	CorrectCommission	0.409616	0.774983	1	1
374.460144	0.792155	city	8	1	0.653844	0.653844	0	1	0	0	CorrectCommission	0.624929	0.755135	1	1
375.252380	0.792323	city	3	1	0.843888	0.843888	0	1	0	0	CorrectCommission	0.362008	0.742911	1	1
376.044647	0.792206	city	4	1	0.748681	0.748681	0	1	0	0	CorrectCommission	0.132419	0.738877	1	1
376.836884	0.792297	city	6	1	0.795122	0.795122	0	1	0	0	CorrectCommission	0.108759	0.742968	1	1
377.629150	0.792231	city	7	1	0.942878	0.942878	0	1	0	0	CorrectCommission	0.876080	0.754562	1	1
378.421448	0.792375	city	2	1	1.011922	1.011922	0	1	0	0	CorrectCommission	1.234642	0.772605	1	1
379.213837	0.792374	mountain	7	0	0.000000	0.967493	1	0	0	0	CorrectOmission	1.003915	0.795796	0	1
380.006042	0.792048	city	4	1	0.899331	0.899331	0	1	0	0	CorrectCommission	0.649934	0.822767	0	1
380.798187	0.792267	city	9	1	0.897174	0.897174	0	1	0	0	CorrectCommission	0.638732	0.852233	0	1
381.590454	0.792245	city	7	0	0.000000	0.634231	0	0	0	1	OmissionError	0.726781	0.883081	0	1
382.382812	0.792498	city	10	1	0.497272	0.497272	0	1	0	0	CorrectCommission	1.438035	0.914405	0	1
383.175110	0.792047	city	2	0	0.000000	0.873067	0	0	0	1	OmissionError	0.513542	0.945480	0	1
383.967255	0.792270	city	8	1	1.194234	1.194234	0	1	0	0	CorrectCommission	2.181422	0.975671	0	1
384.759552	0.792306	city	9	1	0.893389	0.893389	0	1	0	0	CorrectCommission	0.619077	1.004260	0	1
385.551788	0.792218	city	6	1	0.895985	0.895985	0	1	0	0	CorrectCommission	0.632561	1.030456	0	1
386.344055	0.792268	city	7	1	0.744808	0.744808	0	1	0	0	CorrectCommission	0.152532	1.053244	0	1
387.136322	0.792291	city	3	1	0.546646	0.546646	0	1	0	0	CorrectCommission	1.181629	1.071437	0	1
387.928711	0.792453	city	1	1	0.497183	0.497183	0	1	0	0	CorrectCommission	1.438497	1.083869	0	1
388.720947	0.792047	city	7	1	0.565018	0.565018	0	1	0	0	CorrectCommission	1.086216	1.089531	0	1
389.513153	0.792376	city	1	1	0.449541	0.449541	0	1	0	0	CorrectCommission	1.685912	1.087917	0	1
390.305450	0.792203	city	3	1	0.348565	0.348565	0	1	0	0	CorrectCommission	2.210301	1.079174	0	1
391.097656	0.792218	city	6	1	1.042011	1.042011	0	1	0	0	CorrectCommission	1.390900	1.064248	0	1
391.889893	0.792262	city	5	1	0.943188	0.943188	0	1	0	0	CorrectCommission	0.877692	1.044912	0	1
392.682190	0.792323	city	7	1	0.943519	0.943519	0	1	0	0	CorrectCommission	0.879412	1.023522	0	1
393.474457	0.792214	city	10	1	0.893287	0.893287	0	1	0	0	CorrectCommission	0.618549	1.002759	0	1
394.266724	0.792308	city	6	1	0.992937	0.992937	0	1	0	0	CorrectCommission	1.136050	0.985210	0	1
395.058990	0.792217	city	9	1	0.799252	0.799252	0	1	0	0	CorrectCommission	0.130207	0.973019	0	1
395.851257	0.792349	city	10	1	0.695311	0.695311	0	1	0	0	CorrectCommission	0.409579	0.967638	0	1
396.643585	0.792287	city	2	1	0.843699	0.843699	0	1	0	0	CorrectCommission	0.361028	0.969651	0	1
397.435913	0.792375	city	4	1	0.893250	0.893250	0	1	0	0	CorrectCommission	0.618355	0.978799	0	1
398.228149	0.792092	city	3	1	1.190705	1.190705	0	1	0	0	CorrectCommission	2.163095	0.994086	0	1
399.020355	0.792327	city	4	0	0.000000	1.124535	0	0	0	1	OmissionError	1.819463	1.013950	0	1
399.812714	0.792375	city	10	1	0.942695	0.942695	0	1	0	0	CorrectCommission	0.875131	1.036520	0	1
400.604919	0.792050	city	5	1	0.893138	0.893138	0	1	0	0	CorrectCommission	0.617771	1.059796	0	1
401.397064	0.792263	city	8	1	0.851871	0.851871	0	1	0	0	CorrectCommission	0.403468	1.081688	0	1
402.189331	0.792263	city	1	1	0.898208	0.898208	0	1	0	0	CorrectCommission	0.644101	1.100206	0	1
402.981628	0.792288	city	4	1	1.338978	1.338978	0	1	0	0	CorrectCommission	2.933106	1.113462	0	1
403.773895	0.792246	city	10	1	0.794638	0.794638	0	1	0	0	CorrectCommission	0.106241	1.119726	0	1
404.566132	0.792262	city	8	1	0.448589	0.448589	0	1	0	0	CorrectCommission	1.690858	1.117673	0	1
405.358398	0.792267	mountain	1	0	0.000000	0.458930	1	0	0	0	CorrectOmission	1.637151	1.106306	0	1
406.150665	0.792270	city	9	1	0.712474	0.712474	0	1	0	0	CorrectCommission	0.320448	1.085252	0	1
406.942932	0.792255	city	7	1	1.096032	1.096032	0	1	0	0	CorrectCommission	1.671439	1.054857	0	1
407.735199	0.792272	city	2	1	0.596610	0.596610	0	1	0	0	CorrectCommission	0.922152	1.016252	0	1
408.527557	0.792477	city	1	1	1.255756	1.255756	0	1	0	0	CorrectCommission	2.500917	0.971476	0	1
409.319824	0.792047	city	7	1	0.902341	0.902341	0	1	0	0	CorrectCommission	0.665567	0.923306	0	1
410.112000	0.792264	city	10	1	0.600646	0.600646	0	1	0	0	CorrectCommission	0.901194	0.875140	0	1
410.904266	0.792268	city	8	0	0.000000	0.697185	0	0	0	1	OmissionError	0.399848	0.830623	0	1
411.696533	0.792301	city	3	1	0.857061	0.857061	0	1	0	0	CorrectCommission	0.430418	0.793296	1	1
412.488861	0.792333	city	8	1	0.745376	0.745376	0	1	0	0	CorrectCommission	0.149583	0.766204	1	1
413.281219	0.792373	city	3	1	0.744718	0.744718	0	1	0	0	CorrectCommission	0.153001	0.751552	1	1
414.073425	0.792048	city	7	1	0.744708	0.744708	0	1	0	0	CorrectCommission	0.153054	0.750488	1	1
414.865570	0.792260	city	3	1	0.596540	0.596540	0	1	0	0	CorrectCommission	0.922517	0.763043	1	1
415.657837	0.792271	city	7	1	0.546912	0.546912	0	1	0	0	CorrectCommission	1.180246	0.788191	1	1
416.450134	0.792306	mountain	2	0	0.000000	0.744940	1	0	0	0	CorrectOmission	0.151845	0.824140	0	1
417.242401	0.792224	city	9	1	0.942969	0.942969	0	1	0	0	CorrectCommission	0.876555	0.868686	0	1
418.034637	0.792266	city	5	1	0.893341	0.893341	0	1	0	0	CorrectCommission	0.618825	0.919513	0	1
418.826904	0.792261	city	4	1	0.843829	0.843829	0	1	0	0	CorrectCommission	0.361703	0.974592	0	1
419.619202	0.792324	city	8	1	0.349205	0.349205	0	1	0	0	CorrectCommission	2.206976	1.032418	0	1
420.411560	0.792424	city	10	1	1.141446	1.141446	0	1	0	0	CorrectCommission	1.907286	1.092007	0	1
421.203827	0.792104	city	9	0	0.000000	1.140013	0	0	0	1	OmissionError	1.899843	1.152976	0	1
421.995972	0.792209	city	3	0	0.000000	0.806784	0	0	0	1	OmissionError	0.169320	1.215155	0	1
422.788208	0.792263	city	10	1	0.603637	0.603637	0	1	0	0	CorrectCommission	0.885661	1.278269	0	1
423.580505	0.792295	city	8	1	0.992451	0.992451	0	1	0	0	CorrectCommission	1.133526	1.341494	0	1
424.372772	0.792239	city	10	1	0.497310	0.497310	0	1	0	0	CorrectCommission	1.437838	1.403135	0	0
425.165009	0.792265	city	7	1	0.794298	0.794298	0	1	0	0	CorrectCommission	0.104479	1.460529	0	0
425.957397	0.792480	city	5	0	0.000000	1.014161	0	0	0	1	OmissionError	1.246267	1.510144	0	0
426.749664	0.792062	mountain	3	0	0.000000	1.165126	1	0	0	0	CorrectOmission	2.030258	1.547954	0	0
427.541931	0.792466	city	8	0	0.000000	1.255422	0	0	0	1	OmissionError	2.499183	1.570054	0	0
428.334229	0.792115	city	5	0	0.000000	1.293277	0	0	0	1	OmissionError	2.695775	1.573363	0	0
429.126373	0.792201	mountain	10	0	0.000000	1.286921	1	0	0	0	CorrectOmission	2.662766	1.556250	0	0
429.918701	0.792479	city	6	0	0.000000	1.244582	0	0	0	1	OmissionError	2.442889	1.518977	0	0
430.710968	0.792046	city	3	0	0.000000	1.174487	0	0	0	1	OmissionError	2.078875	1.463834	0	0
431.503174	0.792340	city	7	0	0.000000	1.084867	0	0	0	1	OmissionError	1.613457	1.394932	0	0
432.295441	0.792194	city	4	0	0.000000	0.983948	0	0	0	1	OmissionError	1.089367	1.317693	0	0
433.087677	0.792286	city	3	0	0.000000	0.879960	0	0	0	1	OmissionError	0.549338	1.238128	0	0
433.880005	0.792350	city	6	0	0.000000	0.781131	0	0	0	1	OmissionError	0.036101	1.162081	0	0
434.672363	0.792372	city	7	1	0.695690	0.695690	0	1	0	0	CorrectCommission	0.407610	1.094480	0	0
435.464630	0.792156	mountain	6	0	0.000000	0.631866	1	0	0	0	CorrectOmission	0.739065	1.038811	0	0
436.256775	0.792161	city	4	1	0.596493	0.596493	0	1	0	0	CorrectCommission	0.922760	0.996865	0	0
437.049042	0.792370	mountain	4	1	0.596410	0.596410	0	0	1	0	CommissionError	0.923195	0.968712	0	0
437.841370	0.792263	city	6	1	0.695200	0.695200	0	1	0	0	CorrectCommission	0.410159	0.952980	0	0
438.633606	0.792212	city	10	1	0.559771	0.559771	0	1	0	0	CorrectCommission	1.113464	0.947237	0	0
439.425903	0.792426	city	1	1	0.546693	0.546693	0	1	0	0	CorrectCommission	1.181385	0.948476	0	0
440.218170	0.792051	city	7	1	0.503582	0.503582	0	1	0	0	CorrectCommission	1.405267	0.953601	0	0
441.010406	0.792480	city	2	1	0.596382	0.596382	0	1	0	0	CorrectCommission	0.923341	0.959818	0	0
441.802734	0.792155	mountain	10	1	0.611721	0.611721	0	0	1	0	CommissionError	0.843682	0.964947	0	0
442.594910	0.792160	city	7	1	0.596211	0.596211	0	1	0	0	CorrectCommission	0.924228	0.967602	0	0
443.387115	0.792291	city	5	1	0.596358	0.596358	0	1	0	0	CorrectCommission	0.923465	0.967205	0	0
444.179504	0.792451	city	10	1	0.515011	0.515011	0	1	0	0	CorrectCommission	1.345914	0.963929	0	0
444.971802	0.792156	city	4	1	0.547186	0.547186	0	1	0	0	CorrectCommission	1.178820	0.958538	0	0
445.763947	0.792156	city	2	1	0.497242	0.497242	0	1	0	0	CorrectCommission	1.438191	0.952179	0	0
446.556152	0.792265	city	6	1	0.646442	0.646442	0	1	0	0	CorrectCommission	0.663367	0.946088	0	0
447.348419	0.792267	city	5	1	0.646281	0.646281	0	1	0	0	CorrectCommission	0.664203	0.941360	0	0
448.140686	0.792264	city	9	1	0.708843	0.708843	0	1	0	0	CorrectCommission	0.339305	0.938686	0	0
448.932953	0.792266	mountain	5	0	0.000000	0.671268	1	0	0	0	CorrectOmission	0.534441	0.938226	0	0
449.725342	0.792480	city	4	1	0.596380	0.596380	0	1	0	0	CorrectCommission	0.923348	0.939553	0	0
450.517700	0.792265	city	8	1	0.547004	0.547004	0	1	0	0	CorrectCommission	1.179765	0.941738	0	0
451.309845	0.792046	city	9	1	0.610992	0.610992	0	1	0	0	CorrectCommission	0.847466	0.943559	0	0
452.102051	0.792320	mountain	6	1	0.547051	0.547051	0	0	1	0	CommissionError	1.179522	0.943764	0	0
452.894318	0.792209	city	3	1	0.504015	0.504015	0	1	0	0	CorrectCommission	1.403020	0.941329	0	0
453.686646	0.792485	city	7	1	0.546755	0.546755	0	1	0	0	CorrectCommission	1.181063	0.935723	0	0
454.479034	0.792263	city	3	1	0.599797	0.599797	0	1	0	0	CorrectCommission	0.905602	0.927084	0	0
455.271301	0.792265	city	10	1	0.547458	0.547458	0	1	0	0	CorrectCommission	1.177407	0.916267	0	0
456.063446	0.792048	city	1	1	0.596247	0.596247	0	1	0	0	CorrectCommission	0.924037	0.904719	0	0
456.855621	0.792268	city	5	1	0.610078	0.610078	0	1	0	0	CorrectCommission	0.852212	0.894318	0	0
457.647858	0.792261	city	4	1	0.646526	0.646526	0	1	0	0	CorrectCommission	0.662929	0.887067	0	0
458.440125	0.792266	city	2	1	0.645799	0.645799	0	1	0	0	CorrectCommission	0.666705	0.884810	0	0
459.232391	0.792264	city	3	1	0.695757	0.695757	0	1	0	0	CorrectCommission	0.407265	0.888922	0	0
460.024658	0.792268	city	7	1	0.661567	0.661567	0	1	0	0	CorrectCommission	0.584819	0.900121	0	0
460.817047	0.792478	city	1	1	0.596216	0.596216	0	1	0	0	CorrectCommission	0.924201	0.918350	0	0
461.609406	0.792265	city	10	1	0.661810	0.661810	0	1	0	0	CorrectCommission	0.583558	0.942815	0	0
462.401672	0.792265	city	9	1	0.608538	0.608538	0	1	0	0	CorrectCommission	0.860207	0.972151	0	0
463.193939	0.792266	city	6	1	0.549082	0.549082	0	1	0	0	CorrectCommission	1.168977	1.004611	0	0
463.986084	0.792046	city	10	1	0.551792	0.551792	0	1	0	0	CorrectCommission	1.154905	1.038388	0	0
464.778259	0.792268	city	2	1	0.510271	0.510271	0	1	0	0	CorrectCommission	1.370532	1.071829	0	0
465.570526	0.792266	city	3	1	0.546739	0.546739	0	1	0	0	CorrectCommission	1.181141	1.103612	0	0
466.362793	0.792261	mountain	1	0	0.000000	0.484307	1	0	0	0	CorrectOmission	1.505366	1.132820	0	0
467.155060	0.792263	city	9	1	0.448264	0.448264	0	1	0	0	CorrectCommission	1.692543	1.158871	0	0
467.947296	0.792265	city	10	1	0.563902	0.563902	0	1	0	0	CorrectCommission	1.092010	1.181372	0	0
468.739624	0.792375	mountain	5	0	0.000000	0.641200	1	0	0	0	CorrectOmission	0.690588	1.199932	0	0
469.531891	0.792155	city	7	1	0.646683	0.646683	0	1	0	0	CorrectCommission	0.662114	1.213930	0	0
470.324158	0.792347	city	4	1	0.546878	0.546878	0	1	0	0	CorrectCommission	1.180423	1.222402	0	0
471.116455	0.792244	city	6	1	0.546668	0.546668	0	1	0	0	CorrectCommission	1.181513	1.224039	0	0
471.908691	0.792235	city	8	1	0.497176	0.497176	0	1	0	0	CorrectCommission	1.438534	1.217348	0	0
472.700928	0.792233	city	4	1	0.497204	0.497204	0	1	0	0	CorrectCommission	1.438389	1.200902	0	0
473.493164	0.792270	city	7	1	0.398201	0.398201	0	1	0	0	CorrectCommission	1.952531	1.173708	0	0
474.285431	0.792271	city	10	1	0.457379	0.457379	0	1	0	0	CorrectCommission	1.645210	1.135540	0	0
475.077698	0.792255	mountain	5	1	0.448046	0.448046	0	0	1	0	CommissionError	1.693676	1.087233	0	0
475.869965	0.792267	city	9	1	0.547460	0.547460	0	1	0	0	CorrectCommission	1.177401	1.030812	0	0
476.662231	0.792260	city	1	1	0.546739	0.546739	0	1	0	0	CorrectCommission	1.181143	0.969493	0	0
477.454529	0.792332	mountain	7	0	0.000000	0.672966	1	0	0	0	CorrectOmission	0.525624	0.907486	0	0
478.246796	0.792202	city	6	1	0.751694	0.751694	0	1	0	0	CorrectCommission	0.116773	0.849699	0	0
479.039032	0.792263	city	1	1	0.608479	0.608479	0	1	0	0	CorrectCommission	0.860518	0.801330	0	0
479.831390	0.792482	city	2	1	0.655056	0.655056	0	1	0	0	CorrectCommission	0.618630	0.767407	1	0
480.623718	0.792155	mountain	8	0	0.000000	0.720915	1	0	0	0	CorrectOmission	0.276613	0.752413	1	0
481.415985	0.792374	city	10	1	0.752197	0.752197	0	1	0	0	CorrectCommission	0.114159	0.759868	1	0
482.208282	0.792265	city	1	1	0.695045	0.695045	0	1	0	0	CorrectCommission	0.410963	0.792011	1	0
483.000458	0.792045	city	6	1	0.844067	0.844067	0	1	0	0	CorrectCommission	0.362936	0.849584	0	0
483.792725	0.792484	mountain	8	0	0.000000	0.874151	1	0	0	0	CorrectOmission	0.519172	0.931711	0	0
484.585083	0.792264	city	9	1	0.794430	0.794430	0	1	0	0	CorrectCommission	0.105161	1.035890	0	0
485.377258	0.792106	city	6	1	0.614031	0.614031	0	1	0	0	CorrectCommission	0.831683	1.158131	0	0
486.169434	0.792223	city	7	1	0.546883	0.546883	0	1	0	0	CorrectCommission	1.180396	1.293175	0	0
486.961792	0.792465	city	1	1	0.497883	0.497883	0	1	0	0	CorrectCommission	1.434860	1.434860	0	0
