onset	duration	trial_type	image_type	Press	ReactionTime	ReactionTime_Interpolated	CorrectOmission	CorrectCommission	CommissionError	OmissionError	response_type	nonsmoothVarianceTimeCourse	VarianceTimeCourse	In_the_Zone	Reward_trial
8.433906	0.792483	city	4	1	0.751780	0.751780	0	1	0	0	CorrectCommission	0.973355	0.973355	0	1
9.226279	0.792265	city	10	1	0.607812	0.607812	0	1	0	0	CorrectCommission	0.694924	0.947364	0	1
10.018544	0.792264	city	5	1	0.654247	0.654247	0	1	0	0	CorrectCommission	0.156841	0.924773	0	1
10.810699	0.792048	city	9	1	0.696022	0.696022	0	1	0	0	CorrectCommission	0.327239	0.908351	0	1
11.602864	0.792281	city	5	1	0.645758	0.645758	0	1	0	0	CorrectCommission	0.255203	0.899700	0	1
12.395183	0.792357	city	2	1	0.606110	0.606110	0	1	0	0	CorrectCommission	0.714641	0.898955	0	1
13.187443	0.792163	city	6	1	0.596298	0.596298	0	1	0	0	CorrectCommission	0.828348	0.904716	0	1
13.979661	0.792272	city	3	1	0.597134	0.597134	0	1	0	0	CorrectCommission	0.818655	0.914286	0	1
14.771976	0.792357	mountain	10	1	0.646862	0.646862	0	0	1	0	CommissionError	0.242420	0.924116	0	1
15.564233	0.792158	city	8	1	0.551301	0.551301	0	1	0	0	CorrectCommission	1.349765	0.930379	0	1
16.356445	0.792267	mountain	1	1	0.461552	0.461552	0	0	1	0	CommissionError	2.389761	0.929536	0	1
17.148821	0.792485	city	3	1	0.499962	0.499962	0	1	0	0	CorrectCommission	1.944668	0.918938	0	1
17.941195	0.792261	city	8	1	0.596057	0.596057	0	1	0	0	CorrectCommission	0.831140	0.897210	0	1
18.733347	0.792046	city	5	1	0.596111	0.596111	0	1	0	0	CorrectCommission	0.830510	0.864386	0	1
19.525503	0.792266	city	10	1	0.569746	0.569746	0	1	0	0	CorrectCommission	1.136028	0.821815	0	1
20.317877	0.792479	city	2	1	0.596642	0.596642	0	1	0	0	CorrectCommission	0.824353	0.771957	0	1
21.110147	0.792061	city	9	1	0.706755	0.706755	0	1	0	0	CorrectCommission	0.451622	0.717988	0	1
21.902304	0.792251	city	7	1	0.698273	0.698273	0	1	0	0	CorrectCommission	0.353330	0.663368	1	1
22.694567	0.792278	city	2	1	0.695394	0.695394	0	1	0	0	CorrectCommission	0.319968	0.611440	1	1
23.486832	0.792252	city	9	1	0.699764	0.699764	0	1	0	0	CorrectCommission	0.370608	0.565156	1	1
24.279091	0.792265	city	10	1	0.699541	0.699541	0	1	0	0	CorrectCommission	0.368025	0.526871	1	1
25.071409	0.792372	mountain	9	0	0.000000	0.699909	1	0	0	0	CorrectOmission	0.372284	0.498304	1	1
25.863674	0.792160	mountain	7	0	0.000000	0.700056	1	0	0	0	CorrectOmission	0.373986	0.480587	1	1
26.655888	0.792265	city	10	1	0.699171	0.699171	0	1	0	0	CorrectCommission	0.363732	0.474334	1	1
27.448154	0.792270	city	4	1	0.696443	0.696443	0	1	0	0	CorrectCommission	0.332123	0.479750	1	1
28.240421	0.792261	city	10	1	0.655673	0.655673	0	1	0	0	CorrectCommission	0.140317	0.496716	1	1
29.032681	0.792260	mountain	10	1	0.695257	0.695257	0	0	1	0	CommissionError	0.318376	0.524810	1	1
29.825052	0.792483	city	4	1	0.744740	0.744740	0	1	0	0	CorrectCommission	0.891787	0.563292	1	1
30.617319	0.792051	city	10	1	0.599307	0.599307	0	1	0	0	CorrectCommission	0.793481	0.611024	1	1
31.409477	0.792265	city	6	1	0.645762	0.645762	0	1	0	0	CorrectCommission	0.255162	0.666402	1	1
32.201740	0.792260	city	10	1	0.695366	0.695366	0	1	0	0	CorrectCommission	0.319645	0.727311	0	1
32.994049	0.792358	city	5	1	0.695266	0.695266	0	1	0	0	CorrectCommission	0.318485	0.791094	0	1
33.786423	0.792390	city	6	1	0.654987	0.654987	0	1	0	0	CorrectCommission	0.148263	0.854689	0	1
34.578640	0.792047	mountain	4	0	0.000000	0.742608	1	0	0	0	CorrectOmission	0.867074	0.914895	0	1
35.370800	0.792271	city	7	1	0.844643	0.844643	0	1	0	0	CorrectCommission	2.049444	0.968680	0	1
36.163063	0.792260	city	2	1	0.847607	0.847607	0	1	0	0	CorrectCommission	2.083794	1.013558	0	1
36.955338	0.792290	city	9	1	0.794343	0.794343	0	1	0	0	CorrectCommission	1.466576	1.047906	0	1
37.747612	0.792255	mountain	7	0	0.000000	0.795179	1	0	0	0	CorrectOmission	1.476257	1.071156	0	1
38.539974	0.792467	city	4	1	0.794429	0.794429	0	1	0	0	CorrectCommission	1.467572	1.083791	0	1
39.332283	0.792155	mountain	3	0	0.000000	0.736410	1	0	0	0	CorrectOmission	0.795253	1.087177	0	1
40.124447	0.792171	city	6	1	0.645661	0.645661	0	1	0	0	CorrectCommission	0.256331	1.083259	0	1
40.916710	0.792358	city	8	1	0.546723	0.546723	0	1	0	0	CorrectCommission	1.402812	1.074139	0	1
41.708969	0.792156	city	5	1	0.546659	0.546659	0	1	0	0	CorrectCommission	1.403554	1.061654	0	1
42.501179	0.792269	city	8	1	0.596380	0.596380	0	1	0	0	CorrectCommission	0.827395	1.047089	0	1
43.293446	0.792263	city	6	1	0.596232	0.596232	0	1	0	0	CorrectCommission	0.829107	1.030956	0	1
44.085762	0.792372	city	3	1	0.645881	0.645881	0	1	0	0	CorrectCommission	0.253781	1.012991	0	1
44.878029	0.792159	city	9	1	0.596151	0.596151	0	1	0	0	CorrectCommission	0.830049	0.992293	0	1
45.670349	0.792480	city	8	1	0.562822	0.562822	0	1	0	0	CorrectCommission	1.216260	0.967616	0	1
46.462612	0.792048	city	9	1	0.546688	0.546688	0	1	0	0	CorrectCommission	1.403213	0.937770	0	1
47.254768	0.792262	city	5	1	0.506460	0.506460	0	1	0	0	CorrectCommission	1.869374	0.902002	0	1
48.047138	0.792484	city	1	1	0.546638	0.546638	0	1	0	0	CorrectCommission	1.403801	0.860299	0	1
48.839516	0.792266	mountain	8	0	0.000000	0.575162	1	0	0	0	CorrectOmission	1.073269	0.813582	0	1
49.631699	0.792105	city	10	1	0.607068	0.607068	0	1	0	0	CorrectCommission	0.703544	0.763629	0	1
50.423855	0.792206	city	7	1	0.657392	0.657392	0	1	0	0	CorrectCommission	0.120392	0.712883	0	1
51.216095	0.792269	city	10	1	0.713539	0.713539	0	1	0	0	CorrectCommission	0.530235	0.664118	1	1
52.008465	0.792477	city	3	1	0.695261	0.695261	0	1	0	0	CorrectCommission	0.318427	0.619986	1	1
52.800838	0.792265	city	8	1	0.645663	0.645663	0	1	0	0	CorrectCommission	0.256304	0.582699	1	1
53.593037	0.792132	city	9	1	0.695071	0.695071	0	1	0	0	CorrectCommission	0.316226	0.553698	1	1
54.385193	0.792183	city	6	1	0.649537	0.649537	0	1	0	0	CorrectCommission	0.211419	0.533545	1	1
55.177452	0.792332	city	9	1	0.695282	0.695282	0	1	0	0	CorrectCommission	0.318666	0.521919	1	1
55.969715	0.792194	city	4	1	0.661278	0.661278	0	1	0	0	CorrectCommission	0.075362	0.517751	1	1
56.761971	0.792318	city	3	1	0.751728	0.751728	0	1	0	0	CorrectCommission	0.972758	0.519483	1	1
57.554234	0.792212	mountain	7	0	0.000000	0.736494	1	0	0	0	CorrectOmission	0.796224	0.525341	1	1
58.346581	0.792482	city	1	1	0.655738	0.655738	0	1	0	0	CorrectCommission	0.139561	0.533601	1	1
59.138851	0.792057	city	3	1	0.549624	0.549624	0	1	0	0	CorrectCommission	1.369194	0.542838	1	1
59.931007	0.792258	city	10	1	0.611705	0.611705	0	1	0	0	CorrectCommission	0.649812	0.551956	1	1
60.723270	0.792267	city	5	1	0.620222	0.620222	0	1	0	0	CorrectCommission	0.551112	0.560294	1	1
61.515533	0.792260	city	8	1	0.695248	0.695248	0	1	0	0	CorrectCommission	0.318277	0.567504	1	1
62.307796	0.792264	mountain	3	0	0.000000	0.691360	1	0	0	0	CorrectOmission	0.273224	0.573443	1	1
63.100063	0.792267	city	1	1	0.645952	0.645952	0	1	0	0	CorrectCommission	0.252958	0.578056	1	1
63.892330	0.792268	city	2	1	0.596418	0.596418	0	1	0	0	CorrectCommission	0.826954	0.581301	1	1
64.684700	0.792478	city	4	1	0.698694	0.698694	0	1	0	0	CorrectCommission	0.358213	0.583104	1	1
65.476974	0.792070	city	6	1	0.744627	0.744627	0	1	0	0	CorrectCommission	0.890477	0.583459	1	1
66.269142	0.792264	mountain	1	0	0.000000	0.754905	1	0	0	0	CorrectOmission	1.009576	0.582451	1	1
67.061447	0.792351	city	4	1	0.699143	0.699143	0	1	0	0	CorrectCommission	0.363412	0.580386	1	1
67.853760	0.792265	city	7	1	0.546956	0.546956	0	1	0	0	CorrectCommission	1.400115	0.577840	1	0
68.646027	0.792264	city	2	1	0.645776	0.645776	0	1	0	0	CorrectCommission	0.255005	0.575620	1	0
69.438339	0.792374	city	7	1	0.695187	0.695187	0	1	0	0	CorrectCommission	0.317570	0.574758	1	0
70.230553	0.792047	city	8	1	0.650489	0.650489	0	1	0	0	CorrectCommission	0.200380	0.576354	1	0
71.022705	0.792265	city	9	1	0.698015	0.698015	0	1	0	0	CorrectCommission	0.350334	0.581467	1	0
71.815025	0.792375	city	3	1	0.699164	0.699164	0	1	0	0	CorrectCommission	0.363659	0.590977	1	0
72.607346	0.792264	city	5	1	0.603713	0.603713	0	1	0	0	CorrectCommission	0.742423	0.605484	1	0
73.399612	0.792262	city	3	1	0.713609	0.713609	0	1	0	0	CorrectCommission	0.531044	0.625210	1	0
74.191933	0.792375	city	4	1	0.794355	0.794355	0	1	0	0	CorrectCommission	1.466711	0.649966	1	0
74.984192	0.792155	city	7	1	0.656955	0.656955	0	1	0	0	CorrectCommission	0.125463	0.679139	1	0
75.776352	0.792156	city	9	1	0.695196	0.695196	0	1	0	0	CorrectCommission	0.317671	0.711798	0	0
76.568672	0.792483	city	8	1	0.645866	0.645866	0	1	0	0	CorrectCommission	0.253957	0.746644	0	0
77.360992	0.792157	city	4	1	0.613838	0.613838	0	1	0	0	CorrectCommission	0.625090	0.782184	0	0
78.153175	0.792209	city	3	1	0.561401	0.561401	0	1	0	0	CorrectCommission	1.232727	0.816840	0	0
78.945381	0.792210	city	2	1	0.546704	0.546704	0	1	0	0	CorrectCommission	1.403029	0.849084	0	0
79.737617	0.792267	city	6	1	0.601252	0.601252	0	1	0	0	CorrectCommission	0.770938	0.877591	0	0
80.529884	0.792263	city	2	1	0.550855	0.550855	0	1	0	0	CorrectCommission	1.354929	0.901333	0	0
81.322151	0.792267	city	5	1	0.596285	0.596285	0	1	0	0	CorrectCommission	0.828495	0.919566	0	0
82.114418	0.792267	city	8	1	0.550447	0.550447	0	1	0	0	CorrectCommission	1.359664	0.931854	0	0
82.906685	0.792263	city	5	1	0.600203	0.600203	0	1	0	0	CorrectCommission	0.783090	0.937943	0	0
83.699051	0.792480	city	10	1	0.546843	0.546843	0	1	0	0	CorrectCommission	1.401425	0.937680	0	0
84.491318	0.792050	city	3	1	0.645930	0.645930	0	1	0	0	CorrectCommission	0.253209	0.930901	0	0
85.283493	0.792296	city	10	1	0.695340	0.695340	0	1	0	0	CorrectCommission	0.319345	0.917441	0	0
86.075752	0.792232	city	2	1	0.745041	0.745041	0	1	0	0	CorrectCommission	0.895266	0.897157	0	0
86.868111	0.792481	city	9	1	0.794331	0.794331	0	1	0	0	CorrectCommission	1.466442	0.870040	0	0
87.660378	0.792049	city	4	1	0.843970	0.843970	0	1	0	0	CorrectCommission	2.041642	0.836394	0	0
88.452538	0.792270	mountain	1	0	0.000000	0.760282	1	0	0	0	CorrectOmission	1.071884	0.797002	0	0
89.244911	0.792475	city	9	1	0.646513	0.646513	0	1	0	0	CorrectCommission	0.246461	0.753248	0	0
90.037201	0.792110	city	1	1	0.605905	0.605905	0	1	0	0	CorrectCommission	0.717024	0.707092	1	0
90.829414	0.792311	mountain	10	0	0.000000	0.592914	1	0	0	0	CorrectOmission	0.867553	0.660938	1	0
91.621696	0.792265	city	1	1	0.610539	0.610539	0	1	0	0	CorrectCommission	0.663321	0.617420	1	0
92.413910	0.792161	mountain	9	0	0.000000	0.661775	1	0	0	0	CorrectOmission	0.069603	0.579126	1	0
93.206123	0.792259	city	9	1	0.695285	0.695285	0	1	0	0	CorrectCommission	0.318702	0.548250	1	0
93.998444	0.792374	city	3	1	0.659730	0.659730	0	1	0	0	CorrectCommission	0.093307	0.526266	1	0
94.790810	0.792373	city	4	1	0.695236	0.695236	0	1	0	0	CorrectCommission	0.318132	0.513738	1	0
95.583061	0.792116	city	2	1	0.650438	0.650438	0	1	0	0	CorrectCommission	0.200975	0.510195	1	0
96.375214	0.792196	city	6	1	0.645676	0.645676	0	1	0	0	CorrectCommission	0.256158	0.514220	1	0
97.167442	0.792263	city	9	1	0.657358	0.657358	0	1	0	0	CorrectCommission	0.120785	0.523621	1	0
97.959763	0.792375	city	5	1	0.599658	0.599658	0	1	0	0	CorrectCommission	0.789406	0.535748	1	0
98.752029	0.792158	city	4	1	0.600942	0.600942	0	1	0	0	CorrectCommission	0.774528	0.547880	1	0
99.544350	0.792482	city	2	1	0.610903	0.610903	0	1	0	0	CorrectCommission	0.659099	0.557632	1	0
100.336639	0.792099	city	3	1	0.560431	0.560431	0	1	0	0	CorrectCommission	1.243966	0.563291	1	0
101.128845	0.792322	mountain	9	0	0.000000	0.559068	1	0	0	0	CorrectOmission	1.259765	0.563999	1	0
101.921120	0.792224	city	9	1	0.596264	0.596264	0	1	0	0	CorrectCommission	0.828740	0.559833	1	0
102.713348	0.792224	city	8	1	0.661470	0.661470	0	1	0	0	CorrectCommission	0.073134	0.551695	1	0
103.505585	0.792250	city	7	1	0.711247	0.711247	0	1	0	0	CorrectCommission	0.503671	0.541070	1	0
104.297844	0.792280	city	10	1	0.695180	0.695180	0	1	0	0	CorrectCommission	0.317490	0.529667	1	0
105.090111	0.792240	city	1	1	0.695404	0.695404	0	1	0	0	CorrectCommission	0.320079	0.519126	1	0
105.882416	0.792369	city	8	1	0.655502	0.655502	0	1	0	0	CorrectCommission	0.142294	0.510762	1	0
106.674683	0.792177	city	5	1	0.645784	0.645784	0	1	0	0	CorrectCommission	0.254908	0.505406	1	0
107.467003	0.792461	city	6	1	0.695258	0.695258	0	1	0	0	CorrectCommission	0.318393	0.503313	1	0
108.259369	0.792266	city	4	1	0.598703	0.598703	0	1	0	0	CorrectCommission	0.800475	0.504273	1	0
109.051575	0.792154	city	5	1	0.613623	0.613623	0	1	0	0	CorrectCommission	0.627586	0.507771	1	0
109.843735	0.792159	city	8	1	0.599239	0.599239	0	1	0	0	CorrectCommission	0.794263	0.513207	1	0
110.635941	0.792263	city	9	1	0.645796	0.645796	0	1	0	0	CorrectCommission	0.254768	0.520058	1	0
111.428207	0.792263	city	5	1	0.562742	0.562742	0	1	0	0	CorrectCommission	1.217184	0.528019	1	0
112.220474	0.792277	city	7	1	0.645797	0.645797	0	1	0	0	CorrectCommission	0.254757	0.537005	1	0
113.012856	0.792471	city	6	1	0.646034	0.646034	0	1	0	0	CorrectCommission	0.252010	0.547183	1	0
113.805168	0.792156	city	1	1	0.646642	0.646642	0	1	0	0	CorrectCommission	0.244964	0.558823	1	0
114.597427	0.792373	city	9	1	0.709631	0.709631	0	1	0	0	CorrectCommission	0.484943	0.572187	1	0
115.389664	0.792088	city	4	1	0.615442	0.615442	0	1	0	0	CorrectCommission	0.606508	0.587363	1	0
116.181870	0.792332	city	2	1	0.556251	0.556251	0	1	0	0	CorrectCommission	1.292401	0.604185	1	0
116.974167	0.792265	city	3	1	0.645667	0.645667	0	1	0	0	CorrectCommission	0.256266	0.622146	1	0
117.766487	0.792376	city	4	1	0.645700	0.645700	0	1	0	0	CorrectCommission	0.255877	0.640417	1	0
118.558723	0.792097	city	8	1	0.596631	0.596631	0	1	0	0	CorrectCommission	0.824482	0.657862	1	0
119.350883	0.792217	city	3	1	0.645922	0.645922	0	1	0	0	CorrectCommission	0.253311	0.673151	1	0
120.143143	0.792297	city	6	1	0.645778	0.645778	0	1	0	0	CorrectCommission	0.254974	0.684986	1	0
120.935402	0.792229	city	9	1	0.546628	0.546628	0	1	0	0	CorrectCommission	1.403913	0.692208	1	0
121.727707	0.792374	city	2	1	0.497331	0.497331	0	1	0	0	CorrectCommission	1.975162	0.693980	1	0
122.519974	0.792169	mountain	8	0	0.000000	0.592706	1	0	0	0	CorrectOmission	0.869969	0.689945	1	0
123.312202	0.792280	city	1	1	0.704264	0.704264	0	1	0	0	CorrectCommission	0.422747	0.680324	1	0
124.104568	0.792452	city	10	1	0.703515	0.703515	0	1	0	0	CorrectCommission	0.414070	0.665822	1	0
124.896927	0.792265	city	8	1	0.704763	0.704763	0	1	0	0	CorrectCommission	0.428535	0.647577	1	0
125.689194	0.792266	city	3	1	0.744574	0.744574	0	1	0	0	CorrectCommission	0.889858	0.627019	1	0
126.481346	0.792047	city	8	1	0.697744	0.697744	0	1	0	0	CorrectCommission	0.347196	0.605719	1	0
127.273506	0.792266	city	6	1	0.711249	0.711249	0	1	0	0	CorrectCommission	0.503691	0.585281	1	1
128.065872	0.792480	city	10	1	0.696979	0.696979	0	1	0	0	CorrectCommission	0.338330	0.567185	1	1
128.858139	0.792050	city	7	1	0.744753	0.744753	0	1	0	0	CorrectCommission	0.891935	0.552690	1	1
129.650314	0.792299	city	9	1	0.744836	0.744836	0	1	0	0	CorrectCommission	0.892892	0.542747	1	1
130.442612	0.792293	city	6	1	0.695237	0.695237	0	1	0	0	CorrectCommission	0.318146	0.537907	1	1
131.234863	0.792221	city	4	1	0.646769	0.646769	0	1	0	0	CorrectCommission	0.243494	0.538247	1	1
132.027100	0.792243	city	10	1	0.645858	0.645858	0	1	0	0	CorrectCommission	0.254050	0.543282	1	1
132.819382	0.792318	city	1	1	0.661538	0.661538	0	1	0	0	CorrectCommission	0.072350	0.551978	1	1
133.611649	0.792212	city	3	1	0.646264	0.646264	0	1	0	0	CorrectCommission	0.249342	0.562824	1	1
134.403992	0.792483	city	5	1	0.646207	0.646207	0	1	0	0	CorrectCommission	0.250008	0.574003	1	1
135.196365	0.792264	city	4	1	0.794072	0.794072	0	1	0	0	CorrectCommission	1.463440	0.583642	1	1
135.988571	0.792157	city	9	1	0.748188	0.748188	0	1	0	0	CorrectCommission	0.931738	0.590043	1	1
136.780762	0.792220	city	3	1	0.744733	0.744733	0	1	0	0	CorrectCommission	0.891702	0.592073	1	1
137.572983	0.792223	city	9	1	0.608125	0.608125	0	1	0	0	CorrectCommission	0.691294	0.589379	1	1
138.365234	0.792286	city	6	1	0.549580	0.549580	0	1	0	0	CorrectCommission	1.369711	0.582495	1	1
139.157608	0.792439	city	2	1	0.645759	0.645759	0	1	0	0	CorrectCommission	0.255199	0.572855	1	1
139.949905	0.792156	city	3	1	0.695227	0.695227	0	1	0	0	CorrectCommission	0.318038	0.562773	1	1
140.742050	0.792154	city	7	1	0.695337	0.695337	0	1	0	0	CorrectCommission	0.319302	0.555115	1	1
141.534271	0.792265	city	10	1	0.649176	0.649176	0	1	0	0	CorrectCommission	0.215602	0.553028	1	1
142.326538	0.792267	city	7	1	0.603502	0.603502	0	1	0	0	CorrectCommission	0.744863	0.559555	1	1
143.118851	0.792371	city	6	1	0.645956	0.645956	0	1	0	0	CorrectCommission	0.252908	0.577249	1	1
143.911133	0.792197	city	8	1	0.695208	0.695208	0	1	0	0	CorrectCommission	0.317812	0.607864	1	1
144.703461	0.792443	city	9	1	0.713659	0.713659	0	1	0	0	CorrectCommission	0.531621	0.652001	1	1
145.495712	0.792063	city	5	1	0.695038	0.695038	0	1	0	0	CorrectCommission	0.315844	0.708928	1	1
146.287872	0.792253	city	1	1	0.648704	0.648704	0	1	0	0	CorrectCommission	0.221067	0.776501	0	1
147.080170	0.792369	city	6	1	0.645778	0.645778	0	1	0	0	CorrectCommission	0.254982	0.851224	0	1
147.872437	0.792157	city	5	1	0.645967	0.645967	0	1	0	0	CorrectCommission	0.252791	0.928514	0	1
148.664658	0.792268	city	9	1	0.546741	0.546741	0	1	0	0	CorrectCommission	1.402605	1.003103	0	1
149.456909	0.792261	city	8	1	0.510639	0.510639	0	1	0	0	CorrectCommission	1.820948	1.069536	0	1
150.249176	0.792270	city	10	1	0.463838	0.463838	0	1	0	0	CorrectCommission	2.363268	1.122806	0	1
151.041443	0.792261	city	1	1	0.551319	0.551319	0	1	0	0	CorrectCommission	1.349550	1.158846	0	1
151.833817	0.792482	city	4	1	0.548254	0.548254	0	1	0	0	CorrectCommission	1.385075	1.175023	0	1
152.626114	0.792100	city	5	1	0.447972	0.447972	0	1	0	0	CorrectCommission	2.547126	1.170321	0	1
153.418259	0.792216	city	3	1	0.546695	0.546695	0	1	0	0	CorrectCommission	1.403140	1.145415	0	1
154.210510	0.792263	city	7	1	0.598746	0.598746	0	1	0	0	CorrectCommission	0.799982	1.102580	0	1
155.002884	0.792480	city	8	1	0.552212	0.552212	0	1	0	0	CorrectCommission	1.339208	1.045316	0	1
155.795135	0.792051	city	7	1	0.598728	0.598728	0	1	0	0	CorrectCommission	0.800187	0.977908	0	1
156.587296	0.792262	city	6	1	0.558811	0.558811	0	1	0	0	CorrectCommission	1.262734	0.905054	0	1
157.379562	0.792263	mountain	3	0	0.000000	0.633166	1	0	0	0	CorrectOmission	0.401127	0.831320	0	1
158.171829	0.792266	city	4	1	0.695327	0.695327	0	1	0	0	CorrectCommission	0.319195	0.760856	0	1
158.964096	0.792267	city	10	1	0.618833	0.618833	0	1	0	0	CorrectCommission	0.567208	0.697058	1	1
159.756363	0.792266	city	9	1	0.652765	0.652765	0	1	0	0	CorrectCommission	0.174017	0.642417	1	1
160.548630	0.792289	city	10	1	0.645829	0.645829	0	1	0	0	CorrectCommission	0.254381	0.598505	1	1
161.340958	0.792346	city	8	1	0.744785	0.744785	0	1	0	0	CorrectCommission	0.892301	0.565994	1	1
162.133209	0.792156	city	6	1	0.695230	0.695230	0	1	0	0	CorrectCommission	0.318064	0.544758	1	1
162.925415	0.792269	city	5	1	0.706775	0.706775	0	1	0	0	CorrectCommission	0.451843	0.534051	1	1
163.717682	0.792261	city	8	1	0.645756	0.645756	0	1	0	0	CorrectCommission	0.255234	0.532617	1	1
164.509949	0.792265	mountain	10	1	0.649571	0.649571	0	0	1	0	CommissionError	0.211029	0.538857	1	1
165.302322	0.792481	city	10	1	0.744769	0.744769	0	1	0	0	CorrectCommission	0.892113	0.550944	1	1
166.094696	0.792264	city	6	1	0.695108	0.695108	0	1	0	0	CorrectCommission	0.316651	0.566922	1	1
166.886887	0.792117	mountain	1	0	0.000000	0.637479	1	0	0	0	CorrectOmission	0.351138	0.584883	1	1
167.679092	0.792303	city	9	1	0.596379	0.596379	0	1	0	0	CorrectCommission	0.827403	0.603029	1	1
168.471436	0.792375	city	6	1	0.596302	0.596302	0	1	0	0	CorrectCommission	0.828292	0.619858	1	1
169.263641	0.792047	city	8	1	0.563430	0.563430	0	1	0	0	CorrectCommission	1.209211	0.634284	1	1
170.055847	0.792373	city	2	1	0.695295	0.695295	0	1	0	0	CorrectCommission	0.318821	0.645699	1	1
170.848145	0.792218	city	3	1	0.645674	0.645674	0	1	0	0	CorrectCommission	0.256181	0.654108	1	1
171.640350	0.792204	city	10	1	0.546650	0.546650	0	1	0	0	CorrectCommission	1.403659	0.660088	1	1
172.432587	0.792266	mountain	3	0	0.000000	0.643383	1	0	0	0	CorrectOmission	0.282733	0.664706	1	1
173.224869	0.792285	city	10	1	0.766039	0.766039	0	1	0	0	CorrectCommission	1.138589	0.669454	1	1
174.017181	0.792351	city	1	1	0.744785	0.744785	0	1	0	0	CorrectCommission	0.892299	0.675911	1	1
174.809433	0.792159	city	2	1	0.717344	0.717344	0	1	0	0	CorrectCommission	0.574323	0.685560	1	1
175.601700	0.792371	city	5	1	0.695431	0.695431	0	1	0	0	CorrectCommission	0.320395	0.699447	1	1
176.393997	0.792224	city	4	1	0.695254	0.695254	0	1	0	0	CorrectCommission	0.318345	0.717919	0	1
177.186218	0.792200	city	5	1	0.695234	0.695234	0	1	0	0	CorrectCommission	0.318115	0.740450	0	1
177.978439	0.792261	city	7	1	0.652448	0.652448	0	1	0	0	CorrectCommission	0.177683	0.765601	0	1
178.770706	0.792266	city	1	1	0.646041	0.646041	0	1	0	0	CorrectCommission	0.251928	0.791158	0	1
179.562973	0.792270	city	8	1	0.559427	0.559427	0	1	0	0	CorrectCommission	1.255603	0.814441	0	1
180.355240	0.792258	city	9	1	0.546717	0.546717	0	1	0	0	CorrectCommission	1.402886	0.832683	0	1
181.147507	0.792267	city	2	1	0.513748	0.513748	0	1	0	0	CorrectCommission	1.784917	0.843506	0	1
181.939774	0.792267	city	4	1	0.515382	0.515382	0	1	0	0	CorrectCommission	1.765989	0.845273	0	1
182.732147	0.792479	city	1	1	0.596230	0.596230	0	1	0	0	CorrectCommission	0.829127	0.837334	0	1
183.524399	0.792049	city	7	1	0.748357	0.748357	0	1	0	0	CorrectCommission	0.933701	0.820117	0	1
184.316589	0.792323	city	8	1	0.744816	0.744816	0	1	0	0	CorrectCommission	0.892665	0.794935	0	1
185.108887	0.792268	city	9	1	0.707469	0.707469	0	1	0	0	CorrectCommission	0.459888	0.763743	0	1
185.901184	0.792308	city	3	1	0.646223	0.646223	0	1	0	0	CorrectCommission	0.249822	0.728810	0	1
186.693436	0.792210	city	4	1	0.645873	0.645873	0	1	0	0	CorrectCommission	0.253877	0.692352	1	0
187.485703	0.792320	city	7	1	0.598306	0.598306	0	1	0	0	CorrectCommission	0.805074	0.656275	1	0
188.277939	0.792162	city	5	1	0.568882	0.568882	0	1	0	0	CorrectCommission	1.146032	0.621993	1	0
189.070160	0.792261	city	3	1	0.695319	0.695319	0	1	0	0	CorrectCommission	0.319098	0.590352	1	0
189.862473	0.792378	mountain	1	0	0.000000	0.701216	1	0	0	0	CorrectOmission	0.387433	0.561727	1	0
190.654739	0.792148	mountain	6	0	0.000000	0.648003	1	0	0	0	CorrectOmission	0.229188	0.536067	1	0
191.446945	0.792265	city	8	1	0.597111	0.597111	0	1	0	0	CorrectCommission	0.818926	0.513078	1	0
192.239212	0.792268	city	3	1	0.609968	0.609968	0	1	0	0	CorrectCommission	0.669940	0.492354	1	0
193.031479	0.792265	city	5	1	0.697423	0.697423	0	1	0	0	CorrectCommission	0.343475	0.473515	1	0
193.823792	0.792370	city	8	1	0.699463	0.699463	0	1	0	0	CorrectCommission	0.367122	0.456319	1	0
194.616058	0.792156	city	3	1	0.710941	0.710941	0	1	0	0	CorrectCommission	0.500124	0.440714	1	0
195.408264	0.792269	mountain	9	0	0.000000	0.711445	1	0	0	0	CorrectOmission	0.505963	0.426855	1	0
196.200592	0.792368	city	8	1	0.695406	0.695406	0	1	0	0	CorrectCommission	0.320106	0.415114	1	0
196.992905	0.792266	city	4	1	0.657255	0.657255	0	1	0	0	CorrectCommission	0.121978	0.406019	1	0
197.785126	0.792178	city	6	1	0.645737	0.645737	0	1	0	0	CorrectCommission	0.255450	0.400202	1	0
198.577332	0.792245	city	7	1	0.744750	0.744750	0	1	0	0	CorrectCommission	0.891903	0.398332	1	0
199.369644	0.792371	city	1	1	0.645816	0.645816	0	1	0	0	CorrectCommission	0.254533	0.400993	1	0
200.161911	0.792160	city	6	1	0.646270	0.646270	0	1	0	0	CorrectCommission	0.249272	0.408658	1	0
200.954224	0.792480	city	8	1	0.645810	0.645810	0	1	0	0	CorrectCommission	0.254609	0.421529	1	0
201.746552	0.792153	city	6	1	0.695084	0.695084	0	1	0	0	CorrectCommission	0.316374	0.439446	1	0
202.538712	0.792160	city	3	1	0.695217	0.695217	0	1	0	0	CorrectCommission	0.317911	0.461850	1	0
203.330933	0.792299	city	1	1	0.646795	0.646795	0	1	0	0	CorrectCommission	0.243191	0.487781	1	0
204.123306	0.792444	city	5	1	0.645751	0.645751	0	1	0	0	CorrectCommission	0.255293	0.515929	1	0
204.915573	0.792083	city	9	1	0.645729	0.645729	0	1	0	0	CorrectCommission	0.255544	0.544757	1	0
205.707779	0.792339	city	2	1	0.597137	0.597137	0	1	0	0	CorrectCommission	0.818625	0.572691	1	0
206.500031	0.792155	city	7	1	0.549071	0.549071	0	1	0	0	CorrectCommission	1.375602	0.598312	1	0
207.292267	0.792326	city	10	1	0.549165	0.549165	0	1	0	0	CorrectCommission	1.374517	0.620553	1	0
208.084641	0.792421	city	5	1	0.645809	0.645809	0	1	0	0	CorrectCommission	0.254612	0.638839	1	0
208.876877	0.792052	city	4	1	0.699996	0.699996	0	1	0	0	CorrectCommission	0.373295	0.653161	1	0
209.669083	0.792367	city	9	1	0.596206	0.596206	0	1	0	0	CorrectCommission	0.829408	0.664012	1	0
210.461380	0.792211	city	8	1	0.609566	0.609566	0	1	0	0	CorrectCommission	0.674591	0.672339	1	0
211.253693	0.792428	city	2	1	0.596125	0.596125	0	1	0	0	CorrectCommission	0.830344	0.679374	1	0
212.045929	0.792053	city	9	1	0.612066	0.612066	0	1	0	0	CorrectCommission	0.645623	0.686456	1	0
212.838211	0.792483	city	4	1	0.695292	0.695292	0	1	0	0	CorrectCommission	0.318787	0.694845	1	0
213.630569	0.792260	city	1	1	0.596567	0.596567	0	1	0	0	CorrectCommission	0.825231	0.705561	1	0
214.422745	0.792080	mountain	6	0	0.000000	0.690798	1	0	0	0	CorrectOmission	0.266707	0.719206	0	0
215.214905	0.792236	city	2	1	0.754214	0.754214	0	1	0	0	CorrectCommission	1.001568	0.735884	0	0
216.007202	0.792370	city	8	1	0.563045	0.563045	0	1	0	0	CorrectCommission	1.213680	0.755112	0	0
216.799469	0.792156	city	9	1	0.645690	0.645690	0	1	0	0	CorrectCommission	0.255998	0.775863	0	0
217.591736	0.792373	city	7	1	0.649382	0.649382	0	1	0	0	CorrectCommission	0.213215	0.796646	0	0
218.384003	0.792154	city	3	1	0.744703	0.744703	0	1	0	0	CorrectCommission	0.891351	0.815635	0	0
219.176254	0.792376	city	2	1	0.744927	0.744927	0	1	0	0	CorrectCommission	0.893953	0.830887	0	0
219.968521	0.792155	city	10	1	0.754515	0.754515	0	1	0	0	CorrectCommission	1.005056	0.840647	0	0
220.760849	0.792483	city	2	1	0.800665	0.800665	0	1	0	0	CorrectCommission	1.539839	0.843603	0	0
221.553223	0.792265	city	5	1	0.757778	0.757778	0	1	0	0	CorrectCommission	1.042870	0.839122	0	0
222.345428	0.792154	city	6	1	0.794175	0.794175	0	1	0	0	CorrectCommission	1.464624	0.827461	0	0
223.137619	0.792215	city	7	1	0.751698	0.751698	0	1	0	0	CorrectCommission	0.972412	0.809733	0	0
223.929825	0.792211	city	10	1	0.744891	0.744891	0	1	0	0	CorrectCommission	0.893530	0.787868	0	0
224.722061	0.792259	city	1	1	0.695189	0.695189	0	1	0	0	CorrectCommission	0.317588	0.764374	0	0
225.514435	0.792482	city	7	1	0.751923	0.751923	0	1	0	0	CorrectCommission	0.975015	0.742072	0	0
226.306717	0.792071	city	4	1	0.662754	0.662754	0	1	0	0	CorrectCommission	0.058258	0.723712	0	0
227.098862	0.792240	city	2	1	0.645787	0.645787	0	1	0	0	CorrectCommission	0.254872	0.711701	0	0
227.891129	0.792270	city	5	1	0.646660	0.646660	0	1	0	0	CorrectCommission	0.244752	0.707782	1	0
228.683380	0.792258	city	3	1	0.745068	0.745068	0	1	0	0	CorrectCommission	0.895587	0.712890	0	0
229.475647	0.792271	city	2	1	0.744802	0.744802	0	1	0	0	CorrectCommission	0.892504	0.727046	0	0
230.267914	0.792259	city	8	1	0.695275	0.695275	0	1	0	0	CorrectCommission	0.318585	0.749390	0	0
231.060181	0.792265	city	5	1	0.745250	0.745250	0	1	0	0	CorrectCommission	0.897689	0.778237	0	0
231.852463	0.792302	city	6	1	0.744808	0.744808	0	1	0	0	CorrectCommission	0.892575	0.811212	0	0
232.644730	0.792232	city	4	1	0.709471	0.709471	0	1	0	0	CorrectCommission	0.483094	0.845438	0	0
233.437088	0.792479	city	8	1	0.598539	0.598539	0	1	0	0	CorrectCommission	0.802379	0.877766	0	0
234.229340	0.792046	city	2	1	0.596066	0.596066	0	1	0	0	CorrectCommission	0.831034	0.905037	0	0
235.021500	0.792265	city	8	1	0.565508	0.565508	0	1	0	0	CorrectCommission	1.185129	0.924414	0	0
235.813828	0.792375	city	7	1	0.569824	0.569824	0	1	0	0	CorrectCommission	1.135122	0.933636	0	0
236.606094	0.792157	city	8	1	0.556857	0.556857	0	1	0	0	CorrectCommission	1.285385	0.931341	0	0
237.398346	0.792371	city	3	1	0.456657	0.456657	0	1	0	0	CorrectCommission	2.446488	0.917259	0	0
238.190643	0.792214	city	8	1	0.563312	0.563312	0	1	0	0	CorrectCommission	1.210582	0.892245	0	0
238.982849	0.792206	city	1	1	0.596246	0.596246	0	1	0	0	CorrectCommission	0.828945	0.858289	0	0
239.775192	0.792483	mountain	6	0	0.000000	0.633511	1	0	0	0	CorrectOmission	0.397124	0.818245	0	0
240.567459	0.792048	city	7	1	0.645694	0.645694	0	1	0	0	CorrectCommission	0.255951	0.775517	0	0
241.359680	0.792373	city	8	1	0.603382	0.603382	0	1	0	0	CorrectCommission	0.746258	0.733677	0	0
242.152054	0.792373	city	7	1	0.596241	0.596241	0	1	0	0	CorrectCommission	0.829004	0.696064	1	0
242.944260	0.792047	city	4	1	0.695193	0.695193	0	1	0	0	CorrectCommission	0.317638	0.665436	1	0
243.736420	0.792265	city	3	1	0.695325	0.695325	0	1	0	0	CorrectCommission	0.319168	0.643757	1	0
244.528671	0.792266	city	10	1	0.645757	0.645757	0	1	0	0	CorrectCommission	0.255222	0.632011	1	0
245.321045	0.792482	city	4	1	0.695251	0.695251	0	1	0	0	CorrectCommission	0.318308	0.630239	1	0
246.113373	0.792156	city	5	1	0.649850	0.649850	0	1	0	0	CorrectCommission	0.207795	0.637638	1	1
246.905640	0.792376	city	6	1	0.744679	0.744679	0	1	0	0	CorrectCommission	0.891078	0.652793	1	1
247.697861	0.792060	city	10	1	0.744597	0.744597	0	1	0	0	CorrectCommission	0.890123	0.673939	1	1
248.490067	0.792360	mountain	3	0	0.000000	0.743847	1	0	0	0	CorrectOmission	0.881434	0.699257	1	1
249.282425	0.792373	city	4	1	0.695294	0.695294	0	1	0	0	CorrectCommission	0.318806	0.727101	0	1
250.074692	0.792156	city	3	1	0.551801	0.551801	0	1	0	0	CorrectCommission	1.343970	0.756208	0	1
250.866852	0.792154	city	8	1	0.614550	0.614550	0	1	0	0	CorrectCommission	0.616840	0.785699	0	1
251.659058	0.792270	city	6	1	0.611840	0.611840	0	1	0	0	CorrectCommission	0.648249	0.815137	0	1
252.451385	0.792369	city	1	1	0.553191	0.553191	0	1	0	0	CorrectCommission	1.327858	0.844338	0	1
253.243652	0.792158	city	8	1	0.558351	0.558351	0	1	0	0	CorrectCommission	1.268064	0.873180	0	1
254.035858	0.792266	city	10	1	0.645759	0.645759	0	1	0	0	CorrectCommission	0.255195	0.901441	0	1
254.828232	0.792479	city	7	1	0.596366	0.596366	0	1	0	0	CorrectCommission	0.827556	0.928573	0	1
255.620544	0.792154	city	8	1	0.652465	0.652465	0	1	0	0	CorrectCommission	0.177492	0.953603	0	1
256.412720	0.792161	city	7	1	0.744895	0.744895	0	1	0	0	CorrectCommission	0.893583	0.975173	0	1
257.204926	0.792301	city	1	1	0.564120	0.564120	0	1	0	0	CorrectCommission	1.201221	0.991621	0	1
257.997314	0.792441	mountain	10	1	0.546715	0.546715	0	0	1	0	CommissionError	1.402910	1.001246	0	1
258.789673	0.792264	city	3	1	0.497208	0.497208	0	1	0	0	CorrectCommission	1.976585	1.002565	0	1
259.581818	0.792051	city	7	1	0.556138	0.556138	0	1	0	0	CorrectCommission	1.293716	0.994617	0	1
260.374084	0.792479	city	1	1	0.549378	0.549378	0	1	0	0	CorrectCommission	1.372043	0.977153	0	1
261.166443	0.792264	city	5	1	0.596193	0.596193	0	1	0	0	CorrectCommission	0.829561	0.950732	0	1
261.958618	0.792050	city	10	1	0.596000	0.596000	0	1	0	0	CorrectCommission	0.831797	0.916734	0	1
262.750885	0.792480	city	6	1	0.746295	0.746295	0	1	0	0	CorrectCommission	0.909799	0.877184	0	1
263.543152	0.792046	city	4	1	0.747407	0.747407	0	1	0	0	CorrectCommission	0.922691	0.834561	0	1
264.335358	0.792374	city	1	1	0.713793	0.713793	0	1	0	0	CorrectCommission	0.533174	0.791535	0	1
265.127716	0.792376	city	9	1	0.744696	0.744696	0	1	0	0	CorrectCommission	0.891278	0.750702	0	1
265.919922	0.792049	city	3	1	0.657012	0.657012	0	1	0	0	CorrectCommission	0.124800	0.714338	0	1
266.712189	0.792479	city	5	1	0.607872	0.607872	0	1	0	0	CorrectCommission	0.694222	0.684252	1	1
267.504517	0.792155	city	3	1	0.600334	0.600334	0	1	0	0	CorrectCommission	0.781577	0.661539	1	1
268.296661	0.792160	city	4	1	0.655951	0.655951	0	1	0	0	CorrectCommission	0.137095	0.646609	1	1
269.088898	0.792271	city	8	1	0.596226	0.596226	0	1	0	0	CorrectCommission	0.829177	0.639176	1	1
269.881195	0.792353	city	3	1	0.697899	0.697899	0	1	0	0	CorrectCommission	0.348993	0.638263	1	1
270.673462	0.792170	city	4	1	0.697556	0.697556	0	1	0	0	CorrectCommission	0.345022	0.642425	1	1
271.465698	0.792307	city	3	1	0.695343	0.695343	0	1	0	0	CorrectCommission	0.319379	0.649906	1	1
272.257965	0.792225	city	1	1	0.609860	0.609860	0	1	0	0	CorrectCommission	0.671186	0.658856	1	1
273.050201	0.792258	city	4	1	0.598657	0.598657	0	1	0	0	CorrectCommission	0.801006	0.667622	1	1
273.842590	0.792482	city	1	1	0.596244	0.596244	0	1	0	0	CorrectCommission	0.828968	0.674952	1	1
274.634857	0.792049	city	9	1	0.454288	0.454288	0	1	0	0	CorrectCommission	2.473933	0.680141	1	1
275.427002	0.792261	city	8	1	0.645813	0.645813	0	1	0	0	CorrectCommission	0.254570	0.683067	1	1
276.219269	0.792281	city	6	1	0.645830	0.645830	0	1	0	0	CorrectCommission	0.254374	0.684200	1	1
277.011536	0.792274	city	5	1	0.599070	0.599070	0	1	0	0	CorrectCommission	0.796220	0.684353	1	1
277.803802	0.792246	city	2	1	0.645835	0.645835	0	1	0	0	CorrectCommission	0.254313	0.684466	1	1
278.596069	0.792264	mountain	8	0	0.000000	0.687559	1	0	0	0	CorrectOmission	0.229180	0.685416	1	1
279.388336	0.792261	city	1	1	0.709095	0.709095	0	1	0	0	CorrectCommission	0.478730	0.687777	1	1
280.180695	0.792483	city	10	1	0.695294	0.695294	0	1	0	0	CorrectCommission	0.318810	0.691720	1	1
280.972961	0.792050	mountain	3	0	0.000000	0.566836	1	0	0	0	CorrectOmission	1.169748	0.697032	1	1
281.765106	0.792261	mountain	6	1	0.497216	0.497216	0	0	1	0	CommissionError	1.976491	0.703122	1	1
282.557434	0.792373	city	6	1	0.659931	0.659931	0	1	0	0	CorrectCommission	0.090971	0.709151	0	1
283.349701	0.792156	city	1	1	0.645701	0.645701	0	1	0	0	CorrectCommission	0.255866	0.714238	0	1
284.141968	0.792374	city	8	1	0.596322	0.596322	0	1	0	0	CorrectCommission	0.828069	0.717481	0	1
284.934265	0.792236	city	1	1	0.698577	0.698577	0	1	0	0	CorrectCommission	0.356851	0.718108	0	1
285.726471	0.792185	city	10	1	0.794258	0.794258	0	1	0	0	CorrectCommission	1.465595	0.715596	0	1
286.518707	0.792265	city	7	1	0.754427	0.754427	0	1	0	0	CorrectCommission	1.004029	0.709676	0	1
287.310974	0.792296	city	2	1	0.657507	0.657507	0	1	0	0	CorrectCommission	0.119063	0.700407	1	1
288.103241	0.792233	city	7	1	0.597042	0.597042	0	1	0	0	CorrectCommission	0.819725	0.688194	1	1
288.895569	0.792374	city	3	1	0.567508	0.567508	0	1	0	0	CorrectCommission	1.161956	0.673672	1	1
289.687836	0.792155	city	7	1	0.603606	0.603606	0	1	0	0	CorrectCommission	0.743664	0.657693	1	1
290.480042	0.792268	city	10	1	0.596538	0.596538	0	1	0	0	CorrectCommission	0.825562	0.641254	1	1
291.272400	0.792481	city	4	1	0.649564	0.649564	0	1	0	0	CorrectCommission	0.211101	0.625389	1	1
292.064667	0.792063	city	10	1	0.695086	0.695086	0	1	0	0	CorrectCommission	0.316404	0.611089	1	1
292.856842	0.792247	city	8	1	0.645768	0.645768	0	1	0	0	CorrectCommission	0.255090	0.599304	1	1
293.649200	0.792484	city	6	1	0.599950	0.599950	0	1	0	0	CorrectCommission	0.786021	0.590938	1	1
294.441467	0.792074	city	9	1	0.645614	0.645614	0	1	0	0	CorrectCommission	0.256874	0.586862	1	1
295.233643	0.792236	city	7	1	0.695309	0.695309	0	1	0	0	CorrectCommission	0.318987	0.588047	1	1
296.025879	0.792265	city	2	1	0.798932	0.798932	0	1	0	0	CorrectCommission	1.519752	0.595540	1	1
296.818146	0.792265	city	10	1	0.744792	0.744792	0	1	0	0	CorrectCommission	0.892385	0.610438	1	1
297.610443	0.792325	city	4	1	0.695322	0.695322	0	1	0	0	CorrectCommission	0.319129	0.633830	1	1
298.402771	0.792314	mountain	9	0	0.000000	0.695261	1	0	0	0	CorrectOmission	0.318425	0.666506	1	1
299.195007	0.792159	city	4	1	0.695199	0.695199	0	1	0	0	CorrectCommission	0.317712	0.708709	1	1
299.987305	0.792479	city	7	1	0.645727	0.645727	0	1	0	0	CorrectCommission	0.255571	0.759938	0	1
300.779694	0.792264	city	3	1	0.659197	0.659197	0	1	0	0	CorrectCommission	0.099483	0.818725	0	1
301.571838	0.792051	city	4	1	0.744642	0.744642	0	1	0	0	CorrectCommission	0.890647	0.882576	0	1
302.364105	0.792479	city	2	1	0.646015	0.646015	0	1	0	0	CorrectCommission	0.252230	0.948121	0	1
303.156403	0.792094	city	10	1	0.502613	0.502613	0	1	0	0	CorrectCommission	1.913948	1.011451	0	1
303.948669	0.792435	city	2	1	0.562347	0.562347	0	1	0	0	CorrectCommission	1.221765	1.068494	0	1
304.740906	0.792046	city	7	1	0.553265	0.553265	0	1	0	0	CorrectCommission	1.327009	1.115616	0	1
305.533142	0.792401	city	6	1	0.507302	0.507302	0	1	0	0	CorrectCommission	1.859619	1.150019	0	0
306.325409	0.792131	city	3	1	0.497173	0.497173	0	1	0	0	CorrectCommission	1.976996	1.170090	0	0
307.117584	0.792262	city	7	1	0.497221	0.497221	0	1	0	0	CorrectCommission	1.976435	1.175585	0	0
307.909851	0.792268	city	9	1	0.518544	0.518544	0	1	0	0	CorrectCommission	1.729351	1.167534	0	0
308.702179	0.792370	city	2	1	0.556269	0.556269	0	1	0	0	CorrectCommission	1.292189	1.147983	0	0
309.494537	0.792374	city	10	1	0.658593	0.658593	0	1	0	0	CorrectCommission	0.106483	1.119564	0	0
310.286774	0.792049	city	4	1	0.700590	0.700590	0	1	0	0	CorrectCommission	0.380178	1.085045	0	0
311.079041	0.792508	city	8	1	0.695347	0.695347	0	1	0	0	CorrectCommission	0.319418	1.046858	0	0
311.871307	0.792024	city	2	1	0.794299	0.794299	0	1	0	0	CorrectCommission	1.466068	1.006863	0	0
312.663513	0.792369	city	4	1	0.843867	0.843867	0	1	0	0	CorrectCommission	2.040454	0.966172	0	0
313.455750	0.792158	city	1	1	0.699239	0.699239	0	1	0	0	CorrectCommission	0.364521	0.925201	0	0
314.248077	0.792479	city	3	1	0.713673	0.713673	0	1	0	0	CorrectCommission	0.531784	0.883891	0	0
315.040344	0.792055	mountain	8	0	0.000000	0.777230	1	0	0	0	CorrectOmission	1.268276	0.841854	0	0
315.832520	0.792261	city	3	1	0.801593	0.801593	0	1	0	0	CorrectCommission	1.550591	0.798671	0	0
316.624786	0.792289	city	7	1	0.698445	0.698445	0	1	0	0	CorrectCommission	0.355317	0.754127	0	0
317.417114	0.792346	city	10	1	0.645876	0.645876	0	1	0	0	CorrectCommission	0.253845	0.708368	1	0
318.209351	0.792159	city	2	1	0.744851	0.744851	0	1	0	0	CorrectCommission	0.893070	0.661984	1	0
319.001617	0.792371	city	9	1	0.744816	0.744816	0	1	0	0	CorrectCommission	0.892658	0.616053	1	0
319.793976	0.792375	city	4	1	0.695188	0.695188	0	1	0	0	CorrectCommission	0.317579	0.572185	1	0
320.586304	0.792263	city	10	1	0.598464	0.598464	0	1	0	0	CorrectCommission	0.803243	0.532405	1	0
321.378479	0.792086	city	6	1	0.695182	0.695182	0	1	0	0	CorrectCommission	0.317511	0.499044	1	0
322.170624	0.792227	city	4	1	0.695254	0.695254	0	1	0	0	CorrectCommission	0.318343	0.474574	1	0
322.962891	0.792266	city	9	1	0.652229	0.652229	0	1	0	0	CorrectCommission	0.180225	0.461345	1	0
323.755157	0.792262	city	2	1	0.655285	0.655285	0	1	0	0	CorrectCommission	0.144811	0.461330	1	0
324.547424	0.792274	city	1	1	0.649239	0.649239	0	1	0	0	CorrectCommission	0.214873	0.475805	1	0
325.339783	0.792476	city	8	1	0.645901	0.645901	0	1	0	0	CorrectCommission	0.253548	0.505079	1	0
326.132172	0.792264	city	9	1	0.661937	0.661937	0	1	0	0	CorrectCommission	0.067730	0.548264	1	0
326.924316	0.792047	city	5	1	0.618693	0.618693	0	1	0	0	CorrectCommission	0.568837	0.603173	1	0
327.716461	0.792264	city	8	1	0.645795	0.645795	0	1	0	0	CorrectCommission	0.254782	0.666277	1	0
328.508850	0.792482	city	1	1	0.645750	0.645750	0	1	0	0	CorrectCommission	0.255303	0.732961	0	0
329.301178	0.792157	city	4	1	0.695058	0.695058	0	1	0	0	CorrectCommission	0.316073	0.797891	0	0
330.093323	0.792155	city	6	1	0.695266	0.695266	0	1	0	0	CorrectCommission	0.318487	0.855574	0	0
330.885529	0.792268	mountain	8	0	0.000000	0.839702	1	0	0	0	CorrectOmission	1.992184	0.901048	0	0
331.677795	0.792264	city	9	1	0.948996	0.948996	0	1	0	0	CorrectCommission	3.258678	0.930459	0	0
332.470184	0.792480	city	4	1	0.843783	0.843783	0	1	0	0	CorrectCommission	2.039483	0.941641	0	0
333.262421	0.792046	city	2	1	0.756585	0.756585	0	1	0	0	CorrectCommission	1.029042	0.934463	0	0
334.054688	0.792482	city	10	1	0.760331	0.760331	0	1	0	0	CorrectCommission	1.072452	0.910810	0	0
334.846985	0.792097	city	5	1	0.753351	0.753351	0	1	0	0	CorrectCommission	0.991570	0.874350	0	0
335.639191	0.792324	city	9	1	0.707162	0.707162	0	1	0	0	CorrectCommission	0.456329	0.829951	0	0
336.431427	0.792156	city	5	1	0.697489	0.697489	0	1	0	0	CorrectCommission	0.344244	0.783084	0	0
337.223755	0.792483	city	3	1	0.658563	0.658563	0	1	0	0	CorrectCommission	0.106822	0.739174	0	0
338.016144	0.792263	city	8	1	0.695085	0.695085	0	1	0	0	CorrectCommission	0.316390	0.702983	1	0
338.808289	0.792050	city	10	1	0.596035	0.596035	0	1	0	0	CorrectCommission	0.831386	0.678188	1	0
339.600494	0.792370	city	2	1	0.648510	0.648510	0	1	0	0	CorrectCommission	0.223316	0.667145	1	0
340.392792	0.792190	city	10	1	0.645949	0.645949	0	1	0	0	CorrectCommission	0.252996	0.670861	1	0
341.184998	0.792230	city	4	1	0.704637	0.704637	0	1	0	0	CorrectCommission	0.427074	0.689032	1	0
341.977234	0.792268	city	2	1	0.746078	0.746078	0	1	0	0	CorrectCommission	0.907287	0.720225	0	0
342.769501	0.792263	city	7	1	0.645930	0.645930	0	1	0	0	CorrectCommission	0.253211	0.762177	0	0
343.561890	0.792481	mountain	10	0	0.000000	0.682479	1	0	0	0	CorrectOmission	0.170309	0.812122	0	0
344.354156	0.792103	mountain	4	0	0.000000	0.775331	1	0	0	0	CorrectOmission	1.246269	0.867039	0	0
345.146423	0.792428	mountain	10	1	0.844094	0.844094	0	0	1	0	CommissionError	2.043089	0.923888	0	0
345.938690	0.792058	city	1	1	0.808376	0.808376	0	1	0	0	CorrectCommission	1.629189	0.979811	0	0
346.730835	0.792255	city	6	1	0.696305	0.696305	0	1	0	0	CorrectCommission	0.330519	1.032274	0	0
347.523132	0.792370	city	9	1	0.655211	0.655211	0	1	0	0	CorrectCommission	0.145673	1.079176	0	0
348.315521	0.792374	city	10	1	0.614561	0.614561	0	1	0	0	CorrectCommission	0.616720	1.118873	0	0
349.107788	0.792155	city	1	1	0.605336	0.605336	0	1	0	0	CorrectCommission	0.723613	1.150252	0	0
349.899963	0.792198	city	10	1	1.045376	1.045376	0	1	0	0	CorrectCommission	4.375508	1.172836	0	0
350.692169	0.792224	city	7	1	0.843816	0.843816	0	1	0	0	CorrectCommission	2.039866	1.186691	0	0
351.484467	0.792373	city	9	1	0.706555	0.706555	0	1	0	0	CorrectCommission	0.449300	1.192533	0	0
352.276733	0.792156	city	7	1	0.756603	0.756603	0	1	0	0	CorrectCommission	1.029243	1.191525	0	0
353.069061	0.792483	city	6	1	0.700017	0.700017	0	1	0	0	CorrectCommission	0.373540	1.185087	0	0
353.861328	0.792050	city	7	1	0.653272	0.653272	0	1	0	0	CorrectCommission	0.168137	1.174798	0	0
354.653473	0.792261	city	3	1	0.744820	0.744820	0	1	0	0	CorrectCommission	0.892706	1.162226	0	0
355.445831	0.792484	mountain	7	0	0.000000	0.879112	1	0	0	0	CorrectOmission	2.448864	1.148786	0	0
356.238098	0.792046	city	9	1	0.898736	0.898736	0	1	0	0	CorrectCommission	2.676268	1.135673	0	0
357.030273	0.792264	city	10	1	0.646281	0.646281	0	1	0	0	CorrectCommission	0.249151	1.123870	0	0
357.822571	0.792374	city	9	1	0.695319	0.695319	0	1	0	0	CorrectCommission	0.319096	1.114113	0	0
358.614899	0.792228	city	3	1	0.745061	0.745061	0	1	0	0	CorrectCommission	0.895500	1.106703	0	0
359.407104	0.792192	mountain	8	0	0.000000	0.787441	1	0	0	0	CorrectOmission	1.386591	1.101490	0	0
360.199371	0.792372	city	9	1	0.796108	0.796108	0	1	0	0	CorrectCommission	1.487033	1.097788	0	0
360.991699	0.792265	city	4	1	0.744715	0.744715	0	1	0	0	CorrectCommission	0.891492	1.094376	0	0
361.783905	0.792162	city	9	1	0.657175	0.657175	0	1	0	0	CorrectCommission	0.122913	1.089565	0	0
362.576111	0.792258	city	6	1	0.704179	0.704179	0	1	0	0	CorrectCommission	0.421770	1.081379	0	0
363.368378	0.792270	mountain	8	0	0.000000	0.774438	1	0	0	0	CorrectOmission	1.235923	1.067879	0	0
364.160645	0.792264	mountain	10	1	0.843865	0.843865	0	0	1	0	CommissionError	2.040424	1.047527	0	0
364.953033	0.792478	mountain	3	0	0.000000	0.888370	1	0	0	0	CorrectOmission	2.556153	1.019462	0	1
365.745300	0.792047	city	5	1	0.843751	0.843751	0	1	0	0	CorrectCommission	2.039112	0.983790	0	1
366.537506	0.792374	city	9	1	0.645802	0.645802	0	1	0	0	CorrectCommission	0.254696	0.941725	0	1
367.329773	0.792157	city	10	1	0.596167	0.596167	0	1	0	0	CorrectCommission	0.829864	0.895442	0	1
368.121979	0.792292	city	2	1	0.656214	0.656214	0	1	0	0	CorrectCommission	0.134041	0.847865	0	1
368.914276	0.792260	city	8	1	0.695391	0.695391	0	1	0	0	CorrectCommission	0.319930	0.802362	0	1
369.706512	0.792244	city	1	1	0.744794	0.744794	0	1	0	0	CorrectCommission	0.892406	0.762250	0	1
370.498871	0.792480	city	5	1	0.695462	0.695462	0	1	0	0	CorrectCommission	0.320760	0.730425	0	1
371.291138	0.792046	city	7	1	0.702288	0.702288	0	1	0	0	CorrectCommission	0.399849	0.709049	1	1
372.083313	0.792292	city	5	1	0.744799	0.744799	0	1	0	0	CorrectCommission	0.892467	0.699269	1	1
372.875671	0.792455	city	10	1	0.596307	0.596307	0	1	0	0	CorrectCommission	0.828240	0.701069	1	1
373.667938	0.792048	mountain	10	0	0.000000	0.662330	1	0	0	0	CorrectOmission	0.063176	0.713238	0	1
374.460114	0.792324	city	7	1	0.744910	0.744910	0	1	0	0	CorrectCommission	0.893749	0.733482	0	1
375.252380	0.792208	city	4	1	0.646089	0.646089	0	1	0	0	CorrectCommission	0.251375	0.758526	0	1
376.044678	0.792370	city	1	1	0.647061	0.647061	0	1	0	0	CorrectCommission	0.240104	0.784472	0	1
376.836945	0.792161	city	9	1	0.695193	0.695193	0	1	0	0	CorrectCommission	0.317640	0.807181	0	1
377.629150	0.792271	city	8	1	0.695283	0.695283	0	1	0	0	CorrectCommission	0.318685	0.822783	0	1
378.421448	0.792310	mountain	7	0	0.000000	0.885284	1	0	0	0	CorrectOmission	2.520392	0.828188	0	1
379.213776	0.792318	city	3	1	0.992612	0.992612	0	1	0	0	CorrectCommission	3.764093	0.821468	0	1
380.006012	0.792155	city	1	1	0.744683	0.744683	0	1	0	0	CorrectCommission	0.891117	0.802128	0	1
380.798218	0.792269	city	10	1	0.653180	0.653180	0	1	0	0	CorrectCommission	0.169207	0.771206	0	1
381.590485	0.792261	city	6	1	0.709038	0.709038	0	1	0	0	CorrectCommission	0.478067	0.730948	0	1
382.382751	0.792321	city	8	1	0.650577	0.650577	0	1	0	0	CorrectCommission	0.199363	0.684448	1	1
383.175049	0.792241	city	7	1	0.699915	0.699915	0	1	0	0	CorrectCommission	0.372359	0.635204	1	1
383.967316	0.792314	city	3	1	0.695231	0.695231	0	1	0	0	CorrectCommission	0.318084	0.586672	1	1
384.759583	0.792198	mountain	10	0	0.000000	0.702579	1	0	0	0	CorrectOmission	0.403222	0.541875	1	1
385.551819	0.792254	city	6	1	0.695245	0.695245	0	1	0	0	CorrectCommission	0.318247	0.503225	1	1
386.344055	0.792260	city	8	1	0.646521	0.646521	0	1	0	0	CorrectCommission	0.246368	0.472508	1	1
387.136383	0.792375	mountain	7	0	0.000000	0.703405	1	0	0	0	CorrectOmission	0.412799	0.450947	1	1
387.928741	0.792375	city	7	1	0.744707	0.744707	0	1	0	0	CorrectCommission	0.891395	0.439382	1	1
388.720978	0.792046	city	1	1	0.649234	0.649234	0	1	0	0	CorrectCommission	0.214933	0.438391	1	1
389.513184	0.792373	city	5	1	0.645795	0.645795	0	1	0	0	CorrectCommission	0.254781	0.448383	1	1
390.305450	0.792157	city	1	1	0.709525	0.709525	0	1	0	0	CorrectCommission	0.483718	0.469549	1	1
391.097748	0.792483	city	7	1	0.697746	0.697746	0	1	0	0	CorrectCommission	0.347227	0.501778	1	1
391.890015	0.792045	city	3	1	0.649106	0.649106	0	1	0	0	CorrectCommission	0.216412	0.544457	1	1
392.682220	0.792325	city	2	1	0.645811	0.645811	0	1	0	0	CorrectCommission	0.254591	0.596293	1	1
393.474487	0.792206	city	8	1	0.664672	0.664672	0	1	0	0	CorrectCommission	0.036030	0.655157	1	1
394.266754	0.792372	city	10	1	0.615822	0.615822	0	1	0	0	CorrectCommission	0.602101	0.718063	0	1
395.059021	0.792161	city	5	1	0.646028	0.646028	0	1	0	0	CorrectCommission	0.252077	0.781305	0	1
395.851227	0.792262	city	8	1	0.596254	0.596254	0	1	0	0	CorrectCommission	0.828859	0.840781	0	1
396.643494	0.792267	city	10	1	0.546809	0.546809	0	1	0	0	CorrectCommission	1.401821	0.892358	0	1
397.435883	0.792479	city	2	1	0.497363	0.497363	0	1	0	0	CorrectCommission	1.974784	0.932478	0	1
398.228149	0.792052	city	10	1	0.502016	0.502016	0	1	0	0	CorrectCommission	1.920875	0.958557	0	1
399.020325	0.792342	city	8	1	0.497230	0.497230	0	1	0	0	CorrectCommission	1.976334	0.969370	0	1
399.812653	0.792291	city	6	1	0.555895	0.555895	0	1	0	0	CorrectCommission	1.296529	0.965199	0	1
400.604919	0.792210	city	3	1	0.645666	0.645666	0	1	0	0	CorrectCommission	0.256274	0.947795	0	1
401.397125	0.792212	city	10	1	0.613118	0.613118	0	1	0	0	CorrectCommission	0.633437	0.920158	0	1
402.189362	0.792263	city	7	1	0.708810	0.708810	0	1	0	0	CorrectCommission	0.475431	0.886120	0	1
402.981720	0.792484	city	1	1	0.563847	0.563847	0	1	0	0	CorrectCommission	1.204385	0.849943	0	1
403.773987	0.792049	city	9	1	0.555909	0.555909	0	1	0	0	CorrectCommission	1.296361	0.815782	0	1
404.566162	0.792263	mountain	1	0	0.000000	0.602608	1	0	0	0	CorrectOmission	0.755219	0.787279	0	1
405.358398	0.792265	city	3	1	0.650410	0.650410	0	1	0	0	CorrectCommission	0.201303	0.767172	0	1
406.150665	0.792269	city	1	1	0.645779	0.645779	0	1	0	0	CorrectCommission	0.254960	0.757012	0	1
406.943054	0.792477	city	4	1	0.645746	0.645746	0	1	0	0	CorrectCommission	0.255345	0.757000	0	1
407.735382	0.792156	city	5	1	0.697590	0.697590	0	1	0	0	CorrectCommission	0.345418	0.765969	0	1
408.527588	0.792266	city	4	1	0.697619	0.697619	0	1	0	0	CorrectCommission	0.345754	0.781564	0	1
409.319855	0.792265	city	1	1	0.699461	0.699461	0	1	0	0	CorrectCommission	0.367092	0.800587	0	1
410.112061	0.792156	city	10	1	0.744676	0.744676	0	1	0	0	CorrectCommission	0.891041	0.819424	0	1
410.904266	0.792265	city	4	1	0.863005	0.863005	0	1	0	0	CorrectCommission	2.262226	0.834554	0	1
411.696533	0.792286	city	7	1	0.794458	0.794458	0	1	0	0	CorrectCommission	1.467914	0.843001	0	1
412.488861	0.792351	city	10	1	0.814294	0.814294	0	1	0	0	CorrectCommission	1.697764	0.842779	0	1
413.281219	0.792372	city	2	1	0.698145	0.698145	0	1	0	0	CorrectCommission	0.351847	0.833000	0	1
414.073425	0.792049	city	1	1	0.761442	0.761442	0	1	0	0	CorrectCommission	1.085320	0.813965	0	1
414.865601	0.792262	city	6	1	0.744923	0.744923	0	1	0	0	CorrectCommission	0.893905	0.786947	0	1
415.657867	0.792268	city	10	1	0.695304	0.695304	0	1	0	0	CorrectCommission	0.318929	0.753967	0	1
416.450134	0.792263	city	3	1	0.695249	0.695249	0	1	0	0	CorrectCommission	0.318285	0.717502	0	1
417.242371	0.792263	city	6	1	0.716976	0.716976	0	1	0	0	CorrectCommission	0.570057	0.680158	1	1
418.034637	0.792265	city	7	1	0.794320	0.794320	0	1	0	0	CorrectCommission	1.466314	0.644484	1	1
418.826904	0.792266	city	8	1	0.696972	0.696972	0	1	0	0	CorrectCommission	0.338256	0.612788	1	1
419.619171	0.792263	city	7	1	0.655813	0.655813	0	1	0	0	CorrectCommission	0.138696	0.587095	1	1
420.411438	0.792268	city	8	1	0.696295	0.696295	0	1	0	0	CorrectCommission	0.330414	0.569028	1	1
421.203735	0.792321	city	10	1	0.695360	0.695360	0	1	0	0	CorrectCommission	0.319579	0.559801	1	1
421.996063	0.792316	city	9	1	0.751529	0.751529	0	1	0	0	CorrectCommission	0.970447	0.560214	1	1
422.788300	0.792156	city	2	1	0.646586	0.646586	0	1	0	0	CorrectCommission	0.245613	0.570636	1	1
423.580505	0.792264	city	3	1	0.662494	0.662494	0	1	0	0	CorrectCommission	0.061273	0.590986	1	1
424.372772	0.792296	city	9	1	0.597203	0.597203	0	1	0	0	CorrectCommission	0.817859	0.620577	1	0
425.165039	0.792237	mountain	2	0	0.000000	0.603904	1	0	0	0	CorrectOmission	0.740210	0.658211	1	0
425.957397	0.792481	city	10	1	0.646177	0.646177	0	1	0	0	CorrectCommission	0.250354	0.702211	1	0
426.749786	0.792263	mountain	6	0	0.000000	0.687602	1	0	0	0	CorrectOmission	0.229680	0.750534	0	0
427.541931	0.792049	city	4	1	0.711274	0.711274	0	1	0	0	CorrectCommission	0.503981	0.800974	0	0
428.334076	0.792262	city	10	1	0.700284	0.700284	0	1	0	0	CorrectCommission	0.376636	0.851395	0	0
429.126343	0.792266	city	3	1	0.794403	0.794403	0	1	0	0	CorrectCommission	1.467275	0.900080	0	0
429.918732	0.792482	city	4	1	0.893519	0.893519	0	1	0	0	CorrectCommission	2.615810	0.945866	0	0
430.710999	0.792046	city	8	1	0.808805	0.808805	0	1	0	0	CorrectCommission	1.634156	0.988302	0	0
431.503204	0.792373	city	7	1	0.794232	0.794232	0	1	0	0	CorrectCommission	1.465291	1.027567	0	0
432.295563	0.792374	city	10	1	0.663602	0.663602	0	1	0	0	CorrectCommission	0.048437	1.064217	0	0
433.087799	0.792049	city	9	1	0.695128	0.695128	0	1	0	0	CorrectCommission	0.316882	1.098819	0	0
433.880005	0.792374	city	7	1	0.794502	0.794502	0	1	0	0	CorrectCommission	1.468421	1.131517	0	0
434.672302	0.792221	city	3	1	0.759799	0.759799	0	1	0	0	CorrectCommission	1.066286	1.161730	0	0
435.464600	0.792416	city	5	1	0.698881	0.698881	0	1	0	0	CorrectCommission	0.360375	1.188025	0	0
436.256836	0.792056	city	2	1	0.663937	0.663937	0	1	0	0	CorrectCommission	0.044549	1.208250	0	0
437.049011	0.792265	city	10	1	0.704615	0.704615	0	1	0	0	CorrectCommission	0.426819	1.219860	0	0
437.841339	0.792365	mountain	6	0	0.000000	0.976015	1	0	0	0	CorrectOmission	3.571761	1.220404	0	0
438.633698	0.792372	city	3	1	1.091300	1.091300	0	1	0	0	CorrectCommission	4.907672	1.208062	0	0
439.425964	0.792156	city	10	1	0.663635	0.663635	0	1	0	0	CorrectCommission	0.048051	1.182136	0	0
440.218170	0.792264	city	5	1	0.550616	0.550616	0	1	0	0	CorrectCommission	1.357702	1.143381	0	0
441.010376	0.792156	city	2	1	0.551585	0.551585	0	1	0	0	CorrectCommission	1.346476	1.093738	0	0
441.802582	0.792267	city	5	1	0.646467	0.646467	0	1	0	0	CorrectCommission	0.246994	1.036189	0	0
442.594849	0.792265	city	9	1	0.614487	0.614487	0	1	0	0	CorrectCommission	0.617569	0.974318	0	0
443.387115	0.792263	mountain	5	0	0.000000	0.673701	1	0	0	0	CorrectOmission	0.068596	0.911766	0	0
444.179413	0.792299	mountain	9	0	0.000000	0.743878	1	0	0	0	CorrectOmission	0.881798	0.851849	0	0
444.971710	0.792291	city	3	1	0.744788	0.744788	0	1	0	0	CorrectCommission	0.892334	0.797198	0	0
445.763947	0.792204	city	5	1	0.596198	0.596198	0	1	0	0	CorrectCommission	0.829501	0.749627	0	0
446.556183	0.792268	city	7	1	0.695328	0.695328	0	1	0	0	CorrectCommission	0.319204	0.710137	0	0
447.348358	0.792115	city	4	1	0.803345	0.803345	0	1	0	0	CorrectCommission	1.570894	0.678998	1	0
448.140656	0.792470	city	8	1	0.668018	0.668018	0	1	0	0	CorrectCommission	0.002742	0.655909	1	0
448.933014	0.792210	city	10	1	0.647053	0.647053	0	1	0	0	CorrectCommission	0.240197	0.640176	1	0
449.725281	0.792372	city	5	1	0.745139	0.745139	0	1	0	0	CorrectCommission	0.896402	0.630806	1	0
450.517609	0.792263	city	8	1	0.645663	0.645663	0	1	0	0	CorrectCommission	0.256314	0.626608	1	0
451.309814	0.792159	city	9	1	0.645775	0.645775	0	1	0	0	CorrectCommission	0.255012	0.626332	1	0
452.102020	0.792264	city	1	1	0.596673	0.596673	0	1	0	0	CorrectCommission	0.823993	0.628719	1	0
452.894287	0.792268	city	6	1	0.650713	0.650713	0	1	0	0	CorrectCommission	0.197794	0.632579	1	0
453.686676	0.792479	city	8	1	0.562921	0.562921	0	1	0	0	CorrectCommission	1.215117	0.636903	1	0
454.478973	0.792156	city	9	1	0.546442	0.546442	0	1	0	0	CorrectCommission	1.406067	0.640877	1	0
455.271149	0.792159	city	4	1	0.599771	0.599771	0	1	0	0	CorrectCommission	0.788100	0.643924	1	0
456.063477	0.792478	mountain	10	0	0.000000	0.631408	1	0	0	0	CorrectOmission	0.421499	0.645684	1	0
456.855774	0.792128	city	6	1	0.657746	0.657746	0	1	0	0	CorrectCommission	0.116287	0.646084	1	0
457.647919	0.792187	city	4	1	0.695182	0.695182	0	1	0	0	CorrectCommission	0.317514	0.645153	1	0
458.440247	0.792479	city	10	1	0.657372	0.657372	0	1	0	0	CorrectCommission	0.120623	0.643004	1	0
459.232513	0.792053	mountain	4	0	0.000000	0.775521	1	0	0	0	CorrectOmission	1.248466	0.639825	1	0
460.024689	0.792268	city	4	1	0.844213	0.844213	0	1	0	0	CorrectCommission	2.044468	0.635770	1	0
460.816956	0.792257	city	2	1	0.658036	0.658036	0	1	0	0	CorrectCommission	0.112931	0.630992	1	0
461.609222	0.792318	city	10	1	0.646324	0.646324	0	1	0	0	CorrectCommission	0.248644	0.625644	1	0
462.401520	0.792241	city	2	1	0.661606	0.661606	0	1	0	0	CorrectCommission	0.071561	0.619783	1	0
463.193756	0.792234	city	4	1	0.551388	0.551388	0	1	0	0	CorrectCommission	1.348757	0.613432	1	0
463.986115	0.792482	city	9	1	0.645772	0.645772	0	1	0	0	CorrectCommission	0.255044	0.606574	1	0
464.778381	0.792084	city	7	1	0.645529	0.645529	0	1	0	0	CorrectCommission	0.257864	0.599252	1	0
465.570557	0.792233	city	9	1	0.654965	0.654965	0	1	0	0	CorrectCommission	0.148515	0.591632	1	0
466.362854	0.792371	city	4	1	0.558468	0.558468	0	1	0	0	CorrectCommission	1.266718	0.584185	1	0
467.155121	0.792156	city	1	1	0.546667	0.546667	0	1	0	0	CorrectCommission	1.403458	0.577786	1	0
467.947327	0.792264	city	8	1	0.605593	0.605593	0	1	0	0	CorrectCommission	0.720632	0.573830	1	0
468.739594	0.792287	city	5	1	0.647930	0.647930	0	1	0	0	CorrectCommission	0.230034	0.574243	1	0
469.531860	0.792249	city	3	1	0.652945	0.652945	0	1	0	0	CorrectCommission	0.171921	0.581314	1	0
470.324127	0.792290	city	7	1	0.695333	0.695333	0	1	0	0	CorrectCommission	0.319257	0.597443	1	0
471.116394	0.792236	city	9	1	0.662556	0.662556	0	1	0	0	CorrectCommission	0.060553	0.624809	1	0
471.908661	0.792263	city	3	1	0.744770	0.744770	0	1	0	0	CorrectCommission	0.892124	0.665008	1	0
472.700928	0.792262	city	9	1	0.695252	0.695252	0	1	0	0	CorrectCommission	0.318323	0.718661	0	0
473.493195	0.792272	city	8	1	0.612659	0.612659	0	1	0	0	CorrectCommission	0.638753	0.785119	0	0
474.285461	0.792262	city	10	1	0.596383	0.596383	0	1	0	0	CorrectCommission	0.827362	0.862202	0	0
475.077698	0.792262	city	8	1	0.695293	0.695293	0	1	0	0	CorrectCommission	0.318801	0.946183	0	0
475.870087	0.792480	city	10	1	0.645751	0.645751	0	1	0	0	CorrectCommission	0.255290	1.031976	0	0
476.662445	0.792266	city	2	1	0.653103	0.653103	0	1	0	0	CorrectCommission	0.170100	1.113446	0	0
477.454620	0.792051	city	1	1	0.746338	0.746338	0	1	0	0	CorrectCommission	0.910300	1.184015	0	0
478.246765	0.792259	mountain	8	0	0.000000	0.897805	1	0	0	0	CorrectOmission	2.665479	1.237373	0	0
479.039032	0.792270	mountain	7	0	0.000000	1.011953	1	0	0	0	CorrectOmission	3.988214	1.268081	0	0
479.831299	0.792262	city	9	1	0.993233	0.993233	0	1	0	0	CorrectCommission	3.771282	1.272210	0	0
480.623657	0.792453	city	7	1	0.746093	0.746093	0	1	0	0	CorrectCommission	0.907461	1.247655	0	0
481.415924	0.792078	mountain	2	0	0.000000	0.619757	1	0	0	0	CorrectOmission	0.556502	1.194256	0	0
482.208099	0.792264	mountain	1	0	0.000000	0.596167	1	0	0	0	CorrectOmission	0.829864	1.113465	0	0
483.000366	0.792281	city	5	1	0.657264	0.657264	0	1	0	0	CorrectCommission	0.121882	1.008019	0	0
483.792725	0.792408	mountain	1	0	0.000000	0.784989	1	0	0	0	CorrectOmission	1.358185	0.881525	0	0
484.584961	0.792104	city	6	1	0.855493	0.855493	0	1	0	0	CorrectCommission	2.175172	0.738017	0	0
485.377197	0.792371	city	2	1	0.744924	0.744924	0	1	0	0	CorrectCommission	0.893913	0.581736	1	0
486.169495	0.792237	city	3	1	0.647533	0.647533	0	1	0	0	CorrectCommission	0.234636	0.416992	1	0
486.961823	0.792401	city	8	1	0.646377	0.646377	0	1	0	0	CorrectCommission	0.248033	0.248033	1	0
