onset	duration	trial_type	image_type	Press	ReactionTime	ReactionTime_Interpolated	CorrectOmission	CorrectCommission	CommissionError	OmissionError	response_type	nonsmoothVarianceTimeCourse	VarianceTimeCourse	In_the_Zone	Reward_trial
8.433948	0.792158	city	5	1	1.145538	1.145538	0	1	0	0	CorrectCommission	5.224923	5.224923	0	1
9.226105	0.792156	city	6	1	0.893191	0.893191	0	1	0	0	CorrectCommission	2.645950	4.606513	0	1
10.018423	0.792481	city	2	1	0.699955	0.699955	0	1	0	0	CorrectCommission	0.671091	4.009933	0	1
10.810688	0.792049	city	3	1	0.648559	0.648559	0	1	0	0	CorrectCommission	0.145830	3.454561	0	1
11.602859	0.792294	city	1	1	0.600564	0.600564	0	1	0	0	CorrectCommission	0.344681	2.955294	0	1
12.395153	0.792293	city	8	1	0.552520	0.552520	0	1	0	0	CorrectCommission	0.835687	2.521330	0	1
13.187403	0.792208	city	2	1	0.515213	0.515213	0	1	0	0	CorrectCommission	1.216965	2.155855	0	1
13.979747	0.792480	city	4	1	0.517166	0.517166	0	1	0	0	CorrectCommission	1.197009	1.856637	0	1
14.772012	0.792049	city	6	1	0.461991	0.461991	0	1	0	0	CorrectCommission	1.760886	1.617373	0	1
15.564168	0.792264	mountain	5	0	0.000000	0.476861	1	0	0	0	CorrectOmission	1.608918	1.429305	0	1
16.356461	0.792322	city	8	1	0.497530	0.497530	0	1	0	0	CorrectCommission	1.397685	1.282993	0	1
17.148724	0.792205	city	3	1	0.459752	0.459752	0	1	0	0	CorrectCommission	1.783773	1.169728	0	1
17.940962	0.792271	mountain	2	1	0.450577	0.450577	0	0	1	0	CommissionError	1.877546	1.082472	0	1
18.733282	0.792369	mountain	4	1	0.606270	0.606270	0	0	1	0	CommissionError	0.286370	1.016286	0	1
19.525543	0.792156	city	8	1	0.701941	0.701941	0	1	0	0	CorrectCommission	0.691391	0.968212	0	1
20.317768	0.792291	city	5	1	0.657564	0.657564	0	1	0	0	CorrectCommission	0.237852	0.936646	0	1
21.110142	0.792456	city	4	1	0.649413	0.649413	0	1	0	0	CorrectCommission	0.154550	0.920662	0	1
21.902399	0.792059	city	5	1	0.601107	0.601107	0	1	0	0	CorrectCommission	0.339128	0.919231	0	1
22.694576	0.792296	city	1	1	0.596217	0.596217	0	1	0	0	CorrectCommission	0.389110	0.930678	0	1
23.486845	0.792243	city	7	1	0.596892	0.596892	0	1	0	0	CorrectCommission	0.382204	0.952405	0	1
24.279198	0.792461	mountain	5	0	0.000000	0.555223	1	0	0	0	CorrectOmission	0.808064	0.980991	0	1
25.071451	0.792048	city	2	1	0.496942	0.496942	0	1	0	0	CorrectCommission	1.403693	1.012557	0	1
25.863607	0.792264	city	5	1	0.447783	0.447783	0	1	0	0	CorrectCommission	1.906092	1.043299	0	1
26.655926	0.792373	city	4	1	0.454500	0.454500	0	1	0	0	CorrectCommission	1.837445	1.070041	0	1
27.448195	0.792162	city	9	1	0.451125	0.451125	0	1	0	0	CorrectCommission	1.871945	1.090695	0	1
28.240408	0.792267	city	2	1	0.497207	0.497207	0	1	0	0	CorrectCommission	1.400988	1.104479	0	1
29.032682	0.792281	city	4	1	0.602931	0.602931	0	1	0	0	CorrectCommission	0.320490	1.111891	0	1
29.824944	0.792240	city	10	1	0.501953	0.501953	0	1	0	0	CorrectCommission	1.352483	1.114441	0	1
30.617250	0.792374	mountain	2	0	0.000000	0.499246	1	0	0	0	CorrectOmission	1.380148	1.114160	0	1
31.409624	0.792373	mountain	9	1	0.546645	0.546645	0	0	1	0	CommissionError	0.895736	1.113128	0	1
32.201942	0.792266	city	4	1	0.595983	0.595983	0	1	0	0	CorrectCommission	0.391497	1.112971	0	1
32.994118	0.792084	city	3	1	0.595987	0.595987	0	1	0	0	CorrectCommission	0.391454	1.114518	0	1
33.786316	0.792307	city	8	1	0.555953	0.555953	0	1	0	0	CorrectCommission	0.800602	1.117660	0	1
34.578560	0.792183	city	2	1	0.499500	0.499500	0	1	0	0	CorrectCommission	1.377548	1.121424	0	1
35.370838	0.792375	city	6	1	0.508639	0.508639	0	1	0	0	CorrectCommission	1.284149	1.124232	0	1
36.163212	0.792372	city	3	1	0.459217	0.459217	0	1	0	0	CorrectCommission	1.789238	1.124375	0	1
36.955532	0.792265	city	1	1	0.496977	0.496977	0	1	0	0	CorrectCommission	1.403332	1.120339	0	1
37.747742	0.792156	mountain	3	1	0.447478	0.447478	0	0	1	0	CommissionError	1.909212	1.111250	0	1
38.539898	0.792155	city	5	1	0.554874	0.554874	0	1	0	0	CorrectCommission	0.811628	1.097062	0	1
39.332108	0.792264	city	7	1	0.546771	0.546771	0	1	0	0	CorrectCommission	0.894440	1.078657	0	1
40.124405	0.792330	mountain	4	0	0.000000	0.493816	1	0	0	0	CorrectOmission	1.435645	1.057672	0	1
40.916721	0.792307	mountain	7	1	0.506454	0.506454	0	0	1	0	CommissionError	1.306483	1.036220	0	1
41.708954	0.792157	city	10	1	0.695132	0.695132	0	1	0	0	CorrectCommission	0.621804	1.016537	0	1
42.501179	0.792292	mountain	5	0	0.000000	0.652648	1	0	0	0	CorrectOmission	0.187619	1.000619	0	1
43.293446	0.792240	city	1	1	0.553130	0.553130	0	1	0	0	CorrectCommission	0.829457	0.989880	0	1
44.085697	0.792264	city	10	1	0.570704	0.570704	0	1	0	0	CorrectCommission	0.649849	0.984905	0	1
44.877960	0.792262	city	7	1	0.554512	0.554512	0	1	0	0	CorrectCommission	0.815335	0.985425	0	1
45.670223	0.792266	city	1	1	0.515136	0.515136	0	1	0	0	CorrectCommission	1.217749	0.990359	0	1
46.462490	0.792265	mountain	3	0	0.000000	0.523623	1	0	0	0	CorrectOmission	1.131010	0.997998	0	1
47.254757	0.792271	city	10	1	0.546772	0.546772	0	1	0	0	CorrectCommission	0.894433	1.006259	0	1
48.047024	0.792259	city	1	1	0.551381	0.551381	0	1	0	0	CorrectCommission	0.847333	1.012983	0	1
48.839283	0.792264	mountain	10	0	0.000000	0.495890	1	0	0	0	CorrectOmission	1.414445	1.016195	0	1
49.631546	0.792263	city	2	1	0.465857	0.465857	0	1	0	0	CorrectCommission	1.721378	1.014292	0	1
50.423813	0.792268	city	8	1	0.546840	0.546840	0	1	0	0	CorrectCommission	0.893742	1.006178	0	1
51.216190	0.792482	mountain	8	1	0.447668	0.447668	0	0	1	0	CommissionError	1.907275	0.991334	0	1
52.008507	0.792154	city	5	1	0.605633	0.605633	0	1	0	0	CorrectCommission	0.292876	0.969665	0	1
52.800716	0.792264	city	9	1	0.596144	0.596144	0	1	0	0	CorrectCommission	0.389856	0.941576	0	1
53.592926	0.792155	mountain	7	0	0.000000	0.564639	1	0	0	0	CorrectOmission	0.711832	0.907772	0	1
54.385136	0.792267	city	6	1	0.517552	0.517552	0	1	0	0	CorrectCommission	1.193057	0.869249	0	1
55.177425	0.792308	city	7	1	0.461316	0.461316	0	1	0	0	CorrectCommission	1.767784	0.827216	0	1
55.969688	0.792219	mountain	8	0	0.000000	0.535927	1	0	0	0	CorrectOmission	1.005268	0.783100	0	1
56.761940	0.792289	mountain	9	1	0.645773	0.645773	0	0	1	0	CommissionError	0.117349	0.738512	0	1
57.554260	0.792350	city	8	1	0.695242	0.695242	0	1	0	0	CorrectCommission	0.622919	0.695148	0	1
58.346531	0.792193	city	6	1	0.744711	0.744711	0	1	0	0	CorrectCommission	1.128495	0.654663	1	1
59.138783	0.792304	city	10	1	0.645896	0.645896	0	1	0	0	CorrectCommission	0.118611	0.618570	1	1
59.931137	0.792406	city	2	1	0.653485	0.653485	0	1	0	0	CorrectCommission	0.196169	0.588100	1	1
60.723385	0.792089	city	3	1	0.695051	0.695051	0	1	0	0	CorrectCommission	0.620969	0.564003	1	1
61.515541	0.792222	city	2	1	0.620848	0.620848	0	1	0	0	CorrectCommission	0.137380	0.546479	1	1
62.307892	0.792483	city	1	1	0.659707	0.659707	0	1	0	0	CorrectCommission	0.259761	0.535179	1	1
63.100266	0.792264	mountain	9	0	0.000000	0.693133	1	0	0	0	CorrectOmission	0.601374	0.529223	1	1
63.892441	0.792085	city	8	1	0.697895	0.697895	0	1	0	0	CorrectCommission	0.650039	0.527342	1	1
64.684601	0.792228	city	10	1	0.650761	0.650761	0	1	0	0	CorrectCommission	0.168334	0.528068	1	1
65.476898	0.792378	city	7	1	0.667591	0.667591	0	1	0	0	CorrectCommission	0.340329	0.529938	1	1
66.269272	0.792368	city	4	1	0.811201	0.811201	0	1	0	0	CorrectCommission	1.808016	0.531660	1	1
67.061485	0.792049	city	8	1	0.649830	0.649830	0	1	0	0	CorrectCommission	0.158816	0.532241	1	1
67.853745	0.792480	city	9	1	0.695212	0.695212	0	1	0	0	CorrectCommission	0.622613	0.531166	1	0
68.646042	0.792110	city	10	1	0.695036	0.695036	0	1	0	0	CorrectCommission	0.620820	0.528248	1	0
69.438309	0.792419	city	9	1	0.695378	0.695378	0	1	0	0	CorrectCommission	0.624314	0.523648	1	0
70.230537	0.792049	city	6	1	0.605009	0.605009	0	1	0	0	CorrectCommission	0.299257	0.517708	1	0
71.022804	0.792481	city	9	1	0.604864	0.604864	0	1	0	0	CorrectCommission	0.300740	0.510811	1	0
71.815071	0.792048	city	3	1	0.596001	0.596001	0	1	0	0	CorrectCommission	0.391315	0.503261	1	0
72.607224	0.792263	city	9	1	0.596592	0.596592	0	1	0	0	CorrectCommission	0.385272	0.495200	1	0
73.399490	0.792265	city	4	1	0.600401	0.600401	0	1	0	0	CorrectCommission	0.346348	0.486624	1	0
74.191788	0.792332	city	9	1	0.551621	0.551621	0	1	0	0	CorrectCommission	0.844880	0.477430	1	0
74.984108	0.792309	city	1	1	0.559073	0.559073	0	1	0	0	CorrectCommission	0.768712	0.467459	1	0
75.776375	0.792219	city	3	1	0.702483	0.702483	0	1	0	0	CorrectCommission	0.696925	0.456624	1	0
76.568581	0.792202	city	1	1	0.614487	0.614487	0	1	0	0	CorrectCommission	0.202387	0.444964	1	0
77.360840	0.792310	city	4	1	0.602733	0.602733	0	1	0	0	CorrectCommission	0.322519	0.432700	1	0
78.153107	0.792233	city	2	1	0.596175	0.596175	0	1	0	0	CorrectCommission	0.389539	0.420219	1	0
78.945351	0.792249	mountain	4	0	0.000000	0.660240	1	0	0	0	CorrectOmission	0.265206	0.408070	1	0
79.737610	0.792268	city	6	1	0.695294	0.695294	0	1	0	0	CorrectCommission	0.623455	0.396908	1	0
80.529877	0.792266	city	4	1	0.601702	0.601702	0	1	0	0	CorrectCommission	0.333052	0.387417	1	0
81.322144	0.792264	city	7	1	0.601321	0.601321	0	1	0	0	CorrectCommission	0.336943	0.380254	1	0
82.114403	0.792265	city	5	1	0.601327	0.601327	0	1	0	0	CorrectCommission	0.336888	0.375992	1	0
82.906776	0.792478	city	8	1	0.611055	0.611055	0	1	0	0	CorrectCommission	0.237462	0.375045	1	0
83.699043	0.792055	city	4	1	0.613288	0.613288	0	1	0	0	CorrectCommission	0.214640	0.377598	1	0
84.491203	0.792257	city	3	1	0.604319	0.604319	0	1	0	0	CorrectCommission	0.306301	0.383629	1	0
85.283463	0.792268	city	6	1	0.596845	0.596845	0	1	0	0	CorrectCommission	0.382692	0.392847	1	0
86.075836	0.792479	city	2	1	0.596263	0.596263	0	1	0	0	CorrectCommission	0.388637	0.404731	1	0
86.868141	0.792125	mountain	9	0	0.000000	0.593660	1	0	0	0	CorrectOmission	0.415239	0.418543	1	0
87.660316	0.792234	city	5	1	0.596207	0.596207	0	1	0	0	CorrectCommission	0.389214	0.433391	1	0
88.452545	0.792218	city	9	1	0.611073	0.611073	0	1	0	0	CorrectCommission	0.237279	0.448300	1	0
89.244781	0.792263	city	6	1	0.571760	0.571760	0	1	0	0	CorrectCommission	0.639057	0.462272	1	0
90.037048	0.792269	city	10	1	0.601215	0.601215	0	1	0	0	CorrectCommission	0.338028	0.474369	1	0
90.829315	0.792263	city	8	1	0.497199	0.497199	0	1	0	0	CorrectCommission	1.401070	0.483802	1	0
91.621574	0.792261	city	4	1	0.612455	0.612455	0	1	0	0	CorrectCommission	0.223156	0.489939	1	0
92.413895	0.792375	city	7	1	0.649891	0.649891	0	1	0	0	CorrectCommission	0.159435	0.492453	1	0
93.206192	0.792224	city	3	1	0.695332	0.695332	0	1	0	0	CorrectCommission	0.623839	0.491269	1	0
93.998405	0.792200	city	8	1	0.698105	0.698105	0	1	0	0	CorrectCommission	0.652183	0.486604	1	0
94.790642	0.792273	city	3	1	0.696006	0.696006	0	1	0	0	CorrectCommission	0.630732	0.478982	1	0
95.582916	0.792274	city	4	1	0.695252	0.695252	0	1	0	0	CorrectCommission	0.623027	0.469214	1	0
96.375175	0.792245	city	1	1	0.645899	0.645899	0	1	0	0	CorrectCommission	0.118641	0.458360	1	0
97.167542	0.792482	city	2	1	0.560996	0.560996	0	1	0	0	CorrectCommission	0.749059	0.447667	1	0
97.959854	0.792155	city	10	1	0.595883	0.595883	0	1	0	0	CorrectCommission	0.392517	0.438470	1	0
98.752014	0.792165	city	1	1	0.596124	0.596124	0	1	0	0	CorrectCommission	0.390058	0.432114	1	0
99.544281	0.792366	city	10	1	0.598792	0.598792	0	1	0	0	CorrectCommission	0.362791	0.429799	1	0
100.336540	0.792155	city	1	1	0.615724	0.615724	0	1	0	0	CorrectCommission	0.189746	0.432468	1	0
101.128769	0.792287	city	5	1	0.602750	0.602750	0	1	0	0	CorrectCommission	0.322340	0.440721	1	0
101.921043	0.792277	city	9	1	0.645821	0.645821	0	1	0	0	CorrectCommission	0.117848	0.454782	1	0
102.713310	0.792251	city	10	1	0.645873	0.645873	0	1	0	0	CorrectCommission	0.118377	0.474481	1	0
103.505562	0.792244	city	5	1	0.695485	0.695485	0	1	0	0	CorrectCommission	0.625409	0.499321	1	0
104.297813	0.792266	city	2	1	0.605609	0.605609	0	1	0	0	CorrectCommission	0.293124	0.528565	1	0
105.090080	0.792262	city	4	1	0.553237	0.553237	0	1	0	0	CorrectCommission	0.828358	0.561356	1	0
105.882454	0.792483	city	6	1	0.550111	0.550111	0	1	0	0	CorrectCommission	0.860306	0.596790	1	0
106.674721	0.792050	city	9	1	0.596004	0.596004	0	1	0	0	CorrectCommission	0.391284	0.633966	1	0
107.466873	0.792265	mountain	7	1	0.504352	0.504352	0	0	1	0	CommissionError	1.327959	0.672014	0	0
108.267395	0.808769	mountain	3	0	0.000000	0.544819	1	0	0	0	CorrectOmission	0.914396	0.709948	0	0
109.067909	0.792266	city	8	1	0.612554	0.612554	0	1	0	0	CorrectCommission	0.222145	0.746649	0	0
109.860229	0.792370	city	10	1	0.602709	0.602709	0	1	0	0	CorrectCommission	0.322758	0.780767	0	0
110.652489	0.792157	city	8	1	0.596481	0.596481	0	1	0	0	CorrectCommission	0.386405	0.810686	0	0
111.444710	0.792285	city	10	1	0.562980	0.562980	0	1	0	0	CorrectCommission	0.728791	0.834648	0	0
112.237030	0.792352	city	1	1	0.554308	0.554308	0	1	0	0	CorrectCommission	0.817419	0.850944	0	0
113.029335	0.792264	city	5	1	0.794150	0.794150	0	1	0	0	CorrectCommission	1.633758	0.858202	0	0
113.821548	0.792156	mountain	4	0	0.000000	0.850054	1	0	0	0	CorrectOmission	2.205092	0.855641	0	0
114.613762	0.792264	city	1	1	0.794290	0.794290	0	1	0	0	CorrectCommission	1.635194	0.843295	0	0
115.406036	0.792287	mountain	7	0	0.000000	0.699131	1	0	0	0	CorrectOmission	0.662671	0.822122	0	0
116.198410	0.792461	city	1	1	0.653071	0.653071	0	1	0	0	CorrectCommission	0.191934	0.793914	0	0
116.990715	0.792157	city	3	1	0.744603	0.744603	0	1	0	0	CorrectCommission	1.127392	0.761064	0	0
117.782898	0.792209	mountain	10	0	0.000000	0.675913	1	0	0	0	CorrectOmission	0.425378	0.726274	0	0
118.575111	0.792211	city	5	1	0.607211	0.607211	0	1	0	0	CorrectCommission	0.276751	0.692247	0	0
119.367355	0.792282	city	8	1	0.698709	0.698709	0	1	0	0	CorrectCommission	0.658359	0.661407	0	0
120.159622	0.792246	city	9	1	0.645764	0.645764	0	1	0	0	CorrectCommission	0.117260	0.635753	1	0
120.951935	0.792375	city	6	1	0.645806	0.645806	0	1	0	0	CorrectCommission	0.117694	0.616898	1	0
121.744202	0.792159	city	1	1	0.655010	0.655010	0	1	0	0	CorrectCommission	0.211754	0.606185	1	0
122.536514	0.792479	city	7	1	0.744863	0.744863	0	1	0	0	CorrectCommission	1.130043	0.604878	1	0
123.328781	0.792046	city	3	1	0.794695	0.794695	0	1	0	0	CorrectCommission	1.639332	0.614315	1	0
124.120987	0.792374	city	6	1	0.695278	0.695278	0	1	0	0	CorrectCommission	0.623296	0.635994	1	0
124.913361	0.792374	city	2	1	0.663084	0.663084	0	1	0	0	CorrectCommission	0.294275	0.671447	0	0
125.705574	0.792052	city	8	1	0.662754	0.662754	0	1	0	0	CorrectCommission	0.290894	0.721925	0	0
126.497787	0.792369	city	4	1	0.645724	0.645724	0	1	0	0	CorrectCommission	0.116849	0.787978	0	0
127.290054	0.792157	city	5	1	0.601345	0.601345	0	1	0	0	CorrectCommission	0.336697	0.868991	0	1
128.082260	0.792265	city	8	1	0.565158	0.565158	0	1	0	0	CorrectCommission	0.706526	0.962772	0	1
128.874634	0.792479	city	7	1	0.652619	0.652619	0	1	0	0	CorrectCommission	0.187314	1.065341	0	1
129.666916	0.792073	city	6	1	0.695133	0.695133	0	1	0	0	CorrectCommission	0.621810	1.171043	0	1
130.459076	0.792261	city	2	1	0.546682	0.546682	0	1	0	0	CorrectCommission	0.895348	1.272922	0	1
131.251328	0.792245	city	3	1	0.515343	0.515343	0	1	0	0	CorrectCommission	1.215631	1.363462	0	1
132.043686	0.792481	city	1	1	0.447667	0.447667	0	1	0	0	CorrectCommission	1.907281	1.435491	0	1
132.836014	0.792156	city	8	1	1.042058	1.042058	0	1	0	0	CorrectCommission	4.167368	1.483153	0	1
133.628281	0.792373	city	5	1	0.996699	0.996699	0	1	0	0	CorrectCommission	3.703801	1.502660	0	1
134.420502	0.792067	city	2	1	0.942756	0.942756	0	1	0	0	CorrectCommission	3.152509	1.492824	0	1
135.212646	0.792248	city	8	1	0.795007	0.795007	0	1	0	0	CorrectCommission	1.642514	1.455118	0	1
136.004913	0.792263	mountain	7	0	0.000000	0.704040	1	0	0	0	CorrectOmission	0.712837	1.393370	0	1
136.797287	0.792481	city	10	1	0.645754	0.645754	0	1	0	0	CorrectCommission	0.117155	1.313084	0	1
137.589600	0.792155	city	8	1	0.596046	0.596046	0	1	0	0	CorrectCommission	0.390854	1.220663	0	1
138.381866	0.792374	city	1	1	0.547289	0.547289	0	1	0	0	CorrectCommission	0.889151	1.122576	0	1
139.174179	0.792264	city	9	1	0.497100	0.497100	0	1	0	0	CorrectCommission	1.402083	1.024731	0	1
139.966339	0.792047	city	3	1	0.497534	0.497534	0	1	0	0	CorrectCommission	1.397639	0.932039	0	1
140.758606	0.792483	city	8	1	0.546855	0.546855	0	1	0	0	CorrectCommission	0.893582	0.848233	0	1
141.550873	0.792049	city	9	1	0.607368	0.607368	0	1	0	0	CorrectCommission	0.275143	0.775852	0	1
142.343033	0.792283	city	2	1	0.596779	0.596779	0	1	0	0	CorrectCommission	0.383359	0.716326	0	1
143.135361	0.792353	city	4	1	0.596267	0.596267	0	1	0	0	CorrectCommission	0.388599	0.670126	0	1
143.927658	0.792264	city	6	1	0.607458	0.607458	0	1	0	0	CorrectCommission	0.274224	0.636964	1	1
144.719925	0.792264	city	7	1	0.608667	0.608667	0	1	0	0	CorrectCommission	0.261869	0.615970	1	1
145.512161	0.792193	city	5	1	0.600035	0.600035	0	1	0	0	CorrectCommission	0.350089	0.605851	1	1
146.304367	0.792230	city	3	1	0.550236	0.550236	0	1	0	0	CorrectCommission	0.859032	0.605052	1	1
147.096619	0.792264	city	1	1	0.614260	0.614260	0	1	0	0	CorrectCommission	0.204709	0.611855	1	1
147.888885	0.792268	city	5	1	0.744889	0.744889	0	1	0	0	CorrectCommission	1.130312	0.624506	1	1
148.681198	0.792369	city	6	1	0.744949	0.744949	0	1	0	0	CorrectCommission	1.130926	0.641214	1	1
149.473480	0.792209	city	4	1	0.662960	0.662960	0	1	0	0	CorrectCommission	0.293000	0.660238	0	1
150.265701	0.792229	mountain	4	0	0.000000	0.639113	1	0	0	0	CorrectOmission	0.049291	0.679854	0	1
151.058060	0.792467	city	3	1	0.670480	0.670480	0	1	0	0	CorrectCommission	0.369858	0.698383	0	1
151.850342	0.792103	mountain	5	0	0.000000	0.754130	1	0	0	0	CorrectOmission	1.224757	0.714197	0	1
152.642609	0.792424	city	2	1	0.794233	0.794233	0	1	0	0	CorrectCommission	1.634610	0.725776	0	1
153.434891	0.792157	city	3	1	0.694959	0.694959	0	1	0	0	CorrectCommission	0.620035	0.731782	0	1
154.227051	0.792156	city	8	1	0.651633	0.651633	0	1	0	0	CorrectCommission	0.177244	0.731165	0	1
155.019257	0.792268	city	5	1	0.600153	0.600153	0	1	0	0	CorrectCommission	0.348877	0.723228	0	1
155.811523	0.792266	city	10	1	0.794322	0.794322	0	1	0	0	CorrectCommission	1.635520	0.707725	0	1
156.603790	0.792261	city	2	1	0.506241	0.506241	0	1	0	0	CorrectCommission	1.308656	0.684916	0	1
157.396164	0.792481	city	6	1	0.546785	0.546785	0	1	0	0	CorrectCommission	0.894300	0.655620	1	1
158.188431	0.792059	mountain	2	0	0.000000	0.578317	1	0	0	0	CorrectOmission	0.572046	0.621165	1	1
158.980698	0.792471	city	8	1	0.596253	0.596253	0	1	0	0	CorrectCommission	0.388736	0.583257	1	1
159.772964	0.792050	city	3	1	0.596011	0.596011	0	1	0	0	CorrectCommission	0.391216	0.543821	1	1
160.565109	0.792265	mountain	3	0	0.000000	0.588739	1	0	0	0	CorrectOmission	0.465537	0.504826	1	1
161.357376	0.792266	city	3	1	0.600832	0.600832	0	1	0	0	CorrectCommission	0.341944	0.468082	1	1
162.149704	0.792370	city	6	1	0.658686	0.658686	0	1	0	0	CorrectCommission	0.249318	0.435178	1	1
162.941956	0.792159	city	10	1	0.645653	0.645653	0	1	0	0	CorrectCommission	0.116126	0.407339	1	1
163.734283	0.792481	city	6	1	0.655792	0.655792	0	1	0	0	CorrectCommission	0.219746	0.385454	1	1
164.526550	0.792054	city	7	1	0.596036	0.596036	0	1	0	0	CorrectCommission	0.390958	0.370151	1	1
165.318726	0.792291	city	5	1	0.596191	0.596191	0	1	0	0	CorrectCommission	0.389370	0.361903	1	1
166.110977	0.792234	mountain	3	0	0.000000	0.596324	1	0	0	0	CorrectOmission	0.388010	0.361214	1	1
166.903229	0.792265	city	4	1	0.596364	0.596364	0	1	0	0	CorrectCommission	0.387602	0.368693	1	1
167.695496	0.792262	city	2	1	0.596240	0.596240	0	1	0	0	CorrectCommission	0.388870	0.385091	1	1
168.487762	0.792263	city	3	1	0.607751	0.607751	0	1	0	0	CorrectCommission	0.271231	0.411277	1	1
169.280136	0.792484	mountain	8	0	0.000000	0.636782	1	0	0	0	CorrectOmission	0.025464	0.448089	1	1
170.072403	0.792052	city	9	1	0.645531	0.645531	0	1	0	0	CorrectCommission	0.114881	0.496131	1	1
170.864548	0.792258	city	2	1	0.596197	0.596197	0	1	0	0	CorrectCommission	0.389315	0.555549	1	1
171.656830	0.792286	city	1	1	0.559250	0.559250	0	1	0	0	CorrectCommission	0.766910	0.625811	1	1
172.449097	0.792264	city	6	1	0.596287	0.596287	0	1	0	0	CorrectCommission	0.388393	0.705479	0	1
173.241409	0.792354	city	9	1	0.551688	0.551688	0	1	0	0	CorrectCommission	0.844189	0.792147	0	1
174.033691	0.792214	mountain	1	1	0.596237	0.596237	0	0	1	0	CommissionError	0.388898	0.882513	0	1
174.825912	0.792206	city	7	1	0.605099	0.605099	0	1	0	0	CorrectCommission	0.298335	0.972651	0	1
175.618149	0.792289	city	1	1	0.705524	0.705524	0	1	0	0	CorrectCommission	0.728010	1.058403	0	1
176.410416	0.792242	city	7	1	0.606423	0.606423	0	1	0	0	CorrectCommission	0.284798	1.135899	0	1
177.202774	0.792482	city	5	1	0.996318	0.996318	0	1	0	0	CorrectCommission	3.699906	1.202126	0	1
177.995041	0.792046	city	8	1	0.917310	0.917310	0	1	0	0	CorrectCommission	2.892449	1.255281	0	1
178.787201	0.792264	city	7	1	0.896403	0.896403	0	1	0	0	CorrectCommission	2.678779	1.295128	0	1
179.579498	0.792345	mountain	5	0	0.000000	0.741931	1	0	0	0	CorrectOmission	1.100080	1.322862	0	1
180.371765	0.792190	city	8	1	0.645720	0.645720	0	1	0	0	CorrectCommission	0.116811	1.340793	0	1
181.164001	0.792260	city	7	1	0.799597	0.799597	0	1	0	0	CorrectCommission	1.689431	1.351742	0	1
181.956375	0.792485	city	4	1	0.744671	0.744671	0	1	0	0	CorrectCommission	1.128084	1.358332	0	1
182.748688	0.792154	city	10	1	0.650324	0.650324	0	1	0	0	CorrectCommission	0.163864	1.362474	0	1
183.540863	0.792202	city	7	1	0.554199	0.554199	0	1	0	0	CorrectCommission	0.818530	1.364960	0	1
184.333084	0.792220	mountain	6	1	0.546625	0.546625	0	0	1	0	CommissionError	0.895938	1.365361	0	1
185.125320	0.792266	city	3	1	0.546705	0.546705	0	1	0	0	CorrectCommission	0.895120	1.362306	0	1
185.917618	0.792331	city	1	1	0.461278	0.461278	0	1	0	0	CorrectCommission	1.768172	1.353967	0	1
186.709885	0.792197	city	5	1	1.001653	1.001653	0	1	0	0	CorrectCommission	3.754426	1.338650	0	0
187.502228	0.792481	city	10	1	0.898354	0.898354	0	1	0	0	CorrectCommission	2.698717	1.315311	0	0
188.294495	0.792071	city	9	1	0.794408	0.794408	0	1	0	0	CorrectCommission	1.636399	1.283958	0	0
189.086761	0.792459	city	1	1	0.752330	0.752330	0	1	0	0	CorrectCommission	1.206359	1.245628	0	0
189.879120	0.792263	city	7	1	0.665497	0.665497	0	1	0	0	CorrectCommission	0.318932	1.202192	0	0
190.671280	0.792052	city	4	1	0.662700	0.662700	0	1	0	0	CorrectCommission	0.290348	1.155925	0	0
191.463440	0.792264	city	9	1	0.648410	0.648410	0	1	0	0	CorrectCommission	0.144304	1.109038	0	0
192.255707	0.792259	mountain	1	0	0.000000	0.561417	1	0	0	0	CorrectOmission	0.744767	1.063282	0	0
193.047989	0.792308	city	10	1	0.497242	0.497242	0	1	0	0	CorrectCommission	1.400628	1.019710	0	0
193.840271	0.792262	city	9	1	0.551409	0.551409	0	1	0	0	CorrectCommission	0.847043	0.978728	0	0
194.632568	0.792335	city	3	1	0.499487	0.499487	0	1	0	0	CorrectCommission	1.377681	0.940250	0	0
195.424866	0.792265	city	4	1	0.498822	0.498822	0	1	0	0	CorrectCommission	1.384479	0.904002	0	0
196.217072	0.792155	city	3	1	0.497100	0.497100	0	1	0	0	CorrectCommission	1.402075	0.869811	0	0
197.009293	0.792265	city	7	1	0.502134	0.502134	0	1	0	0	CorrectCommission	1.350632	0.837785	0	0
197.801666	0.792482	city	8	1	0.601949	0.601949	0	1	0	0	CorrectCommission	0.330531	0.808354	0	0
198.593948	0.792084	mountain	3	0	0.000000	0.614263	1	0	0	0	CorrectOmission	0.204679	0.782118	0	0
199.386139	0.792297	city	8	1	0.596643	0.596643	0	1	0	0	CorrectCommission	0.384756	0.759636	0	0
200.178497	0.792413	mountain	7	0	0.000000	0.606654	1	0	0	0	CorrectOmission	0.282441	0.741207	0	0
200.970718	0.792046	city	10	1	0.645597	0.645597	0	1	0	0	CorrectCommission	0.115551	0.726676	0	0
201.762985	0.792484	mountain	6	0	0.000000	0.714771	1	0	0	0	CorrectOmission	0.822506	0.715378	0	0
202.555267	0.792073	mountain	9	0	0.000000	0.765075	1	0	0	0	CorrectOmission	1.336617	0.706179	0	0
203.347534	0.792455	city	6	1	0.747410	0.747410	0	1	0	0	CorrectCommission	1.156077	0.697671	0	0
204.139786	0.792047	city	7	1	0.612673	0.612673	0	1	0	0	CorrectCommission	0.220923	0.688399	0	0
204.931992	0.792373	city	6	1	0.551728	0.551728	0	1	0	0	CorrectCommission	0.843781	0.677159	0	0
205.724258	0.792157	city	1	1	0.564851	0.564851	0	1	0	0	CorrectCommission	0.709665	0.663142	0	0
206.516464	0.792271	city	5	1	0.506424	0.506424	0	1	0	0	CorrectCommission	1.306783	0.646080	1	0
207.308731	0.792261	mountain	5	0	0.000000	0.539023	1	0	0	0	CorrectOmission	0.973628	0.626218	1	0
208.101028	0.792320	city	1	1	0.596202	0.596202	0	1	0	0	CorrectCommission	0.389256	0.604219	1	0
208.893295	0.792214	mountain	4	0	0.000000	0.611519	1	0	0	0	CorrectOmission	0.232721	0.580983	1	0
209.685532	0.792260	city	7	1	0.606030	0.606030	0	1	0	0	CorrectCommission	0.288816	0.557425	1	0
210.477844	0.792369	city	3	1	0.600794	0.600794	0	1	0	0	CorrectCommission	0.342334	0.534282	1	0
211.270111	0.792156	mountain	1	0	0.000000	0.611103	1	0	0	0	CorrectOmission	0.236973	0.512022	1	0
212.062317	0.792268	city	4	1	0.605337	0.605337	0	1	0	0	CorrectCommission	0.295901	0.490813	1	0
212.854614	0.792320	city	9	1	0.551874	0.551874	0	1	0	0	CorrectCommission	0.842286	0.470575	1	0
213.646988	0.792424	city	4	1	0.548871	0.548871	0	1	0	0	CorrectCommission	0.872983	0.451087	1	0
214.439240	0.792087	city	2	1	0.561186	0.561186	0	1	0	0	CorrectCommission	0.747120	0.432159	1	0
215.231445	0.792334	city	7	1	0.607571	0.607571	0	1	0	0	CorrectCommission	0.273073	0.413749	1	0
216.023697	0.792157	city	1	1	0.608898	0.608898	0	1	0	0	CorrectCommission	0.259511	0.396026	1	0
216.815903	0.792263	city	9	1	0.596429	0.596429	0	1	0	0	CorrectCommission	0.386939	0.379367	1	0
217.608170	0.792263	city	1	1	0.645725	0.645725	0	1	0	0	CorrectCommission	0.116862	0.364336	1	0
218.400436	0.792266	city	2	1	0.645721	0.645721	0	1	0	0	CorrectCommission	0.116823	0.351632	1	0
219.192734	0.792334	city	1	1	0.663798	0.663798	0	1	0	0	CorrectCommission	0.301566	0.342003	1	0
219.985107	0.792412	city	3	1	0.596191	0.596191	0	1	0	0	CorrectCommission	0.389369	0.336182	1	0
220.777344	0.792049	city	9	1	0.596982	0.596982	0	1	0	0	CorrectCommission	0.381289	0.334833	1	0
221.569504	0.792265	city	2	1	0.596426	0.596426	0	1	0	0	CorrectCommission	0.386975	0.338536	1	0
222.361862	0.792482	city	9	1	0.596446	0.596446	0	1	0	0	CorrectCommission	0.386767	0.347696	1	0
223.154236	0.792264	mountain	1	0	0.000000	0.629212	1	0	0	0	CorrectOmission	0.051900	0.362524	1	0
223.946457	0.792156	city	8	1	0.645529	0.645529	0	1	0	0	CorrectCommission	0.114860	0.382962	1	0
224.738617	0.792159	city	5	1	0.596203	0.596203	0	1	0	0	CorrectCommission	0.389253	0.408629	1	0
225.530869	0.792370	city	7	1	0.596620	0.596620	0	1	0	0	CorrectCommission	0.384988	0.438795	1	0
226.323242	0.792374	city	3	1	0.645657	0.645657	0	1	0	0	CorrectCommission	0.116171	0.472391	1	0
227.115509	0.792155	mountain	8	0	0.000000	0.696344	1	0	0	0	CorrectOmission	0.634187	0.508052	1	0
227.907684	0.792191	city	8	1	0.701157	0.701157	0	1	0	0	CorrectCommission	0.683379	0.544210	1	0
228.699997	0.792448	city	9	1	0.612575	0.612575	0	1	0	0	CorrectCommission	0.221931	0.579251	1	0
229.492279	0.792105	city	7	1	0.546515	0.546515	0	1	0	0	CorrectCommission	0.897063	0.611688	1	0
230.284439	0.792227	mountain	6	0	0.000000	0.535555	1	0	0	0	CorrectOmission	1.009071	0.640252	1	0
231.076691	0.792247	city	1	1	0.546682	0.546682	0	1	0	0	CorrectCommission	0.895357	0.664060	0	0
231.869049	0.792480	city	5	1	0.546881	0.546881	0	1	0	0	CorrectCommission	0.893322	0.682671	0	0
232.661362	0.792155	city	9	1	0.567127	0.567127	0	1	0	0	CorrectCommission	0.686403	0.696067	0	0
233.453522	0.792159	city	8	1	0.553628	0.553628	0	1	0	0	CorrectCommission	0.824363	0.704571	0	0
234.245758	0.792308	city	6	1	0.546703	0.546703	0	1	0	0	CorrectCommission	0.895137	0.708703	0	0
235.038071	0.792327	city	8	1	0.546645	0.546645	0	1	0	0	CorrectCommission	0.895729	0.709017	0	0
235.830368	0.792265	city	3	1	0.645618	0.645618	0	1	0	0	CorrectCommission	0.115769	0.705967	0	0
236.622589	0.792176	city	5	1	0.596257	0.596257	0	1	0	0	CorrectCommission	0.388695	0.699817	0	0
237.414795	0.792246	city	6	1	0.652675	0.652675	0	1	0	0	CorrectCommission	0.187888	0.690606	0	0
238.207062	0.792264	mountain	9	1	0.744754	0.744754	0	0	1	0	CommissionError	1.128932	0.678257	0	0
238.999313	0.792262	city	10	1	0.759840	0.759840	0	1	0	0	CorrectCommission	1.283114	0.662691	0	0
239.791580	0.792268	city	2	1	0.748098	0.748098	0	1	0	0	CorrectCommission	1.163114	0.644021	1	0
240.583847	0.792263	city	4	1	0.713667	0.713667	0	1	0	0	CorrectCommission	0.811222	0.622707	1	0
241.376221	0.792483	city	2	1	0.695230	0.695230	0	1	0	0	CorrectCommission	0.622800	0.599642	1	0
242.168594	0.792265	mountain	10	0	0.000000	0.648771	1	0	0	0	CorrectOmission	0.147994	0.576159	1	0
242.960754	0.792049	city	7	1	0.605413	0.605413	0	1	0	0	CorrectCommission	0.295128	0.553974	1	0
243.752914	0.792262	city	8	1	0.596276	0.596276	0	1	0	0	CorrectCommission	0.388501	0.535042	1	0
244.545166	0.792266	city	4	1	0.549124	0.549124	0	1	0	0	CorrectCommission	0.870396	0.521375	1	0
245.337448	0.792297	city	9	1	0.611524	0.611524	0	1	0	0	CorrectCommission	0.232674	0.514813	1	0
246.129776	0.792340	city	2	1	0.645795	0.645795	0	1	0	0	CorrectCommission	0.117573	0.516869	1	1
246.922073	0.792266	city	5	1	0.596868	0.596868	0	1	0	0	CorrectCommission	0.382455	0.528495	1	1
247.714310	0.792204	city	8	1	0.596325	0.596325	0	1	0	0	CorrectCommission	0.388004	0.549927	1	1
248.506516	0.792224	city	9	1	0.596458	0.596458	0	1	0	0	CorrectCommission	0.386641	0.580596	1	1
249.298813	0.792365	city	4	1	0.709704	0.709704	0	1	0	0	CorrectCommission	0.770720	0.619078	1	1
250.091080	0.792157	city	2	1	0.645719	0.645719	0	1	0	0	CorrectCommission	0.116796	0.663139	0	1
250.883286	0.792265	city	1	1	0.695323	0.695323	0	1	0	0	CorrectCommission	0.623751	0.709897	0	1
251.675568	0.792296	city	6	1	0.596252	0.596252	0	1	0	0	CorrectCommission	0.388753	0.756032	0	1
252.467896	0.792342	city	2	1	0.556957	0.556957	0	1	0	0	CorrectCommission	0.790345	0.798155	0	1
253.260132	0.792158	city	10	1	0.744719	0.744719	0	1	0	0	CorrectCommission	1.128577	0.833157	0	1
254.052460	0.792478	city	5	1	0.799430	0.799430	0	1	0	0	CorrectCommission	1.687715	0.858585	0	1
254.844727	0.792054	city	10	1	0.794137	0.794137	0	1	0	0	CorrectCommission	1.633626	0.872955	0	1
255.636932	0.792368	city	7	1	0.794571	0.794571	0	1	0	0	CorrectCommission	1.638060	0.875936	0	1
256.429260	0.792263	city	6	1	0.753396	0.753396	0	1	0	0	CorrectCommission	1.217253	0.868357	0	1
257.221527	0.792267	city	3	1	0.715186	0.715186	0	1	0	0	CorrectCommission	0.826751	0.852045	0	1
258.013824	0.792373	city	4	1	0.658656	0.658656	0	1	0	0	CorrectCommission	0.249018	0.829509	0	1
258.806061	0.792050	mountain	4	1	0.600647	0.600647	0	0	1	0	CommissionError	0.343830	0.803532	0	1
259.598267	0.792368	city	9	1	0.704396	0.704396	0	1	0	0	CorrectCommission	0.716477	0.776754	0	1
260.390533	0.792158	city	2	1	0.645542	0.645542	0	1	0	0	CorrectCommission	0.114987	0.751330	0	1
261.182739	0.792265	city	8	1	0.695308	0.695308	0	1	0	0	CorrectCommission	0.623601	0.728740	0	1
261.975037	0.792322	city	5	1	0.744776	0.744776	0	1	0	0	CorrectCommission	1.129163	0.709648	0	1
262.767273	0.792208	city	1	1	0.751873	0.751873	0	1	0	0	CorrectCommission	1.201690	0.693966	0	1
263.559540	0.792325	city	6	1	0.709793	0.709793	0	1	0	0	CorrectCommission	0.771635	0.681014	0	1
264.351929	0.792421	city	7	1	0.651940	0.651940	0	1	0	0	CorrectCommission	0.180383	0.669687	0	1
265.144165	0.792053	city	4	1	0.654729	0.654729	0	1	0	0	CorrectCommission	0.208880	0.658722	1	1
265.936432	0.792478	city	2	1	0.605670	0.605670	0	1	0	0	CorrectCommission	0.292495	0.646964	1	1
266.728699	0.792054	city	5	1	0.698916	0.698916	0	1	0	0	CorrectCommission	0.660474	0.633569	1	1
267.520966	0.792475	city	6	1	0.799597	0.799597	0	1	0	0	CorrectCommission	1.689426	0.618283	1	1
268.313263	0.792129	city	2	1	0.757580	0.757580	0	1	0	0	CorrectCommission	1.260017	0.601535	1	1
269.105408	0.792185	city	7	1	0.708813	0.708813	0	1	0	0	CorrectCommission	0.761621	0.584568	1	1
269.897705	0.792371	city	8	1	0.652868	0.652868	0	1	0	0	CorrectCommission	0.189866	0.569343	1	1
270.689972	0.792157	city	2	1	0.652586	0.652586	0	1	0	0	CorrectCommission	0.186980	0.558325	1	1
271.482178	0.792264	city	5	1	0.666404	0.666404	0	1	0	0	CorrectCommission	0.328202	0.554172	1	1
272.274445	0.792256	city	4	1	0.647003	0.647003	0	1	0	0	CorrectCommission	0.129925	0.559392	1	1
273.066711	0.792272	city	2	1	0.597174	0.597174	0	1	0	0	CorrectCommission	0.379323	0.575950	1	1
273.858978	0.792270	city	10	1	0.603799	0.603799	0	1	0	0	CorrectCommission	0.311620	0.604927	1	1
274.651245	0.792264	city	4	1	0.603091	0.603091	0	1	0	0	CorrectCommission	0.318856	0.646271	1	1
275.443512	0.792298	city	8	1	0.596253	0.596253	0	1	0	0	CorrectCommission	0.388738	0.698684	0	1
276.235840	0.792335	city	2	1	0.557120	0.557120	0	1	0	0	CorrectCommission	0.788673	0.759614	0	1
277.028107	0.792205	city	9	1	0.562380	0.562380	0	1	0	0	CorrectCommission	0.734924	0.825413	0	1
277.820435	0.792435	city	4	1	0.660108	0.660108	0	1	0	0	CorrectCommission	0.263856	0.891673	0	1
278.612762	0.792266	city	7	1	0.744591	0.744591	0	1	0	0	CorrectCommission	1.127272	0.953630	0	1
279.404938	0.792049	city	6	1	0.697778	0.697778	0	1	0	0	CorrectCommission	0.648840	1.006636	0	1
280.197205	0.792479	city	1	1	0.794267	0.794267	0	1	0	0	CorrectCommission	1.634959	1.046727	0	1
280.989563	0.792266	mountain	7	1	0.299349	0.299349	0	0	1	0	CommissionError	3.423087	1.071009	0	1
281.781708	0.792048	city	8	1	0.453779	0.453779	0	1	0	0	CorrectCommission	1.844812	1.077953	0	1
282.573975	0.792480	city	9	1	0.466587	0.466587	0	1	0	0	CorrectCommission	1.713916	1.067566	0	1
283.366241	0.792051	city	1	1	0.608568	0.608568	0	1	0	0	CorrectCommission	0.262885	1.041184	0	1
284.158417	0.792263	city	4	1	0.664508	0.664508	0	1	0	0	CorrectCommission	0.308826	1.001296	0	1
284.950684	0.792263	city	3	1	0.744800	0.744800	0	1	0	0	CorrectCommission	1.129399	0.951059	0	1
285.742981	0.792372	city	2	1	0.705951	0.705951	0	1	0	0	CorrectCommission	0.732370	0.893989	0	1
286.535248	0.792157	mountain	2	0	0.000000	0.592010	1	0	0	0	CorrectOmission	0.432100	0.833634	0	1
287.327484	0.792324	city	1	1	0.504938	0.504938	0	1	0	0	CorrectCommission	1.321972	0.773318	0	1
288.119751	0.792208	mountain	9	1	0.546696	0.546696	0	0	1	0	CommissionError	0.895210	0.715948	0	1
288.912018	0.792302	city	3	1	0.551306	0.551306	0	1	0	0	CorrectCommission	0.848091	0.663971	0	1
289.704285	0.792224	city	8	1	0.603445	0.603445	0	1	0	0	CorrectCommission	0.315240	0.619288	1	1
290.496582	0.792374	city	7	1	0.603198	0.603198	0	1	0	0	CorrectCommission	0.317760	0.583216	1	1
291.288940	0.792374	city	6	1	0.645720	0.645720	0	1	0	0	CorrectCommission	0.116808	0.556404	1	1
292.081177	0.792052	city	8	1	0.645538	0.645538	0	1	0	0	CorrectCommission	0.114955	0.538834	1	1
292.873383	0.792369	city	9	1	0.662090	0.662090	0	1	0	0	CorrectCommission	0.284112	0.529804	1	1
293.665649	0.792155	city	8	1	0.653068	0.653068	0	1	0	0	CorrectCommission	0.191910	0.528029	1	1
294.457855	0.792265	city	1	1	0.596282	0.596282	0	1	0	0	CorrectCommission	0.388438	0.531790	1	1
295.250153	0.792339	city	4	1	0.550821	0.550821	0	1	0	0	CorrectCommission	0.853051	0.539178	1	1
296.042419	0.792194	city	9	1	0.744724	0.744724	0	1	0	0	CorrectCommission	1.128630	0.548287	1	1
296.834747	0.792480	city	5	1	0.699874	0.699874	0	1	0	0	CorrectCommission	0.670264	0.557497	1	1
297.627014	0.792046	mountain	5	0	0.000000	0.690168	1	0	0	0	CorrectOmission	0.571068	0.565646	1	1
298.419159	0.792265	city	8	1	0.645892	0.645892	0	1	0	0	CorrectCommission	0.118566	0.572073	1	1
299.211426	0.792266	city	10	1	0.497331	0.497331	0	1	0	0	CorrectCommission	1.399722	0.576681	1	1
300.003815	0.792479	city	7	1	0.602687	0.602687	0	1	0	0	CorrectCommission	0.322984	0.579746	1	1
300.796173	0.792266	city	2	1	0.546441	0.546441	0	1	0	0	CorrectCommission	0.897811	0.581830	1	1
301.588379	0.792156	city	1	1	0.596219	0.596219	0	1	0	0	CorrectCommission	0.389087	0.583520	1	1
302.380554	0.792156	city	4	1	0.596532	0.596532	0	1	0	0	CorrectCommission	0.385890	0.585202	1	1
303.172882	0.792482	mountain	2	0	0.000000	0.629371	1	0	0	0	CorrectOmission	0.050275	0.586953	1	1
303.965240	0.792266	city	7	1	0.645576	0.645576	0	1	0	0	CorrectCommission	0.115343	0.588529	1	1
304.757385	0.792049	city	2	1	0.595988	0.595988	0	1	0	0	CorrectCommission	0.391449	0.589415	1	1
305.549561	0.792264	city	10	1	0.497924	0.497924	0	1	0	0	CorrectCommission	1.393656	0.589035	1	0
306.341858	0.792335	city	5	1	0.546778	0.546778	0	1	0	0	CorrectCommission	0.894370	0.586966	1	0
307.134125	0.792195	city	2	1	0.497106	0.497106	0	1	0	0	CorrectCommission	1.402013	0.583176	1	0
307.926361	0.792271	city	8	1	0.596224	0.596224	0	1	0	0	CorrectCommission	0.389035	0.578123	1	0
308.718658	0.792365	city	6	1	0.695266	0.695266	0	1	0	0	CorrectCommission	0.623174	0.572803	1	0
309.511047	0.792373	city	3	1	0.645647	0.645647	0	1	0	0	CorrectCommission	0.116067	0.568600	1	0
310.303253	0.792051	city	8	1	0.710859	0.710859	0	1	0	0	CorrectCommission	0.782531	0.567076	1	0
311.095398	0.792270	city	7	1	0.655247	0.655247	0	1	0	0	CorrectCommission	0.214174	0.569647	1	0
311.887695	0.792315	city	1	1	0.649373	0.649373	0	1	0	0	CorrectCommission	0.154148	0.577333	1	0
312.680084	0.792424	city	8	1	0.598687	0.598687	0	1	0	0	CorrectCommission	0.363868	0.590473	1	0
313.472351	0.792154	city	3	1	0.598423	0.598423	0	1	0	0	CorrectCommission	0.366562	0.608606	1	0
314.264526	0.792180	mountain	2	0	0.000000	0.595666	1	0	0	0	CorrectOmission	0.394734	0.630486	1	0
315.056824	0.792378	city	2	1	0.596239	0.596239	0	1	0	0	CorrectCommission	0.388879	0.654203	1	0
315.849060	0.792129	mountain	7	1	0.605964	0.605964	0	0	1	0	CommissionError	0.289490	0.677434	0	0
316.641357	0.792483	city	9	1	0.901546	0.901546	0	1	0	0	CorrectCommission	2.731341	0.697700	0	0
317.433624	0.792048	city	8	1	0.744650	0.744650	0	1	0	0	CorrectCommission	1.127868	0.712648	0	0
318.225800	0.792264	city	2	1	0.658672	0.658672	0	1	0	0	CorrectCommission	0.249179	0.720390	0	0
319.018066	0.792262	city	10	1	0.596941	0.596941	0	1	0	0	CorrectCommission	0.381705	0.719609	0	0
319.810303	0.792266	city	5	1	0.596206	0.596206	0	1	0	0	CorrectCommission	0.389215	0.709647	0	0
320.602570	0.792250	city	4	1	0.555992	0.555992	0	1	0	0	CorrectCommission	0.800207	0.690557	0	0
321.394958	0.792497	mountain	6	1	0.459201	0.459201	0	0	1	0	CommissionError	1.789408	0.663057	0	0
322.187225	0.792053	city	10	1	0.546547	0.546547	0	1	0	0	CorrectCommission	0.896733	0.628427	1	0
322.979370	0.792263	city	5	1	0.546935	0.546935	0	1	0	0	CorrectCommission	0.892764	0.588422	1	0
323.779907	0.808766	city	8	1	0.621917	0.621917	0	1	0	0	CorrectCommission	0.126452	0.545090	1	0
324.580414	0.792268	city	4	1	0.596673	0.596673	0	1	0	0	CorrectCommission	0.384444	0.500591	1	0
325.372681	0.792264	city	2	1	0.647302	0.647302	0	1	0	0	CorrectCommission	0.132983	0.457022	1	0
326.164948	0.792277	city	8	1	0.645792	0.645792	0	1	0	0	CorrectCommission	0.117542	0.416289	1	0
326.957214	0.792252	city	7	1	0.611345	0.611345	0	1	0	0	CorrectCommission	0.234495	0.380018	1	0
327.749512	0.792372	city	2	1	0.606368	0.606368	0	1	0	0	CorrectCommission	0.285363	0.349511	1	0
328.541779	0.792155	city	8	1	0.598203	0.598203	0	1	0	0	CorrectCommission	0.368813	0.325802	1	0
329.334015	0.792303	city	5	1	0.597665	0.597665	0	1	0	0	CorrectCommission	0.374304	0.309706	1	0
330.126282	0.792224	city	7	1	0.601078	0.601078	0	1	0	0	CorrectCommission	0.339428	0.301872	1	0
330.918518	0.792269	city	10	1	0.645734	0.645734	0	1	0	0	CorrectCommission	0.116959	0.302796	1	0
331.710785	0.792265	city	5	1	0.649028	0.649028	0	1	0	0	CorrectCommission	0.150620	0.312787	1	0
332.503052	0.792267	city	8	1	0.645766	0.645766	0	1	0	0	CorrectCommission	0.117284	0.331866	1	0
333.295349	0.792282	city	2	1	0.655936	0.655936	0	1	0	0	CorrectCommission	0.221214	0.359656	1	0
334.087616	0.792251	city	6	1	0.648831	0.648831	0	1	0	0	CorrectCommission	0.148606	0.395214	1	0
334.879852	0.792259	city	2	1	0.662161	0.662161	0	1	0	0	CorrectCommission	0.284837	0.437011	1	0
335.672119	0.792280	city	6	1	0.645715	0.645715	0	1	0	0	CorrectCommission	0.116762	0.482883	1	0
336.464447	0.792355	city	2	1	0.695204	0.695204	0	1	0	0	CorrectCommission	0.622537	0.530137	1	0
337.256714	0.792161	city	3	1	0.654322	0.654322	0	1	0	0	CorrectCommission	0.204723	0.575738	1	0
338.049011	0.792477	city	10	1	0.695250	0.695250	0	1	0	0	CorrectCommission	0.623008	0.616645	1	0
338.841278	0.792048	city	6	1	0.763304	0.763304	0	1	0	0	CorrectCommission	1.318518	0.650117	1	0
339.633453	0.792264	city	4	1	0.762226	0.762226	0	1	0	0	CorrectCommission	1.307501	0.674101	0	0
340.425751	0.792375	city	1	1	0.749811	0.749811	0	1	0	0	CorrectCommission	1.180620	0.687518	0	0
341.218018	0.792159	city	5	1	0.756334	0.756334	0	1	0	0	CorrectCommission	1.247277	0.690407	0	0
342.010284	0.792368	city	8	1	0.748537	0.748537	0	1	0	0	CorrectCommission	1.167598	0.683869	0	0
342.802582	0.792181	mountain	7	0	0.000000	0.697962	1	0	0	0	CorrectOmission	0.650724	0.669892	0	0
343.594788	0.792240	city	10	1	0.648925	0.648925	0	1	0	0	CorrectCommission	0.149567	0.651009	1	0
344.387054	0.792305	city	5	1	0.645742	0.645742	0	1	0	0	CorrectCommission	0.117037	0.629897	1	0
345.179321	0.792224	city	10	1	0.596164	0.596164	0	1	0	0	CorrectCommission	0.389649	0.608958	1	0
345.971558	0.792278	city	7	1	0.659634	0.659634	0	1	0	0	CorrectCommission	0.259010	0.590026	1	0
346.763885	0.792361	city	8	1	0.695267	0.695267	0	1	0	0	CorrectCommission	0.623178	0.574193	1	0
347.556183	0.792265	city	10	1	0.695180	0.695180	0	1	0	0	CorrectCommission	0.622292	0.561773	1	0
348.348419	0.792159	city	6	1	0.660065	0.660065	0	1	0	0	CorrectCommission	0.263417	0.552484	1	0
349.140625	0.792300	city	7	1	0.703192	0.703192	0	1	0	0	CorrectCommission	0.704174	0.545665	1	0
349.933014	0.792445	city	8	1	0.744898	0.744898	0	1	0	0	CorrectCommission	1.130410	0.540548	1	0
350.725311	0.792156	city	10	1	0.657264	0.657264	0	1	0	0	CorrectCommission	0.234794	0.536552	1	0
351.517456	0.792157	city	3	1	0.695301	0.695301	0	1	0	0	CorrectCommission	0.623524	0.533576	1	0
352.309723	0.792324	city	6	1	0.695179	0.695179	0	1	0	0	CorrectCommission	0.622275	0.532047	1	0
353.102020	0.792292	city	4	1	0.695190	0.695190	0	1	0	0	CorrectCommission	0.622390	0.532993	1	0
353.894257	0.792178	city	3	1	0.695257	0.695257	0	1	0	0	CorrectCommission	0.623077	0.537887	1	0
354.686462	0.792261	city	4	1	0.650515	0.650515	0	1	0	0	CorrectCommission	0.165812	0.548459	1	0
355.478729	0.792267	city	10	1	0.695240	0.695240	0	1	0	0	CorrectCommission	0.622907	0.566332	1	0
356.271118	0.792481	city	5	1	0.596198	0.596198	0	1	0	0	CorrectCommission	0.389304	0.592658	1	0
357.063385	0.792057	city	8	1	0.604126	0.604126	0	1	0	0	CorrectCommission	0.308279	0.627816	1	0
357.855530	0.792255	city	4	1	0.645708	0.645708	0	1	0	0	CorrectCommission	0.116691	0.671139	0	0
358.647797	0.792264	city	5	1	0.654940	0.654940	0	1	0	0	CorrectCommission	0.211044	0.720803	0	0
359.440125	0.792375	city	6	1	0.695244	0.695244	0	1	0	0	CorrectCommission	0.622944	0.773874	0	0
360.232422	0.792262	city	8	1	0.712024	0.712024	0	1	0	0	CorrectCommission	0.794434	0.826523	0	0
361.024628	0.792159	city	4	1	0.744667	0.744667	0	1	0	0	CorrectCommission	1.128047	0.874473	0	0
361.816864	0.792265	city	7	1	0.751133	0.751133	0	1	0	0	CorrectCommission	1.194129	0.913515	0	0
362.609131	0.792265	city	9	1	0.710291	0.710291	0	1	0	0	CorrectCommission	0.776721	0.940073	0	0
363.401428	0.792371	city	1	1	0.853018	0.853018	0	1	0	0	CorrectCommission	2.235390	0.951742	0	0
364.193695	0.792160	city	8	1	0.893351	0.893351	0	1	0	0	CorrectCommission	2.647589	0.947606	0	0
364.986023	0.792479	city	3	1	0.798483	0.798483	0	1	0	0	CorrectCommission	1.678042	0.928423	0	1
365.778290	0.792046	mountain	5	1	0.645918	0.645918	0	0	1	0	CommissionError	0.118830	0.896570	0	1
366.570435	0.792270	city	10	1	0.547494	0.547494	0	1	0	0	CorrectCommission	0.887058	0.855718	0	1
367.362701	0.792259	city	4	1	0.649079	0.649079	0	1	0	0	CorrectCommission	0.151142	0.810305	0	1
368.154968	0.792264	city	9	1	0.604330	0.604330	0	1	0	0	CorrectCommission	0.306190	0.765123	0	1
368.947357	0.792483	city	6	1	0.648763	0.648763	0	1	0	0	CorrectCommission	0.147910	0.724745	0	1
369.739594	0.792048	city	3	1	0.794051	0.794051	0	1	0	0	CorrectCommission	1.632747	0.693133	0	1
370.531769	0.792269	mountain	2	1	0.645723	0.645723	0	0	1	0	CommissionError	0.116840	0.673316	0	1
371.324036	0.792268	city	2	1	0.647868	0.647868	0	1	0	0	CorrectCommission	0.138766	0.667300	0	1
372.116302	0.792255	mountain	6	0	0.000000	0.630644	1	0	0	0	CorrectOmission	0.037264	0.675964	0	1
372.908569	0.792275	city	8	1	0.596205	0.596205	0	1	0	0	CorrectCommission	0.389229	0.699103	0	1
373.700836	0.792260	city	1	1	0.546706	0.546706	0	1	0	0	CorrectCommission	0.895111	0.735513	0	1
374.493134	0.792336	city	6	1	0.794920	0.794920	0	1	0	0	CorrectCommission	1.641624	0.783118	0	1
375.285400	0.792193	city	5	1	0.645674	0.645674	0	1	0	0	CorrectCommission	0.116345	0.839109	0	1
376.077606	0.792262	city	1	1	0.645749	0.645749	0	1	0	0	CorrectCommission	0.117104	0.900178	0	1
376.869873	0.792266	city	8	1	0.547232	0.547232	0	1	0	0	CorrectCommission	0.889730	0.962635	0	1
377.662140	0.792261	city	9	1	0.549888	0.549888	0	1	0	0	CorrectCommission	0.862591	1.022694	0	1
378.454468	0.792373	city	6	1	0.497623	0.497623	0	1	0	0	CorrectCommission	1.396731	1.076811	0	1
379.246735	0.792155	mountain	10	1	0.414105	0.414105	0	0	1	0	CommissionError	2.250283	1.121954	0	1
380.038971	0.792300	city	2	1	0.497313	0.497313	0	1	0	0	CorrectCommission	1.399900	1.155901	0	1
380.831207	0.792230	city	7	1	0.497273	0.497273	0	1	0	0	CorrectCommission	1.400308	1.177459	0	1
381.623474	0.792267	city	10	1	0.455183	0.455183	0	1	0	0	CorrectCommission	1.830470	1.186503	0	1
382.415833	0.792480	city	7	1	0.497926	0.497926	0	1	0	0	CorrectCommission	1.393634	1.183946	0	1
383.208130	0.792111	city	3	1	0.513124	0.513124	0	1	0	0	CorrectCommission	1.238318	1.171544	0	1
384.000336	0.792309	city	9	1	0.512293	0.512293	0	1	0	0	CorrectCommission	1.246809	1.151513	0	1
384.792694	0.792374	city	6	1	0.551015	0.551015	0	1	0	0	CorrectCommission	0.851073	1.126176	0	1
385.584900	0.792051	city	3	1	0.546655	0.546655	0	1	0	0	CorrectCommission	0.895630	1.097588	0	1
386.377075	0.792261	city	7	1	0.596222	0.596222	0	1	0	0	CorrectCommission	0.389055	1.067241	0	1
387.169342	0.792283	city	9	1	0.557984	0.557984	0	1	0	0	CorrectCommission	0.779848	1.035902	0	1
387.961609	0.792249	city	7	1	0.508597	0.508597	0	1	0	0	CorrectCommission	1.284581	1.003636	0	1
388.753845	0.792262	city	6	1	0.549364	0.549364	0	1	0	0	CorrectCommission	0.867940	0.969939	0	1
389.546112	0.792280	city	5	1	0.510433	0.510433	0	1	0	0	CorrectCommission	1.265811	0.934051	0	1
390.338440	0.792360	city	7	1	0.510143	0.510143	0	1	0	0	CorrectCommission	1.268781	0.895200	0	1
391.130798	0.792373	mountain	3	1	0.457129	0.457129	0	0	1	0	CommissionError	1.810584	0.852944	0	1
391.923035	0.792087	mountain	1	1	0.564512	0.564512	0	0	1	0	CommissionError	0.713134	0.807357	0	1
392.715302	0.792443	city	6	1	0.646183	0.646183	0	1	0	0	CorrectCommission	0.121546	0.759234	0	1
393.507599	0.792156	city	1	1	0.695163	0.695163	0	1	0	0	CorrectCommission	0.622117	0.710034	0	1
394.299896	0.792400	mountain	9	1	0.707658	0.707658	0	0	1	0	CommissionError	0.749811	0.661761	0	1
395.092133	0.792090	city	9	1	0.707391	0.707391	0	1	0	0	CorrectCommission	0.747085	0.616846	1	1
395.884308	0.792248	city	10	0	0.000000	0.677728	0	0	0	1	OmissionError	0.443927	0.577904	1	1
396.676575	0.792296	city	8	1	0.659909	0.659909	0	1	0	0	CorrectCommission	0.261821	0.547467	1	1
397.468811	0.792181	city	6	1	0.695177	0.695177	0	1	0	0	CorrectCommission	0.622256	0.527740	1	1
398.261078	0.792372	city	1	1	0.645742	0.645742	0	1	0	0	CorrectCommission	0.117038	0.520322	1	1
399.053375	0.792210	city	3	1	0.646467	0.646467	0	1	0	0	CorrectCommission	0.124447	0.525994	1	1
399.845703	0.792428	city	10	1	0.645702	0.645702	0	1	0	0	CorrectCommission	0.116625	0.544553	1	1
400.637939	0.792049	city	6	1	0.608723	0.608723	0	1	0	0	CorrectCommission	0.261300	0.574721	1	1
401.430115	0.792312	city	1	1	0.645860	0.645860	0	1	0	0	CorrectCommission	0.118242	0.614177	1	1
402.222382	0.792219	city	3	1	0.695237	0.695237	0	1	0	0	CorrectCommission	0.622873	0.659741	1	1
403.014679	0.792370	city	5	1	0.708913	0.708913	0	1	0	0	CorrectCommission	0.762643	0.707610	0	1
403.806946	0.792156	city	10	1	0.704508	0.704508	0	1	0	0	CorrectCommission	0.717625	0.753787	0	1
404.599243	0.792483	city	1	1	0.794356	0.794356	0	1	0	0	CorrectCommission	1.635866	0.794475	0	1
405.391571	0.792129	city	8	1	0.744571	0.744571	0	1	0	0	CorrectCommission	1.127059	0.826446	0	1
406.183838	0.792402	city	10	1	0.744884	0.744884	0	1	0	0	CorrectCommission	1.130261	0.847471	0	1
406.976105	0.792156	city	7	1	0.747759	0.747759	0	1	0	0	CorrectCommission	1.159650	0.856477	0	1
407.768250	0.792156	city	9	1	0.760003	0.760003	0	1	0	0	CorrectCommission	1.284777	0.853679	0	1
408.560455	0.792262	city	5	1	0.768670	0.768670	0	1	0	0	CorrectCommission	1.373354	0.840471	0	1
409.352722	0.792265	city	1	1	0.696013	0.696013	0	1	0	0	CorrectCommission	0.630803	0.819246	0	1
410.144989	0.792268	city	4	1	0.719487	0.719487	0	1	0	0	CorrectCommission	0.870703	0.793119	0	1
410.937286	0.792334	mountain	6	0	0.000000	0.699098	1	0	0	0	CorrectOmission	0.662333	0.765509	0	1
411.729675	0.792412	city	3	1	0.666164	0.666164	0	1	0	0	CorrectCommission	0.325748	0.739817	0	1
412.521973	0.792155	city	7	1	0.652001	0.652001	0	1	0	0	CorrectCommission	0.181000	0.719248	0	1
413.314117	0.792156	city	2	1	0.662274	0.662274	0	1	0	0	CorrectCommission	0.285995	0.706564	0	1
414.106323	0.792266	city	5	1	0.596338	0.596338	0	1	0	0	CorrectCommission	0.387871	0.704099	0	1
414.898590	0.792263	city	1	1	0.744780	0.744780	0	1	0	0	CorrectCommission	1.129203	0.713753	0	1
415.690948	0.792483	city	5	1	0.707931	0.707931	0	1	0	0	CorrectCommission	0.752599	0.737079	0	1
416.483215	0.792051	city	2	1	0.709116	0.709116	0	1	0	0	CorrectCommission	0.764717	0.775327	0	1
417.275391	0.792260	city	1	1	0.695273	0.695273	0	1	0	0	CorrectCommission	0.623241	0.829363	0	1
418.067657	0.792272	mountain	1	1	0.650376	0.650376	0	0	1	0	CommissionError	0.164397	0.899507	0	1
418.859924	0.792263	city	5	1	0.749141	0.749141	0	1	0	0	CorrectCommission	1.173767	0.985254	0	1
419.652283	0.792478	city	8	1	0.744866	0.744866	0	1	0	0	CorrectCommission	1.130074	1.084904	0	1
420.444580	0.792106	city	5	1	0.603756	0.603756	0	1	0	0	CorrectCommission	0.312056	1.195322	0	1
421.236725	0.792214	city	8	1	0.706519	0.706519	0	1	0	0	CorrectCommission	0.738174	1.311773	0	1
422.029083	0.792474	city	3	1	0.654894	0.654894	0	1	0	0	CorrectCommission	0.210568	1.427925	0	1
422.821381	0.792093	city	8	1	0.457663	0.457663	0	1	0	0	CorrectCommission	1.805122	1.536277	0	1
423.613617	0.792437	city	5	1	0.450864	0.450864	0	1	0	0	CorrectCommission	1.874604	1.628709	0	1
424.405914	0.792155	city	7	1	0.397922	0.397922	0	1	0	0	CorrectCommission	2.415676	1.697406	0	0
425.198090	0.792162	city	3	1	0.992686	0.992686	0	1	0	0	CorrectCommission	3.662790	1.735775	0	0
425.990295	0.792263	city	7	1	0.992370	0.992370	0	1	0	0	CorrectCommission	3.659561	1.739322	0	0
426.782623	0.792370	city	1	1	0.497272	0.497272	0	1	0	0	CorrectCommission	1.400316	1.706337	0	0
427.574921	0.792265	city	4	1	1.055337	1.055337	0	1	0	0	CorrectCommission	4.303077	1.638235	0	0
428.367188	0.792266	city	10	0	0.000000	0.814565	0	0	0	1	OmissionError	1.842403	1.539260	0	0
429.159454	0.792217	city	6	1	0.454576	0.454576	0	1	0	0	CorrectCommission	1.836670	1.416180	0	0
429.951660	0.792214	city	4	1	0.654988	0.654988	0	1	0	0	CorrectCommission	0.211528	1.277299	0	0
430.743988	0.792470	city	5	1	0.655363	0.655363	0	1	0	0	CorrectCommission	0.215366	1.131553	0	0
431.536255	0.792049	mountain	10	0	0.000000	0.632680	1	0	0	0	CorrectOmission	0.016453	0.987490	0	0
432.328400	0.792265	city	1	1	0.596198	0.596198	0	1	0	0	CorrectCommission	0.389303	0.852474	0	0
433.120667	0.792264	mountain	1	1	0.555175	0.555175	0	0	1	0	CommissionError	0.808557	0.732137	0	0
433.912964	0.792314	city	3	1	0.605484	0.605484	0	1	0	0	CorrectCommission	0.294401	0.630120	1	0
434.705231	0.792214	city	9	1	0.606013	0.606013	0	1	0	0	CorrectCommission	0.288988	0.548120	1	0
435.497467	0.792267	city	3	1	0.605635	0.605635	0	1	0	0	CorrectCommission	0.292860	0.486088	1	0
436.289734	0.792265	city	6	1	0.650331	0.650331	0	1	0	0	CorrectCommission	0.163931	0.442580	1	0
437.082001	0.792263	city	5	1	0.645744	0.645744	0	1	0	0	CorrectCommission	0.117052	0.415210	1	0
437.874359	0.792484	city	9	1	0.606187	0.606187	0	1	0	0	CorrectCommission	0.287211	0.401037	1	0
438.666626	0.792046	mountain	9	1	0.601178	0.601178	0	0	1	0	CommissionError	0.338409	0.396938	1	0
439.458801	0.792309	city	5	1	0.645771	0.645771	0	1	0	0	CorrectCommission	0.117330	0.399949	1	0
440.251068	0.792221	city	10	1	0.597046	0.597046	0	1	0	0	CorrectCommission	0.380631	0.407499	1	0
441.043365	0.792374	city	7	1	0.744949	0.744949	0	1	0	0	CorrectCommission	1.130928	0.417586	1	0
441.835632	0.792155	mountain	9	0	0.000000	0.635248	1	0	0	0	CorrectOmission	0.009791	0.428871	1	0
442.627869	0.792266	city	2	1	0.506255	0.506255	0	1	0	0	CorrectCommission	1.308513	0.440691	1	0
443.420135	0.792289	city	6	1	0.596281	0.596281	0	1	0	0	CorrectCommission	0.388458	0.452897	1	0
444.212494	0.792457	mountain	3	0	0.000000	0.646221	1	0	0	0	CorrectOmission	0.121926	0.465806	1	0
445.004761	0.792086	city	3	1	0.651114	0.651114	0	1	0	0	CorrectCommission	0.171939	0.479836	1	0
445.797028	0.792443	city	9	1	0.606001	0.606001	0	1	0	0	CorrectCommission	0.289120	0.495359	1	0
446.589325	0.792156	city	3	1	0.560773	0.560773	0	1	0	0	CorrectCommission	0.751343	0.512437	1	0
447.381500	0.792159	city	2	1	0.571169	0.571169	0	1	0	0	CorrectCommission	0.645093	0.530705	1	0
448.173828	0.792478	city	8	1	0.612754	0.612754	0	1	0	0	CorrectCommission	0.220103	0.549295	1	0
448.966095	0.792097	mountain	3	0	0.000000	0.649087	1	0	0	0	CorrectOmission	0.151223	0.566886	1	0
449.758270	0.792220	mountain	5	0	0.000000	0.677616	1	0	0	0	CorrectOmission	0.442790	0.581861	1	0
450.550537	0.792327	city	3	1	0.695788	0.695788	0	1	0	0	CorrectCommission	0.628503	0.592554	1	0
451.342804	0.792205	city	1	1	0.701049	0.701049	0	1	0	0	CorrectCommission	0.682267	0.597564	1	0
452.135040	0.792262	city	3	1	0.847393	0.847393	0	1	0	0	CorrectCommission	2.177902	0.596004	1	0
452.927307	0.792265	city	8	1	0.744806	0.744806	0	1	0	0	CorrectCommission	1.129463	0.587668	1	0
453.719574	0.792265	city	1	1	0.696124	0.696124	0	1	0	0	CorrectCommission	0.631942	0.573168	1	0
454.511871	0.792371	city	2	1	0.614293	0.614293	0	1	0	0	CorrectCommission	0.204375	0.553806	1	0
455.304199	0.792264	city	9	1	0.651620	0.651620	0	1	0	0	CorrectCommission	0.177108	0.531369	1	0
456.096405	0.792156	city	8	1	0.645667	0.645667	0	1	0	0	CorrectCommission	0.116270	0.507854	1	0
456.888641	0.792316	city	3	1	0.598933	0.598933	0	1	0	0	CorrectCommission	0.361349	0.485187	1	0
457.680969	0.792322	mountain	10	1	0.614245	0.614245	0	0	1	0	CommissionError	0.204863	0.464968	1	0
458.473206	0.792158	city	5	1	0.702033	0.702033	0	1	0	0	CorrectCommission	0.692327	0.448350	1	0
459.265533	0.792481	city	7	1	0.661669	0.661669	0	1	0	0	CorrectCommission	0.279814	0.435965	1	0
460.057800	0.792048	city	10	1	0.695749	0.695749	0	1	0	0	CorrectCommission	0.628100	0.427982	1	0
460.849945	0.792278	city	9	1	0.652638	0.652638	0	1	0	0	CorrectCommission	0.187510	0.424226	1	0
461.642273	0.792359	city	7	1	0.652822	0.652822	0	1	0	0	CorrectCommission	0.189389	0.424325	1	0
462.434540	0.792182	city	3	1	0.699958	0.699958	0	1	0	0	CorrectCommission	0.671121	0.427821	1	0
463.226807	0.792349	city	8	1	0.695401	0.695401	0	1	0	0	CorrectCommission	0.624547	0.434266	1	0
464.019165	0.792371	city	9	1	0.659244	0.659244	0	1	0	0	CorrectCommission	0.255024	0.443303	1	0
464.811493	0.792267	city	10	1	0.652361	0.652361	0	1	0	0	CorrectCommission	0.184685	0.454678	1	0
465.603760	0.792264	city	4	1	0.695046	0.695046	0	1	0	0	CorrectCommission	0.620925	0.468193	1	0
466.395905	0.792052	city	9	1	0.556400	0.556400	0	1	0	0	CorrectCommission	0.796037	0.483629	1	0
467.188049	0.792259	city	6	1	0.602775	0.602775	0	1	0	0	CorrectCommission	0.322081	0.500674	1	0
467.980347	0.792295	city	10	1	0.645721	0.645721	0	1	0	0	CorrectCommission	0.116817	0.518888	1	0
468.772705	0.792453	city	3	1	0.661746	0.661746	0	1	0	0	CorrectCommission	0.280598	0.537647	1	0
469.565063	0.792264	city	7	1	0.702743	0.702743	0	1	0	0	CorrectCommission	0.699579	0.556138	1	0
470.357269	0.792156	city	10	1	0.706100	0.706100	0	1	0	0	CorrectCommission	0.733891	0.573469	1	0
471.149475	0.792227	city	2	1	0.704801	0.704801	0	1	0	0	CorrectCommission	0.720619	0.588762	1	0
471.941681	0.792195	city	10	1	0.708893	0.708893	0	1	0	0	CorrectCommission	0.762439	0.601266	1	0
472.733917	0.792270	city	6	1	0.598286	0.598286	0	1	0	0	CorrectCommission	0.367963	0.610449	1	0
473.526245	0.792367	city	4	1	0.794284	0.794284	0	1	0	0	CorrectCommission	1.635126	0.616075	1	0
474.318481	0.792159	city	9	1	0.605275	0.605275	0	1	0	0	CorrectCommission	0.296539	0.618160	1	0
475.110809	0.792480	city	3	1	0.605235	0.605235	0	1	0	0	CorrectCommission	0.296942	0.617005	1	0
475.903076	0.792052	mountain	8	1	0.556774	0.556774	0	0	1	0	CommissionError	0.792218	0.613006	1	0
476.695251	0.792261	city	5	1	0.703570	0.703570	0	1	0	0	CorrectCommission	0.708036	0.606566	1	0
477.487488	0.792267	city	3	1	0.700645	0.700645	0	1	0	0	CorrectCommission	0.678141	0.597956	1	0
478.279755	0.792266	city	5	1	0.654797	0.654797	0	1	0	0	CorrectCommission	0.209578	0.587216	1	0
479.072021	0.792261	city	9	1	0.606726	0.606726	0	1	0	0	CorrectCommission	0.281705	0.574111	1	0
479.864288	0.792267	mountain	6	1	0.711641	0.711641	0	0	1	0	CommissionError	0.790522	0.558127	1	0
480.656677	0.792479	city	5	1	0.711860	0.711860	0	1	0	0	CorrectCommission	0.792754	0.538547	1	0
481.449036	0.792265	city	6	1	0.699165	0.699165	0	1	0	0	CorrectCommission	0.663020	0.514596	1	0
482.241241	0.792120	mountain	6	0	0.000000	0.597525	1	0	0	0	CorrectOmission	0.375740	0.485587	1	0
483.033508	0.792410	city	5	1	0.550670	0.550670	0	1	0	0	CorrectCommission	0.854595	0.451069	1	0
483.825714	0.792051	city	9	1	0.702332	0.702332	0	1	0	0	CorrectCommission	0.695384	0.410946	1	0
484.617950	0.792369	city	8	1	0.596970	0.596970	0	1	0	0	CorrectCommission	0.381409	0.365582	1	0
485.410187	0.792156	city	7	1	0.601714	0.601714	0	1	0	0	CorrectCommission	0.332924	0.315781	1	0
486.202423	0.792289	city	9	1	0.606360	0.606360	0	1	0	0	CorrectCommission	0.285444	0.262772	1	0
486.994690	0.792240	city	10	1	0.613931	0.613931	0	1	0	0	CorrectCommission	0.208074	0.208074	1	0
