onset	duration	trial_type	image_type	Press	ReactionTime	ReactionTime_Interpolated	CorrectOmission	CorrectCommission	CommissionError	OmissionError	response_type	nonsmoothVarianceTimeCourse	VarianceTimeCourse	In_the_Zone	Reward_trial
8.433914	0.792483	city	10	1	0.910044	0.910044	0	1	0	0	CorrectCommission	1.356350	1.356350	0	0
9.226233	0.792156	city	4	1	0.709589	0.709589	0	1	0	0	CorrectCommission	0.545976	1.435268	0	0
10.018389	0.792155	city	5	1	0.559043	0.559043	0	1	0	0	CorrectCommission	1.974666	1.502178	0	0
10.810601	0.792270	city	1	1	0.455431	0.455431	0	1	0	0	CorrectCommission	2.957952	1.546546	0	0
11.602921	0.792368	city	10	1	0.365531	0.365531	0	1	0	0	CorrectCommission	3.811109	1.560654	0	0
12.395207	0.792206	city	3	1	0.299538	0.299538	0	1	0	0	CorrectCommission	4.437389	1.540424	0	0
13.187419	0.792215	city	10	1	0.497232	0.497232	0	1	0	0	CorrectCommission	2.561256	1.485752	0	0
13.979659	0.792266	city	4	1	0.695326	0.695326	0	1	0	0	CorrectCommission	0.681339	1.400293	0	0
14.772033	0.792481	city	1	1	0.645842	0.645842	0	1	0	0	CorrectCommission	1.150938	1.290685	0	0
15.564405	0.792265	city	6	1	0.745050	0.745050	0	1	0	0	CorrectCommission	0.209455	1.165422	0	0
16.356562	0.792048	city	7	1	0.708354	0.708354	0	1	0	0	CorrectCommission	0.557699	1.033704	0	0
17.148720	0.792268	city	9	1	0.700854	0.700854	0	1	0	0	CorrectCommission	0.628871	0.904248	0	0
17.941093	0.792477	city	6	1	0.744833	0.744833	0	1	0	0	CorrectCommission	0.211509	0.784403	0	0
18.733465	0.792266	city	10	1	0.745407	0.745407	0	1	0	0	CorrectCommission	0.206059	0.679543	1	0
19.525703	0.792210	city	2	1	0.754227	0.754227	0	1	0	0	CorrectCommission	0.122364	0.592863	1	0
20.317860	0.792102	city	1	1	0.794630	0.794630	0	1	0	0	CorrectCommission	0.261066	0.525435	1	0
21.110043	0.792265	city	7	1	0.808707	0.808707	0	1	0	0	CorrectCommission	0.394658	0.476544	1	0
21.902306	0.792262	city	6	1	0.794394	0.794394	0	1	0	0	CorrectCommission	0.258829	0.444159	1	0
22.694706	0.792538	city	4	1	0.745166	0.745166	0	1	0	0	CorrectCommission	0.208349	0.425425	1	0
23.486971	0.791993	city	5	1	0.808618	0.808618	0	1	0	0	CorrectCommission	0.393811	0.417149	1	0
24.279154	0.792372	city	6	1	0.843807	0.843807	0	1	0	0	CorrectCommission	0.727764	0.416209	1	0
25.071472	0.792266	city	10	1	0.744775	0.744775	0	1	0	0	CorrectCommission	0.212060	0.419831	1	0
25.863720	0.792230	city	8	1	0.807441	0.807441	0	1	0	0	CorrectCommission	0.382644	0.425814	1	0
26.655985	0.792301	city	5	1	0.896063	0.896063	0	1	0	0	CorrectCommission	1.223677	0.432533	1	0
27.448322	0.792373	city	2	1	0.745237	0.745237	0	1	0	0	CorrectCommission	0.207680	0.438866	1	0
28.240547	0.792076	city	6	1	0.794645	0.794645	0	1	0	0	CorrectCommission	0.261207	0.444148	1	0
29.032812	0.792453	mountain	2	0	0.000000	0.752169	1	0	0	0	CorrectOmission	0.141889	0.447983	1	0
29.825062	0.792047	city	8	1	0.695639	0.695639	0	1	0	0	CorrectCommission	0.678369	0.450118	1	0
30.617218	0.792268	mountain	3	1	0.702882	0.702882	0	0	1	0	CommissionError	0.609632	0.450364	1	0
31.409485	0.792264	mountain	6	0	0.000000	0.746711	1	0	0	0	CorrectOmission	0.193684	0.448597	1	0
32.201748	0.792263	city	3	1	0.802057	0.802057	0	1	0	0	CorrectCommission	0.331553	0.444720	1	0
32.994011	0.792263	city	7	1	0.843849	0.843849	0	1	0	0	CorrectCommission	0.728156	0.438738	1	0
33.786301	0.792316	city	9	1	0.809035	0.809035	0	1	0	0	CorrectCommission	0.397769	0.430815	1	0
34.578674	0.792432	city	3	1	0.843975	0.843975	0	1	0	0	CorrectCommission	0.729358	0.421373	1	0
35.370914	0.792048	city	4	1	0.856610	0.856610	0	1	0	0	CorrectCommission	0.849265	0.411100	1	0
36.163124	0.792372	city	1	1	0.794808	0.794808	0	1	0	0	CorrectCommission	0.262753	0.400925	1	0
36.955387	0.792155	city	8	1	0.757382	0.757382	0	1	0	0	CorrectCommission	0.092417	0.391954	1	0
37.747707	0.792484	city	2	1	0.744849	0.744849	0	1	0	0	CorrectCommission	0.211361	0.385317	1	0
38.539989	0.792080	city	4	1	0.794384	0.794384	0	1	0	0	CorrectCommission	0.258734	0.382012	1	0
39.332146	0.792230	city	9	1	0.794323	0.794323	0	1	0	0	CorrectCommission	0.258154	0.382773	1	0
40.124393	0.792265	city	7	1	0.747622	0.747622	0	1	0	0	CorrectCommission	0.185042	0.387951	1	0
40.916767	0.792483	city	10	1	0.707830	0.707830	0	1	0	0	CorrectCommission	0.562671	0.397444	1	0
41.709030	0.792047	city	4	1	0.754921	0.754921	0	1	0	0	CorrectCommission	0.115779	0.410683	1	0
42.501190	0.792269	city	5	1	0.755811	0.755811	0	1	0	0	CorrectCommission	0.107328	0.426728	1	0
43.293453	0.792263	city	4	1	0.801326	0.801326	0	1	0	0	CorrectCommission	0.324608	0.444341	1	0
44.085716	0.792263	city	5	1	0.894034	0.894034	0	1	0	0	CorrectCommission	1.204415	0.462123	1	0
44.878090	0.792482	city	2	1	0.695508	0.695508	0	1	0	0	CorrectCommission	0.679607	0.478660	1	0
45.670410	0.792155	city	10	1	0.756614	0.756614	0	1	0	0	CorrectCommission	0.099705	0.492680	1	0
46.462570	0.792166	city	5	1	0.843827	0.843827	0	1	0	0	CorrectCommission	0.727953	0.503150	1	0
47.254784	0.792259	city	4	1	0.844235	0.844235	0	1	0	0	CorrectCommission	0.731825	0.509287	1	0
48.047043	0.792264	city	2	1	0.844027	0.844027	0	1	0	0	CorrectCommission	0.729848	0.510644	1	0
48.839417	0.792480	mountain	4	0	0.000000	0.781218	1	0	0	0	CorrectOmission	0.133787	0.507119	1	0
49.631786	0.792264	city	5	1	0.712804	0.712804	0	1	0	0	CorrectCommission	0.515467	0.498974	1	0
50.423943	0.792050	city	3	1	0.695780	0.695780	0	1	0	0	CorrectCommission	0.677028	0.486753	1	0
51.216099	0.792262	mountain	6	0	0.000000	0.697277	1	0	0	0	CorrectOmission	0.662817	0.471332	1	0
52.008366	0.792266	city	2	1	0.702180	0.702180	0	1	0	0	CorrectCommission	0.616290	0.453863	1	0
52.800629	0.792264	city	10	1	0.695372	0.695372	0	1	0	0	CorrectCommission	0.680897	0.435715	1	0
53.592896	0.792265	city	2	1	0.745275	0.745275	0	1	0	0	CorrectCommission	0.207317	0.418421	1	0
54.385185	0.792316	city	4	1	0.747463	0.747463	0	1	0	0	CorrectCommission	0.186549	0.403531	1	0
55.177559	0.792432	city	9	1	0.809845	0.809845	0	1	0	0	CorrectCommission	0.405460	0.392508	1	0
55.969906	0.792264	city	10	1	0.761195	0.761195	0	1	0	0	CorrectCommission	0.056233	0.386603	1	0
56.762062	0.792052	city	3	1	0.794794	0.794794	0	1	0	0	CorrectCommission	0.262625	0.386760	1	0
57.554276	0.792369	city	1	1	0.758241	0.758241	0	1	0	0	CorrectCommission	0.084265	0.393531	1	0
58.346539	0.792156	city	9	1	0.746990	0.746990	0	1	0	0	CorrectCommission	0.191042	0.407040	1	0
59.138748	0.792269	city	2	1	0.708388	0.708388	0	1	0	0	CorrectCommission	0.557379	0.426988	1	0
59.931030	0.792293	city	1	1	0.800970	0.800970	0	1	0	0	CorrectCommission	0.321231	0.452666	1	0
60.723301	0.792247	mountain	10	0	0.000000	0.730678	1	0	0	0	CorrectOmission	0.345844	0.483006	1	0
61.515549	0.792249	city	7	1	0.649062	0.649062	0	1	0	0	CorrectCommission	1.120386	0.516598	1	0
62.307858	0.792375	city	10	1	0.707671	0.707671	0	1	0	0	CorrectCommission	0.564176	0.551720	1	0
63.100124	0.792157	city	3	1	0.759571	0.759571	0	1	0	0	CorrectCommission	0.071645	0.586432	1	0
63.892372	0.792335	city	5	1	0.795350	0.795350	0	1	0	0	CorrectCommission	0.267904	0.618599	1	0
64.684639	0.792194	city	4	1	0.893329	0.893329	0	1	0	0	CorrectCommission	1.197729	0.645995	1	0
65.476868	0.792266	city	8	1	0.794414	0.794414	0	1	0	0	CorrectCommission	0.259013	0.666486	1	0
66.269135	0.792267	city	1	1	0.843872	0.843872	0	1	0	0	CorrectCommission	0.728380	0.678281	1	0
67.061447	0.792369	city	7	1	0.893389	0.893389	0	1	0	0	CorrectCommission	1.198292	0.680119	1	0
67.853714	0.792160	city	9	1	0.893432	0.893432	0	1	0	0	CorrectCommission	1.198700	0.671531	1	1
68.645950	0.792314	city	5	1	0.992437	0.992437	0	1	0	0	CorrectCommission	2.138264	0.653008	1	1
69.438217	0.792212	city	1	1	0.808555	0.808555	0	1	0	0	CorrectCommission	0.393216	0.626029	1	1
70.230453	0.792269	mountain	10	0	0.000000	0.797353	1	0	0	0	CorrectOmission	0.286904	0.592997	1	1
71.022827	0.792478	city	6	1	0.821760	0.821760	0	1	0	0	CorrectCommission	0.518533	0.556942	1	1
71.815125	0.792111	city	1	1	0.744708	0.744708	0	1	0	0	CorrectCommission	0.212695	0.521193	1	1
72.607330	0.792309	city	4	1	0.744881	0.744881	0	1	0	0	CorrectCommission	0.211053	0.488990	1	1
73.399567	0.792158	city	5	1	0.745443	0.745443	0	1	0	0	CorrectCommission	0.205719	0.463116	1	1
74.191788	0.792284	city	8	1	0.744871	0.744871	0	1	0	0	CorrectCommission	0.211151	0.445588	1	1
74.984055	0.792246	city	7	1	0.744812	0.744812	0	1	0	0	CorrectCommission	0.211707	0.437492	1	1
75.776306	0.792263	city	5	1	0.759961	0.759961	0	1	0	0	CorrectCommission	0.067942	0.438935	1	1
76.568573	0.792267	city	10	1	0.806324	0.806324	0	1	0	0	CorrectCommission	0.372043	0.449137	1	1
77.360832	0.792263	city	1	1	0.751590	0.751590	0	1	0	0	CorrectCommission	0.147383	0.466631	1	1
78.153152	0.792374	city	9	1	0.805372	0.805372	0	1	0	0	CorrectCommission	0.363005	0.489535	1	1
78.945419	0.792157	city	4	1	0.844191	0.844191	0	1	0	0	CorrectCommission	0.731408	0.515816	1	1
79.737633	0.792266	city	6	1	0.846926	0.846926	0	1	0	0	CorrectCommission	0.757362	0.543546	1	1
80.529915	0.792300	city	4	1	0.943381	0.943381	0	1	0	0	CorrectCommission	1.672725	0.571092	1	1
81.322174	0.792224	city	5	1	0.843845	0.843845	0	1	0	0	CorrectCommission	0.728121	0.597152	1	1
82.114532	0.792489	city	2	1	0.748661	0.748661	0	1	0	0	CorrectCommission	0.175178	0.620755	1	1
82.906822	0.792085	city	3	1	0.757392	0.757392	0	1	0	0	CorrectCommission	0.092326	0.641166	1	1
83.699028	0.792331	city	5	1	0.751831	0.751831	0	1	0	0	CorrectCommission	0.145100	0.657741	1	1
84.491325	0.792265	city	1	1	0.661022	0.661022	0	1	0	0	CorrectCommission	1.006885	0.669858	1	1
85.283569	0.792227	city	9	1	0.695186	0.695186	0	1	0	0	CorrectCommission	0.682662	0.676906	1	1
86.075783	0.792193	city	7	1	0.663037	0.663037	0	1	0	0	CorrectCommission	0.987761	0.678361	1	1
86.868011	0.792268	city	10	1	0.647390	0.647390	0	1	0	0	CorrectCommission	1.136250	0.673906	1	1
87.660278	0.792262	city	3	1	0.662663	0.662663	0	1	0	0	CorrectCommission	0.991311	0.663559	1	1
88.452599	0.792372	city	9	1	0.662263	0.662263	0	1	0	0	CorrectCommission	0.995106	0.647766	1	1
89.244858	0.792159	city	4	1	0.697956	0.697956	0	1	0	0	CorrectCommission	0.656372	0.627406	1	1
90.037071	0.792268	city	2	1	0.709811	0.709811	0	1	0	0	CorrectCommission	0.543872	0.603755	1	1
90.829445	0.792476	city	6	1	0.794385	0.794385	0	1	0	0	CorrectCommission	0.258744	0.578339	1	1
91.621819	0.792265	city	5	1	0.794124	0.794124	0	1	0	0	CorrectCommission	0.256268	0.552772	1	1
92.413971	0.792050	city	9	1	0.843948	0.843948	0	1	0	0	CorrectCommission	0.729094	0.528563	1	1
93.206131	0.792262	city	5	1	0.744968	0.744968	0	1	0	0	CorrectCommission	0.210225	0.506998	1	1
93.998428	0.792333	city	1	1	0.700565	0.700565	0	1	0	0	CorrectCommission	0.631617	0.489078	1	1
94.790710	0.792234	mountain	5	0	0.000000	0.755182	1	0	0	0	CorrectOmission	0.113293	0.475465	1	1
95.582962	0.792274	city	8	1	0.796414	0.796414	0	1	0	0	CorrectCommission	0.277993	0.466576	1	1
96.375214	0.792218	city	10	1	0.711851	0.711851	0	1	0	0	CorrectCommission	0.524508	0.462652	1	1
97.167450	0.792265	city	7	1	0.707336	0.707336	0	1	0	0	CorrectCommission	0.567361	0.463885	1	1
97.959717	0.792265	city	10	1	0.695338	0.695338	0	1	0	0	CorrectCommission	0.681217	0.470484	1	1
98.751984	0.792268	city	5	1	0.695763	0.695763	0	1	0	0	CorrectCommission	0.677190	0.482733	1	1
99.544304	0.792369	city	9	1	0.744839	0.744839	0	1	0	0	CorrectCommission	0.211453	0.500914	1	1
100.336563	0.792159	city	4	1	0.794282	0.794282	0	1	0	0	CorrectCommission	0.257765	0.525236	1	1
101.128830	0.792370	city	9	1	0.745275	0.745275	0	1	0	0	CorrectCommission	0.207319	0.555683	1	1
101.921097	0.792156	city	6	1	0.744883	0.744883	0	1	0	0	CorrectCommission	0.211040	0.591859	1	1
102.713310	0.792273	city	9	1	0.696142	0.696142	0	1	0	0	CorrectCommission	0.673594	0.632905	1	1
103.505684	0.792474	city	7	1	0.652999	0.652999	0	1	0	0	CorrectCommission	1.083019	0.677440	1	1
104.297997	0.792156	city	5	1	0.744628	0.744628	0	1	0	0	CorrectCommission	0.213457	0.723612	1	1
105.090179	0.792207	city	6	1	0.844000	0.844000	0	1	0	0	CorrectCommission	0.729595	0.769247	0	1
105.882393	0.792215	city	2	1	0.844176	0.844176	0	1	0	0	CorrectCommission	0.731265	0.811989	0	1
106.674683	0.792373	city	9	1	0.893812	0.893812	0	1	0	0	CorrectCommission	1.202312	0.849573	0	1
107.466949	0.792155	city	7	1	0.843843	0.843843	0	1	0	0	CorrectCommission	0.728101	0.880035	0	1
108.259155	0.792264	city	8	1	0.942979	0.942979	0	1	0	0	CorrectCommission	1.668912	0.901947	0	1
109.051422	0.792269	city	4	1	0.992437	0.992437	0	1	0	0	CorrectCommission	2.138270	0.914478	0	1
109.843689	0.792265	city	7	1	0.893509	0.893509	0	1	0	0	CorrectCommission	1.199431	0.917427	0	1
110.635956	0.792261	city	6	1	0.804452	0.804452	0	1	0	0	CorrectCommission	0.354280	0.911193	0	1
111.428215	0.792266	city	1	1	0.794365	0.794365	0	1	0	0	CorrectCommission	0.258556	0.896599	0	1
112.220482	0.792263	city	8	1	0.707741	0.707741	0	1	0	0	CorrectCommission	0.563514	0.874736	0	1
113.012749	0.792265	mountain	4	0	0.000000	0.857762	1	0	0	0	CorrectOmission	0.860194	0.846815	0	1
113.805008	0.792264	city	7	1	0.954873	0.954873	0	1	0	0	CorrectCommission	1.781780	0.814097	0	1
114.597305	0.792327	city	10	1	0.709517	0.709517	0	1	0	0	CorrectCommission	0.546657	0.777850	0	1
115.389679	0.792422	city	7	1	0.858329	0.858329	0	1	0	0	CorrectCommission	0.865579	0.739394	1	1
116.181915	0.792047	mountain	4	0	0.000000	0.884187	1	0	0	0	CorrectOmission	1.110967	0.700057	1	1
116.974068	0.792263	city	3	1	0.843913	0.843913	0	1	0	0	CorrectCommission	0.728761	0.661186	1	1
117.766441	0.792483	city	1	1	0.794330	0.794330	0	1	0	0	CorrectCommission	0.258215	0.624091	1	1
118.558815	0.792266	city	8	1	0.794155	0.794155	0	1	0	0	CorrectCommission	0.256556	0.589981	1	1
119.351082	0.792263	mountain	4	0	0.000000	0.804127	1	0	0	0	CorrectOmission	0.351195	0.559817	1	1
120.143242	0.792050	mountain	8	0	0.000000	0.814218	1	0	0	0	CorrectOmission	0.446956	0.534255	1	1
120.935501	0.792481	mountain	1	0	0.000000	0.814398	1	0	0	0	CorrectOmission	0.448663	0.513612	1	1
121.727791	0.792098	city	3	1	0.794638	0.794638	0	1	0	0	CorrectCommission	0.261140	0.497907	1	1
122.519951	0.792217	city	9	1	0.744909	0.744909	0	1	0	0	CorrectCommission	0.210790	0.486894	1	1
123.312195	0.792264	city	2	1	0.695363	0.695363	0	1	0	0	CorrectCommission	0.680987	0.480167	1	1
124.104454	0.792265	city	10	1	0.650513	0.650513	0	1	0	0	CorrectCommission	1.106609	0.477272	1	1
124.896744	0.792307	city	6	1	0.744779	0.744779	0	1	0	0	CorrectCommission	0.212020	0.477795	1	1
125.689018	0.792249	city	8	1	0.745311	0.745311	0	1	0	0	CorrectCommission	0.206971	0.481425	1	1
126.481262	0.792243	city	3	1	0.695253	0.695253	0	1	0	0	CorrectCommission	0.682028	0.487914	1	1
127.273514	0.792257	city	4	1	0.695863	0.695863	0	1	0	0	CorrectCommission	0.676237	0.497047	1	0
128.065887	0.792482	city	6	1	0.794391	0.794391	0	1	0	0	CorrectCommission	0.258795	0.508598	1	0
128.858154	0.792064	city	9	1	0.756894	0.756894	0	1	0	0	CorrectCommission	0.097051	0.522227	1	0
129.650314	0.792247	city	6	1	0.808492	0.808492	0	1	0	0	CorrectCommission	0.392621	0.537455	1	0
130.442581	0.792292	city	9	1	0.744823	0.744823	0	1	0	0	CorrectCommission	0.211609	0.553669	1	0
131.234848	0.792239	mountain	9	0	0.000000	0.685559	1	0	0	0	CorrectOmission	0.774024	0.570191	1	0
132.027100	0.792267	city	2	1	0.660140	0.660140	0	1	0	0	CorrectCommission	1.015256	0.586391	1	0
132.819366	0.792264	mountain	1	1	0.698002	0.698002	0	0	1	0	CommissionError	0.655940	0.601814	1	0
133.611679	0.792372	city	8	1	0.943269	0.943269	0	1	0	0	CorrectCommission	1.671658	0.616258	1	0
134.404053	0.792374	city	3	1	0.798915	0.798915	0	1	0	0	CorrectCommission	0.301732	0.629747	1	0
135.196320	0.792157	mountain	9	0	0.000000	0.761931	1	0	0	0	CorrectOmission	0.049252	0.642576	1	0
135.988480	0.792155	city	2	1	0.744703	0.744703	0	1	0	0	CorrectCommission	0.212740	0.655130	1	0
136.780792	0.792482	city	7	1	0.659621	0.659621	0	1	0	0	CorrectCommission	1.020177	0.667783	1	0
137.573166	0.792266	city	1	1	0.695201	0.695201	0	1	0	0	CorrectCommission	0.682525	0.680766	1	0
138.365326	0.792047	city	6	1	0.798946	0.798946	0	1	0	0	CorrectCommission	0.302027	0.694113	1	0
139.157471	0.792255	city	10	1	0.646585	0.646585	0	1	0	0	CorrectCommission	1.143894	0.707596	1	0
139.949738	0.792273	city	2	1	0.695340	0.695340	0	1	0	0	CorrectCommission	0.681200	0.720766	1	0
140.742065	0.792375	city	4	1	0.695328	0.695328	0	1	0	0	CorrectCommission	0.681320	0.733067	1	0
141.534332	0.792158	city	10	1	0.695204	0.695204	0	1	0	0	CorrectCommission	0.682494	0.743925	1	0
142.326538	0.792263	city	9	1	0.695784	0.695784	0	1	0	0	CorrectCommission	0.676984	0.752897	1	0
143.118805	0.792262	city	4	1	0.648616	0.648616	0	1	0	0	CorrectCommission	1.124615	0.759843	0	0
143.911118	0.792376	city	7	1	0.695324	0.695324	0	1	0	0	CorrectCommission	0.681350	0.764939	0	0
144.703415	0.792216	city	6	1	0.648631	0.648631	0	1	0	0	CorrectCommission	1.124473	0.768767	0	0
145.495636	0.792206	city	1	1	0.646043	0.646043	0	1	0	0	CorrectCommission	1.149037	0.772266	0	0
146.287979	0.792480	city	3	1	0.695644	0.695644	0	1	0	0	CorrectCommission	0.678313	0.776640	0	0
147.080231	0.792047	mountain	4	0	0.000000	0.766987	1	0	0	0	CorrectOmission	0.001267	0.783176	0	0
147.872391	0.792264	city	8	1	0.843830	0.843830	0	1	0	0	CorrectCommission	0.727974	0.793051	0	0
148.664688	0.792320	city	10	1	0.909932	0.909932	0	1	0	0	CorrectCommission	1.355286	0.807088	0	0
149.456955	0.792212	city	2	1	0.807375	0.807375	0	1	0	0	CorrectCommission	0.382021	0.825608	0	0
150.249237	0.792372	city	5	1	0.794364	0.794364	0	1	0	0	CorrectCommission	0.258546	0.848374	0	0
151.041611	0.792373	city	8	1	0.794602	0.794602	0	1	0	0	CorrectCommission	0.260803	0.874507	0	0
151.833832	0.792049	city	6	1	0.646142	0.646142	0	1	0	0	CorrectCommission	1.148095	0.902642	0	0
152.625992	0.792281	city	8	1	0.596304	0.596304	0	1	0	0	CorrectCommission	1.621059	0.931062	0	0
153.418259	0.792249	city	5	1	0.596274	0.596274	0	1	0	0	CorrectCommission	1.621349	0.957959	0	0
154.210510	0.792266	city	9	1	0.804085	0.804085	0	1	0	0	CorrectCommission	0.350791	0.981647	0	0
155.002884	0.792480	mountain	7	0	0.000000	0.883385	1	0	0	0	CorrectOmission	1.103354	1.000824	0	0
155.795151	0.792052	city	2	1	0.893452	0.893452	0	1	0	0	CorrectCommission	1.198890	1.014696	0	0
156.587311	0.792261	city	5	1	0.893563	0.893563	0	1	0	0	CorrectCommission	1.199947	1.023093	0	0
157.379578	0.792262	city	1	1	0.811090	0.811090	0	1	0	0	CorrectCommission	0.417275	1.026491	0	0
158.171829	0.792267	city	9	1	1.042022	1.042022	0	1	0	0	CorrectCommission	2.608830	1.025932	0	0
158.964096	0.792264	city	6	1	0.908120	0.908120	0	1	0	0	CorrectCommission	1.338098	1.022771	0	0
159.756409	0.792350	city	8	1	0.747883	0.747883	0	1	0	0	CorrectCommission	0.182562	1.018593	0	0
160.548676	0.792181	city	6	1	0.696648	0.696648	0	1	0	0	CorrectCommission	0.668789	1.014863	0	0
161.340897	0.792266	mountain	5	0	0.000000	0.687367	1	0	0	0	CorrectOmission	0.756862	1.012685	0	0
162.133163	0.792264	city	2	1	0.695327	0.695327	0	1	0	0	CorrectCommission	0.681323	1.012639	0	0
162.925430	0.792263	city	5	1	0.695813	0.695813	0	1	0	0	CorrectCommission	0.676713	1.014678	0	0
163.717682	0.792262	city	2	1	0.645858	0.645858	0	1	0	0	CorrectCommission	1.150785	1.018159	0	0
164.509949	0.792267	city	6	1	0.613747	0.613747	0	1	0	0	CorrectCommission	1.455526	1.021950	0	0
165.302231	0.792296	city	10	1	0.645844	0.645844	0	1	0	0	CorrectCommission	1.150926	1.024610	0	0
166.094498	0.792236	city	9	1	0.646257	0.646257	0	1	0	0	CorrectCommission	1.147005	1.024602	0	0
166.886749	0.792260	city	10	1	0.645948	0.645948	0	1	0	0	CorrectCommission	1.149934	1.020494	0	0
167.679016	0.792269	city	3	1	0.646494	0.646494	0	1	0	0	CorrectCommission	1.144751	1.011096	0	0
168.471283	0.792260	city	4	1	0.596528	0.596528	0	1	0	0	CorrectCommission	1.618939	0.995566	0	0
169.263535	0.792270	city	3	1	0.696132	0.696132	0	1	0	0	CorrectCommission	0.673685	0.973420	0	0
170.055817	0.792284	city	2	1	0.745138	0.745138	0	1	0	0	CorrectCommission	0.208613	0.944599	0	0
170.848129	0.792349	city	8	1	0.646471	0.646471	0	1	0	0	CorrectCommission	1.144970	0.909455	0	0
171.640411	0.792211	city	3	1	0.646162	0.646162	0	1	0	0	CorrectCommission	1.147904	0.868757	0	0
172.432632	0.792209	city	6	1	0.596367	0.596367	0	1	0	0	CorrectCommission	1.620464	0.823725	0	0
173.224869	0.792267	city	3	1	0.646098	0.646098	0	1	0	0	CorrectCommission	1.148512	0.775983	0	0
174.017136	0.792267	mountain	5	1	0.794506	0.794506	0	0	1	0	CommissionError	0.259888	0.727514	1	0
174.809402	0.792264	city	4	1	0.710107	0.710107	0	1	0	0	CorrectCommission	0.541060	0.680573	1	0
175.601654	0.792264	city	1	1	0.747858	0.747858	0	1	0	0	CorrectCommission	0.182802	0.637420	1	0
176.393921	0.792263	city	3	1	0.695747	0.695747	0	1	0	0	CorrectCommission	0.677342	0.600183	1	0
177.186295	0.792480	city	10	1	0.695355	0.695355	0	1	0	0	CorrectCommission	0.681059	0.570609	1	0
177.978592	0.792099	city	1	1	0.744628	0.744628	0	1	0	0	CorrectCommission	0.213460	0.549822	1	0
178.770859	0.792431	city	8	1	0.794313	0.794313	0	1	0	0	CorrectCommission	0.258062	0.538171	1	0
179.563095	0.792060	city	1	1	0.748788	0.748788	0	1	0	0	CorrectCommission	0.173977	0.535124	1	0
180.355255	0.792255	mountain	3	0	0.000000	0.761968	1	0	0	0	CorrectOmission	0.048899	0.539346	1	0
181.147629	0.792480	city	3	1	0.794493	0.794493	0	1	0	0	CorrectCommission	0.259769	0.548821	1	0
181.939987	0.792265	mountain	4	0	0.000000	0.807004	1	0	0	0	CorrectOmission	0.378496	0.561131	1	0
182.732208	0.792155	city	7	1	0.843672	0.843672	0	1	0	0	CorrectCommission	0.726478	0.573815	1	0
183.524414	0.792266	city	4	1	0.948669	0.948669	0	1	0	0	CorrectCommission	1.722908	0.584694	1	0
184.316620	0.792155	city	7	1	0.893400	0.893400	0	1	0	0	CorrectCommission	1.198396	0.592161	1	0
185.108841	0.792268	city	4	1	0.843877	0.843877	0	1	0	0	CorrectCommission	0.728419	0.595390	1	0
185.901123	0.792312	city	2	1	0.710129	0.710129	0	1	0	0	CorrectCommission	0.540852	0.594314	1	0
186.693497	0.792431	city	9	1	0.794427	0.794427	0	1	0	0	CorrectCommission	0.259144	0.589506	1	1
187.485733	0.792047	city	8	1	0.695020	0.695020	0	1	0	0	CorrectCommission	0.684237	0.581951	1	1
188.277924	0.792323	mountain	9	0	0.000000	0.707139	1	0	0	0	CorrectOmission	0.569228	0.572703	1	1
189.070190	0.792205	city	7	1	0.762862	0.762862	0	1	0	0	CorrectCommission	0.040413	0.562651	1	1
189.862534	0.792484	mountain	5	0	0.000000	0.794267	1	0	0	0	CorrectOmission	0.257624	0.552338	1	1
190.654800	0.792046	city	3	1	0.803912	0.803912	0	1	0	0	CorrectCommission	0.349156	0.541883	1	1
191.446945	0.792265	city	1	1	0.794355	0.794355	0	1	0	0	CorrectCommission	0.258457	0.531100	1	1
192.239212	0.792266	city	9	1	0.893309	0.893309	0	1	0	0	CorrectCommission	1.197540	0.519644	1	1
193.031540	0.792373	mountain	6	0	0.000000	0.900516	1	0	0	0	CorrectOmission	1.265935	0.507228	1	1
193.823914	0.792373	mountain	3	1	0.843983	0.843983	0	0	1	0	CommissionError	0.729435	0.493843	1	1
194.616226	0.792266	mountain	6	0	0.000000	0.751718	1	0	0	0	CorrectOmission	0.146170	0.479865	1	1
195.408386	0.792047	city	2	1	0.695449	0.695449	0	1	0	0	CorrectCommission	0.680165	0.466062	1	1
196.200653	0.792483	city	4	1	0.746906	0.746906	0	1	0	0	CorrectCommission	0.191835	0.453460	1	1
196.992935	0.792083	city	5	1	0.759255	0.759255	0	1	0	0	CorrectCommission	0.074642	0.443198	1	1
197.785110	0.792275	city	6	1	0.810322	0.810322	0	1	0	0	CorrectCommission	0.409983	0.436275	1	1
198.577408	0.792328	city	5	1	0.794327	0.794327	0	1	0	0	CorrectCommission	0.258192	0.433361	1	1
199.369705	0.792263	city	4	1	0.794223	0.794223	0	1	0	0	CorrectCommission	0.257206	0.434663	1	1
200.161911	0.792157	city	2	1	0.745368	0.745368	0	1	0	0	CorrectCommission	0.206433	0.439899	1	1
200.954132	0.792263	mountain	9	0	0.000000	0.784140	1	0	0	0	CorrectOmission	0.161513	0.448352	1	1
201.746399	0.792264	city	4	1	0.794373	0.794373	0	1	0	0	CorrectCommission	0.258625	0.459029	1	1
202.538712	0.792375	city	10	1	0.659901	0.659901	0	1	0	0	CorrectCommission	1.017517	0.470863	1	1
203.331085	0.792374	city	2	1	0.647021	0.647021	0	1	0	0	CorrectCommission	1.139754	0.482875	1	1
204.123352	0.792156	city	4	1	0.696883	0.696883	0	1	0	0	CorrectCommission	0.666557	0.494342	1	1
204.915512	0.792157	city	9	1	0.700301	0.700301	0	1	0	0	CorrectCommission	0.634117	0.504848	1	1
205.707718	0.792265	city	4	1	0.744863	0.744863	0	1	0	0	CorrectCommission	0.211225	0.514235	1	1
206.499985	0.792262	city	2	1	0.794350	0.794350	0	1	0	0	CorrectCommission	0.258414	0.522536	1	1
207.292252	0.792267	city	10	1	0.747652	0.747652	0	1	0	0	CorrectCommission	0.184760	0.529819	1	1
208.084534	0.792299	city	8	1	0.794694	0.794694	0	1	0	0	CorrectCommission	0.261671	0.536137	1	1
208.876801	0.792232	city	4	1	0.843898	0.843898	0	1	0	0	CorrectCommission	0.728622	0.541475	1	1
209.669052	0.792287	mountain	9	0	0.000000	0.852329	1	0	0	0	CorrectOmission	0.808635	0.545827	1	1
210.461334	0.792279	city	7	1	0.844336	0.844336	0	1	0	0	CorrectCommission	0.732783	0.549304	1	1
211.253586	0.792228	city	10	1	0.844268	0.844268	0	1	0	0	CorrectCommission	0.732138	0.552282	1	1
212.045837	0.792264	city	4	1	0.843874	0.843874	0	1	0	0	CorrectCommission	0.728396	0.555516	1	1
212.838104	0.792262	city	3	1	0.801928	0.801928	0	1	0	0	CorrectCommission	0.330321	0.560156	1	1
213.630386	0.792305	city	9	1	0.860650	0.860650	0	1	0	0	CorrectCommission	0.887601	0.567743	1	1
214.422714	0.792363	city	4	1	0.752103	0.752103	0	1	0	0	CorrectCommission	0.142522	0.580013	1	1
215.215012	0.792236	city	9	1	0.695403	0.695403	0	1	0	0	CorrectCommission	0.680604	0.598709	1	1
216.007248	0.792233	city	2	1	0.695222	0.695222	0	1	0	0	CorrectCommission	0.682323	0.625219	1	1
216.799515	0.792298	city	5	1	0.745468	0.745468	0	1	0	0	CorrectCommission	0.205488	0.660304	1	1
217.591736	0.792154	city	3	1	0.745068	0.745068	0	1	0	0	CorrectCommission	0.209281	0.703831	1	1
218.384064	0.792483	mountain	1	0	0.000000	0.771719	1	0	0	0	CorrectOmission	0.043640	0.754593	1	1
219.176331	0.792049	city	10	1	0.762734	0.762734	0	1	0	0	CorrectCommission	0.041632	0.810336	0	1
219.968491	0.792266	city	9	1	0.655424	0.655424	0	1	0	0	CorrectCommission	1.060003	0.867900	0	1
220.760742	0.792261	city	5	1	0.596309	0.596309	0	1	0	0	CorrectCommission	1.621010	0.923487	0	1
221.553024	0.792290	city	6	1	0.553787	0.553787	0	1	0	0	CorrectCommission	2.024550	0.973143	0	1
222.345291	0.792241	city	7	1	0.646397	0.646397	0	1	0	0	CorrectCommission	1.145679	1.013195	0	1
223.137543	0.792263	city	3	1	0.606364	0.606364	0	1	0	0	CorrectCommission	1.525586	1.040691	0	1
223.929810	0.792268	city	9	1	0.796863	0.796863	0	1	0	0	CorrectCommission	0.282258	1.053731	0	1
224.722076	0.792261	city	1	1	0.596706	0.596706	0	1	0	0	CorrectCommission	1.617244	1.051722	0	1
225.514389	0.792375	city	4	1	0.596475	0.596475	0	1	0	0	CorrectCommission	1.619438	1.035411	0	1
226.306656	0.792156	city	5	1	0.596292	0.596292	0	1	0	0	CorrectCommission	1.621178	1.006913	0	1
227.098877	0.792303	city	10	1	0.596307	0.596307	0	1	0	0	CorrectCommission	1.621033	0.969476	0	1
227.891144	0.792226	city	7	1	0.700659	0.700659	0	1	0	0	CorrectCommission	0.630723	0.927159	0	1
228.683426	0.792327	city	1	1	0.695797	0.695797	0	1	0	0	CorrectCommission	0.676866	0.884439	0	1
229.475800	0.792420	city	6	1	0.745106	0.745106	0	1	0	0	CorrectCommission	0.208918	0.845684	0	1
230.268066	0.792114	city	10	1	0.695095	0.695095	0	1	0	0	CorrectCommission	0.683522	0.814719	0	1
231.060226	0.792201	city	4	1	0.745346	0.745346	0	1	0	0	CorrectCommission	0.206646	0.794393	0	1
231.852463	0.792264	city	5	1	0.806842	0.806842	0	1	0	0	CorrectCommission	0.376961	0.786366	0	1
232.644714	0.792261	city	10	1	0.794332	0.794332	0	1	0	0	CorrectCommission	0.258242	0.790930	0	1
233.436981	0.792265	city	3	1	0.794358	0.794358	0	1	0	0	CorrectCommission	0.258481	0.807099	0	1
234.229294	0.792374	city	8	1	0.893391	0.893391	0	1	0	0	CorrectCommission	1.198313	0.832780	0	1
235.021561	0.792154	city	9	1	0.942875	0.942875	0	1	0	0	CorrectCommission	1.667925	0.865076	0	1
235.813782	0.792286	city	8	0	0.000000	0.786188	0	0	0	1	OmissionError	0.180950	0.900663	0	1
236.606049	0.792247	city	9	1	0.695490	0.695490	0	1	0	0	CorrectCommission	0.679774	0.936208	0	1
237.398315	0.792288	city	8	1	0.942946	0.942946	0	1	0	0	CorrectCommission	1.668592	0.968597	0	1
238.190582	0.792243	city	3	1	0.894798	0.894798	0	1	0	0	CorrectCommission	1.211665	0.995234	0	1
238.982941	0.792480	city	7	1	0.992725	0.992725	0	1	0	0	CorrectCommission	2.140997	1.014238	0	1
239.775269	0.792154	city	10	1	0.843872	0.843872	0	1	0	0	CorrectCommission	0.728376	1.024470	0	1
240.567413	0.792159	city	2	1	0.794262	0.794262	0	1	0	0	CorrectCommission	0.257576	1.025557	0	1
241.359680	0.792370	city	3	1	0.900228	0.900228	0	1	0	0	CorrectCommission	1.263202	1.017792	0	1
242.151962	0.792185	city	2	1	0.893329	0.893329	0	1	0	0	CorrectCommission	1.197723	1.001941	0	1
242.944183	0.792242	city	7	1	0.899613	0.899613	0	1	0	0	CorrectCommission	1.257367	0.979206	0	1
243.736420	0.792258	city	1	1	0.942925	0.942925	0	1	0	0	CorrectCommission	1.668396	0.951058	0	1
244.528793	0.792480	city	4	1	0.893395	0.893395	0	1	0	0	CorrectCommission	1.198356	0.919039	0	1
245.321060	0.792051	city	2	1	0.794152	0.794152	0	1	0	0	CorrectCommission	0.256534	0.884725	0	1
246.113327	0.792479	city	10	1	0.794356	0.794356	0	1	0	0	CorrectCommission	0.258469	0.849605	0	0
246.905640	0.792156	city	3	1	0.843598	0.843598	0	1	0	0	CorrectCommission	0.725779	0.815018	0	0
247.697906	0.792374	city	2	1	0.844005	0.844005	0	1	0	0	CorrectCommission	0.729641	0.782148	0	0
248.490234	0.792264	city	1	1	0.893152	0.893152	0	1	0	0	CorrectCommission	1.196049	0.752082	1	0
249.282501	0.792264	city	5	1	0.796686	0.796686	0	1	0	0	CorrectCommission	0.280579	0.725843	1	0
250.074661	0.792072	city	8	1	0.854679	0.854679	0	1	0	0	CorrectCommission	0.830938	0.704476	1	0
250.866821	0.792241	city	7	1	0.843884	0.843884	0	1	0	0	CorrectCommission	0.728489	0.689023	1	0
251.659119	0.792372	city	3	1	0.893421	0.893421	0	1	0	0	CorrectCommission	1.198600	0.680477	1	0
252.451492	0.792373	city	1	1	0.844505	0.844505	0	1	0	0	CorrectCommission	0.734388	0.679627	1	0
253.243713	0.792049	city	2	1	0.759262	0.759262	0	1	0	0	CorrectCommission	0.074574	0.686910	1	0
254.035980	0.792480	city	7	1	0.745328	0.745328	0	1	0	0	CorrectCommission	0.206810	0.702164	1	0
254.828339	0.792266	mountain	8	0	0.000000	0.759152	1	0	0	0	CorrectOmission	0.075620	0.724459	1	0
255.620605	0.792264	mountain	10	1	0.794124	0.794124	0	0	1	0	CommissionError	0.256269	0.752086	1	0
256.412781	0.792056	city	8	1	0.843635	0.843635	0	1	0	0	CorrectCommission	0.726131	0.782626	0	0
257.204926	0.792255	city	2	1	0.744856	0.744856	0	1	0	0	CorrectCommission	0.211295	0.813271	0	0
257.997192	0.792269	mountain	8	0	0.000000	0.941082	1	0	0	0	CorrectOmission	1.650906	0.841160	0	0
258.789459	0.792272	city	9	1	1.091470	1.091470	0	1	0	0	CorrectCommission	3.078098	0.863798	0	0
259.581818	0.792472	city	7	1	0.855175	0.855175	0	1	0	0	CorrectCommission	0.835643	0.879489	0	0
260.374115	0.792103	mountain	3	0	0.000000	0.816463	1	0	0	0	CorrectOmission	0.468267	0.887660	0	0
261.166321	0.792319	city	7	1	0.853457	0.853457	0	1	0	0	CorrectCommission	0.819338	0.888892	0	0
261.958679	0.792372	city	1	1	0.844277	0.844277	0	1	0	0	CorrectCommission	0.732225	0.884865	0	0
262.750885	0.792076	city	4	1	0.908278	0.908278	0	1	0	0	CorrectCommission	1.339596	0.878138	0	0
263.543121	0.792344	city	10	1	0.852144	0.852144	0	1	0	0	CorrectCommission	0.806874	0.871740	0	0
264.335358	0.792159	city	1	1	0.847485	0.847485	0	1	0	0	CorrectCommission	0.762665	0.868773	0	0
265.127686	0.792481	city	2	1	0.799415	0.799415	0	1	0	0	CorrectCommission	0.306480	0.871950	0	0
265.919952	0.792045	city	5	1	0.851011	0.851011	0	1	0	0	CorrectCommission	0.796124	0.883201	0	0
266.712097	0.792269	city	4	1	0.695372	0.695372	0	1	0	0	CorrectCommission	0.680898	0.903378	0	0
267.504364	0.792261	city	8	1	0.843984	0.843984	0	1	0	0	CorrectCommission	0.729442	0.932106	0	0
268.296722	0.792484	city	5	1	0.744847	0.744847	0	1	0	0	CorrectCommission	0.211379	0.967786	0	0
269.089050	0.792153	city	9	1	0.744630	0.744630	0	1	0	0	CorrectCommission	0.213438	1.007823	0	0
269.881226	0.792157	city	3	1	0.646254	0.646254	0	1	0	0	CorrectCommission	1.147035	1.048930	0	0
270.673431	0.792270	city	2	1	0.596524	0.596524	0	1	0	0	CorrectCommission	1.618977	1.087596	0	0
271.465790	0.792476	city	3	1	0.547160	0.547160	0	1	0	0	CorrectCommission	2.087439	1.120554	0	0
272.258057	0.792049	mountain	7	1	0.447860	0.447860	0	0	1	0	CommissionError	3.029801	1.145175	0	0
273.050232	0.792262	city	10	1	0.794499	0.794499	0	1	0	0	CorrectCommission	0.259824	1.159719	0	0
273.842468	0.792267	city	1	1	0.646152	0.646152	0	1	0	0	CorrectCommission	1.148000	1.163486	0	0
274.634735	0.792268	city	6	1	0.608166	0.608166	0	1	0	0	CorrectCommission	1.508491	1.156632	0	0
275.427002	0.792261	city	4	1	0.712885	0.712885	0	1	0	0	CorrectCommission	0.514696	1.140017	0	0
276.219269	0.792266	city	3	1	0.645884	0.645884	0	1	0	0	CorrectCommission	1.150546	1.114921	0	0
277.011566	0.792331	city	4	1	0.597150	0.597150	0	1	0	0	CorrectCommission	1.613027	1.082801	0	0
277.803833	0.792199	city	2	1	0.647558	0.647558	0	1	0	0	CorrectCommission	1.134659	1.045071	0	0
278.596130	0.792371	city	5	1	0.695330	0.695330	0	1	0	0	CorrectCommission	0.681296	1.002984	0	0
279.388397	0.792155	city	4	1	0.698998	0.698998	0	1	0	0	CorrectCommission	0.646483	0.957615	0	0
280.180664	0.792373	city	7	1	0.648702	0.648702	0	1	0	0	CorrectCommission	1.123804	0.909908	0	0
280.972931	0.792159	city	9	1	0.645987	0.645987	0	1	0	0	CorrectCommission	1.149560	0.860774	0	0
281.765137	0.792263	city	10	1	0.657712	0.657712	0	1	0	0	CorrectCommission	1.038293	0.811212	0	0
282.557434	0.792373	city	5	1	0.651613	0.651613	0	1	0	0	CorrectCommission	1.096170	0.762404	0	0
283.349701	0.792154	city	1	1	0.745156	0.745156	0	1	0	0	CorrectCommission	0.208445	0.715715	1	0
284.141937	0.792270	city	3	1	0.657991	0.657991	0	1	0	0	CorrectCommission	1.035648	0.672687	1	0
284.934204	0.792312	city	10	1	0.745524	0.745524	0	1	0	0	CorrectCommission	0.204950	0.634880	1	0
285.726471	0.792215	city	2	1	0.745104	0.745104	0	1	0	0	CorrectCommission	0.208934	0.603786	1	0
286.518707	0.792262	mountain	9	0	0.000000	0.728336	1	0	0	0	CorrectOmission	0.368070	0.580605	1	0
287.311035	0.792375	city	10	1	0.744818	0.744818	0	1	0	0	CorrectCommission	0.211656	0.566100	1	0
288.103363	0.792264	city	5	1	0.844150	0.844150	0	1	0	0	CorrectCommission	0.731014	0.560492	1	0
288.895569	0.792187	city	4	1	0.744797	0.744797	0	1	0	0	CorrectCommission	0.211855	0.563383	1	0
289.687836	0.792342	city	6	1	0.695307	0.695307	0	1	0	0	CorrectCommission	0.681519	0.573798	1	0
290.480194	0.792374	city	4	1	0.843920	0.843920	0	1	0	0	CorrectCommission	0.728833	0.590267	1	0
291.272400	0.792047	city	8	1	0.759201	0.759201	0	1	0	0	CorrectCommission	0.075155	0.610909	1	0
292.064575	0.792265	city	2	1	0.843948	0.843948	0	1	0	0	CorrectCommission	0.729099	0.633611	1	0
292.856842	0.792265	city	6	1	0.843819	0.843819	0	1	0	0	CorrectCommission	0.727877	0.656224	1	0
293.649109	0.792284	city	5	1	0.798112	0.798112	0	1	0	0	CorrectCommission	0.294108	0.676798	1	0
294.441467	0.792463	city	9	1	0.843921	0.843921	0	1	0	0	CorrectCommission	0.728843	0.693773	1	0
295.233856	0.792265	city	7	1	0.942805	0.942805	0	1	0	0	CorrectCommission	1.667261	0.706163	1	0
296.026123	0.792263	city	8	1	0.910114	0.910114	0	1	0	0	CorrectCommission	1.357019	0.713664	1	0
296.818390	0.792267	city	2	1	0.860426	0.860426	0	1	0	0	CorrectCommission	0.885472	0.716711	1	0
297.610535	0.792078	city	8	1	0.844306	0.844306	0	1	0	0	CorrectCommission	0.732496	0.716354	1	0
298.402771	0.792341	city	4	1	0.794443	0.794443	0	1	0	0	CorrectCommission	0.259293	0.714105	1	0
299.195038	0.792248	city	3	1	0.745168	0.745168	0	1	0	0	CorrectCommission	0.208332	0.711767	1	0
299.987305	0.792283	mountain	1	0	0.000000	0.711765	1	0	0	0	CorrectOmission	0.525326	0.711182	1	0
300.779541	0.792157	city	6	1	0.697883	0.697883	0	1	0	0	CorrectCommission	0.657066	0.714114	1	0
301.571747	0.792261	city	8	1	0.707170	0.707170	0	1	0	0	CorrectCommission	0.568932	0.722123	1	0
302.364014	0.792300	city	7	1	0.893421	0.893421	0	1	0	0	CorrectCommission	1.198597	0.736534	1	0
303.156311	0.792241	city	1	1	0.843944	0.843944	0	1	0	0	CorrectCommission	0.729058	0.758402	1	0
303.948547	0.792259	city	2	1	0.754407	0.754407	0	1	0	0	CorrectCommission	0.120652	0.788555	0	0
304.740814	0.792260	city	8	1	0.850877	0.850877	0	1	0	0	CorrectCommission	0.794850	0.827590	0	0
305.533112	0.792375	city	9	1	0.896533	0.896533	0	1	0	0	CorrectCommission	1.228133	0.875770	0	1
306.325409	0.792193	mountain	7	0	0.000000	0.872779	1	0	0	0	CorrectOmission	1.002706	0.932997	0	1
307.117737	0.792444	city	4	1	0.801537	0.801537	0	1	0	0	CorrectCommission	0.326611	0.998718	0	1
307.909973	0.792060	city	2	1	0.704728	0.704728	0	1	0	0	CorrectCommission	0.592112	1.071824	0	1
308.702240	0.792469	city	7	1	0.646233	0.646233	0	1	0	0	CorrectCommission	1.147232	1.150628	0	1
309.494507	0.792058	city	5	1	0.695281	0.695281	0	1	0	0	CorrectCommission	0.681764	1.232883	0	1
310.286652	0.792254	city	7	1	0.645813	0.645813	0	1	0	0	CorrectCommission	1.151220	1.315952	0	1
311.078918	0.792269	city	3	1	0.596414	0.596414	0	1	0	0	CorrectCommission	1.620013	1.396999	0	1
311.871246	0.792369	city	9	1	0.497401	0.497401	0	1	0	0	CorrectCommission	2.559652	1.473239	0	1
312.663574	0.792266	city	7	1	0.551603	0.551603	0	1	0	0	CorrectCommission	2.045277	1.542162	0	1
313.455872	0.792373	city	3	1	0.596341	0.596341	0	1	0	0	CorrectCommission	1.620713	1.601762	0	1
314.248077	0.792049	city	10	1	0.548079	0.548079	0	1	0	0	CorrectCommission	2.078720	1.650601	0	1
315.040253	0.792262	city	1	1	0.645825	0.645825	0	1	0	0	CorrectCommission	1.151099	1.687766	0	1
315.832520	0.792266	city	5	1	0.596919	0.596919	0	1	0	0	CorrectCommission	1.615221	1.712812	0	1
316.624786	0.792268	city	2	1	0.502211	0.502211	0	1	0	0	CorrectCommission	2.514010	1.725648	0	1
317.417084	0.792371	city	1	1	0.546832	0.546832	0	1	0	0	CorrectCommission	2.090550	1.726350	0	1
318.209473	0.792375	city	3	1	0.602624	0.602624	0	1	0	0	CorrectCommission	1.561080	1.715155	0	1
319.001801	0.792265	mountain	8	1	0.646023	0.646023	0	0	1	0	CommissionError	1.149226	1.692503	0	1
319.793945	0.792068	city	6	1	0.994255	0.994255	0	1	0	0	CorrectCommission	2.155519	1.659064	0	1
320.586121	0.792283	city	8	1	0.944795	0.944795	0	1	0	0	CorrectCommission	1.686140	1.615920	0	1
321.378448	0.792332	city	5	1	0.944753	0.944753	0	1	0	0	CorrectCommission	1.685741	1.564798	0	1
322.170746	0.792264	city	1	1	0.992318	0.992318	0	1	0	0	CorrectCommission	2.137140	1.508147	0	1
322.962952	0.792162	city	5	1	0.943478	0.943478	0	1	0	0	CorrectCommission	1.673641	1.449116	0	1
323.755157	0.792260	city	10	1	0.993036	0.993036	0	1	0	0	CorrectCommission	2.143949	1.391458	0	1
324.547546	0.792484	city	9	1	0.907580	0.907580	0	1	0	0	CorrectCommission	1.332973	1.339130	0	1
325.339783	0.792049	city	5	1	0.844047	0.844047	0	1	0	0	CorrectCommission	0.730035	1.295821	0	1
326.131958	0.792266	city	3	1	0.804366	0.804366	0	1	0	0	CorrectCommission	0.353460	1.264367	0	1
326.924225	0.792261	city	9	1	0.794394	0.794394	0	1	0	0	CorrectCommission	0.258824	1.246189	0	1
327.716492	0.792265	city	7	1	0.794386	0.794386	0	1	0	0	CorrectCommission	0.258751	1.240986	0	1
328.508759	0.792265	mountain	4	0	0.000000	0.842126	1	0	0	0	CorrectOmission	0.711810	1.246606	0	1
329.301025	0.792265	mountain	9	0	0.000000	0.894854	1	0	0	0	CorrectOmission	1.212195	1.259263	0	1
330.093323	0.792372	city	1	1	0.909806	0.909806	0	1	0	0	CorrectCommission	1.354099	1.274162	0	1
330.885590	0.792157	city	9	1	0.844224	0.844224	0	1	0	0	CorrectCommission	0.731713	1.286281	0	1
331.677795	0.792274	city	7	1	1.190497	1.190497	0	1	0	0	CorrectCommission	4.017873	1.291189	0	1
332.470062	0.792255	city	2	0	0.000000	1.001435	0	0	0	1	OmissionError	2.223662	1.285772	0	1
333.262329	0.792263	city	3	1	0.647044	0.647044	0	1	0	0	CorrectCommission	1.139538	1.268916	0	1
334.054657	0.792374	mountain	9	1	0.497329	0.497329	0	0	1	0	CommissionError	2.560342	1.241564	0	1
334.846924	0.792160	city	9	1	0.847621	0.847621	0	1	0	0	CorrectCommission	0.763951	1.206498	0	1
335.639130	0.792287	city	6	1	0.808833	0.808833	0	1	0	0	CorrectCommission	0.395852	1.167922	0	1
336.431427	0.792293	city	5	1	0.696093	0.696093	0	1	0	0	CorrectCommission	0.674058	1.130617	0	1
337.223694	0.792215	city	1	1	0.645731	0.645731	0	1	0	0	CorrectCommission	1.151995	1.099086	0	1
338.015930	0.792259	city	8	1	0.751621	0.751621	0	1	0	0	CorrectCommission	0.147094	1.076792	0	1
338.808197	0.792268	city	10	1	0.702410	0.702410	0	1	0	0	CorrectCommission	0.614105	1.065624	0	1
339.600464	0.792267	city	6	1	0.695346	0.695346	0	1	0	0	CorrectCommission	0.681148	1.065519	0	1
340.392761	0.792334	mountain	9	1	0.747723	0.747723	0	0	1	0	CommissionError	0.184082	1.074552	0	1
341.185028	0.792194	city	6	1	0.943121	0.943121	0	1	0	0	CorrectCommission	1.670260	1.089250	0	1
341.977234	0.792261	mountain	4	1	0.794328	0.794328	0	0	1	0	CommissionError	0.258198	1.105125	0	1
342.769531	0.792305	city	5	1	1.044202	1.044202	0	1	0	0	CorrectCommission	2.629520	1.117502	0	1
343.561859	0.792333	city	6	1	1.005136	1.005136	0	1	0	0	CorrectCommission	2.258781	1.122089	0	1
344.354095	0.792186	city	8	0	0.000000	0.810077	0	0	0	1	OmissionError	0.407661	1.115730	0	1
345.146332	0.792247	city	6	1	0.596244	0.596244	0	1	0	0	CorrectCommission	1.621634	1.096830	0	1
345.938568	0.792253	city	2	1	0.500853	0.500853	0	1	0	0	CorrectCommission	2.526900	1.065435	0	1
346.730835	0.792266	city	7	1	0.645868	0.645868	0	1	0	0	CorrectCommission	1.150695	1.023208	0	1
347.523102	0.792264	city	4	1	0.700396	0.700396	0	1	0	0	CorrectCommission	0.633217	0.973128	0	1
348.315369	0.792269	city	3	1	0.695870	0.695870	0	1	0	0	CorrectCommission	0.676172	0.918963	0	1
349.107666	0.792323	city	1	1	0.707277	0.707277	0	1	0	0	CorrectCommission	0.567915	0.864628	0	1
349.899933	0.792204	mountain	3	0	0.000000	0.745972	1	0	0	0	CorrectOmission	0.200700	0.813733	0	1
350.692230	0.792377	city	9	1	0.794620	0.794620	0	1	0	0	CorrectCommission	0.260975	0.769151	0	1
351.484467	0.792154	mountain	3	0	0.000000	0.835888	1	0	0	0	CorrectOmission	0.652612	0.732728	1	1
352.276794	0.792479	city	3	1	0.844242	0.844242	0	1	0	0	CorrectCommission	0.731887	0.705272	1	1
353.069122	0.792155	city	1	1	0.794146	0.794146	0	1	0	0	CorrectCommission	0.256473	0.686680	1	1
353.861389	0.792374	city	3	1	0.843743	0.843743	0	1	0	0	CorrectCommission	0.727150	0.676187	1	1
354.653595	0.792066	city	9	1	0.859439	0.859439	0	1	0	0	CorrectCommission	0.876107	0.672642	1	1
355.445770	0.792299	city	4	1	0.851723	0.851723	0	1	0	0	CorrectCommission	0.802881	0.674899	1	1
356.238098	0.792322	city	7	1	0.845455	0.845455	0	1	0	0	CorrectCommission	0.743399	0.681959	1	1
357.030334	0.792157	city	3	1	0.808506	0.808506	0	1	0	0	CorrectCommission	0.392749	0.693127	1	1
357.822540	0.792265	city	9	1	0.906467	0.906467	0	1	0	0	CorrectCommission	1.322409	0.708012	1	1
358.614807	0.792265	mountain	5	0	0.000000	0.871909	1	0	0	0	CorrectOmission	0.994449	0.726349	1	1
359.407166	0.792479	city	1	1	0.794378	0.794378	0	1	0	0	CorrectCommission	0.258673	0.747895	1	1
360.199463	0.792065	mountain	2	0	0.000000	0.763420	1	0	0	0	CorrectOmission	0.035120	0.772132	0	1
360.991730	0.792464	city	2	1	0.745534	0.745534	0	1	0	0	CorrectCommission	0.204853	0.798168	0	1
361.784088	0.792267	city	8	0	0.000000	0.707221	0	0	0	1	OmissionError	0.568451	0.824704	0	1
362.576263	0.792103	city	9	1	0.655343	0.655343	0	1	0	0	CorrectCommission	1.060775	0.850084	0	1
363.368408	0.792209	city	4	1	0.596765	0.596765	0	1	0	0	CorrectCommission	1.616686	0.872482	0	1
364.160706	0.792371	city	1	1	0.599314	0.599314	0	1	0	0	CorrectCommission	1.592495	0.890180	0	1
364.953003	0.792220	city	2	1	0.645859	0.645859	0	1	0	0	CorrectCommission	1.150779	0.901807	0	0
365.745209	0.792201	city	4	1	0.843830	0.843830	0	1	0	0	CorrectCommission	0.727983	0.906515	0	0
366.537567	0.792482	city	7	1	0.893715	0.893715	0	1	0	0	CorrectCommission	1.201393	0.904038	0	0
367.329834	0.792048	city	8	1	0.861460	0.861460	0	1	0	0	CorrectCommission	0.895291	0.894656	0	0
368.122101	0.792480	mountain	2	0	0.000000	0.858653	1	0	0	0	CorrectOmission	0.868648	0.879088	0	0
368.914368	0.792047	city	8	1	0.848535	0.848535	0	1	0	0	CorrectCommission	0.772631	0.858282	0	0
369.706512	0.792266	mountain	1	1	0.794350	0.794350	0	0	1	0	CommissionError	0.258406	0.833232	0	0
370.498840	0.792373	city	9	1	0.992422	0.992422	0	1	0	0	CorrectCommission	2.138124	0.804839	0	0
371.291107	0.792179	city	5	1	0.758000	0.758000	0	1	0	0	CorrectCommission	0.086550	0.773749	0	0
372.083313	0.792246	city	10	1	0.744824	0.744824	0	1	0	0	CorrectCommission	0.211597	0.740497	1	0
372.875610	0.792368	city	1	1	0.746050	0.746050	0	1	0	0	CorrectCommission	0.199962	0.705452	1	0
373.667938	0.792267	city	10	1	0.942814	0.942814	0	1	0	0	CorrectCommission	1.667346	0.669000	1	0
374.460266	0.792373	city	9	1	0.908036	0.908036	0	1	0	0	CorrectCommission	1.337299	0.631678	1	0
375.252472	0.792047	city	2	1	0.745142	0.745142	0	1	0	0	CorrectCommission	0.208577	0.594313	1	0
376.044617	0.792267	city	3	1	0.844580	0.844580	0	1	0	0	CorrectCommission	0.735092	0.558107	1	0
376.836884	0.792262	city	1	1	0.806034	0.806034	0	1	0	0	CorrectCommission	0.369287	0.524544	1	0
377.629150	0.792266	city	7	1	0.794791	0.794791	0	1	0	0	CorrectCommission	0.262593	0.495305	1	0
378.421539	0.792481	city	5	1	0.813578	0.813578	0	1	0	0	CorrectCommission	0.440887	0.472064	1	0
379.213806	0.792062	mountain	6	0	0.000000	0.790350	1	0	0	0	CorrectOmission	0.220450	0.456247	1	0
380.006012	0.792359	city	3	1	0.756933	0.756933	0	1	0	0	CorrectCommission	0.096678	0.448803	1	0
380.798279	0.792155	city	8	1	0.745155	0.745155	0	1	0	0	CorrectCommission	0.208457	0.450050	1	0
381.590546	0.792373	city	5	1	0.764637	0.764637	0	1	0	0	CorrectCommission	0.023572	0.459599	1	0
382.382843	0.792265	city	8	1	0.794274	0.794274	0	1	0	0	CorrectCommission	0.257690	0.476411	1	0
383.175110	0.792266	city	9	1	0.808706	0.808706	0	1	0	0	CorrectCommission	0.394647	0.498924	1	0
383.967316	0.792155	city	6	1	0.843736	0.843736	0	1	0	0	CorrectCommission	0.727087	0.525277	1	0
384.759552	0.792266	city	9	1	0.664384	0.664384	0	1	0	0	CorrectCommission	0.974980	0.553558	1	0
385.551819	0.792310	mountain	9	0	0.000000	0.685008	1	0	0	0	CorrectOmission	0.779250	0.582053	1	0
386.344086	0.792219	city	9	1	0.797438	0.797438	0	1	0	0	CorrectCommission	0.287710	0.609461	1	0
387.136322	0.792263	city	10	1	0.893498	0.893498	0	1	0	0	CorrectCommission	1.199334	0.635006	1	0
387.928589	0.792265	city	2	1	0.844378	0.844378	0	1	0	0	CorrectCommission	0.733176	0.658367	1	0
388.720856	0.792270	city	9	1	0.843890	0.843890	0	1	0	0	CorrectCommission	0.728550	0.679724	1	0
389.513123	0.792260	city	8	1	0.850882	0.850882	0	1	0	0	CorrectCommission	0.794903	0.699511	1	0
390.305389	0.792265	city	2	1	0.761620	0.761620	0	1	0	0	CorrectCommission	0.052201	0.718284	1	0
391.097656	0.792268	city	7	1	0.696016	0.696016	0	1	0	0	CorrectCommission	0.674790	0.736550	1	0
391.890045	0.792478	city	10	1	0.849097	0.849097	0	1	0	0	CorrectCommission	0.777962	0.754648	1	0
392.682312	0.792074	city	3	1	0.797883	0.797883	0	1	0	0	CorrectCommission	0.291940	0.772793	0	0
393.474579	0.792456	city	8	1	0.893665	0.893665	0	1	0	0	CorrectCommission	1.200917	0.791073	0	0
394.266815	0.792050	city	2	1	0.943026	0.943026	0	1	0	0	CorrectCommission	1.669358	0.809479	0	0
395.059052	0.792369	mountain	9	0	0.000000	0.827037	1	0	0	0	CorrectOmission	0.568610	0.828033	0	0
395.851288	0.792160	city	2	1	0.695710	0.695710	0	1	0	0	CorrectCommission	0.677689	0.846835	0	0
396.643524	0.792260	city	4	1	0.699060	0.699060	0	1	0	0	CorrectCommission	0.645900	0.866034	0	0
397.435822	0.792374	mountain	3	0	0.000000	0.687652	1	0	0	0	CorrectOmission	0.754162	0.885793	0	0
398.228088	0.792160	city	5	1	0.655644	0.655644	0	1	0	0	CorrectCommission	1.057917	0.906198	0	0
399.020355	0.792371	city	2	1	0.597195	0.597195	0	1	0	0	CorrectCommission	1.612607	0.927163	0	0
399.812622	0.792158	city	8	1	0.695221	0.695221	0	1	0	0	CorrectCommission	0.682333	0.948337	0	0
400.604858	0.792283	city	3	1	0.750118	0.750118	0	1	0	0	CorrectCommission	0.161358	0.969087	0	0
401.397125	0.792247	city	5	1	0.695300	0.695300	0	1	0	0	CorrectCommission	0.681577	0.988493	0	0
402.189392	0.792324	city	9	1	0.844493	0.844493	0	1	0	0	CorrectCommission	0.734272	1.005423	0	0
402.981659	0.792201	city	5	1	0.893323	0.893323	0	1	0	0	CorrectCommission	1.197672	1.018724	0	0
403.773987	0.792482	city	7	1	0.997979	0.997979	0	1	0	0	CorrectCommission	2.190858	1.027392	0	0
404.566315	0.792156	city	3	1	0.945580	0.945580	0	1	0	0	CorrectCommission	1.693589	1.030680	0	0
405.358582	0.792372	city	6	1	0.943436	0.943436	0	1	0	0	CorrectCommission	1.673241	1.028253	0	0
406.150787	0.792051	city	9	1	0.846665	0.846665	0	1	0	0	CorrectCommission	0.754879	1.020135	0	0
406.942993	0.792316	mountain	7	0	0.000000	0.763222	1	0	0	0	CorrectOmission	0.036995	1.006647	0	0
407.735291	0.792317	city	10	1	0.695453	0.695453	0	1	0	0	CorrectCommission	0.680133	0.988295	0	0
408.527588	0.792266	city	4	1	0.645700	0.645700	0	1	0	0	CorrectCommission	1.152287	0.965610	0	0
409.319794	0.792157	city	8	1	0.695198	0.695198	0	1	0	0	CorrectCommission	0.682553	0.939152	0	0
410.112061	0.792373	city	1	1	0.645821	0.645821	0	1	0	0	CorrectCommission	1.151137	0.909543	0	0
410.904358	0.792198	city	5	1	0.645750	0.645750	0	1	0	0	CorrectCommission	1.151814	0.877516	0	0
411.696564	0.792232	city	2	1	0.596420	0.596420	0	1	0	0	CorrectCommission	1.619963	0.844074	0	0
412.488800	0.792256	city	10	1	0.662818	0.662818	0	1	0	0	CorrectCommission	0.989841	0.810572	0	0
413.281067	0.792263	city	6	1	0.709550	0.709550	0	1	0	0	CorrectCommission	0.546348	0.778751	0	0
414.073334	0.792270	city	7	1	0.709550	0.709550	0	1	0	0	CorrectCommission	0.546352	0.750602	1	0
414.865723	0.792479	city	5	1	0.702034	0.702034	0	1	0	0	CorrectCommission	0.617680	0.728179	1	0
415.658081	0.792264	city	4	1	0.746288	0.746288	0	1	0	0	CorrectCommission	0.197701	0.713332	1	0
416.450287	0.792155	city	7	1	0.709673	0.709673	0	1	0	0	CorrectCommission	0.545180	0.707413	1	0
417.242462	0.792161	city	8	1	0.744718	0.744718	0	1	0	0	CorrectCommission	0.212604	0.711015	1	0
418.034668	0.792261	city	7	1	0.797350	0.797350	0	1	0	0	CorrectCommission	0.286881	0.723842	1	0
418.826935	0.792264	city	6	1	0.856714	0.856714	0	1	0	0	CorrectCommission	0.850246	0.744641	1	0
419.619171	0.792264	city	10	1	0.843947	0.843947	0	1	0	0	CorrectCommission	0.729088	0.771295	0	0
420.411438	0.792266	city	4	1	0.855467	0.855467	0	1	0	0	CorrectCommission	0.838415	0.801077	0	0
421.203705	0.792267	city	9	1	0.844405	0.844405	0	1	0	0	CorrectCommission	0.733432	0.830955	0	0
421.996033	0.792371	city	10	1	0.844233	0.844233	0	1	0	0	CorrectCommission	0.731799	0.858011	0	0
422.788300	0.792154	city	1	1	0.893431	0.893431	0	1	0	0	CorrectCommission	1.198693	0.879818	0	0
423.580536	0.792341	city	10	1	0.896168	0.896168	0	1	0	0	CorrectCommission	1.224670	0.894749	0	0
424.372833	0.792246	city	5	1	0.992377	0.992377	0	1	0	0	CorrectCommission	2.137699	0.902218	0	1
425.165192	0.792426	city	7	1	0.893319	0.893319	0	1	0	0	CorrectCommission	1.197633	0.902685	0	1
425.957520	0.792265	city	8	1	0.851471	0.851471	0	1	0	0	CorrectCommission	0.800491	0.897563	0	1
426.749664	0.792049	city	6	1	0.859234	0.859234	0	1	0	0	CorrectCommission	0.874160	0.888901	0	1
427.541840	0.792286	city	10	1	0.794457	0.794457	0	1	0	0	CorrectCommission	0.259421	0.879004	0	1
428.334137	0.792302	city	6	1	0.843823	0.843823	0	1	0	0	CorrectCommission	0.727912	0.870053	0	1
429.126404	0.792232	city	3	1	0.757403	0.757403	0	1	0	0	CorrectCommission	0.092224	0.863701	0	1
429.918640	0.792236	city	9	1	0.695377	0.695377	0	1	0	0	CorrectCommission	0.680855	0.860889	0	1
430.710907	0.792266	mountain	5	0	0.000000	0.658465	1	0	0	0	CorrectOmission	1.031146	0.861731	0	1
431.503265	0.792483	city	3	1	0.655461	0.655461	0	1	0	0	CorrectCommission	1.059659	0.865610	0	1
432.295532	0.792048	city	5	1	0.695155	0.695155	0	1	0	0	CorrectCommission	0.682955	0.871360	0	1
433.087738	0.792371	city	2	1	0.843875	0.843875	0	1	0	0	CorrectCommission	0.728406	0.877571	0	1
433.880066	0.792267	city	3	1	0.943740	0.943740	0	1	0	0	CorrectCommission	1.676129	0.882857	0	1
434.672272	0.792158	city	1	1	0.903044	0.903044	0	1	0	0	CorrectCommission	1.289924	0.886121	0	1
435.464478	0.792282	city	4	1	0.843850	0.843850	0	1	0	0	CorrectCommission	0.728172	0.886760	0	1
436.256744	0.792243	city	3	1	0.846618	0.846618	0	1	0	0	CorrectCommission	0.754433	0.884703	0	1
437.049011	0.792269	city	8	1	0.843915	0.843915	0	1	0	0	CorrectCommission	0.728781	0.880386	0	1
437.841339	0.792369	city	1	1	0.893398	0.893398	0	1	0	0	CorrectCommission	1.198381	0.874652	0	1
438.633636	0.792265	city	10	1	0.794255	0.794255	0	1	0	0	CorrectCommission	0.257503	0.868601	0	1
439.425873	0.792158	mountain	6	0	0.000000	0.676724	1	0	0	0	CorrectOmission	0.857873	0.863447	0	1
440.218079	0.792262	city	2	1	0.605777	0.605777	0	1	0	0	CorrectCommission	1.531165	0.860280	0	1
441.010437	0.792485	city	7	1	0.646385	0.646385	0	1	0	0	CorrectCommission	1.145791	0.859930	0	1
441.802826	0.792263	mountain	4	0	0.000000	0.750416	1	0	0	0	CorrectOmission	0.158526	0.862841	0	1
442.594971	0.792049	city	3	1	0.804564	0.804564	0	1	0	0	CorrectCommission	0.355339	0.868993	0	1
443.387115	0.792266	city	9	1	0.695521	0.695521	0	1	0	0	CorrectCommission	0.679483	0.877821	0	1
444.179443	0.792371	city	3	1	0.695285	0.695285	0	1	0	0	CorrectCommission	0.681727	0.888261	0	1
444.971710	0.792156	city	9	1	0.695217	0.695217	0	1	0	0	CorrectCommission	0.682373	0.898906	0	1
445.763916	0.792264	mountain	6	0	0.000000	0.600475	1	0	0	0	CorrectOmission	1.581480	0.908117	0	1
446.556183	0.792267	city	10	1	0.546800	0.546800	0	1	0	0	CorrectCommission	2.090857	0.914256	0	1
447.348450	0.792262	mountain	2	0	0.000000	0.669933	1	0	0	0	CorrectOmission	0.922313	0.915843	0	1
448.140839	0.792484	city	9	1	0.794405	0.794405	0	1	0	0	CorrectCommission	0.258931	0.911779	0	1
448.933105	0.792050	city	6	1	0.744745	0.744745	0	1	0	0	CorrectCommission	0.212346	0.901431	0	1
449.725250	0.792265	city	8	1	0.650872	0.650872	0	1	0	0	CorrectCommission	1.103208	0.884703	0	1
450.517517	0.792261	mountain	9	0	0.000000	0.601444	1	0	0	0	CorrectOmission	1.572282	0.862069	0	1
451.309784	0.792263	mountain	2	1	0.598608	0.598608	0	0	1	0	CommissionError	1.599194	0.834529	0	1
452.102081	0.792376	mountain	9	0	0.000000	0.644511	1	0	0	0	CorrectOmission	1.163569	0.803546	0	1
452.894348	0.792157	city	4	1	0.704746	0.704746	0	1	0	0	CorrectCommission	0.591936	0.770901	0	1
453.686584	0.792266	city	6	1	0.744906	0.744906	0	1	0	0	CorrectCommission	0.210821	0.738461	1	1
454.478851	0.792294	city	10	1	0.794409	0.794409	0	1	0	0	CorrectCommission	0.258973	0.707984	1	1
455.271118	0.792245	city	3	1	0.808994	0.808994	0	1	0	0	CorrectCommission	0.397382	0.680918	1	1
456.063385	0.792255	mountain	8	0	0.000000	0.754458	1	0	0	0	CorrectOmission	0.120166	0.658333	1	1
456.855743	0.792477	mountain	9	0	0.000000	0.682730	1	0	0	0	CorrectOmission	0.800872	0.640873	1	1
457.648010	0.792048	city	3	1	0.645737	0.645737	0	1	0	0	CorrectCommission	1.151936	0.628790	1	1
458.440155	0.792264	city	5	1	0.695408	0.695408	0	1	0	0	CorrectCommission	0.680559	0.622091	1	1
459.232422	0.792288	city	3	1	0.745363	0.745363	0	1	0	0	CorrectCommission	0.206480	0.620704	1	1
460.024689	0.792246	city	6	1	0.858432	0.858432	0	1	0	0	CorrectCommission	0.866552	0.624540	1	1
460.817017	0.792371	city	1	1	0.798048	0.798048	0	1	0	0	CorrectCommission	0.293499	0.633545	1	1
461.609375	0.792372	city	9	1	0.893451	0.893451	0	1	0	0	CorrectCommission	1.198882	0.647760	1	1
462.401581	0.792050	city	10	1	0.794153	0.794153	0	1	0	0	CorrectCommission	0.256539	0.667210	1	1
463.193756	0.792282	city	4	1	0.807327	0.807327	0	1	0	0	CorrectCommission	0.381564	0.691854	1	1
463.986023	0.792250	city	3	1	0.695431	0.695431	0	1	0	0	CorrectCommission	0.680342	0.721406	1	1
464.778290	0.792268	city	10	1	0.794511	0.794511	0	1	0	0	CorrectCommission	0.259936	0.755289	1	1
465.570557	0.792257	city	7	1	0.854245	0.854245	0	1	0	0	CorrectCommission	0.826818	0.792550	0	1
466.362823	0.792307	city	1	1	0.813126	0.813126	0	1	0	0	CorrectCommission	0.436597	0.831827	0	1
467.155090	0.792223	mountain	10	0	0.000000	0.656264	1	0	0	0	CorrectOmission	1.052039	0.871397	0	1
467.947449	0.792485	city	4	1	0.546758	0.546758	0	1	0	0	CorrectCommission	2.091254	0.909237	0	1
468.739777	0.792154	city	5	1	0.647710	0.647710	0	1	0	0	CorrectCommission	1.133212	0.943141	0	1
469.531921	0.792159	city	3	1	0.696321	0.696321	0	1	0	0	CorrectCommission	0.671894	0.970912	0	1
470.324127	0.792265	city	7	1	0.804193	0.804193	0	1	0	0	CorrectCommission	0.351816	0.990446	0	1
471.116394	0.792262	city	2	1	0.844442	0.844442	0	1	0	0	CorrectCommission	0.733783	0.999949	0	1
471.908661	0.792266	city	1	1	0.896106	0.896106	0	1	0	0	CorrectCommission	1.224084	0.998115	0	1
472.700958	0.792308	city	5	1	0.943459	0.943459	0	1	0	0	CorrectCommission	1.673465	0.984351	0	1
473.493195	0.792221	city	7	1	0.943470	0.943470	0	1	0	0	CorrectCommission	1.673572	0.958994	0	1
474.285492	0.792325	city	9	1	1.009894	1.009894	0	1	0	0	CorrectCommission	2.303934	0.923409	0	1
475.077759	0.792210	city	1	1	0.893311	0.893311	0	1	0	0	CorrectCommission	1.197554	0.880017	0	1
475.869995	0.792261	city	3	1	0.794424	0.794424	0	1	0	0	CorrectCommission	0.259112	0.832242	0	1
476.662262	0.792270	mountain	6	0	0.000000	0.777899	1	0	0	0	CorrectOmission	0.102287	0.784279	0	1
477.454498	0.792259	city	9	1	0.794333	0.794333	0	1	0	0	CorrectCommission	0.258252	0.740776	1	1
478.246887	0.792482	city	3	1	0.794326	0.794326	0	1	0	0	CorrectCommission	0.258180	0.706571	1	1
479.039154	0.792052	city	6	1	0.744640	0.744640	0	1	0	0	CorrectCommission	0.213338	0.686360	1	1
479.831299	0.792262	city	7	1	0.659842	0.659842	0	1	0	0	CorrectCommission	1.018078	0.684489	1	1
480.623566	0.792267	city	6	1	0.707969	0.707969	0	1	0	0	CorrectCommission	0.561351	0.704665	1	1
481.415833	0.792263	city	2	1	0.695481	0.695481	0	1	0	0	CorrectCommission	0.679864	0.749774	1	1
482.208099	0.792291	city	9	1	0.794592	0.794592	0	1	0	0	CorrectCommission	0.260702	0.821638	0	1
483.000397	0.792285	city	7	1	0.745288	0.745288	0	1	0	0	CorrectCommission	0.207194	0.920790	0	1
483.792664	0.792221	mountain	10	1	0.752062	0.752062	0	0	1	0	CommissionError	0.142905	1.046268	0	1
484.584961	0.792371	city	7	1	0.843856	0.843856	0	1	0	0	CorrectCommission	0.728227	1.195487	0	1
485.377228	0.792209	city	4	1	0.796335	0.796335	0	1	0	0	CorrectCommission	0.277248	1.364245	0	1
486.169556	0.792428	city	1	1	0.893342	0.893342	0	1	0	0	CorrectCommission	1.197849	1.546947	0	1
486.961792	0.792047	city	7	1	0.950144	0.950144	0	1	0	0	CorrectCommission	1.736903	1.736903	0	1
