onset	duration	trial_type	image_type	Press	ReactionTime	ReactionTime_Interpolated	CorrectOmission	CorrectCommission	CommissionError	OmissionError	response_type	nonsmoothVarianceTimeCourse	VarianceTimeCourse	In_the_Zone	Reward_trial
8.421726	0.795800	city	10	1	0.854230	0.854230	0	1	0	0	CorrectCommission	2.145747	2.145747	0	1
9.217635	0.796018	city	1	1	0.598944	0.598944	0	1	0	0	CorrectCommission	0.751911	2.124317	0	1
10.013546	0.795803	city	10	1	0.499249	0.499249	0	1	0	0	CorrectCommission	1.883509	2.103381	0	1
10.809239	0.795583	city	3	1	0.449946	0.449946	0	1	0	0	CorrectCommission	2.443137	2.083326	0	1
11.604932	0.795802	city	9	1	0.510701	0.510701	0	1	0	0	CorrectCommission	1.753525	2.064455	0	1
12.400843	0.796020	city	6	1	0.449669	0.449669	0	1	0	0	CorrectCommission	2.446276	2.047039	0	1
13.196754	0.795800	city	10	1	0.499549	0.499549	0	1	0	0	CorrectCommission	1.880112	2.031276	0	1
13.992446	0.795584	city	1	1	0.459862	0.459862	0	1	0	0	CorrectCommission	2.330579	2.017391	0	1
14.788163	0.795850	city	4	1	0.501196	0.501196	0	1	0	0	CorrectCommission	1.861412	2.005649	0	1
15.583966	0.795756	city	2	1	0.499602	0.499602	0	1	0	0	CorrectCommission	1.879505	1.996374	0	1
16.379797	0.795907	city	6	1	0.456163	0.456163	0	1	0	0	CorrectCommission	2.372567	1.989855	0	1
17.175707	0.795910	city	2	1	0.517604	0.517604	0	1	0	0	CorrectCommission	1.675171	1.986272	0	1
17.971455	0.795586	city	7	1	0.549062	0.549062	0	1	0	0	CorrectCommission	1.318107	1.985604	0	1
18.767172	0.795848	city	6	1	0.499464	0.499464	0	1	0	0	CorrectCommission	1.881068	1.987454	0	1
19.563080	0.795971	city	8	1	0.416982	0.416982	0	1	0	0	CorrectCommission	2.817296	1.990939	0	1
20.358858	0.795584	city	3	1	0.511721	0.511721	0	1	0	0	CorrectCommission	1.741950	1.994614	0	1
21.154556	0.795809	mountain	4	1	0.501279	0.501279	0	0	1	0	CommissionError	1.860474	1.996533	0	1
21.950357	0.795795	city	3	1	0.511346	0.511346	0	1	0	0	CorrectCommission	1.746198	1.994257	0	1
22.746191	0.795870	city	7	1	0.551378	0.551378	0	1	0	0	CorrectCommission	1.291813	1.985074	0	1
23.542099	0.795948	city	6	1	0.458109	0.458109	0	1	0	0	CorrectCommission	2.350475	1.966277	0	1
24.337881	0.795615	city	9	1	0.449498	0.449498	0	1	0	0	CorrectCommission	2.448223	1.935434	0	1
25.133682	0.795988	city	6	1	0.351019	0.351019	0	1	0	0	CorrectCommission	3.566017	1.890753	0	1
25.929523	0.795692	city	10	1	0.453165	0.453165	0	1	0	0	CorrectCommission	2.406599	1.831327	0	1
26.725216	0.795696	city	4	1	0.798461	0.798461	0	1	0	0	CorrectCommission	1.512735	1.757355	0	1
27.520966	0.795801	city	3	1	0.510347	0.510347	0	1	0	0	CorrectCommission	1.757540	1.670086	0	1
28.316875	0.796019	city	4	1	0.551990	0.551990	0	1	0	0	CorrectCommission	1.284873	1.571712	0	1
29.112785	0.795800	city	5	1	0.548944	0.548944	0	1	0	0	CorrectCommission	1.319441	1.465184	0	1
29.908531	0.795692	mountain	5	1	0.797593	0.797593	0	0	1	0	CommissionError	1.502879	1.353879	0	1
30.704224	0.795693	city	7	1	0.499843	0.499843	0	1	0	0	CorrectCommission	1.876765	1.241320	0	1
31.499983	0.795827	city	9	1	0.560597	0.560597	0	1	0	0	CorrectCommission	1.187169	1.130834	0	1
32.295841	0.795886	mountain	4	0	0.000000	0.614046	1	0	0	0	CorrectOmission	0.580496	1.025319	0	1
33.091660	0.795751	city	10	1	0.648499	0.648499	0	1	0	0	CorrectCommission	0.189432	0.927041	0	1
33.887405	0.795741	city	4	1	0.652266	0.652266	0	1	0	0	CorrectCommission	0.146666	0.837504	0	1
34.683178	0.795804	city	1	1	0.598878	0.598878	0	1	0	0	CorrectCommission	0.752664	0.757472	0	1
35.479088	0.796019	city	9	1	0.649149	0.649149	0	1	0	0	CorrectCommission	0.182053	0.687062	0	1
36.274891	0.795584	city	3	1	0.550617	0.550617	0	1	0	0	CorrectCommission	1.300455	0.625935	0	1
37.070587	0.795811	city	7	1	0.698408	0.698408	0	1	0	0	CorrectCommission	0.377068	0.573443	1	1
37.866444	0.795900	city	10	1	0.756712	0.756712	0	1	0	0	CorrectCommission	1.038854	0.528926	1	1
38.662292	0.795801	city	8	1	0.710335	0.710335	0	1	0	0	CorrectCommission	0.512452	0.491734	1	1
39.458042	0.795695	city	1	1	0.666896	0.666896	0	1	0	0	CorrectCommission	0.019384	0.461346	1	1
40.253792	0.795803	mountain	10	0	0.000000	0.680888	1	0	0	0	CorrectOmission	0.178203	0.437329	1	1
41.049603	0.795824	city	3	1	0.698519	0.698519	0	1	0	0	CorrectCommission	0.378325	0.419219	1	1
41.845406	0.795782	city	10	1	0.665995	0.665995	0	1	0	0	CorrectCommission	0.009163	0.406486	1	1
42.641232	0.795868	city	1	1	0.667094	0.667094	0	1	0	0	CorrectCommission	0.021631	0.398420	1	1
43.437088	0.795840	city	5	1	0.748500	0.748500	0	1	0	0	CorrectCommission	0.945640	0.394159	1	1
44.232853	0.795692	city	10	1	0.660123	0.660123	0	1	0	0	CorrectCommission	0.057487	0.392734	1	1
45.028652	0.795909	city	9	1	0.648659	0.648659	0	1	0	0	CorrectCommission	0.187608	0.393187	1	1
45.824509	0.795804	city	1	1	0.598900	0.598900	0	1	0	0	CorrectCommission	0.752409	0.394672	1	1
46.620258	0.795695	city	3	1	0.751565	0.751565	0	1	0	0	CorrectCommission	0.980437	0.396621	1	1
47.416115	0.796017	city	10	1	0.648683	0.648683	0	1	0	0	CorrectCommission	0.187343	0.398837	1	1
48.211914	0.795581	city	1	1	0.598679	0.598679	0	1	0	0	CorrectCommission	0.754924	0.401547	1	1
49.007607	0.795802	city	10	1	0.648658	0.648658	0	1	0	0	CorrectCommission	0.187622	0.405342	1	1
49.803516	0.796020	city	3	1	0.664636	0.664636	0	1	0	0	CorrectCommission	0.006263	0.411117	1	1
50.599316	0.795581	city	5	1	0.648429	0.648429	0	1	0	0	CorrectCommission	0.190221	0.419887	1	1
51.395012	0.795807	city	9	1	0.649303	0.649303	0	1	0	0	CorrectCommission	0.180300	0.432610	1	1
52.190819	0.795809	mountain	2	0	0.000000	0.711767	1	0	0	0	CorrectOmission	0.528698	0.450002	1	1
52.986618	0.795792	city	4	1	0.756694	0.756694	0	1	0	0	CorrectCommission	1.038656	0.472384	1	1
53.782471	0.795911	city	2	1	0.704962	0.704962	0	1	0	0	CorrectCommission	0.451458	0.499517	1	1
54.578274	0.795692	city	3	1	0.648537	0.648537	0	1	0	0	CorrectCommission	0.189000	0.530608	1	1
55.374126	0.796020	city	7	1	0.662504	0.662504	0	1	0	0	CorrectCommission	0.030467	0.564197	1	1
56.169987	0.795694	city	10	1	0.667004	0.667004	0	1	0	0	CorrectCommission	0.020609	0.598301	1	1
56.965683	0.795700	city	8	1	0.748574	0.748574	0	1	0	0	CorrectCommission	0.946486	0.630577	0	1
57.761429	0.795792	city	5	1	0.698352	0.698352	0	1	0	0	CorrectCommission	0.376435	0.658572	0	1
58.557224	0.795803	city	10	1	0.750580	0.750580	0	1	0	0	CorrectCommission	0.969251	0.680080	0	1
59.353027	0.795804	city	3	1	0.848291	0.848291	0	1	0	0	CorrectCommission	2.078339	0.693407	0	1
60.148830	0.795799	city	10	1	0.801908	0.801908	0	1	0	0	CorrectCommission	1.551856	0.697629	0	1
60.944641	0.795821	city	1	1	0.702114	0.702114	0	1	0	0	CorrectCommission	0.419137	0.692723	0	1
61.740551	0.796002	city	3	1	0.748128	0.748128	0	1	0	0	CorrectCommission	0.941424	0.679549	0	1
62.536396	0.795691	city	6	1	0.707475	0.707475	0	1	0	0	CorrectCommission	0.479982	0.659608	0	1
63.332199	0.795911	city	2	1	0.648525	0.648525	0	1	0	0	CorrectCommission	0.189129	0.634814	0	1
64.127945	0.795587	city	10	1	0.698356	0.698356	0	1	0	0	CorrectCommission	0.376477	0.607158	1	1
64.923637	0.795798	city	8	1	0.712833	0.712833	0	1	0	0	CorrectCommission	0.540804	0.578436	1	1
65.719498	0.795912	mountain	6	0	0.000000	0.712663	1	0	0	0	CorrectOmission	0.538878	0.550041	1	1
66.515297	0.795689	mountain	9	0	0.000000	0.705345	1	0	0	0	CorrectOmission	0.455804	0.522893	1	1
67.311096	0.795912	city	5	1	0.698374	0.698374	0	1	0	0	CorrectCommission	0.376685	0.497456	1	1
68.107010	0.795917	city	4	1	0.699250	0.699250	0	1	0	0	CorrectCommission	0.386627	0.473832	1	0
68.902817	0.795687	city	5	1	0.702044	0.702044	0	1	0	0	CorrectCommission	0.418337	0.451926	1	0
69.698502	0.795695	city	8	1	0.797772	0.797772	0	1	0	0	CorrectCommission	1.504915	0.431581	1	0
70.494263	0.795822	city	10	1	0.662312	0.662312	0	1	0	0	CorrectCommission	0.032642	0.412670	1	0
71.290169	0.795995	city	3	1	0.648948	0.648948	0	1	0	0	CorrectCommission	0.184338	0.395229	1	0
72.085968	0.795601	city	5	1	0.654959	0.654959	0	1	0	0	CorrectCommission	0.116101	0.379365	1	0
72.881676	0.795814	city	9	1	0.698394	0.698394	0	1	0	0	CorrectCommission	0.376914	0.365233	1	0
73.677467	0.795772	city	3	1	0.701106	0.701106	0	1	0	0	CorrectCommission	0.407699	0.352941	1	0
74.473259	0.795802	city	4	1	0.651228	0.651228	0	1	0	0	CorrectCommission	0.158453	0.342477	1	0
75.269058	0.795803	city	2	1	0.649410	0.649410	0	1	0	0	CorrectCommission	0.179094	0.333691	1	0
76.064865	0.795801	city	10	1	0.652801	0.652801	0	1	0	0	CorrectCommission	0.140601	0.326266	1	0
76.860718	0.795909	city	1	1	0.716889	0.716889	0	1	0	0	CorrectCommission	0.586842	0.319770	1	0
77.656517	0.795695	city	10	1	0.707810	0.707810	0	1	0	0	CorrectCommission	0.483791	0.313727	1	0
78.452316	0.795908	city	2	1	0.699646	0.699646	0	1	0	0	CorrectCommission	0.391119	0.307749	1	0
79.248123	0.795697	city	6	1	0.698269	0.698269	0	1	0	0	CorrectCommission	0.375496	0.301567	1	0
80.043915	0.795881	city	1	1	0.648965	0.648965	0	1	0	0	CorrectCommission	0.184146	0.295102	1	0
80.839714	0.795718	city	2	1	0.649054	0.649054	0	1	0	0	CorrectCommission	0.183134	0.288485	1	0
81.635582	0.796021	city	7	1	0.698376	0.698376	0	1	0	0	CorrectCommission	0.376707	0.282039	1	0
82.431381	0.795581	city	8	1	0.698153	0.698153	0	1	0	0	CorrectCommission	0.374175	0.276234	1	0
83.227104	0.795865	city	3	1	0.648700	0.648700	0	1	0	0	CorrectCommission	0.187147	0.271649	1	0
84.022942	0.795806	city	2	1	0.649017	0.649017	0	1	0	0	CorrectCommission	0.183546	0.268901	1	0
84.818710	0.795734	city	6	1	0.648926	0.648926	0	1	0	0	CorrectCommission	0.184579	0.268575	1	0
85.614479	0.795806	city	8	1	0.649096	0.649096	0	1	0	0	CorrectCommission	0.182649	0.271210	1	0
86.410286	0.795799	mountain	10	0	0.000000	0.673721	1	0	0	0	CorrectOmission	0.096860	0.277265	1	0
87.206085	0.795806	city	4	1	0.698348	0.698348	0	1	0	0	CorrectCommission	0.376388	0.287071	1	0
88.001900	0.795824	city	10	1	0.698523	0.698523	0	1	0	0	CorrectCommission	0.378379	0.300868	1	0
88.797722	0.795815	city	7	1	0.662287	0.662287	0	1	0	0	CorrectCommission	0.032927	0.318737	1	0
89.593529	0.795808	city	6	1	0.698735	0.698735	0	1	0	0	CorrectCommission	0.380786	0.340592	1	0
90.389313	0.795755	city	9	1	0.698371	0.698371	0	1	0	0	CorrectCommission	0.376654	0.366102	1	0
91.185196	0.796019	city	10	1	0.699162	0.699162	0	1	0	0	CorrectCommission	0.385632	0.394669	1	0
91.981056	0.795695	city	7	1	0.699418	0.699418	0	1	0	0	CorrectCommission	0.388530	0.425372	1	0
92.776764	0.795719	city	3	1	0.648448	0.648448	0	1	0	0	CorrectCommission	0.190007	0.456968	1	0
93.572510	0.795777	city	10	1	0.698842	0.698842	0	1	0	0	CorrectCommission	0.382000	0.487891	1	0
94.368301	0.795797	mountain	7	0	0.000000	0.714529	1	0	0	0	CorrectOmission	0.560055	0.516354	1	0
95.164101	0.795803	city	10	1	0.711972	0.711972	0	1	0	0	CorrectCommission	0.531027	0.540516	1	0
95.960007	0.796018	city	5	1	0.707634	0.707634	0	1	0	0	CorrectCommission	0.481787	0.558692	1	0
96.755814	0.795593	city	10	1	0.748431	0.748431	0	1	0	0	CorrectCommission	0.944861	0.569589	1	0
97.551567	0.795903	city	5	1	0.748408	0.748408	0	1	0	0	CorrectCommission	0.944606	0.572500	1	0
98.347389	0.795748	city	6	1	0.812237	0.812237	0	1	0	0	CorrectCommission	1.669102	0.567476	1	0
99.143135	0.795750	city	7	1	0.748044	0.748044	0	1	0	0	CorrectCommission	0.940467	0.555312	1	0
99.938911	0.795795	city	3	1	0.665896	0.665896	0	1	0	0	CorrectCommission	0.008038	0.537519	1	0
100.734711	0.795802	city	5	1	0.648632	0.648632	0	1	0	0	CorrectCommission	0.187920	0.516096	1	0
101.530510	0.795806	city	10	1	0.698374	0.698374	0	1	0	0	CorrectCommission	0.376679	0.493240	1	0
102.326332	0.795835	city	1	1	0.648667	0.648667	0	1	0	0	CorrectCommission	0.187520	0.471067	1	0
103.122131	0.795765	city	2	1	0.598850	0.598850	0	1	0	0	CorrectCommission	0.752975	0.451347	1	0
103.917915	0.795802	city	1	1	0.650962	0.650962	0	1	0	0	CorrectCommission	0.161477	0.435305	1	0
104.713722	0.795803	city	2	1	0.667090	0.667090	0	1	0	0	CorrectCommission	0.021596	0.423542	1	0
105.509521	0.795800	city	1	1	0.663183	0.663183	0	1	0	0	CorrectCommission	0.022753	0.416025	1	0
106.305374	0.795911	city	4	1	0.698711	0.698711	0	1	0	0	CorrectCommission	0.380505	0.412231	1	0
107.101173	0.795690	city	5	1	0.712747	0.712747	0	1	0	0	CorrectCommission	0.539823	0.411292	1	0
107.896927	0.795802	city	6	1	0.797966	0.797966	0	1	0	0	CorrectCommission	1.507116	0.412216	1	0
108.692757	0.795871	city	9	1	0.655441	0.655441	0	1	0	0	CorrectCommission	0.110637	0.414035	1	0
109.488617	0.795842	city	8	1	0.698271	0.698271	0	1	0	0	CorrectCommission	0.375518	0.416030	1	0
110.284393	0.795712	city	1	1	0.648471	0.648471	0	1	0	0	CorrectCommission	0.189748	0.417756	1	0
111.080139	0.795780	city	10	1	0.649577	0.649577	0	1	0	0	CorrectCommission	0.177197	0.419114	1	0
111.875938	0.795816	city	2	1	0.698884	0.698884	0	1	0	0	CorrectCommission	0.382478	0.420321	1	0
112.671738	0.795788	city	5	1	0.698883	0.698883	0	1	0	0	CorrectCommission	0.382456	0.421966	1	0
113.467621	0.795967	city	4	1	0.748150	0.748150	0	1	0	0	CorrectCommission	0.941675	0.424919	1	0
114.263451	0.795702	city	1	1	0.710327	0.710327	0	1	0	0	CorrectCommission	0.512363	0.430316	1	0
115.059174	0.795737	city	2	1	0.705635	0.705635	0	1	0	0	CorrectCommission	0.459106	0.439523	1	0
115.854950	0.795823	city	8	1	0.648642	0.648642	0	1	0	0	CorrectCommission	0.187802	0.453990	1	0
116.650749	0.795779	city	1	1	0.648928	0.648928	0	1	0	0	CorrectCommission	0.184555	0.475119	1	0
117.446655	0.796021	city	3	1	0.650563	0.650563	0	1	0	0	CorrectCommission	0.166001	0.504093	1	0
118.242508	0.795693	city	10	1	0.648856	0.648856	0	1	0	0	CorrectCommission	0.185377	0.541629	1	0
119.038200	0.795693	city	7	1	0.748215	0.748215	0	1	0	0	CorrectCommission	0.942410	0.587811	1	0
119.833946	0.795802	city	9	1	0.709358	0.709358	0	1	0	0	CorrectCommission	0.501364	0.641894	0	0
120.629753	0.795802	city	1	1	0.648613	0.648613	0	1	0	0	CorrectCommission	0.188136	0.702235	0	0
121.425552	0.795806	mountain	6	0	0.000000	0.605663	1	0	0	0	CorrectOmission	0.675642	0.766283	0	0
122.221413	0.795906	mountain	9	0	0.000000	0.587020	1	0	0	0	CorrectOmission	0.887258	0.830680	0	0
123.017212	0.795691	city	10	1	0.599193	0.599193	0	1	0	0	CorrectCommission	0.749087	0.891525	0	0
123.812958	0.795808	city	2	1	0.648693	0.648693	0	1	0	0	CorrectCommission	0.187232	0.944741	0	0
124.608871	0.796015	mountain	9	0	0.000000	0.767947	1	0	0	0	CorrectOmission	1.166380	0.986534	0	0
125.404678	0.795608	mountain	8	0	0.000000	0.877359	1	0	0	0	CorrectOmission	2.408277	1.013819	0	0
126.200371	0.795776	city	4	1	0.897332	0.897332	0	1	0	0	CorrectCommission	2.634989	1.024686	0	0
126.996193	0.795861	city	5	1	0.748271	0.748271	0	1	0	0	CorrectCommission	0.943046	1.018660	0	0
127.791992	0.795746	city	9	1	0.897322	0.897322	0	1	0	0	CorrectCommission	2.634867	0.996792	0	1
128.587784	0.795823	city	10	1	0.699561	0.699561	0	1	0	0	CorrectCommission	0.390154	0.961386	0	1
129.383575	0.795779	mountain	2	0	0.000000	0.681482	1	0	0	0	CorrectOmission	0.184953	0.915782	0	1
130.179474	0.796017	city	9	1	0.698375	0.698375	0	1	0	0	CorrectCommission	0.376690	0.863774	0	1
130.975281	0.795585	city	1	1	0.605525	0.605525	0	1	0	0	CorrectCommission	0.677209	0.809121	0	1
131.771011	0.795877	city	5	1	0.648623	0.648623	0	1	0	0	CorrectCommission	0.188017	0.755135	0	1
132.566833	0.795779	city	9	1	0.566351	0.566351	0	1	0	0	CorrectCommission	1.121856	0.704400	0	1
133.362625	0.795789	city	3	1	0.649056	0.649056	0	1	0	0	CorrectCommission	0.183106	0.658592	0	1
134.158401	0.795778	city	5	1	0.556392	0.556392	0	1	0	0	CorrectCommission	1.234899	0.618546	0	1
134.954193	0.795784	city	4	1	0.599249	0.599249	0	1	0	0	CorrectCommission	0.748445	0.584287	1	1
135.750092	0.796023	city	1	1	0.650006	0.650006	0	1	0	0	CorrectCommission	0.172326	0.555280	1	1
136.545898	0.795581	city	3	1	0.657954	0.657954	0	1	0	0	CorrectCommission	0.082108	0.530584	1	1
137.341583	0.795811	city	5	1	0.649104	0.649104	0	1	0	0	CorrectCommission	0.182560	0.509057	1	1
138.137390	0.795802	city	8	1	0.611017	0.611017	0	1	0	0	CorrectCommission	0.614872	0.489560	1	1
138.933197	0.795793	city	5	1	0.598963	0.598963	0	1	0	0	CorrectCommission	0.751699	0.471083	1	1
139.729019	0.795867	city	4	1	0.720332	0.720332	0	1	0	0	CorrectCommission	0.625920	0.452888	1	1
140.524826	0.795738	city	6	1	0.748651	0.748651	0	1	0	0	CorrectCommission	0.947360	0.434581	1	1
141.320587	0.795802	city	9	1	0.704183	0.704183	0	1	0	0	CorrectCommission	0.442623	0.416118	1	1
142.116394	0.795798	mountain	4	0	0.000000	0.674194	1	0	0	0	CorrectOmission	0.102225	0.397772	1	1
142.912201	0.795800	mountain	2	0	0.000000	0.656435	1	0	0	0	CorrectOmission	0.099348	0.380041	1	1
143.707993	0.795804	city	4	1	0.648659	0.648659	0	1	0	0	CorrectCommission	0.187608	0.363566	1	1
144.503799	0.795800	city	6	1	0.648619	0.648619	0	1	0	0	CorrectCommission	0.188070	0.349041	1	1
145.299591	0.795801	city	4	1	0.598901	0.598901	0	1	0	0	CorrectCommission	0.752393	0.337109	1	1
146.095398	0.795802	mountain	6	0	0.000000	0.626201	1	0	0	0	CorrectOmission	0.442520	0.328353	1	1
146.891205	0.795810	city	10	1	0.668309	0.668309	0	1	0	0	CorrectCommission	0.035429	0.323287	1	1
147.687027	0.795828	city	1	1	0.663015	0.663015	0	1	0	0	CorrectCommission	0.024663	0.322331	1	1
148.482819	0.795766	city	7	1	0.649068	0.649068	0	1	0	0	CorrectCommission	0.182968	0.325824	1	1
149.278610	0.795807	city	1	1	0.613224	0.613224	0	1	0	0	CorrectCommission	0.589818	0.334025	1	1
150.074448	0.795859	mountain	4	0	0.000000	0.649810	1	0	0	0	CorrectOmission	0.174543	0.347109	1	1
150.870300	0.795849	city	3	1	0.698329	0.698329	0	1	0	0	CorrectCommission	0.376175	0.365185	1	1
151.666077	0.795704	city	6	1	0.698283	0.698283	0	1	0	0	CorrectCommission	0.375656	0.388222	1	1
152.461838	0.795831	city	1	1	0.649180	0.649180	0	1	0	0	CorrectCommission	0.181698	0.416034	1	1
153.257629	0.795759	city	5	1	0.602908	0.602908	0	1	0	0	CorrectCommission	0.706921	0.448230	1	1
154.053436	0.795855	city	1	1	0.651630	0.651630	0	1	0	0	CorrectCommission	0.153892	0.484163	1	1
154.849304	0.795857	city	7	1	0.648590	0.648590	0	1	0	0	CorrectCommission	0.188401	0.522940	1	1
155.645187	0.795913	city	4	1	0.712559	0.712559	0	1	0	0	CorrectCommission	0.537696	0.563412	1	1
156.440933	0.795595	mountain	10	0	0.000000	0.704798	1	0	0	0	CorrectOmission	0.449598	0.604254	1	1
157.236633	0.795789	city	3	1	0.698530	0.698530	0	1	0	0	CorrectCommission	0.378449	0.644110	0	1
158.032532	0.796019	city	2	1	0.766979	0.766979	0	1	0	0	CorrectCommission	1.155394	0.681659	0	1
158.828384	0.795692	city	4	1	0.856755	0.856755	0	1	0	0	CorrectCommission	2.174411	0.715760	0	1
159.624084	0.795692	city	6	1	0.701006	0.701006	0	1	0	0	CorrectCommission	0.406562	0.745566	0	1
160.419891	0.795913	city	8	1	0.607769	0.607769	0	1	0	0	CorrectCommission	0.651736	0.770632	0	1
161.215714	0.795742	city	4	1	0.648568	0.648568	0	1	0	0	CorrectCommission	0.188650	0.790853	0	1
162.011505	0.795859	city	5	1	0.598935	0.598935	0	1	0	0	CorrectCommission	0.752011	0.806519	0	1
162.807281	0.795694	city	8	1	0.598796	0.598796	0	1	0	0	CorrectCommission	0.753594	0.818250	0	1
163.603043	0.795811	city	3	1	0.798100	0.798100	0	1	0	0	CorrectCommission	1.508639	0.827021	0	1
164.398849	0.795796	city	2	1	0.610107	0.610107	0	1	0	0	CorrectCommission	0.625208	0.834094	0	1
165.194748	0.796016	city	1	1	0.549161	0.549161	0	1	0	0	CorrectCommission	1.316984	0.840982	0	1
165.990601	0.795690	city	4	1	0.599013	0.599013	0	1	0	0	CorrectCommission	0.751129	0.849294	0	1
166.786301	0.795698	city	7	1	0.549013	0.549013	0	1	0	0	CorrectCommission	1.318661	0.860595	0	1
167.582062	0.795815	city	6	1	0.598910	0.598910	0	1	0	0	CorrectCommission	0.752298	0.876143	0	1
168.377914	0.795893	mountain	6	0	0.000000	0.666244	1	0	0	0	CorrectOmission	0.011993	0.896699	0	1
169.173721	0.795719	city	7	1	0.699877	0.699877	0	1	0	0	CorrectCommission	0.393738	0.922306	0	1
169.969467	0.795773	city	2	1	0.648666	0.648666	0	1	0	0	CorrectCommission	0.187536	0.952205	0	1
170.765366	0.796023	city	1	1	0.609515	0.609515	0	1	0	0	CorrectCommission	0.631918	0.984865	0	1
171.561157	0.795581	mountain	8	0	0.000000	0.774945	1	0	0	0	CorrectOmission	1.245809	1.018152	0	1
172.356857	0.795803	city	6	1	0.910821	0.910821	0	1	0	0	CorrectCommission	2.788094	1.049656	0	1
173.152664	0.795804	mountain	5	0	0.000000	0.783013	1	0	0	0	CorrectOmission	1.337389	1.076981	0	1
173.948456	0.795801	city	4	1	0.599238	0.599238	0	1	0	0	CorrectCommission	0.748578	1.098161	0	1
174.744263	0.795808	city	1	1	0.567213	0.567213	0	1	0	0	CorrectCommission	1.112077	1.111865	0	1
175.540070	0.795792	city	7	1	0.549128	0.549128	0	1	0	0	CorrectCommission	1.317359	1.117524	0	1
176.335922	0.795913	city	10	1	0.555743	0.555743	0	1	0	0	CorrectCommission	1.242270	1.115369	0	1
177.131714	0.795691	city	4	1	0.555591	0.555591	0	1	0	0	CorrectCommission	1.243995	1.106365	0	1
177.927567	0.796021	city	2	1	0.560680	0.560680	0	1	0	0	CorrectCommission	1.186229	1.091990	0	1
178.723373	0.795585	city	10	1	0.553948	0.553948	0	1	0	0	CorrectCommission	1.262643	1.073996	0	1
179.519073	0.795801	city	5	1	0.549596	0.549596	0	1	0	0	CorrectCommission	1.312039	1.054103	0	1
180.314926	0.795910	city	10	1	0.698346	0.698346	0	1	0	0	CorrectCommission	0.376362	1.033731	0	1
181.110748	0.795747	mountain	3	0	0.000000	0.764617	1	0	0	0	CorrectOmission	1.128589	1.013788	0	1
181.906494	0.795748	city	6	1	0.748416	0.748416	0	1	0	0	CorrectCommission	0.944694	0.994515	0	1
182.702393	0.796019	city	5	1	0.649746	0.649746	0	1	0	0	CorrectCommission	0.175271	0.975501	0	1
183.498245	0.795693	city	2	1	0.598664	0.598664	0	1	0	0	CorrectCommission	0.755085	0.955831	0	1
184.294037	0.795910	city	1	1	0.614854	0.614854	0	1	0	0	CorrectCommission	0.571321	0.934251	0	1
185.089798	0.795586	city	7	1	0.847731	0.847731	0	1	0	0	CorrectCommission	2.071984	0.909564	0	1
185.885483	0.795801	city	8	1	0.818081	0.818081	0	1	0	0	CorrectCommission	1.735431	0.880907	0	1
186.681335	0.795908	city	2	1	0.716556	0.716556	0	1	0	0	CorrectCommission	0.583058	0.848055	0	1
187.477142	0.795695	city	10	1	0.798174	0.798174	0	1	0	0	CorrectCommission	1.509475	0.811562	0	0
188.272888	0.795809	city	8	1	0.749152	0.749152	0	1	0	0	CorrectCommission	0.953043	0.772664	0	0
189.068695	0.795794	city	10	1	0.648686	0.648686	0	1	0	0	CorrectCommission	0.187306	0.733165	0	0
189.864548	0.795909	mountain	8	0	0.000000	0.623971	1	0	0	0	CorrectOmission	0.467836	0.695098	0	0
190.660461	0.795911	city	2	1	0.649106	0.649106	0	1	0	0	CorrectCommission	0.182538	0.660391	0	0
191.456207	0.795583	city	7	1	0.698190	0.698190	0	1	0	0	CorrectCommission	0.374597	0.630577	0	0
192.251999	0.796019	city	2	1	0.664616	0.664616	0	1	0	0	CorrectCommission	0.006490	0.606550	1	0
193.047852	0.795692	city	7	1	0.716208	0.716208	0	1	0	0	CorrectCommission	0.579108	0.588483	1	0
193.843552	0.795693	city	1	1	0.748446	0.748446	0	1	0	0	CorrectCommission	0.945037	0.575848	1	0
194.639297	0.795802	city	4	1	0.748122	0.748122	0	1	0	0	CorrectCommission	0.941351	0.567594	1	0
195.435104	0.795801	city	5	1	0.698434	0.698434	0	1	0	0	CorrectCommission	0.377367	0.562369	1	0
196.230911	0.795833	city	10	1	0.650753	0.650753	0	1	0	0	CorrectCommission	0.163849	0.558774	1	0
197.026718	0.795773	city	3	1	0.698983	0.698983	0	1	0	0	CorrectCommission	0.383593	0.555572	1	0
197.822525	0.795848	city	2	1	0.748733	0.748733	0	1	0	0	CorrectCommission	0.948285	0.551883	1	0
198.618332	0.795752	city	6	1	0.797783	0.797783	0	1	0	0	CorrectCommission	1.505037	0.547234	1	0
199.414215	0.796021	city	1	1	0.700011	0.700011	0	1	0	0	CorrectCommission	0.395261	0.541575	1	0
200.210022	0.795582	city	8	1	0.648473	0.648473	0	1	0	0	CorrectCommission	0.189728	0.535269	1	0
201.005707	0.795802	city	1	1	0.698392	0.698392	0	1	0	0	CorrectCommission	0.376892	0.528888	1	0
201.801514	0.795805	city	7	1	0.666785	0.666785	0	1	0	0	CorrectCommission	0.018126	0.523070	1	0
202.597321	0.795800	mountain	8	0	0.000000	0.709701	1	0	0	0	CorrectOmission	0.505258	0.518392	1	0
203.393143	0.795841	city	5	1	0.748115	0.748115	0	1	0	0	CorrectCommission	0.941280	0.515252	1	0
204.188934	0.795759	city	4	1	0.702999	0.702999	0	1	0	0	CorrectCommission	0.429185	0.513840	1	0
204.984726	0.795806	city	8	1	0.712091	0.712091	0	1	0	0	CorrectCommission	0.532380	0.514122	1	0
205.780518	0.795798	city	9	1	0.648684	0.648684	0	1	0	0	CorrectCommission	0.187329	0.515863	1	0
206.576355	0.795866	city	10	1	0.698649	0.698649	0	1	0	0	CorrectCommission	0.379810	0.518692	1	0
207.372162	0.795737	city	4	1	0.748402	0.748402	0	1	0	0	CorrectCommission	0.944530	0.522155	1	0
208.168060	0.796076	mountain	4	0	0.000000	0.732769	1	0	0	0	CorrectOmission	0.767087	0.525768	1	0
208.963974	0.795747	city	8	1	0.699968	0.699968	0	1	0	0	CorrectCommission	0.394778	0.529079	1	0
209.759689	0.795691	city	2	1	0.698217	0.698217	0	1	0	0	CorrectCommission	0.374902	0.531707	1	0
210.555389	0.795697	city	5	1	0.698414	0.698414	0	1	0	0	CorrectCommission	0.377141	0.533362	1	0
211.351135	0.795797	city	9	1	0.700775	0.700775	0	1	0	0	CorrectCommission	0.403936	0.533891	1	0
212.146927	0.795802	mountain	3	0	0.000000	0.730110	1	0	0	0	CorrectOmission	0.736908	0.533289	1	0
212.942734	0.795804	city	4	1	0.748247	0.748247	0	1	0	0	CorrectCommission	0.942777	0.531737	1	0
213.738541	0.795818	city	2	1	0.717014	0.717014	0	1	0	0	CorrectCommission	0.588261	0.529611	1	0
214.534454	0.796001	city	9	1	0.665284	0.665284	0	1	0	0	CorrectCommission	0.001092	0.527456	1	0
215.330261	0.795615	city	2	1	0.599484	0.599484	0	1	0	0	CorrectCommission	0.745785	0.525939	1	0
216.125977	0.795795	city	5	1	0.549593	0.549593	0	1	0	0	CorrectCommission	1.312073	0.525728	1	0
216.921814	0.795886	city	9	1	0.666685	0.666685	0	1	0	0	CorrectCommission	0.016997	0.527432	1	0
217.717651	0.795802	city	8	1	0.648532	0.648532	0	1	0	0	CorrectCommission	0.189051	0.531491	1	0
218.513428	0.795758	city	9	1	0.662166	0.662166	0	1	0	0	CorrectCommission	0.034300	0.538011	1	0
219.309189	0.795740	city	10	1	0.648570	0.648570	0	1	0	0	CorrectCommission	0.188620	0.546769	1	0
220.104950	0.795800	city	7	1	0.599694	0.599694	0	1	0	0	CorrectCommission	0.743397	0.557189	1	0
220.900757	0.795799	city	4	1	0.561957	0.561957	0	1	0	0	CorrectCommission	1.171741	0.568425	1	0
221.696609	0.795910	city	10	1	0.698374	0.698374	0	1	0	0	CorrectCommission	0.376679	0.579504	1	0
222.492401	0.795692	city	3	1	0.748479	0.748479	0	1	0	0	CorrectCommission	0.945403	0.589457	1	0
223.288177	0.795860	mountain	9	0	0.000000	0.740882	1	0	0	0	CorrectOmission	0.859179	0.597409	1	0
224.084091	0.795962	mountain	1	0	0.000000	0.699570	1	0	0	0	CorrectOmission	0.390257	0.602736	1	0
224.879929	0.795695	city	9	1	0.648527	0.648527	0	1	0	0	CorrectCommission	0.189111	0.605106	1	0
225.675720	0.795909	city	7	1	0.611739	0.611739	0	1	0	0	CorrectCommission	0.606677	0.604531	1	0
226.471481	0.795603	city	10	1	0.560353	0.560353	0	1	0	0	CorrectCommission	1.189940	0.601334	1	0
227.267166	0.795781	city	4	1	0.612172	0.612172	0	1	0	0	CorrectCommission	0.601764	0.596146	1	0
228.062973	0.795804	city	1	1	0.599039	0.599039	0	1	0	0	CorrectCommission	0.750835	0.589845	1	0
228.858765	0.795804	city	2	1	0.598958	0.598958	0	1	0	0	CorrectCommission	0.751750	0.583423	1	0
229.654572	0.795785	city	10	1	0.649102	0.649102	0	1	0	0	CorrectCommission	0.182590	0.577897	1	0
230.450378	0.795841	city	3	1	0.648644	0.648644	0	1	0	0	CorrectCommission	0.187783	0.574199	1	0
231.246185	0.795778	city	7	1	0.711401	0.711401	0	1	0	0	CorrectCommission	0.524552	0.573049	1	0
232.042084	0.796019	city	3	1	0.599396	0.599396	0	1	0	0	CorrectCommission	0.746779	0.574891	1	0
232.837891	0.795591	city	2	1	0.605609	0.605609	0	1	0	0	CorrectCommission	0.676260	0.579845	1	0
233.633575	0.795794	city	9	1	0.698497	0.698497	0	1	0	0	CorrectCommission	0.378079	0.587670	1	0
234.429413	0.795856	city	7	1	0.698363	0.698363	0	1	0	0	CorrectCommission	0.376556	0.597894	1	0
235.225311	0.795966	city	3	1	0.652142	0.652142	0	1	0	0	CorrectCommission	0.148083	0.609831	0	0
236.021194	0.795800	mountain	4	0	0.000000	0.725393	1	0	0	0	CorrectOmission	0.683368	0.622730	0	0
236.816925	0.795654	city	9	1	0.797688	0.797688	0	1	0	0	CorrectCommission	1.503958	0.635849	0	0
237.612625	0.795732	city	7	1	0.748596	0.748596	0	1	0	0	CorrectCommission	0.946734	0.648564	0	0
238.408493	0.796018	city	10	1	0.698388	0.698388	0	1	0	0	CorrectCommission	0.376848	0.660423	0	0
239.204407	0.795801	city	9	1	0.598667	0.598667	0	1	0	0	CorrectCommission	0.755056	0.671147	0	0
240.000092	0.795583	mountain	9	0	0.000000	0.673800	1	0	0	0	CorrectOmission	0.097752	0.680553	0	0
240.795898	0.796021	city	6	1	0.749907	0.749907	0	1	0	0	CorrectCommission	0.961619	0.688566	0	0
241.591705	0.795583	city	3	1	0.653109	0.653109	0	1	0	0	CorrectCommission	0.137108	0.695114	0	0
242.387405	0.795821	city	1	1	0.549467	0.549467	0	1	0	0	CorrectCommission	1.313505	0.700189	0	0
243.183212	0.795792	city	10	1	0.549167	0.549167	0	1	0	0	CorrectCommission	1.316909	0.703745	0	0
243.979034	0.795853	city	4	1	0.698450	0.698450	0	1	0	0	CorrectCommission	0.377545	0.705818	0	0
244.774826	0.795739	city	6	1	0.698334	0.698334	0	1	0	0	CorrectCommission	0.376235	0.706693	0	0
245.570618	0.795847	mountain	1	0	0.000000	0.627412	1	0	0	0	CorrectOmission	0.428785	0.706952	0	0
246.366425	0.795757	city	10	1	0.606075	0.606075	0	1	0	0	CorrectCommission	0.670967	0.707595	0	0
247.162201	0.795812	mountain	10	1	0.754719	0.754719	0	0	1	0	CommissionError	1.016240	0.710129	0	1
247.958115	0.796011	city	5	1	0.499548	0.499548	0	1	0	0	CorrectCommission	1.880115	0.716525	0	1
248.753922	0.795582	city	9	1	0.666746	0.666746	0	1	0	0	CorrectCommission	0.017687	0.729047	0	1
249.549667	0.795910	city	3	1	0.599308	0.599308	0	1	0	0	CorrectCommission	0.747775	0.750064	0	1
250.345581	0.795912	city	6	1	0.698343	0.698343	0	1	0	0	CorrectCommission	0.376332	0.781570	0	1
251.141434	0.795802	city	2	1	0.618087	0.618087	0	1	0	0	CorrectCommission	0.534630	0.824819	0	1
251.937149	0.795635	city	4	1	0.652246	0.652246	0	1	0	0	CorrectCommission	0.146902	0.879856	0	1
252.732956	0.795968	city	6	1	0.748081	0.748081	0	1	0	0	CorrectCommission	0.940886	0.945230	0	1
253.528763	0.795659	city	2	1	0.698116	0.698116	0	1	0	0	CorrectCommission	0.373757	1.017817	0	1
254.324463	0.795730	city	8	1	0.648616	0.648616	0	1	0	0	CorrectCommission	0.188099	1.093017	0	1
255.120224	0.795800	mountain	8	1	0.648618	0.648618	0	0	1	0	CommissionError	0.188074	1.165127	0	1
255.916031	0.795812	city	2	1	0.504389	0.504389	0	1	0	0	CorrectCommission	1.825172	1.228005	0	1
256.711884	0.795899	city	8	1	0.897219	0.897219	0	1	0	0	CorrectCommission	2.633698	1.275800	0	1
257.507721	0.795800	city	9	1	1.046427	1.046427	0	1	0	0	CorrectCommission	4.327304	1.303780	0	1
258.303467	0.795694	mountain	9	0	0.000000	0.888966	1	0	0	0	CorrectOmission	2.540022	1.308881	0	1
259.099335	0.796019	city	6	1	0.648641	0.648641	0	1	0	0	CorrectCommission	0.187813	1.290188	0	1
259.895142	0.795583	city	1	1	0.549259	0.549259	0	1	0	0	CorrectCommission	1.315864	1.248873	0	1
260.690826	0.795800	city	4	1	0.797844	0.797844	0	1	0	0	CorrectCommission	1.505737	1.187918	0	1
261.486633	0.795802	city	7	1	0.600047	0.600047	0	1	0	0	CorrectCommission	0.739395	1.111738	0	1
262.282440	0.795805	city	8	1	0.553824	0.553824	0	1	0	0	CorrectCommission	1.264054	1.025577	0	1
263.078247	0.795803	city	5	1	0.549170	0.549170	0	1	0	0	CorrectCommission	1.316877	0.934868	0	1
263.874054	0.795799	city	3	1	0.649376	0.649376	0	1	0	0	CorrectCommission	0.179479	0.844738	0	1
264.669830	0.795800	city	10	1	0.698765	0.698765	0	1	0	0	CorrectCommission	0.381127	0.759648	0	1
265.465637	0.795805	city	2	1	0.698350	0.698350	0	1	0	0	CorrectCommission	0.376413	0.683035	0	1
266.261444	0.795800	city	8	1	0.698478	0.698478	0	1	0	0	CorrectCommission	0.377866	0.617302	0	1
267.057343	0.796021	mountain	4	0	0.000000	0.706653	1	0	0	0	CorrectOmission	0.470653	0.563766	1	1
267.853149	0.795580	city	7	1	0.698228	0.698228	0	1	0	0	CorrectCommission	0.375025	0.522759	1	1
268.648834	0.795801	city	6	1	0.648558	0.648558	0	1	0	0	CorrectCommission	0.188765	0.493791	1	1
269.444641	0.795805	city	10	1	0.599088	0.599088	0	1	0	0	CorrectCommission	0.750272	0.475721	1	1
270.240448	0.795797	city	8	1	0.648679	0.648679	0	1	0	0	CorrectCommission	0.187390	0.466930	1	1
271.036316	0.795914	mountain	5	0	0.000000	0.664309	1	0	0	0	CorrectOmission	0.009980	0.465527	1	1
271.832123	0.795692	city	2	1	0.649678	0.649678	0	1	0	0	CorrectCommission	0.176044	0.469519	1	1
272.627899	0.795872	city	10	1	0.608488	0.608488	0	1	0	0	CorrectCommission	0.643581	0.476974	1	1
273.423706	0.795731	city	5	1	0.600250	0.600250	0	1	0	0	CorrectCommission	0.737081	0.486149	1	1
274.219574	0.796019	city	1	1	0.560393	0.560393	0	1	0	0	CorrectCommission	1.189484	0.495664	1	1
275.015411	0.795657	city	2	1	0.657588	0.657588	0	1	0	0	CorrectCommission	0.086262	0.504543	1	1
275.811096	0.795727	city	8	1	0.613652	0.613652	0	1	0	0	CorrectCommission	0.584964	0.512309	1	1
276.606873	0.795808	city	9	1	0.600449	0.600449	0	1	0	0	CorrectCommission	0.734829	0.518919	1	1
277.402679	0.795795	city	1	1	0.610689	0.610689	0	1	0	0	CorrectCommission	0.618601	0.524654	1	1
278.198486	0.795843	city	9	1	0.698343	0.698343	0	1	0	0	CorrectCommission	0.376328	0.529978	1	1
278.994293	0.795763	city	8	1	0.648613	0.648613	0	1	0	0	CorrectCommission	0.188133	0.535419	1	1
279.790070	0.795800	city	7	1	0.748313	0.748313	0	1	0	0	CorrectCommission	0.943529	0.541392	1	1
280.585907	0.795852	city	3	1	0.661662	0.661662	0	1	0	0	CorrectCommission	0.040021	0.548098	1	1
281.381805	0.795967	city	7	1	0.698313	0.698313	0	1	0	0	CorrectCommission	0.375995	0.555565	1	1
282.177643	0.795692	city	5	1	0.602279	0.602279	0	1	0	0	CorrectCommission	0.714051	0.563589	1	1
282.973389	0.795802	city	7	1	0.698458	0.698458	0	1	0	0	CorrectCommission	0.377635	0.571864	1	1
283.769135	0.795695	city	4	1	0.748178	0.748178	0	1	0	0	CorrectCommission	0.941990	0.580096	1	1
284.564880	0.795803	city	9	1	0.614659	0.614659	0	1	0	0	CorrectCommission	0.573540	0.588091	1	1
285.360718	0.795871	city	10	1	0.549468	0.549468	0	1	0	0	CorrectCommission	1.313498	0.595831	1	1
286.156525	0.795732	mountain	5	0	0.000000	0.641789	1	0	0	0	CorrectOmission	0.265594	0.603454	1	1
286.952301	0.795803	city	9	1	0.716595	0.716595	0	1	0	0	CorrectCommission	0.583506	0.611211	0	1
287.748108	0.795811	city	8	1	0.598860	0.598860	0	1	0	0	CorrectCommission	0.752868	0.619304	0	1
288.543915	0.795857	city	9	1	0.648954	0.648954	0	1	0	0	CorrectCommission	0.184262	0.627759	0	1
289.339783	0.795841	mountain	8	0	0.000000	0.702339	1	0	0	0	CorrectOmission	0.421694	0.636309	0	1
290.135559	0.795693	mountain	6	1	0.716426	0.716426	0	0	1	0	CommissionError	0.581591	0.644318	0	1
290.931335	0.795869	city	5	1	0.648626	0.648626	0	1	0	0	CorrectCommission	0.187985	0.650846	0	1
291.727142	0.795737	city	1	1	0.605263	0.605263	0	1	0	0	CorrectCommission	0.680183	0.654771	0	1
292.522949	0.795908	city	8	1	0.797878	0.797878	0	1	0	0	CorrectCommission	1.506119	0.655031	0	1
293.318756	0.795720	city	1	1	0.598940	0.598940	0	1	0	0	CorrectCommission	0.751951	0.650868	0	1
294.114502	0.795773	city	2	1	0.558624	0.558624	0	1	0	0	CorrectCommission	1.209573	0.642075	0	1
294.910309	0.795806	city	9	1	0.599300	0.599300	0	1	0	0	CorrectCommission	0.747865	0.629082	0	1
295.706146	0.795907	city	8	1	0.605465	0.605465	0	1	0	0	CorrectCommission	0.677893	0.613035	0	1
296.501953	0.795698	city	10	1	0.598817	0.598817	0	1	0	0	CorrectCommission	0.753356	0.595635	1	1
297.297699	0.795799	city	1	1	0.648611	0.648611	0	1	0	0	CorrectCommission	0.188161	0.578913	1	1
298.093506	0.795801	city	7	1	0.648800	0.648800	0	1	0	0	CorrectCommission	0.186007	0.564952	1	1
298.889404	0.796018	city	10	1	0.648643	0.648643	0	1	0	0	CorrectCommission	0.187791	0.555541	1	1
299.685242	0.795636	city	4	1	0.598679	0.598679	0	1	0	0	CorrectCommission	0.754920	0.551899	1	1
300.480927	0.795751	city	7	1	0.652734	0.652734	0	1	0	0	CorrectCommission	0.141365	0.554478	1	1
301.276733	0.795816	city	3	1	0.618963	0.618963	0	1	0	0	CorrectCommission	0.524681	0.562922	1	1
302.072571	0.795895	mountain	1	0	0.000000	0.677306	1	0	0	0	CorrectOmission	0.137552	0.576066	1	1
302.868378	0.795693	city	9	1	0.711774	0.711774	0	1	0	0	CorrectCommission	0.528788	0.592128	1	1
303.664185	0.795908	city	10	1	0.606379	0.606379	0	1	0	0	CorrectCommission	0.667520	0.608957	0	1
304.459991	0.795714	city	3	1	0.599212	0.599212	0	1	0	0	CorrectCommission	0.748872	0.624331	0	1
305.255737	0.795780	city	5	1	0.549166	0.549166	0	1	0	0	CorrectCommission	1.316921	0.636246	0	1
306.051636	0.796021	city	10	1	0.549233	0.549233	0	1	0	0	CorrectCommission	1.316164	0.643206	0	1
306.847443	0.795610	city	9	1	0.698682	0.698682	0	1	0	0	CorrectCommission	0.380184	0.644329	0	0
307.643127	0.795777	city	4	1	0.648739	0.648739	0	1	0	0	CorrectCommission	0.186707	0.639473	0	0
308.438995	0.795908	city	6	1	0.549624	0.549624	0	1	0	0	CorrectCommission	1.311727	0.629163	0	0
309.234802	0.795719	city	9	1	0.598803	0.598803	0	1	0	0	CorrectCommission	0.753511	0.614451	0	0
310.030640	0.795993	city	7	1	0.648758	0.648758	0	1	0	0	CorrectCommission	0.186493	0.596792	1	0
310.826538	0.795803	city	4	1	0.598656	0.598656	0	1	0	0	CorrectCommission	0.755178	0.577868	1	0
311.622284	0.795692	city	2	1	0.648989	0.648989	0	1	0	0	CorrectCommission	0.183868	0.559301	1	0
312.418121	0.795965	city	1	1	0.598744	0.598744	0	1	0	0	CorrectCommission	0.754180	0.542591	1	0
313.213989	0.795746	city	3	1	0.698226	0.698226	0	1	0	0	CorrectCommission	0.375001	0.528922	1	0
314.009644	0.795585	city	6	1	0.698283	0.698283	0	1	0	0	CorrectCommission	0.375647	0.519131	1	0
314.805389	0.795910	city	2	1	0.705477	0.705477	0	1	0	0	CorrectCommission	0.457305	0.513668	1	0
315.601196	0.795692	city	10	1	0.660438	0.660438	0	1	0	0	CorrectCommission	0.053917	0.512601	1	0
316.397003	0.795909	city	5	1	0.748556	0.748556	0	1	0	0	CorrectCommission	0.946280	0.515686	1	0
317.192810	0.795693	city	1	1	0.707335	0.707335	0	1	0	0	CorrectCommission	0.478394	0.522349	1	0
317.988556	0.795803	mountain	2	0	0.000000	0.695890	1	0	0	0	CorrectOmission	0.348490	0.531859	1	0
318.784363	0.795801	city	5	1	0.698377	0.698377	0	1	0	0	CorrectCommission	0.376720	0.543327	1	0
319.580170	0.795845	city	1	1	0.698951	0.698951	0	1	0	0	CorrectCommission	0.383232	0.555798	1	0
320.376038	0.795867	city	3	1	0.698816	0.698816	0	1	0	0	CorrectCommission	0.381703	0.568312	1	0
321.171875	0.795800	city	6	1	0.847469	0.847469	0	1	0	0	CorrectCommission	2.069002	0.579949	1	0
321.967621	0.795699	city	5	1	0.650363	0.650363	0	1	0	0	CorrectCommission	0.168267	0.589831	1	0
322.763458	0.796014	city	7	1	0.698837	0.698837	0	1	0	0	CorrectCommission	0.381943	0.597251	1	0
323.559296	0.795643	mountain	1	0	0.000000	0.689083	1	0	0	0	CorrectOmission	0.271223	0.601580	1	0
324.355103	0.795961	mountain	2	0	0.000000	0.674811	1	0	0	0	CorrectOmission	0.109224	0.602389	1	0
325.150879	0.795584	city	3	1	0.709731	0.709731	0	1	0	0	CorrectCommission	0.505598	0.599482	1	0
325.946564	0.795799	city	6	1	0.847556	0.847556	0	1	0	0	CorrectCommission	2.069996	0.592922	1	0
326.742371	0.795813	city	5	1	0.613569	0.613569	0	1	0	0	CorrectCommission	0.585910	0.583081	1	0
327.538177	0.795794	city	6	1	0.748093	0.748093	0	1	0	0	CorrectCommission	0.941024	0.570747	1	0
328.333984	0.795801	city	2	1	0.698501	0.698501	0	1	0	0	CorrectCommission	0.378121	0.556963	1	0
329.129761	0.795800	city	7	1	0.657771	0.657771	0	1	0	0	CorrectCommission	0.084190	0.543025	1	0
329.925598	0.795867	city	1	1	0.649180	0.649180	0	1	0	0	CorrectCommission	0.181700	0.530291	1	0
330.721466	0.795845	city	5	1	0.649282	0.649282	0	1	0	0	CorrectCommission	0.180541	0.520066	1	0
331.517242	0.795692	city	8	1	0.748165	0.748165	0	1	0	0	CorrectCommission	0.941842	0.513509	1	0
332.312988	0.795842	city	1	1	0.648632	0.648632	0	1	0	0	CorrectCommission	0.187918	0.511540	1	0
333.108826	0.795826	city	3	1	0.599812	0.599812	0	1	0	0	CorrectCommission	0.742059	0.514845	1	0
333.904633	0.795788	city	9	1	0.613152	0.613152	0	1	0	0	CorrectCommission	0.590643	0.523821	1	0
334.700409	0.795751	city	3	1	0.648613	0.648613	0	1	0	0	CorrectCommission	0.188140	0.538657	1	0
335.496185	0.795804	city	6	1	0.698542	0.698542	0	1	0	0	CorrectCommission	0.378594	0.559340	1	0
336.292084	0.796016	city	10	1	0.704973	0.704973	0	1	0	0	CorrectCommission	0.451592	0.585639	1	0
337.087891	0.795588	city	5	1	0.700793	0.700793	0	1	0	0	CorrectCommission	0.404140	0.617106	0	0
337.883636	0.795906	city	9	1	0.748111	0.748111	0	1	0	0	CorrectCommission	0.941236	0.653074	0	0
338.679565	0.795911	city	2	1	0.712415	0.712415	0	1	0	0	CorrectCommission	0.536062	0.692557	0	0
339.475311	0.795586	city	3	1	0.748319	0.748319	0	1	0	0	CorrectCommission	0.943589	0.734313	0	0
340.270996	0.795798	city	8	1	0.748265	0.748265	0	1	0	0	CorrectCommission	0.942979	0.776727	0	0
341.066803	0.795802	mountain	1	0	0.000000	0.715970	1	0	0	0	CorrectOmission	0.576407	0.817869	0	0
341.862610	0.795804	city	6	1	0.662539	0.662539	0	1	0	0	CorrectCommission	0.030063	0.855563	0	0
342.658386	0.795803	city	8	1	0.599080	0.599080	0	1	0	0	CorrectCommission	0.750363	0.887529	0	0
343.454193	0.795800	city	4	1	0.553303	0.553303	0	1	0	0	CorrectCommission	1.269960	0.911539	0	0
344.250061	0.795908	city	3	1	0.465536	0.465536	0	1	0	0	CorrectCommission	2.266174	0.925752	0	0
345.045959	0.795912	city	4	1	0.549786	0.549786	0	1	0	0	CorrectCommission	1.309887	0.928916	0	0
345.841827	0.795800	city	6	1	0.598660	0.598660	0	1	0	0	CorrectCommission	0.755131	0.920622	0	0
346.637512	0.795586	city	2	1	0.558529	0.558529	0	1	0	0	CorrectCommission	1.210646	0.901355	0	0
347.433197	0.795799	city	5	1	0.517684	0.517684	0	1	0	0	CorrectCommission	1.674265	0.872465	0	0
348.229004	0.795806	city	7	1	0.608697	0.608697	0	1	0	0	CorrectCommission	0.641204	0.836030	0	0
349.024811	0.795817	city	4	1	0.698454	0.698454	0	1	0	0	CorrectCommission	0.377591	0.794618	0	0
349.820740	0.796002	city	1	1	0.618897	0.618897	0	1	0	0	CorrectCommission	0.525427	0.750986	0	0
350.616577	0.795692	city	3	1	0.598855	0.598855	0	1	0	0	CorrectCommission	0.752920	0.707734	0	0
351.412262	0.795696	city	2	1	0.617771	0.617771	0	1	0	0	CorrectCommission	0.538215	0.667101	0	0
352.208008	0.795808	city	1	1	0.649046	0.649046	0	1	0	0	CorrectCommission	0.183215	0.630789	0	0
353.003937	0.796010	city	7	1	0.698630	0.698630	0	1	0	0	CorrectCommission	0.379586	0.599859	1	0
353.799744	0.795646	city	2	1	0.711608	0.711608	0	1	0	0	CorrectCommission	0.526901	0.574759	1	0
354.595520	0.795848	city	9	1	0.750386	0.750386	0	1	0	0	CorrectCommission	0.967055	0.555407	1	0
355.391266	0.795700	city	3	1	0.698272	0.698272	0	1	0	0	CorrectCommission	0.375523	0.541305	1	0
356.187042	0.795795	city	9	1	0.716441	0.716441	0	1	0	0	CorrectCommission	0.581753	0.531721	1	0
356.982880	0.795883	city	5	1	0.698493	0.698493	0	1	0	0	CorrectCommission	0.378033	0.525774	1	0
357.778656	0.795720	city	10	1	0.698290	0.698290	0	1	0	0	CorrectCommission	0.375735	0.522568	1	0
358.574432	0.795810	city	9	1	0.698410	0.698410	0	1	0	0	CorrectCommission	0.377092	0.521252	1	0
359.370239	0.795795	city	4	1	0.698394	0.698394	0	1	0	0	CorrectCommission	0.376916	0.521095	1	0
360.166077	0.795909	city	6	1	0.748108	0.748108	0	1	0	0	CorrectCommission	0.941202	0.521513	1	0
360.961945	0.795801	mountain	2	0	0.000000	0.729036	1	0	0	0	CorrectOmission	0.724713	0.522082	1	0
361.757690	0.795696	city	4	1	0.698848	0.698848	0	1	0	0	CorrectCommission	0.382061	0.522557	1	0
362.553436	0.795800	city	3	1	0.715217	0.715217	0	1	0	0	CorrectCommission	0.567857	0.522891	1	0
363.349243	0.795804	city	2	1	0.614718	0.614718	0	1	0	0	CorrectCommission	0.572865	0.523183	1	0
364.145142	0.796018	city	6	1	0.648856	0.648856	0	1	0	0	CorrectCommission	0.185373	0.523817	1	0
364.940948	0.795585	city	5	1	0.598666	0.598666	0	1	0	0	CorrectCommission	0.755062	0.525288	1	0
365.736755	0.796018	mountain	4	0	0.000000	0.664778	1	0	0	0	CorrectOmission	0.004653	0.528323	1	0
366.532562	0.795581	city	2	1	0.747946	0.747946	0	1	0	0	CorrectCommission	0.939354	0.533978	1	1
367.328247	0.795833	city	1	1	0.748924	0.748924	0	1	0	0	CorrectCommission	0.950457	0.543580	1	1
368.124054	0.795775	city	10	1	0.648631	0.648631	0	1	0	0	CorrectCommission	0.187935	0.558792	1	1
368.919891	0.795853	city	5	1	0.612389	0.612389	0	1	0	0	CorrectCommission	0.599296	0.581560	1	1
369.715668	0.795745	city	7	1	0.648849	0.648849	0	1	0	0	CorrectCommission	0.185460	0.613940	0	1
370.511444	0.795806	city	5	1	0.698383	0.698383	0	1	0	0	CorrectCommission	0.376784	0.657912	0	1
371.307251	0.795800	city	1	1	0.705306	0.705306	0	1	0	0	CorrectCommission	0.455363	0.715040	0	1
372.103119	0.795910	city	3	1	0.748733	0.748733	0	1	0	0	CorrectCommission	0.948295	0.786145	0	1
372.898926	0.795694	city	6	1	0.752892	0.752892	0	1	0	0	CorrectCommission	0.995499	0.870934	0	1
373.694702	0.795865	city	7	1	0.698291	0.698291	0	1	0	0	CorrectCommission	0.375747	0.967748	0	1
374.490509	0.795790	city	4	1	0.648546	0.648546	0	1	0	0	CorrectCommission	0.188894	1.073394	0	1
375.286316	0.795805	city	9	1	0.599556	0.599556	0	1	0	0	CorrectCommission	0.744969	1.183169	0	1
376.082092	0.795758	city	5	1	0.598823	0.598823	0	1	0	0	CorrectCommission	0.753284	1.291145	0	1
376.877930	0.795897	city	1	1	0.753039	0.753039	0	1	0	0	CorrectCommission	0.997168	1.390738	0	1
377.673767	0.795803	city	9	1	0.812843	0.812843	0	1	0	0	CorrectCommission	1.675980	1.475424	0	1
378.469513	0.795692	city	5	1	0.762455	0.762455	0	1	0	0	CorrectCommission	1.104044	1.539561	0	1
379.265381	0.796020	city	8	1	1.354400	1.354400	0	1	0	0	CorrectCommission	7.822994	1.579171	0	1
380.061279	0.795801	city	3	1	0.904585	0.904585	0	1	0	0	CorrectCommission	2.717313	1.592247	0	1
380.856995	0.795582	city	10	1	0.607396	0.607396	0	1	0	0	CorrectCommission	0.655975	1.579260	0	1
381.652679	0.795805	city	9	1	0.555640	0.555640	0	1	0	0	CorrectCommission	1.243435	1.542650	0	1
382.448486	0.795799	city	4	1	0.598927	0.598927	0	1	0	0	CorrectCommission	0.752099	1.486278	0	1
383.244293	0.795862	city	9	1	0.610712	0.610712	0	1	0	0	CorrectCommission	0.618339	1.414827	0	1
384.040131	0.795811	city	5	1	0.600909	0.600909	0	1	0	0	CorrectCommission	0.729603	1.333035	0	1
384.835907	0.795742	mountain	4	1	0.549085	0.549085	0	0	1	0	CommissionError	1.317842	1.245143	0	1
385.631744	0.795903	city	7	1	0.508730	0.508730	0	1	0	0	CorrectCommission	1.775893	1.154614	0	1
386.427582	0.795802	city	5	1	0.798255	0.798255	0	1	0	0	CorrectCommission	1.510393	1.064039	0	1
387.223450	0.795909	city	8	1	0.797737	0.797737	0	1	0	0	CorrectCommission	1.504513	0.975312	0	1
388.019226	0.795633	city	4	1	0.648488	0.648488	0	1	0	0	CorrectCommission	0.189559	0.889785	0	1
388.814972	0.795861	city	6	1	0.599103	0.599103	0	1	0	0	CorrectCommission	0.750104	0.808598	0	1
389.610748	0.795698	city	7	1	0.598791	0.598791	0	1	0	0	CorrectCommission	0.753643	0.732786	0	1
390.406525	0.795843	city	10	1	0.614920	0.614920	0	1	0	0	CorrectCommission	0.570578	0.663472	0	1
391.202332	0.795757	city	4	1	0.698375	0.698375	0	1	0	0	CorrectCommission	0.376697	0.601855	1	1
391.998138	0.795910	city	2	1	0.698498	0.698498	0	1	0	0	CorrectCommission	0.378092	0.549151	1	1
392.794006	0.795801	city	8	1	0.698259	0.698259	0	1	0	0	CorrectCommission	0.375379	0.506469	1	1
393.589752	0.795690	city	4	1	0.651036	0.651036	0	1	0	0	CorrectCommission	0.160638	0.474664	1	1
394.385559	0.795914	city	2	1	0.649142	0.649142	0	1	0	0	CorrectCommission	0.182130	0.454213	1	1
395.181366	0.795694	city	4	1	0.706817	0.706817	0	1	0	0	CorrectCommission	0.472516	0.445058	1	1
395.977112	0.795802	city	8	1	0.650989	0.650989	0	1	0	0	CorrectCommission	0.161163	0.446590	1	1
396.773010	0.796016	city	6	1	0.650241	0.650241	0	1	0	0	CorrectCommission	0.169659	0.457540	1	1
397.568817	0.795587	city	5	1	0.652418	0.652418	0	1	0	0	CorrectCommission	0.144949	0.476181	1	1
398.364624	0.796018	city	8	1	0.608229	0.608229	0	1	0	0	CorrectCommission	0.646524	0.500432	1	1
399.160431	0.795583	city	6	1	0.600427	0.600427	0	1	0	0	CorrectCommission	0.735073	0.527990	1	1
399.956146	0.795865	city	2	1	0.648645	0.648645	0	1	0	0	CorrectCommission	0.187771	0.556609	1	1
400.751953	0.795739	city	6	1	0.598890	0.598890	0	1	0	0	CorrectCommission	0.752519	0.584270	1	1
401.547821	0.796019	mountain	6	1	0.602032	0.602032	0	0	1	0	CommissionError	0.716860	0.609366	0	1
402.343628	0.795588	city	10	1	0.502078	0.502078	0	1	0	0	CorrectCommission	1.851402	0.630840	0	1
403.139374	0.795907	city	3	1	0.648930	0.648930	0	1	0	0	CorrectCommission	0.184538	0.648192	0	1
403.935181	0.795699	city	5	1	0.712742	0.712742	0	1	0	0	CorrectCommission	0.539764	0.661541	0	1
404.730927	0.795796	mountain	10	1	0.698526	0.698526	0	0	1	0	CommissionError	0.378405	0.671382	0	1
405.526733	0.795803	city	4	1	0.517594	0.517594	0	1	0	0	CorrectCommission	1.675281	0.678510	0	1
406.322540	0.795811	city	5	1	0.617566	0.617566	0	1	0	0	CorrectCommission	0.540541	0.683699	0	1
407.118469	0.796034	city	2	1	0.653375	0.653375	0	1	0	0	CorrectCommission	0.134088	0.687659	0	1
407.914246	0.795558	city	6	1	0.649098	0.649098	0	1	0	0	CorrectCommission	0.182631	0.690830	0	1
408.709991	0.795907	city	1	1	0.648631	0.648631	0	1	0	0	CorrectCommission	0.187931	0.693376	0	1
409.505829	0.795757	city	7	1	0.565890	0.565890	0	1	0	0	CorrectCommission	1.127090	0.695227	0	1
410.301575	0.795742	city	2	1	0.549413	0.549413	0	1	0	0	CorrectCommission	1.314117	0.696180	0	1
411.097382	0.795869	city	6	1	0.599007	0.599007	0	1	0	0	CorrectCommission	0.751201	0.696079	0	1
411.893158	0.795733	city	1	1	0.549547	0.549547	0	1	0	0	CorrectCommission	1.312597	0.694964	0	1
412.689056	0.796017	city	6	1	0.698344	0.698344	0	1	0	0	CorrectCommission	0.376346	0.693038	0	1
413.484955	0.795802	city	4	1	0.698321	0.698321	0	1	0	0	CorrectCommission	0.376087	0.690749	0	1
414.280701	0.795693	city	8	1	0.717079	0.717079	0	1	0	0	CorrectCommission	0.588996	0.688659	0	1
415.076385	0.795691	city	7	1	0.797859	0.797859	0	1	0	0	CorrectCommission	1.505899	0.687312	0	1
415.872131	0.795806	city	9	1	0.652505	0.652505	0	1	0	0	CorrectCommission	0.143954	0.687070	0	1
416.667938	0.795802	city	10	1	0.649606	0.649606	0	1	0	0	CorrectCommission	0.176861	0.688069	0	1
417.463745	0.795797	city	9	1	0.649243	0.649243	0	1	0	0	CorrectCommission	0.180981	0.690146	0	1
418.259583	0.795869	city	6	1	0.648710	0.648710	0	1	0	0	CorrectCommission	0.187032	0.692928	0	1
419.055389	0.795740	city	8	1	0.560785	0.560785	0	1	0	0	CorrectCommission	1.185037	0.696017	0	1
419.851166	0.795802	city	5	1	0.549523	0.549523	0	1	0	0	CorrectCommission	1.312874	0.699140	0	1
420.646973	0.795802	city	6	1	0.848345	0.848345	0	1	0	0	CorrectCommission	2.078953	0.702376	0	1
421.442871	0.796043	city	1	1	0.648670	0.648670	0	1	0	0	CorrectCommission	0.187485	0.706161	0	1
422.238678	0.795561	city	2	1	0.599705	0.599705	0	1	0	0	CorrectCommission	0.743275	0.711318	0	1
423.034363	0.795797	city	10	1	0.648727	0.648727	0	1	0	0	CorrectCommission	0.186845	0.718737	0	1
423.830261	0.796020	city	5	1	0.605551	0.605551	0	1	0	0	CorrectCommission	0.676922	0.729197	0	1
424.626068	0.795585	city	6	1	0.648439	0.648439	0	1	0	0	CorrectCommission	0.190108	0.743015	0	1
425.421783	0.795810	city	7	1	0.655394	0.655394	0	1	0	0	CorrectCommission	0.111164	0.759828	0	1
426.217560	0.795795	city	10	1	0.698339	0.698339	0	1	0	0	CorrectCommission	0.376283	0.778457	0	0
427.013489	0.796016	city	7	1	0.847587	0.847587	0	1	0	0	CorrectCommission	2.070352	0.796946	0	0
427.809265	0.795587	city	6	1	0.698125	0.698125	0	1	0	0	CorrectCommission	0.373858	0.812763	0	0
428.604980	0.795807	city	10	1	0.648855	0.648855	0	1	0	0	CorrectCommission	0.185384	0.823260	0	0
429.400879	0.796012	city	1	1	0.551152	0.551152	0	1	0	0	CorrectCommission	1.294385	0.825968	0	0
430.196686	0.795584	city	3	1	0.499207	0.499207	0	1	0	0	CorrectCommission	1.883985	0.819039	0	0
430.992432	0.795909	city	2	1	0.499518	0.499518	0	1	0	0	CorrectCommission	1.880462	0.801552	0	0
431.788239	0.795697	city	9	1	0.549074	0.549074	0	1	0	0	CorrectCommission	1.317968	0.773676	0	0
432.583984	0.795796	mountain	2	0	0.000000	0.617772	1	0	0	0	CorrectOmission	0.538196	0.736650	0	0
433.379791	0.795805	city	7	1	0.664632	0.664632	0	1	0	0	CorrectCommission	0.006308	0.692577	0	0
434.175598	0.795806	city	9	1	0.648672	0.648672	0	1	0	0	CorrectCommission	0.187466	0.644120	0	0
434.971375	0.795800	city	4	1	0.598932	0.598932	0	1	0	0	CorrectCommission	0.752047	0.594142	1	0
435.767181	0.795797	city	6	1	0.605927	0.605927	0	1	0	0	CorrectCommission	0.672646	0.545452	1	0
436.562988	0.795804	city	3	1	0.649216	0.649216	0	1	0	0	CorrectCommission	0.181293	0.500557	1	0
437.358795	0.795800	mountain	4	0	0.000000	0.688473	1	0	0	0	CorrectOmission	0.264302	0.461510	1	0
438.154602	0.795802	city	2	1	0.698360	0.698360	0	1	0	0	CorrectCommission	0.376527	0.429919	1	0
438.950500	0.796018	city	3	1	0.653538	0.653538	0	1	0	0	CorrectCommission	0.132230	0.407106	1	0
439.746399	0.795802	city	4	1	0.698115	0.698115	0	1	0	0	CorrectCommission	0.373746	0.394139	1	0
440.542114	0.795621	city	5	1	0.614670	0.614670	0	1	0	0	CorrectCommission	0.573410	0.391980	1	0
441.337830	0.795764	city	4	1	0.699008	0.699008	0	1	0	0	CorrectCommission	0.383885	0.401522	1	0
442.133698	0.796019	city	3	1	0.648783	0.648783	0	1	0	0	CorrectCommission	0.186211	0.423567	1	0
442.929626	0.795801	city	2	1	0.648628	0.648628	0	1	0	0	CorrectCommission	0.187966	0.458678	1	0
443.725433	0.795804	city	8	1	0.655213	0.655213	0	1	0	0	CorrectCommission	0.113222	0.506985	1	0
444.521118	0.795619	city	6	1	0.659806	0.659806	0	1	0	0	CorrectCommission	0.061087	0.567920	1	0
445.316925	0.795982	city	7	1	0.608997	0.608997	0	1	0	0	CorrectCommission	0.637800	0.640075	0	0
446.112701	0.795587	city	8	1	0.648739	0.648739	0	1	0	0	CorrectCommission	0.186700	0.720987	0	0
446.908447	0.795906	city	6	1	0.698362	0.698362	0	1	0	0	CorrectCommission	0.376553	0.807166	0	0
447.704376	0.795912	city	1	1	0.847483	0.847483	0	1	0	0	CorrectCommission	2.069171	0.894205	0	0
448.500122	0.795589	city	2	1	0.698151	0.698151	0	1	0	0	CorrectCommission	0.374150	0.977050	0	0
449.295807	0.795799	city	8	1	0.698399	0.698399	0	1	0	0	CorrectCommission	0.376972	1.050564	0	0
450.091675	0.795909	city	9	1	0.648676	0.648676	0	1	0	0	CorrectCommission	0.187420	1.109938	0	0
450.887482	0.795695	city	4	1	0.952854	0.952854	0	1	0	0	CorrectCommission	3.265193	1.151314	0	0
451.683228	0.795801	city	3	1	1.058980	1.058980	0	1	0	0	CorrectCommission	4.469797	1.172158	0	0
452.479065	0.795907	city	4	1	0.757602	0.757602	0	1	0	0	CorrectCommission	1.048959	1.171645	0	0
453.274902	0.795742	city	7	1	0.699340	0.699340	0	1	0	0	CorrectCommission	0.387648	1.150795	0	0
454.070648	0.795773	city	6	1	0.847617	0.847617	0	1	0	0	CorrectCommission	2.070682	1.112157	0	0
454.866455	0.795841	city	9	1	0.698482	0.698482	0	1	0	0	CorrectCommission	0.377905	1.059461	0	0
455.662354	0.795960	mountain	6	0	0.000000	0.696278	1	0	0	0	CorrectOmission	0.352893	0.997214	0	0
456.458252	0.795802	city	4	1	0.748006	0.748006	0	1	0	0	CorrectCommission	0.940036	0.930088	0	0
457.253937	0.795587	city	2	1	0.760665	0.760665	0	1	0	0	CorrectCommission	1.083722	0.862469	0	0
458.049744	0.796017	city	7	1	0.709085	0.709085	0	1	0	0	CorrectCommission	0.498264	0.798132	0	0
458.845551	0.795583	city	6	1	0.698182	0.698182	0	1	0	0	CorrectCommission	0.374499	0.740053	0	0
459.641357	0.796027	city	1	1	0.698709	0.698709	0	1	0	0	CorrectCommission	0.380481	0.690310	0	0
460.437134	0.795576	city	6	1	0.798022	0.798022	0	1	0	0	CorrectCommission	1.507748	0.650114	0	0
461.232880	0.795911	city	10	1	0.663386	0.663386	0	1	0	0	CorrectCommission	0.020447	0.619887	0	0
462.028687	0.795694	city	1	1	0.698605	0.698605	0	1	0	0	CorrectCommission	0.379302	0.599453	1	0
462.824432	0.795800	city	10	1	0.701480	0.701480	0	1	0	0	CorrectCommission	0.411939	0.588092	1	0
463.620239	0.795802	city	8	1	0.664707	0.664707	0	1	0	0	CorrectCommission	0.005455	0.584782	1	0
464.416138	0.796021	city	10	1	0.603763	0.603763	0	1	0	0	CorrectCommission	0.697208	0.588361	1	0
465.211975	0.795628	mountain	4	0	0.000000	0.662562	1	0	0	0	CorrectOmission	0.029802	0.597629	1	0
466.007660	0.795760	city	9	1	0.748404	0.748404	0	1	0	0	CorrectCommission	0.944554	0.611590	0	0
466.803497	0.795907	mountain	7	0	0.000000	0.768587	1	0	0	0	CorrectOmission	1.173651	0.629484	0	0
467.599304	0.795701	city	1	1	0.757506	0.757506	0	1	0	0	CorrectCommission	1.047864	0.650854	0	0
468.395050	0.795793	city	7	1	0.749550	0.749550	0	1	0	0	CorrectCommission	0.957569	0.675465	0	0
469.190857	0.795805	city	10	1	0.657464	0.657464	0	1	0	0	CorrectCommission	0.087676	0.703137	0	0
469.986755	0.796017	city	1	1	0.599265	0.599265	0	1	0	0	CorrectCommission	0.748267	0.733628	0	0
470.782562	0.795585	mountain	5	0	0.000000	0.629183	1	0	0	0	CorrectOmission	0.408674	0.766342	0	0
471.578247	0.795799	mountain	2	0	0.000000	0.683477	1	0	0	0	CorrectOmission	0.207596	0.800160	0	0
472.374054	0.795801	city	6	1	0.698405	0.698405	0	1	0	0	CorrectCommission	0.377034	0.833434	0	0
473.169922	0.795912	city	9	1	0.610225	0.610225	0	1	0	0	CorrectCommission	0.623867	0.864063	0	0
473.965729	0.795697	city	8	1	0.552215	0.552215	0	1	0	0	CorrectCommission	1.282311	0.889717	0	0
474.761566	0.796015	city	9	1	0.511597	0.511597	0	1	0	0	CorrectCommission	1.743352	0.908158	0	0
475.557373	0.795586	city	4	1	0.499180	0.499180	0	1	0	0	CorrectCommission	1.884293	0.917609	0	0
476.353058	0.795801	city	5	1	0.499701	0.499701	0	1	0	0	CorrectCommission	1.878382	0.916991	0	0
477.148926	0.795907	mountain	10	1	0.598873	0.598873	0	0	1	0	CommissionError	0.752711	0.906100	0	0
477.944733	0.795698	mountain	6	0	0.000000	0.678473	1	0	0	0	CorrectOmission	0.150792	0.885568	0	0
478.740509	0.795868	mountain	1	0	0.000000	0.733360	1	0	0	0	CorrectOmission	0.773795	0.856745	0	0
479.536316	0.795731	mountain	4	0	0.000000	0.758396	1	0	0	0	CorrectOmission	1.057969	0.821412	0	0
480.332092	0.795826	city	1	1	0.748442	0.748442	0	1	0	0	CorrectCommission	0.944983	0.781548	0	0
481.127899	0.795777	city	3	1	0.698358	0.698358	0	1	0	0	CorrectCommission	0.376507	0.739060	0	0
481.923676	0.795806	city	4	1	0.748693	0.748693	0	1	0	0	CorrectCommission	0.947834	0.695559	0	0
482.719574	0.796016	city	7	1	0.648578	0.648578	0	1	0	0	CorrectCommission	0.188529	0.652249	0	0
483.515381	0.795588	city	10	1	0.598698	0.598698	0	1	0	0	CorrectCommission	0.754705	0.609904	0	0
484.311096	0.795796	city	4	1	0.613718	0.613718	0	1	0	0	CorrectCommission	0.584214	0.568852	1	0
485.106995	0.796021	city	10	1	0.698352	0.698352	0	1	0	0	CorrectCommission	0.376433	0.529085	1	0
485.902893	0.795803	city	9	1	0.748162	0.748162	0	1	0	0	CorrectCommission	0.941810	0.490322	1	0
486.698608	0.795585	city	3	1	0.705018	0.705018	0	1	0	0	CorrectCommission	0.452101	0.452101	1	0
