onset	duration	trial_type	image_type	Press	ReactionTime	ReactionTime_Interpolated	CorrectOmission	CorrectCommission	CommissionError	OmissionError	response_type	nonsmoothVarianceTimeCourse	VarianceTimeCourse	In_the_Zone	ThoughtProbe	ThoughtProbe_Interpolated
0.652751	1.279384	city	1	1	1.231271	1.231271	0	1	0	0	CorrectCommission	0.162697	0.162697	1	0	95
1.938976	1.293066	city	8	1	1.140615	1.140615	0	1	0	0	CorrectCommission	0.824726	0.224981	1	0	95
3.225310	1.279601	mountain	2	0	0.000000	1.122622	1	0	0	0	CorrectOmission	0.956123	0.285898	1	0	95
4.504808	1.279397	mountain	9	0	0.000000	1.151549	1	0	0	0	CorrectOmission	0.744880	0.344252	1	0	95
5.784308	1.279601	city	8	1	1.201653	1.201653	0	1	0	0	CorrectCommission	0.378988	0.399149	1	0	95
7.064006	1.279795	city	7	1	1.247191	1.247191	0	1	0	0	CorrectCommission	0.046439	0.450056	1	0	95
8.350329	1.292852	city	9	1	1.163843	1.163843	0	1	0	0	CorrectCommission	0.655101	0.496789	1	0	95
9.636537	1.279561	city	3	1	1.206510	1.206510	0	1	0	0	CorrectCommission	0.343520	0.539363	1	0	95
10.922769	1.292903	city	4	1	1.111639	1.111639	0	1	0	0	CorrectCommission	1.036330	0.577917	1	0	95
12.208942	1.279444	city	6	1	1.337629	1.337629	0	1	0	0	CorrectCommission	0.613997	0.612542	1	0	95
13.488461	1.279592	city	9	1	1.287631	1.287631	0	1	0	0	CorrectCommission	0.248878	0.643238	1	0	95
14.781367	1.306223	city	3	1	1.202570	1.202570	0	1	0	0	CorrectCommission	0.372294	0.669869	1	0	95
16.074270	1.279582	city	4	1	1.129390	1.129390	0	1	0	0	CorrectCommission	0.906699	0.692211	1	0	95
17.360584	1.293046	city	5	1	1.146063	1.146063	0	1	0	0	CorrectCommission	0.784947	0.710040	1	0	95
18.646854	1.279496	city	2	1	1.027483	1.027483	0	1	0	0	CorrectCommission	1.650893	0.723256	1	0	95
19.953100	1.332993	city	10	1	1.335145	1.335145	0	1	0	0	CorrectCommission	0.595858	0.731940	1	0	95
21.259377	1.279559	city	6	1	1.400216	1.400216	0	1	0	0	CorrectCommission	1.071047	0.736502	1	0	95
22.538958	1.279604	city	1	1	1.351816	1.351816	0	1	0	0	CorrectCommission	0.717600	0.737589	1	0	95
23.818523	1.279530	city	10	1	1.284795	1.284795	0	1	0	0	CorrectCommission	0.228166	0.736091	1	0	95
25.098091	1.279603	mountain	6	0	0.000000	1.340849	1	0	0	0	CorrectOmission	0.637507	0.733008	1	0	95
26.377684	1.279584	city	7	1	1.405892	1.405892	0	1	0	0	CorrectCommission	1.112493	0.729305	1	0	95
27.657276	1.279602	mountain	7	0	0.000000	1.365838	1	0	0	0	CorrectOmission	0.819995	0.725833	1	0	95
28.950140	1.306126	city	4	1	1.277219	1.277219	0	1	0	0	CorrectCommission	0.172842	0.723235	1	0	95
30.249630	1.292854	city	9	1	1.196566	1.196566	0	1	0	0	CorrectCommission	0.416142	0.721935	1	0	95
31.535849	1.279582	city	10	1	1.195510	1.195510	0	1	0	0	CorrectCommission	0.423850	0.722135	1	0	95
32.815464	1.279649	city	6	1	1.462574	1.462574	0	1	0	0	CorrectCommission	1.526427	0.723890	1	0	95
34.095028	1.279478	city	3	1	1.448221	1.448221	0	1	0	0	CorrectCommission	1.421608	0.727166	1	0	95
35.374557	1.279582	city	9	1	1.289784	1.289784	0	1	0	0	CorrectCommission	0.264597	0.731925	1	0	95
36.654232	1.279764	city	10	1	1.177796	1.177796	0	1	0	0	CorrectCommission	0.553210	0.738142	1	0	95
37.933815	1.279406	city	6	1	1.284076	1.284076	0	1	0	0	CorrectCommission	0.222913	0.745831	1	0	95
39.226715	1.306390	city	5	1	1.185872	1.185872	0	1	0	0	CorrectCommission	0.494234	0.755063	1	0	95
40.526363	1.292910	city	7	1	1.084284	1.084284	0	1	0	0	CorrectCommission	1.236095	0.765911	1	0	95
41.832603	1.319569	city	10	1	1.054140	1.054140	0	1	0	0	CorrectCommission	1.456227	0.778486	1	0	95
43.132103	1.279431	city	7	1	1.300996	1.300996	0	1	0	0	CorrectCommission	0.346478	0.792941	1	0	95
44.418293	1.292944	city	1	1	1.273328	1.273328	0	1	0	0	CorrectCommission	0.144431	0.809498	0	0	95
45.711224	1.292923	city	4	1	1.138361	1.138361	0	1	0	0	CorrectCommission	0.841193	0.828392	0	0	95
47.010777	1.306185	city	5	1	1.100898	1.100898	0	1	0	0	CorrectCommission	1.114772	0.849851	0	0	95
48.317020	1.306302	city	10	1	1.044646	1.044646	0	1	0	0	CorrectCommission	1.525561	0.874078	0	0	95
49.616673	1.292999	city	4	1	1.149943	1.149943	0	1	0	0	CorrectCommission	0.756608	0.901138	0	0	95
50.909538	1.292733	city	6	1	1.222916	1.222916	0	1	0	0	CorrectCommission	0.223711	0.930848	0	0	95
52.202450	1.293089	city	3	1	1.102993	1.102993	0	1	0	0	CorrectCommission	1.099472	0.962684	0	0	95
53.508770	1.319548	city	9	1	1.171978	1.171978	0	1	0	0	CorrectCommission	0.595694	0.995613	0	0	95
54.821693	1.306305	city	5	1	1.104455	1.104455	0	1	0	0	CorrectCommission	1.088794	1.028128	0	0	95
56.114609	1.279526	city	7	1	1.089963	1.089963	0	1	0	0	CorrectCommission	1.194620	1.058264	0	0	95
57.394154	1.279562	city	8	1	1.361002	1.361002	0	1	0	0	CorrectCommission	0.784682	1.083749	0	0	95
61.386181	6.704491	break	0	0	0.000000	1.478359	0	0	0	0	ThoughtProbe	1.641701	1.102245	0	95	95
65.398193	1.319534	city	7	1	1.424470	1.424470	0	1	0	0	CorrectCommission	1.248163	1.111614	0	0	9.482353e+01
66.724411	1.332898	city	5	1	1.181768	1.181768	0	1	0	0	CorrectCommission	0.524204	1.110277	0	0	9.464706e+01
68.037308	1.292907	mountain	7	1	0.981242	0.981242	0	0	1	0	CommissionError	1.988575	1.097465	0	0	9.447059e+01
69.323471	1.279415	city	1	1	1.670036	1.670036	0	1	0	0	CorrectCommission	3.041446	1.073367	0	0	9.429412e+01
70.602966	1.279578	city	9	1	1.356081	1.356081	0	1	0	0	CorrectCommission	0.748742	1.039205	0	0	9.411765e+01
71.889221	1.292933	city	6	1	1.154374	1.154374	0	1	0	0	CorrectCommission	0.724256	0.997169	0	0	9.394118e+01
73.208885	1.346390	city	8	1	1.158887	1.158887	0	1	0	0	CorrectCommission	0.691292	0.950046	0	0	9.376471e+01
74.528519	1.292882	city	1	1	1.089446	1.089446	0	1	0	0	CorrectCommission	1.198400	0.900950	0	0	9.358824e+01
75.828018	1.306110	city	10	1	1.276155	1.276155	0	1	0	0	CorrectCommission	0.165072	0.852918	0	0	9.341176e+01
77.120850	1.279552	city	3	1	1.307022	1.307022	0	1	0	0	CorrectCommission	0.390482	0.808689	0	0	9.323529e+01
78.433746	1.346240	city	5	1	1.242962	1.242962	0	1	0	0	CorrectCommission	0.077321	0.770429	1	0	9.305882e+01
79.753304	1.292882	city	8	1	1.108564	1.108564	0	1	0	0	CorrectCommission	1.058790	0.739649	1	0	9.288235e+01
81.052940	1.306385	city	6	1	1.244562	1.244562	0	1	0	0	CorrectCommission	0.065638	0.717255	1	0	9.270588e+01
82.352600	1.292942	city	2	1	1.029359	1.029359	0	1	0	0	CorrectCommission	1.637190	0.703694	1	0	9.252941e+01
83.638786	1.279424	city	8	1	1.149949	1.149949	0	1	0	0	CorrectCommission	0.756567	0.699010	1	0	9.235294e+01
84.924942	1.292882	city	9	1	1.170623	1.170623	0	1	0	0	CorrectCommission	0.605591	0.703024	1	0	9.217647e+01
86.217918	1.293085	city	10	1	1.098487	1.098487	0	1	0	0	CorrectCommission	1.132373	0.715291	1	0	92
87.504242	1.279552	city	2	1	1.247147	1.247147	0	1	0	0	CorrectCommission	0.046765	0.735051	1	0	9.182353e+01
88.797073	1.306115	city	3	1	1.271113	1.271113	0	1	0	0	CorrectCommission	0.128249	0.761180	1	0	9.164706e+01
90.089989	1.279720	city	8	1	1.250430	1.250430	0	1	0	0	CorrectCommission	0.022792	0.792074	1	0	9.147059e+01
91.396255	1.332805	city	10	1	1.134555	1.134555	0	1	0	0	CorrectCommission	0.868981	0.825685	0	0	9.129412e+01
92.702408	1.279498	city	8	1	1.125326	1.125326	0	1	0	0	CorrectCommission	0.936382	0.859577	0	0	9.111765e+01
94.001953	1.319591	city	5	1	1.350948	1.350948	0	1	0	0	CorrectCommission	0.711258	0.891153	0	0	9.094118e+01
95.341507	1.359527	mountain	2	0	0.000000	1.534401	1	0	0	0	CorrectOmission	2.050952	0.917972	0	0	9.076471e+01
96.661140	1.279742	city	4	1	1.513079	1.513079	0	1	0	0	CorrectCommission	1.895243	0.937981	0	0	9.058824e+01
97.940804	1.279583	city	9	1	1.124375	1.124375	0	1	0	0	CorrectCommission	0.943325	0.949803	0	0	9.041176e+01
99.233681	1.306161	city	4	1	1.088291	1.088291	0	1	0	0	CorrectCommission	1.206837	0.952955	0	0	9.023529e+01
100.539833	1.306145	city	7	1	1.218776	1.218776	0	1	0	0	CorrectCommission	0.253943	0.947802	0	0	9.005882e+01
101.839394	1.292979	city	4	1	1.146591	1.146591	0	1	0	0	CorrectCommission	0.781091	0.935540	0	0	8.988235e+01
103.145714	1.319662	city	10	1	1.020809	1.020809	0	1	0	0	CorrectCommission	1.699631	0.917938	0	0	8.970588e+01
104.451981	1.292877	city	7	1	1.306047	1.306047	0	1	0	0	CorrectCommission	0.383362	0.897188	0	0	8.952941e+01
105.744843	1.292839	city	5	1	1.434516	1.434516	0	1	0	0	CorrectCommission	1.321529	0.875702	0	0	8.935294e+01
107.031013	1.279511	city	8	1	1.410200	1.410200	0	1	0	0	CorrectCommission	1.143953	0.855757	0	0	8.917647e+01
107.670769	10.396611	break	0	0	0.000000	1.343318	0	0	0	0	ThoughtProbe	0.655537	0.839333	0	89	89
118.707077	1.279384	city	6	1	1.252237	1.252237	0	1	0	0	CorrectCommission	0.009591	0.827958	0	0	89
120.000046	1.306565	city	8	1	1.155326	1.155326	0	1	0	0	CorrectCommission	0.717303	0.822539	0	0	89
121.306465	1.306265	city	4	1	1.230507	1.230507	0	1	0	0	CorrectCommission	0.168282	0.823351	0	0	89
122.606041	1.292881	mountain	10	0	0.000000	1.301678	1	0	0	0	CorrectOmission	0.351457	0.830106	0	0	89
123.892189	1.279416	city	1	1	1.390046	1.390046	0	1	0	0	CorrectCommission	0.996777	0.842031	0	0	89
125.178352	1.292916	mountain	3	0	0.000000	1.516817	1	0	0	0	CorrectOmission	1.922540	0.858016	0	0	89
126.464600	1.279584	city	3	1	1.526934	1.526934	0	1	0	0	CorrectCommission	1.996427	0.876746	0	0	89
127.750847	1.292899	city	9	1	1.265343	1.265343	0	1	0	0	CorrectCommission	0.086116	0.896825	0	0	89
129.063766	1.332947	city	3	1	1.284354	1.284354	0	1	0	0	CorrectCommission	0.224947	0.916803	0	0	89
130.370087	1.279689	city	7	1	1.348003	1.348003	0	1	0	0	CorrectCommission	0.689751	0.935180	0	0	89
131.649643	1.279424	city	2	1	1.308140	1.308140	0	1	0	0	CorrectCommission	0.398650	0.950452	0	0	89
132.962524	1.346351	mountain	4	0	0.000000	1.407087	1	0	0	0	CorrectOmission	1.121224	0.961207	0	0	89
134.275513	1.279603	city	10	1	1.519793	1.519793	0	1	0	0	CorrectCommission	1.944276	0.966214	0	0	89
135.561676	1.292745	city	9	1	1.521208	1.521208	0	1	0	0	CorrectCommission	1.954606	0.964588	0	0	89
136.847855	1.279617	city	6	1	1.314678	1.314678	0	1	0	0	CorrectCommission	0.446393	0.955950	0	0	89
138.154129	1.332908	city	4	1	1.180964	1.180964	0	1	0	0	CorrectCommission	0.530073	0.940572	0	0	89
139.480347	1.319533	city	8	1	1.005104	1.005104	0	1	0	0	CorrectCommission	1.814321	0.919367	0	0	89
140.786560	1.292891	city	9	1	1.112106	1.112106	0	1	0	0	CorrectCommission	1.032920	0.893822	0	0	89
142.086197	1.306401	city	6	1	1.152521	1.152521	0	1	0	0	CorrectCommission	0.737783	0.865954	0	0	89
143.379196	1.279578	city	1	1	1.139577	1.139577	0	1	0	0	CorrectCommission	0.832307	0.838032	0	0	89
144.658707	1.279442	city	6	1	1.313980	1.313980	0	1	0	0	CorrectCommission	0.441293	0.812335	0	0	89
145.951538	1.306229	city	4	1	1.358729	1.358729	0	1	0	0	CorrectCommission	0.768080	0.790923	1	0	89
147.264587	1.319866	city	2	1	1.267196	1.267196	0	1	0	0	CorrectCommission	0.099651	0.775395	1	0	89
148.564209	1.279380	city	9	1	1.355865	1.355865	0	1	0	0	CorrectCommission	0.747168	0.766749	1	0	89
149.863647	1.319488	city	4	1	1.228924	1.228924	0	1	0	0	CorrectCommission	0.179840	0.765260	1	0	89
151.163162	1.279569	mountain	9	1	1.124596	1.124596	0	0	1	0	CommissionError	0.941708	0.770522	1	0	89
152.442810	1.279711	city	3	1	1.017639	1.017639	0	1	0	0	CorrectCommission	1.722780	0.781467	1	0	89
153.729034	1.292746	city	10	1	1.274681	1.274681	0	1	0	0	CorrectCommission	0.154311	0.796500	1	0	89
155.015289	1.279762	city	5	1	1.376814	1.376814	0	1	0	0	CorrectCommission	0.900152	0.813714	0	0	89
156.316605	1.322861	city	6	1	1.260440	1.260440	0	1	0	0	CorrectCommission	0.050314	0.831007	0	0	89
157.622833	1.289592	city	1	1	1.106791	1.106791	0	1	0	0	CorrectCommission	1.071733	0.846354	0	0	89
158.907410	1.279580	city	3	1	1.035638	1.035638	0	1	0	0	CorrectCommission	1.591338	0.857933	0	0	89
160.186996	1.279577	city	10	1	1.367176	1.367176	0	1	0	0	CorrectCommission	0.829769	0.864403	0	0	89
161.486496	1.319417	city	4	1	1.383079	1.383079	0	1	0	0	CorrectCommission	0.945904	0.865078	0	0	89
162.792740	1.293074	city	10	1	1.357139	1.357139	0	1	0	0	CorrectCommission	0.756467	0.860018	0	0	89
164.092377	1.306222	city	4	1	1.461444	1.461444	0	1	0	0	CorrectCommission	1.518172	0.850076	0	0	89
165.398621	1.306241	city	6	1	1.468897	1.468897	0	1	0	0	CorrectCommission	1.572600	0.836792	0	0	89
166.738098	1.372721	city	9	1	1.307992	1.307992	0	1	0	0	CorrectCommission	0.397564	0.822219	0	0	89
168.064316	1.279727	city	10	1	1.140498	1.140498	0	1	0	0	CorrectCommission	0.825585	0.808629	0	0	89
169.350647	1.292931	city	3	1	1.191486	1.191486	0	1	0	0	CorrectCommission	0.453236	0.798110	0	0	89
170.650192	1.306146	city	8	1	1.205236	1.205236	0	1	0	0	CorrectCommission	0.352822	0.792293	1	0	89
171.943085	1.279655	city	9	1	1.231555	1.231555	0	1	0	0	CorrectCommission	0.160630	0.792042	1	0	89
173.222626	1.279428	city	1	1	1.342195	1.342195	0	1	0	0	CorrectCommission	0.647341	0.797316	0	0	89
174.562103	1.399530	city	4	1	1.300500	1.300500	0	1	0	0	CorrectCommission	0.342857	0.807192	0	0	89
175.901749	1.279765	city	9	1	1.337864	1.337864	0	1	0	0	CorrectCommission	0.615712	0.820045	0	0	89
179.753830	6.424388	break	0	0	0.000000	1.412425	0	0	0	0	ThoughtProbe	1.160208	0.833820	0	89	89
183.612564	1.293070	mountain	3	0	0.000000	1.477177	1	0	0	0	CorrectOmission	1.633069	0.846413	0	0	8.917647e+01
184.898788	1.279395	city	7	1	1.485113	1.485113	0	1	0	0	CorrectCommission	1.691018	0.855984	0	0	8.935294e+01
186.198273	1.319563	city	5	1	1.389224	1.389224	0	1	0	0	CorrectCommission	0.990778	0.861190	0	0	8.952941e+01
187.531250	1.346389	city	6	1	1.417395	1.417395	0	1	0	0	CorrectCommission	1.196501	0.861341	0	0	8.970588e+01
188.864151	1.319403	city	1	1	1.209593	1.209593	0	1	0	0	CorrectCommission	0.321006	0.856326	0	0	8.988235e+01
190.176956	1.306234	city	5	1	1.296196	1.296196	0	1	0	0	CorrectCommission	0.311424	0.846567	0	0	9.005882e+01
191.489960	1.319766	city	4	1	1.264420	1.264420	0	1	0	0	CorrectCommission	0.079376	0.832812	0	0	9.023529e+01
192.809525	1.319367	city	8	1	1.435234	1.435234	0	1	0	0	CorrectCommission	1.326772	0.816003	0	0	9.041176e+01
194.135666	1.332895	city	9	1	1.474919	1.474919	0	1	0	0	CorrectCommission	1.616574	0.797149	0	0	9.058824e+01
195.441986	1.279764	city	4	1	1.373241	1.373241	0	1	0	0	CorrectCommission	0.874058	0.777276	1	0	9.076471e+01
196.728241	1.292750	city	5	1	1.325301	1.325301	0	1	0	0	CorrectCommission	0.523969	0.757400	1	0	9.094118e+01
198.021088	1.292918	city	6	1	1.425906	1.425906	0	1	0	0	CorrectCommission	1.258651	0.738416	1	0	9.111765e+01
199.340744	1.346407	city	3	1	1.274666	1.274666	0	1	0	0	CorrectCommission	0.154198	0.721049	1	0	9.129412e+01
200.667038	1.306179	city	8	1	1.194357	1.194357	0	1	0	0	CorrectCommission	0.432269	0.705851	1	0	9.147059e+01
201.959839	1.279433	city	4	1	1.354116	1.354116	0	1	0	0	CorrectCommission	0.734396	0.693043	1	0	9.164706e+01
203.259399	1.319666	city	6	1	1.255797	1.255797	0	1	0	0	CorrectCommission	0.016405	0.682511	1	0	9.182353e+01
204.558960	1.279465	city	9	1	1.420882	1.420882	0	1	0	0	CorrectCommission	1.221962	0.673819	1	0	92
205.891861	1.386337	city	8	1	1.306882	1.306882	0	1	0	0	CorrectCommission	0.389461	0.666220	1	0	9.217647e+01
207.224792	1.279538	mountain	8	0	0.000000	1.315106	1	0	0	0	CorrectOmission	0.449519	0.658793	1	0	9.235294e+01
208.504318	1.279500	city	10	1	1.379620	1.379620	0	1	0	0	CorrectCommission	0.920643	0.650566	1	0	9.252941e+01
209.790543	1.292949	city	8	1	1.434490	1.434490	0	1	0	0	CorrectCommission	1.321338	0.640669	1	0	9.270588e+01
211.090195	1.306358	city	6	1	1.364902	1.364902	0	1	0	0	CorrectCommission	0.813159	0.628446	1	0	9.288235e+01
212.383163	1.279570	city	5	1	1.285120	1.285120	0	1	0	0	CorrectCommission	0.230541	0.613591	1	0	9.305882e+01
213.669403	1.292908	city	3	1	1.168439	1.168439	0	1	0	0	CorrectCommission	0.621537	0.596187	1	0	9.323529e+01
214.955826	1.279949	city	10	1	1.310870	1.310870	0	1	0	0	CorrectCommission	0.418582	0.576690	1	0	9.341176e+01
216.242004	1.292397	city	5	1	1.381483	1.381483	0	1	0	0	CorrectCommission	0.934243	0.555901	1	0	9.358824e+01
217.567917	1.359448	city	6	1	1.313555	1.313555	0	1	0	0	CorrectCommission	0.438190	0.534904	1	0	9.376471e+01
218.954117	1.412951	city	7	1	1.300349	1.300349	0	1	0	0	CorrectCommission	0.341753	0.514970	1	0	9.394118e+01
220.320465	1.319728	city	1	1	1.218681	1.218681	0	1	0	0	CorrectCommission	0.254644	0.497459	1	0	9.411765e+01
221.620071	1.279508	city	7	1	1.396260	1.396260	0	1	0	0	CorrectCommission	1.042155	0.483672	1	0	9.429412e+01
222.912994	1.306319	city	3	1	1.207365	1.207365	0	1	0	0	CorrectCommission	0.337278	0.474738	1	0	9.447059e+01
224.239197	1.346075	city	1	1	1.295598	1.295598	0	1	0	0	CorrectCommission	0.307058	0.471552	1	0	9.464706e+01
225.573700	1.322951	city	9	1	1.258980	1.258980	0	1	0	0	CorrectCommission	0.039650	0.474636	1	0	9.482353e+01
226.235184	8.033953	break	0	0	0.000000	1.250575	0	0	0	0	ThoughtProbe	0.021729	0.484049	1	95	95
234.935654	1.333054	city	10	1	1.235656	1.235656	0	1	0	0	CorrectCommission	0.130681	0.499425	1	0	9.504348e+01
236.275314	1.346247	city	4	1	1.179494	1.179494	0	1	0	0	CorrectCommission	0.540810	0.519959	1	0	9.508696e+01
237.614883	1.332890	city	2	1	1.057853	1.057853	0	1	0	0	CorrectCommission	1.429109	0.544483	1	0	9.513043e+01
238.934448	1.306242	city	1	1	1.240026	1.240026	0	1	0	0	CorrectCommission	0.098768	0.571637	1	0	9.517391e+01
240.240662	1.306206	city	6	1	1.180082	1.180082	0	1	0	0	CorrectCommission	0.536514	0.600007	1	0	9.521739e+01
241.560226	1.332913	city	3	1	1.090449	1.090449	0	1	0	0	CorrectCommission	1.191072	0.628266	1	0	9.526087e+01
242.886429	1.319504	mountain	1	0	0.000000	1.223299	1	0	0	0	CorrectOmission	0.220916	0.655288	1	0	9.530435e+01
244.186096	1.279819	city	5	1	1.317615	1.317615	0	1	0	0	CorrectCommission	0.467840	0.680345	1	0	9.534783e+01
245.499039	1.346055	city	10	1	1.112380	1.112380	0	1	0	0	CorrectCommission	1.030921	0.703126	1	0	9.539130e+01
246.825089	1.306049	city	4	1	1.387723	1.387723	0	1	0	0	CorrectCommission	0.979818	0.723823	1	0	9.543478e+01
248.124588	1.292957	city	10	1	1.178138	1.178138	0	1	0	0	CorrectCommission	0.550714	0.743147	1	0	9.547826e+01
249.444260	1.346381	city	2	1	1.071558	1.071558	0	1	0	0	CorrectCommission	1.329031	0.762225	1	0	9.552174e+01
250.783798	1.332688	city	5	1	1.165694	1.165694	0	1	0	0	CorrectCommission	0.641586	0.782463	1	0	9.556522e+01
252.103333	1.306403	city	7	1	1.395525	1.395525	0	1	0	0	CorrectCommission	1.036789	0.805372	0	0	9.560870e+01
253.409653	1.306235	mountain	1	0	0.000000	1.319514	1	0	0	0	CorrectOmission	0.481709	0.832267	0	0	9.565217e+01
254.709244	1.292935	city	8	1	1.206131	1.206131	0	1	0	0	CorrectCommission	0.346291	0.864008	0	0	9.569565e+01
256.002075	1.292735	city	4	1	1.323844	1.323844	0	1	0	0	CorrectCommission	0.513327	0.900782	0	0	9.573913e+01
257.308228	1.319580	city	10	1	1.139912	1.139912	0	1	0	0	CorrectCommission	0.829865	0.941904	0	0	9.578261e+01
258.621124	1.306220	mountain	7	0	0.000000	1.290824	1	0	0	0	CorrectOmission	0.272193	0.985859	0	0	9.582609e+01
259.920776	1.293062	city	4	1	1.486592	1.486592	0	1	0	0	CorrectCommission	1.701817	1.030394	0	0	9.586957e+01
261.233765	1.332896	city	1	1	1.437227	1.437227	0	1	0	0	CorrectCommission	1.341322	1.072750	0	0	9.591304e+01
262.559998	1.319588	city	2	1	1.334114	1.334114	0	1	0	0	CorrectCommission	0.588329	1.110049	0	0	9.595652e+01
263.892883	1.346197	city	7	1	1.478200	1.478200	0	1	0	0	CorrectCommission	1.640537	1.139665	0	0	96
265.259094	1.386218	city	5	1	1.489581	1.489581	0	1	0	0	CorrectCommission	1.723651	1.159553	0	0	9.604348e+01
266.605255	1.306083	city	7	1	1.576730	1.576730	0	1	0	0	CorrectCommission	2.360064	1.168594	0	0	9.608696e+01
267.898163	1.279727	city	9	1	1.372868	1.372868	0	1	0	0	CorrectCommission	0.871332	1.166746	0	0	9.613043e+01
269.191132	1.306238	city	2	1	1.089973	1.089973	0	1	0	0	CorrectCommission	1.194551	1.155067	0	0	9.617391e+01
270.517303	1.346111	city	5	1	1.078637	1.078637	0	1	0	0	CorrectCommission	1.277336	1.135488	0	0	9.621739e+01
271.890198	1.399651	city	10	1	1.061465	1.061465	0	1	0	0	CorrectCommission	1.402733	1.110579	0	0	9.626087e+01
273.243134	1.306258	city	1	1	1.091585	1.091585	0	1	0	0	CorrectCommission	1.182780	1.083166	0	0	9.630435e+01
274.542725	1.292903	city	4	1	1.235181	1.235181	0	1	0	0	CorrectCommission	0.134148	1.055921	0	0	9.634783e+01
275.842194	1.306060	city	2	1	1.186879	1.186879	0	1	0	0	CorrectCommission	0.486881	1.031034	0	0	9.639130e+01
277.161774	1.333067	city	4	1	1.422447	1.422447	0	1	0	0	CorrectCommission	1.233394	1.009902	0	0	9.643478e+01
278.474701	1.292786	city	6	1	1.046999	1.046999	0	1	0	0	CorrectCommission	1.508378	0.993002	0	0	9.647826e+01
279.787598	1.333030	city	9	1	1.217977	1.217977	0	1	0	0	CorrectCommission	0.259784	0.979933	0	0	9.652174e+01
281.093811	1.279390	city	6	1	1.124923	1.124923	0	1	0	0	CorrectCommission	0.939321	0.969572	0	0	9.656522e+01
282.373383	1.279766	mountain	5	0	0.000000	1.284406	1	0	0	0	CorrectOmission	0.225328	0.960305	0	0	9.660870e+01
283.673065	1.319566	city	10	1	1.451137	1.451137	0	1	0	0	CorrectCommission	1.442902	0.950428	0	0	9.665217e+01
284.979248	1.292793	city	1	1	1.379825	1.379825	0	1	0	0	CorrectCommission	0.922135	0.938394	0	0	9.669565e+01
286.278809	1.306330	city	5	1	1.553433	1.553433	0	1	0	0	CorrectCommission	2.189935	0.923219	0	0	9.673913e+01
287.591736	1.319567	city	10	1	1.461198	1.461198	0	1	0	0	CorrectCommission	1.516375	0.904629	0	0	9.678261e+01
288.904633	1.306235	city	8	1	1.370667	1.370667	0	1	0	0	CorrectCommission	0.855257	0.883116	0	0	9.682609e+01
290.217560	1.319593	city	3	1	1.276609	1.276609	0	1	0	0	CorrectCommission	0.168388	0.859874	0	0	9.686957e+01
291.523743	1.292799	city	10	1	1.359828	1.359828	0	1	0	0	CorrectCommission	0.776106	0.836576	0	0	9.691304e+01
292.829987	1.319649	city	8	1	1.380808	1.380808	0	1	0	0	CorrectCommission	0.929319	0.815036	0	0	9.695652e+01
296.748718	6.517855	break	0	0	0.000000	1.272587	0	0	0	0	ThoughtProbe	0.139017	0.796949	0	97	97
300.647369	1.279423	city	3	1	1.187521	1.187521	0	1	0	0	CorrectCommission	0.482188	0.783635	1	0	9.677500e+01
301.926941	1.279735	mountain	2	0	0.000000	1.277968	1	0	0	0	CorrectOmission	0.178313	0.775881	1	0	9.655000e+01
303.207245	1.280871	city	8	1	1.400148	1.400148	0	1	0	0	CorrectCommission	1.070553	0.773868	1	0	9.632500e+01
304.486786	1.278169	city	9	1	1.410283	1.410283	0	1	0	0	CorrectCommission	1.144564	0.777193	1	0	9.610000e+01
305.765717	1.279693	city	8	1	1.443139	1.443139	0	1	0	0	CorrectCommission	1.384500	0.784994	1	0	9.587500e+01
307.052002	1.292917	city	5	1	1.352817	1.352817	0	1	0	0	CorrectCommission	0.724908	0.796066	1	0	9.565000e+01
308.338257	1.279576	mountain	7	0	0.000000	1.310818	1	0	0	0	CorrectOmission	0.418204	0.809008	0	0	9.542500e+01
309.617859	1.279604	city	10	1	1.289706	1.289706	0	1	0	0	CorrectCommission	0.264033	0.822324	0	0	9.520000e+01
310.904022	1.292731	city	1	1	1.262045	1.262045	0	1	0	0	CorrectCommission	0.062034	0.834531	0	0	9.497500e+01
312.190155	1.279574	city	10	1	1.418581	1.418581	0	1	0	0	CorrectCommission	1.205161	0.844289	0	0	9.475000e+01
313.469818	1.279758	city	4	1	1.553175	1.553175	0	1	0	0	CorrectCommission	2.188055	0.850517	0	0	9.452500e+01
314.749481	1.279557	city	7	1	1.340417	1.340417	0	1	0	0	CorrectCommission	0.634356	0.852454	0	0	9.430000e+01
316.035736	1.292910	city	1	1	1.081714	1.081714	0	1	0	0	CorrectCommission	1.254863	0.849773	0	0	9.407500e+01
317.321869	1.279414	city	10	1	1.017506	1.017506	0	1	0	0	CorrectCommission	1.723752	0.842429	0	0	9.385000e+01
318.601471	1.279772	city	6	1	1.263835	1.263835	0	1	0	0	CorrectCommission	0.075105	0.830655	0	0	9.362500e+01
319.881042	1.279385	mountain	6	0	0.000000	1.318187	1	0	0	0	CorrectOmission	0.472015	0.814842	0	0	9.340000e+01
321.160614	1.279742	city	8	1	1.302185	1.302185	0	1	0	0	CorrectCommission	0.355163	0.795345	1	0	9.317500e+01
322.440186	1.279411	city	9	1	1.337456	1.337456	0	1	0	0	CorrectCommission	0.612732	0.772462	1	0	9.295000e+01
323.719757	1.279732	city	5	1	1.147339	1.147339	0	1	0	0	CorrectCommission	0.775626	0.746428	1	0	9.272500e+01
324.999420	1.279595	city	8	1	1.124199	1.124199	0	1	0	0	CorrectCommission	0.944610	0.717512	1	0	9.250000e+01
326.278992	1.279504	city	10	1	1.025000	1.025000	0	1	0	0	CorrectCommission	1.669028	0.686120	1	0	9.227500e+01
327.558563	1.279657	city	1	1	1.123837	1.123837	0	1	0	0	CorrectCommission	0.947250	0.652934	1	0	9.205000e+01
328.838165	1.279573	city	2	1	1.183870	1.183870	0	1	0	0	CorrectCommission	0.508853	0.619050	1	0	9.182500e+01
330.117767	1.279579	city	3	1	1.243930	1.243930	0	1	0	0	CorrectCommission	0.070255	0.585997	1	0	9.160000e+01
331.397308	1.279510	city	7	1	1.337392	1.337392	0	1	0	0	CorrectCommission	0.612264	0.555625	1	0	9.137500e+01
332.676880	1.279650	city	2	1	1.293935	1.293935	0	1	0	0	CorrectCommission	0.294916	0.529985	1	0	9.115000e+01
333.956482	1.279578	city	10	1	1.177490	1.177490	0	1	0	0	CorrectCommission	0.555445	0.511123	1	0	9.092500e+01
335.236084	1.279597	city	4	1	1.231305	1.231305	0	1	0	0	CorrectCommission	0.162449	0.500834	1	0	9.070000e+01
336.515656	1.279561	city	5	1	1.231323	1.231323	0	1	0	0	CorrectCommission	0.162321	0.500435	1	0	9.047500e+01
337.795166	1.279450	city	10	1	1.177621	1.177621	0	1	0	0	CorrectCommission	0.554489	0.510526	1	0	9.025000e+01
339.074677	1.279574	city	7	1	1.281687	1.281687	0	1	0	0	CorrectCommission	0.205469	0.530852	1	0	9.002500e+01
340.354248	1.279553	city	4	1	1.230822	1.230822	0	1	0	0	CorrectCommission	0.165982	0.560248	1	0	8.980000e+01
341.633820	1.279588	city	2	1	1.230750	1.230750	0	1	0	0	CorrectCommission	0.166504	0.596638	1	0	8.957500e+01
342.913483	1.279730	city	8	1	1.335084	1.335084	0	1	0	0	CorrectCommission	0.595412	0.637206	1	0	8.935000e+01
344.193054	1.279419	city	9	1	1.434285	1.434285	0	1	0	0	CorrectCommission	1.319843	0.678603	1	0	8.912500e+01
345.479279	1.293066	city	1	1	1.350773	1.350773	0	1	0	0	CorrectCommission	0.709985	0.717257	1	0	8.890000e+01
346.765625	1.279605	city	7	1	1.285979	1.285979	0	1	0	0	CorrectCommission	0.236810	0.749828	1	0	8.867500e+01
348.045197	1.279549	city	6	1	1.176601	1.176601	0	1	0	0	CorrectCommission	0.561937	0.773517	1	0	8.845000e+01
349.324707	1.279470	city	3	1	0.910902	0.910902	0	1	0	0	CorrectCommission	2.502242	0.786402	1	0	8.822500e+01
352.816895	5.704910	break	0	0	0.000000	0.998413	0	0	0	0	ThoughtProbe	1.863180	0.787628	1	88	88
356.309052	1.279411	city	5	1	1.182080	1.182080	0	1	0	0	CorrectCommission	0.521924	0.777644	1	0	8.826471e+01
357.588654	1.279767	city	4	1	1.204849	1.204849	0	1	0	0	CorrectCommission	0.355649	0.758065	1	0	8.852941e+01
358.868317	1.279580	city	8	1	1.070916	1.070916	0	1	0	0	CorrectCommission	1.333719	0.731459	1	0	8.879412e+01
360.154480	1.292732	mountain	7	0	0.000000	1.199602	1	0	0	0	CorrectOmission	0.393965	0.701055	1	0	8.905882e+01
361.440704	1.279725	city	3	1	1.337373	1.337373	0	1	0	0	CorrectCommission	0.612128	0.670389	1	0	8.932353e+01
362.720306	1.279448	city	5	1	1.230692	1.230692	0	1	0	0	CorrectCommission	0.166928	0.642851	1	0	8.958824e+01
364.006531	1.293047	city	4	1	1.297580	1.297580	0	1	0	0	CorrectCommission	0.321531	0.621338	1	0	8.985294e+01
365.292816	1.279503	city	10	1	1.187552	1.187552	0	1	0	0	CorrectCommission	0.481963	0.607939	1	0	9.011765e+01
366.572296	1.279488	city	1	1	1.230831	1.230831	0	1	0	0	CorrectCommission	0.165912	0.603767	1	0	9.038235e+01
367.851929	1.279746	city	7	1	1.285399	1.285399	0	1	0	0	CorrectCommission	0.232579	0.608923	1	0	9.064706e+01
369.131531	1.279439	mountain	1	0	0.000000	1.377845	1	0	0	0	CorrectOmission	0.907678	0.622529	1	0	9.091176e+01
370.411102	1.279739	city	6	1	1.390881	1.390881	0	1	0	0	CorrectCommission	1.002873	0.642854	1	0	9.117647e+01
371.690704	1.279432	city	10	1	1.207218	1.207218	0	1	0	0	CorrectCommission	0.338348	0.667564	1	0	9.144118e+01
372.970276	1.279726	city	2	1	1.284273	1.284273	0	1	0	0	CorrectCommission	0.224356	0.694030	1	0	9.170588e+01
374.249939	1.279580	city	6	1	1.284158	1.284158	0	1	0	0	CorrectCommission	0.223512	0.719600	1	0	9.197059e+01
375.529480	1.279561	city	3	1	1.097852	1.097852	0	1	0	0	CorrectCommission	1.137015	0.741932	1	0	9.223529e+01
376.809021	1.279507	city	1	1	1.031308	1.031308	0	1	0	0	CorrectCommission	1.622962	0.759263	1	0	9.250000e+01
378.088593	1.279646	city	3	1	1.018058	1.018058	0	1	0	0	CorrectCommission	1.719723	0.770642	1	0	9.276471e+01
379.368225	1.279582	city	6	1	1.289797	1.289797	0	1	0	0	CorrectCommission	0.264698	0.776054	1	0	9.302941e+01
380.647797	1.279576	city	10	1	1.017864	1.017864	0	1	0	0	CorrectCommission	1.721135	0.776365	1	0	9.329412e+01
381.927307	1.279446	city	2	1	1.193729	1.193729	0	1	0	0	CorrectCommission	0.436858	0.773069	1	0	9.355882e+01
383.206848	1.279643	city	8	1	1.228532	1.228532	0	1	0	0	CorrectCommission	0.182705	0.768152	1	0	9.382353e+01
384.486481	1.279634	city	5	1	1.338524	1.338524	0	1	0	0	CorrectCommission	0.620529	0.763713	1	0	9.408824e+01
385.772766	1.292922	city	4	1	1.297459	1.297459	0	1	0	0	CorrectCommission	0.320649	0.761662	1	0	9.435294e+01
387.058929	1.279416	city	10	1	1.151117	1.151117	0	1	0	0	CorrectCommission	0.748040	0.763491	1	0	9.461765e+01
388.338440	1.279592	city	2	1	1.084650	1.084650	0	1	0	0	CorrectCommission	1.233422	0.770126	1	0	9.488235e+01
389.618103	1.279723	city	9	1	1.284237	1.284237	0	1	0	0	CorrectCommission	0.224090	0.781912	1	0	9.514706e+01
390.897675	1.279427	city	8	1	1.281518	1.281518	0	1	0	0	CorrectCommission	0.204239	0.798697	0	0	9.541176e+01
392.177185	1.279594	city	6	1	1.156934	1.156934	0	1	0	0	CorrectCommission	0.705556	0.819952	0	0	9.567647e+01
393.456757	1.279563	city	3	1	1.032286	1.032286	0	1	0	0	CorrectCommission	1.615817	0.844926	0	0	9.594118e+01
394.736420	1.279740	city	2	1	1.068545	1.068545	0	1	0	0	CorrectCommission	1.351035	0.872793	0	0	9.620588e+01
396.016083	1.279602	city	8	1	1.177267	1.177267	0	1	0	0	CorrectCommission	0.557072	0.902763	0	0	9.647059e+01
397.295593	1.279416	city	10	1	1.070907	1.070907	0	1	0	0	CorrectCommission	1.333781	0.934088	0	0	9.673529e+01
397.935303	10.303277	break	0	0	0.000000	1.162879	0	0	0	0	ThoughtProbe	0.662143	0.965949	0	97	97
408.918427	1.359690	mountain	6	0	0.000000	1.309855	1	0	0	0	CorrectOmission	0.411171	0.997448	0	0	9.697500e+01
410.238068	1.279581	city	10	1	1.368508	1.368508	0	1	0	0	CorrectCommission	0.839491	1.027471	0	0	9.695000e+01
411.530884	1.306078	city	5	1	1.195510	1.195510	0	1	0	0	CorrectCommission	0.423851	1.054641	0	0	9.692500e+01
412.830475	1.293072	city	10	1	0.966476	0.966476	0	1	0	0	CorrectCommission	2.096408	1.077374	0	0	9.690000e+01
414.123352	1.292681	city	4	1	1.071671	1.071671	0	1	0	0	CorrectCommission	1.328200	1.093941	0	0	9.687500e+01
415.476196	1.413019	city	1	1	1.036014	1.036014	0	1	0	0	CorrectCommission	1.588595	1.102701	0	0	9.685000e+01
416.842529	1.319637	city	5	1	1.098827	1.098827	0	1	0	0	CorrectCommission	1.129890	1.102273	0	0	9.682500e+01
418.142059	1.279444	mountain	10	0	0.000000	1.111601	1	0	0	0	CorrectOmission	1.036611	1.091700	0	0	9.680000e+01
419.434906	1.306226	city	3	1	1.085417	1.085417	0	1	0	0	CorrectCommission	1.227822	1.070599	0	0	9.677500e+01
420.741119	1.306221	city	5	1	1.031359	1.031359	0	1	0	0	CorrectCommission	1.622588	1.039243	0	0	9.675000e+01
422.060699	1.332923	city	4	1	1.120234	1.120234	0	1	0	0	CorrectCommission	0.973565	0.998550	0	0	9.672500e+01
423.380280	1.306255	city	9	1	1.049047	1.049047	0	1	0	0	CorrectCommission	1.493417	0.950075	0	0	9.670000e+01
424.693237	1.319682	city	7	1	1.209628	1.209628	0	1	0	0	CorrectCommission	0.320749	0.895867	0	0	9.667500e+01
426.012878	1.319589	city	10	1	1.115939	1.115939	0	1	0	0	CorrectCommission	1.004933	0.838318	0	0	9.665000e+01
427.312439	1.279513	city	6	1	1.406384	1.406384	0	1	0	0	CorrectCommission	1.116091	0.780007	1	0	9.662500e+01
428.618591	1.332777	city	9	1	1.300924	1.300924	0	1	0	0	CorrectCommission	0.345948	0.723475	1	0	9.660000e+01
429.944763	1.319584	city	7	1	1.277793	1.277793	0	1	0	0	CorrectCommission	0.177030	0.671106	1	0	9.657500e+01
431.257751	1.306381	city	8	1	1.128157	1.128157	0	1	0	0	CorrectCommission	0.915706	0.624923	1	0	9.655000e+01
432.570648	1.319442	city	3	1	1.219486	1.219486	0	1	0	0	CorrectCommission	0.248764	0.586543	1	0	9.652500e+01
433.883545	1.306348	mountain	9	0	0.000000	1.201832	1	0	0	0	CorrectOmission	0.377681	0.557093	1	0	9.650000e+01
435.189850	1.306277	city	3	1	1.180688	1.180688	0	1	0	0	CorrectCommission	0.532094	0.537181	1	0	9.647500e+01
436.496033	1.306054	city	9	1	1.261543	1.261543	0	1	0	0	CorrectCommission	0.058363	0.526954	1	0	9.645000e+01
437.815491	1.332897	city	5	1	1.236886	1.236886	0	1	0	0	CorrectCommission	0.121693	0.526147	1	0	9.642500e+01
439.175140	1.386386	city	3	1	1.149583	1.149583	0	1	0	0	CorrectCommission	0.759238	0.534126	1	0	9.640000e+01
440.534698	1.332709	city	1	1	1.207224	1.207224	0	1	0	0	CorrectCommission	0.338306	0.549983	1	0	9.637500e+01
441.847595	1.293099	city	6	1	1.185771	1.185771	0	1	0	0	CorrectCommission	0.494968	0.572613	1	0	9.635000e+01
443.147186	1.306091	city	10	1	1.076660	1.076660	0	1	0	0	CorrectCommission	1.291771	0.600767	1	0	9.632500e+01
444.473328	1.346179	city	2	1	1.316109	1.316109	0	1	0	0	CorrectCommission	0.456839	0.633044	1	0	9.630000e+01
445.806244	1.319676	city	8	1	1.324504	1.324504	0	1	0	0	CorrectCommission	0.518149	0.667950	1	0	9.627500e+01
447.139160	1.346121	city	3	1	1.251813	1.251813	0	1	0	0	CorrectCommission	0.012687	0.703888	1	0	9.625000e+01
448.465424	1.306401	city	10	1	1.205409	1.205409	0	1	0	0	CorrectCommission	0.351562	0.739241	1	0	9.622500e+01
449.778381	1.319567	city	6	1	1.476683	1.476683	0	1	0	0	CorrectCommission	1.629459	0.772448	1	0	9.620000e+01
451.131195	1.386040	city	2	1	1.231296	1.231296	0	1	0	0	CorrectCommission	0.162518	0.802143	0	0	9.617500e+01
452.484070	1.319730	city	1	1	0.946541	0.946541	0	1	0	0	CorrectCommission	2.241987	0.827349	0	0	9.615000e+01
453.803680	1.319455	city	3	1	1.202564	1.202564	0	1	0	0	CorrectCommission	0.372341	0.847507	0	0	9.612500e+01
455.116486	1.306181	city	1	1	1.114647	1.114647	0	1	0	0	CorrectCommission	1.014367	0.862658	0	0	9.610000e+01
456.429382	1.319585	city	8	1	1.160272	1.160272	0	1	0	0	CorrectCommission	0.681184	0.873306	0	0	9.607500e+01
457.769012	1.359696	city	3	1	0.889558	0.889558	0	1	0	0	CorrectCommission	2.658111	0.880317	0	0	9.605000e+01
459.115234	1.332733	city	1	1	1.287254	1.287254	0	1	0	0	CorrectCommission	0.246123	0.884631	0	0	9.602500e+01
459.781586	8.810451	break	0	0	0.000000	1.276104	0	0	0	0	ThoughtProbe	0.164698	0.887092	0	96	96
469.258575	1.333072	city	8	1	1.145937	1.145937	0	1	0	0	CorrectCommission	0.785863	0.888078	0	0	9.567500e+01
470.564819	1.279407	mountain	9	0	0.000000	1.186583	1	0	0	0	CorrectOmission	0.489038	0.887386	0	0	9.535000e+01
471.857666	1.306284	city	8	1	1.275112	1.275112	0	1	0	0	CorrectCommission	0.157457	0.884226	0	0	9.502500e+01
473.170563	1.319500	city	10	1	1.288593	1.288593	0	1	0	0	CorrectCommission	0.255903	0.877395	0	0	9.470000e+01
474.476776	1.292953	city	8	1	1.447502	1.447502	0	1	0	0	CorrectCommission	1.416357	0.865632	0	0	9.437500e+01
475.803009	1.359516	mountain	2	0	0.000000	1.585030	1	0	0	0	CorrectOmission	2.420676	0.848007	0	0	9.405000e+01
477.129333	1.293081	city	1	1	1.591485	1.591485	0	1	0	0	CorrectCommission	2.467820	0.824329	0	0	9.372500e+01
478.435577	1.319407	city	8	1	1.357177	1.357177	0	1	0	0	CorrectCommission	0.756744	0.795417	1	0	9.340000e+01
479.775055	1.359547	city	3	1	1.222178	1.222178	0	1	0	0	CorrectCommission	0.229104	0.763137	1	0	9.307500e+01
481.108032	1.306403	city	9	1	1.230710	1.230710	0	1	0	0	CorrectCommission	0.166794	0.730194	1	0	9.275000e+01
482.401001	1.279571	city	8	1	1.326016	1.326016	0	1	0	0	CorrectCommission	0.529191	0.699738	1	0	9.242500e+01
483.720490	1.359381	city	3	1	1.316215	1.316215	0	1	0	0	CorrectCommission	0.457618	0.674911	1	0	9.210000e+01
485.040039	1.279737	city	5	1	1.289680	1.289680	0	1	0	0	CorrectCommission	0.263837	0.658286	1	0	9.177500e+01
486.333008	1.306221	city	6	1	1.244856	1.244856	0	1	0	0	CorrectCommission	0.063496	0.651500	1	0	9.145000e+01
487.632538	1.292796	city	5	1	1.277229	1.277229	0	1	0	0	CorrectCommission	0.172917	0.654992	1	0	9.112500e+01
488.925385	1.292898	city	6	1	1.418997	1.418997	0	1	0	0	CorrectCommission	1.208198	0.667943	1	0	9.080000e+01
490.238342	1.333034	city	8	1	1.229056	1.229056	0	1	0	0	CorrectCommission	0.178879	0.688472	1	0	9.047500e+01
491.564575	1.319455	city	1	1	1.247106	1.247106	0	1	0	0	CorrectCommission	0.047063	0.713982	1	0	9.015000e+01
492.877441	1.306267	city	2	1	1.137584	1.137584	0	1	0	0	CorrectCommission	0.846862	0.741608	1	0	8.982500e+01
494.177063	1.292985	mountain	8	0	0.000000	1.383233	1	0	0	0	CorrectOmission	0.947029	0.768626	1	0	8.950000e+01
495.470032	1.292938	city	10	1	1.611956	1.611956	0	1	0	0	CorrectCommission	2.617308	0.793026	1	0	8.917500e+01
496.782867	1.332742	city	6	1	1.451653	1.451653	0	1	0	0	CorrectCommission	1.446671	0.813728	0	0	8.885000e+01
498.128998	1.359523	city	10	1	1.251755	1.251755	0	1	0	0	CorrectCommission	0.013110	0.830771	0	0	8.852500e+01
499.455292	1.293026	city	3	1	1.329746	1.329746	0	1	0	0	CorrectCommission	0.556425	0.845257	0	0	8.820000e+01
500.774933	1.346259	city	6	1	1.436450	1.436450	0	1	0	0	CorrectCommission	1.335649	0.859101	0	0	8.787500e+01
502.141174	1.386235	city	3	1	1.169286	1.169286	0	1	0	0	CorrectCommission	0.615356	0.874796	0	0	8.755000e+01
503.474060	1.279556	city	7	1	1.336868	1.336868	0	1	0	0	CorrectCommission	0.608435	0.895163	0	0	8.722500e+01
504.780212	1.332745	city	1	1	1.280149	1.280149	0	1	0	0	CorrectCommission	0.194236	0.923017	0	0	8.690000e+01
506.113037	1.332882	city	2	1	1.311086	1.311086	0	1	0	0	CorrectCommission	0.420162	0.961105	0	0	8.657500e+01
507.419312	1.279653	city	10	1	1.323976	1.323976	0	1	0	0	CorrectCommission	0.514293	1.011968	0	0	8.625000e+01
508.718872	1.319514	city	8	1	1.578812	1.578812	0	1	0	0	CorrectCommission	2.375271	1.077992	0	0	8.592500e+01
510.071808	1.386363	city	5	1	1.311421	1.311421	0	1	0	0	CorrectCommission	0.422610	1.161305	0	0	8.560000e+01
511.444794	1.359569	city	10	1	0.983473	0.983473	0	1	0	0	CorrectCommission	1.972284	1.263822	0	0	8.527500e+01
512.790894	1.332704	city	8	1	1.199873	1.199873	0	1	0	0	CorrectCommission	0.391988	1.386926	0	0	8.495000e+01
514.123779	1.333050	city	5	1	1.053981	1.053981	0	1	0	0	CorrectCommission	1.457385	1.531351	0	0	8.462500e+01
515.450134	1.319572	city	7	1	1.048078	1.048078	0	1	0	0	CorrectCommission	1.500492	1.696741	0	0	8.430000e+01
516.783020	1.346223	city	10	1	1.174521	1.174521	0	1	0	0	CorrectCommission	0.577129	1.881477	0	0	8.397500e+01
518.095947	1.279605	city	7	1	1.405242	1.405242	0	1	0	0	CorrectCommission	1.107752	2.082500	0	0	8.365000e+01
519.415466	1.359533	city	10	1	1.157242	1.157242	0	1	0	0	CorrectCommission	0.703311	2.295326	0	0	8.332500e+01
520.095276	10.476481	break	0	0	0.000000	0.909241	0	0	0	0	ThoughtProbe	2.514373	2.514373	0	83	83
