onset	duration	trial_type	image_type	Press	ReactionTime	ReactionTime_Interpolated	CorrectOmission	CorrectCommission	CommissionError	OmissionError	response_type	nonsmoothVarianceTimeCourse	VarianceTimeCourse	In_the_Zone	ThoughtProbe	ThoughtProbe_Interpolated
0.653053	1.279592	city	8	1	1.015073	1.015073	0	1	0	0	CorrectCommission	0.680383	0.680383	1	0	82
1.932580	1.279463	city	3	1	0.985884	0.985884	0	1	0	0	CorrectCommission	0.825751	0.669236	1	0	82
3.212160	1.279696	mountain	3	0	0.000000	0.998884	1	0	0	0	CorrectOmission	0.761008	0.659897	1	0	82
4.498368	1.292721	mountain	10	0	0.000000	1.034052	1	0	0	0	CorrectOmission	0.585864	0.653972	1	0	82
5.784517	1.279576	city	2	1	1.071367	1.071367	0	1	0	0	CorrectCommission	0.400031	0.652743	1	0	82
7.064190	1.279770	city	1	1	1.090807	1.090807	0	1	0	0	CorrectCommission	0.303220	0.657014	1	0	82
8.343770	1.279389	city	5	1	1.187735	1.187735	0	1	0	0	CorrectCommission	0.179496	0.667061	1	0	82
9.623336	1.279743	city	2	1	0.965025	0.965025	0	1	0	0	CorrectCommission	0.929629	0.682616	1	0	82
10.909733	1.293051	city	7	1	1.021310	1.021310	0	1	0	0	CorrectCommission	0.649324	0.702918	1	0	82
12.195942	1.279367	city	1	1	0.983467	0.983467	0	1	0	0	CorrectCommission	0.837786	0.726897	1	0	82
13.475449	1.279647	city	9	1	1.125002	1.125002	0	1	0	0	CorrectCommission	0.132922	0.753347	1	0	82
14.755072	1.279598	city	7	1	0.967099	0.967099	0	1	0	0	CorrectCommission	0.919305	0.781144	0	0	82
16.034666	1.279590	city	9	1	0.910849	0.910849	0	1	0	0	CorrectCommission	1.199437	0.809406	0	0	82
17.314236	1.279549	city	4	1	0.929994	0.929994	0	1	0	0	CorrectCommission	1.104091	0.837665	0	0	82
18.593731	1.279444	city	1	1	0.964418	0.964418	0	1	0	0	CorrectCommission	0.932654	0.865914	0	0	82
19.873234	1.279562	city	3	1	1.445568	1.445568	0	1	0	0	CorrectCommission	1.463543	0.894522	0	0	82
21.152880	1.279729	city	7	1	1.365639	1.365639	0	1	0	0	CorrectCommission	1.065486	0.924054	0	0	82
22.439131	1.292775	city	1	1	1.058679	1.058679	0	1	0	0	CorrectCommission	0.463222	0.955060	0	0	82
23.732052	1.293067	city	5	1	1.210355	1.210355	0	1	0	0	CorrectCommission	0.292149	0.987790	0	0	82
25.025032	1.292893	city	8	1	1.041769	1.041769	0	1	0	0	CorrectCommission	0.547434	1.021992	0	0	82
26.317938	1.292917	city	6	1	1.087839	1.087839	0	1	0	0	CorrectCommission	0.317998	1.056784	0	0	82
27.610840	1.292890	city	5	1	1.586109	1.586109	0	1	0	0	CorrectCommission	2.163461	1.090685	0	0	82
28.903761	1.292950	city	4	1	1.034597	1.034597	0	1	0	0	CorrectCommission	0.583155	1.121764	0	0	82
30.196600	1.292729	city	2	1	0.788275	0.788275	0	1	0	0	CorrectCommission	1.809875	1.147994	0	0	82
31.482777	1.279622	mountain	7	1	0.801815	0.801815	0	0	1	0	CommissionError	1.742441	1.167423	0	0	82
32.762402	1.279626	city	6	1	1.550997	1.550997	0	1	0	0	CorrectCommission	1.988594	1.178577	0	0	82
34.041958	1.279491	city	5	1	1.391070	1.391070	0	1	0	0	CorrectCommission	1.192137	1.180614	0	0	82
35.334892	1.306376	city	9	1	0.954428	0.954428	0	1	0	0	CorrectCommission	0.982406	1.173436	0	0	82
36.641197	1.306236	city	7	1	0.982361	0.982361	0	1	0	0	CorrectCommission	0.843294	1.157678	0	0	82
37.947445	1.306260	city	10	1	0.877047	0.877047	0	1	0	0	CorrectCommission	1.367773	1.134587	0	0	82
39.240364	1.279577	city	9	1	0.965696	0.965696	0	1	0	0	CorrectCommission	0.926289	1.105882	0	0	82
40.533264	1.306221	city	10	1	0.835547	0.835547	0	1	0	0	CorrectCommission	1.574449	1.073567	0	0	82
41.832741	1.292739	city	2	1	1.320012	1.320012	0	1	0	0	CorrectCommission	0.838256	1.039716	0	0	82
43.138905	1.319585	city	3	1	1.448618	1.448618	0	1	0	0	CorrectCommission	1.478731	1.006304	0	0	82
44.458519	1.319641	city	1	1	1.245291	1.245291	0	1	0	0	CorrectCommission	0.466136	0.974976	0	0	82
45.758083	1.279490	city	10	1	1.356531	1.356531	0	1	0	0	CorrectCommission	1.020129	0.946953	0	0	82
47.044281	1.292908	city	8	1	1.303741	1.303741	0	1	0	0	CorrectCommission	0.757223	0.922884	0	0	82
48.337254	1.293034	city	9	1	1.142239	1.142239	0	1	0	0	CorrectCommission	0.047077	0.902819	0	0	82
49.636902	1.306265	city	10	1	0.938198	0.938198	0	1	0	0	CorrectCommission	1.063231	0.886280	0	0	82
54.255405	7.930737	break	0	0	0.000000	0.957045	0	0	0	0	ThoughtProbe	0.969374	0.872334	0	82	82
58.860554	1.279564	city	7	1	1.143634	1.143634	0	1	0	0	CorrectCommission	0.040134	0.859832	0	0	8.238235e+01
60.140129	1.279585	mountain	8	0	0.000000	1.442820	1	0	0	0	CorrectOmission	1.449861	0.847663	0	0	8.276471e+01
61.419659	1.279471	city	2	1	1.524663	1.524663	0	1	0	0	CorrectCommission	1.857449	0.834919	0	0	8.314706e+01
62.712486	1.306187	city	4	1	1.059219	1.059219	0	1	0	0	CorrectCommission	0.460531	0.821126	0	0	8.352941e+01
64.012032	1.292902	city	6	1	0.871688	0.871688	0	1	0	0	CorrectCommission	1.394465	0.806355	0	0	8.391176e+01
65.325020	1.333072	city	1	1	0.918502	0.918502	0	1	0	0	CorrectCommission	1.161325	0.791112	0	0	8.429412e+01
66.631302	1.279495	city	2	1	1.138856	1.138856	0	1	0	0	CorrectCommission	0.063929	0.776255	1	0	8.467647e+01
67.917542	1.292978	city	10	1	1.063372	1.063372	0	1	0	0	CorrectCommission	0.439851	0.762774	1	0	8.505882e+01
69.230392	1.332729	city	6	1	1.172599	1.172599	0	1	0	0	CorrectCommission	0.104116	0.751553	1	0	8.544118e+01
70.543297	1.293073	city	4	1	0.993942	0.993942	0	1	0	0	CorrectCommission	0.785621	0.743227	1	0	8.582353e+01
71.842957	1.306261	city	7	1	1.032472	1.032472	0	1	0	0	CorrectCommission	0.593736	0.738034	1	0	8.620588e+01
73.142548	1.292909	city	4	1	0.988546	0.988546	0	1	0	0	CorrectCommission	0.812495	0.735826	1	0	8.658824e+01
74.455444	1.332889	city	9	1	0.919290	0.919290	0	1	0	0	CorrectCommission	1.157399	0.736123	1	0	8.697059e+01
75.768250	1.292728	city	1	1	0.930243	0.930243	0	1	0	0	CorrectCommission	1.102851	0.738185	1	0	8.735294e+01
77.067741	1.306253	city	7	1	1.238685	1.238685	0	1	0	0	CorrectCommission	0.433234	0.741166	1	0	8.773529e+01
78.374062	1.306377	city	6	1	1.013577	1.013577	0	1	0	0	CorrectCommission	0.687834	0.744173	1	0	8.811765e+01
79.673714	1.292935	city	3	1	1.069435	1.069435	0	1	0	0	CorrectCommission	0.409655	0.746333	1	0	8.850000e+01
80.959969	1.279576	city	8	1	0.940522	0.940522	0	1	0	0	CorrectCommission	1.051658	0.746853	1	0	8.888235e+01
82.252869	1.306215	city	3	1	0.939954	0.939954	0	1	0	0	CorrectCommission	1.054489	0.745012	1	0	8.926471e+01
83.558937	1.305923	city	1	1	1.222466	1.222466	0	1	0	0	CorrectCommission	0.352464	0.740254	1	0	8.964706e+01
84.858467	1.293136	city	8	1	0.974862	0.974862	0	1	0	0	CorrectCommission	0.880639	0.732174	1	0	9.002941e+01
86.158195	1.306325	city	4	1	1.077436	1.077436	0	1	0	0	CorrectCommission	0.369807	0.720611	1	0	9.041176e+01
87.471138	1.319567	city	10	1	0.847513	0.847513	0	1	0	0	CorrectCommission	1.514858	0.705739	1	0	9.079412e+01
88.770737	1.279627	mountain	9	0	0.000000	1.129412	1	0	0	0	CorrectOmission	0.110960	0.688055	1	0	9.117647e+01
90.050301	1.279497	city	4	1	1.458384	1.458384	0	1	0	0	CorrectCommission	1.527368	0.668506	1	0	9.155882e+01
91.336487	1.292880	city	7	1	1.369680	1.369680	0	1	0	0	CorrectCommission	1.085609	0.648339	1	0	9.194118e+01
92.622749	1.279640	city	6	1	1.196542	1.196542	0	1	0	0	CorrectCommission	0.223355	0.629065	1	0	9.232353e+01
93.908943	1.292745	city	4	1	1.167526	1.167526	0	1	0	0	CorrectCommission	0.078854	0.612264	1	0	9.270588e+01
95.208511	1.306401	city	7	1	1.259324	1.259324	0	1	0	0	CorrectCommission	0.536022	0.599357	1	0	9.308824e+01
96.501434	1.279443	city	8	1	1.071269	1.071269	0	1	0	0	CorrectCommission	0.400521	0.591382	1	0	9.347059e+01
97.794342	1.306376	city	3	1	1.111762	1.111762	0	1	0	0	CorrectCommission	0.198862	0.588856	1	0	9.385294e+01
99.087318	1.279574	city	10	1	1.032554	1.032554	0	1	0	0	CorrectCommission	0.593326	0.591646	1	0	9.423529e+01
100.366814	1.279416	city	4	1	1.234322	1.234322	0	1	0	0	CorrectCommission	0.411507	0.598974	1	0	9.461765e+01
101.006523	8.823927	break	0	0	0.000000	1.303102	0	0	0	0	ThoughtProbe	0.754044	0.609558	1	95	95
110.470161	1.279420	city	9	1	1.250273	1.250273	0	1	0	0	CorrectCommission	0.490947	0.621752	1	0	9.504348e+01
111.769745	1.319754	city	4	1	1.087212	1.087212	0	1	0	0	CorrectCommission	0.321123	0.633862	1	0	9.508696e+01
113.109383	1.359524	city	9	1	0.943791	0.943791	0	1	0	0	CorrectCommission	1.035378	0.644372	1	0	9.513043e+01
114.435616	1.292942	city	1	1	0.932143	0.932143	0	1	0	0	CorrectCommission	1.093389	0.652188	1	0	9.517391e+01
115.735191	1.306203	city	9	1	0.840744	0.840744	0	1	0	0	CorrectCommission	1.548567	0.656839	1	0	9.521739e+01
117.028000	1.279419	mountain	2	0	0.000000	1.154569	1	0	0	0	CorrectOmission	0.014327	0.658493	1	0	9.526087e+01
118.314247	1.293073	city	10	1	1.404688	1.404688	0	1	0	0	CorrectCommission	1.259957	0.657981	1	0	9.530435e+01
119.600571	1.279578	city	9	1	1.122173	1.122173	0	1	0	0	CorrectCommission	0.147012	0.656533	1	0	9.534783e+01
120.886734	1.292745	city	5	1	1.138106	1.138106	0	1	0	0	CorrectCommission	0.067661	0.655667	1	0	9.539130e+01
122.186317	1.306416	city	4	1	1.383428	1.383428	0	1	0	0	CorrectCommission	1.154075	0.656875	1	0	9.543478e+01
123.485886	1.292723	city	6	1	1.208886	1.208886	0	1	0	0	CorrectCommission	0.284830	0.661354	1	0	9.547826e+01
124.792137	1.319788	mountain	1	0	0.000000	1.043700	1	0	0	0	CorrectOmission	0.537819	0.669926	1	0	9.552174e+01
126.098396	1.292717	city	2	1	0.983512	0.983512	0	1	0	0	CorrectCommission	0.837561	0.682848	1	0	9.556522e+01
127.397858	1.306212	city	9	1	1.123966	1.123966	0	1	0	0	CorrectCommission	0.138084	0.699865	1	0	9.560870e+01
128.690796	1.279666	mountain	6	0	0.000000	1.293151	1	0	0	0	CorrectOmission	0.704483	0.720329	1	0	9.565217e+01
129.970474	1.279672	city	3	1	1.314286	1.314286	0	1	0	0	CorrectCommission	0.809739	0.743311	1	0	9.569565e+01
131.289993	1.359391	city	8	1	1.010589	1.010589	0	1	0	0	CorrectCommission	0.702715	0.767817	1	0	9.573913e+01
132.622879	1.306378	city	6	1	1.002980	1.002980	0	1	0	0	CorrectCommission	0.740611	0.793021	0	0	9.578261e+01
133.929199	1.306259	city	8	1	0.831662	0.831662	0	1	0	0	CorrectCommission	1.593798	0.818382	0	0	9.582609e+01
135.248779	1.332895	city	4	1	1.020041	1.020041	0	1	0	0	CorrectCommission	0.655642	0.843715	0	0	9.586957e+01
136.561630	1.292815	city	9	1	0.826200	0.826200	0	1	0	0	CorrectCommission	1.620999	0.869198	0	0	9.591304e+01
137.867859	1.319635	city	2	1	1.097924	1.097924	0	1	0	0	CorrectCommission	0.267773	0.895167	0	0	9.595652e+01
139.167419	1.279483	city	7	1	1.283605	1.283605	0	1	0	0	CorrectCommission	0.656946	0.921966	0	0	96
140.446976	1.279649	city	4	1	1.371341	1.371341	0	1	0	0	CorrectCommission	1.093881	0.949641	0	0	9.604348e+01
141.766556	1.359511	city	3	1	1.245590	1.245590	0	1	0	0	CorrectCommission	0.467624	0.977755	0	0	9.608696e+01
143.092728	1.292819	city	4	1	1.383221	1.383221	0	1	0	0	CorrectCommission	1.153047	1.005292	0	0	9.613043e+01
144.392334	1.306395	city	10	1	1.143195	1.143195	0	1	0	0	CorrectCommission	0.042316	1.030627	0	0	9.617391e+01
145.698654	1.306237	city	7	1	1.395063	1.395063	0	1	0	0	CorrectCommission	1.212020	1.051775	0	0	9.621739e+01
147.011551	1.319568	city	4	1	1.491546	1.491546	0	1	0	0	CorrectCommission	1.692519	1.066533	0	0	9.626087e+01
148.331131	1.319586	city	1	1	1.556693	1.556693	0	1	0	0	CorrectCommission	2.016962	1.072917	0	0	9.630435e+01
149.650711	1.319570	city	5	1	1.384182	1.384182	0	1	0	0	CorrectCommission	1.157835	1.069466	0	0	9.634783e+01
150.950272	1.279552	city	1	1	1.419405	1.419405	0	1	0	0	CorrectCommission	1.333248	1.055479	0	0	9.639130e+01
152.229782	1.279487	city	4	1	1.473689	1.473689	0	1	0	0	CorrectCommission	1.603591	1.031125	0	0	9.643478e+01
153.515991	1.292932	city	8	1	0.875377	0.875377	0	1	0	0	CorrectCommission	1.376089	0.997406	0	0	9.647826e+01
154.808929	1.292918	city	6	1	0.921200	0.921200	0	1	0	0	CorrectCommission	1.147885	0.955973	0	0	9.652174e+01
156.095200	1.279648	mountain	1	0	0.000000	1.155301	1	0	0	0	CorrectOmission	0.017969	0.908873	0	0	9.656522e+01
157.374817	1.279564	city	8	1	1.316544	1.316544	0	1	0	0	CorrectCommission	0.820984	0.858252	0	0	9.660870e+01
158.687637	1.346091	city	3	1	1.143795	1.143795	0	1	0	0	CorrectCommission	0.039332	0.806033	0	0	9.665217e+01
160.013885	1.306399	city	10	1	0.991383	0.991383	0	1	0	0	CorrectCommission	0.798362	0.753834	1	0	9.669565e+01
161.313461	1.292743	city	3	1	0.998471	0.998471	0	1	0	0	CorrectCommission	0.763067	0.702840	1	0	9.673913e+01
162.599609	1.279559	city	9	1	0.872141	0.872141	0	1	0	0	CorrectCommission	1.392208	0.653884	1	0	9.678261e+01
163.899261	1.319754	city	1	1	0.994604	0.994604	0	1	0	0	CorrectCommission	0.782321	0.607530	1	0	9.682609e+01
165.205582	1.292882	city	10	1	1.074072	1.074072	0	1	0	0	CorrectCommission	0.386561	0.564182	1	0	9.686957e+01
166.491821	1.279605	city	9	1	1.028504	1.028504	0	1	0	0	CorrectCommission	0.613494	0.524191	1	0	9.691304e+01
167.778000	1.292736	city	2	1	1.143141	1.143141	0	1	0	0	CorrectCommission	0.042586	0.487851	1	0	9.695652e+01
172.169800	7.490874	break	0	0	0.000000	1.208799	0	0	0	0	ThoughtProbe	0.284397	0.455424	1	97	97
176.608414	1.386352	city	2	1	1.214536	1.214536	0	1	0	0	CorrectCommission	0.312972	0.427109	1	0	9.702500e+01
177.941299	1.279425	city	10	1	1.149415	1.149415	0	1	0	0	CorrectCommission	0.011343	0.403006	1	0	9.705000e+01
179.227463	1.292902	city	8	1	1.097919	1.097919	0	1	0	0	CorrectCommission	0.267801	0.383132	1	0	9.707500e+01
180.513794	1.279760	city	4	1	0.987406	0.987406	0	1	0	0	CorrectCommission	0.818173	0.367471	1	0	9.710000e+01
181.813400	1.319433	city	2	1	1.063331	1.063331	0	1	0	0	CorrectCommission	0.440052	0.355973	1	0	9.712500e+01
183.139618	1.333027	city	1	1	1.228876	1.228876	0	1	0	0	CorrectCommission	0.384387	0.348630	1	0	9.715000e+01
184.459244	1.306207	mountain	3	0	0.000000	1.221737	1	0	0	0	CorrectOmission	0.348831	0.345548	1	0	9.717500e+01
185.758804	1.292914	mountain	1	0	0.000000	1.155391	1	0	0	0	CorrectOmission	0.018421	0.346972	1	0	9.720000e+01
187.051743	1.292965	city	10	1	1.143319	1.143319	0	1	0	0	CorrectCommission	0.041700	0.353271	1	0	9.722500e+01
188.344666	1.292873	city	7	1	1.298999	1.298999	0	1	0	0	CorrectCommission	0.733611	0.364894	1	0	9.725000e+01
189.657547	1.332894	city	6	1	1.121018	1.121018	0	1	0	0	CorrectCommission	0.152765	0.382313	1	0	9.727500e+01
190.990417	1.332853	city	3	1	1.128704	1.128704	0	1	0	0	CorrectCommission	0.114484	0.406013	1	0	9.730000e+01
192.323227	1.332755	city	4	1	1.137980	1.137980	0	1	0	0	CorrectCommission	0.068291	0.436318	1	0	9.732500e+01
193.629471	1.279737	city	6	1	0.991632	0.991632	0	1	0	0	CorrectCommission	0.797126	0.473350	1	0	9.735000e+01
194.942368	1.346074	city	8	1	1.039751	1.039751	0	1	0	0	CorrectCommission	0.557484	0.516940	1	0	9.737500e+01
196.261948	1.293078	city	10	1	1.076916	1.076916	0	1	0	0	CorrectCommission	0.372397	0.566569	1	0	9.740000e+01
197.581497	1.346012	city	4	1	1.293990	1.293990	0	1	0	0	CorrectCommission	0.708665	0.621301	1	0	9.742500e+01
198.934296	1.359585	city	3	1	1.247375	1.247375	0	1	0	0	CorrectCommission	0.476513	0.679784	1	0	9.745000e+01
200.287277	1.346390	city	10	1	1.191218	1.191218	0	1	0	0	CorrectCommission	0.196844	0.740281	1	0	9.747500e+01
201.600174	1.279410	city	1	1	1.298821	1.298821	0	1	0	0	CorrectCommission	0.732722	0.800734	0	0	9.750000e+01
202.919678	1.359600	city	9	1	1.274664	1.274664	0	1	0	0	CorrectCommission	0.612419	0.858908	0	0	9.752500e+01
204.239304	1.279624	city	6	1	1.143622	1.143622	0	1	0	0	CorrectCommission	0.040190	0.912600	0	0	9.755000e+01
205.525604	1.293003	city	5	1	1.837411	1.837411	0	1	0	0	CorrectCommission	3.414980	0.959841	0	0	9.757500e+01
206.831818	1.319408	mountain	6	0	0.000000	1.649609	1	0	0	0	CorrectOmission	2.479698	0.998954	0	0	9.760000e+01
208.138046	1.293057	city	9	1	1.204802	1.204802	0	1	0	0	CorrectCommission	0.264496	1.028806	0	0	9.762500e+01
209.444275	1.319387	city	4	1	1.127578	1.127578	0	1	0	0	CorrectCommission	0.120091	1.048757	0	0	9.765000e+01
210.750504	1.293082	city	6	1	0.922093	0.922093	0	1	0	0	CorrectCommission	1.143438	1.058565	0	0	9.767500e+01
212.056747	1.319394	city	2	1	0.911508	0.911508	0	1	0	0	CorrectCommission	1.196153	1.058340	0	0	9.770000e+01
213.362976	1.293075	city	9	1	1.025390	1.025390	0	1	0	0	CorrectCommission	0.629003	1.048517	0	0	9.772500e+01
214.682541	1.346058	city	10	1	0.904431	0.904431	0	1	0	0	CorrectCommission	1.231398	1.029808	0	0	9.775000e+01
215.995453	1.279768	city	7	1	1.556290	1.556290	0	1	0	0	CorrectCommission	2.014955	1.003197	0	0	9.777500e+01
217.301788	1.332909	city	10	1	0.805467	0.805467	0	1	0	0	CorrectCommission	1.724252	0.969960	0	0	9.780000e+01
218.621323	1.306145	city	1	1	1.266121	1.266121	0	1	0	0	CorrectCommission	0.569872	0.931727	0	0	9.782500e+01
219.927551	1.306314	city	7	1	1.432240	1.432240	0	1	0	0	CorrectCommission	1.397168	0.890433	0	0	9.785000e+01
221.247147	1.332868	city	10	1	1.182098	1.182098	0	1	0	0	CorrectCommission	0.151423	0.848161	0	0	9.787500e+01
222.553360	1.279579	city	3	1	1.147553	1.147553	0	1	0	0	CorrectCommission	0.020617	0.807059	0	0	9.790000e+01
223.839615	1.292925	city	10	1	1.316725	1.316725	0	1	0	0	CorrectCommission	0.821885	0.769133	1	0	9.792500e+01
225.132446	1.292731	city	1	1	1.369349	1.369349	0	1	0	0	CorrectCommission	1.083961	0.736064	1	0	9.795000e+01
226.431992	1.306352	city	5	1	1.262091	1.262091	0	1	0	0	CorrectCommission	0.549801	0.709106	1	0	9.797500e+01
227.085159	9.236872	break	0	0	0.000000	1.085051	0	0	0	0	ThoughtProbe	0.331886	0.689035	1	98	98
236.995148	1.346209	city	5	1	1.054120	1.054120	0	1	0	0	CorrectCommission	0.485926	0.676100	1	0	9.785294e+01
238.308075	1.279667	city	4	1	1.385190	1.385190	0	1	0	0	CorrectCommission	1.162854	0.670016	1	0	9.770588e+01
239.594330	1.292833	city	1	1	1.057633	1.057633	0	1	0	0	CorrectCommission	0.468429	0.670035	1	0	9.755882e+01
240.893951	1.306400	city	10	1	1.210279	1.210279	0	1	0	0	CorrectCommission	0.291768	0.675104	1	0	9.741176e+01
242.200256	1.306229	city	8	1	1.136199	1.136199	0	1	0	0	CorrectCommission	0.077161	0.683910	1	0	9.726471e+01
243.513168	1.319577	city	10	1	1.109422	1.109422	0	1	0	0	CorrectCommission	0.210512	0.695129	1	0	9.711765e+01
244.819458	1.293023	mountain	9	0	0.000000	1.372061	1	0	0	0	CorrectOmission	1.097468	0.707612	1	0	9.697059e+01
246.119019	1.306096	city	5	1	1.578249	1.578249	0	1	0	0	CorrectCommission	2.124315	0.720493	1	0	9.682353e+01
247.418533	1.292930	city	4	1	1.382121	1.382121	0	1	0	0	CorrectCommission	1.147567	0.733289	1	0	9.667647e+01
248.738113	1.346226	city	7	1	1.314024	1.314024	0	1	0	0	CorrectCommission	0.808435	0.746003	1	0	9.652941e+01
250.097656	1.372850	city	5	1	1.154384	1.154384	0	1	0	0	CorrectCommission	0.013403	0.759034	1	0	9.638235e+01
251.437195	1.306244	city	8	1	1.172715	1.172715	0	1	0	0	CorrectCommission	0.104698	0.773075	1	0	9.623529e+01
252.736786	1.292923	city	5	1	1.050087	1.050087	0	1	0	0	CorrectCommission	0.506010	0.788935	0	0	9.608824e+01
254.056351	1.346229	city	8	1	0.994828	0.994828	0	1	0	0	CorrectCommission	0.781209	0.807427	0	0	9.594118e+01
255.402496	1.346064	city	5	1	0.967294	0.967294	0	1	0	0	CorrectCommission	0.918330	0.829252	0	0	9.579412e+01
256.721985	1.292911	city	2	1	0.810306	0.810306	0	1	0	0	CorrectCommission	1.700154	0.854874	0	0	9.564706e+01
258.034973	1.333045	city	7	1	1.020980	1.020980	0	1	0	0	CorrectCommission	0.650968	0.884450	0	0	9.550000e+01
259.367920	1.332865	city	4	1	1.058488	1.058488	0	1	0	0	CorrectCommission	0.464171	0.917773	0	0	9.535294e+01
260.727386	1.386076	city	9	1	0.937372	0.937372	0	1	0	0	CorrectCommission	1.067350	0.954128	0	0	9.520588e+01
262.080292	1.319724	city	10	1	0.891460	0.891460	0	1	0	0	CorrectCommission	1.295995	0.992211	0	0	9.505882e+01
263.433167	1.386047	city	1	1	0.969098	0.969098	0	1	0	0	CorrectCommission	0.909347	1.030115	0	0	9.491176e+01
264.799347	1.346262	city	2	1	1.087108	1.087108	0	1	0	0	CorrectCommission	0.321641	1.065377	0	0	9.476471e+01
266.125671	1.306428	city	5	1	1.120937	1.120937	0	1	0	0	CorrectCommission	0.153166	1.095128	0	0	9.461765e+01
267.418671	1.279527	city	7	1	1.336965	1.336965	0	1	0	0	CorrectCommission	0.922686	1.116387	0	0	9.447059e+01
268.711517	1.306206	mountain	9	0	0.000000	1.605440	1	0	0	0	CorrectOmission	2.259731	1.126441	0	0	9.432353e+01
270.004364	1.279466	city	6	1	1.748323	1.748323	0	1	0	0	CorrectCommission	2.971310	1.123299	0	0	9.417647e+01
271.351715	1.415276	city	3	1	1.587576	1.587576	0	1	0	0	CorrectCommission	2.170764	1.106054	0	0	9.402941e+01
272.731262	1.343774	city	4	1	1.303163	1.303163	0	1	0	0	CorrectCommission	0.754345	1.075118	0	0	9.388235e+01
274.109589	1.412897	city	8	1	0.967734	0.967734	0	1	0	0	CorrectCommission	0.916142	1.032295	0	0	9.373529e+01
275.495850	1.359626	city	6	1	0.943363	0.943363	0	1	0	0	CorrectCommission	1.037512	0.980532	0	0	9.358824e+01
276.842102	1.332885	city	1	1	0.944250	0.944250	0	1	0	0	CorrectCommission	1.033093	0.923691	0	0	9.344118e+01
278.168365	1.319635	city	9	1	1.062592	1.062592	0	1	0	0	CorrectCommission	0.443733	0.866088	0	0	9.329412e+01
279.474640	1.292913	city	4	1	1.018509	1.018509	0	1	0	0	CorrectCommission	0.663275	0.812049	0	0	9.314706e+01
283.893127	7.544039	break	0	0	0.000000	1.145305	0	0	0	0	ThoughtProbe	0.031809	0.765479	1	93	93
288.311676	1.293071	city	7	1	1.226896	1.226896	0	1	0	0	CorrectCommission	0.374525	0.729564	1	0	9.302500e+01
289.604584	1.292775	city	3	1	1.047196	1.047196	0	1	0	0	CorrectCommission	0.520410	0.706526	1	0	9.305000e+01
290.904083	1.306209	city	6	1	1.259168	1.259168	0	1	0	0	CorrectCommission	0.535242	0.697555	1	0	9.307500e+01
292.203674	1.292981	city	10	1	1.332218	1.332218	0	1	0	0	CorrectCommission	0.899045	0.702777	1	0	9.310000e+01
293.523346	1.346318	city	6	1	1.307656	1.307656	0	1	0	0	CorrectCommission	0.776723	0.721273	1	0	9.312500e+01
294.849609	1.306230	city	9	1	1.230293	1.230293	0	1	0	0	CorrectCommission	0.391444	0.751188	1	0	9.315000e+01
296.149078	1.292700	city	7	1	1.273467	1.273467	0	1	0	0	CorrectCommission	0.606456	0.789823	0	0	9.317500e+01
297.468536	1.346250	city	8	1	1.142950	1.142950	0	1	0	0	CorrectCommission	0.043536	0.833804	0	0	9.320000e+01
298.821533	1.359716	city	4	1	0.999319	0.999319	0	1	0	0	CorrectCommission	0.758840	0.879362	0	0	9.322500e+01
300.147827	1.292905	mountain	1	0	0.000000	1.235778	1	0	0	0	CorrectOmission	0.418760	0.922600	0	0	9.325000e+01
301.440674	1.292753	mountain	4	0	0.000000	1.530932	1	0	0	0	CorrectOmission	1.888671	0.959900	0	0	9.327500e+01
302.726837	1.279601	city	4	1	1.563386	1.563386	0	1	0	0	CorrectCommission	2.050296	0.988224	0	0	9.330000e+01
304.026489	1.319701	city	7	1	1.011745	1.011745	0	1	0	0	CorrectCommission	0.696958	1.005524	0	0	9.332500e+01
305.332794	1.292907	city	10	1	0.705117	0.705117	0	1	0	0	CorrectCommission	2.224012	1.010975	0	0	9.335000e+01
306.638977	1.319457	city	9	1	0.899260	0.899260	0	1	0	0	CorrectCommission	1.257150	1.004952	0	0	9.337500e+01
307.951813	1.306181	city	5	1	0.838224	0.838224	0	1	0	0	CorrectCommission	1.561120	0.989006	0	0	9.340000e+01
309.264679	1.319579	city	8	1	0.910482	0.910482	0	1	0	0	CorrectCommission	1.201265	0.965467	0	0	9.342500e+01
310.584198	1.319461	city	3	1	1.180803	1.180803	0	1	0	0	CorrectCommission	0.144975	0.937056	0	0	9.345000e+01
311.897186	1.306492	mountain	10	0	0.000000	1.181929	1	0	0	0	CorrectOmission	0.150582	0.906446	0	0	9.347500e+01
313.196808	1.292751	city	10	1	1.122484	1.122484	0	1	0	0	CorrectCommission	0.145462	0.875872	0	0	9.350000e+01
314.496368	1.306393	city	5	1	1.211093	1.211093	0	1	0	0	CorrectCommission	0.295822	0.846945	0	0	9.352500e+01
315.836029	1.372901	city	6	1	1.323253	1.323253	0	1	0	0	CorrectCommission	0.854397	0.820615	0	0	9.355000e+01
317.168915	1.292911	city	5	1	1.602063	1.602063	0	1	0	0	CorrectCommission	2.242911	0.797275	0	0	9.357500e+01
318.481812	1.332877	city	8	1	0.914362	0.914362	0	1	0	0	CorrectCommission	1.181941	0.776963	0	0	9.360000e+01
319.828033	1.359575	city	2	1	0.963803	0.963803	0	1	0	0	CorrectCommission	0.935717	0.759632	1	0	9.362500e+01
321.147522	1.279396	city	9	1	1.124339	1.124339	0	1	0	0	CorrectCommission	0.136226	0.745246	1	0	9.365000e+01
322.467072	1.359711	city	3	1	1.136781	1.136781	0	1	0	0	CorrectCommission	0.074260	0.733897	1	0	9.367500e+01
323.806641	1.319423	city	8	1	1.013650	1.013650	0	1	0	0	CorrectCommission	0.687471	0.725727	1	0	9.370000e+01
325.112823	1.292907	city	1	1	0.921210	0.921210	0	1	0	0	CorrectCommission	1.147837	0.720802	1	0	9.372500e+01
326.399109	1.279681	city	4	1	1.377427	1.377427	0	1	0	0	CorrectCommission	1.124194	0.719009	1	0	9.375000e+01
327.698761	1.319626	city	3	1	1.147542	1.147542	0	1	0	0	CorrectCommission	0.020669	0.719913	1	0	9.377500e+01
329.018341	1.319544	city	8	1	1.146102	1.146102	0	1	0	0	CorrectCommission	0.027839	0.722762	1	0	9.380000e+01
330.317841	1.279420	city	2	1	1.019009	1.019009	0	1	0	0	CorrectCommission	0.660783	0.726467	1	0	9.382500e+01
331.610748	1.306401	city	10	1	0.999957	0.999957	0	1	0	0	CorrectCommission	0.755666	0.729764	1	0	9.385000e+01
332.910400	1.292929	city	4	1	1.311876	1.311876	0	1	0	0	CorrectCommission	0.797740	0.731543	1	0	9.387500e+01
334.229980	1.346207	city	10	1	1.457128	1.457128	0	1	0	0	CorrectCommission	1.521113	0.730976	1	0	9.390000e+01
335.562866	1.319586	city	1	1	1.470540	1.470540	0	1	0	0	CorrectCommission	1.587909	0.727811	1	0	9.392500e+01
336.895782	1.346237	city	3	1	1.381838	1.381838	0	1	0	0	CorrectCommission	1.146160	0.722512	1	0	9.395000e+01
338.215240	1.292706	city	10	1	1.171983	1.171983	0	1	0	0	CorrectCommission	0.101053	0.716273	1	0	9.397500e+01
341.853973	5.984719	break	0	0	0.000000	1.068017	0	0	0	0	ThoughtProbe	0.416716	0.710872	1	94	94
345.526123	1.359571	city	5	1	1.085914	1.085914	0	1	0	0	CorrectCommission	0.327585	0.708414	1	0	9.408824e+01
346.859009	1.306221	mountain	1	0	0.000000	1.241650	1	0	0	0	CorrectOmission	0.448003	0.711011	1	0	9.417647e+01
348.198547	1.372858	city	4	1	1.314068	1.314068	0	1	0	0	CorrectCommission	0.808654	0.720489	1	0	9.426471e+01
349.564758	1.359568	city	1	1	1.082010	1.082010	0	1	0	0	CorrectCommission	0.347029	0.738084	1	0	9.435294e+01
350.884399	1.279732	city	5	1	1.101975	1.101975	0	1	0	0	CorrectCommission	0.247600	0.764240	1	0	9.444118e+01
352.184021	1.319472	city	9	1	0.891081	0.891081	0	1	0	0	CorrectCommission	1.297885	0.798532	0	0	9.452941e+01
353.496948	1.306387	city	8	1	1.355172	1.355172	0	1	0	0	CorrectCommission	1.013359	0.839624	0	0	9.461765e+01
354.843201	1.386149	city	1	1	1.066388	1.066388	0	1	0	0	CorrectCommission	0.424828	0.885404	0	0	9.470588e+01
356.196106	1.319630	city	10	1	1.258242	1.258242	0	1	0	0	CorrectCommission	0.530635	0.933181	0	0	9.479412e+01
357.509003	1.306171	city	4	1	1.254487	1.254487	0	1	0	0	CorrectCommission	0.511935	0.979902	0	0	9.488235e+01
358.815216	1.306239	city	8	1	0.943200	0.943200	0	1	0	0	CorrectCommission	1.038324	1.022518	0	0	9.497059e+01
360.148010	1.359405	city	9	1	1.525207	1.525207	0	1	0	0	CorrectCommission	1.860161	1.058321	0	0	9.505882e+01
361.487549	1.319652	city	6	1	0.914514	0.914514	0	1	0	0	CorrectCommission	1.181183	1.085259	0	0	9.514706e+01
362.807190	1.319648	city	7	1	1.787610	1.787610	0	1	0	0	CorrectCommission	3.166962	1.102171	0	0	9.523529e+01
364.126740	1.319401	city	4	1	1.373110	1.373110	0	1	0	0	CorrectCommission	1.102691	1.108766	0	0	9.532353e+01
365.466309	1.359738	city	5	1	1.271660	1.271660	0	1	0	0	CorrectCommission	0.597456	1.105680	0	0	9.541176e+01
366.825928	1.359516	city	7	1	0.982924	0.982924	0	1	0	0	CorrectCommission	0.840493	1.094151	0	0	9.550000e+01
368.165466	1.319566	city	4	1	0.833486	0.833486	0	1	0	0	CorrectCommission	1.584716	1.075700	0	0	9.558824e+01
369.471710	1.292925	mountain	10	0	0.000000	1.125725	1	0	0	0	CorrectOmission	0.129321	1.051842	0	0	9.567647e+01
370.771301	1.306246	city	9	1	1.393387	1.393387	0	1	0	0	CorrectCommission	1.203678	1.023859	0	0	9.576471e+01
372.110870	1.372875	city	7	1	1.170219	1.170219	0	1	0	0	CorrectCommission	0.092267	0.992632	0	0	9.585294e+01
373.483734	1.372878	city	1	1	0.870258	0.870258	0	1	0	0	CorrectCommission	1.401586	0.958728	0	0	9.594118e+01
374.836609	1.332897	city	8	1	0.861516	0.861516	0	1	0	0	CorrectCommission	1.445121	0.922461	0	0	9.602941e+01
376.169495	1.332873	city	5	1	0.907140	0.907140	0	1	0	0	CorrectCommission	1.217908	0.884201	0	0	9.611765e+01
377.489075	1.306236	city	8	1	0.919862	0.919862	0	1	0	0	CorrectCommission	1.154549	0.844580	0	0	9.620588e+01
378.801971	1.319564	city	1	1	0.880903	0.880903	0	1	0	0	CorrectCommission	1.348570	0.804646	0	0	9.629412e+01
380.121490	1.319506	city	8	1	1.176073	1.176073	0	1	0	0	CorrectCommission	0.121418	0.765908	1	0	9.638235e+01
381.427734	1.292986	city	4	1	0.968697	0.968697	0	1	0	0	CorrectCommission	0.911344	0.730236	1	0	9.647059e+01
382.740601	1.332720	city	2	1	1.182345	1.182345	0	1	0	0	CorrectCommission	0.152656	0.699620	1	0	9.655882e+01
384.073486	1.333080	city	1	1	1.108996	1.108996	0	1	0	0	CorrectCommission	0.212633	0.675945	1	0	9.664706e+01
385.386475	1.292903	city	2	1	0.980728	0.980728	0	1	0	0	CorrectCommission	0.851427	0.660623	1	0	9.673529e+01
386.672729	1.279562	city	8	1	1.048184	1.048184	0	1	0	0	CorrectCommission	0.515489	0.654349	1	0	9.682353e+01
387.952209	1.279414	city	9	1	1.191765	1.191765	0	1	0	0	CorrectCommission	0.199566	0.656966	1	0	9.691176e+01
391.870911	6.557987	break	0	0	0.000000	1.170931	0	0	0	0	ThoughtProbe	0.095811	0.667421	1	97	97
395.809692	1.319586	city	7	1	1.070537	1.070537	0	1	0	0	CorrectCommission	0.404165	0.683904	1	0	9.682609e+01
397.135925	1.332886	city	4	1	0.975437	0.975437	0	1	0	0	CorrectCommission	0.877776	0.704073	1	0	9.665217e+01
398.462097	1.319444	city	3	1	0.994116	0.994116	0	1	0	0	CorrectCommission	0.784754	0.725419	1	0	9.647826e+01
399.781586	1.319530	city	4	1	0.870855	0.870855	0	1	0	0	CorrectCommission	1.398613	0.745669	1	0	9.630435e+01
401.114471	1.346221	city	3	1	1.028300	1.028300	0	1	0	0	CorrectCommission	0.614510	0.763088	1	0	9.613043e+01
402.434113	1.293093	city	5	1	1.444231	1.444231	0	1	0	0	CorrectCommission	1.456886	0.776751	0	0	9.595652e+01
403.780365	1.399381	city	1	1	1.495897	1.495897	0	1	0	0	CorrectCommission	1.714189	0.786606	0	0	9.578261e+01
405.133148	1.306212	city	6	1	1.278403	1.278403	0	1	0	0	CorrectCommission	0.631038	0.793380	0	0	9.560870e+01
406.446136	1.319754	city	3	1	1.174751	1.174751	0	1	0	0	CorrectCommission	0.114835	0.798393	0	0	9.543478e+01
407.779053	1.346061	city	1	1	1.050382	1.050382	0	1	0	0	CorrectCommission	0.504539	0.803151	0	0	9.526087e+01
409.091949	1.279740	mountain	5	0	0.000000	1.225664	1	0	0	0	CorrectOmission	0.368388	0.809018	0	0	9.508696e+01
410.378174	1.292751	city	10	1	1.359080	1.359080	0	1	0	0	CorrectCommission	1.032823	0.816920	0	0	9.491304e+01
411.724396	1.399673	city	9	1	1.109118	1.109118	0	1	0	0	CorrectCommission	0.212026	0.827118	0	0	9.473913e+01
413.097260	1.346060	city	4	1	0.931569	0.931569	0	1	0	0	CorrectCommission	1.096246	0.839194	0	0	9.456522e+01
414.436829	1.333057	city	1	1	0.937045	0.937045	0	1	0	0	CorrectCommission	1.068973	0.852079	0	0	9.439130e+01
415.769806	1.332915	mountain	1	1	0.957476	0.957476	0	0	1	0	CommissionError	0.967227	0.864268	0	0	9.421739e+01
417.095947	1.319385	city	10	1	1.021191	1.021191	0	1	0	0	CorrectCommission	0.649918	0.874128	0	0	9.404348e+01
418.408844	1.306401	mountain	2	0	0.000000	1.311655	1	0	0	0	CorrectOmission	0.796639	0.880124	0	0	9.386957e+01
419.708527	1.292929	city	4	1	1.414759	1.414759	0	1	0	0	CorrectCommission	1.310112	0.881093	0	0	9.369565e+01
421.021362	1.332775	city	8	1	0.916391	0.916391	0	1	0	0	CorrectCommission	1.171836	0.876453	0	0	9.352174e+01
422.340881	1.306257	city	10	1	0.722594	0.722594	0	1	0	0	CorrectCommission	2.136974	0.866282	0	0	9.334783e+01
423.667175	1.346300	city	3	1	1.054188	1.054188	0	1	0	0	CorrectCommission	0.485587	0.851268	0	0	9.317391e+01
425.033447	1.386252	city	1	1	1.236020	1.236020	0	1	0	0	CorrectCommission	0.419966	0.832655	0	0	93
426.399658	1.346205	city	10	1	1.088917	1.088917	0	1	0	0	CorrectCommission	0.312630	0.811984	0	0	9.282609e+01
427.752502	1.359448	city	6	1	1.296345	1.296345	0	1	0	0	CorrectCommission	0.720390	0.790869	0	0	9.265217e+01
429.085358	1.306304	city	3	1	1.339694	1.339694	0	1	0	0	CorrectCommission	0.936274	0.770819	1	0	9.247826e+01
430.404907	1.332759	city	9	1	1.289661	1.289661	0	1	0	0	CorrectCommission	0.687103	0.753087	1	0	9.230435e+01
431.757751	1.372918	city	5	1	1.029670	1.029670	0	1	0	0	CorrectCommission	0.607691	0.738557	1	0	9.213043e+01
433.130615	1.372839	city	4	1	1.235951	1.235951	0	1	0	0	CorrectCommission	0.419622	0.727742	1	0	9.195652e+01
434.456909	1.279742	mountain	5	0	0.000000	1.376078	1	0	0	0	CorrectOmission	1.117474	0.720826	1	0	9.178261e+01
435.763214	1.332894	city	9	1	1.352132	1.352132	0	1	0	0	CorrectCommission	0.998221	0.717692	1	0	9.160870e+01
437.102753	1.346186	city	3	1	1.066197	1.066197	0	1	0	0	CorrectCommission	0.425780	0.717987	1	0	9.143478e+01
438.448975	1.346258	city	8	1	1.047035	1.047035	0	1	0	0	CorrectCommission	0.521208	0.721202	1	0	9.126087e+01
439.795227	1.346222	city	4	1	1.124028	1.124028	0	1	0	0	CorrectCommission	0.137770	0.726684	1	0	9.108696e+01
441.148071	1.359465	city	5	1	1.104102	1.104102	0	1	0	0	CorrectCommission	0.237006	0.733745	1	0	9.091304e+01
442.487549	1.319492	city	4	1	1.587135	1.587135	0	1	0	0	CorrectCommission	2.168568	0.741677	1	0	9.073913e+01
443.813812	1.333057	city	5	1	1.273139	1.273139	0	1	0	0	CorrectCommission	0.604823	0.749761	1	0	9.056522e+01
445.146790	1.332895	city	2	1	1.045738	1.045738	0	1	0	0	CorrectCommission	0.527668	0.757388	1	0	9.039130e+01
446.473022	1.319577	city	8	1	1.413201	1.413201	0	1	0	0	CorrectCommission	1.302351	0.763980	1	0	9.021739e+01
447.845825	1.426025	city	10	1	1.037310	1.037310	0	1	0	0	CorrectCommission	0.569643	0.768975	1	0	9.004348e+01
449.218719	1.319729	city	1	1	1.182018	1.182018	0	1	0	0	CorrectCommission	0.151028	0.771857	1	0	8.986957e+01
450.551605	1.346073	city	10	1	1.236300	1.236300	0	1	0	0	CorrectCommission	0.421360	0.772129	1	0	8.969565e+01
451.884460	1.319607	city	5	1	1.488666	1.488666	0	1	0	0	CorrectCommission	1.678178	0.769312	1	0	8.952174e+01
453.250732	1.412973	city	3	1	1.204943	1.204943	0	1	0	0	CorrectCommission	0.265198	0.763053	1	0	8.934783e+01
454.643585	1.372729	city	8	1	0.845788	0.845788	0	1	0	0	CorrectCommission	1.523450	0.753238	1	0	8.917391e+01
455.329956	10.929744	break	0	0	0.000000	0.925730	0	0	0	0	ThoughtProbe	1.125328	0.740039	1	89	89
466.919586	1.319738	city	10	1	1.162990	1.162990	0	1	0	0	CorrectCommission	0.056265	0.724031	1	0	8.869565e+01
468.246033	1.333192	city	4	1	1.275790	1.275790	0	1	0	0	CorrectCommission	0.618026	0.706241	1	0	8.839130e+01
469.578918	1.332578	mountain	9	0	0.000000	1.366856	1	0	0	0	CorrectOmission	1.071545	0.688096	1	0	8.808696e+01
470.891663	1.292905	city	5	1	1.380582	1.380582	0	1	0	0	CorrectCommission	1.139902	0.671385	1	0	8.778261e+01
472.217865	1.359474	city	4	1	1.261363	1.261363	0	1	0	0	CorrectCommission	0.546175	0.658118	1	0	8.747826e+01
473.597412	1.399618	city	1	1	1.101238	1.101238	0	1	0	0	CorrectCommission	0.251268	0.650312	1	0	8.717391e+01
474.983673	1.372899	city	7	1	1.180062	1.180062	0	1	0	0	CorrectCommission	0.141285	0.649766	1	0	8.686957e+01
476.336487	1.332736	city	5	1	1.144016	1.144016	0	1	0	0	CorrectCommission	0.038228	0.657826	1	0	8.656522e+01
477.669281	1.332875	city	2	1	0.947289	0.947289	0	1	0	0	CorrectCommission	1.017962	0.675161	1	0	8.626087e+01
479.002258	1.333076	city	9	1	1.010918	1.010918	0	1	0	0	CorrectCommission	0.701080	0.701589	1	0	8.595652e+01
480.328583	1.319546	city	7	1	1.128376	1.128376	0	1	0	0	CorrectCommission	0.116119	0.736061	1	0	8.565217e+01
481.654694	1.332732	mountain	10	1	1.291077	1.291077	0	0	1	0	CommissionError	0.694158	0.776650	1	0	8.534783e+01
483.007538	1.372899	city	1	1	1.005119	1.005119	0	1	0	0	CorrectCommission	0.729957	0.820715	0	0	8.504348e+01
484.347168	1.306383	city	7	1	0.916576	0.916576	0	1	0	0	CorrectCommission	1.170913	0.865144	0	0	8.473913e+01
485.673492	1.346248	city	2	1	1.005703	1.005703	0	1	0	0	CorrectCommission	0.727048	0.906629	0	0	8.443478e+01
486.993042	1.292888	mountain	6	0	0.000000	1.303332	1	0	0	0	CorrectOmission	0.755189	0.942070	0	0	8.413043e+01
488.285950	1.292901	city	3	1	1.421447	1.421447	0	1	0	0	CorrectCommission	1.343420	0.968917	0	0	8.382609e+01
489.632111	1.399408	city	2	1	0.972032	0.972032	0	1	0	0	CorrectCommission	0.894735	0.985439	0	0	8.352174e+01
490.998322	1.333050	city	3	1	1.744920	1.744920	0	1	0	0	CorrectCommission	2.954360	0.990958	0	0	8.321739e+01
492.324554	1.319395	city	10	1	1.498913	1.498913	0	1	0	0	CorrectCommission	1.729212	0.985829	0	0	8.291304e+01
493.664001	1.359541	city	8	1	1.348423	1.348423	0	1	0	0	CorrectCommission	0.979747	0.971412	0	0	8.260870e+01
494.996979	1.306404	city	4	1	1.075589	1.075589	0	1	0	0	CorrectCommission	0.379007	0.949726	0	0	8.230435e+01
496.343292	1.386210	city	3	1	1.215339	1.215339	0	1	0	0	CorrectCommission	0.316971	0.923114	0	0	82
497.716187	1.359552	city	6	1	1.225765	1.225765	0	1	0	0	CorrectCommission	0.368895	0.893873	0	0	8.169565e+01
499.075745	1.359572	city	8	1	1.113497	1.113497	0	1	0	0	CorrectCommission	0.190219	0.864004	0	0	8.139130e+01
500.455292	1.399521	city	4	1	0.969220	0.969220	0	1	0	0	CorrectCommission	0.908742	0.835082	0	0	8.108696e+01
501.821411	1.332760	city	9	1	0.877713	0.877713	0	1	0	0	CorrectCommission	1.364457	0.808263	0	0	8.078261e+01
503.140991	1.306394	city	3	1	0.840000	0.840000	0	1	0	0	CorrectCommission	1.552274	0.784426	0	0	8.047826e+01
504.433899	1.279392	city	6	1	1.299230	1.299230	0	1	0	0	CorrectCommission	0.734758	0.764330	1	0	8.017391e+01
505.780121	1.413051	city	9	1	1.210950	1.210950	0	1	0	0	CorrectCommission	0.295110	0.748815	1	0	7.986957e+01
507.146423	1.319582	mountain	4	0	0.000000	1.303513	1	0	0	0	CorrectOmission	0.756087	0.738839	1	0	7.956522e+01
508.499237	1.386029	city	9	1	1.311341	1.311341	0	1	0	0	CorrectCommission	0.795071	0.735495	1	0	7.926087e+01
509.872101	1.359699	city	6	1	0.968855	0.968855	0	1	0	0	CorrectCommission	0.910556	0.739969	1	0	7.895652e+01
511.211761	1.319594	city	5	1	1.110636	1.110636	0	1	0	0	CorrectCommission	0.204466	0.753395	1	0	7.865217e+01
512.564636	1.386179	city	1	1	1.155171	1.155171	0	1	0	0	CorrectCommission	0.017324	0.776714	1	0	7.834783e+01
513.917542	1.319610	city	2	1	1.033045	1.033045	0	1	0	0	CorrectCommission	0.590882	0.810562	0	0	7.804348e+01
515.237000	1.319364	city	4	1	1.185015	1.185015	0	1	0	0	CorrectCommission	0.165953	0.855198	0	0	7.773913e+01
516.596497	1.399538	city	9	1	0.937460	0.937460	0	1	0	0	CorrectCommission	1.066912	0.910579	0	0	7.743478e+01
517.996033	1.399539	city	10	1	0.988210	0.988210	0	1	0	0	CorrectCommission	0.814167	0.976349	0	0	7.713043e+01
519.375549	1.359597	city	7	1	1.553485	1.553485	0	1	0	0	CorrectCommission	2.000985	1.051989	0	0	7.682609e+01
520.708557	1.306373	city	6	1	1.544204	1.544204	0	1	0	0	CorrectCommission	1.954769	1.136764	0	0	7.652174e+01
522.068176	1.412858	city	3	1	1.342508	1.342508	0	1	0	0	CorrectCommission	0.950289	1.229814	0	0	7.621739e+01
523.427673	1.306092	city	7	1	1.196462	1.196462	0	1	0	0	CorrectCommission	0.222960	1.330085	0	0	7.591304e+01
524.740479	1.319591	city	1	1	1.062785	1.062785	0	1	0	0	CorrectCommission	0.442771	1.436221	0	0	7.560870e+01
526.066772	1.332943	city	10	1	1.273798	1.273798	0	1	0	0	CorrectCommission	0.608103	1.546515	0	0	7.530435e+01
526.733215	9.316992	break	0	0	0.000000	1.484810	0	0	0	0	ThoughtProbe	1.658977	1.658977	0	75	75
