onset	duration	trial_type	image_type	Press	ReactionTime	ReactionTime_Interpolated	CorrectOmission	CorrectCommission	CommissionError	OmissionError	response_type	nonsmoothVarianceTimeCourse	VarianceTimeCourse	In_the_Zone	ThoughtProbe	ThoughtProbe_Interpolated
0.652857	1.279290	city	5	1	1.261293	1.261293	0	1	0	0	CorrectCommission	0.837749	0.837749	0	0	38
1.932360	1.279717	city	7	1	1.072134	1.072134	0	1	0	0	CorrectCommission	0.123154	0.831148	0	0	38
3.212000	1.279562	city	1	1	1.022451	1.022451	0	1	0	0	CorrectCommission	0.375536	0.823331	0	0	38
4.491604	1.279647	city	6	1	0.918258	0.918258	0	1	0	0	CorrectCommission	0.904822	0.813149	0	0	38
5.777939	1.293021	city	7	1	0.936717	0.936717	0	1	0	0	CorrectCommission	0.811053	0.799648	0	0	38
7.064156	1.279414	city	9	1	0.811004	0.811004	0	1	0	0	CorrectCommission	1.449658	0.782174	0	0	38
8.350393	1.293061	city	8	1	0.808502	0.808502	0	1	0	0	CorrectCommission	1.462364	0.760410	0	0	38
9.636712	1.279576	city	2	1	1.020481	1.020481	0	1	0	0	CorrectCommission	0.385544	0.734458	1	0	38
10.916288	1.279578	city	10	1	0.862241	0.862241	0	1	0	0	CorrectCommission	1.189381	0.704802	1	0	38
12.235819	1.359483	city	2	1	1.071330	1.071330	0	1	0	0	CorrectCommission	0.127237	0.672198	1	0	38
13.555374	1.279627	city	9	1	0.964185	0.964185	0	1	0	0	CorrectCommission	0.671521	0.637641	1	0	38
14.834990	1.279604	city	4	1	0.980027	0.980027	0	1	0	0	CorrectCommission	0.591042	0.602181	1	0	38
16.114578	1.279574	mountain	5	0	0.000000	1.037811	1	0	0	0	CorrectOmission	0.297507	0.566861	1	0	38
17.394157	1.279583	city	9	1	1.129916	1.129916	0	1	0	0	CorrectCommission	0.170373	0.532630	1	0	38
18.673719	1.279541	mountain	4	0	0.000000	1.248722	1	0	0	0	CorrectOmission	0.773890	0.500337	1	0	38
19.953245	1.279512	city	10	1	1.286874	1.286874	0	1	0	0	CorrectCommission	0.967696	0.470699	1	0	38
21.239487	1.292971	city	7	1	1.137018	1.137018	0	1	0	0	CorrectCommission	0.206447	0.444388	1	0	38
22.525696	1.279448	city	8	1	1.015183	1.015183	0	1	0	0	CorrectCommission	0.412456	0.422024	1	0	38
23.805286	1.279732	mountain	6	0	0.000000	1.069256	1	0	0	0	CorrectOmission	0.137772	0.404160	1	0	38
25.084951	1.279598	city	7	1	1.127405	1.127405	0	1	0	0	CorrectCommission	0.157616	0.391295	1	0	38
26.364538	1.279575	city	9	1	1.017797	1.017797	0	1	0	0	CorrectCommission	0.399177	0.383795	1	0	38
27.644104	1.279559	city	10	1	0.969126	0.969126	0	1	0	0	CorrectCommission	0.646420	0.381851	1	0	38
28.936935	1.306100	city	4	1	1.098298	1.098298	0	1	0	0	CorrectCommission	0.009754	0.385415	1	0	38
30.229843	1.279718	city	9	1	1.069527	1.069527	0	1	0	0	CorrectCommission	0.136397	0.394169	1	0	38
31.509501	1.279595	city	7	1	1.074634	1.074634	0	1	0	0	CorrectCommission	0.110453	0.407472	1	0	38
32.789066	1.279541	city	6	1	1.180262	1.180262	0	1	0	0	CorrectCommission	0.426120	0.424392	1	0	38
34.075226	1.292776	city	2	1	0.924880	0.924880	0	1	0	0	CorrectCommission	0.871184	0.443766	1	0	38
35.361408	1.279589	city	9	1	1.069717	1.069717	0	1	0	0	CorrectCommission	0.135433	0.464292	1	0	38
36.641113	1.279819	city	8	1	0.982787	0.982787	0	1	0	0	CorrectCommission	0.577023	0.484684	1	0	38
37.920692	1.279341	city	6	1	0.964204	0.964204	0	1	0	0	CorrectCommission	0.671423	0.503786	1	0	38
39.206886	1.293050	city	7	1	0.970647	0.970647	0	1	0	0	CorrectCommission	0.638691	0.520669	1	0	38
40.499866	1.292909	city	3	1	0.989159	0.989159	0	1	0	0	CorrectCommission	0.544654	0.534749	1	0	38
41.812691	1.332742	city	8	1	0.958241	0.958241	0	1	0	0	CorrectCommission	0.701712	0.545791	1	0	38
43.118847	1.279571	city	9	1	0.974806	0.974806	0	1	0	0	CorrectCommission	0.617566	0.553894	1	0	38
44.398441	1.279611	mountain	3	0	0.000000	1.194201	1	0	0	0	CorrectOmission	0.496930	0.559423	1	0	38
45.678066	1.279642	city	10	1	1.336975	1.336975	0	1	0	0	CorrectCommission	1.222202	0.562906	1	0	38
46.957726	1.279677	city	3	1	1.123676	1.123676	0	1	0	0	CorrectCommission	0.138675	0.564829	1	0	38
48.237339	1.279552	city	1	1	1.031783	1.031783	0	1	0	0	CorrectCommission	0.328128	0.565587	1	0	38
49.536896	1.319561	city	10	1	0.990604	0.990604	0	1	0	0	CorrectCommission	0.537317	0.565307	1	0	38
50.836411	1.279467	city	9	1	1.078101	1.078101	0	1	0	0	CorrectCommission	0.092842	0.563848	1	0	38
52.115990	1.279692	city	1	1	0.972694	0.972694	0	1	0	0	CorrectCommission	0.628292	0.560849	1	0	38
53.408997	1.306323	city	5	1	1.277648	1.277648	0	1	0	0	CorrectCommission	0.920827	0.555785	1	0	38
54.715172	1.306026	city	8	1	1.016614	1.016614	0	1	0	0	CorrectCommission	0.405188	0.548170	1	0	38
56.014713	1.293060	city	7	1	0.893261	0.893261	0	1	0	0	CorrectCommission	1.031803	0.537730	1	0	38
57.314350	1.306210	city	8	1	0.911181	0.911181	0	1	0	0	CorrectCommission	0.940773	0.524539	1	0	38
57.967453	8.050711	break	0	1	0.974528	0.974528	0	0	0	0	ThoughtProbe	0.618979	0.509133	1	38	38
66.657951	1.279578	city	9	1	1.135208	1.135208	0	1	0	0	CorrectCommission	0.197253	0.492492	1	0	3.895652e+01
67.944199	1.292909	city	6	1	1.032751	1.032751	0	1	0	0	CorrectCommission	0.323211	0.475952	1	0	3.991304e+01
69.230438	1.279579	city	1	1	0.963553	0.963553	0	1	0	0	CorrectCommission	0.674729	0.461028	1	0	4.086957e+01
70.509933	1.279403	city	9	1	1.020452	1.020452	0	1	0	0	CorrectCommission	0.385689	0.449251	1	0	4.182609e+01
71.789497	1.279733	mountain	3	0	0.000000	1.071540	1	0	0	0	CorrectOmission	0.126170	0.441943	1	0	4.278261e+01
73.075829	1.292922	city	3	1	1.095118	1.095118	0	1	0	0	CorrectCommission	0.006400	0.440039	1	0	4.373913e+01
74.361992	1.279405	city	2	1	1.069485	1.069485	0	1	0	0	CorrectCommission	0.136608	0.443962	1	0	4.469565e+01
75.641479	1.279572	city	3	1	1.128485	1.128485	0	1	0	0	CorrectCommission	0.163102	0.453572	1	0	4.565217e+01
76.927849	1.293174	city	5	1	1.318534	1.318534	0	1	0	0	CorrectCommission	1.128526	0.468190	1	0	4.660870e+01
78.227432	1.305982	city	8	1	1.067135	1.067135	0	1	0	0	CorrectCommission	0.148549	0.486678	1	0	4.756522e+01
79.533539	1.306229	city	3	1	0.938223	0.938223	0	1	0	0	CorrectCommission	0.803402	0.507593	1	0	4.852174e+01
80.839851	1.306398	city	1	1	1.097718	1.097718	0	1	0	0	CorrectCommission	0.006809	0.529276	1	0	4.947826e+01
82.139420	1.292748	mountain	3	1	0.940863	0.940863	0	0	1	0	CommissionError	0.789993	0.550070	1	0	5.043478e+01
83.425629	1.279669	city	2	1	1.375522	1.375522	0	1	0	0	CorrectCommission	1.418014	0.568398	1	0	5.139130e+01
84.731956	1.332979	city	1	1	1.069035	1.069035	0	1	0	0	CorrectCommission	0.138896	0.582881	1	0	5.234783e+01
86.044891	1.292890	city	10	1	1.172018	1.172018	0	1	0	0	CorrectCommission	0.384243	0.592524	1	0	5.330435e+01
87.337708	1.292746	city	7	1	1.048917	1.048917	0	1	0	0	CorrectCommission	0.241092	0.596711	1	0	5.426087e+01
88.630623	1.293076	city	9	1	0.932137	0.932137	0	1	0	0	CorrectCommission	0.834319	0.595328	1	0	5.521739e+01
89.916870	1.279427	city	6	1	0.771697	0.771697	0	1	0	0	CorrectCommission	1.649329	0.588809	1	0	5.617391e+01
91.196365	1.279562	city	1	1	0.876506	0.876506	0	1	0	0	CorrectCommission	1.116914	0.578085	1	0	5.713043e+01
92.482658	1.293024	mountain	8	0	0.000000	1.034321	1	0	0	0	CorrectOmission	0.315240	0.564556	1	0	5.808696e+01
93.768982	1.279622	city	9	1	1.122494	1.122494	0	1	0	0	CorrectCommission	0.132669	0.549910	1	0	5.904348e+01
95.048599	1.279611	city	6	1	1.018381	1.018381	0	1	0	0	CorrectCommission	0.396210	0.535900	1	0	60
96.354767	1.332733	city	2	1	1.027811	1.027811	0	1	0	0	CorrectCommission	0.348309	0.524092	1	0	6.095652e+01
97.680977	1.319676	city	7	1	1.004225	1.004225	0	1	0	0	CorrectCommission	0.468123	0.515683	1	0	6.191304e+01
98.987198	1.292774	city	6	1	1.051849	1.051849	0	1	0	0	CorrectCommission	0.226197	0.511282	1	0	6.286957e+01
100.286797	1.306424	city	8	1	1.054640	1.054640	0	1	0	0	CorrectCommission	0.212018	0.510885	1	0	6.382609e+01
101.579788	1.279556	city	4	1	1.038968	1.038968	0	1	0	0	CorrectCommission	0.291633	0.513944	1	0	6.478261e+01
102.859291	1.279447	city	10	1	0.911617	0.911617	0	1	0	0	CorrectCommission	0.938557	0.519431	1	0	6.573913e+01
104.138786	1.279547	mountain	3	0	0.000000	1.068012	1	0	0	0	CorrectOmission	0.144090	0.526123	1	0	6.669565e+01
105.418434	1.279752	city	8	1	1.251817	1.251817	0	1	0	0	CorrectCommission	0.789611	0.532883	1	0	6.765217e+01
106.711342	1.306062	city	10	1	1.206694	1.206694	0	1	0	0	CorrectCommission	0.560393	0.538893	1	0	6.860870e+01
108.004257	1.279764	city	6	1	1.391694	1.391694	0	1	0	0	CorrectCommission	1.500165	0.543862	1	0	6.956522e+01
109.283844	1.279421	city	10	1	1.181139	1.181139	0	1	0	0	CorrectCommission	0.430577	0.548090	1	0	7.052174e+01
110.563263	1.279413	city	6	1	1.245012	1.245012	0	1	0	0	CorrectCommission	0.755043	0.552442	1	0	7.147826e+01
111.869507	1.333070	city	10	1	1.133566	1.133566	0	1	0	0	CorrectCommission	0.188915	0.558103	1	0	7.243478e+01
113.195900	1.319718	city	9	1	1.111058	1.111058	0	1	0	0	CorrectCommission	0.074576	0.566386	1	0	7.339130e+01
114.495552	1.279586	city	5	1	0.925750	0.925750	0	1	0	0	CorrectCommission	0.866765	0.578355	1	0	7.434783e+01
115.775047	1.279405	city	4	1	1.076694	1.076694	0	1	0	0	CorrectCommission	0.099988	0.594525	1	0	7.530435e+01
117.081207	1.332910	city	3	1	1.020072	1.020072	0	1	0	0	CorrectCommission	0.387622	0.614690	1	0	7.626087e+01
118.394127	1.292928	city	10	1	1.030068	1.030068	0	1	0	0	CorrectCommission	0.336842	0.637774	1	0	7.721739e+01
119.680443	1.279707	city	6	1	1.207448	1.207448	0	1	0	0	CorrectCommission	0.564224	0.661921	1	0	7.817391e+01
120.960007	1.279416	city	8	1	1.035012	1.035012	0	1	0	0	CorrectCommission	0.311727	0.684699	1	0	7.913043e+01
122.239555	1.279695	city	9	1	1.445193	1.445193	0	1	0	0	CorrectCommission	1.771932	0.703412	1	0	8.008696e+01
123.552452	1.346084	city	6	1	1.137551	1.137551	0	1	0	0	CorrectCommission	0.209158	0.715449	1	0	8.104348e+01
126.964684	5.478385	break	0	1	1.231504	1.231504	0	0	0	0	ThoughtProbe	0.686425	0.718750	1	82	82
130.350327	1.292910	city	7	1	1.760195	1.760195	0	1	0	0	CorrectCommission	3.372098	0.711995	1	0	8.189130e+01
131.643234	1.292903	city	5	1	1.191616	1.191616	0	1	0	0	CorrectCommission	0.483798	0.694800	1	0	8.178261e+01
132.929474	1.279560	mountain	10	1	1.126885	1.126885	0	0	1	0	CommissionError	0.154976	0.667904	1	0	8.167391e+01
134.209000	1.279505	city	7	1	1.124398	1.124398	0	1	0	0	CorrectCommission	0.142339	0.632918	1	0	8.156522e+01
135.508606	1.319709	city	9	1	1.153550	1.153550	0	1	0	0	CorrectCommission	0.290427	0.592166	1	0	8.145652e+01
136.808151	1.279371	mountain	7	0	0.000000	1.267354	1	0	0	0	CorrectOmission	0.868537	0.548474	1	0	8.134783e+01
138.087692	1.279720	city	9	1	1.316354	1.316354	0	1	0	0	CorrectCommission	1.117450	0.504865	1	0	8.123913e+01
139.387253	1.319410	city	1	1	1.151094	1.151094	0	1	0	0	CorrectCommission	0.277950	0.464347	1	0	8.113043e+01
140.693436	1.292953	city	9	1	1.089375	1.089375	0	1	0	0	CorrectCommission	0.035570	0.429673	1	0	8.102174e+01
141.986343	1.292866	city	4	1	1.081731	1.081731	0	1	0	0	CorrectCommission	0.074402	0.403169	1	0	8.091304e+01
143.272583	1.279605	city	1	1	1.054064	1.054064	0	1	0	0	CorrectCommission	0.214946	0.386577	1	0	8.080435e+01
144.565567	1.306367	city	4	1	1.106481	1.106481	0	1	0	0	CorrectCommission	0.051325	0.380945	1	0	8.069565e+01
145.858475	1.279437	city	5	1	1.082125	1.082125	0	1	0	0	CorrectCommission	0.072402	0.386585	1	0	8.058696e+01
147.151382	1.306398	city	8	1	0.996754	0.996754	0	1	0	0	CorrectCommission	0.506073	0.403008	1	0	8.047826e+01
148.444290	1.279408	mountain	4	0	0.000000	1.085938	1	0	0	0	CorrectOmission	0.053031	0.429006	1	0	8.036957e+01
149.737106	1.306232	city	10	1	1.174172	1.174172	0	1	0	0	CorrectCommission	0.395188	0.462736	1	0	8.026087e+01
151.036713	1.292956	city	3	1	1.085953	1.085953	0	1	0	0	CorrectCommission	0.052957	0.501857	1	0	8.015217e+01
152.329727	1.293088	city	1	1	1.232914	1.232914	0	1	0	0	CorrectCommission	0.693586	0.543751	1	0	8.004348e+01
153.622696	1.292851	city	6	1	1.312786	1.312786	0	1	0	0	CorrectCommission	1.099324	0.585720	1	0	7.993478e+01
154.915482	1.292732	city	7	1	1.191791	1.191791	0	1	0	0	CorrectCommission	0.484687	0.625175	1	0	7.982609e+01
156.208344	1.292984	city	8	1	0.964642	0.964642	0	1	0	0	CorrectCommission	0.669200	0.659941	1	0	7.971739e+01
157.494690	1.279691	city	10	1	0.867950	0.867950	0	1	0	0	CorrectCommission	1.160378	0.688381	1	0	7.960870e+01
158.774307	1.279552	city	2	1	0.879548	0.879548	0	1	0	0	CorrectCommission	1.101465	0.709419	1	0	7.950000e+01
160.060547	1.292931	city	1	1	0.941945	0.941945	0	1	0	0	CorrectCommission	0.784496	0.722719	1	0	7.939130e+01
161.366776	1.319524	city	3	1	0.894138	0.894138	0	1	0	0	CorrectCommission	1.027347	0.728598	1	0	7.928261e+01
162.666275	1.279482	city	6	1	1.246034	1.246034	0	1	0	0	CorrectCommission	0.760233	0.727904	1	0	7.917391e+01
163.959229	1.306407	city	7	1	1.261205	1.261205	0	1	0	0	CorrectCommission	0.837301	0.721905	1	0	7.906522e+01
165.258865	1.292867	city	6	1	1.137583	1.137583	0	1	0	0	CorrectCommission	0.209319	0.712139	1	0	7.895652e+01
166.551666	1.292745	city	10	1	1.032748	1.032748	0	1	0	0	CorrectCommission	0.323230	0.700255	1	0	7.884783e+01
167.844559	1.293054	city	8	1	0.900813	0.900813	0	1	0	0	CorrectCommission	0.993440	0.687926	1	0	7.873913e+01
169.144760	1.307337	city	1	1	0.947989	0.947989	0	1	0	0	CorrectCommission	0.753792	0.676756	1	0	7.863043e+01
170.444260	1.291666	city	5	1	1.324227	1.324227	0	1	0	0	CorrectCommission	1.157446	0.668237	1	0	7.852174e+01
171.743210	1.306242	city	8	1	0.995174	0.995174	0	1	0	0	CorrectCommission	0.514098	0.663637	1	0	7.841304e+01
173.036209	1.279738	mountain	1	0	0.000000	0.976303	1	0	0	0	CorrectOmission	0.609960	0.663974	1	0	7.830435e+01
174.322449	1.292756	city	6	1	1.085319	1.085319	0	1	0	0	CorrectCommission	0.056176	0.669873	1	0	7.819565e+01
175.608597	1.279542	city	8	1	1.139926	1.139926	0	1	0	0	CorrectCommission	0.221218	0.681500	1	0	7.808696e+01
176.901505	1.306253	city	10	1	0.941177	0.941177	0	1	0	0	CorrectCommission	0.788397	0.698462	1	0	7.797826e+01
178.194504	1.279749	city	4	1	1.288358	1.288358	0	1	0	0	CorrectCommission	0.975232	0.719802	1	0	7.786957e+01
179.700760	1.732765	city	3	1	1.111172	1.111172	0	1	0	0	CorrectCommission	0.075154	0.744057	0	0	7.776087e+01
181.220261	1.306240	city	9	1	1.218390	1.218390	0	1	0	0	CorrectCommission	0.619808	0.769387	0	0	7.765217e+01
182.513168	1.279581	city	4	1	1.508463	1.508463	0	1	0	0	CorrectCommission	2.093336	0.793718	0	0	7.754348e+01
183.812729	1.319537	city	2	1	1.150339	1.150339	0	1	0	0	CorrectCommission	0.274120	0.814967	0	0	7.743478e+01
185.125565	1.306126	city	5	1	1.034695	1.034695	0	1	0	0	CorrectCommission	0.313339	0.831400	0	0	7.732609e+01
186.425140	1.293024	city	4	1	0.861641	0.861641	0	1	0	0	CorrectCommission	1.192428	0.841696	0	0	7.721739e+01
187.738098	1.332906	city	6	1	0.830404	0.830404	0	1	0	0	CorrectCommission	1.351108	0.845169	0	0	7.710870e+01
190.563766	4.318417	break	0	1	0.817759	0.817759	0	0	0	0	ThoughtProbe	1.415341	0.841870	0	77	77
193.369461	1.292980	city	8	1	1.521340	1.521340	0	1	0	0	CorrectCommission	2.158751	0.832540	0	0	7.597500e+01
194.669083	1.306257	city	6	1	1.064758	1.064758	0	1	0	0	CorrectCommission	0.160621	0.818463	0	0	7.495000e+01
195.982025	1.319622	city	4	1	1.111570	1.111570	0	1	0	0	CorrectCommission	0.077175	0.801295	0	0	7.392500e+01
197.281631	1.279600	city	7	1	1.026365	1.026365	0	1	0	0	CorrectCommission	0.355656	0.782757	0	0	7.290000e+01
198.567871	1.292890	city	2	1	0.993146	0.993146	0	1	0	0	CorrectCommission	0.524400	0.764391	0	0	7.187500e+01
199.854126	1.279597	city	5	1	1.017310	1.017310	0	1	0	0	CorrectCommission	0.401652	0.747418	0	0	7.085000e+01
201.140289	1.292757	city	3	1	0.893527	0.893527	0	1	0	0	CorrectCommission	1.030450	0.732686	1	0	6.982500e+01
202.426468	1.279574	city	4	1	0.878908	0.878908	0	1	0	0	CorrectCommission	1.104713	0.720652	1	0	6.880000e+01
203.712784	1.293064	city	9	1	0.846429	0.846429	0	1	0	0	CorrectCommission	1.269701	0.711522	1	0	6.777500e+01
205.005753	1.292891	city	2	1	1.176757	1.176757	0	1	0	0	CorrectCommission	0.408314	0.705336	1	0	6.675000e+01
206.291916	1.279422	mountain	9	0	0.000000	1.208893	1	0	0	0	CorrectOmission	0.571562	0.702110	1	0	6.572500e+01
207.571533	1.279802	city	1	1	1.143347	1.143347	0	1	0	0	CorrectCommission	0.238600	0.701850	1	0	6.470000e+01
208.851120	1.279379	city	9	1	1.180629	1.180629	0	1	0	0	CorrectCommission	0.427988	0.704600	1	0	6.367500e+01
210.130585	1.279546	mountain	9	1	0.930396	0.930396	0	0	1	0	CommissionError	0.843163	0.710399	1	0	6.265000e+01
211.436890	1.333078	city	3	1	1.153670	1.153670	0	1	0	0	CorrectCommission	0.291039	0.719308	1	0	6.162500e+01
212.743210	1.279554	city	5	1	1.493750	1.493750	0	1	0	0	CorrectCommission	2.018599	0.731355	1	0	6.060000e+01
214.049393	1.332807	city	1	1	1.237239	1.237239	0	1	0	0	CorrectCommission	0.715556	0.746374	0	0	5.957500e+01
215.362274	1.292975	mountain	3	0	0.000000	1.155555	1	0	0	0	CorrectOmission	0.300613	0.764128	0	0	5.855000e+01
216.648575	1.279624	city	2	1	1.125197	1.125197	0	1	0	0	CorrectCommission	0.146397	0.784135	0	0	5.752500e+01
217.928177	1.279566	city	8	0	0.000000	1.022662	0	0	0	1	OmissionError	0.374464	0.805687	0	0	5.650000e+01
219.207748	1.279578	city	6	1	0.932885	0.932885	0	1	0	0	CorrectCommission	0.830517	0.827884	0	0	5.547500e+01
220.487335	1.279594	city	4	1	0.940800	0.940800	0	1	0	0	CorrectCommission	0.790314	0.849724	0	0	5.445000e+01
221.773499	1.292740	city	5	1	0.705909	0.705909	0	1	0	0	CorrectCommission	1.983527	0.870185	0	0	5.342500e+01
223.079681	1.319617	city	4	1	1.282002	1.282002	0	1	0	0	CorrectCommission	0.942949	0.888363	0	0	5.240000e+01
224.379333	1.279701	city	10	1	0.855577	0.855577	0	1	0	0	CorrectCommission	1.223232	0.903587	0	0	5.137500e+01
225.665634	1.292883	city	2	1	0.894638	0.894638	0	1	0	0	CorrectCommission	1.024810	0.915374	0	0	5.035000e+01
226.971771	1.319406	city	3	1	1.219805	1.219805	0	1	0	0	CorrectCommission	0.626993	0.923454	0	0	4.932500e+01
228.304688	1.346412	city	5	1	1.037244	1.037244	0	1	0	0	CorrectCommission	0.300391	0.927753	0	0	4.830000e+01
229.624329	1.292883	city	8	1	0.965127	0.965127	0	1	0	0	CorrectCommission	0.666733	0.928314	0	0	4.727500e+01
230.943878	1.346217	city	3	1	0.842623	0.842623	0	1	0	0	CorrectCommission	1.289035	0.925328	0	0	4.625000e+01
232.263458	1.292937	city	8	1	0.784113	0.784113	0	1	0	0	CorrectCommission	1.586257	0.919180	0	0	4.522500e+01
233.556381	1.292905	city	6	1	0.863101	0.863101	0	1	0	0	CorrectCommission	1.185009	0.910546	0	0	4.420000e+01
234.849274	1.292884	city	4	1	1.042271	1.042271	0	1	0	0	CorrectCommission	0.274853	0.900434	0	0	4.317500e+01
236.142136	1.292841	city	10	1	0.891582	0.891582	0	1	0	0	CorrectCommission	1.040332	0.890208	0	0	4.215000e+01
237.455032	1.332966	city	7	1	0.780023	0.780023	0	1	0	0	CorrectCommission	1.607034	0.881481	0	0	4.112500e+01
238.767990	1.292930	city	6	1	0.989220	0.989220	0	1	0	0	CorrectCommission	0.544344	0.875954	0	0	4.010000e+01
240.054230	1.279557	city	3	1	1.294585	1.294585	0	1	0	0	CorrectCommission	1.006865	0.875230	0	0	3.907500e+01
241.373703	1.359387	city	10	1	1.127608	1.127608	0	1	0	0	CorrectCommission	0.158645	0.880398	0	0	3.805000e+01
242.693253	1.279720	city	4	1	1.199508	1.199508	0	1	0	0	CorrectCommission	0.523888	0.891829	0	0	3.702500e+01
243.333115	12.329155	break	0	0	0.000000	1.267446	0	0	0	0	ThoughtProbe	0.869002	0.908897	0	36	36
256.308838	1.293133	city	6	1	1.256126	1.256126	0	1	0	0	CorrectCommission	0.811503	0.929893	0	0	36
257.601837	1.292883	city	2	1	1.090256	1.090256	0	1	0	0	CorrectCommission	0.031095	0.952104	0	0	36
258.908051	1.319511	city	3	1	0.994058	0.994058	0	1	0	0	CorrectCommission	0.519769	0.972107	0	0	36
260.227570	1.319564	city	2	1	0.796944	0.796944	0	1	0	0	CorrectCommission	1.521079	0.986177	0	0	36
261.527161	1.279596	city	9	1	0.719543	0.719543	0	1	0	0	CorrectCommission	1.914264	0.990839	0	0	36
262.806702	1.279486	city	7	1	0.734749	0.734749	0	1	0	0	CorrectCommission	1.837023	0.983478	0	0	36
264.086273	1.279679	mountain	10	1	0.591258	0.591258	0	0	1	0	CommissionError	2.565936	0.962746	0	0	36
265.372589	1.292909	city	2	1	0.942833	0.942833	0	1	0	0	CorrectCommission	0.779986	0.928809	0	0	36
266.658813	1.279581	city	6	1	0.981674	0.981674	0	1	0	0	CorrectCommission	0.582675	0.883447	0	0	36
267.951721	1.306212	city	1	1	0.944779	0.944779	0	1	0	0	CorrectCommission	0.770099	0.829774	0	0	36
269.251221	1.292774	city	9	1	0.924313	0.924313	0	1	0	0	CorrectCommission	0.874065	0.771845	0	0	36
270.537445	1.279716	city	6	1	1.025084	1.025084	0	1	0	0	CorrectCommission	0.362159	0.714155	1	0	36
271.823761	1.292909	city	9	1	1.039854	1.039854	0	1	0	0	CorrectCommission	0.287130	0.661111	1	0	36
273.116608	1.292798	city	5	1	0.989957	0.989957	0	1	0	0	CorrectCommission	0.540603	0.616521	1	0	36
274.416199	1.306370	city	10	1	1.095957	1.095957	0	1	0	0	CorrectCommission	0.002134	0.583271	1	0	36
275.715759	1.292728	city	8	1	1.150301	1.150301	0	1	0	0	CorrectCommission	0.273923	0.563117	1	0	36
277.028564	1.332885	city	2	1	1.125930	1.125930	0	1	0	0	CorrectCommission	0.150122	0.556592	1	0	36
278.334869	1.279740	city	10	1	1.092876	1.092876	0	1	0	0	CorrectCommission	0.017788	0.563176	1	0	36
279.614471	1.279449	mountain	6	0	0.000000	1.214153	1	0	0	0	CorrectOmission	0.598284	0.581483	1	0	36
280.900696	1.292990	city	2	1	1.312218	1.312218	0	1	0	0	CorrectCommission	1.096441	0.609532	1	0	36
282.200348	1.306307	city	8	1	1.209527	1.209527	0	1	0	0	CorrectCommission	0.574785	0.645052	1	0	36
283.506592	1.306230	city	3	1	0.934622	0.934622	0	1	0	0	CorrectCommission	0.821696	0.685712	1	0	36
284.799500	1.279589	city	4	1	1.148308	1.148308	0	1	0	0	CorrectCommission	0.263799	0.729294	1	0	36
286.079102	1.279578	city	8	1	0.927556	0.927556	0	1	0	0	CorrectCommission	0.857587	0.773818	0	0	36
287.358582	1.279394	city	3	1	0.782074	0.782074	0	1	0	0	CorrectCommission	1.596615	0.817493	0	0	36
288.638153	1.279767	city	6	1	0.914899	0.914899	0	1	0	0	CorrectCommission	0.921884	0.858729	0	0	36
289.924408	1.292743	city	10	1	1.031679	1.031679	0	1	0	0	CorrectCommission	0.328660	0.896095	0	0	36
291.210663	1.279738	city	8	1	1.200698	1.200698	0	1	0	0	CorrectCommission	0.529933	0.928310	0	0	36
292.490234	1.279404	city	1	1	1.296330	1.296330	0	1	0	0	CorrectCommission	1.015731	0.954239	0	0	36
293.796387	1.332904	city	2	1	1.351452	1.351452	0	1	0	0	CorrectCommission	1.295741	0.973045	0	0	36
295.109283	1.292888	city	5	1	1.374383	1.374383	0	1	0	0	CorrectCommission	1.412228	0.984297	0	0	36
296.402191	1.292935	city	4	1	1.427809	1.427809	0	1	0	0	CorrectCommission	1.683626	0.988102	0	0	36
297.735168	1.373041	city	9	1	1.245300	1.245300	0	1	0	0	CorrectCommission	0.756507	0.985168	0	0	36
298.421692	8.823623	break	0	0	0.000000	1.360782	0	0	0	0	ThoughtProbe	1.343135	0.976883	0	36	36
307.885193	1.279727	city	4	1	1.454524	1.454524	0	1	0	0	CorrectCommission	1.819334	0.965145	0	0	3.564706e+01
309.171478	1.292873	city	9	1	1.206799	1.206799	0	1	0	0	CorrectCommission	0.560924	0.952173	0	0	3.529412e+01
310.477722	1.319571	city	10	1	1.046126	1.046126	0	1	0	0	CorrectCommission	0.255272	0.940276	0	0	3.494118e+01
311.777283	1.279602	city	4	1	1.018425	1.018425	0	1	0	0	CorrectCommission	0.395987	0.931449	0	0	3.458824e+01
313.076904	1.319593	city	2	1	1.032230	1.032230	0	1	0	0	CorrectCommission	0.325859	0.927133	0	0	3.423529e+01
314.376465	1.279554	city	5	1	1.351622	1.351622	0	1	0	0	CorrectCommission	1.296604	0.928002	0	0	3.388235e+01
315.655945	1.279422	mountain	7	1	1.152531	1.152531	0	0	1	0	CommissionError	0.285254	0.933852	0	0	3.352941e+01
316.942200	1.293061	city	8	1	1.360628	1.360628	0	1	0	0	CorrectCommission	1.342354	0.943698	0	0	3.317647e+01
318.241852	1.306220	city	2	1	1.388585	1.388585	0	1	0	0	CorrectCommission	1.484375	0.955859	0	0	3.282353e+01
319.547974	1.306072	city	5	1	1.258221	1.258221	0	1	0	0	CorrectCommission	0.822142	0.968183	0	0	3.247059e+01
320.840912	1.279761	city	3	1	1.416739	1.416739	0	1	0	0	CorrectCommission	1.627391	0.978307	0	0	3.211765e+01
322.147156	1.332772	city	6	1	1.199475	1.199475	0	1	0	0	CorrectCommission	0.523720	0.983899	0	0	3.176471e+01
323.466644	1.306176	city	8	1	1.054712	1.054712	0	1	0	0	CorrectCommission	0.211654	0.982963	0	0	3.141176e+01
324.786255	1.333061	city	1	1	0.960521	0.960521	0	1	0	0	CorrectCommission	0.690132	0.974144	0	0	3.105882e+01
326.119232	1.332896	city	8	1	0.749182	0.749182	0	1	0	0	CorrectCommission	1.763704	0.956905	0	0	3.070588e+01
327.425476	1.279597	city	6	1	1.542609	1.542609	0	1	0	0	CorrectCommission	2.266793	0.931751	0	0	3.035294e+01
328.718323	1.306051	city	5	1	1.509027	1.509027	0	1	0	0	CorrectCommission	2.096202	0.900325	0	0	30
330.037872	1.333081	city	1	1	1.176730	1.176730	0	1	0	0	CorrectCommission	0.408178	0.865361	0	0	2.964706e+01
331.350861	1.292879	city	5	1	1.159487	1.159487	0	1	0	0	CorrectCommission	0.320586	0.830467	0	0	2.929412e+01
332.643738	1.292908	city	1	1	1.015456	1.015456	0	1	0	0	CorrectCommission	0.411072	0.799704	0	0	2.894118e+01
333.936676	1.292932	mountain	8	0	0.000000	1.123770	1	0	0	0	CorrectOmission	0.139150	0.777142	0	0	2.858824e+01
335.222931	1.279578	city	4	1	1.233556	1.233556	0	1	0	0	CorrectCommission	0.696849	0.766342	0	0	2.823529e+01
336.542450	1.359477	city	5	1	1.093940	1.093940	0	1	0	0	CorrectCommission	0.012380	0.769849	0	0	2.788235e+01
337.888672	1.332952	city	3	1	0.911113	0.911113	0	1	0	0	CorrectCommission	0.941119	0.788902	0	0	2.752941e+01
339.221588	1.332917	city	1	1	1.040672	1.040672	0	1	0	0	CorrectCommission	0.282975	0.823186	0	0	2.717647e+01
340.527832	1.279566	city	9	1	1.039723	1.039723	0	1	0	0	CorrectCommission	0.287797	0.870863	0	0	2.682353e+01
341.827332	1.319414	city	7	1	1.025305	1.025305	0	1	0	0	CorrectCommission	0.361036	0.928782	0	0	2.647059e+01
343.140228	1.306397	city	8	1	0.782376	0.782376	0	1	0	0	CorrectCommission	1.595081	0.992832	0	0	2.611765e+01
344.433228	1.279566	city	1	1	0.854911	0.854911	0	1	0	0	CorrectCommission	1.226614	1.058454	0	0	2.576471e+01
345.732788	1.319590	city	6	1	1.049699	1.049699	0	1	0	0	CorrectCommission	0.237117	1.121238	0	0	2.541176e+01
347.032318	1.279452	city	5	1	1.467771	1.467771	0	1	0	0	CorrectCommission	1.886627	1.177449	0	0	2.505882e+01
348.311890	1.279698	city	1	1	1.356637	1.356637	0	1	0	0	CorrectCommission	1.322081	1.224426	0	0	2.470588e+01
349.604858	1.306219	city	7	1	1.881807	1.881807	0	1	0	0	CorrectCommission	3.989873	1.260842	0	0	2.435294e+01
350.257965	10.769812	break	0	0	0.000000	1.457056	0	0	0	0	ThoughtProbe	1.832195	1.286593	0	24	24
361.667542	1.279557	city	9	1	0.888618	0.888618	0	1	0	0	CorrectCommission	1.055387	1.302664	0	0	2.580000e+01
362.947113	1.279583	mountain	3	0	0.000000	0.982732	1	0	0	0	CorrectOmission	0.577305	1.310536	0	0	2.760000e+01
364.226624	1.279426	city	5	1	1.230805	1.230805	0	1	0	0	CorrectCommission	0.682872	1.311666	0	0	2.940000e+01
365.506165	1.279641	city	3	1	1.124247	1.124247	0	1	0	0	CorrectCommission	0.141573	1.306992	0	0	3.120000e+01
366.785736	1.279521	city	8	1	0.938736	0.938736	0	1	0	0	CorrectCommission	0.800798	1.296682	0	0	33
368.065369	1.279726	city	1	1	0.857816	0.857816	0	1	0	0	CorrectCommission	1.211857	1.280108	0	0	3.480000e+01
369.345032	1.279601	city	9	1	0.724261	0.724261	0	1	0	0	CorrectCommission	1.890297	1.256112	0	0	3.660000e+01
370.624603	1.279580	city	2	1	0.649891	0.649891	0	1	0	0	CorrectCommission	2.268088	1.223450	0	0	3.840000e+01
371.904114	1.279434	city	4	1	0.644417	0.644417	0	1	0	0	CorrectCommission	2.295896	1.181336	0	0	4.020000e+01
373.183685	1.279701	city	5	1	0.617346	0.617346	0	1	0	0	CorrectCommission	2.433410	1.129837	0	0	42
374.463348	1.279607	city	9	1	0.961944	0.961944	0	1	0	0	CorrectCommission	0.682901	1.070117	0	0	4.380000e+01
375.742920	1.279550	city	4	1	0.929165	0.929165	0	1	0	0	CorrectCommission	0.849416	1.004482	0	0	4.560000e+01
377.022491	1.279598	city	9	1	0.969992	0.969992	0	1	0	0	CorrectCommission	0.642019	0.936022	0	0	4.740000e+01
378.302032	1.279488	mountain	2	0	0.000000	1.067107	1	0	0	0	CorrectOmission	0.148689	0.868279	0	0	4.920000e+01
379.581604	1.279677	city	6	1	1.124464	1.124464	0	1	0	0	CorrectCommission	0.142677	0.804790	0	0	51
380.861176	1.279412	city	7	1	1.046019	1.046019	0	1	0	0	CorrectCommission	0.255814	0.748625	0	0	5.280000e+01
382.140686	1.279643	city	8	1	0.857789	0.857789	0	1	0	0	CorrectCommission	1.211997	0.702118	1	0	5.460000e+01
383.420258	1.279501	city	3	1	1.235905	1.235905	0	1	0	0	CorrectCommission	0.708778	0.666744	1	0	5.640000e+01
384.699799	1.279599	city	8	1	1.071086	1.071086	0	1	0	0	CorrectCommission	0.128476	0.643106	1	0	5.820000e+01
385.979431	1.279653	city	7	1	1.081352	1.081352	0	1	0	0	CorrectCommission	0.076329	0.631076	1	0	60
387.259094	1.279665	mountain	8	0	0.000000	1.246346	1	0	0	0	CorrectOmission	0.761819	0.629882	1	0	6.180000e+01
388.538727	1.279580	city	6	1	1.363333	1.363333	0	1	0	0	CorrectCommission	1.356095	0.638340	1	0	6.360000e+01
389.818298	1.279557	city	4	1	1.229574	1.229574	0	1	0	0	CorrectCommission	0.676622	0.654969	1	0	6.540000e+01
391.097839	1.279574	city	10	1	1.124264	1.124264	0	1	0	0	CorrectCommission	0.141659	0.678133	1	0	6.720000e+01
392.377411	1.279549	city	1	1	1.070946	1.070946	0	1	0	0	CorrectCommission	0.129188	0.706091	1	0	69
393.656952	1.279533	city	3	1	1.124293	1.124293	0	1	0	0	CorrectCommission	0.141809	0.737094	0	0	7.080000e+01
394.936554	1.279679	city	1	1	0.909049	0.909049	0	1	0	0	CorrectCommission	0.951600	0.769478	0	0	7.260000e+01
396.216187	1.279587	city	5	1	0.770299	0.770299	0	1	0	0	CorrectCommission	1.656432	0.801801	0	0	7.440000e+01
397.495697	1.279417	city	10	1	0.867312	0.867312	0	1	0	0	CorrectCommission	1.163622	0.832982	0	0	7.620000e+01
398.775269	1.279717	city	3	1	1.091689	1.091689	0	1	0	0	CorrectCommission	0.023815	0.862471	0	0	78
400.054901	1.279578	city	4	1	1.500013	1.500013	0	1	0	0	CorrectCommission	2.050411	0.890308	0	0	7.980000e+01
401.334503	1.279600	city	1	1	0.963105	0.963105	0	1	0	0	CorrectCommission	0.677007	0.917043	0	0	8.160000e+01
402.614075	1.279576	city	7	1	0.910836	0.910836	0	1	0	0	CorrectCommission	0.942522	0.943735	0	0	8.340000e+01
403.893677	1.279608	city	10	1	0.804185	0.804185	0	1	0	0	CorrectCommission	1.484298	0.971575	0	0	8.520000e+01
405.173279	1.279560	city	6	1	0.909659	0.909659	0	1	0	0	CorrectCommission	0.948502	1.001658	0	0	87
406.452759	1.279429	city	3	1	1.071246	1.071246	0	1	0	0	CorrectCommission	0.127665	1.034702	0	0	8.880000e+01
407.732330	1.279722	city	6	1	1.182868	1.182868	0	1	0	0	CorrectCommission	0.439361	1.070810	0	0	9.060000e+01
409.011993	1.279586	city	4	1	1.190623	1.190623	0	1	0	0	CorrectCommission	0.478753	1.109330	0	0	9.240000e+01
410.291534	1.279525	city	6	1	1.289108	1.289108	0	1	0	0	CorrectCommission	0.979046	1.148910	0	0	9.420000e+01
413.603790	5.344939	break	0	0	0.000000	1.429067	0	0	0	0	ThoughtProbe	1.690014	1.187699	0	96	96
416.922699	1.292909	city	1	1	1.495386	1.495386	0	1	0	0	CorrectCommission	2.026905	1.223654	0	0	9.494118e+01
418.208954	1.279577	city	10	1	1.372953	1.372953	0	1	0	0	CorrectCommission	1.404964	1.254874	0	0	9.388235e+01
419.501770	1.306083	city	2	1	1.455421	1.455421	0	1	0	0	CorrectCommission	1.823889	1.279895	0	0	9.282353e+01
420.794678	1.279752	mountain	4	0	0.000000	1.475764	1	0	0	0	CorrectOmission	1.927232	1.297806	0	0	9.176471e+01
422.074280	1.279419	city	8	1	1.428172	1.428172	0	1	0	0	CorrectCommission	1.685471	1.308320	0	0	9.070588e+01
423.353851	1.279738	city	5	1	1.306833	1.306833	0	1	0	0	CorrectCommission	1.069085	1.311649	0	0	8.964706e+01
424.666779	1.346136	city	6	1	1.244501	1.244501	0	1	0	0	CorrectCommission	0.752447	1.308333	0	0	8.858824e+01
425.999664	1.319585	city	4	1	1.124398	1.124398	0	1	0	0	CorrectCommission	0.142339	1.299050	0	0	8.752941e+01
427.332520	1.346157	city	1	1	0.946542	0.946542	0	1	0	0	CorrectCommission	0.761144	1.284487	0	0	8.647059e+01
428.685455	1.359690	city	9	1	0.808774	0.808774	0	1	0	0	CorrectCommission	1.460987	1.265312	0	0	8.541176e+01
430.011719	1.292884	city	4	1	1.737500	1.737500	0	1	0	0	CorrectCommission	3.256812	1.242228	0	0	8.435294e+01
431.311218	1.306087	city	3	1	1.605496	1.605496	0	1	0	0	CorrectCommission	2.586251	1.216053	0	0	8.329412e+01
432.637360	1.346213	city	5	1	1.195461	1.195461	0	1	0	0	CorrectCommission	0.503331	1.187749	0	0	8.223529e+01
433.970245	1.319567	city	1	1	1.205504	1.205504	0	1	0	0	CorrectCommission	0.554348	1.158464	0	0	8.117647e+01
435.269836	1.279581	city	10	1	1.020595	1.020595	0	1	0	0	CorrectCommission	0.384963	1.129331	0	0	8.011765e+01
436.556183	1.293111	city	2	1	1.307467	1.307467	0	1	0	0	CorrectCommission	1.072306	1.101360	0	0	7.905882e+01
437.855774	1.306112	city	8	1	1.343693	1.343693	0	1	0	0	CorrectCommission	1.256330	1.075247	0	0	78
439.195251	1.372836	city	4	1	1.216240	1.216240	0	1	0	0	CorrectCommission	0.608887	1.051347	0	0	7.694118e+01
440.528137	1.292927	city	1	1	0.964359	0.964359	0	1	0	0	CorrectCommission	0.670636	1.029673	0	0	7.588235e+01
441.814423	1.279616	mountain	7	1	1.284159	1.284159	0	0	1	0	CommissionError	0.953905	1.010034	0	0	7.482353e+01
443.107300	1.306158	city	1	1	1.329948	1.329948	0	1	0	0	CorrectCommission	1.186506	0.992164	0	0	7.376471e+01
444.400177	1.279563	city	9	1	1.446879	1.446879	0	1	0	0	CorrectCommission	1.780498	0.975982	0	0	7.270588e+01
445.693054	1.306246	city	1	1	1.388010	1.388010	0	1	0	0	CorrectCommission	1.481453	0.961721	0	0	7.164706e+01
446.992645	1.292911	city	5	1	1.325732	1.325732	0	1	0	0	CorrectCommission	1.165087	0.950043	0	0	7.058824e+01
448.312286	1.346398	city	10	1	1.047047	1.047047	0	1	0	0	CorrectCommission	0.250592	0.941907	0	0	6.952941e+01
449.638550	1.306110	city	1	1	1.191255	1.191255	0	1	0	0	CorrectCommission	0.481967	0.938427	0	0	6.847059e+01
450.931366	1.279522	city	7	1	1.286916	1.286916	0	1	0	0	CorrectCommission	0.967910	0.940561	0	0	6.741176e+01
452.217651	1.293064	city	4	1	1.108292	1.108292	0	1	0	0	CorrectCommission	0.060525	0.948862	0	0	6.635294e+01
453.503998	1.279583	city	8	1	0.857807	0.857807	0	1	0	0	CorrectCommission	1.211902	0.963284	0	0	6.529412e+01
454.803497	1.319458	city	6	1	0.929913	0.929913	0	1	0	0	CorrectCommission	0.845618	0.982989	0	0	6.423529e+01
456.109680	1.292871	city	9	1	0.875893	0.875893	0	1	0	0	CorrectCommission	1.120028	1.006404	0	0	6.317647e+01
457.409241	1.306238	city	3	1	1.047661	1.047661	0	1	0	0	CorrectCommission	0.247472	1.031331	0	0	6.211765e+01
458.702209	1.279746	city	4	1	1.284988	1.284988	0	1	0	0	CorrectCommission	0.958117	1.055215	0	0	6.105882e+01
459.342102	8.903580	break	0	0	0.000000	1.505019	0	0	0	0	ThoughtProbe	2.075840	1.075424	0	60	60
468.892212	1.293059	city	7	1	1.543820	1.543820	0	1	0	0	CorrectCommission	2.272947	1.089612	0	0	5.930000e+01
470.205170	1.332885	city	6	1	1.237462	1.237462	0	1	0	0	CorrectCommission	0.716690	1.095968	0	0	5.860000e+01
471.518036	1.292823	city	1	1	1.191010	1.191010	0	1	0	0	CorrectCommission	0.480722	1.093427	0	0	5.790000e+01
472.824280	1.319677	city	5	1	0.890255	0.890255	0	1	0	0	CorrectCommission	1.047074	1.081710	0	0	5.720000e+01
474.137238	1.306232	mountain	6	1	0.503251	0.503251	0	0	1	0	CommissionError	3.012999	1.061290	0	0	5.650000e+01
475.450134	1.319559	city	4	1	1.230392	1.230392	0	1	0	0	CorrectCommission	0.680776	1.033274	0	0	5.580000e+01
476.776306	1.332790	city	8	1	0.995891	0.995891	0	1	0	0	CorrectCommission	0.510457	0.999304	0	0	5.510000e+01
478.089203	1.293020	mountain	4	0	0.000000	1.150443	1	0	0	0	CorrectOmission	0.274644	0.961234	0	0	5.440000e+01
479.382172	1.292884	city	1	1	1.350927	1.350927	0	1	0	0	CorrectCommission	1.293075	0.921000	0	0	5.370000e+01
480.681702	1.306218	city	7	1	1.254224	1.254224	0	1	0	0	CorrectCommission	0.801838	0.880374	0	0	53
481.974548	1.279430	city	4	1	1.314280	1.314280	0	1	0	0	CorrectCommission	1.106915	0.840945	0	0	5.230000e+01
483.307343	1.386210	city	6	1	1.257976	1.257976	0	1	0	0	CorrectCommission	0.820897	0.804003	0	0	5.160000e+01
484.653687	1.306421	city	4	1	1.153243	1.153243	0	1	0	0	CorrectCommission	0.288870	0.770568	0	0	5.090000e+01
485.973328	1.332878	city	5	1	0.911349	0.911349	0	1	0	0	CorrectCommission	0.939921	0.741381	0	0	5.020000e+01
487.286194	1.292839	city	8	1	0.916483	0.916483	0	1	0	0	CorrectCommission	0.913838	0.716857	1	0	4.950000e+01
488.592346	1.319473	city	2	1	1.017765	1.017765	0	1	0	0	CorrectCommission	0.399340	0.697202	1	0	4.880000e+01
489.918518	1.332893	city	4	1	1.075338	1.075338	0	1	0	0	CorrectCommission	0.106877	0.682395	1	0	4.810000e+01
491.224854	1.279768	mountain	5	0	0.000000	1.172796	1	0	0	0	CorrectOmission	0.388197	0.672209	1	0	4.740000e+01
492.524414	1.319388	city	7	1	1.269048	1.269048	0	1	0	0	CorrectCommission	0.877145	0.666250	1	0	4.670000e+01
493.830566	1.292903	city	6	1	1.323003	1.323003	0	1	0	0	CorrectCommission	1.151226	0.664000	1	0	46
495.136871	1.319695	city	10	1	1.269427	1.269427	0	1	0	0	CorrectCommission	0.879066	0.664859	1	0	4.530000e+01
496.463165	1.332921	city	8	1	1.057359	1.057359	0	1	0	0	CorrectCommission	0.198209	0.668163	1	0	4.460000e+01
497.776031	1.292771	city	5	1	0.934814	0.934814	0	1	0	0	CorrectCommission	0.820719	0.673191	1	0	4.390000e+01
499.062256	1.279714	city	4	1	0.997799	0.997799	0	1	0	0	CorrectCommission	0.500764	0.679186	1	0	4.320000e+01
500.361908	1.319550	city	1	1	1.182279	1.182279	0	1	0	0	CorrectCommission	0.436368	0.685373	1	0	4.250000e+01
501.681488	1.319605	city	9	1	1.075763	1.075763	0	1	0	0	CorrectCommission	0.104716	0.690999	1	0	4.180000e+01
503.007721	1.332897	city	6	1	0.937529	0.937529	0	1	0	0	CorrectCommission	0.806927	0.695362	1	0	4.110000e+01
504.333954	1.319540	city	9	1	0.644519	0.644519	0	1	0	0	CorrectCommission	2.295377	0.697889	1	0	4.040000e+01
505.640167	1.292923	city	3	1	0.958993	0.958993	0	1	0	0	CorrectCommission	0.697894	0.698182	1	0	3.970000e+01
506.939667	1.306069	city	7	1	1.161869	1.161869	0	1	0	0	CorrectCommission	0.332690	0.696125	1	0	39
508.259155	1.332882	city	2	1	1.114062	1.114062	0	1	0	0	CorrectCommission	0.089835	0.691764	1	0	3.830000e+01
509.565399	1.279596	city	10	1	0.967620	0.967620	0	1	0	0	CorrectCommission	0.654068	0.685332	1	0	3.760000e+01
510.864990	1.319581	city	4	1	1.376407	1.376407	0	1	0	0	CorrectCommission	1.422510	0.677132	1	0	3.690000e+01
512.191284	1.333028	city	1	1	1.132177	1.132177	0	1	0	0	CorrectCommission	0.181856	0.667536	1	0	3.620000e+01
513.524231	1.332915	city	8	1	0.987289	0.987289	0	1	0	0	CorrectCommission	0.554153	0.656965	1	0	3.550000e+01
514.843811	1.306215	city	4	1	0.857924	0.857924	0	1	0	0	CorrectCommission	1.211311	0.645743	1	0	3.480000e+01
516.136658	1.279416	city	3	1	1.162778	1.162778	0	1	0	0	CorrectCommission	0.337307	0.634123	1	0	3.410000e+01
517.442871	1.333061	city	1	1	1.253007	1.253007	0	1	0	0	CorrectCommission	0.795654	0.622308	1	0	3.340000e+01
518.769165	1.319564	city	6	1	1.115782	1.115782	0	1	0	0	CorrectCommission	0.098572	0.610414	1	0	3.270000e+01
522.801270	6.744618	break	0	0	0.000000	0.978557	0	0	0	0	ThoughtProbe	0.598511	0.598511	1	32	32
