onset	duration	trial_type	image_type	Press	ReactionTime	ReactionTime_Interpolated	CorrectOmission	CorrectCommission	CommissionError	OmissionError	response_type	nonsmoothVarianceTimeCourse	VarianceTimeCourse	In_the_Zone	ThoughtProbe	ThoughtProbe_Interpolated
0.652979	1.279404	city	10	1	1.090002	1.090002	0	1	0	0	CorrectCommission	2.649616	2.649616	0	0	100
1.932485	1.279609	city	2	1	1.178412	1.178412	0	1	0	0	CorrectCommission	1.846874	2.446880	0	0	100
3.212146	1.279712	mountain	1	0	0.000000	1.170396	1	0	0	0	CorrectOmission	1.919659	2.247321	0	0	100
4.491796	1.279587	city	10	1	1.157254	1.157254	0	1	0	0	CorrectCommission	2.038991	2.053917	0	0	100
5.771315	1.279452	city	6	1	1.230285	1.230285	0	1	0	0	CorrectCommission	1.375888	1.869342	0	0	100
7.050887	1.279692	city	8	1	1.230725	1.230725	0	1	0	0	CorrectCommission	1.371893	1.695902	0	0	100
8.330525	1.279584	city	7	1	1.234299	1.234299	0	1	0	0	CorrectCommission	1.339440	1.535424	0	0	100
9.610089	1.279544	city	6	1	1.245792	1.245792	0	1	0	0	CorrectCommission	1.235082	1.389299	0	0	100
10.889650	1.279578	city	2	1	1.190247	1.190247	0	1	0	0	CorrectCommission	1.739420	1.258519	0	0	100
12.169253	1.279628	city	7	1	1.287171	1.287171	0	1	0	0	CorrectCommission	0.859371	1.143650	0	0	100
13.448767	1.279400	city	5	1	1.338796	1.338796	0	1	0	0	CorrectCommission	0.390631	1.044881	0	0	100
14.728318	1.279704	city	6	1	1.469095	1.469095	0	1	0	0	CorrectCommission	0.792451	0.961934	0	0	100
16.007908	1.279475	city	7	1	1.281332	1.281332	0	1	0	0	CorrectCommission	0.912388	0.893991	0	0	100
17.287546	1.279801	city	3	1	1.396298	1.396298	0	1	0	0	CorrectCommission	0.131471	0.839670	0	0	100
18.567137	1.279380	mountain	6	0	0.000000	1.426644	1	0	0	0	CorrectOmission	0.407006	0.797076	0	0	100
19.846613	1.279573	city	9	1	1.390225	1.390225	0	1	0	0	CorrectCommission	0.076326	0.763855	1	0	100
21.126165	1.279532	city	4	1	1.304893	1.304893	0	1	0	0	CorrectCommission	0.698464	0.737392	1	0	100
22.405804	1.279743	city	1	1	1.180512	1.180512	0	1	0	0	CorrectCommission	1.827807	0.715070	1	0	100
23.685472	1.279595	city	4	1	1.289456	1.289456	0	1	0	0	CorrectCommission	0.838627	0.694568	1	0	100
24.965067	1.279593	city	3	1	1.311443	1.311443	0	1	0	0	CorrectCommission	0.638989	0.674182	1	0	100
26.244637	1.279546	city	10	1	1.240836	1.240836	0	1	0	0	CorrectCommission	1.280086	0.652972	1	0	100
27.524208	1.279597	city	9	1	1.358187	1.358187	0	1	0	0	CorrectCommission	0.214568	0.630871	1	0	100
28.803732	1.279451	city	7	1	1.401242	1.401242	0	1	0	0	CorrectCommission	0.176358	0.608731	1	0	100
30.083296	1.279677	city	8	1	1.497730	1.497730	0	1	0	0	CorrectCommission	1.052448	0.588136	1	0	100
31.362867	1.279466	city	9	1	1.496752	1.496752	0	1	0	0	CorrectCommission	1.043565	0.571119	1	0	100
32.642406	1.279614	city	6	1	1.394779	1.394779	0	1	0	0	CorrectCommission	0.117676	0.559877	1	0	100
33.922050	1.279678	city	3	1	1.390491	1.390491	0	1	0	0	CorrectCommission	0.078747	0.556420	1	0	100
35.201668	1.279554	city	5	1	1.395271	1.395271	0	1	0	0	CorrectCommission	0.122147	0.562156	1	0	100
36.481236	1.279584	mountain	6	0	0.000000	1.376642	1	0	0	0	CorrectOmission	0.047002	0.577639	1	0	100
37.760857	1.279652	city	1	1	1.340297	1.340297	0	1	0	0	CorrectCommission	0.377005	0.602378	1	0	100
39.040382	1.279401	city	4	1	1.291930	1.291930	0	1	0	0	CorrectCommission	0.816165	0.634769	1	0	100
40.326603	1.293044	city	3	1	1.279034	1.279034	0	1	0	0	CorrectCommission	0.933259	0.672201	1	0	100
41.619503	1.292758	city	8	1	1.370847	1.370847	0	1	0	0	CorrectCommission	0.099614	0.711325	1	0	100
42.905670	1.279571	city	4	1	1.419809	1.419809	0	1	0	0	CorrectCommission	0.344941	0.748408	1	0	100
44.198566	1.306228	city	7	1	1.540438	1.540438	0	1	0	0	CorrectCommission	1.440229	0.779748	1	0	100
45.491547	1.279731	city	10	1	1.449130	1.449130	0	1	0	0	CorrectCommission	0.611170	0.802171	0	0	100
46.771183	1.279539	city	2	1	1.550117	1.550117	0	1	0	0	CorrectCommission	1.528107	0.813505	0	0	100
48.050716	1.279531	city	3	1	1.621787	1.621787	0	1	0	0	CorrectCommission	2.178855	0.812809	0	0	100
49.330326	1.279686	city	7	1	1.582387	1.582387	0	1	0	0	CorrectCommission	1.821114	0.800567	0	0	100
53.435661	6.930984	break	0	0	0.000000	1.456376	0	0	0	0	ThoughtProbe	0.676964	0.778586	1	100	100
57.540920	1.279536	city	5	1	1.357009	1.357009	0	1	0	0	CorrectCommission	0.225262	0.749740	1	0	100
58.820477	1.279573	mountain	5	0	0.000000	1.397542	1	0	0	0	CorrectOmission	0.142771	0.717522	1	0	100
60.100044	1.279567	city	8	1	1.442485	1.442485	0	1	0	0	CorrectCommission	0.550838	0.685516	1	0	100
61.386341	1.293022	city	5	1	1.356346	1.356346	0	1	0	0	CorrectCommission	0.231284	0.656957	1	0	100
62.672585	1.279470	city	2	1	1.400520	1.400520	0	1	0	0	CorrectCommission	0.169810	0.634374	1	0	100
63.952114	1.279583	city	10	1	1.294599	1.294599	0	1	0	0	CorrectCommission	0.791928	0.619324	1	0	100
65.238342	1.292878	city	5	1	1.412787	1.412787	0	1	0	0	CorrectCommission	0.281190	0.612367	1	0	100
66.531303	1.293042	city	9	1	1.316804	1.316804	0	1	0	0	CorrectCommission	0.590313	0.613212	1	0	100
67.824196	1.292742	city	5	1	1.324725	1.324725	0	1	0	0	CorrectCommission	0.518391	0.620868	1	0	100
69.110451	1.279764	city	2	1	1.289089	1.289089	0	1	0	0	CorrectCommission	0.841957	0.633932	1	0	100
70.390106	1.279555	city	7	1	1.338175	1.338175	0	1	0	0	CorrectCommission	0.396275	0.650828	1	0	100
71.669800	1.279831	city	8	1	1.263501	1.263501	0	1	0	0	CorrectCommission	1.074288	0.670049	1	0	100
72.962730	1.306023	mountain	1	0	0.000000	1.264899	1	0	0	0	CorrectOmission	1.061599	0.690256	1	0	100
74.255432	1.279378	city	9	1	1.306303	1.306303	0	1	0	0	CorrectCommission	0.685663	0.710404	1	0	100
75.534981	1.279727	city	7	1	1.351648	1.351648	0	1	0	0	CorrectCommission	0.273939	0.729759	1	0	100
76.814598	1.279499	city	5	1	1.301683	1.301683	0	1	0	0	CorrectCommission	0.727605	0.747864	1	0	100
78.094124	1.279564	city	9	1	1.369635	1.369635	0	1	0	0	CorrectCommission	0.110626	0.764456	1	0	100
79.380333	1.292855	city	2	1	1.256670	1.256670	0	1	0	0	CorrectCommission	1.136315	0.779489	1	0	100
80.679970	1.306419	city	9	1	1.224573	1.224573	0	1	0	0	CorrectCommission	1.427744	0.793013	1	0	100
81.972885	1.279408	city	3	1	1.287337	1.287337	0	1	0	0	CorrectCommission	0.857864	0.805186	0	0	100
83.259048	1.292912	city	5	1	1.250685	1.250685	0	1	0	0	CorrectCommission	1.190658	0.816224	0	0	100
84.545380	1.279748	city	6	1	1.294028	1.294028	0	1	0	0	CorrectCommission	0.797113	0.826313	0	0	100
85.831703	1.292905	city	2	1	1.307657	1.307657	0	1	0	0	CorrectCommission	0.673366	0.835532	0	0	100
87.117943	1.279581	city	7	1	1.304816	1.304816	0	1	0	0	CorrectCommission	0.699158	0.843776	0	0	100
88.417473	1.319470	city	10	1	1.375526	1.375526	0	1	0	0	CorrectCommission	0.057129	0.850683	0	0	100
89.737038	1.319659	city	5	1	1.340510	1.340510	0	1	0	0	CorrectCommission	0.375070	0.855738	0	0	100
91.043312	1.292901	city	9	1	1.263428	1.263428	0	1	0	0	CorrectCommission	1.074957	0.858373	0	0	100
92.329552	1.279572	city	4	1	1.231393	1.231393	0	1	0	0	CorrectCommission	1.365822	0.858164	0	0	100
93.609123	1.279578	city	5	1	1.182018	1.182018	0	1	0	0	CorrectCommission	1.814133	0.855061	0	0	100
94.888680	1.279530	city	10	1	1.230511	1.230511	0	1	0	0	CorrectCommission	1.373832	0.849510	0	0	100
96.168175	1.279464	city	8	1	1.232496	1.232496	0	1	0	0	CorrectCommission	1.355809	0.842490	0	0	100
97.447708	1.279602	city	4	1	1.370707	1.370707	0	1	0	0	CorrectCommission	0.100891	0.835391	0	0	100
98.733986	1.292943	city	6	1	1.370062	1.370062	0	1	0	0	CorrectCommission	0.106743	0.829816	0	0	100
103.072639	7.384374	break	0	0	0.000000	1.418012	0	0	0	0	ThoughtProbe	0.328625	0.827193	0	100	100
107.411278	1.292900	city	2	1	1.475863	1.475863	0	1	0	0	CorrectCommission	0.853906	0.828541	0	0	100
108.710846	1.306229	city	6	1	1.504927	1.504927	0	1	0	0	CorrectCommission	1.117791	0.834231	0	0	100
110.010399	1.292877	city	1	1	1.483846	1.483846	0	1	0	0	CorrectCommission	0.926386	0.843896	0	0	100
111.296646	1.279620	mountain	10	0	0.000000	1.398134	1	0	0	0	CorrectOmission	0.148144	0.856487	0	0	100
112.582855	1.292800	city	5	1	1.325989	1.325989	0	1	0	0	CorrectCommission	0.506912	0.870528	0	0	100
113.882416	1.306326	city	4	1	1.345610	1.345610	0	1	0	0	CorrectCommission	0.328761	0.884373	0	0	100
115.181999	1.292836	city	3	1	1.209552	1.209552	0	1	0	0	CorrectCommission	1.564136	0.896606	0	0	100
116.468254	1.279671	city	4	1	1.194273	1.194273	0	1	0	0	CorrectCommission	1.702867	0.906340	0	0	100
117.747787	1.279406	mountain	1	1	1.070056	1.070056	0	0	1	0	CommissionError	2.830720	0.913423	0	0	100
119.033966	1.292948	city	4	1	1.264846	1.264846	0	1	0	0	CorrectCommission	1.062078	0.918385	0	0	100
120.326866	1.292854	city	5	1	1.360510	1.360510	0	1	0	0	CorrectCommission	0.193478	0.922350	0	0	100
121.626503	1.306420	city	2	1	1.375608	1.375608	0	1	0	0	CorrectCommission	0.056385	0.926612	0	0	100
122.919441	1.279456	city	3	1	1.390791	1.390791	0	1	0	0	CorrectCommission	0.081465	0.932236	0	0	100
124.198936	1.279520	city	6	1	1.422122	1.422122	0	1	0	0	CorrectCommission	0.365949	0.939737	0	0	100
125.478493	1.279594	city	2	1	1.469762	1.469762	0	1	0	0	CorrectCommission	0.798507	0.948878	0	0	100
126.764809	1.293038	city	10	1	1.317981	1.317981	0	1	0	0	CorrectCommission	0.579624	0.958714	0	0	100
128.077774	1.332899	city	9	1	1.175319	1.175319	0	1	0	0	CorrectCommission	1.874965	0.967806	0	0	100
129.384033	1.279614	city	8	1	1.149454	1.149454	0	1	0	0	CorrectCommission	2.109809	0.974522	0	0	100
130.683578	1.319471	city	7	1	1.294917	1.294917	0	1	0	0	CorrectCommission	0.789046	0.977434	0	0	100
131.983078	1.279538	city	10	1	1.203854	1.203854	0	1	0	0	CorrectCommission	1.615869	0.975634	0	0	100
133.262711	1.279716	mountain	6	0	0.000000	1.226541	1	0	0	0	CorrectOmission	1.409883	0.968769	0	0	100
134.542343	1.279574	city	5	1	1.302717	1.302717	0	1	0	0	CorrectCommission	0.718223	0.957076	0	0	100
135.828583	1.292884	city	10	1	1.372124	1.372124	0	1	0	0	CorrectCommission	0.088023	0.941224	0	0	100
137.114761	1.279488	city	7	1	1.465226	1.465226	0	1	0	0	CorrectCommission	0.757319	0.922068	0	0	100
138.394363	1.279724	city	1	1	1.296350	1.296350	0	1	0	0	CorrectCommission	0.776035	0.900403	0	0	100
139.673996	1.279532	city	2	1	1.300439	1.300439	0	1	0	0	CorrectCommission	0.738907	0.876878	0	0	100
140.960220	1.292911	city	5	1	1.234593	1.234593	0	1	0	0	CorrectCommission	1.336773	0.851904	0	0	100
142.246445	1.279545	city	9	1	1.247703	1.247703	0	1	0	0	CorrectCommission	1.217732	0.825694	0	0	100
143.526016	1.279587	city	3	1	1.366688	1.366688	0	1	0	0	CorrectCommission	0.137378	0.798406	0	0	100
144.818924	1.306238	city	4	1	1.283471	1.283471	0	1	0	0	CorrectCommission	0.892965	0.770313	1	0	100
146.111847	1.279604	city	9	1	1.191117	1.191117	0	1	0	0	CorrectCommission	1.731523	0.741847	1	0	100
147.391373	1.279431	city	1	1	1.291828	1.291828	0	1	0	0	CorrectCommission	0.817091	0.713726	1	0	100
148.670944	1.279719	city	5	1	1.341874	1.341874	0	1	0	0	CorrectCommission	0.362682	0.686911	1	0	100
149.950607	1.279602	city	3	1	1.367646	1.367646	0	1	0	0	CorrectCommission	0.128683	0.662481	1	0	100
151.243515	1.306239	city	9	1	1.439630	1.439630	0	1	0	0	CorrectCommission	0.524915	0.641432	1	0	100
152.536377	1.279481	mountain	10	0	0.000000	1.444325	1	0	0	0	CorrectOmission	0.567546	0.624513	1	0	100
153.849197	1.346152	city	9	1	1.422527	1.422527	0	1	0	0	CorrectCommission	0.369620	0.612107	1	0	100
155.162094	1.279650	city	6	1	1.415029	1.415029	0	1	0	0	CorrectCommission	0.301544	0.604163	1	0	100
156.441742	1.279639	city	10	1	1.301345	1.301345	0	1	0	0	CorrectCommission	0.730674	0.600212	1	0	100
157.721375	1.279614	city	5	1	1.454264	1.454264	0	1	0	0	CorrectCommission	0.657790	0.599454	1	0	100
159.000885	1.279421	city	10	1	1.421213	1.421213	0	1	0	0	CorrectCommission	0.357694	0.600975	1	0	100
160.293732	1.306255	city	3	1	1.486194	1.486194	0	1	0	0	CorrectCommission	0.947700	0.603915	1	0	100
161.586716	1.279723	city	4	1	1.474854	1.474854	0	1	0	0	CorrectCommission	0.844735	0.607646	1	0	100
162.866348	1.279558	city	6	1	1.407778	1.407778	0	1	0	0	CorrectCommission	0.235706	0.611904	1	0	100
164.145859	1.279465	city	10	1	1.255440	1.255440	0	1	0	0	CorrectCommission	1.147485	0.616876	1	0	100
164.785599	8.104157	break	0	0	0.000000	1.265204	0	0	0	0	ThoughtProbe	1.058825	0.623074	1	100	100
173.529510	1.279506	city	1	1	1.342680	1.342680	0	1	0	0	CorrectCommission	0.355367	0.631291	1	0	9.997500e+01
174.808990	1.279460	city	9	1	1.393475	1.393475	0	1	0	0	CorrectCommission	0.105836	0.642409	1	0	9.995000e+01
176.088593	1.279732	city	8	1	1.361055	1.361055	0	1	0	0	CorrectCommission	0.188523	0.657173	1	0	9.992500e+01
177.368179	1.279443	city	7	1	1.422032	1.422032	0	1	0	0	CorrectCommission	0.365134	0.676006	1	0	9.990000e+01
178.667740	1.319696	city	2	1	1.272789	1.272789	0	1	0	0	CorrectCommission	0.989963	0.698919	1	0	9.987500e+01
179.967300	1.279428	mountain	3	0	0.000000	1.413832	1	0	0	0	CorrectOmission	0.290673	0.725385	1	0	9.985000e+01
181.246902	1.279750	city	4	1	1.568127	1.568127	0	1	0	0	CorrectCommission	1.691633	0.754402	1	0	9.982500e+01
182.526596	1.279642	mountain	7	0	0.000000	1.458639	1	0	0	0	CorrectOmission	0.697509	0.784505	1	0	9.980000e+01
183.806168	1.279520	city	10	1	1.342430	1.342430	0	1	0	0	CorrectCommission	0.357637	0.813961	0	0	9.977500e+01
185.092300	1.292747	city	4	1	1.476563	1.476563	0	1	0	0	CorrectCommission	0.860256	0.840860	0	0	9.975000e+01
186.378464	1.279577	city	7	1	1.444395	1.444395	0	1	0	0	CorrectCommission	0.568183	0.863280	0	0	9.972500e+01
187.658127	1.279743	city	9	1	1.528655	1.528655	0	1	0	0	CorrectCommission	1.333236	0.879537	0	0	9.970000e+01
188.944397	1.292780	city	3	1	1.522727	1.522727	0	1	0	0	CorrectCommission	1.279418	0.888365	0	0	9.967500e+01
190.230545	1.279525	city	10	1	1.306646	1.306646	0	1	0	0	CorrectCommission	0.682543	0.889120	0	0	9.965000e+01
191.510101	1.279603	city	8	1	1.243167	1.243167	0	1	0	0	CorrectCommission	1.258916	0.881925	0	0	9.962500e+01
192.796448	1.293068	city	10	1	1.153559	1.153559	0	1	0	0	CorrectCommission	2.072537	0.867666	0	0	9.960000e+01
194.096024	1.306101	mountain	5	0	0.000000	1.312411	1	0	0	0	CorrectOmission	0.630197	0.847959	0	0	9.957500e+01
195.395599	1.293038	city	7	1	1.480776	1.480776	0	1	0	0	CorrectCommission	0.898512	0.824988	0	0	9.955000e+01
196.681900	1.279561	city	2	1	1.419705	1.419705	0	1	0	0	CorrectCommission	0.343998	0.801145	0	0	9.952500e+01
197.994736	1.346133	city	5	1	1.434176	1.434176	0	1	0	0	CorrectCommission	0.475390	0.778766	1	0	9.950000e+01
199.354294	1.372972	city	8	1	1.325701	1.325701	0	1	0	0	CorrectCommission	0.509534	0.759784	1	0	9.947500e+01
200.680496	1.279416	city	9	1	1.298537	1.298537	0	1	0	0	CorrectCommission	0.756178	0.745508	1	0	9.945000e+01
201.966721	1.293043	city	8	1	1.361207	1.361207	0	1	0	0	CorrectCommission	0.187147	0.736468	1	0	9.942500e+01
203.252960	1.279451	city	9	1	1.302468	1.302468	0	1	0	0	CorrectCommission	0.720480	0.732487	1	0	9.940000e+01
204.559219	1.333074	city	7	1	1.395854	1.395854	0	1	0	0	CorrectCommission	0.127440	0.732848	1	0	9.937500e+01
205.865540	1.279563	city	10	1	1.303790	1.303790	0	1	0	0	CorrectCommission	0.708479	0.736657	1	0	9.935000e+01
207.145096	1.279542	city	2	1	1.526089	1.526089	0	1	0	0	CorrectCommission	1.309937	0.743127	1	0	9.932500e+01
208.424667	1.279610	city	1	1	1.551076	1.551076	0	1	0	0	CorrectCommission	1.536815	0.751957	1	0	9.930000e+01
209.704269	1.279574	city	6	1	1.528687	1.528687	0	1	0	0	CorrectCommission	1.333534	0.763492	1	0	9.927500e+01
210.997101	1.306108	city	1	1	1.328653	1.328653	0	1	0	0	CorrectCommission	0.482725	0.778738	1	0	9.925000e+01
212.290024	1.279735	city	4	1	1.342163	1.342163	0	1	0	0	CorrectCommission	0.360058	0.799200	0	0	9.922500e+01
213.569626	1.279450	city	1	1	1.291451	1.291451	0	1	0	0	CorrectCommission	0.820510	0.826467	0	0	9.920000e+01
214.849182	1.279672	city	2	1	1.354355	1.354355	0	1	0	0	CorrectCommission	0.249363	0.861765	0	0	9.917500e+01
216.128738	1.279452	city	3	1	1.300755	1.300755	0	1	0	0	CorrectCommission	0.736039	0.905477	0	0	9.915000e+01
217.408264	1.279600	city	7	1	1.337620	1.337620	0	1	0	0	CorrectCommission	0.401306	0.956792	0	0	9.912500e+01
218.687912	1.279691	city	10	1	1.301544	1.301544	0	1	0	0	CorrectCommission	0.728875	1.013551	0	0	9.910000e+01
219.967560	1.279584	city	7	1	1.468746	1.468746	0	1	0	0	CorrectCommission	0.789284	1.072332	0	0	9.907500e+01
221.247070	1.279452	city	4	1	1.364382	1.364382	0	1	0	0	CorrectCommission	0.158316	1.128802	0	0	9.905000e+01
222.546661	1.319715	city	7	1	1.437043	1.437043	0	1	0	0	CorrectCommission	0.501424	1.178378	0	0	9.902500e+01
226.671982	6.930949	break	0	0	0.000000	1.693495	0	0	0	0	ThoughtProbe	2.829944	1.216851	0	99	99
230.777328	1.279724	city	2	1	1.858680	1.858680	0	1	0	0	CorrectCommission	4.329779	1.241058	0	0	9.902941e+01
232.056870	1.279378	city	1	1	1.657538	1.657538	0	1	0	0	CorrectCommission	2.503464	1.249431	0	0	9.905882e+01
233.349747	1.306379	city	9	1	1.471744	1.471744	0	1	0	0	CorrectCommission	0.816504	1.242242	0	0	9.908824e+01
234.642715	1.279556	mountain	2	0	0.000000	1.454459	1	0	0	0	CorrectOmission	0.659562	1.221419	0	0	9.911765e+01
235.928879	1.292759	city	5	1	1.484075	1.484075	0	1	0	0	CorrectCommission	0.928467	1.190214	0	0	9.914706e+01
237.221725	1.292940	city	7	1	1.438984	1.438984	0	1	0	0	CorrectCommission	0.519049	1.152630	0	0	9.917647e+01
238.527969	1.319535	city	8	1	1.309464	1.309464	0	1	0	0	CorrectCommission	0.656962	1.112874	0	0	9.920588e+01
239.827515	1.279579	city	1	1	1.248567	1.248567	0	1	0	0	CorrectCommission	1.209884	1.074800	0	0	9.923529e+01
241.113846	1.293077	city	5	1	1.368698	1.368698	0	1	0	0	CorrectCommission	0.119132	1.041558	0	0	9.926471e+01
242.433487	1.346204	city	2	1	1.258107	1.258107	0	1	0	0	CorrectCommission	1.123263	1.015430	0	0	9.929412e+01
243.773041	1.332892	city	6	1	1.199824	1.199824	0	1	0	0	CorrectCommission	1.652458	0.997732	0	0	9.932353e+01
245.085876	1.292789	city	7	1	1.188923	1.188923	0	1	0	0	CorrectCommission	1.751438	0.988906	0	0	9.935294e+01
246.372147	1.279757	mountain	8	0	0.000000	1.369120	1	0	0	0	CorrectOmission	0.115294	0.988573	0	0	9.938235e+01
247.651718	1.279375	city	8	1	1.519630	1.519630	0	1	0	0	CorrectCommission	1.251295	0.995596	0	0	9.941176e+01
248.931290	1.279763	city	10	1	1.419666	1.419666	0	1	0	0	CorrectCommission	0.343648	1.008051	0	0	9.944118e+01
250.217560	1.292794	city	9	1	1.487758	1.487758	0	1	0	0	CorrectCommission	0.961904	1.023344	0	0	9.947059e+01
251.503769	1.279602	city	3	1	1.390591	1.390591	0	1	0	0	CorrectCommission	0.079655	1.038278	0	0	9.950000e+01
252.809967	1.332815	city	7	1	1.465562	1.465562	0	1	0	0	CorrectCommission	0.760369	1.049327	0	0	9.952941e+01
254.129517	1.306283	city	10	1	1.276378	1.276378	0	1	0	0	CorrectCommission	0.957376	1.052907	0	0	9.955882e+01
255.462479	1.359633	city	9	1	1.194955	1.194955	0	1	0	0	CorrectCommission	1.696667	1.045876	0	0	9.958824e+01
256.788696	1.292793	city	3	1	1.031870	1.031870	0	1	0	0	CorrectCommission	3.177441	1.025960	0	0	9.961765e+01
258.081635	1.293065	city	2	1	1.095619	1.095619	0	1	0	0	CorrectCommission	2.598618	0.992077	0	0	9.964706e+01
259.367950	1.279587	city	9	1	1.351426	1.351426	0	1	0	0	CorrectCommission	0.275959	0.944589	0	0	9.967647e+01
260.647491	1.279492	city	1	1	1.296888	1.296888	0	1	0	0	CorrectCommission	0.771150	0.885368	0	0	9.970588e+01
261.940338	1.306187	city	7	1	1.446669	1.446669	0	1	0	0	CorrectCommission	0.588824	0.817480	0	0	9.973529e+01
263.233215	1.279585	city	8	1	1.421397	1.421397	0	1	0	0	CorrectCommission	0.359361	0.744852	1	0	9.976471e+01
264.512848	1.279693	city	6	1	1.418212	1.418212	0	1	0	0	CorrectCommission	0.330444	0.671822	1	0	9.979412e+01
265.799103	1.292810	city	4	1	1.474628	1.474628	0	1	0	0	CorrectCommission	0.842687	0.602640	1	0	9.982353e+01
267.091949	1.292861	city	7	1	1.403562	1.403562	0	1	0	0	CorrectCommission	0.197428	0.541056	1	0	9.985294e+01
268.378235	1.279736	city	5	1	1.367200	1.367200	0	1	0	0	CorrectCommission	0.132729	0.490035	1	0	9.988235e+01
269.657806	1.279418	city	6	1	1.367685	1.367685	0	1	0	0	CorrectCommission	0.128324	0.451551	1	0	9.991176e+01
270.937347	1.279654	city	5	1	1.419270	1.419270	0	1	0	0	CorrectCommission	0.340048	0.426484	1	0	9.994118e+01
272.216949	1.279545	city	3	1	1.353760	1.353760	0	1	0	0	CorrectCommission	0.254765	0.414649	1	0	9.997059e+01
275.995728	6.278012	break	0	0	0.000000	1.351714	0	0	0	0	ThoughtProbe	0.273341	0.414894	1	100	100
279.781158	1.292863	city	1	1	1.381931	1.381931	0	1	0	0	CorrectCommission	0.001027	0.425274	1	0	9.994118e+01
281.067444	1.279670	mountain	6	0	0.000000	1.413212	1	0	0	0	CorrectOmission	0.285045	0.443264	1	0	9.988235e+01
282.360321	1.306100	city	2	1	1.417759	1.417759	0	1	0	0	CorrectCommission	0.326330	0.466049	1	0	9.982353e+01
283.653229	1.279734	city	3	1	1.367776	1.367776	0	1	0	0	CorrectCommission	0.127497	0.490812	1	0	9.976471e+01
284.932922	1.279650	city	7	1	1.313447	1.313447	0	1	0	0	CorrectCommission	0.620792	0.515076	1	0	9.970588e+01
286.219147	1.292779	city	1	1	1.185910	1.185910	0	1	0	0	CorrectCommission	1.778794	0.536901	1	0	9.964706e+01
287.505432	1.279802	city	10	1	1.234520	1.234520	0	1	0	0	CorrectCommission	1.337429	0.555094	1	0	9.958824e+01
288.791626	1.292605	city	6	1	1.375059	1.375059	0	1	0	0	CorrectCommission	0.061373	0.569315	1	0	9.952941e+01
290.084351	1.292857	city	10	1	1.313595	1.313595	0	1	0	0	CorrectCommission	0.619455	0.580009	1	0	9.947059e+01
291.377258	1.292920	city	1	1	1.316641	1.316641	0	1	0	0	CorrectCommission	0.591794	0.588208	1	0	9.941176e+01
292.663544	1.279639	city	8	1	1.389420	1.389420	0	1	0	0	CorrectCommission	0.069017	0.595350	1	0	9.935294e+01
293.943176	1.279656	city	5	1	1.514302	1.514302	0	1	0	0	CorrectCommission	1.202917	0.602947	1	0	9.929412e+01
295.236084	1.306174	city	9	1	1.368976	1.368976	0	1	0	0	CorrectCommission	0.116601	0.612311	1	0	9.923529e+01
296.535675	1.292974	city	5	1	1.367224	1.367224	0	1	0	0	CorrectCommission	0.132513	0.624404	1	0	9.917647e+01
297.821869	1.279416	city	7	1	1.435551	1.435551	0	1	0	0	CorrectCommission	0.487876	0.639689	1	0	9.911765e+01
299.114716	1.306304	city	6	1	1.434460	1.434460	0	1	0	0	CorrectCommission	0.477972	0.658115	1	0	9.905882e+01
300.407684	1.279614	mountain	3	0	0.000000	1.471343	1	0	0	0	CorrectOmission	0.812859	0.679207	1	0	99
301.693970	1.292972	city	3	1	1.513080	1.513080	0	1	0	0	CorrectCommission	1.191819	0.702155	1	0	9.894118e+01
302.980255	1.279615	city	2	1	1.526551	1.526551	0	1	0	0	CorrectCommission	1.314135	0.725968	1	0	9.888235e+01
304.259796	1.279416	city	1	1	1.404301	1.404301	0	1	0	0	CorrectCommission	0.204137	0.749590	1	0	9.882353e+01
305.539307	1.279606	city	7	1	1.444428	1.444428	0	1	0	0	CorrectCommission	0.568476	0.771996	1	0	9.876471e+01
306.818909	1.279604	city	3	1	1.461179	1.461179	0	1	0	0	CorrectCommission	0.720573	0.792194	1	0	9.870588e+01
308.105194	1.292998	city	8	1	1.482050	1.482050	0	1	0	0	CorrectCommission	0.910079	0.809297	0	0	9.864706e+01
309.391479	1.279569	city	4	1	1.525864	1.525864	0	1	0	0	CorrectCommission	1.307898	0.822493	0	0	9.858824e+01
310.677734	1.292934	city	7	1	1.454619	1.454619	0	1	0	0	CorrectCommission	0.661014	0.831084	0	0	9.852941e+01
311.977264	1.306106	city	10	1	1.315164	1.315164	0	1	0	0	CorrectCommission	0.605201	0.834551	0	0	9.847059e+01
313.270081	1.279527	city	5	1	1.448207	1.448207	0	1	0	0	CorrectCommission	0.602792	0.832569	0	0	9.841176e+01
314.556305	1.292913	city	8	1	1.539674	1.539674	0	1	0	0	CorrectCommission	1.433286	0.825080	0	0	9.835294e+01
315.842560	1.279647	city	5	1	1.550835	1.550835	0	1	0	0	CorrectCommission	1.534628	0.812352	0	0	9.829412e+01
317.122223	1.279652	city	6	1	1.509444	1.509444	0	1	0	0	CorrectCommission	1.158812	0.795008	0	0	9.823529e+01
318.401764	1.279430	city	5	1	1.419195	1.419195	0	1	0	0	CorrectCommission	0.339366	0.773991	1	0	9.817647e+01
319.714661	1.346392	city	1	1	1.301482	1.301482	0	1	0	0	CorrectCommission	0.729429	0.750476	1	0	9.811765e+01
321.027588	1.279433	city	7	1	1.380470	1.380470	0	1	0	0	CorrectCommission	0.012246	0.725758	1	0	9.805882e+01
324.732941	6.131305	break	0	0	0.000000	1.459419	0	0	0	0	ThoughtProbe	0.704591	0.701172	1	98	98
328.445068	1.292940	city	4	1	1.501933	1.501933	0	1	0	0	CorrectCommission	1.090612	0.677935	1	0	9.802500e+01
329.738098	1.293070	city	8	1	1.471617	1.471617	0	1	0	0	CorrectCommission	0.815349	0.657120	1	0	9.805000e+01
331.024384	1.279545	city	3	1	1.406833	1.406833	0	1	0	0	CorrectCommission	0.227130	0.639580	1	0	9.807500e+01
332.303894	1.279436	mountain	6	0	0.000000	1.440616	1	0	0	0	CorrectOmission	0.533869	0.625937	1	0	9.810000e+01
333.583405	1.279624	city	2	1	1.477308	1.477308	0	1	0	0	CorrectCommission	0.867019	0.616553	1	0	9.812500e+01
334.863037	1.279640	city	9	1	1.421250	1.421250	0	1	0	0	CorrectCommission	0.358030	0.611545	1	0	9.815000e+01
336.142670	1.279636	city	4	1	1.405831	1.405831	0	1	0	0	CorrectCommission	0.218033	0.610778	1	0	9.817500e+01
337.455597	1.346175	city	10	1	1.282746	1.282746	0	1	0	0	CorrectCommission	0.899550	0.613886	1	0	9.820000e+01
338.768463	1.279585	city	6	1	1.419863	1.419863	0	1	0	0	CorrectCommission	0.345434	0.620251	1	0	9.822500e+01
340.047974	1.279425	city	8	1	1.303771	1.303771	0	1	0	0	CorrectCommission	0.708648	0.629102	1	0	9.825000e+01
341.327484	1.279612	city	2	1	1.301055	1.301055	0	1	0	0	CorrectCommission	0.733312	0.639525	1	0	9.827500e+01
342.620422	1.306227	city	9	1	1.339335	1.339335	0	1	0	0	CorrectCommission	0.385735	0.650546	1	0	9.830000e+01
343.913300	1.279551	mountain	5	0	0.000000	1.447490	1	0	0	0	CorrectOmission	0.596280	0.661246	1	0	9.832500e+01
345.192871	1.279595	city	3	1	1.514667	1.514667	0	1	0	0	CorrectCommission	1.206232	0.670820	1	0	9.835000e+01
346.472473	1.279614	city	9	1	1.430016	1.430016	0	1	0	0	CorrectCommission	0.437621	0.678673	1	0	9.837500e+01
347.758789	1.293036	city	1	1	1.487052	1.487052	0	1	0	0	CorrectCommission	0.955495	0.684526	1	0	9.840000e+01
349.051758	1.292893	city	7	1	1.440690	1.440690	0	1	0	0	CorrectCommission	0.534540	0.688401	1	0	9.842500e+01
350.344666	1.292880	city	5	1	1.328306	1.328306	0	1	0	0	CorrectCommission	0.485883	0.690653	1	0	9.845000e+01
351.657562	1.332918	city	1	1	1.178369	1.178369	0	1	0	0	CorrectCommission	1.847267	0.691905	1	0	9.847500e+01
352.963745	1.279488	city	7	1	1.358004	1.358004	0	1	0	0	CorrectCommission	0.216230	0.692879	1	0	9.850000e+01
354.249939	1.292863	city	9	1	1.300252	1.300252	0	1	0	0	CorrectCommission	0.740605	0.694394	1	0	9.852500e+01
355.542877	1.293031	city	3	1	1.394072	1.394072	0	1	0	0	CorrectCommission	0.111263	0.697123	1	0	9.855000e+01
356.849182	1.319566	city	7	1	1.386408	1.386408	0	1	0	0	CorrectCommission	0.041670	0.701554	1	0	9.857500e+01
358.148712	1.279500	mountain	4	0	0.000000	1.471905	1	0	0	0	CorrectOmission	0.817967	0.707910	1	0	9.860000e+01
359.434967	1.293004	city	5	1	1.538343	1.538343	0	1	0	0	CorrectCommission	1.421202	0.716179	1	0	9.862500e+01
360.727905	1.292908	city	6	1	1.473497	1.473497	0	1	0	0	CorrectCommission	0.832421	0.726169	1	0	9.865000e+01
362.014160	1.279564	city	7	1	1.341593	1.341593	0	1	0	0	CorrectCommission	0.365235	0.737624	1	0	9.867500e+01
363.293732	1.279615	city	3	1	1.416514	1.416514	0	1	0	0	CorrectCommission	0.315031	0.750313	1	0	9.870000e+01
364.579987	1.292909	city	4	1	1.497807	1.497807	0	1	0	0	CorrectCommission	1.053151	0.764063	1	0	9.872500e+01
365.866241	1.279581	city	10	1	1.540042	1.540042	0	1	0	0	CorrectCommission	1.436632	0.778762	1	0	9.875000e+01
367.152496	1.292912	city	9	1	1.488080	1.488080	0	1	0	0	CorrectCommission	0.964830	0.794338	0	0	9.877500e+01
368.445404	1.292903	city	3	1	1.461276	1.461276	0	1	0	0	CorrectCommission	0.721457	0.810643	0	0	9.880000e+01
369.751587	1.319463	city	6	1	1.423119	1.423119	0	1	0	0	CorrectCommission	0.375003	0.827304	0	0	9.882500e+01
371.064392	1.306177	city	8	1	1.384467	1.384467	0	1	0	0	CorrectCommission	0.024051	0.843648	0	0	9.885000e+01
372.357269	1.279584	city	4	1	1.468618	1.468618	0	1	0	0	CorrectCommission	0.788115	0.858642	0	0	9.887500e+01
373.643585	1.293032	city	2	1	1.513253	1.513253	0	1	0	0	CorrectCommission	1.193389	0.870904	0	0	9.890000e+01
374.949829	1.319472	city	5	1	1.502054	1.502054	0	1	0	0	CorrectCommission	1.091708	0.878927	0	0	9.892500e+01
376.302734	1.386336	city	2	1	1.543322	1.543322	0	1	0	0	CorrectCommission	1.466409	0.881283	0	0	9.895000e+01
377.649048	1.306234	city	6	1	1.450439	1.450439	0	1	0	0	CorrectCommission	0.623053	0.876873	0	0	9.897500e+01
381.527740	6.451189	break	0	0	0.000000	1.497361	0	0	0	0	ThoughtProbe	1.049094	0.865220	0	99	99
385.393127	1.279585	city	8	1	1.565759	1.565759	0	1	0	0	CorrectCommission	1.670137	0.846552	0	0	9.895652e+01
386.692719	1.319565	city	4	1	1.537306	1.537306	0	1	0	0	CorrectCommission	1.411788	0.821937	0	0	9.891304e+01
387.992279	1.279557	city	9	1	1.439767	1.439767	0	1	0	0	CorrectCommission	0.526158	0.793180	0	0	9.886957e+01
389.285156	1.306237	city	1	1	1.319833	1.319833	0	1	0	0	CorrectCommission	0.562809	0.762639	1	0	9.882609e+01
390.584747	1.292932	city	9	1	1.350212	1.350212	0	1	0	0	CorrectCommission	0.286975	0.732862	1	0	9.878261e+01
391.884277	1.306131	mountain	5	0	0.000000	1.433386	1	0	0	0	CorrectOmission	0.468216	0.706322	1	0	9.873913e+01
393.177185	1.279705	city	9	1	1.474961	1.474961	0	1	0	0	CorrectCommission	0.845712	0.685071	1	0	9.869565e+01
394.463501	1.292886	city	4	1	1.380547	1.380547	0	1	0	0	CorrectCommission	0.011540	0.670537	1	0	9.865217e+01
395.749634	1.279405	mountain	2	0	0.000000	1.422365	1	0	0	0	CorrectOmission	0.368155	0.663421	1	0	9.860870e+01
397.029144	1.279606	city	6	1	1.446447	1.446447	0	1	0	0	CorrectCommission	0.586809	0.663663	1	0	9.856522e+01
398.335388	1.332874	city	1	1	1.298824	1.298824	0	1	0	0	CorrectCommission	0.753566	0.670534	1	0	9.852174e+01
399.641693	1.279755	city	9	1	1.313342	1.313342	0	1	0	0	CorrectCommission	0.621752	0.682843	1	0	9.847826e+01
400.934601	1.306071	city	1	1	1.272048	1.272048	0	1	0	0	CorrectCommission	0.996687	0.699131	1	0	9.843478e+01
402.254150	1.332994	city	3	1	1.273810	1.273810	0	1	0	0	CorrectCommission	0.980691	0.717866	1	0	9.839130e+01
403.567047	1.292825	city	9	1	1.393360	1.393360	0	1	0	0	CorrectCommission	0.104797	0.737641	1	0	9.834783e+01
404.859955	1.292983	city	4	1	1.313066	1.313066	0	1	0	0	CorrectCommission	0.624252	0.757303	1	0	9.830435e+01
406.159607	1.306299	city	8	1	1.204190	1.204190	0	1	0	0	CorrectCommission	1.612817	0.775971	1	0	9.826087e+01
407.459106	1.292743	city	3	1	1.265550	1.265550	0	1	0	0	CorrectCommission	1.055688	0.793049	0	0	9.821739e+01
408.751984	1.292963	city	4	1	1.311311	1.311311	0	1	0	0	CorrectCommission	0.640193	0.808245	0	0	9.817391e+01
410.044891	1.292877	city	8	1	1.358665	1.358665	0	1	0	0	CorrectCommission	0.210222	0.821445	0	0	9.813043e+01
411.344543	1.306401	mountain	6	0	0.000000	1.424572	1	0	0	0	CorrectOmission	0.388190	0.832681	0	0	9.808696e+01
412.637512	1.279562	city	7	1	1.507258	1.507258	0	1	0	0	CorrectCommission	1.138958	0.842040	0	0	9.804348e+01
413.923767	1.292921	city	6	1	1.604952	1.604952	0	1	0	0	CorrectCommission	2.025997	0.849600	0	0	98
415.223267	1.306072	city	8	1	1.345114	1.345114	0	1	0	0	CorrectCommission	0.333267	0.855399	0	0	9.795652e+01
416.529480	1.306411	city	4	1	1.263030	1.263030	0	1	0	0	CorrectCommission	1.078565	0.859467	0	0	9.791304e+01
417.848999	1.332610	city	10	1	1.288715	1.288715	0	1	0	0	CorrectCommission	0.845359	0.861695	0	0	9.786957e+01
419.155182	1.279741	city	3	1	1.315119	1.315119	0	1	0	0	CorrectCommission	0.605616	0.861883	0	0	9.782609e+01
420.441467	1.292846	mountain	10	0	0.000000	1.416575	1	0	0	0	CorrectOmission	0.315578	0.859768	0	0	9.778261e+01
421.734344	1.292898	city	3	1	1.493911	1.493911	0	1	0	0	CorrectCommission	1.017770	0.855045	0	0	9.773913e+01
423.027344	1.293117	city	1	1	1.447955	1.447955	0	1	0	0	CorrectCommission	0.600504	0.847471	0	0	9.769565e+01
424.326965	1.306114	city	9	1	1.581864	1.581864	0	1	0	0	CorrectCommission	1.816366	0.837003	0	0	9.765217e+01
425.619873	1.279663	city	7	1	1.501771	1.501771	0	1	0	0	CorrectCommission	1.089141	0.823809	0	0	9.760870e+01
426.906128	1.292882	city	5	1	1.475203	1.475203	0	1	0	0	CorrectCommission	0.847912	0.808395	0	0	9.756522e+01
428.199036	1.292952	city	8	1	1.478681	1.478681	0	1	0	0	CorrectCommission	0.879488	0.791553	1	0	9.752174e+01
429.485260	1.279464	city	1	1	1.433139	1.433139	0	1	0	0	CorrectCommission	0.465976	0.774227	1	0	9.747826e+01
430.784729	1.319511	city	6	1	1.288640	1.288640	0	1	0	0	CorrectCommission	0.846033	0.757393	1	0	9.743478e+01
432.124268	1.359534	city	8	1	1.325427	1.325427	0	1	0	0	CorrectCommission	0.512023	0.741854	1	0	9.739130e+01
433.443878	1.279685	city	5	1	1.315723	1.315723	0	1	0	0	CorrectCommission	0.600130	0.728112	1	0	9.734783e+01
434.736877	1.306303	city	4	1	1.366256	1.366256	0	1	0	0	CorrectCommission	0.141300	0.716213	1	0	9.730435e+01
436.029785	1.279551	city	3	1	1.421574	1.421574	0	1	0	0	CorrectCommission	0.360971	0.705808	1	0	9.726087e+01
437.309387	1.279627	city	7	1	1.494013	1.494013	0	1	0	0	CorrectCommission	1.018695	0.696242	1	0	9.721739e+01
438.602264	1.306106	city	4	1	1.501447	1.501447	0	1	0	0	CorrectCommission	1.086196	0.686719	1	0	9.717391e+01
439.908478	1.306369	city	3	1	1.471039	1.471039	0	1	0	0	CorrectCommission	0.810100	0.676548	1	0	9.713043e+01
441.201447	1.279558	city	10	1	1.474980	1.474980	0	1	0	0	CorrectCommission	0.845887	0.665363	1	0	9.708696e+01
442.494293	1.306095	city	3	1	1.522433	1.522433	0	1	0	0	CorrectCommission	1.276746	0.653203	1	0	9.704348e+01
446.106354	5.918049	break	0	0	0.000000	1.396722	0	0	0	0	ThoughtProbe	0.135317	0.640619	1	97	97
449.731873	1.333024	city	9	1	1.282057	1.282057	0	1	0	0	CorrectCommission	0.905805	0.628640	1	0	9.695652e+01
451.038116	1.279452	city	8	1	1.362652	1.362652	0	1	0	0	CorrectCommission	0.174025	0.618548	1	0	9.691304e+01
452.317627	1.279581	city	1	1	1.354668	1.354668	0	1	0	0	CorrectCommission	0.246521	0.611762	1	0	9.686957e+01
453.610657	1.306424	city	4	1	1.495935	1.495935	0	1	0	0	CorrectCommission	1.036148	0.609567	1	0	9.682609e+01
454.910278	1.292873	city	7	1	1.406618	1.406618	0	1	0	0	CorrectCommission	0.225178	0.612887	1	0	9.678261e+01
456.216370	1.319307	city	4	1	1.391798	1.391798	0	1	0	0	CorrectCommission	0.090611	0.622241	1	0	9.673913e+01
457.549194	1.346311	city	10	1	1.288887	1.288887	0	1	0	0	CorrectCommission	0.843792	0.637553	1	0	9.669565e+01
458.862152	1.279600	city	7	1	1.400167	1.400167	0	1	0	0	CorrectCommission	0.166601	0.658225	1	0	9.665217e+01
460.148468	1.293066	mountain	9	0	0.000000	1.446893	1	0	0	0	CorrectOmission	0.590862	0.683241	1	0	9.660870e+01
461.441467	1.292886	city	5	1	1.482855	1.482855	0	1	0	0	CorrectCommission	0.917388	0.711289	1	0	9.656522e+01
462.767609	1.359398	city	4	1	1.561843	1.561843	0	1	0	0	CorrectCommission	1.634577	0.740918	1	0	9.652174e+01
464.093781	1.292951	city	9	1	1.446837	1.446837	0	1	0	0	CorrectCommission	0.590350	0.770671	1	0	9.647826e+01
465.393341	1.306210	city	2	1	1.353841	1.353841	0	1	0	0	CorrectCommission	0.254031	0.799282	0	0	9.643478e+01
466.712921	1.332929	city	7	1	1.271817	1.271817	0	1	0	0	CorrectCommission	0.998780	0.825697	0	0	9.639130e+01
468.032471	1.306181	mountain	1	0	0.000000	1.330740	1	0	0	0	CorrectOmission	0.463779	0.849128	0	0	9.634783e+01
469.325409	1.279659	city	6	1	1.470973	1.470973	0	1	0	0	CorrectCommission	0.809501	0.869112	0	0	9.630435e+01
470.625031	1.319628	city	5	1	1.632881	1.632881	0	1	0	0	CorrectCommission	2.279586	0.885452	0	0	9.626087e+01
471.931305	1.292900	mountain	10	0	0.000000	1.503461	1	0	0	0	CorrectOmission	1.104487	0.898156	0	0	9.621739e+01
473.217560	1.279605	city	8	1	1.368404	1.368404	0	1	0	0	CorrectCommission	0.121800	0.907443	0	0	9.617391e+01
474.503754	1.292766	city	5	1	1.513399	1.513399	0	1	0	0	CorrectCommission	1.194723	0.913625	0	0	9.613043e+01
475.816589	1.332896	city	9	1	1.337374	1.337374	0	1	0	0	CorrectCommission	0.403547	0.916978	0	0	9.608696e+01
477.136169	1.306283	city	6	1	1.283507	1.283507	0	1	0	0	CorrectCommission	0.892638	0.917808	0	0	9.604348e+01
478.442383	1.306165	city	1	1	1.277455	1.277455	0	1	0	0	CorrectCommission	0.947596	0.916331	0	0	96
479.748627	1.306293	mountain	3	0	0.000000	1.461960	1	0	0	0	CorrectOmission	0.727666	0.912743	0	0	9.595652e+01
481.048279	1.293021	city	7	1	1.604639	1.604639	0	1	0	0	CorrectCommission	2.023157	0.907249	0	0	9.591304e+01
482.347931	1.306279	city	2	1	1.473108	1.473108	0	1	0	0	CorrectCommission	0.828889	0.900067	0	0	9.586957e+01
483.640839	1.279540	city	4	1	1.461307	1.461307	0	1	0	0	CorrectCommission	0.721739	0.891563	0	0	9.582609e+01
484.927063	1.292924	city	9	1	1.406125	1.406125	0	1	0	0	CorrectCommission	0.220694	0.882203	0	0	9.578261e+01
486.226562	1.306084	city	7	1	1.555837	1.555837	0	1	0	0	CorrectCommission	1.580045	0.872577	0	0	9.573913e+01
487.539459	1.319720	city	5	1	1.486794	1.486794	0	1	0	0	CorrectCommission	0.953155	0.863377	0	0	9.569565e+01
488.885742	1.372819	city	9	1	1.420206	1.420206	0	1	0	0	CorrectCommission	0.348549	0.855476	0	0	9.565217e+01
490.225311	1.306298	city	7	1	1.463419	1.463419	0	1	0	0	CorrectCommission	0.740915	0.849951	0	0	9.560870e+01
491.558136	1.359378	city	5	1	1.305537	1.305537	0	1	0	0	CorrectCommission	0.692615	0.848134	0	0	9.556522e+01
492.877625	1.279621	city	8	1	1.323351	1.323351	0	1	0	0	CorrectCommission	0.530866	0.851752	0	0	9.552174e+01
494.177246	1.319594	city	6	1	1.270937	1.270937	0	1	0	0	CorrectCommission	1.006772	0.862993	0	0	9.547826e+01
495.483459	1.292868	city	5	1	1.186919	1.186919	0	1	0	0	CorrectCommission	1.769638	0.884463	0	0	9.543478e+01
496.783020	1.306205	city	8	1	1.255077	1.255077	0	1	0	0	CorrectCommission	1.150778	0.919125	0	0	9.539130e+01
498.075897	1.279583	city	1	1	1.348453	1.348453	0	1	0	0	CorrectCommission	0.302949	0.970117	0	0	9.534783e+01
499.355469	1.279570	city	8	1	1.417111	1.417111	0	1	0	0	CorrectCommission	0.320450	1.040370	0	0	9.530435e+01
500.661804	1.333095	city	6	1	1.350507	1.350507	0	1	0	0	CorrectCommission	0.284295	1.132197	0	0	9.526087e+01
501.994751	1.332758	city	5	1	1.452997	1.452997	0	1	0	0	CorrectCommission	0.646287	1.246899	0	0	9.521739e+01
503.307556	1.292855	city	7	1	1.488890	1.488890	0	1	0	0	CorrectCommission	0.972186	1.384352	0	0	9.517391e+01
504.600464	1.292996	city	2	1	1.498493	1.498493	0	1	0	0	CorrectCommission	1.059374	1.542811	0	0	9.513043e+01
505.913391	1.332827	city	6	1	1.500977	1.500977	0	1	0	0	CorrectCommission	1.081932	1.718850	0	0	9.508696e+01
507.233002	1.306401	city	7	1	1.557202	1.557202	0	1	0	0	CorrectCommission	1.592436	1.907570	0	0	9.504348e+01
510.685242	5.598073	break	0	0	0.000000	1.613426	0	0	0	0	ThoughtProbe	2.102940	2.102940	0	95	95
