onset	duration	trial_type	image_type	Press	ReactionTime	ReactionTime_Interpolated	CorrectOmission	CorrectCommission	CommissionError	OmissionError	response_type	nonsmoothVarianceTimeCourse	VarianceTimeCourse	In_the_Zone	ThoughtProbe	ThoughtProbe_Interpolated
0.652889	1.279443	city	10	1	1.017872	1.017872	0	1	0	0	CorrectCommission	0.703819	0.703819	1	0	64
1.945816	1.306412	city	8	1	0.882505	0.882505	0	1	0	0	CorrectCommission	1.086449	0.803663	1	0	64
3.238805	1.279566	city	2	1	0.925738	0.925738	0	1	0	0	CorrectCommission	0.964247	0.899603	0	0	64
4.518384	1.279592	city	3	1	0.664481	0.664481	0	1	0	0	CorrectCommission	1.702718	0.988290	0	0	64
5.797925	1.279490	city	9	1	0.487113	0.487113	0	1	0	0	CorrectCommission	2.204067	1.067305	0	0	64
7.077419	1.279499	city	8	1	0.489411	0.489411	0	1	0	0	CorrectCommission	2.197571	1.135378	0	0	64
8.357044	1.279752	city	1	1	1.656882	1.656882	0	1	0	0	CorrectCommission	1.102411	1.192364	0	0	64
9.636709	1.279578	city	2	1	1.553323	1.553323	0	1	0	0	CorrectCommission	0.809689	1.238988	0	0	64
10.916226	1.279455	mountain	2	0	0.000000	1.120868	1	0	0	0	CorrectOmission	0.412690	1.276411	0	0	64
12.202451	1.292994	city	10	1	0.763989	0.763989	0	1	0	0	CorrectCommission	1.421448	1.305800	0	0	64
13.488737	1.279579	city	3	1	0.887154	0.887154	0	1	0	0	CorrectCommission	1.073307	1.327932	0	0	64
14.768324	1.279595	city	1	1	0.697020	0.697020	0	1	0	0	CorrectCommission	1.610741	1.343017	0	0	64
16.047922	1.279599	city	2	1	0.765764	0.765764	0	1	0	0	CorrectCommission	1.416430	1.350586	0	0	64
17.327494	1.279546	city	7	1	0.910304	0.910304	0	1	0	0	CorrectCommission	1.007871	1.349750	0	0	64
18.606981	1.279429	city	4	1	0.701495	0.701495	0	1	0	0	CorrectCommission	1.598093	1.339493	0	0	64
19.886490	1.279586	city	2	1	0.557463	0.557463	0	1	0	0	CorrectCommission	2.005214	1.319069	0	0	64
21.166157	1.279749	city	10	1	0.537752	0.537752	0	1	0	0	CorrectCommission	2.060930	1.288402	0	0	64
22.445818	1.279572	city	7	1	0.594960	0.594960	0	1	0	0	CorrectCommission	1.899225	1.248353	0	0	64
23.725311	1.279417	city	2	1	0.643690	0.643690	0	1	0	0	CorrectCommission	1.761484	1.200786	0	0	64
25.004805	1.279570	mountain	5	0	0.000000	0.880136	1	0	0	0	CorrectOmission	1.093146	1.148471	0	0	64
26.284393	1.279606	mountain	8	0	0.000000	1.137772	1	0	0	0	CorrectOmission	0.364908	1.094795	0	0	64
27.563997	1.279604	city	4	1	1.250077	1.250077	0	1	0	0	CorrectCommission	0.047467	1.043392	0	0	64
28.843571	1.279543	city	2	1	1.050526	1.050526	0	1	0	0	CorrectCommission	0.611520	0.997691	0	0	64
30.123219	1.279749	city	6	1	0.861496	0.861496	0	1	0	0	CorrectCommission	1.145834	0.960559	0	0	64
31.402815	1.279444	city	5	1	0.925982	0.925982	0	1	0	0	CorrectCommission	0.963556	0.934002	0	0	64
32.682301	1.279529	city	8	1	0.862750	0.862750	0	1	0	0	CorrectCommission	1.142289	0.919060	0	0	64
33.961926	1.279720	city	7	1	1.390521	1.390521	0	1	0	0	CorrectCommission	0.349512	0.915759	0	0	64
35.241596	1.279620	city	9	1	1.193694	1.193694	0	1	0	0	CorrectCommission	0.206840	0.923186	0	0	64
36.521130	1.279443	city	1	1	1.031479	1.031479	0	1	0	0	CorrectCommission	0.665359	0.939693	0	0	64
37.800621	1.279541	city	10	1	0.861107	0.861107	0	1	0	0	CorrectCommission	1.146934	0.963092	0	0	64
39.080257	1.279735	mountain	7	1	0.654301	0.654301	0	0	1	0	CommissionError	1.731492	0.990898	0	0	64
40.366585	1.292916	city	9	1	1.456921	1.456921	0	1	0	0	CorrectCommission	0.537198	1.020593	0	0	64
41.652851	1.279617	city	6	1	0.964092	0.964092	0	1	0	0	CorrectCommission	0.855834	1.049902	0	0	64
42.932419	1.279523	city	8	1	0.819190	0.819190	0	1	0	0	CorrectCommission	1.265415	1.076887	0	0	64
44.231972	1.319584	city	1	1	0.704778	0.704778	0	1	0	0	CorrectCommission	1.588812	1.100130	0	0	64
45.538155	1.292776	city	2	1	0.664744	0.664744	0	1	0	0	CorrectCommission	1.701975	1.118762	0	0	64
46.824383	1.279685	city	9	1	1.720165	1.720165	0	1	0	0	CorrectCommission	1.281285	1.132448	0	0	64
48.104034	1.279614	city	8	0	0.000000	1.464553	0	0	0	1	OmissionError	0.558772	1.141302	0	0	64
49.383614	1.279548	city	4	1	0.864081	0.864081	0	1	0	0	CorrectCommission	1.138526	1.145759	0	0	64
50.676521	1.306263	city	3	1	0.884921	0.884921	0	1	0	0	CorrectCommission	1.079620	1.146417	0	0	64
51.969460	1.279616	city	8	1	0.808878	0.808878	0	1	0	0	CorrectCommission	1.294563	1.143951	0	0	64
53.248955	1.279373	city	5	1	0.919696	0.919696	0	1	0	0	CorrectCommission	0.981325	1.139009	0	0	64
54.528519	1.279756	city	9	1	0.595087	0.595087	0	1	0	0	CorrectCommission	1.898868	1.132170	0	0	64
55.828178	1.319566	city	8	1	1.133002	1.133002	0	1	0	0	CorrectCommission	0.378394	1.123913	0	0	64
57.127750	1.279577	city	2	1	0.859563	0.859563	0	1	0	0	CorrectCommission	1.151298	1.114687	0	0	64
57.767540	9.729958	break	0	1	0.568522	0.568522	0	0	0	0	ThoughtProbe	1.973954	1.104875	0	64	64
68.137283	1.279570	city	9	1	1.336992	1.336992	0	1	0	0	CorrectCommission	0.198206	1.094868	0	0	6.385294e+01
69.436920	1.319699	city	8	1	1.602306	1.602306	0	1	0	0	CorrectCommission	0.948146	1.085179	0	0	6.370588e+01
70.743233	1.292928	city	1	1	1.898606	1.898606	0	1	0	0	CorrectCommission	1.785668	1.076340	0	0	6.355882e+01
72.029503	1.279612	city	9	0	0.000000	1.402396	0	0	0	1	OmissionError	0.383079	1.068942	0	0	6.341176e+01
73.315666	1.292721	city	10	1	0.782000	0.782000	0	1	0	0	CorrectCommission	1.370538	1.063610	0	0	6.326471e+01
74.601822	1.279592	city	5	1	0.705738	0.705738	0	1	0	0	CorrectCommission	1.586101	1.060844	0	0	6.311765e+01
75.881485	1.279724	city	3	1	1.514076	1.514076	0	1	0	0	CorrectCommission	0.698754	1.060955	0	0	6.297059e+01
77.161057	1.279419	city	9	1	1.657041	1.657041	0	1	0	0	CorrectCommission	1.102861	1.063981	0	0	6.282353e+01
78.440643	1.279763	mountain	1	0	0.000000	1.358056	1	0	0	0	CorrectOmission	0.257745	1.069530	0	0	6.267647e+01
79.726982	1.292912	city	4	1	0.963863	0.963863	0	1	0	0	CorrectCommission	0.856481	1.076795	0	0	6.252941e+01
81.013138	1.279399	city	10	1	0.821210	0.821210	0	1	0	0	CorrectCommission	1.259706	1.084587	0	0	6.238235e+01
82.292648	1.279623	city	5	1	0.911018	0.911018	0	1	0	0	CorrectCommission	1.005855	1.091527	0	0	6.223529e+01
83.572220	1.279528	city	2	1	1.663790	1.663790	0	1	0	0	CorrectCommission	1.121937	1.096280	0	0	6.208824e+01
84.851845	1.279716	city	3	1	1.768752	1.768752	0	1	0	0	CorrectCommission	1.418622	1.097799	0	0	6.194118e+01
86.131516	1.279632	city	1	1	1.883948	1.883948	0	1	0	0	CorrectCommission	1.744236	1.095576	0	0	6.179412e+01
87.417786	1.292898	city	6	1	1.724271	1.724271	0	1	0	0	CorrectCommission	1.292892	1.089806	0	0	6.164706e+01
88.704025	1.279586	city	1	1	1.839071	1.839071	0	1	0	0	CorrectCommission	1.617387	1.081389	0	0	6.150000e+01
89.983536	1.279439	city	4	1	1.603600	1.603600	0	1	0	0	CorrectCommission	0.951804	1.071810	0	0	6.135294e+01
91.263115	1.279714	city	8	1	1.657904	1.657904	0	1	0	0	CorrectCommission	1.105299	1.062893	0	0	6.120588e+01
92.549362	1.292786	mountain	10	0	0.000000	1.263032	1	0	0	0	CorrectOmission	0.010848	1.056498	0	0	6.105882e+01
93.835625	1.279735	city	3	1	0.887181	0.887181	0	1	0	0	CorrectCommission	1.073233	1.054186	0	0	6.091176e+01
95.121918	1.292855	city	2	1	0.998545	0.998545	0	1	0	0	CorrectCommission	0.758451	1.056857	0	0	6.076471e+01
96.414818	1.292939	city	9	1	1.030904	1.030904	0	1	0	0	CorrectCommission	0.666982	1.064715	0	0	6.061765e+01
97.714310	1.306046	city	6	1	1.106762	1.106762	0	1	0	0	CorrectCommission	0.452564	1.077152	0	0	6.047059e+01
99.007217	1.279763	city	10	1	1.613458	1.613458	0	1	0	0	CorrectCommission	0.979667	1.092922	0	0	6.032353e+01
100.286850	1.279516	city	5	1	1.932611	1.932611	0	1	0	0	CorrectCommission	1.881788	1.110360	0	0	6.017647e+01
101.566437	1.279643	city	9	1	1.999245	1.999245	0	1	0	0	CorrectCommission	2.070136	1.127616	0	0	6.002941e+01
102.852699	1.292884	city	8	1	1.913461	1.913461	0	1	0	0	CorrectCommission	1.827659	1.142929	0	0	5.988235e+01
104.138947	1.279609	city	10	0	0.000000	1.516764	0	0	0	1	OmissionError	0.706351	1.154800	0	0	5.973529e+01
105.425179	1.292864	city	2	1	1.081284	1.081284	0	1	0	0	CorrectCommission	0.524580	1.162062	0	0	5.958824e+01
106.718071	1.292920	city	4	1	0.879152	0.879152	0	1	0	0	CorrectCommission	1.095926	1.163896	0	0	5.944118e+01
108.004242	1.279418	city	3	1	0.910214	0.910214	0	1	0	0	CorrectCommission	1.008126	1.159794	0	0	5.929412e+01
109.297157	1.306414	city	10	1	1.090253	1.090253	0	1	0	0	CorrectCommission	0.499227	1.149567	0	0	5.914706e+01
109.950363	9.090350	break	0	1	0.649808	0.649808	0	0	0	0	ThoughtProbe	1.744191	1.133336	0	59	59
119.680489	1.279545	city	2	1	2.314357	2.314357	0	1	0	0	CorrectCommission	2.960835	1.111509	0	0	5.839130e+01
120.979881	1.319237	city	9	1	1.752671	1.752671	0	1	0	0	CorrectCommission	1.373169	1.084800	0	0	5.778261e+01
122.292725	1.306453	city	5	1	1.501252	1.501252	0	1	0	0	CorrectCommission	0.662504	1.054224	0	0	5.717391e+01
123.592461	1.293021	city	1	1	1.266144	1.266144	0	1	0	0	CorrectCommission	0.002053	1.020956	0	0	5.656522e+01
124.885811	1.293681	city	2	1	1.001448	1.001448	0	1	0	0	CorrectCommission	0.750245	0.986211	0	0	5.595652e+01
126.185387	1.305478	city	6	1	0.884321	0.884321	0	1	0	0	CorrectCommission	1.081317	0.951100	0	0	5.534783e+01
127.477928	1.279594	city	1	1	0.925838	0.925838	0	1	0	0	CorrectCommission	0.963964	0.916541	0	0	5.473913e+01
128.757462	1.279479	city	5	1	1.720654	1.720654	0	1	0	0	CorrectCommission	1.282669	0.883211	0	0	5.413043e+01
130.050339	1.306280	mountain	10	0	0.000000	1.244399	1	0	0	0	CorrectOmission	0.063516	0.851481	0	0	5.352174e+01
131.343292	1.279632	mountain	4	1	0.786211	0.786211	0	0	1	0	CommissionError	1.358635	0.821554	0	0	5.291304e+01
132.622910	1.279579	city	4	1	1.635224	1.635224	0	1	0	0	CorrectCommission	1.041192	0.793451	1	0	5.230435e+01
133.902420	1.279460	city	1	1	1.017001	1.017001	0	1	0	0	CorrectCommission	0.706282	0.767179	1	0	5.169565e+01
135.181976	1.279661	city	10	1	1.455490	1.455490	0	1	0	0	CorrectCommission	0.533156	0.742807	1	0	5.108696e+01
136.461563	1.279490	city	3	1	1.411197	1.411197	0	1	0	0	CorrectCommission	0.407955	0.720536	1	0	5.047826e+01
137.754395	1.306186	city	9	1	1.172478	1.172478	0	1	0	0	CorrectCommission	0.266811	0.700761	1	0	4.986957e+01
139.060654	1.306338	city	10	1	0.940896	0.940896	0	1	0	0	CorrectCommission	0.921399	0.684107	1	0	4.926087e+01
140.353592	1.279529	mountain	3	1	0.821229	0.821229	0	0	1	0	CommissionError	1.259653	0.671399	1	0	4.865217e+01
141.633209	1.279713	city	5	1	1.676845	1.676845	0	1	0	0	CorrectCommission	1.158837	0.663560	1	0	4.804348e+01
142.912842	1.279544	city	3	1	1.307855	1.307855	0	1	0	0	CorrectCommission	0.115848	0.661470	1	0	4.743478e+01
144.199005	1.292775	city	10	1	1.138772	1.138772	0	1	0	0	CorrectCommission	0.362082	0.665776	1	0	4.682609e+01
145.485260	1.279747	city	3	1	1.448759	1.448759	0	1	0	0	CorrectCommission	0.514128	0.676650	1	0	4.621739e+01
146.764862	1.279455	city	6	1	1.359147	1.359147	0	1	0	0	CorrectCommission	0.260830	0.693621	1	0	4.560870e+01
148.044357	1.279520	city	4	1	1.283614	1.283614	0	1	0	0	CorrectCommission	0.047328	0.715483	1	0	45
149.323975	1.279733	city	8	0	0.000000	1.174580	0	0	0	1	OmissionError	0.260869	0.740401	1	0	4.439130e+01
150.603561	1.279426	city	2	1	0.979440	0.979440	0	1	0	0	CorrectCommission	0.812452	0.766067	1	0	4.378261e+01
151.883087	1.279630	city	5	1	0.645591	0.645591	0	1	0	0	CorrectCommission	1.756111	0.790010	1	0	4.317391e+01
153.176086	1.306366	mountain	8	1	0.744610	0.744610	0	0	1	0	CommissionError	1.476225	0.809938	1	0	4.256522e+01
154.469040	1.279534	city	10	1	1.519978	1.519978	0	1	0	0	CorrectCommission	0.715437	0.824108	0	0	4.195652e+01
155.755219	1.292835	city	4	1	1.687972	1.687972	0	1	0	0	CorrectCommission	1.190291	0.831573	0	0	4.134783e+01
157.041428	1.279578	city	5	1	1.794153	1.794153	0	1	0	0	CorrectCommission	1.490420	0.832226	0	0	4.073913e+01
158.327713	1.293010	city	4	0	0.000000	1.414222	0	0	0	1	OmissionError	0.416507	0.826800	0	0	4.013043e+01
159.613983	1.279506	city	9	1	0.981175	0.981175	0	1	0	0	CorrectCommission	0.807549	0.816645	0	0	3.952174e+01
160.893524	1.279581	city	6	1	0.928001	0.928001	0	1	0	0	CorrectCommission	0.957849	0.803398	1	0	3.891304e+01
162.179733	1.292862	city	3	1	1.420674	1.420674	0	1	0	0	CorrectCommission	0.434744	0.788679	1	0	3.830435e+01
163.466019	1.279690	city	4	1	1.473522	1.473522	0	1	0	0	CorrectCommission	0.584124	0.773815	1	0	3.769565e+01
164.752319	1.292915	city	3	1	1.531842	1.531842	0	1	0	0	CorrectCommission	0.748970	0.759616	1	0	3.708696e+01
166.058563	1.319575	city	7	1	1.242166	1.242166	0	1	0	0	CorrectCommission	0.069828	0.746345	1	0	3.647826e+01
167.371475	1.306248	city	6	1	1.098267	1.098267	0	1	0	0	CorrectCommission	0.476574	0.733831	1	0	3.586957e+01
168.671036	1.292878	city	2	1	0.892925	0.892925	0	1	0	0	CorrectCommission	1.056995	0.721671	1	0	3.526087e+01
169.963867	1.292772	city	8	1	0.767045	0.767045	0	1	0	0	CorrectCommission	1.412810	0.709523	1	0	3.465217e+01
171.256699	1.292906	city	1	1	1.650150	1.650150	0	1	0	0	CorrectCommission	1.083381	0.697412	1	0	3.404348e+01
172.556335	1.306365	city	4	1	1.445408	1.445408	0	1	0	0	CorrectCommission	0.504656	0.685903	1	0	3.343478e+01
173.849335	1.279614	city	5	1	1.582095	1.582095	0	1	0	0	CorrectCommission	0.891018	0.676137	1	0	3.282609e+01
175.148941	1.319606	city	10	1	1.563589	1.563589	0	1	0	0	CorrectCommission	0.838706	0.669679	1	0	3.221739e+01
176.468430	1.319389	city	7	0	0.000000	1.480380	0	0	0	1	OmissionError	0.603508	0.668291	1	0	3.160870e+01
177.128128	12.569309	break	0	0	0.000000	1.367636	0	0	0	0	ThoughtProbe	0.284825	0.673543	1	31	31
190.337158	1.279434	city	7	0	0.000000	1.260523	0	0	0	1	OmissionError	0.017942	0.686444	1	0	3.065000e+01
191.616730	1.279699	city	6	1	1.194207	1.194207	0	1	0	0	CorrectCommission	0.205389	0.707134	1	0	3.030000e+01
192.896378	1.279614	city	3	1	1.203856	1.203856	0	1	0	0	CorrectCommission	0.178115	0.734762	1	0	2.995000e+01
194.175980	1.279590	city	8	1	1.204629	1.204629	0	1	0	0	CorrectCommission	0.175930	0.767548	1	0	2.960000e+01
195.462250	1.292935	city	10	1	0.987438	0.987438	0	1	0	0	CorrectCommission	0.789845	0.803030	1	0	2.925000e+01
196.748428	1.279431	city	5	1	0.775027	0.775027	0	1	0	0	CorrectCommission	1.390247	0.838441	0	0	2.890000e+01
198.034622	1.292951	city	1	1	0.681802	0.681802	0	1	0	0	CorrectCommission	1.653756	0.871166	0	0	2.855000e+01
199.320847	1.279509	city	4	1	0.564303	0.564303	0	1	0	0	CorrectCommission	1.985881	0.899108	0	0	2.820000e+01
200.600479	1.279741	mountain	4	1	0.620414	0.620414	0	0	1	0	CommissionError	1.827278	0.920927	0	0	2.785000e+01
201.880112	1.279535	mountain	8	0	0.000000	1.004724	1	0	0	0	CorrectOmission	0.740983	0.936092	0	0	2.750000e+01
203.159683	1.279594	city	7	1	1.365855	1.365855	0	1	0	0	CorrectCommission	0.279791	0.944734	0	0	2.715000e+01
204.439270	1.279603	city	4	1	1.352425	1.352425	0	1	0	0	CorrectCommission	0.241831	0.947373	0	0	2.680000e+01
205.738800	1.319448	city	5	1	1.141236	1.141236	0	1	0	0	CorrectCommission	0.355119	0.944656	0	0	2.645000e+01
207.058319	1.319578	city	1	1	0.996065	0.996065	0	1	0	0	CorrectCommission	0.765458	0.937137	0	0	2.610000e+01
208.384598	1.332999	city	3	1	1.774265	1.774265	0	1	0	0	CorrectCommission	1.434206	0.925201	0	0	2.575000e+01
209.704208	1.306219	city	2	1	1.860278	1.860278	0	1	0	0	CorrectCommission	1.677331	0.909109	0	0	2.540000e+01
210.997116	1.279598	city	6	1	1.606868	1.606868	0	1	0	0	CorrectCommission	0.961039	0.889151	0	0	2.505000e+01
212.276703	1.279559	city	4	1	1.732993	1.732993	0	1	0	0	CorrectCommission	1.317547	0.865870	0	0	2.470000e+01
213.556213	1.279485	mountain	3	0	0.000000	1.654433	1	0	0	0	CorrectOmission	1.095488	0.840151	0	0	2.435000e+01
214.835800	1.279672	city	9	1	1.511193	1.511193	0	1	0	0	CorrectCommission	0.690605	0.813317	1	0	24
216.128693	1.306125	city	6	1	1.443280	1.443280	0	1	0	0	CorrectCommission	0.498642	0.787093	1	0	2.365000e+01
217.421570	1.279620	city	2	1	1.521942	1.521942	0	1	0	0	CorrectCommission	0.720989	0.763430	1	0	2.330000e+01
218.701126	1.279483	city	10	1	1.304233	1.304233	0	1	0	0	CorrectCommission	0.105609	0.744277	1	0	2.295000e+01
219.980759	1.279805	city	2	1	1.497823	1.497823	0	1	0	0	CorrectCommission	0.652814	0.731359	1	0	2.260000e+01
221.267014	1.292677	city	3	1	1.593063	1.593063	0	1	0	0	CorrectCommission	0.922019	0.725937	1	0	2.225000e+01
222.553223	1.279753	city	4	1	1.405271	1.405271	0	1	0	0	CorrectCommission	0.391204	0.728673	1	0	2.190000e+01
223.839478	1.292751	city	7	1	1.318310	1.318310	0	1	0	0	CorrectCommission	0.145401	0.739553	1	0	2.155000e+01
225.132294	1.292895	city	3	1	1.622612	1.622612	0	1	0	0	CorrectCommission	1.005544	0.757878	1	0	2.120000e+01
226.431870	1.306253	city	6	1	1.596789	1.596789	0	1	0	0	CorrectCommission	0.932550	0.782318	1	0	2.085000e+01
227.744781	1.319571	city	2	1	1.446115	1.446115	0	1	0	0	CorrectCommission	0.506654	0.811106	1	0	2.050000e+01
229.044449	1.279754	city	4	1	1.457098	1.457098	0	1	0	0	CorrectCommission	0.537700	0.842218	0	0	2.015000e+01
230.324036	1.279411	city	3	1	1.553141	1.553141	0	1	0	0	CorrectCommission	0.809175	0.873571	0	0	1.980000e+01
231.603531	1.279602	city	8	1	1.653162	1.653162	0	1	0	0	CorrectCommission	1.091896	0.903195	0	0	1.945000e+01
232.896500	1.306338	city	5	1	1.852618	1.852618	0	1	0	0	CorrectCommission	1.655680	0.929403	0	0	1.910000e+01
234.189392	1.279449	city	2	1	1.911356	1.911356	0	1	0	0	CorrectCommission	1.821709	0.950872	0	0	1.875000e+01
235.488953	1.319667	city	6	0	0.000000	1.480019	0	0	0	1	OmissionError	0.602487	0.966678	0	0	1.840000e+01
236.795258	1.292941	city	1	1	1.034365	1.034365	0	1	0	0	CorrectCommission	0.657200	0.976283	0	0	1.805000e+01
238.101501	1.319557	city	5	1	1.050156	1.050156	0	1	0	0	CorrectCommission	0.612565	0.979417	0	0	1.770000e+01
239.401077	1.279593	city	6	1	1.483829	1.483829	0	1	0	0	CorrectCommission	0.613258	0.976062	0	0	1.735000e+01
240.040878	9.783306	break	0	0	0.000000	1.821389	0	0	0	0	ThoughtProbe	1.567406	0.966370	0	17	17
250.464050	1.279743	city	2	1	1.924373	1.924373	0	1	0	0	CorrectCommission	1.858501	0.950641	0	0	1.684783e+01
251.743698	1.279550	city	8	1	1.654320	1.654320	0	1	0	0	CorrectCommission	1.095168	0.929352	0	0	1.669565e+01
253.036621	1.306273	city	1	1	1.434607	1.434607	0	1	0	0	CorrectCommission	0.474126	0.903190	0	0	1.654348e+01
254.342850	1.306197	city	10	1	1.041168	1.041168	0	1	0	0	CorrectCommission	0.637971	0.873017	0	0	1.639130e+01
255.642410	1.292918	city	6	1	0.930712	0.930712	0	1	0	0	CorrectCommission	0.950187	0.839870	0	0	1.623913e+01
256.928650	1.279583	city	8	1	0.936765	0.936765	0	1	0	0	CorrectCommission	0.933079	0.804957	1	0	1.608696e+01
258.221588	1.306258	mountain	9	1	0.835727	0.835727	0	0	1	0	CommissionError	1.218673	0.769625	1	0	1.593478e+01
259.521149	1.292889	city	4	1	1.162850	1.162850	0	1	0	0	CorrectCommission	0.294023	0.735289	1	0	1.578261e+01
260.814056	1.292920	mountain	1	1	1.092443	1.092443	0	0	1	0	CommissionError	0.493036	0.703404	1	0	1.563043e+01
262.100220	1.279431	city	2	1	0.984462	0.984462	0	1	0	0	CorrectCommission	0.798257	0.675343	1	0	1.547826e+01
263.379791	1.279716	city	1	1	0.929941	0.929941	0	1	0	0	CorrectCommission	0.952365	0.652387	1	0	1.532609e+01
264.659454	1.279606	city	4	1	1.283941	1.283941	0	1	0	0	CorrectCommission	0.048252	0.635634	1	0	1.517391e+01
265.939026	1.279522	city	9	1	1.311453	1.311453	0	1	0	0	CorrectCommission	0.126019	0.626011	1	0	1.502174e+01
267.231873	1.306168	mountain	6	1	1.113003	1.113003	0	0	1	0	CommissionError	0.434922	0.624213	1	0	1.486957e+01
268.524719	1.279522	city	7	1	1.546875	1.546875	0	1	0	0	CorrectCommission	0.791465	0.630697	1	0	1.471739e+01
269.811005	1.293044	city	8	1	1.587476	1.587476	0	1	0	0	CorrectCommission	0.906227	0.645669	1	0	1.456522e+01
271.117310	1.319593	city	3	1	1.502103	1.502103	0	1	0	0	CorrectCommission	0.664911	0.669060	1	0	1.441304e+01
272.416870	1.279501	city	7	0	0.000000	1.452217	0	0	0	1	OmissionError	0.523902	0.700485	1	0	1.426087e+01
273.696381	1.279510	city	3	1	1.361573	1.361573	0	1	0	0	CorrectCommission	0.267689	0.739178	1	0	1.410870e+01
274.975983	1.279725	city	10	1	1.153928	1.153928	0	1	0	0	CorrectCommission	0.319242	0.783917	1	0	1.395652e+01
276.255585	1.279431	city	8	1	0.977229	0.977229	0	1	0	0	CorrectCommission	0.818703	0.832998	0	0	1.380435e+01
277.541840	1.293095	city	6	1	0.769755	0.769755	0	1	0	0	CorrectCommission	1.405148	0.884228	0	0	1.365217e+01
278.834839	1.292892	city	7	1	1.633646	1.633646	0	1	0	0	CorrectCommission	1.036732	0.935018	0	0	1.350000e+01
280.141022	1.319483	city	10	1	1.258080	1.258080	0	1	0	0	CorrectCommission	0.024847	0.982600	0	0	1.334783e+01
281.447235	1.292983	city	2	1	1.558872	1.558872	0	1	0	0	CorrectCommission	0.825374	1.024244	0	0	1.319565e+01
282.746857	1.306233	city	8	1	1.981465	1.981465	0	1	0	0	CorrectCommission	2.019880	1.057483	0	0	1.304348e+01
284.046417	1.292890	city	10	0	0.000000	1.920472	0	0	0	1	OmissionError	1.847477	1.080408	0	0	1.289130e+01
285.332581	1.279439	city	4	1	1.741811	1.741811	0	1	0	0	CorrectCommission	1.342470	1.091937	0	0	1.273913e+01
286.612152	1.279718	city	3	1	1.811398	1.811398	0	1	0	0	CorrectCommission	1.539167	1.091842	0	0	1.258696e+01
287.905182	1.306314	city	9	1	2.087032	2.087032	0	1	0	0	CorrectCommission	2.318274	1.080763	0	0	1.243478e+01
289.198090	1.279517	city	5	1	1.337373	1.337373	0	1	0	0	CorrectCommission	0.199285	1.060038	0	0	1.228261e+01
290.477570	1.279452	city	7	1	1.367564	1.367564	0	1	0	0	CorrectCommission	0.284621	1.031525	0	0	1.213043e+01
291.757172	1.279710	city	9	1	1.658740	1.658740	0	1	0	0	CorrectCommission	1.107663	0.997226	0	0	1.197826e+01
293.036804	1.279598	city	2	1	1.577161	1.577161	0	1	0	0	CorrectCommission	0.877071	0.959076	0	0	1.182609e+01
294.316376	1.279538	mountain	9	0	0.000000	1.641327	1	0	0	0	CorrectOmission	1.058443	0.918768	0	0	1.167391e+01
295.595947	1.279609	city	5	1	1.577660	1.577660	0	1	0	0	CorrectCommission	0.878482	0.877633	0	0	1.152174e+01
296.882111	1.292734	city	4	1	1.112584	1.112584	0	1	0	0	CorrectCommission	0.436107	0.836662	0	0	1.136957e+01
298.174957	1.292909	city	3	1	0.847524	0.847524	0	1	0	0	CorrectCommission	1.185328	0.796569	1	0	1.121739e+01
299.467834	1.292898	city	4	1	0.897514	0.897514	0	1	0	0	CorrectCommission	1.044025	0.757860	1	0	1.106522e+01
300.760834	1.293047	city	5	1	1.607367	1.607367	0	1	0	0	CorrectCommission	0.962451	0.720946	1	0	1.091304e+01
302.067078	1.319446	city	3	1	1.027577	1.027577	0	1	0	0	CorrectCommission	0.676389	0.686158	1	0	1.076087e+01
303.366638	1.279712	city	9	1	1.287718	1.287718	0	1	0	0	CorrectCommission	0.058929	0.653751	1	0	1.060870e+01
304.652954	1.292906	city	2	1	1.423152	1.423152	0	1	0	0	CorrectCommission	0.441749	0.623872	1	0	1.045652e+01
305.945801	1.292807	city	9	1	1.420597	1.420597	0	1	0	0	CorrectCommission	0.434524	0.596488	1	0	1.030435e+01
307.238647	1.292874	city	4	0	0.000000	1.135251	0	0	0	1	OmissionError	0.372035	0.571388	1	0	1.015217e+01
307.885101	9.810142	break	0	1	1.086422	1.086422	0	0	0	0	ThoughtProbe	0.510057	0.548214	1	10	10
318.335083	1.279684	city	7	1	1.793413	1.793413	0	1	0	0	CorrectCommission	1.488330	0.526488	1	0	1.020588e+01
319.614624	1.279415	city	3	1	1.300593	1.300593	0	1	0	0	CorrectCommission	0.095321	0.505675	1	0	1.041176e+01
320.894196	1.279745	city	2	1	1.301061	1.301061	0	1	0	0	CorrectCommission	0.096645	0.485366	1	0	1.061765e+01
322.173859	1.279582	city	5	1	1.470953	1.470953	0	1	0	0	CorrectCommission	0.576863	0.465311	1	0	1.082353e+01
323.466736	1.306151	city	8	1	1.061049	1.061049	0	1	0	0	CorrectCommission	0.581775	0.445516	1	0	1.102941e+01
324.759644	1.279655	mountain	6	0	0.000000	0.992396	1	0	0	0	CorrectOmission	0.775831	0.426251	1	0	1.123529e+01
326.039185	1.279455	city	3	1	1.086928	1.086928	0	1	0	0	CorrectCommission	0.508627	0.408079	1	0	1.144118e+01
327.332092	1.306347	city	1	1	1.166578	1.166578	0	1	0	0	CorrectCommission	0.283488	0.391762	1	0	1.164706e+01
328.631714	1.292886	city	4	1	1.252620	1.252620	0	1	0	0	CorrectCommission	0.040280	0.378108	1	0	1.185294e+01
329.937927	1.319563	city	6	1	1.181355	1.181355	0	1	0	0	CorrectCommission	0.241717	0.367862	1	0	1.205882e+01
331.237457	1.279459	city	7	1	1.310185	1.310185	0	1	0	0	CorrectCommission	0.122435	0.361574	1	0	1.226471e+01
332.523621	1.292909	city	1	1	1.145623	1.145623	0	1	0	0	CorrectCommission	0.342717	0.359508	1	0	1.247059e+01
333.809875	1.279607	city	8	1	1.420118	1.420118	0	1	0	0	CorrectCommission	0.433172	0.361603	1	0	1.267647e+01
335.109558	1.319737	city	4	1	1.287069	1.287069	0	1	0	0	CorrectCommission	0.057095	0.367463	1	0	1.288235e+01
336.422516	1.306201	city	8	1	1.165537	1.165537	0	1	0	0	CorrectCommission	0.286428	0.376478	1	0	1.308824e+01
337.722076	1.292900	city	1	1	1.110926	1.110926	0	1	0	0	CorrectCommission	0.440793	0.387905	1	0	1.329412e+01
339.008270	1.279467	city	9	1	1.526091	1.526091	0	1	0	0	CorrectCommission	0.732715	0.401017	1	0	1.350000e+01
340.314423	1.332879	city	1	1	1.308931	1.308931	0	1	0	0	CorrectCommission	0.118888	0.415240	1	0	1.370588e+01
341.633972	1.306226	city	10	1	1.428113	1.428113	0	1	0	0	CorrectCommission	0.455772	0.430243	1	0	1.391176e+01
342.946960	1.319703	mountain	8	0	0.000000	1.575097	1	0	0	0	CorrectOmission	0.871237	0.445936	1	0	1.411765e+01
344.246521	1.279439	city	9	1	1.552002	1.552002	0	1	0	0	CorrectCommission	0.805955	0.462435	1	0	1.432353e+01
345.539368	1.306230	city	8	1	1.160946	1.160946	0	1	0	0	CorrectCommission	0.299405	0.479964	1	0	1.452941e+01
346.832275	1.279629	city	9	1	1.313445	1.313445	0	1	0	0	CorrectCommission	0.131649	0.498663	1	0	1.473529e+01
348.118591	1.292996	city	3	1	1.359574	1.359574	0	1	0	0	CorrectCommission	0.262036	0.518472	1	0	1.494118e+01
349.424713	1.319260	city	9	1	1.265836	1.265836	0	1	0	0	CorrectCommission	0.002923	0.538961	1	0	1.514706e+01
350.730988	1.293257	city	6	1	1.454849	1.454849	0	1	0	0	CorrectCommission	0.531343	0.559289	1	0	1.535294e+01
352.030731	1.306225	city	1	1	1.722107	1.722107	0	1	0	0	CorrectCommission	1.286775	0.578229	1	0	1.555882e+01
353.330292	1.292893	city	7	1	1.540927	1.540927	0	1	0	0	CorrectCommission	0.774651	0.594300	1	0	1.576471e+01
354.623138	1.292785	city	8	1	1.251153	1.251153	0	1	0	0	CorrectCommission	0.044427	0.605999	1	0	1.597059e+01
355.922668	1.306298	city	6	1	0.994208	0.994208	0	1	0	0	CorrectCommission	0.770708	0.612043	1	0	1.617647e+01
357.228912	1.306195	city	10	1	0.908555	0.908555	0	1	0	0	CorrectCommission	1.012817	0.611562	1	0	1.638235e+01
358.521851	1.279677	city	1	1	0.835393	0.835393	0	1	0	0	CorrectCommission	1.219617	0.604335	1	0	1.658824e+01
359.808136	1.292916	city	3	1	1.026301	1.026301	0	1	0	0	CorrectCommission	0.679994	0.590878	1	0	1.679412e+01
360.454590	11.955926	break	0	1	0.901332	0.901332	0	0	0	0	ThoughtProbe	1.033232	0.572472	1	17	17
373.050385	1.279703	city	4	1	1.528002	1.528002	0	1	0	0	CorrectCommission	0.738116	0.550998	1	0	1.725000e+01
374.343231	1.306019	city	9	1	1.280109	1.280109	0	1	0	0	CorrectCommission	0.037422	0.528802	1	0	1.750000e+01
375.636169	1.279816	city	2	1	1.327123	1.327123	0	1	0	0	CorrectCommission	0.170310	0.508382	1	0	1.775000e+01
376.935852	1.319588	city	7	1	1.232105	1.232105	0	1	0	0	CorrectCommission	0.098268	0.492149	1	0	18
378.235352	1.279420	city	10	1	1.366155	1.366155	0	1	0	0	CorrectCommission	0.280639	0.482191	1	0	1.825000e+01
379.521606	1.293049	city	1	1	1.368795	1.368795	0	1	0	0	CorrectCommission	0.288101	0.480112	1	0	1.850000e+01
380.834564	1.332867	city	3	1	1.419897	1.419897	0	1	0	0	CorrectCommission	0.432546	0.486947	1	0	1.875000e+01
382.147400	1.292802	city	10	1	1.230945	1.230945	0	1	0	0	CorrectCommission	0.101547	0.503129	1	0	19
383.433655	1.279716	city	9	1	1.650587	1.650587	0	1	0	0	CorrectCommission	1.084616	0.528557	1	0	1.925000e+01
384.719971	1.292896	city	7	1	1.473945	1.473945	0	1	0	0	CorrectCommission	0.585318	0.562611	1	0	1.950000e+01
386.006195	1.279596	city	3	1	1.155350	1.155350	0	1	0	0	CorrectCommission	0.315223	0.604223	1	0	1.975000e+01
387.299133	1.306235	city	4	1	1.100627	1.100627	0	1	0	0	CorrectCommission	0.469905	0.651889	1	0	20
388.591980	1.279456	mountain	3	1	1.366912	1.366912	0	0	1	0	CommissionError	0.282780	0.703727	1	0	2.025000e+01
389.871460	1.279532	mountain	9	0	0.000000	1.167425	1	0	0	0	CorrectOmission	0.281093	0.757570	1	0	2.050000e+01
391.151031	1.279591	city	1	1	0.889205	0.889205	0	1	0	0	CorrectCommission	1.067510	0.811031	1	0	2.075000e+01
392.430664	1.279705	city	7	1	0.919296	0.919296	0	1	0	0	CorrectCommission	0.982456	0.861687	0	0	21
393.710327	1.279621	city	3	1	0.781458	0.781458	0	1	0	0	CorrectCommission	1.372069	0.907298	0	0	2.125000e+01
395.003235	1.306215	city	2	1	0.869279	0.869279	0	1	0	0	CorrectCommission	1.123833	0.945981	0	0	2.150000e+01
396.302795	1.292860	city	4	1	0.687356	0.687356	0	1	0	0	CorrectCommission	1.638059	0.976374	0	0	2.175000e+01
397.595642	1.292854	city	8	1	1.625581	1.625581	0	1	0	0	CorrectCommission	1.013934	0.997742	0	0	22
398.901917	1.319683	city	6	1	1.897636	1.897636	0	1	0	0	CorrectCommission	1.782926	1.010029	0	0	2.225000e+01
400.214874	1.306230	city	5	1	1.253977	1.253977	0	1	0	0	CorrectCommission	0.036445	1.013733	0	0	2.250000e+01
401.514374	1.292756	city	3	1	0.847526	0.847526	0	1	0	0	CorrectCommission	1.185321	1.009836	0	0	2.275000e+01
402.807251	1.293044	city	4	1	0.738813	0.738813	0	1	0	0	CorrectCommission	1.492610	0.999527	0	0	23
404.093567	1.279566	city	2	1	1.636791	1.636791	0	1	0	0	CorrectCommission	1.045622	0.984058	0	0	2.325000e+01
405.379730	1.292792	city	1	1	1.542479	1.542479	0	1	0	0	CorrectCommission	0.779038	0.964570	0	0	2.350000e+01
406.672668	1.293037	city	4	0	0.000000	1.203985	0	0	0	1	OmissionError	0.177751	0.941948	0	0	2.375000e+01
407.965637	1.292945	city	8	1	0.835499	0.835499	0	1	0	0	CorrectCommission	1.219317	0.916763	0	0	24
409.271881	1.319512	mountain	3	1	0.651210	0.651210	0	0	1	0	CommissionError	1.740230	0.889249	0	0	2.425000e+01
410.571381	1.279498	city	2	1	1.576958	1.576958	0	1	0	0	CorrectCommission	0.876498	0.859408	0	0	2.450000e+01
411.870911	1.319546	city	10	1	1.199592	1.199592	0	1	0	0	CorrectCommission	0.190168	0.827136	0	0	2.475000e+01
413.183777	1.306201	city	6	1	1.159809	1.159809	0	1	0	0	CorrectCommission	0.302620	0.792322	1	0	25
414.476746	1.279742	city	10	1	0.701944	0.701944	0	1	0	0	CorrectCommission	1.596823	0.755002	1	0	2.525000e+01
415.763092	1.292928	city	4	1	1.566541	1.566541	0	1	0	0	CorrectCommission	0.847052	0.715477	1	0	2.550000e+01
417.062592	1.306086	city	3	1	1.566974	1.566974	0	1	0	0	CorrectCommission	0.848276	0.674452	1	0	2.575000e+01
418.362183	1.293071	city	7	0	0.000000	1.108584	0	0	0	1	OmissionError	0.447414	0.633037	1	0	26
419.668457	1.319535	city	3	1	0.808532	0.808532	0	1	0	0	CorrectCommission	1.295542	0.592670	1	0	2.625000e+01
420.968048	1.279593	city	1	1	1.283983	1.283983	0	1	0	0	CorrectCommission	0.048371	0.555019	1	0	2.650000e+01
422.254272	1.292877	city	8	0	0.000000	1.381330	0	0	0	1	OmissionError	0.323532	0.521836	1	0	2.675000e+01
422.900696	11.596229	break	0	0	0.000000	1.281439	0	0	0	0	ThoughtProbe	0.041181	0.494687	1	27	27
435.156708	1.319556	city	9	1	1.165178	1.165178	0	1	0	0	CorrectCommission	0.287443	0.474804	1	0	2.632353e+01
436.476227	1.319486	city	4	1	1.213413	1.213413	0	1	0	0	CorrectCommission	0.151101	0.462913	1	0	2.564706e+01
437.775757	1.279537	mountain	1	0	0.000000	1.134020	1	0	0	0	CorrectOmission	0.375514	0.459171	1	0	2.497059e+01
439.061951	1.292849	city	5	1	1.059989	1.059989	0	1	0	0	CorrectCommission	0.584772	0.463201	1	0	2.429412e+01
440.348236	1.279750	city	9	1	1.124310	1.124310	0	1	0	0	CorrectCommission	0.402962	0.474095	1	0	2.361765e+01
441.627899	1.279573	city	7	1	1.098910	1.098910	0	1	0	0	CorrectCommission	0.474756	0.490594	1	0	2.294118e+01
442.927429	1.319454	city	2	1	1.247647	1.247647	0	1	0	0	CorrectCommission	0.054336	0.511272	1	0	2.226471e+01
444.226990	1.279704	city	10	1	1.359704	1.359704	0	1	0	0	CorrectCommission	0.262406	0.534710	1	0	2.158824e+01
445.553192	1.372700	city	3	1	1.487135	1.487135	0	1	0	0	CorrectCommission	0.622602	0.559701	1	0	2.091176e+01
446.886017	1.292965	city	4	1	1.920668	1.920668	0	1	0	0	CorrectCommission	1.848029	0.585336	1	0	2.023529e+01
448.199005	1.333005	city	5	1	1.514361	1.514361	0	1	0	0	CorrectCommission	0.699560	0.611073	1	0	1.955882e+01
449.525238	1.319414	city	4	1	1.403442	1.403442	0	1	0	0	CorrectCommission	0.386036	0.636768	1	0	1.888235e+01
450.831329	1.292812	city	8	1	1.080205	1.080205	0	1	0	0	CorrectCommission	0.527629	0.662516	1	0	1.820588e+01
452.144257	1.333039	mountain	9	1	1.267069	1.267069	0	0	1	0	CommissionError	0.000562	0.688517	1	0	1.752941e+01
453.457214	1.292854	city	6	1	1.648022	1.648022	0	1	0	0	CorrectCommission	1.077366	0.714916	1	0	1.685294e+01
454.756836	1.306394	city	2	1	1.247071	1.247071	0	1	0	0	CorrectCommission	0.055964	0.741625	1	0	1.617647e+01
456.049744	1.279430	city	6	0	0.000000	0.840455	0	0	0	1	OmissionError	1.205307	0.768293	1	0	1.550000e+01
457.335907	1.292917	city	9	1	0.793893	0.793893	0	1	0	0	CorrectCommission	1.336922	0.794246	1	0	1.482353e+01
458.622223	1.279723	city	6	1	1.473100	1.473100	0	1	0	0	CorrectCommission	0.582930	0.818591	0	0	1.414706e+01
459.921814	1.319416	city	5	0	0.000000	1.540276	0	0	0	1	OmissionError	0.772812	0.840330	0	0	1.347059e+01
461.248047	1.333055	city	2	1	1.245912	1.245912	0	1	0	0	CorrectCommission	0.059241	0.858504	0	0	1.279412e+01
462.561005	1.292877	city	10	1	0.840496	0.840496	0	1	0	0	CorrectCommission	1.205192	0.872398	0	0	1.211765e+01
463.867188	1.319451	city	8	1	2.065041	2.065041	0	1	0	0	CorrectCommission	2.256115	0.881636	0	0	1.144118e+01
465.200012	1.346247	city	1	0	0.000000	1.674807	0	0	0	1	OmissionError	1.153078	0.886290	0	0	1.076471e+01
466.526276	1.306236	city	6	1	1.055864	1.055864	0	1	0	0	CorrectCommission	0.596432	0.886961	0	0	1.008824e+01
467.839172	1.319612	city	5	1	1.594280	1.594280	0	1	0	0	CorrectCommission	0.925458	0.884619	0	0	9.411765e+00
469.192047	1.386109	city	3	1	1.275942	1.275942	0	1	0	0	CorrectCommission	0.025643	0.880473	0	0	8.735294e+00
470.531586	1.292938	city	6	1	1.730519	1.730519	0	1	0	0	CorrectCommission	1.310552	0.875828	0	0	8.058824e+00
471.824585	1.293066	city	3	1	1.538213	1.538213	0	1	0	0	CorrectCommission	0.766981	0.871845	0	0	7.382353e+00
473.130890	1.319561	city	2	1	1.740922	1.740922	0	1	0	0	CorrectCommission	1.339958	0.869437	0	0	6.705882e+00
474.450439	1.319569	city	7	1	1.392042	1.392042	0	1	0	0	CorrectCommission	0.353812	0.869113	0	0	6.029412e+00
475.809998	1.399532	city	9	1	1.231607	1.231607	0	1	0	0	CorrectCommission	0.099675	0.870971	0	0	5.352941e+00
477.149567	1.279588	city	1	1	0.977133	0.977133	0	1	0	0	CorrectCommission	0.818974	0.874714	0	0	4.676471e+00
477.789368	11.089517	break	0	1	0.662667	0.662667	0	0	0	0	ThoughtProbe	1.707845	0.879694	0	4	4
489.518738	1.279736	mountain	2	0	0.000000	0.878163	1	0	0	0	CorrectOmission	1.098722	0.885030	0	0	4.775000e+00
490.805054	1.292903	city	5	1	1.303297	1.303297	0	1	0	0	CorrectCommission	0.102964	0.889749	0	0	5.550000e+00
492.104553	1.306089	city	3	1	1.617744	1.617744	0	1	0	0	CorrectCommission	0.991782	0.892835	0	0	6.325000e+00
493.410797	1.306373	city	1	1	2.153484	2.153484	0	1	0	0	CorrectCommission	2.506109	0.893279	0	0	7.100000e+00
494.710358	1.292755	city	8	1	1.135587	1.135587	0	1	0	0	CorrectCommission	0.371087	0.890088	0	0	7.875000e+00
495.996582	1.279730	city	1	1	1.136786	1.136786	0	1	0	0	CorrectCommission	0.367698	0.882405	0	0	8.650000e+00
497.296234	1.319560	city	2	1	1.390030	1.390030	0	1	0	0	CorrectCommission	0.348125	0.869451	0	0	9.425000e+00
498.615814	1.319594	mountain	5	1	1.514279	1.514279	0	0	1	0	CommissionError	0.699326	0.850611	0	0	1.020000e+01
499.935333	1.319419	city	7	1	1.508797	1.508797	0	1	0	0	CorrectCommission	0.683831	0.825539	0	0	1.097500e+01
501.234924	1.279764	city	10	1	2.048099	2.048099	0	1	0	0	CorrectCommission	2.208227	0.794305	1	0	1.175000e+01
502.547852	1.346089	city	4	1	1.820332	1.820332	0	1	0	0	CorrectCommission	1.564418	0.757425	1	0	1.252500e+01
503.873962	1.306172	city	6	1	1.560787	1.560787	0	1	0	0	CorrectCommission	0.830789	0.716042	1	0	1.330000e+01
505.193573	1.333022	city	4	1	1.397255	1.397255	0	1	0	0	CorrectCommission	0.368546	0.671823	1	0	1.407500e+01
506.506531	1.292913	city	2	1	1.079461	1.079461	0	1	0	0	CorrectCommission	0.529731	0.626787	1	0	1.485000e+01
507.799408	1.292800	city	8	1	1.215972	1.215972	0	1	0	0	CorrectCommission	0.143868	0.583114	1	0	1.562500e+01
509.092224	1.292886	city	4	1	1.304617	1.304617	0	1	0	0	CorrectCommission	0.106696	0.542876	1	0	1.640000e+01
510.431763	1.386187	city	3	1	1.181634	1.181634	0	1	0	0	CorrectCommission	0.240929	0.507863	1	0	1.717500e+01
511.784668	1.319570	city	2	1	1.109124	1.109124	0	1	0	0	CorrectCommission	0.445886	0.479367	1	0	1.795000e+01
513.104248	1.319591	city	5	1	1.322331	1.322331	0	1	0	0	CorrectCommission	0.156767	0.458140	1	0	1.872500e+01
514.417236	1.306382	city	3	1	1.482365	1.482365	0	1	0	0	CorrectCommission	0.609119	0.444467	1	0	1.950000e+01
515.723511	1.306207	city	5	1	1.407965	1.407965	0	1	0	0	CorrectCommission	0.398819	0.438202	1	0	2.027500e+01
517.023071	1.292932	city	7	1	1.459840	1.459840	0	1	0	0	CorrectCommission	0.545450	0.438925	1	0	2.105000e+01
518.329346	1.319561	city	8	1	1.515024	1.515024	0	1	0	0	CorrectCommission	0.701433	0.446067	1	0	2.182500e+01
519.655579	1.332888	city	3	1	1.277104	1.277104	0	1	0	0	CorrectCommission	0.028927	0.458966	1	0	2.260000e+01
520.974976	1.306015	city	8	1	1.281562	1.281562	0	1	0	0	CorrectCommission	0.041528	0.476889	1	0	2.337500e+01
522.267883	1.279782	city	3	1	1.497802	1.497802	0	1	0	0	CorrectCommission	0.652754	0.498978	1	0	2.415000e+01
523.560913	1.306288	city	1	1	1.537525	1.537525	0	1	0	0	CorrectCommission	0.765036	0.524196	1	0	2.492500e+01
524.893860	1.359495	city	2	1	1.258229	1.258229	0	1	0	0	CorrectCommission	0.024424	0.551220	1	0	2.570000e+01
526.213379	1.279543	city	3	1	1.612061	1.612061	0	1	0	0	CorrectCommission	0.975718	0.578374	1	0	2.647500e+01
527.506165	1.306105	city	1	1	1.201010	1.201010	0	1	0	0	CorrectCommission	0.186162	0.603549	1	0	2.725000e+01
528.812439	1.306372	mountain	1	0	0.000000	0.958294	1	0	0	0	CorrectOmission	0.872224	0.624342	1	0	2.802500e+01
530.138672	1.346189	city	7	1	0.901962	0.901962	0	1	0	0	CorrectCommission	1.031450	0.638060	1	0	2.880000e+01
531.464905	1.306205	city	9	1	1.050066	1.050066	0	1	0	0	CorrectCommission	0.612821	0.642059	1	0	2.957500e+01
532.757751	1.279575	city	5	1	1.307699	1.307699	0	1	0	0	CorrectCommission	0.115406	0.634001	1	0	3.035000e+01
534.050781	1.306379	city	10	1	1.405603	1.405603	0	1	0	0	CorrectCommission	0.392144	0.612214	1	0	3.112500e+01
535.377075	1.346221	city	6	1	2.074989	2.074989	0	1	0	0	CorrectCommission	2.284235	0.576001	1	0	3.190000e+01
536.703308	1.306259	city	10	0	0.000000	1.892639	0	0	0	1	OmissionError	1.768802	0.525878	1	0	3.267500e+01
538.002808	1.292723	city	1	0	0.000000	1.350502	0	0	0	1	OmissionError	0.236395	0.463744	1	0	3.345000e+01
539.309021	1.319726	city	8	1	0.940531	0.940531	0	1	0	0	CorrectCommission	0.922433	0.392785	1	0	3.422500e+01
539.968872	12.115959	break	0	0	1.154676	1.154676	0	0	0	0	ThoughtProbe	0.317130	0.317130	1	35	35
