onset	duration	trial_type	image_type	Press	ReactionTime	ReactionTime_Interpolated	CorrectOmission	CorrectCommission	CommissionError	OmissionError	response_type	nonsmoothVarianceTimeCourse	VarianceTimeCourse	In_the_Zone	ThoughtProbe	ThoughtProbe_Interpolated
0.659880	1.292925	city	10	1	1.567982	1.567982	0	1	0	0	CorrectCommission	1.772311	1.772311	0	0	67
1.946047	1.279411	city	4	1	1.382113	1.382113	0	1	0	0	CorrectCommission	0.972756	1.597018	0	0	67
3.232292	1.293077	city	7	1	1.244474	1.244474	0	1	0	0	CorrectCommission	0.380673	1.427613	0	0	67
4.518562	1.279464	mountain	7	0	0.000000	1.217049	1	0	0	0	CorrectOmission	0.262696	1.269296	0	0	67
5.798131	1.279673	city	5	1	1.234011	1.234011	0	1	0	0	CorrectCommission	0.335665	1.126061	0	0	67
7.077765	1.279595	city	10	1	1.229537	1.229537	0	1	0	0	CorrectCommission	0.316419	1.000349	0	0	67
8.357347	1.279569	city	4	1	1.394249	1.394249	0	1	0	0	CorrectCommission	1.024963	0.893015	0	0	67
9.636912	1.279563	city	7	1	1.394376	1.394376	0	1	0	0	CorrectCommission	1.025509	0.803527	0	0	67
10.916444	1.279499	city	4	1	1.284031	1.284031	0	1	0	0	CorrectCommission	0.550836	0.730350	1	0	67
12.196035	1.279684	city	5	1	1.335008	1.335008	0	1	0	0	CorrectCommission	0.770124	0.671420	1	0	67
13.482245	1.292737	city	9	1	1.354593	1.354593	0	1	0	0	CorrectCommission	0.854374	0.624523	1	0	67
14.768487	1.279745	mountain	1	0	0.000000	1.273664	1	0	0	0	CorrectOmission	0.506238	0.587658	1	0	67
16.048071	1.279423	city	3	1	1.124174	1.124174	0	1	0	0	CorrectCommission	0.136824	0.559232	1	0	67
17.334318	1.293072	city	7	1	0.938079	0.938079	0	1	0	0	CorrectCommission	0.937354	0.538081	1	0	67
18.620630	1.279552	city	6	1	1.125385	1.125385	0	1	0	0	CorrectCommission	0.131617	0.523354	1	0	67
19.900162	1.279512	city	2	1	1.071560	1.071560	0	1	0	0	CorrectCommission	0.363154	0.514431	1	0	67
21.179750	1.279665	city	1	1	1.127102	1.127102	0	1	0	0	CorrectCommission	0.124228	0.510706	1	0	67
22.459370	1.279574	city	7	1	1.128055	1.128055	0	1	0	0	CorrectCommission	0.120128	0.511478	1	0	67
23.738937	1.279559	city	8	1	0.969678	0.969678	0	1	0	0	CorrectCommission	0.801423	0.515893	1	0	67
25.025139	1.292844	mountain	1	1	1.018449	1.018449	0	0	1	0	CommissionError	0.591624	0.522932	1	0	67
26.311386	1.279651	city	4	1	1.284218	1.284218	0	1	0	0	CorrectCommission	0.551642	0.531531	1	0	67
27.591017	1.279610	city	2	1	1.341678	1.341678	0	1	0	0	CorrectCommission	0.798818	0.540691	1	0	67
28.870596	1.279549	city	1	1	1.229154	1.229154	0	1	0	0	CorrectCommission	0.314772	0.549603	1	0	67
30.150122	1.279505	city	6	1	1.404855	1.404855	0	1	0	0	CorrectCommission	1.070587	0.557756	1	0	67
31.429701	1.279652	city	8	1	1.342410	1.342410	0	1	0	0	CorrectCommission	0.801966	0.564930	1	0	67
32.709263	1.279470	city	4	1	1.200334	1.200334	0	1	0	0	CorrectCommission	0.190792	0.571200	1	0	67
33.988846	1.279702	city	6	1	1.232090	1.232090	0	1	0	0	CorrectCommission	0.327399	0.576872	1	0	67
35.268482	1.279567	city	7	1	1.294552	1.294552	0	1	0	0	CorrectCommission	0.596095	0.582378	1	0	67
36.548065	1.279601	city	8	1	1.284232	1.284232	0	1	0	0	CorrectCommission	0.551699	0.588148	1	0	67
37.827606	1.279482	city	7	1	1.309351	1.309351	0	1	0	0	CorrectCommission	0.659754	0.594561	1	0	67
39.107185	1.279675	city	2	1	1.289611	1.289611	0	1	0	0	CorrectCommission	0.574838	0.601915	1	0	67
40.386730	1.279416	city	7	1	1.345552	1.345552	0	1	0	0	CorrectCommission	0.815483	0.610410	1	0	67
41.666267	1.279659	city	3	1	1.337252	1.337252	0	1	0	0	CorrectCommission	0.779778	0.620155	1	0	67
42.945927	1.279658	city	8	1	1.197654	1.197654	0	1	0	0	CorrectCommission	0.179267	0.631212	1	0	67
44.225548	1.279580	city	2	1	1.195957	1.195957	0	1	0	0	CorrectCommission	0.171966	0.643683	1	0	67
45.505112	1.279547	city	3	1	1.284936	1.284936	0	1	0	0	CorrectCommission	0.554729	0.657655	1	0	67
46.784691	1.279612	mountain	3	0	0.000000	1.439522	1	0	0	0	CorrectOmission	1.219714	0.673297	1	0	67
48.064285	1.279580	city	1	1	1.506729	1.506729	0	1	0	0	CorrectCommission	1.508818	0.690801	1	0	67
49.350483	1.292813	city	3	1	1.333570	1.333570	0	1	0	0	CorrectCommission	0.763938	0.710354	1	0	67
50.650055	1.306330	city	10	1	1.198548	1.198548	0	1	0	0	CorrectCommission	0.183111	0.732040	1	0	67
51.943001	1.279562	city	3	1	1.147587	1.147587	0	1	0	0	CorrectCommission	0.036110	0.755726	1	0	67
53.222569	1.279579	city	7	1	1.023227	1.023227	0	1	0	0	CorrectCommission	0.571069	0.781001	0	0	67
54.502087	1.279456	city	3	1	0.977148	0.977148	0	1	0	0	CorrectCommission	0.769287	0.807160	0	0	67
55.781666	1.279701	city	10	1	0.925132	0.925132	0	1	0	0	CorrectCommission	0.993047	0.833288	0	0	67
57.061314	1.279597	city	8	1	1.081311	1.081311	0	1	0	0	CorrectCommission	0.321211	0.858384	0	0	67
57.701115	10.863075	break	0	0	0.000000	1.472405	0	0	0	0	ThoughtProbe	1.361168	0.881551	0	67	67
69.203979	1.279577	city	5	1	1.719500	1.719500	0	1	0	0	CorrectCommission	2.424102	0.902118	0	0	6.715000e+01
70.483498	1.279469	city	7	1	1.443681	1.443681	0	1	0	0	CorrectCommission	1.237603	0.919773	0	0	6.730000e+01
71.763046	1.279624	city	8	1	1.142674	1.142674	0	1	0	0	CorrectCommission	0.057242	0.934595	0	0	6.745000e+01
73.042679	1.279635	city	3	1	1.018272	1.018272	0	1	0	0	CorrectCommission	0.592387	0.946946	0	0	6.760000e+01
74.322296	1.279607	city	9	1	0.918117	0.918117	0	1	0	0	CorrectCommission	1.023223	0.957243	0	0	6.775000e+01
75.608543	1.292887	city	3	1	0.895042	0.895042	0	1	0	0	CorrectCommission	1.122484	0.965856	0	0	6.790000e+01
76.894775	1.279578	city	2	1	1.017295	1.017295	0	1	0	0	CorrectCommission	0.596586	0.972960	0	0	6.805000e+01
78.174355	1.279585	city	5	1	0.813016	0.813016	0	1	0	0	CorrectCommission	1.475340	0.978482	0	0	6.820000e+01
79.460609	1.292925	city	2	1	1.151350	1.151350	0	1	0	0	CorrectCommission	0.019923	0.982077	0	0	6.835000e+01
80.746841	1.279530	mountain	8	0	0.000000	1.374244	1	0	0	0	CorrectOmission	0.938905	0.983362	0	0	6.850000e+01
82.026352	1.279495	mountain	10	1	1.515731	1.515731	0	0	1	0	CommissionError	1.547546	0.981985	0	0	6.865000e+01
83.305946	1.279685	city	3	1	1.609846	1.609846	0	1	0	0	CorrectCommission	1.952400	0.977852	0	0	6.880000e+01
84.585587	1.279609	city	9	1	1.400389	1.400389	0	1	0	0	CorrectCommission	1.051374	0.971253	0	0	6.895000e+01
85.871803	1.292813	city	3	1	1.361419	1.361419	0	1	0	0	CorrectCommission	0.883739	0.962898	0	0	6.910000e+01
87.158043	1.279672	city	5	1	1.337762	1.337762	0	1	0	0	CorrectCommission	0.781969	0.953778	0	0	6.925000e+01
88.437660	1.279560	city	6	1	1.388691	1.388691	0	1	0	0	CorrectCommission	1.001056	0.944981	0	0	6.940000e+01
89.717201	1.279516	city	1	1	1.458682	1.458682	0	1	0	0	CorrectCommission	1.302135	0.937430	0	0	6.955000e+01
91.016777	1.319647	city	8	1	1.160879	1.160879	0	1	0	0	CorrectCommission	0.021072	0.931595	0	0	6.970000e+01
92.316368	1.279525	city	6	1	1.091442	1.091442	0	1	0	0	CorrectCommission	0.277628	0.927365	0	0	6.985000e+01
93.602600	1.292946	city	1	1	1.044926	1.044926	0	1	0	0	CorrectCommission	0.477726	0.923931	0	0	70
94.888863	1.279576	city	3	1	0.928957	0.928957	0	1	0	0	CorrectCommission	0.976595	0.919951	0	0	7.015000e+01
96.168449	1.279596	city	1	1	0.916446	0.916446	0	1	0	0	CorrectCommission	1.030413	0.913807	0	0	7.030000e+01
97.448029	1.279563	city	9	1	0.605516	0.605516	0	1	0	0	CorrectCommission	2.367947	0.903949	0	0	7.045000e+01
98.727516	1.279420	mountain	3	0	0.000000	0.997768	1	0	0	0	CorrectOmission	0.680587	0.889255	0	0	7.060000e+01
100.007027	1.279598	city	6	1	1.476283	1.476283	0	1	0	0	CorrectCommission	1.377849	0.869404	0	0	7.075000e+01
101.293350	1.293046	city	1	1	1.424140	1.424140	0	1	0	0	CorrectCommission	1.153544	0.844864	0	0	7.090000e+01
102.579651	1.279565	city	6	1	1.512708	1.512708	0	1	0	0	CorrectCommission	1.534538	0.816897	0	0	7.105000e+01
103.859238	1.279605	city	5	1	1.178360	1.178360	0	1	0	0	CorrectCommission	0.096269	0.787301	0	0	7.120000e+01
105.138756	1.279428	city	1	1	1.138936	1.138936	0	1	0	0	CorrectCommission	0.073321	0.758147	1	0	7.135000e+01
106.424942	1.292944	city	4	1	1.210514	1.210514	0	1	0	0	CorrectCommission	0.234585	0.731313	1	0	7.150000e+01
107.711258	1.279681	city	2	1	1.130372	1.130372	0	1	0	0	CorrectCommission	0.110161	0.708221	1	0	7.165000e+01
108.990898	1.279604	city	3	1	0.931251	0.931251	0	1	0	0	CorrectCommission	0.966723	0.689635	1	0	7.180000e+01
110.270477	1.279557	city	7	1	0.863292	0.863292	0	1	0	0	CorrectCommission	1.259067	0.675591	1	0	7.195000e+01
111.550041	1.279575	city	1	1	1.082822	1.082822	0	1	0	0	CorrectCommission	0.314711	0.665529	1	0	7.210000e+01
112.829590	1.279511	city	2	1	1.146985	1.146985	0	1	0	0	CorrectCommission	0.038698	0.658526	1	0	7.225000e+01
114.109169	1.279660	city	8	1	0.868551	0.868551	0	1	0	0	CorrectCommission	1.236442	0.653506	1	0	7.240000e+01
115.395447	1.292896	city	2	1	0.977943	0.977943	0	1	0	0	CorrectCommission	0.765871	0.649480	1	0	7.255000e+01
116.681702	1.279609	city	6	1	0.870222	0.870222	0	1	0	0	CorrectCommission	1.229253	0.645794	1	0	7.270000e+01
117.961281	1.279553	city	10	1	0.969306	0.969306	0	1	0	0	CorrectCommission	0.803024	0.642179	1	0	7.285000e+01
118.601059	12.555883	break	0	1	1.137098	1.137098	0	0	0	0	ThoughtProbe	0.081227	0.638837	1	73	73
131.796661	1.279423	city	9	1	1.318517	1.318517	0	1	0	0	CorrectCommission	0.699185	0.636327	1	0	7.317647e+01
133.082886	1.293050	city	10	1	1.065586	1.065586	0	1	0	0	CorrectCommission	0.388855	0.635427	1	0	7.335294e+01
134.369141	1.279450	city	9	1	1.089119	1.089119	0	1	0	0	CorrectCommission	0.287622	0.637070	1	0	7.352941e+01
135.648682	1.279632	city	8	1	0.969404	0.969404	0	1	0	0	CorrectCommission	0.802602	0.642225	1	0	7.370588e+01
136.928284	1.279567	city	1	1	0.965497	0.965497	0	1	0	0	CorrectCommission	0.819407	0.651792	1	0	7.388235e+01
138.214523	1.292905	city	10	1	1.257697	1.257697	0	1	0	0	CorrectCommission	0.437553	0.666604	1	0	7.405882e+01
139.507477	1.293005	city	3	1	1.187779	1.187779	0	1	0	0	CorrectCommission	0.136786	0.687350	1	0	7.423529e+01
140.793732	1.279501	mountain	2	0	0.000000	1.381289	1	0	0	0	CorrectOmission	0.969213	0.714523	1	0	7.441176e+01
142.073349	1.279746	city	5	1	1.507681	1.507681	0	1	0	0	CorrectCommission	1.512915	0.748282	1	0	7.458824e+01
143.352966	1.279483	city	1	1	1.236407	1.236407	0	1	0	0	CorrectCommission	0.345973	0.788360	0	0	7.476471e+01
144.632492	1.279587	mountain	10	1	1.304115	1.304115	0	0	1	0	CommissionError	0.637231	0.833895	0	0	7.494118e+01
145.912003	1.279424	city	2	1	1.075736	1.075736	0	1	0	0	CorrectCommission	0.345189	0.883265	0	0	7.511765e+01
147.191589	1.279741	city	10	1	0.989805	0.989805	0	1	0	0	CorrectCommission	0.714843	0.934037	0	0	7.529412e+01
148.471176	1.279434	city	1	1	0.984634	0.984634	0	1	0	0	CorrectCommission	0.737087	0.983021	0	0	7.547059e+01
149.750748	1.279727	city	9	1	0.984529	0.984529	0	1	0	0	CorrectCommission	0.737536	1.026491	0	0	7.564706e+01
151.030411	1.279575	city	5	1	0.918694	0.918694	0	1	0	0	CorrectCommission	1.020741	1.060610	0	0	7.582353e+01
152.316666	1.292947	city	6	1	0.812056	0.812056	0	1	0	0	CorrectCommission	1.479467	1.081911	0	0	76
153.602829	1.279387	city	1	1	0.698418	0.698418	0	1	0	0	CorrectCommission	1.968306	1.087844	0	0	7.617647e+01
154.882309	1.279564	city	2	1	0.490287	0.490287	0	1	0	0	CorrectCommission	2.863628	1.077235	0	0	7.635294e+01
156.161957	1.279731	city	10	1	0.596516	0.596516	0	1	0	0	CorrectCommission	2.406661	1.050541	0	0	7.652941e+01
157.441605	1.279573	city	2	1	0.972790	0.972790	0	1	0	0	CorrectCommission	0.788035	1.009920	0	0	7.670588e+01
158.721207	1.279609	city	1	1	1.033723	1.033723	0	1	0	0	CorrectCommission	0.525918	0.958965	0	0	7.688235e+01
160.000702	1.279389	city	2	1	1.247859	1.247859	0	1	0	0	CorrectCommission	0.395233	0.902142	0	0	7.705882e+01
161.280273	1.279770	city	1	1	1.026559	1.026559	0	1	0	0	CorrectCommission	0.556738	0.844208	0	0	7.723529e+01
162.566681	1.293039	city	8	1	1.121884	1.121884	0	1	0	0	CorrectCommission	0.146674	0.789544	0	0	7.741176e+01
163.859634	1.292866	city	3	1	1.133744	1.133744	0	1	0	0	CorrectCommission	0.095658	0.741638	1	0	7.758824e+01
165.145813	1.279479	city	6	1	1.031768	1.031768	0	1	0	0	CorrectCommission	0.534328	0.702694	1	0	7.776471e+01
166.425323	1.279561	city	2	1	0.965124	0.965124	0	1	0	0	CorrectCommission	0.821012	0.673503	1	0	7.794118e+01
167.704895	1.279583	city	1	1	0.985451	0.985451	0	1	0	0	CorrectCommission	0.733570	0.653544	1	0	7.811765e+01
168.984406	1.279426	city	3	1	1.160468	1.160468	0	1	0	0	CorrectCommission	0.019304	0.641237	1	0	7.829412e+01
170.263992	1.279736	city	8	1	0.916215	0.916215	0	1	0	0	CorrectCommission	1.031405	0.634318	1	0	7.847059e+01
171.543640	1.279574	city	9	1	1.037456	1.037456	0	1	0	0	CorrectCommission	0.509859	0.630245	1	0	7.864706e+01
172.823242	1.279632	city	10	1	0.875868	0.875868	0	1	0	0	CorrectCommission	1.204965	0.626616	1	0	7.882353e+01
173.463058	9.783362	break	0	0	0.000000	1.090549	0	0	0	0	ThoughtProbe	0.281468	0.621459	1	79	79
183.886230	1.279610	city	6	1	1.337642	1.337642	0	1	0	0	CorrectCommission	0.781455	0.613486	1	0	7.860870e+01
185.185822	1.319566	city	3	1	1.273289	1.273289	0	1	0	0	CorrectCommission	0.504626	0.602154	1	0	7.821739e+01
186.485382	1.279586	city	2	1	1.570343	1.570343	0	1	0	0	CorrectCommission	1.782468	0.587675	1	0	7.782609e+01
187.771637	1.292908	city	10	1	1.011076	1.011076	0	1	0	0	CorrectCommission	0.623339	0.570811	1	0	7.743478e+01
189.071213	1.306233	city	7	1	1.147793	1.147793	0	1	0	0	CorrectCommission	0.035224	0.552771	1	0	7.704348e+01
190.364075	1.279490	mountain	9	0	0.000000	1.198303	1	0	0	0	CorrectOmission	0.182059	0.534894	1	0	7.665217e+01
191.643585	1.279542	city	2	1	1.199424	1.199424	0	1	0	0	CorrectCommission	0.186880	0.518404	1	0	7.626087e+01
192.923218	1.279710	city	7	1	1.187971	1.187971	0	1	0	0	CorrectCommission	0.137611	0.504284	1	0	7.586957e+01
194.216110	1.306081	city	2	1	0.994065	0.994065	0	1	0	0	CorrectCommission	0.696515	0.493179	1	0	7.547826e+01
195.509018	1.279748	mountain	3	0	0.000000	1.188121	1	0	0	0	CorrectOmission	0.138257	0.485362	1	0	7.508696e+01
196.788681	1.279559	city	6	1	1.415561	1.415561	0	1	0	0	CorrectCommission	1.116639	0.480814	1	0	7.469565e+01
198.074905	1.292896	city	4	1	1.321809	1.321809	0	1	0	0	CorrectCommission	0.713344	0.479241	1	0	7.430435e+01
199.374481	1.306253	city	8	1	1.276204	1.276204	0	1	0	0	CorrectCommission	0.517166	0.480230	1	0	7.391304e+01
200.667389	1.279577	city	5	1	1.138477	1.138477	0	1	0	0	CorrectCommission	0.075296	0.483256	1	0	7.352174e+01
201.946991	1.279635	city	2	1	1.089494	1.089494	0	1	0	0	CorrectCommission	0.286007	0.487728	1	0	7.313043e+01
203.226578	1.279522	city	3	1	1.088495	1.088495	0	1	0	0	CorrectCommission	0.290307	0.493009	1	0	7.273913e+01
204.519470	1.306258	city	10	1	1.001382	1.001382	0	1	0	0	CorrectCommission	0.665040	0.498431	1	0	7.234783e+01
205.812378	1.279566	city	2	1	1.304579	1.304579	0	1	0	0	CorrectCommission	0.639227	0.503381	1	0	7.195652e+01
207.091873	1.279434	city	9	1	1.022745	1.022745	0	1	0	0	CorrectCommission	0.573144	0.507376	1	0	7.156522e+01
208.378128	1.293075	mountain	10	0	0.000000	1.136236	1	0	0	0	CorrectOmission	0.084937	0.510192	1	0	7.117391e+01
209.664413	1.279480	city	5	1	1.360933	1.360933	0	1	0	0	CorrectCommission	0.881647	0.512065	1	0	7.078261e+01
210.957245	1.306184	city	4	1	1.412717	1.412717	0	1	0	0	CorrectCommission	1.104408	0.513774	1	0	7.039130e+01
212.263519	1.306379	city	8	1	1.161228	1.161228	0	1	0	0	CorrectCommission	0.022570	0.516736	1	0	70
213.589813	1.346208	city	6	1	0.949151	0.949151	0	1	0	0	CorrectCommission	0.889725	0.523023	1	0	6.960870e+01
214.902710	1.279568	city	7	1	1.343222	1.343222	0	1	0	0	CorrectCommission	0.805458	0.535129	1	0	6.921739e+01
216.188873	1.292772	city	6	1	1.132922	1.132922	0	1	0	0	CorrectCommission	0.099191	0.555782	1	0	6.882609e+01
217.475143	1.279753	city	4	1	1.247238	1.247238	0	1	0	0	CorrectCommission	0.392563	0.587575	1	0	6.843478e+01
218.774796	1.319557	city	9	1	1.172887	1.172887	0	1	0	0	CorrectCommission	0.072724	0.632488	1	0	6.804348e+01
220.074356	1.279583	city	7	1	1.266808	1.266808	0	1	0	0	CorrectCommission	0.476747	0.691508	1	0	6.765217e+01
221.360596	1.292886	city	9	1	1.080416	1.080416	0	1	0	0	CorrectCommission	0.325057	0.764296	1	0	6.726087e+01
222.646851	1.279631	city	7	1	1.130139	1.130139	0	1	0	0	CorrectCommission	0.111163	0.849053	0	0	6.686957e+01
223.939758	1.306181	city	5	1	1.056775	1.056775	0	1	0	0	CorrectCommission	0.426754	0.942548	0	0	6.647826e+01
225.245895	1.306089	city	2	1	1.064082	1.064082	0	1	0	0	CorrectCommission	0.395323	1.040389	0	0	6.608696e+01
226.538773	1.279677	city	9	1	0.965708	0.965708	0	1	0	0	CorrectCommission	0.818503	1.137508	0	0	6.569565e+01
227.838440	1.319639	city	3	1	1.768217	1.768217	0	1	0	0	CorrectCommission	2.633668	1.228725	0	0	6.530435e+01
229.138031	1.279557	city	6	1	1.689571	1.689571	0	1	0	0	CorrectCommission	2.295354	1.309344	0	0	6.491304e+01
230.417603	1.279578	mountain	5	0	0.000000	1.816469	1	0	0	0	CorrectOmission	2.841233	1.375694	0	0	6.452174e+01
231.697144	1.279502	city	6	1	1.749511	1.749511	0	1	0	0	CorrectCommission	2.553200	1.425349	0	0	6.413043e+01
232.983398	1.293009	city	9	1	1.089298	1.089298	0	1	0	0	CorrectCommission	0.286849	1.457222	0	0	6.373913e+01
234.296295	1.332801	city	6	1	0.714067	0.714067	0	1	0	0	CorrectCommission	1.900990	1.471448	0	0	6.334783e+01
235.622528	1.319637	city	2	1	0.882862	0.882862	0	1	0	0	CorrectCommission	1.174879	1.468955	0	0	6.295652e+01
236.935455	1.306236	city	9	1	0.938770	0.938770	0	1	0	0	CorrectCommission	0.934381	1.451244	0	0	6.256522e+01
238.228348	1.279551	city	5	1	0.932135	0.932135	0	1	0	0	CorrectCommission	0.962924	1.420038	0	0	6.217391e+01
239.507950	1.279633	city	9	1	0.702930	0.702930	0	1	0	0	CorrectCommission	1.948897	1.377115	0	0	6.178261e+01
240.794205	1.292882	city	3	1	0.750379	0.750379	0	1	0	0	CorrectCommission	1.744784	1.324257	0	0	6.139130e+01
241.440643	9.063541	break	0	1	0.609673	0.609673	0	0	0	0	ThoughtProbe	2.350064	1.263330	0	61	61
251.150726	1.293074	city	1	0	0.000000	0.728316	0	0	0	1	OmissionError	1.839695	1.196315	0	0	6.112500e+01
252.443695	1.292885	mountain	2	0	0.000000	0.987176	1	0	0	0	CorrectOmission	0.726152	1.125393	0	0	6.125000e+01
253.750015	1.319745	city	5	1	1.267120	1.267120	0	1	0	0	CorrectCommission	0.478090	1.052884	0	0	6.137500e+01
255.049606	1.279427	city	9	1	1.449016	1.449016	0	1	0	0	CorrectCommission	1.260556	0.981117	0	0	6.150000e+01
256.335754	1.292905	city	8	1	1.207995	1.207995	0	1	0	0	CorrectCommission	0.223750	0.912243	0	0	6.162500e+01
257.622009	1.279576	city	5	1	0.964713	0.964713	0	1	0	0	CorrectCommission	0.822783	0.848112	0	0	6.175000e+01
258.901581	1.279560	city	9	1	1.084614	1.084614	0	1	0	0	CorrectCommission	0.307002	0.790066	0	0	6.187500e+01
260.181122	1.279555	city	2	1	1.150052	1.150052	0	1	0	0	CorrectCommission	0.025504	0.738921	1	0	6.200000e+01
261.460724	1.279614	mountain	2	0	0.000000	1.405816	1	0	0	0	CorrectOmission	1.074721	0.694961	1	0	6.212500e+01
262.740326	1.279590	city	4	1	1.481817	1.481817	0	1	0	0	CorrectCommission	1.401656	0.658042	1	0	6.225000e+01
264.033234	1.306234	city	2	1	1.007966	1.007966	0	1	0	0	CorrectCommission	0.636719	0.627731	1	0	6.237500e+01
265.326141	1.279561	city	9	1	1.138926	1.138926	0	1	0	0	CorrectCommission	0.073364	0.603490	1	0	6.250000e+01
266.605621	1.279430	city	2	1	1.037622	1.037622	0	1	0	0	CorrectCommission	0.509149	0.584774	1	0	6.262500e+01
267.885223	1.279753	city	4	1	1.304378	1.304378	0	1	0	0	CorrectCommission	0.638363	0.571107	1	0	6.275000e+01
269.171539	1.292904	city	3	1	1.212201	1.212201	0	1	0	0	CorrectCommission	0.241841	0.562203	1	0	6.287500e+01
270.464355	1.292725	city	9	1	1.038043	1.038043	0	1	0	0	CorrectCommission	0.507334	0.557923	1	0	63
271.750580	1.279745	city	5	1	0.983737	0.983737	0	1	0	0	CorrectCommission	0.740947	0.558251	1	0	6.312500e+01
273.030182	1.279411	city	6	1	1.195471	1.195471	0	1	0	0	CorrectCommission	0.169876	0.563261	1	0	6.325000e+01
274.309753	1.279767	mountain	5	0	0.000000	1.327900	1	0	0	0	CorrectOmission	0.739549	0.573067	1	0	6.337500e+01
275.589417	1.279556	city	10	1	1.356329	1.356329	0	1	0	0	CorrectCommission	0.861840	0.587668	1	0	6.350000e+01
276.868896	1.279405	city	7	1	1.256061	1.256061	0	1	0	0	CorrectCommission	0.430518	0.606931	1	0	6.362500e+01
278.148499	1.279758	city	4	1	1.250143	1.250143	0	1	0	0	CorrectCommission	0.405058	0.630498	1	0	6.375000e+01
279.428162	1.279570	city	8	1	1.107246	1.107246	0	1	0	0	CorrectCommission	0.209643	0.657706	1	0	6.387500e+01
280.707733	1.279581	city	2	1	0.969831	0.969831	0	1	0	0	CorrectCommission	0.800763	0.687596	1	0	64
282.000641	1.306237	city	9	1	0.997088	0.997088	0	1	0	0	CorrectCommission	0.683511	0.718937	1	0	6.412500e+01
283.306885	1.306278	city	6	1	0.968872	0.968872	0	1	0	0	CorrectCommission	0.804891	0.750286	1	0	6.425000e+01
284.599792	1.279542	city	7	1	1.021382	1.021382	0	1	0	0	CorrectCommission	0.579008	0.780194	1	0	6.437500e+01
285.879364	1.279579	city	9	1	1.070755	1.070755	0	1	0	0	CorrectCommission	0.366617	0.807348	0	0	6.450000e+01
287.165588	1.292901	city	3	1	0.783523	0.783523	0	1	0	0	CorrectCommission	1.602208	0.830753	0	0	6.462500e+01
288.458435	1.292774	city	2	1	1.585909	1.585909	0	1	0	0	CorrectCommission	1.849430	0.849844	0	0	6.475000e+01
289.751343	1.293064	city	10	1	1.422012	1.422012	0	1	0	0	CorrectCommission	1.144392	0.864549	0	0	6.487500e+01
291.044342	1.292903	city	2	1	1.367861	1.367861	0	1	0	0	CorrectCommission	0.911449	0.875236	0	0	65
292.330505	1.279450	city	3	1	1.132873	1.132873	0	1	0	0	CorrectCommission	0.099404	0.882555	0	0	6.512500e+01
293.610016	1.279558	city	5	1	1.042184	1.042184	0	1	0	0	CorrectCommission	0.489524	0.887274	0	0	6.525000e+01
294.896332	1.293041	city	3	1	0.920075	0.920075	0	1	0	0	CorrectCommission	1.014801	0.890008	0	0	6.537500e+01
296.202606	1.319528	city	1	1	0.950318	0.950318	0	1	0	0	CorrectCommission	0.884706	0.891093	0	0	6.550000e+01
297.508850	1.292964	city	3	1	0.925855	0.925855	0	1	0	0	CorrectCommission	0.989937	0.890519	0	0	6.562500e+01
298.795105	1.279565	city	1	1	0.866721	0.866721	0	1	0	0	CorrectCommission	1.244314	0.887907	0	0	6.575000e+01
300.074615	1.279445	city	4	1	1.036957	1.036957	0	1	0	0	CorrectCommission	0.512008	0.882641	0	0	6.587500e+01
300.714355	9.156973	break	0	0	0.000000	1.278079	0	0	0	0	ThoughtProbe	0.525233	0.874042	0	66	66
310.511200	1.279750	city	4	1	1.454346	1.454346	0	1	0	0	CorrectCommission	1.283483	0.861546	0	0	6.602941e+01
311.790833	1.279551	mountain	2	0	0.000000	1.430014	1	0	0	0	CorrectOmission	1.178814	0.844893	0	0	6.605882e+01
313.070404	1.279586	city	7	1	1.411009	1.411009	0	1	0	0	CorrectCommission	1.097061	0.824280	0	0	6.608824e+01
314.363281	1.306142	city	1	1	1.603258	1.603258	0	1	0	0	CorrectCommission	1.924059	0.800396	0	0	6.611765e+01
315.656189	1.279676	city	2	1	1.196996	1.196996	0	1	0	0	CorrectCommission	0.176437	0.774311	1	0	6.614706e+01
316.935730	1.279430	city	10	1	1.032703	1.032703	0	1	0	0	CorrectCommission	0.530308	0.747438	1	0	6.617647e+01
318.221985	1.293056	city	2	1	1.245882	1.245882	0	1	0	0	CorrectCommission	0.386729	0.721213	1	0	6.620588e+01
319.508331	1.279628	city	3	1	1.157087	1.157087	0	1	0	0	CorrectCommission	0.004756	0.696970	1	0	6.623529e+01
320.787903	1.279539	city	8	1	1.034716	1.034716	0	1	0	0	CorrectCommission	0.521646	0.675775	1	0	6.626471e+01
322.080780	1.306224	city	3	1	0.941041	0.941041	0	1	0	0	CorrectCommission	0.924609	0.658329	1	0	6.629412e+01
323.380371	1.292913	city	8	1	0.986249	0.986249	0	1	0	0	CorrectCommission	0.730138	0.644988	1	0	6.632353e+01
324.666595	1.279576	city	4	1	1.031719	1.031719	0	1	0	0	CorrectCommission	0.534540	0.635848	1	0	6.635294e+01
325.946167	1.279575	city	9	1	0.911680	0.911680	0	1	0	0	CorrectCommission	1.050914	0.630838	1	0	6.638235e+01
327.239075	1.306237	city	2	1	1.010383	1.010383	0	1	0	0	CorrectCommission	0.626320	0.629847	1	0	6.641176e+01
328.551971	1.319565	city	4	1	1.278184	1.278184	0	1	0	0	CorrectCommission	0.525682	0.632800	1	0	6.644118e+01
329.858185	1.292823	city	1	1	1.040102	1.040102	0	1	0	0	CorrectCommission	0.498477	0.639658	1	0	6.647059e+01
331.151093	1.292993	city	8	1	1.145796	1.145796	0	1	0	0	CorrectCommission	0.043812	0.650433	1	0	6.650000e+01
332.437317	1.279449	city	2	1	0.911461	0.911461	0	1	0	0	CorrectCommission	1.051855	0.665170	1	0	6.652941e+01
333.736786	1.319531	city	5	1	1.203468	1.203468	0	1	0	0	CorrectCommission	0.204274	0.683915	1	0	6.655882e+01
335.043030	1.292945	city	2	1	1.022820	1.022820	0	1	0	0	CorrectCommission	0.572822	0.706694	1	0	6.658824e+01
336.329376	1.279725	city	7	1	0.916756	0.916756	0	1	0	0	CorrectCommission	1.029078	0.733465	1	0	6.661765e+01
337.615692	1.292893	city	3	1	0.969189	0.969189	0	1	0	0	CorrectCommission	0.803525	0.764097	1	0	6.664706e+01
338.908600	1.292931	city	2	1	0.823188	0.823188	0	1	0	0	CorrectCommission	1.431583	0.798313	0	0	6.667647e+01
340.194824	1.279564	mountain	5	0	0.000000	1.167054	1	0	0	0	CorrectOmission	0.047634	0.835612	0	0	6.670588e+01
341.487671	1.306093	city	9	1	1.430026	1.430026	0	1	0	0	CorrectCommission	1.178864	0.875237	0	0	6.673529e+01
342.793915	1.306381	city	3	1	1.041339	1.041339	0	1	0	0	CorrectCommission	0.493157	0.916010	0	0	6.676471e+01
344.093567	1.292919	city	5	1	0.997671	0.997671	0	1	0	0	CorrectCommission	0.681003	0.956407	0	0	6.679412e+01
345.386444	1.292883	city	7	1	0.927957	0.927957	0	1	0	0	CorrectCommission	0.980897	0.994533	0	0	6.682353e+01
346.672607	1.279434	city	4	1	1.018200	1.018200	0	1	0	0	CorrectCommission	0.592694	1.028234	0	0	6.685294e+01
347.958893	1.293110	city	2	1	0.773376	0.773376	0	1	0	0	CorrectCommission	1.645860	1.055336	0	0	6.688235e+01
349.265198	1.319538	city	8	1	1.551638	1.551638	0	1	0	0	CorrectCommission	1.702004	1.073822	0	0	6.691176e+01
350.571411	1.292886	city	5	1	1.310348	1.310348	0	1	0	0	CorrectCommission	0.664042	1.082129	0	0	6.694118e+01
351.877655	1.319562	city	4	1	1.774678	1.774678	0	1	0	0	CorrectCommission	2.661459	1.079350	0	0	6.697059e+01
356.442719	7.810613	break	0	0	0.000000	1.594056	0	0	0	0	ThoughtProbe	1.884476	1.065259	0	67	67
361.001251	1.306402	city	3	1	1.267527	1.267527	0	1	0	0	CorrectCommission	0.479841	1.040412	0	0	6.690000e+01
362.294220	1.279563	city	5	1	1.294136	1.294136	0	1	0	0	CorrectCommission	0.594304	1.006020	0	0	6.680000e+01
363.580383	1.292767	mountain	7	1	1.166050	1.166050	0	0	1	0	CommissionError	0.043315	0.963717	0	0	6.670000e+01
364.879974	1.306382	city	2	1	1.591376	1.591376	0	1	0	0	CorrectCommission	1.872947	0.915430	0	0	6.660000e+01
366.179626	1.292924	city	3	1	1.351552	1.351552	0	1	0	0	CorrectCommission	0.841291	0.863158	0	0	6.650000e+01
367.465881	1.279584	mountain	2	0	0.000000	1.364016	1	0	0	0	CorrectOmission	0.894907	0.808894	0	0	6.640000e+01
368.745453	1.279574	city	8	1	1.340391	1.340391	0	1	0	0	CorrectCommission	0.793282	0.754505	1	0	6.630000e+01
370.031677	1.292887	city	10	1	0.992303	0.992303	0	1	0	0	CorrectCommission	0.704096	0.701675	1	0	6.620000e+01
371.317871	1.279506	city	8	1	0.996261	0.996261	0	1	0	0	CorrectCommission	0.687069	0.651879	1	0	6.610000e+01
372.597443	1.279656	city	10	1	1.203753	1.203753	0	1	0	0	CorrectCommission	0.205502	0.606358	1	0	66
373.876984	1.279415	city	3	1	1.301988	1.301988	0	1	0	0	CorrectCommission	0.628082	0.566087	1	0	6.590000e+01
375.176483	1.319573	city	1	1	1.161174	1.161174	0	1	0	0	CorrectCommission	0.022337	0.531774	1	0	6.580000e+01
376.489471	1.306409	city	6	1	1.331974	1.331974	0	1	0	0	CorrectCommission	0.757071	0.503868	1	0	6.570000e+01
377.782471	1.279558	city	3	1	1.181197	1.181197	0	1	0	0	CorrectCommission	0.108471	0.482553	1	0	6.560000e+01
379.068634	1.292776	city	4	1	1.262221	1.262221	0	1	0	0	CorrectCommission	0.457016	0.467892	1	0	6.550000e+01
380.361511	1.293001	city	7	1	1.244769	1.244769	0	1	0	0	CorrectCommission	0.381939	0.459819	1	0	6.540000e+01
381.654449	1.292884	city	1	1	1.032179	1.032179	0	1	0	0	CorrectCommission	0.532561	0.458325	1	0	6.530000e+01
382.954010	1.306230	city	8	1	1.101535	1.101535	0	1	0	0	CorrectCommission	0.234213	0.463505	1	0	6.520000e+01
384.260284	1.306312	city	6	1	1.115205	1.115205	0	1	0	0	CorrectCommission	0.175407	0.475637	1	0	6.510000e+01
385.566559	1.306236	city	8	1	0.982502	0.982502	0	1	0	0	CorrectCommission	0.746259	0.495196	1	0	65
386.866150	1.292927	city	7	1	0.929754	0.929754	0	1	0	0	CorrectCommission	0.973164	0.522701	1	0	6.490000e+01
388.152405	1.279578	mountain	1	0	0.000000	1.108151	1	0	0	0	CorrectOmission	0.205752	0.558627	1	0	6.480000e+01
389.445312	1.306240	city	4	1	1.228027	1.228027	0	1	0	0	CorrectCommission	0.309921	0.603189	1	0	6.470000e+01
390.744843	1.292808	city	8	1	0.999718	0.999718	0	1	0	0	CorrectCommission	0.672199	0.656011	1	0	6.460000e+01
392.057678	1.332891	city	1	1	1.196086	1.196086	0	1	0	0	CorrectCommission	0.172520	0.715931	1	0	6.450000e+01
393.370605	1.292966	city	7	1	1.089523	1.089523	0	1	0	0	CorrectCommission	0.285884	0.780878	0	0	6.440000e+01
394.656830	1.279458	city	8	1	1.087836	1.087836	0	1	0	0	CorrectCommission	0.293140	0.847902	0	0	6.430000e+01
395.943054	1.292990	city	5	1	0.943868	0.943868	0	1	0	0	CorrectCommission	0.912450	0.913384	0	0	6.420000e+01
397.249359	1.319628	city	7	1	0.894280	0.894280	0	1	0	0	CorrectCommission	1.125764	0.973403	0	0	6.410000e+01
398.555542	1.292778	city	1	1	0.836704	0.836704	0	1	0	0	CorrectCommission	1.373441	1.024261	0	0	64
399.855072	1.306252	city	2	1	0.732381	0.732381	0	1	0	0	CorrectCommission	1.822210	1.063024	0	0	6.390000e+01
401.154633	1.292884	city	8	1	0.591477	0.591477	0	1	0	0	CorrectCommission	2.428339	1.087984	0	0	6.380000e+01
402.440948	1.279720	city	3	1	0.805284	0.805284	0	1	0	0	CorrectCommission	1.508602	1.098920	0	0	6.370000e+01
403.727173	1.292767	city	10	1	0.596635	0.596635	0	1	0	0	CorrectCommission	2.406149	1.097161	0	0	6.360000e+01
405.013428	1.279722	city	1	1	1.080171	1.080171	0	1	0	0	CorrectCommission	0.326115	1.085250	0	0	6.350000e+01
406.293091	1.279603	city	5	1	0.994153	0.994153	0	1	0	0	CorrectCommission	0.696139	1.066572	0	0	6.340000e+01
407.585999	1.306215	city	2	1	1.002271	1.002271	0	1	0	0	CorrectCommission	0.661216	1.044638	0	0	6.330000e+01
408.898895	1.319560	city	7	1	1.045354	1.045354	0	1	0	0	CorrectCommission	0.475888	1.022528	0	0	6.320000e+01
410.211792	1.306237	city	5	1	1.049918	1.049918	0	1	0	0	CorrectCommission	0.456251	1.002370	0	0	6.310000e+01
414.443726	7.157645	break	0	1	1.196398	1.196398	0	0	0	0	ThoughtProbe	0.173862	0.985107	0	63	63
418.669037	1.292956	city	4	1	1.447126	1.447126	0	1	0	0	CorrectCommission	1.252425	0.970447	0	0	6.285294e+01
419.961945	1.292853	mountain	8	0	0.000000	1.563568	1	0	0	0	CorrectOmission	1.753325	0.957092	0	0	6.270588e+01
421.261475	1.306253	city	3	1	1.465540	1.465540	0	1	0	0	CorrectCommission	1.331637	0.943140	0	0	6.255882e+01
422.601044	1.372896	city	7	1	1.072860	1.072860	0	1	0	0	CorrectCommission	0.357561	0.926623	0	0	6.241176e+01
423.940613	1.306208	city	1	1	0.880245	0.880245	0	1	0	0	CorrectCommission	1.186140	0.905985	0	0	6.226471e+01
425.240173	1.292937	city	4	1	0.826037	0.826037	0	1	0	0	CorrectCommission	1.419328	0.880359	0	0	6.211765e+01
426.526428	1.279579	city	6	1	0.764217	0.764217	0	1	0	0	CorrectCommission	1.685260	0.849868	0	0	6.197059e+01
427.805939	1.279414	city	1	1	0.882229	0.882229	0	1	0	0	CorrectCommission	1.177602	0.815588	0	0	6.182353e+01
429.092163	1.293054	city	5	1	1.084657	1.084657	0	1	0	0	CorrectCommission	0.306814	0.779397	1	0	6.167647e+01
430.391815	1.306254	city	1	1	1.095830	1.095830	0	1	0	0	CorrectCommission	0.258753	0.743644	1	0	6.152941e+01
431.698059	1.306222	city	6	1	1.087257	1.087257	0	1	0	0	CorrectCommission	0.295630	0.710767	1	0	6.138235e+01
432.990967	1.279596	city	7	1	1.019836	1.019836	0	1	0	0	CorrectCommission	0.585656	0.682955	1	0	6.123529e+01
434.277252	1.292972	city	2	1	1.208676	1.208676	0	1	0	0	CorrectCommission	0.226677	0.661856	1	0	6.108824e+01
435.590088	1.332672	city	10	1	1.070941	1.070941	0	1	0	0	CorrectCommission	0.365816	0.648434	1	0	6.094118e+01
436.909546	1.306245	city	9	1	1.062843	1.062843	0	1	0	0	CorrectCommission	0.400652	0.642994	1	0	6.079412e+01
438.202454	1.279599	city	5	1	0.927922	0.927922	0	1	0	0	CorrectCommission	0.981045	0.645256	1	0	6.064706e+01
439.482086	1.279688	city	8	1	0.877631	0.877631	0	1	0	0	CorrectCommission	1.197384	0.654565	1	0	6.050000e+01
440.774994	1.306102	mountain	5	0	0.000000	1.152188	1	0	0	0	CorrectOmission	0.016317	0.670040	1	0	6.035294e+01
442.074493	1.292910	city	10	1	1.386903	1.386903	0	1	0	0	CorrectCommission	0.993361	0.690749	1	0	6.020588e+01
443.400787	1.359685	city	9	1	1.217085	1.217085	0	1	0	0	CorrectCommission	0.262852	0.715693	1	0	6.005882e+01
444.727112	1.292962	city	1	1	0.857897	0.857897	0	1	0	0	CorrectCommission	1.282274	0.743883	1	0	5.991176e+01
446.013306	1.279383	city	4	1	1.244907	1.244907	0	1	0	0	CorrectCommission	0.382537	0.774190	1	0	5.976471e+01
447.299500	1.293049	city	8	1	1.216537	1.216537	0	1	0	0	CorrectCommission	0.260496	0.805304	0	0	5.961765e+01
448.585846	1.279598	city	2	1	1.601221	1.601221	0	1	0	0	CorrectCommission	1.915297	0.835608	0	0	5.947059e+01
449.912079	1.372885	city	7	1	1.116445	1.116445	0	1	0	0	CorrectCommission	0.170074	0.863141	0	0	5.932353e+01
451.251617	1.306216	city	5	1	0.980620	0.980620	0	1	0	0	CorrectCommission	0.754353	0.885777	0	0	5.917647e+01
452.544464	1.279450	city	4	1	0.985523	0.985523	0	1	0	0	CorrectCommission	0.733261	0.901277	0	0	5.902941e+01
453.824036	1.279707	city	9	1	0.934932	0.934932	0	1	0	0	CorrectCommission	0.950892	0.907595	0	0	5.888235e+01
455.110352	1.292910	city	3	1	0.912010	0.912010	0	1	0	0	CorrectCommission	1.049493	0.903199	0	0	5.873529e+01
456.403198	1.292768	city	9	1	0.724254	0.724254	0	1	0	0	CorrectCommission	1.857168	0.887406	0	0	5.858824e+01
457.696106	1.293066	city	5	1	1.703525	1.703525	0	1	0	0	CorrectCommission	2.355381	0.860593	0	0	5.844118e+01
459.009064	1.332871	city	4	1	1.522047	1.522047	0	1	0	0	CorrectCommission	1.574713	0.824275	0	0	5.829412e+01
460.335327	1.319617	city	10	1	1.114933	1.114933	0	1	0	0	CorrectCommission	0.176578	0.781017	0	0	5.814706e+01
464.380585	6.770931	break	0	1	1.156775	1.156775	0	0	0	0	ThoughtProbe	0.003415	0.734114	1	58	58
468.405914	1.279711	mountain	7	0	0.000000	1.230928	1	0	0	0	CorrectOmission	0.322403	0.687189	1	0	5.791304e+01
469.705475	1.319420	city	5	1	1.262956	1.262956	0	1	0	0	CorrectCommission	0.460177	0.643721	1	0	5.782609e+01
471.005035	1.279722	city	2	1	1.178420	1.178420	0	1	0	0	CorrectCommission	0.096525	0.606675	1	0	5.773913e+01
472.304626	1.319450	city	3	1	1.266742	1.266742	0	1	0	0	CorrectCommission	0.476463	0.578179	1	0	5.765217e+01
473.637451	1.346187	city	6	1	1.179262	1.179262	0	1	0	0	CorrectCommission	0.100147	0.559365	1	0	5.756522e+01
474.963654	1.306242	city	3	1	0.947726	0.947726	0	1	0	0	CorrectCommission	0.895856	0.550435	1	0	5.747826e+01
476.276581	1.319586	city	7	1	1.036542	1.036542	0	1	0	0	CorrectCommission	0.513791	0.550791	1	0	5.739130e+01
477.602875	1.333028	city	2	1	1.100406	1.100406	0	1	0	0	CorrectCommission	0.239067	0.559294	1	0	5.730435e+01
478.949097	1.359382	city	4	1	1.228997	1.228997	0	1	0	0	CorrectCommission	0.314094	0.574506	1	0	5.721739e+01
480.275330	1.293093	city	7	1	1.034594	1.034594	0	1	0	0	CorrectCommission	0.522173	0.594972	1	0	5.713043e+01
481.568329	1.292898	mountain	9	0	0.000000	1.340428	1	0	0	0	CorrectOmission	0.793441	0.619482	1	0	5.704348e+01
482.861237	1.292921	city	6	1	1.587862	1.587862	0	1	0	0	CorrectCommission	1.857830	0.647100	1	0	5.695652e+01
484.180817	1.346220	city	3	1	1.218256	1.218256	0	1	0	0	CorrectCommission	0.267891	0.677264	1	0	5.686957e+01
485.513702	1.319549	city	1	1	1.169805	1.169805	0	1	0	0	CorrectCommission	0.059468	0.709786	1	0	5.678261e+01
486.826599	1.306274	city	6	1	1.075774	1.075774	0	1	0	0	CorrectCommission	0.345026	0.744640	1	0	5.669565e+01
488.132843	1.306227	city	2	1	0.933964	0.933964	0	1	0	0	CorrectCommission	0.955056	0.781868	0	0	5.660870e+01
489.425751	1.279568	mountain	6	1	1.417032	1.417032	0	0	1	0	CommissionError	1.122968	0.821414	0	0	5.652174e+01
490.705322	1.279561	city	7	1	1.385957	1.385957	0	1	0	0	CorrectCommission	0.989293	0.863062	0	0	5.643478e+01
492.004883	1.319585	city	5	1	1.169619	1.169619	0	1	0	0	CorrectCommission	0.058668	0.906371	0	0	5.634783e+01
493.331116	1.332893	city	1	1	0.955681	0.955681	0	1	0	0	CorrectCommission	0.861635	0.950720	0	0	5.626087e+01
494.657318	1.319478	city	5	1	0.909000	0.909000	0	1	0	0	CorrectCommission	1.062443	0.995290	0	0	5.617391e+01
495.970245	1.306396	city	9	1	1.609455	1.609455	0	1	0	0	CorrectCommission	1.950718	1.039169	0	0	5.608696e+01
497.283112	1.319316	city	6	1	1.493958	1.493958	0	1	0	0	CorrectCommission	1.453881	1.081331	0	0	56
498.595886	1.306259	mountain	10	1	1.008275	1.008275	0	0	1	0	CommissionError	0.635390	1.120718	0	0	5.591304e+01
499.888855	1.279650	city	2	1	1.162184	1.162184	0	1	0	0	CorrectCommission	0.026685	1.156202	0	0	5.582609e+01
501.181824	1.306303	city	1	1	1.751042	1.751042	0	1	0	0	CorrectCommission	2.559786	1.186535	0	0	5.573913e+01
502.474762	1.279595	city	8	1	1.537048	1.537048	0	1	0	0	CorrectCommission	1.639245	1.210333	0	0	5.565217e+01
503.815948	1.402738	city	1	1	1.347213	1.347213	0	1	0	0	CorrectCommission	0.822625	1.226209	0	0	5.556522e+01
505.162170	1.289747	city	5	1	1.147585	1.147585	0	1	0	0	CorrectCommission	0.036115	1.232810	0	0	5.547826e+01
506.466827	1.319531	city	2	1	1.755798	1.755798	0	1	0	0	CorrectCommission	2.580245	1.229020	0	0	5.539130e+01
507.793030	1.332900	city	4	1	1.462799	1.462799	0	1	0	0	CorrectCommission	1.319844	1.214161	0	0	5.530435e+01
509.125854	1.332718	city	5	1	0.991193	0.991193	0	1	0	0	CorrectCommission	0.708873	1.188396	0	0	5.521739e+01
510.438721	1.293059	city	6	1	1.685338	1.685338	0	1	0	0	CorrectCommission	2.277144	1.152939	0	0	5.513043e+01
511.758392	1.346228	city	5	1	1.548407	1.548407	0	1	0	0	CorrectCommission	1.688107	1.110155	0	0	5.504348e+01
513.077881	1.292797	city	6	1	1.675094	1.675094	0	1	0	0	CorrectCommission	2.233081	1.063708	0	0	5.495652e+01
514.410706	1.372827	city	1	1	1.259544	1.259544	0	1	0	0	CorrectCommission	0.445498	1.018277	0	0	5.486957e+01
515.763672	1.333058	city	2	1	1.009196	1.009196	0	1	0	0	CorrectCommission	0.631427	0.979261	0	0	5.478261e+01
517.076538	1.292742	city	1	1	1.160266	1.160266	0	1	0	0	CorrectCommission	0.018432	0.952133	0	0	5.469565e+01
518.369446	1.293076	city	8	1	1.071362	1.071362	0	1	0	0	CorrectCommission	0.364009	0.941924	0	0	5.460870e+01
519.662476	1.292923	city	2	1	1.152341	1.152341	0	1	0	0	CorrectCommission	0.015660	0.952565	0	0	5.452174e+01
520.955383	1.292893	city	3	1	1.320509	1.320509	0	1	0	0	CorrectCommission	0.707752	0.986464	0	0	5.443478e+01
522.294922	1.386210	city	9	1	1.076853	1.076853	0	1	0	0	CorrectCommission	0.340387	1.044078	0	0	5.434783e+01
523.647705	1.319408	city	1	1	0.898044	0.898044	0	1	0	0	CorrectCommission	1.109572	1.123830	0	0	5.426087e+01
524.947266	1.279733	city	3	1	1.361533	1.361533	0	1	0	0	CorrectCommission	0.884227	1.222196	0	0	5.417391e+01
526.240295	1.306261	city	7	1	1.089889	1.089889	0	1	0	0	CorrectCommission	0.284308	1.333995	0	0	5.408696e+01
526.893433	9.143726	break	0	0	0.000000	0.818245	0	0	0	0	ThoughtProbe	1.452843	1.452843	0	54	54
