onset	duration	trial_type	image_type	Press	ReactionTime	ReactionTime_Interpolated	CorrectOmission	CorrectCommission	CommissionError	OmissionError	response_type	nonsmoothVarianceTimeCourse	VarianceTimeCourse	In_the_Zone	ThoughtProbe	ThoughtProbe_Interpolated
0.672940	1.319589	city	10	1	1.270600	1.270600	0	1	0	0	CorrectCommission	0.093403	0.093403	1	0	68
1.979127	1.292785	city	6	1	0.574458	0.574458	0	1	0	0	CorrectCommission	2.007262	0.209557	1	0	68
3.265301	1.279562	mountain	10	1	0.965334	0.965334	0	0	1	0	CommissionError	0.827762	0.321375	1	0	68
4.551561	1.292960	city	10	1	1.085237	1.085237	0	1	0	0	CorrectCommission	0.465945	0.424895	1	0	68
5.844470	1.292857	mountain	8	1	0.889862	0.889862	0	0	1	0	CommissionError	1.055506	0.516744	1	0	68
7.130678	1.279559	city	10	1	1.199992	1.199992	0	1	0	0	CorrectCommission	0.119662	0.594341	1	0	68
8.424795	1.308675	city	4	1	1.031175	1.031175	0	1	0	0	CorrectCommission	0.629083	0.656178	1	0	68
9.724380	1.290494	city	1	1	0.761364	0.761364	0	1	0	0	CorrectCommission	1.443258	0.701788	1	0	68
11.009409	1.279565	city	9	1	0.754000	0.754000	0	1	0	0	CorrectCommission	1.465480	0.731865	1	0	68
12.295732	1.293080	city	8	1	1.488825	1.488825	0	1	0	0	CorrectCommission	0.751912	0.748268	1	0	68
13.588717	1.292893	city	10	1	1.063097	1.063097	0	1	0	0	CorrectCommission	0.532754	0.753893	1	0	68
14.874904	1.279480	city	4	1	1.739783	1.739783	0	1	0	0	CorrectCommission	1.509198	0.752471	1	0	68
16.167833	1.306380	city	1	1	1.098486	1.098486	0	1	0	0	CorrectCommission	0.425967	0.748242	1	0	68
17.460709	1.279368	city	10	1	0.753450	0.753450	0	1	0	0	CorrectCommission	1.467139	0.745619	1	0	68
18.760267	1.319749	city	2	1	1.324260	1.324260	0	1	0	0	CorrectCommission	0.255324	0.748642	1	0	68
20.059917	1.279552	city	3	1	1.249144	1.249144	0	1	0	0	CorrectCommission	0.028656	0.760525	1	0	68
21.339420	1.279455	city	1	1	1.391187	1.391187	0	1	0	0	CorrectCommission	0.457283	0.783144	0	0	68
22.618990	1.279685	city	9	1	1.246641	1.246641	0	1	0	0	CorrectCommission	0.021102	0.816707	0	0	68
23.905224	1.292780	city	4	1	1.163944	1.163944	0	1	0	0	CorrectCommission	0.228443	0.859705	0	0	68
25.191397	1.279568	mountain	6	0	0.000000	1.117131	1	0	0	0	CorrectOmission	0.369703	0.908964	0	0	68
26.471062	1.279761	city	3	1	1.298451	1.298451	0	1	0	0	CorrectCommission	0.177443	0.960089	0	0	68
27.750643	1.279398	city	4	1	1.900149	1.900149	0	1	0	0	CorrectCommission	1.993116	1.008111	0	0	68
29.030210	1.279741	city	2	1	1.923669	1.923669	0	1	0	0	CorrectCommission	2.064089	1.048118	0	0	68
30.309862	1.279562	city	9	1	2.087450	2.087450	0	1	0	0	CorrectCommission	2.558312	1.076064	0	0	68
31.589441	1.279596	city	1	1	1.662533	1.662533	0	1	0	0	CorrectCommission	1.276091	1.089382	0	0	68
32.875706	1.292929	city	2	1	2.094725	2.094725	0	1	0	0	CorrectCommission	2.580265	1.087368	0	0	68
34.161945	1.279556	city	7	1	1.124171	1.124171	0	1	0	0	CorrectCommission	0.348461	1.071172	0	0	68
35.461510	1.319569	city	9	1	1.066631	1.066631	0	1	0	0	CorrectCommission	0.522091	1.043715	0	0	68
36.761028	1.279466	city	10	1	0.975992	0.975992	0	1	0	0	CorrectCommission	0.795603	1.009141	0	0	68
38.080593	1.359667	city	9	1	1.750870	1.750870	0	1	0	0	CorrectCommission	1.542654	0.972259	0	0	68
39.413464	1.306072	city	3	1	1.381199	1.381199	0	1	0	0	CorrectCommission	0.427144	0.937911	0	0	68
40.713036	1.293075	city	1	1	1.036023	1.036023	0	1	0	0	CorrectCommission	0.614453	0.910424	0	0	68
42.006039	1.292929	city	8	1	1.033574	1.033574	0	1	0	0	CorrectCommission	0.621844	0.893008	0	0	68
43.292217	1.279426	city	5	1	0.874445	0.874445	0	1	0	0	CorrectCommission	1.102028	0.887402	0	0	68
44.571789	1.279719	city	1	1	1.299937	1.299937	0	1	0	0	CorrectCommission	0.181928	0.893697	0	0	68
45.858021	1.292745	city	7	1	1.221279	1.221279	0	1	0	0	CorrectCommission	0.055430	0.910333	0	0	68
47.150948	1.293114	city	2	1	1.193911	1.193911	0	1	0	0	CorrectCommission	0.138014	0.934277	0	0	68
48.437237	1.279459	city	3	1	1.635763	1.635763	0	1	0	0	CorrectCommission	1.195309	0.961470	0	0	68
49.716721	1.279510	city	2	1	1.548374	1.548374	0	1	0	0	CorrectCommission	0.931607	0.987309	0	0	68
50.356476	11.049849	break	0	0	0.000000	1.847620	0	0	0	0	ThoughtProbe	1.834605	1.007347	0	68	68
62.059479	1.306309	city	5	1	2.079635	2.079635	0	1	0	0	CorrectCommission	2.534729	1.017867	0	0	6.820588e+01
63.372292	1.319313	mountain	6	0	0.000000	1.790555	1	0	0	0	CorrectOmission	1.662409	1.016380	0	0	6.841176e+01
64.678505	1.293124	city	5	1	1.477711	1.477711	0	1	0	0	CorrectCommission	0.718376	1.001966	0	0	6.861765e+01
65.971428	1.292708	city	4	1	1.638433	1.638433	0	1	0	0	CorrectCommission	1.203366	0.975310	0	0	6.882353e+01
67.264320	1.293077	city	3	1	1.517574	1.517574	0	1	0	0	CorrectCommission	0.838665	0.938501	0	0	6.902941e+01
68.577293	1.332876	city	4	1	1.736932	1.736932	0	1	0	0	CorrectCommission	1.500595	0.894717	0	0	6.923529e+01
69.890144	1.292823	city	10	1	1.421684	1.421684	0	1	0	0	CorrectCommission	0.549309	0.847719	0	0	6.944118e+01
71.176384	1.279663	city	4	1	1.459573	1.459573	0	1	0	0	CorrectCommission	0.663642	0.801323	0	0	6.964706e+01
72.456024	1.279608	city	7	1	1.284152	1.284152	0	1	0	0	CorrectCommission	0.134296	0.758888	1	0	6.985294e+01
73.755554	1.319451	city	5	1	1.273246	1.273246	0	1	0	0	CorrectCommission	0.101386	0.722944	1	0	7.005882e+01
75.055122	1.279687	city	1	1	1.517058	1.517058	0	1	0	0	CorrectCommission	0.837108	0.694939	1	0	7.026471e+01
76.354820	1.319705	city	8	1	1.269391	1.269391	0	1	0	0	CorrectCommission	0.089753	0.675184	1	0	7.047059e+01
77.654312	1.279279	city	1	1	1.141574	1.141574	0	1	0	0	CorrectCommission	0.295944	0.663075	1	0	7.067647e+01
78.933815	1.279736	city	10	1	0.974166	0.974166	0	1	0	0	CorrectCommission	0.801112	0.657318	1	0	7.088235e+01
80.213463	1.279561	city	7	1	0.822887	0.822887	0	1	0	0	CorrectCommission	1.257609	0.656320	1	0	7.108824e+01
81.493034	1.279573	mountain	8	0	0.000000	1.344570	1	0	0	0	CorrectOmission	0.316613	0.658589	1	0	7.129412e+01
82.779236	1.292834	city	4	1	1.801903	1.801903	0	1	0	0	CorrectCommission	1.696652	0.663066	1	0	7.150000e+01
84.065483	1.279659	city	6	1	1.457573	1.457573	0	1	0	0	CorrectCommission	0.657606	0.669241	1	0	7.170588e+01
85.365059	1.319502	city	3	1	1.222976	1.222976	0	1	0	0	CorrectCommission	0.050307	0.677264	1	0	7.191176e+01
86.664642	1.279662	city	5	1	1.530003	1.530003	0	1	0	0	CorrectCommission	0.876172	0.687765	1	0	7.211765e+01
87.964272	1.319597	city	2	1	1.485062	1.485062	0	1	0	0	CorrectCommission	0.740557	0.701577	1	0	7.232353e+01
89.277084	1.306031	city	6	1	1.210229	1.210229	0	1	0	0	CorrectCommission	0.088772	0.719461	1	0	7.252941e+01
90.569969	1.279730	city	5	1	1.667502	1.667502	0	1	0	0	CorrectCommission	1.291086	0.741787	1	0	7.273529e+01
91.889618	1.359579	city	1	1	1.168602	1.168602	0	1	0	0	CorrectCommission	0.214385	0.768254	1	0	7.294118e+01
93.209198	1.279581	city	8	1	1.305608	1.305608	0	1	0	0	CorrectCommission	0.199041	0.797858	0	0	7.314706e+01
94.528709	1.359431	city	6	1	1.125794	1.125794	0	1	0	0	CorrectCommission	0.343561	0.828843	0	0	7.335294e+01
95.854935	1.293028	city	1	1	0.875992	0.875992	0	1	0	0	CorrectCommission	1.097361	0.858911	0	0	7.355882e+01
97.147881	1.292864	city	9	1	0.928845	0.928845	0	1	0	0	CorrectCommission	0.937871	0.885517	0	0	7.376471e+01
98.440788	1.292949	city	7	1	0.729667	0.729667	0	1	0	0	CorrectCommission	1.538908	0.906291	0	0	7.397059e+01
99.733719	1.292906	city	9	1	0.660827	0.660827	0	1	0	0	CorrectCommission	1.746638	0.919356	0	0	7.417647e+01
101.039909	1.319471	city	4	1	0.729672	0.729672	0	1	0	0	CorrectCommission	1.538891	0.923621	0	0	7.438235e+01
102.339470	1.279658	city	7	1	0.864342	0.864342	0	1	0	0	CorrectCommission	1.132516	0.918909	0	0	7.458824e+01
103.625778	1.292951	city	6	1	0.871647	0.871647	0	1	0	0	CorrectCommission	1.110472	0.905891	0	0	7.479412e+01
104.272247	13.955259	break	0	0	0.000000	1.316810	0	0	0	0	ThoughtProbe	0.232844	0.885903	0	75	75
118.880615	1.306215	city	7	1	1.607080	1.607080	0	1	0	0	CorrectCommission	1.108757	0.860671	0	0	7.470588e+01
120.206902	1.346349	city	3	1	1.149705	1.149705	0	1	0	0	CorrectCommission	0.271409	0.831960	0	0	7.441176e+01
121.526527	1.292907	city	2	1	1.140625	1.140625	0	1	0	0	CorrectCommission	0.298807	0.801351	0	0	7.411765e+01
122.839432	1.332896	city	1	1	1.063641	1.063641	0	1	0	0	CorrectCommission	0.531114	0.770073	1	0	7.382353e+01
124.145691	1.279634	city	10	1	1.794291	1.794291	0	1	0	0	CorrectCommission	1.673681	0.738948	1	0	7.352941e+01
125.451935	1.332847	city	6	1	1.584514	1.584514	0	1	0	0	CorrectCommission	1.040662	0.708456	1	0	7.323529e+01
126.798157	1.359597	city	3	1	1.087810	1.087810	0	1	0	0	CorrectCommission	0.458181	0.678891	1	0	7.294118e+01
128.131042	1.306186	mountain	10	1	1.059428	1.059428	0	0	1	0	CommissionError	0.543828	0.650466	1	0	7.264706e+01
129.437256	1.306238	city	4	1	1.364747	1.364747	0	1	0	0	CorrectCommission	0.377498	0.623447	1	0	7.235294e+01
130.743500	1.306243	city	3	1	1.061465	1.061465	0	1	0	0	CorrectCommission	0.537679	0.598267	1	0	7.205882e+01
132.049667	1.306083	city	9	1	0.874713	0.874713	0	1	0	0	CorrectCommission	1.101219	0.575526	1	0	7.176471e+01
133.369186	1.332949	city	6	1	1.337492	1.337492	0	1	0	0	CorrectCommission	0.295253	0.555979	1	0	7.147059e+01
134.702118	1.332915	city	8	1	1.124188	1.124188	0	1	0	0	CorrectCommission	0.348408	0.540484	1	0	7.117647e+01
136.015076	1.293000	city	1	1	1.135320	1.135320	0	1	0	0	CorrectCommission	0.314815	0.529869	1	0	7.088235e+01
137.301361	1.279584	city	8	1	1.036159	1.036159	0	1	0	0	CorrectCommission	0.614042	0.524814	1	0	7.058824e+01
138.587524	1.292757	city	2	1	1.326720	1.326720	0	1	0	0	CorrectCommission	0.262750	0.525746	1	0	7.029412e+01
139.893799	1.319769	city	4	1	1.393917	1.393917	0	1	0	0	CorrectCommission	0.465519	0.532746	1	0	70
141.206772	1.306182	city	9	1	1.101931	1.101931	0	1	0	0	CorrectCommission	0.415571	0.545487	1	0	6.970588e+01
142.512955	1.306200	mountain	4	0	0.000000	1.131820	1	0	0	0	CorrectOmission	0.325378	0.563228	1	0	6.941176e+01
143.805862	1.279618	city	1	1	1.355792	1.355792	0	1	0	0	CorrectCommission	0.350474	0.584845	1	0	6.911765e+01
145.092041	1.292730	city	8	1	1.646053	1.646053	0	1	0	0	CorrectCommission	1.226361	0.608890	1	0	6.882353e+01
146.424896	1.372970	city	4	1	1.311119	1.311119	0	1	0	0	CorrectCommission	0.215671	0.633710	1	0	6.852941e+01
147.764450	1.306141	city	6	1	1.275927	1.275927	0	1	0	0	CorrectCommission	0.109475	0.657629	1	0	6.823529e+01
149.057388	1.279751	city	7	1	1.624084	1.624084	0	1	0	0	CorrectCommission	1.160068	0.679058	1	0	6.794118e+01
150.337051	1.279567	city	6	1	0.644300	0.644300	0	1	0	0	CorrectCommission	1.796509	0.696636	1	0	6.764706e+01
151.616623	1.279583	city	4	1	1.438389	1.438389	0	1	0	0	CorrectCommission	0.599717	0.709408	1	0	6.735294e+01
152.922867	1.332893	city	6	1	1.075969	1.075969	0	1	0	0	CorrectCommission	0.493914	0.716929	1	0	6.705882e+01
154.229034	1.279431	city	4	1	1.045111	1.045111	0	1	0	0	CorrectCommission	0.587029	0.719323	1	0	6.676471e+01
155.515198	1.292911	city	10	1	1.083674	1.083674	0	1	0	0	CorrectCommission	0.470662	0.717313	1	0	6.647059e+01
156.821426	1.319548	city	4	1	1.660518	1.660518	0	1	0	0	CorrectCommission	1.270011	0.712172	1	0	6.617647e+01
158.127731	1.293072	city	8	1	1.556761	1.556761	0	1	0	0	CorrectCommission	0.956916	0.705620	1	0	6.588235e+01
159.440643	1.332733	city	6	1	1.065903	1.065903	0	1	0	0	CorrectCommission	0.524287	0.699688	1	0	6.558824e+01
160.753464	1.292906	city	7	1	0.944361	0.944361	0	1	0	0	CorrectCommission	0.891052	0.696457	1	0	6.529412e+01
161.399918	13.568872	break	0	0	0.000000	0.974426	0	0	0	0	ThoughtProbe	0.800328	0.697788	1	65	65
175.628647	1.319725	mountain	4	0	0.000000	1.090057	1	0	0	0	CorrectOmission	0.451401	0.705034	1	0	6.489130e+01
176.948288	1.319563	city	10	1	1.225214	1.225214	0	1	0	0	CorrectCommission	0.043555	0.718767	1	0	6.478261e+01
178.247803	1.279451	city	4	1	1.313854	1.313854	0	1	0	0	CorrectCommission	0.223924	0.738604	1	0	6.467391e+01
179.547379	1.319714	city	1	1	1.357273	1.357273	0	1	0	0	CorrectCommission	0.354944	0.763171	1	0	6.456522e+01
180.867020	1.319559	city	6	1	1.408979	1.408979	0	1	0	0	CorrectCommission	0.510972	0.790289	0	0	6.445652e+01
182.186584	1.319584	city	3	1	1.412881	1.412881	0	1	0	0	CorrectCommission	0.522747	0.817260	0	0	6.434783e+01
183.526138	1.359531	city	9	1	0.907029	0.907029	0	1	0	0	CorrectCommission	1.003705	0.841334	0	0	6.423913e+01
184.859039	1.306255	city	4	1	0.515270	0.515270	0	1	0	0	CorrectCommission	2.185867	0.860186	0	0	6.413043e+01
186.165207	1.306077	city	7	1	0.566893	0.566893	0	1	0	0	CorrectCommission	2.030091	0.872259	0	0	6.402174e+01
187.464783	1.293067	city	6	1	1.703897	1.703897	0	1	0	0	CorrectCommission	1.400911	0.877124	0	0	6.391304e+01
188.757751	1.292885	mountain	10	0	0.000000	1.617201	1	0	0	0	CorrectOmission	1.139298	0.875438	0	0	6.380435e+01
190.057251	1.306098	city	10	1	1.207317	1.207317	0	1	0	0	CorrectCommission	0.097561	0.868748	0	0	6.369565e+01
191.350159	1.279739	city	4	1	1.374757	1.374757	0	1	0	0	CorrectCommission	0.407704	0.859142	0	0	6.358696e+01
192.643143	1.306232	city	6	1	1.462434	1.462434	0	1	0	0	CorrectCommission	0.672275	0.848829	0	0	6.347826e+01
193.955963	1.319390	city	2	1	1.290931	1.290931	0	1	0	0	CorrectCommission	0.154751	0.839751	0	0	6.336957e+01
195.255447	1.279578	city	7	1	1.423603	1.423603	0	1	0	0	CorrectCommission	0.555100	0.833335	0	0	6.326087e+01
196.548431	1.306395	city	2	1	1.490242	1.490242	0	1	0	0	CorrectCommission	0.756190	0.830361	0	0	6.315217e+01
197.848083	1.292910	city	1	1	1.521149	1.521149	0	1	0	0	CorrectCommission	0.849454	0.831087	0	0	6.304348e+01
199.134247	1.279422	city	10	1	1.713842	1.713842	0	1	0	0	CorrectCommission	1.430920	0.835416	0	0	6.293478e+01
200.433838	1.319748	mountain	4	0	0.000000	1.718704	1	0	0	0	CorrectOmission	1.445592	0.843119	0	0	6.282609e+01
201.733414	1.279413	city	2	0	0.000000	1.599647	0	0	0	1	OmissionError	1.086329	0.854066	0	0	6.271739e+01
203.026230	1.306220	city	9	1	1.420584	1.420584	0	1	0	0	CorrectCommission	0.545989	0.868266	0	0	6.260870e+01
204.325851	1.293026	city	3	1	1.245424	1.245424	0	1	0	0	CorrectCommission	0.017431	0.885925	0	0	6.250000e+01
205.645508	1.346278	city	4	1	1.733435	1.733435	0	1	0	0	CorrectCommission	1.490043	0.907251	0	0	6.239130e+01
206.985001	1.332716	city	1	1	1.107724	1.107724	0	1	0	0	CorrectCommission	0.398088	0.932271	0	0	6.228261e+01
208.297852	1.292981	city	2	1	1.018462	1.018462	0	1	0	0	CorrectCommission	0.667446	0.960739	0	0	6.217391e+01
209.597443	1.306192	city	8	1	0.836571	0.836571	0	1	0	0	CorrectCommission	1.216316	0.991936	0	0	6.206522e+01
210.896973	1.292883	city	4	1	1.191109	1.191109	0	1	0	0	CorrectCommission	0.146469	1.024659	0	0	6.195652e+01
212.183212	1.279580	city	7	1	1.733386	1.733386	0	1	0	0	CorrectCommission	1.489895	1.057308	0	0	6.184783e+01
213.469452	1.292909	city	1	1	1.651108	1.651108	0	1	0	0	CorrectCommission	1.241614	1.087969	0	0	6.173913e+01
214.769119	1.306425	city	4	1	1.800778	1.800778	0	1	0	0	CorrectCommission	1.693257	1.114678	0	0	6.163043e+01
216.075439	1.306209	city	5	1	1.606577	1.606577	0	1	0	0	CorrectCommission	1.107239	1.135610	0	0	6.152174e+01
217.381668	1.306249	city	3	1	1.726974	1.726974	0	1	0	0	CorrectCommission	1.470547	1.149267	0	0	6.141304e+01
218.707901	1.346215	mountain	10	0	0.000000	1.809134	1	0	0	0	CorrectOmission	1.718471	1.154567	0	0	6.130435e+01
220.027405	1.292805	city	7	1	1.676306	1.676306	0	1	0	0	CorrectCommission	1.317652	1.150882	0	0	6.119565e+01
221.360306	1.373000	city	3	1	1.151740	1.151740	0	1	0	0	CorrectCommission	0.265268	1.138033	0	0	6.108696e+01
222.693268	1.292916	city	9	1	0.681243	0.681243	0	1	0	0	CorrectCommission	1.685030	1.116231	0	0	6.097826e+01
223.999420	1.319382	city	3	1	1.610869	1.610869	0	1	0	0	CorrectCommission	1.120191	1.085962	0	0	6.086957e+01
225.305634	1.293064	city	1	1	1.416129	1.416129	0	1	0	0	CorrectCommission	0.532548	1.047998	0	0	6.076087e+01
226.598633	1.292937	city	2	1	1.889456	1.889456	0	1	0	0	CorrectCommission	1.960849	1.003395	0	0	6.065217e+01
227.891510	1.292817	city	6	1	1.355379	1.355379	0	1	0	0	CorrectCommission	0.349229	0.953392	0	0	6.054348e+01
229.211075	1.346291	city	4	1	2.088706	2.088706	0	1	0	0	CorrectCommission	2.562102	0.899537	0	0	6.043478e+01
230.557327	1.346218	city	7	1	1.083496	1.083496	0	1	0	0	CorrectCommission	0.471201	0.843517	0	0	6.032609e+01
231.876923	1.292989	city	1	1	1.195537	1.195537	0	1	0	0	CorrectCommission	0.133108	0.787258	0	0	6.021739e+01
233.183090	1.319324	city	10	1	1.329038	1.329038	0	1	0	0	CorrectCommission	0.269744	0.732722	1	0	6.010870e+01
233.842743	12.982419	break	0	0	0.000000	1.482826	0	0	0	0	ThoughtProbe	0.733811	0.681773	1	60	60
247.471603	1.292891	city	2	1	1.488316	1.488316	0	1	0	0	CorrectCommission	0.750376	0.636081	1	0	60
248.777847	1.319595	city	1	1	1.176922	1.176922	0	1	0	0	CorrectCommission	0.189281	0.597000	1	0	60
250.077484	1.279672	city	4	1	1.528310	1.528310	0	1	0	0	CorrectCommission	0.871063	0.565466	1	0	60
251.357132	1.279604	city	1	1	1.284205	1.284205	0	1	0	0	CorrectCommission	0.134455	0.541917	1	0	60
252.650070	1.306270	mountain	1	0	0.000000	1.126423	1	0	0	0	CorrectOmission	0.341664	0.526277	1	0	60
253.949646	1.292889	city	4	1	1.065190	1.065190	0	1	0	0	CorrectCommission	0.526438	0.517946	1	0	60
255.255905	1.319626	city	9	1	1.110732	1.110732	0	1	0	0	CorrectCommission	0.389013	0.515837	1	0	60
256.568817	1.306201	city	1	1	1.164241	1.164241	0	1	0	0	CorrectCommission	0.227544	0.518481	1	0	60
257.874939	1.306052	city	3	1	1.049204	1.049204	0	1	0	0	CorrectCommission	0.574677	0.524148	1	0	60
259.181183	1.306408	city	2	1	1.202260	1.202260	0	1	0	0	CorrectCommission	0.112821	0.530993	1	0	60
260.500732	1.332723	city	7	1	0.942661	0.942661	0	1	0	0	CorrectCommission	0.896180	0.537305	1	0	60
261.806976	1.279760	city	1	1	1.176969	1.176969	0	1	0	0	CorrectCommission	0.189137	0.541693	1	0	60
263.093292	1.292886	city	6	1	0.614310	0.614310	0	1	0	0	CorrectCommission	1.887006	0.543274	1	0	60
264.379547	1.279581	mountain	6	0	0.000000	0.927174	1	0	0	0	CorrectOmission	0.942913	0.541733	1	0	60
265.672455	1.306234	city	5	1	1.373404	1.373404	0	1	0	0	CorrectCommission	0.403619	0.537434	1	0	60
266.978668	1.306240	city	9	1	1.210839	1.210839	0	1	0	0	CorrectCommission	0.086931	0.531258	1	0	60
268.284851	1.306087	city	1	1	1.216527	1.216527	0	1	0	0	CorrectCommission	0.069767	0.524465	1	0	60
269.584320	1.292890	city	7	0	0.000000	1.073430	0	0	0	1	OmissionError	0.501574	0.518425	1	0	60
270.877319	1.293071	city	2	1	0.967372	0.967372	0	1	0	0	CorrectCommission	0.821612	0.514414	1	0	60
272.170166	1.292658	city	5	1	1.084177	1.084177	0	1	0	0	CorrectCommission	0.469145	0.513388	1	0	60
273.509644	1.386307	city	2	1	1.342139	1.342139	0	1	0	0	CorrectCommission	0.309276	0.515813	1	0	60
274.849274	1.292901	city	10	1	1.031583	1.031583	0	1	0	0	CorrectCommission	0.627852	0.521568	1	0	60
276.148926	1.306422	city	4	1	1.218546	1.218546	0	1	0	0	CorrectCommission	0.063677	0.529946	1	0	60
277.455231	1.306218	city	8	1	1.226706	1.226706	0	1	0	0	CorrectCommission	0.039052	0.539774	1	0	60
278.768127	1.319560	city	9	1	1.104228	1.104228	0	1	0	0	CorrectCommission	0.408639	0.549567	1	0	60
280.087616	1.319435	city	10	1	0.953818	0.953818	0	1	0	0	CorrectCommission	0.862513	0.557790	1	0	60
281.400543	1.306373	city	3	1	0.920902	0.920902	0	1	0	0	CorrectCommission	0.961841	0.563148	1	0	60
282.726746	1.346070	city	10	1	1.766862	1.766862	0	1	0	0	CorrectCommission	1.590913	0.564818	1	0	60
284.059662	1.319715	city	3	1	1.517220	1.517220	0	1	0	0	CorrectCommission	0.837599	0.562576	1	0	60
285.379272	1.319567	city	6	1	1.380061	1.380061	0	1	0	0	CorrectCommission	0.423708	0.556893	1	0	60
286.692200	1.306267	city	8	1	1.142810	1.142810	0	1	0	0	CorrectCommission	0.292215	0.548799	1	0	60
288.011719	1.332751	city	5	1	1.337421	1.337421	0	1	0	0	CorrectCommission	0.295041	0.539714	1	0	60
289.317841	1.279533	city	4	1	1.177583	1.177583	0	1	0	0	CorrectCommission	0.187284	0.531198	1	0	60
289.957611	10.303330	break	0	1	1.215075	1.215075	0	0	0	0	ThoughtProbe	0.074150	0.524741	1	60	60
300.934143	1.346356	city	6	1	1.594942	1.594942	0	1	0	0	CorrectCommission	1.072130	0.521473	1	0	5.985000e+01
302.253754	1.292881	city	3	1	1.114184	1.114184	0	1	0	0	CorrectCommission	0.378595	0.522091	1	0	5.970000e+01
303.559906	1.319429	city	8	1	1.006282	1.006282	0	1	0	0	CorrectCommission	0.704198	0.526810	1	0	5.955000e+01
304.866058	1.292884	city	3	1	1.175002	1.175002	0	1	0	0	CorrectCommission	0.195072	0.535340	1	0	5.940000e+01
306.152313	1.279598	city	1	1	1.314561	1.314561	0	1	0	0	CorrectCommission	0.226056	0.547000	1	0	5.925000e+01
307.451874	1.319561	city	4	1	1.172610	1.172610	0	1	0	0	CorrectCommission	0.202292	0.560840	1	0	5.910000e+01
308.778107	1.332888	mountain	1	1	0.954630	0.954630	0	0	1	0	CommissionError	0.860063	0.575794	1	0	5.895000e+01
310.131073	1.373059	city	4	1	0.800349	0.800349	0	1	0	0	CorrectCommission	1.325618	0.590825	1	0	5.880000e+01
311.484070	1.332901	mountain	7	1	1.072405	1.072405	0	0	1	0	CommissionError	0.504669	0.605074	1	0	5.865000e+01
312.796875	1.292715	city	3	1	1.440362	1.440362	0	1	0	0	CorrectCommission	0.605672	0.617973	1	0	5.850000e+01
314.129669	1.372905	city	6	1	1.260147	1.260147	0	1	0	0	CorrectCommission	0.061858	0.629208	1	0	5.835000e+01
315.475983	1.319713	city	9	1	0.857702	0.857702	0	1	0	0	CorrectCommission	1.152552	0.638780	1	0	5.820000e+01
316.782288	1.292918	city	1	1	1.689663	1.689663	0	1	0	0	CorrectCommission	1.357959	0.646865	1	0	5.805000e+01
318.068542	1.279563	city	8	1	1.400651	1.400651	0	1	0	0	CorrectCommission	0.485840	0.653749	1	0	5.790000e+01
319.374786	1.332915	city	9	1	1.282221	1.282221	0	1	0	0	CorrectCommission	0.128468	0.659764	1	0	5.775000e+01
320.700958	1.319450	city	6	1	1.147449	1.147449	0	1	0	0	CorrectCommission	0.278216	0.665207	1	0	5.760000e+01
322.007202	1.293003	city	10	1	1.213558	1.213558	0	1	0	0	CorrectCommission	0.078727	0.670396	1	0	5.745000e+01
323.300079	1.292762	city	5	1	0.920346	0.920346	0	1	0	0	CorrectCommission	0.963517	0.675698	1	0	5.730000e+01
324.606323	1.319713	mountain	9	1	0.642430	0.642430	0	0	1	0	CommissionError	1.802152	0.681585	1	0	5.715000e+01
325.912628	1.292905	city	7	1	1.307514	1.307514	0	1	0	0	CorrectCommission	0.204792	0.688732	1	0	57
327.212219	1.306290	city	3	1	1.683815	1.683815	0	1	0	0	CorrectCommission	1.340311	0.698074	1	0	5.685000e+01
328.505066	1.279410	city	1	1	1.505755	1.505755	0	1	0	0	CorrectCommission	0.803001	0.710633	1	0	5.670000e+01
329.791229	1.292890	city	2	1	1.369150	1.369150	0	1	0	0	CorrectCommission	0.390783	0.727415	1	0	5.655000e+01
331.077423	1.279547	city	5	1	1.238842	1.238842	0	1	0	0	CorrectCommission	0.002431	0.749167	1	0	5.640000e+01
332.357025	1.279618	city	10	1	1.015811	1.015811	0	1	0	0	CorrectCommission	0.675446	0.776099	1	0	5.625000e+01
333.636627	1.279618	city	3	1	0.995289	0.995289	0	1	0	0	CorrectCommission	0.737370	0.807651	0	0	5.610000e+01
334.916290	1.279704	city	7	1	1.122452	1.122452	0	1	0	0	CorrectCommission	0.353647	0.842391	0	0	5.595000e+01
336.195923	1.279569	city	5	1	1.127092	1.127092	0	1	0	0	CorrectCommission	0.339646	0.878079	0	0	5.580000e+01
337.475403	1.279390	city	4	1	0.756053	0.756053	0	1	0	0	CorrectCommission	1.459285	0.911834	0	0	5.565000e+01
338.754974	1.279743	city	7	1	1.286594	1.286594	0	1	0	0	CorrectCommission	0.141665	0.940476	0	0	5.550000e+01
340.034637	1.279583	city	1	0	0.000000	1.912537	0	0	0	1	OmissionError	2.030499	0.961034	0	0	5.535000e+01
341.314209	1.279580	city	6	1	2.190327	2.190327	0	1	0	0	CorrectCommission	2.868753	0.971055	0	0	5.520000e+01
342.593872	1.279702	city	3	1	1.676408	1.676408	0	1	0	0	CorrectCommission	1.317959	0.969051	0	0	5.505000e+01
343.873444	1.279453	city	7	1	1.178775	1.178775	0	1	0	0	CorrectCommission	0.183688	0.954714	0	0	5.490000e+01
345.152954	1.279597	city	9	1	1.124156	1.124156	0	1	0	0	CorrectCommission	0.348503	0.928937	0	0	5.475000e+01
346.432556	1.279560	city	10	1	0.590238	0.590238	0	1	0	0	CorrectCommission	1.959644	0.893677	0	0	5.460000e+01
347.712128	1.279605	city	5	1	1.710633	1.710633	0	1	0	0	CorrectCommission	1.421237	0.851739	0	0	5.445000e+01
348.991699	1.279552	city	3	1	1.388996	1.388996	0	1	0	0	CorrectCommission	0.450671	0.806488	0	0	5.430000e+01
350.271210	1.279466	city	10	1	1.391457	1.391457	0	1	0	0	CorrectCommission	0.458099	0.761483	1	0	5.415000e+01
350.910950	12.182777	break	0	0	0.000000	1.349402	0	0	0	0	ThoughtProbe	0.331193	0.720074	1	54	54
363.733459	1.279446	mountain	8	0	0.000000	1.304431	1	0	0	0	CorrectOmission	0.195489	0.685134	1	0	5.422500e+01
365.012939	1.279547	mountain	7	0	0.000000	1.298144	1	0	0	0	CorrectOmission	0.176517	0.658877	1	0	5.445000e+01
366.292542	1.279675	city	1	1	1.372142	1.372142	0	1	0	0	CorrectCommission	0.399812	0.642672	1	0	5.467500e+01
367.572144	1.279515	city	7	1	1.568025	1.568025	0	1	0	0	CorrectCommission	0.990906	0.636996	1	0	5.490000e+01
368.851746	1.279709	city	9	1	1.658281	1.658281	0	1	0	0	CorrectCommission	1.263261	0.641419	1	0	5.512500e+01
370.131348	1.279446	city	2	1	1.314076	1.314076	0	1	0	0	CorrectCommission	0.224594	0.654661	1	0	5.535000e+01
371.410919	1.279712	city	4	1	1.017733	1.017733	0	1	0	0	CorrectCommission	0.669645	0.674650	1	0	5.557500e+01
372.690552	1.279584	city	8	1	1.230785	1.230785	0	1	0	0	CorrectCommission	0.026744	0.698599	1	0	5.580000e+01
373.970154	1.279577	city	1	1	1.235861	1.235861	0	1	0	0	CorrectCommission	0.011426	0.723275	1	0	5.602500e+01
375.249634	1.279426	city	7	1	1.281559	1.281559	0	1	0	0	CorrectCommission	0.126472	0.745251	1	0	5.625000e+01
376.529236	1.279726	city	4	1	0.890690	0.890690	0	1	0	0	CorrectCommission	1.053009	0.761245	1	0	5.647500e+01
377.815460	1.292751	city	3	1	0.644314	0.644314	0	1	0	0	CorrectCommission	1.796466	0.768622	1	0	5.670000e+01
379.101715	1.279766	city	10	1	0.484633	0.484633	0	1	0	0	CorrectCommission	2.278318	0.765772	1	0	5.692500e+01
380.381287	1.279396	city	7	1	0.493541	0.493541	0	1	0	0	CorrectCommission	2.251437	0.752360	1	0	5.715000e+01
381.660858	1.279733	city	1	1	1.176941	1.176941	0	1	0	0	CorrectCommission	0.189223	0.729507	1	0	5.737500e+01
382.940521	1.279580	city	8	1	1.071702	1.071702	0	1	0	0	CorrectCommission	0.506788	0.699668	1	0	5.760000e+01
384.220062	1.279497	city	10	1	1.230888	1.230888	0	1	0	0	CorrectCommission	0.026432	0.666197	1	0	5.782500e+01
385.499634	1.279667	city	3	1	1.370633	1.370633	0	1	0	0	CorrectCommission	0.395258	0.632943	1	0	5.805000e+01
386.779266	1.279597	city	9	1	1.301986	1.301986	0	1	0	0	CorrectCommission	0.188113	0.603724	1	0	5.827500e+01
388.058868	1.279580	mountain	6	0	0.000000	1.314736	1	0	0	0	CorrectOmission	0.226586	0.581839	1	0	5.850000e+01
389.338440	1.279559	city	8	1	1.373814	1.373814	0	1	0	0	CorrectCommission	0.404857	0.569714	1	0	5.872500e+01
390.617920	1.279437	city	9	1	1.444152	1.444152	0	1	0	0	CorrectCommission	0.617107	0.568720	1	0	5.895000e+01
391.897430	1.279581	city	10	1	1.138456	1.138456	0	1	0	0	CorrectCommission	0.305353	0.579089	1	0	5.917500e+01
393.177094	1.279734	city	4	1	1.175039	1.175039	0	1	0	0	CorrectCommission	0.194962	0.600052	1	0	5.940000e+01
394.456757	1.279591	city	7	1	1.017099	1.017099	0	1	0	0	CorrectCommission	0.671557	0.629990	1	0	5.962500e+01
395.736328	1.279553	city	4	1	1.071017	1.071017	0	1	0	0	CorrectCommission	0.508856	0.666675	1	0	5.985000e+01
397.022491	1.292758	city	2	1	1.147829	1.147829	0	1	0	0	CorrectCommission	0.277069	0.707559	1	0	6.007500e+01
398.308746	1.279745	city	7	1	1.636365	1.636365	0	1	0	0	CorrectCommission	1.197127	0.750036	1	0	6.030000e+01
399.588379	1.279558	city	6	1	0.644316	0.644316	0	1	0	0	CorrectCommission	1.796461	0.791560	0	0	6.052500e+01
400.867981	1.279601	city	1	1	1.177573	1.177573	0	1	0	0	CorrectCommission	0.187314	0.829865	0	0	6.075000e+01
402.147491	1.279464	city	9	1	1.513060	1.513060	0	1	0	0	CorrectCommission	0.825043	0.863051	0	0	6.097500e+01
403.427063	1.279675	city	2	1	0.539734	0.539734	0	1	0	0	CorrectCommission	2.112044	0.889529	0	0	6.120000e+01
404.706696	1.279600	city	8	1	1.260476	1.260476	0	1	0	0	CorrectCommission	0.062852	0.908077	0	0	6.142500e+01
405.992950	1.292913	city	9	1	1.465402	1.465402	0	1	0	0	CorrectCommission	0.681234	0.917903	0	0	6.165000e+01
407.279205	1.279578	city	7	1	1.608761	1.608761	0	1	0	0	CorrectCommission	1.113830	0.918609	0	0	6.187500e+01
408.558777	1.279556	city	6	1	1.403392	1.403392	0	1	0	0	CorrectCommission	0.494113	0.910308	0	0	6.210000e+01
409.838318	1.279507	city	7	1	1.817488	1.817488	0	1	0	0	CorrectCommission	1.743680	0.893738	0	0	6.232500e+01
411.117889	1.279653	city	2	1	2.115664	2.115664	0	1	0	0	CorrectCommission	2.643449	0.870228	0	0	6.255000e+01
412.397461	1.279479	city	8	1	1.124262	1.124262	0	1	0	0	CorrectCommission	0.348186	0.841711	0	0	6.277500e+01
417.015930	7.957482	break	0	0	0.000000	1.305429	0	0	0	0	ThoughtProbe	0.198499	0.810652	0	63	63
421.634399	1.279423	city	4	1	1.659273	1.659273	0	1	0	0	CorrectCommission	1.266253	0.779712	1	0	6.252174e+01
422.913879	1.279568	city	1	1	1.185903	1.185903	0	1	0	0	CorrectCommission	0.162180	0.751477	1	0	6.204348e+01
424.193542	1.279741	mountain	3	0	0.000000	1.093737	1	0	0	0	CorrectOmission	0.440298	0.728223	1	0	6.156522e+01
425.473206	1.279602	mountain	2	0	0.000000	1.177202	1	0	0	0	CorrectOmission	0.188436	0.711605	1	0	6.108696e+01
426.752716	1.279395	city	5	1	1.230724	1.230724	0	1	0	0	CorrectCommission	0.026926	0.702553	1	0	6.060870e+01
428.032227	1.279651	city	7	1	1.048732	1.048732	0	1	0	0	CorrectCommission	0.576103	0.701262	1	0	6.013043e+01
429.311829	1.279521	city	8	1	1.659797	1.659797	0	1	0	0	CorrectCommission	1.267835	0.707288	1	0	5.965217e+01
430.591370	1.279566	city	3	1	1.337580	1.337580	0	1	0	0	CorrectCommission	0.295518	0.719751	1	0	5.917391e+01
431.870941	1.279579	mountain	5	0	0.000000	1.559219	1	0	0	0	CorrectOmission	0.964331	0.737599	1	0	5.869565e+01
433.150604	1.279740	city	2	1	1.657206	1.657206	0	1	0	0	CorrectCommission	1.260017	0.759695	1	0	5.821739e+01
434.430176	1.279437	city	3	1	0.964035	0.964035	0	1	0	0	CorrectCommission	0.831682	0.784975	0	0	5.773913e+01
435.709747	1.279723	city	1	1	1.738511	1.738511	0	1	0	0	CorrectCommission	1.505362	0.812457	0	0	5.726087e+01
436.989349	1.279477	city	10	1	1.208186	1.208186	0	1	0	0	CorrectCommission	0.094938	0.841101	0	0	5.678261e+01
438.268860	1.279516	city	1	1	1.071104	1.071104	0	1	0	0	CorrectCommission	0.508594	0.869697	0	0	5.630435e+01
439.548523	1.279798	city	2	1	1.089615	1.089615	0	1	0	0	CorrectCommission	0.452735	0.896806	0	0	5.582609e+01
440.828186	1.279543	city	8	1	1.184648	1.184648	0	1	0	0	CorrectCommission	0.165966	0.920757	0	0	5.534783e+01
442.107727	1.279571	city	6	1	0.914620	0.914620	0	1	0	0	CorrectCommission	0.980798	0.939813	0	0	5.486957e+01
443.387268	1.279497	city	10	1	0.804264	0.804264	0	1	0	0	CorrectCommission	1.313806	0.952462	0	0	5.439130e+01
444.666870	1.279672	city	8	1	0.487627	0.487627	0	1	0	0	CorrectCommission	2.269282	0.957772	0	0	5.391304e+01
445.946411	1.279423	city	7	1	0.568791	0.568791	0	1	0	0	CorrectCommission	2.024364	0.955678	0	0	5.343478e+01
447.225983	1.279718	city	5	1	1.666574	1.666574	0	1	0	0	CorrectCommission	1.288284	0.947258	0	0	5.295652e+01
448.505615	1.279576	city	1	1	1.560038	1.560038	0	1	0	0	CorrectCommission	0.966803	0.934663	0	0	5.247826e+01
449.785217	1.279614	city	10	1	1.495053	1.495053	0	1	0	0	CorrectCommission	0.770706	0.920867	0	0	52
451.064789	1.279540	city	6	1	1.175199	1.175199	0	1	0	0	CorrectCommission	0.194477	0.909229	0	0	5.152174e+01
452.344299	1.279446	city	9	1	1.178146	1.178146	0	1	0	0	CorrectCommission	0.185586	0.902942	0	0	5.104348e+01
453.623840	1.279643	city	1	1	1.495634	1.495634	0	1	0	0	CorrectCommission	0.772460	0.904447	0	0	5.056522e+01
454.903412	1.279495	city	10	1	1.425058	1.425058	0	1	0	0	CorrectCommission	0.559490	0.915003	0	0	5.008696e+01
456.182953	1.279589	mountain	6	0	0.000000	1.393033	1	0	0	0	CorrectOmission	0.462853	0.934402	0	0	4.960870e+01
457.462524	1.279582	city	7	1	1.238019	1.238019	0	1	0	0	CorrectCommission	0.004915	0.960953	0	0	4.913043e+01
458.742188	1.279740	city	9	0	0.000000	0.798474	0	0	0	1	OmissionError	1.331278	0.991735	0	0	4.865217e+01
460.021759	1.279395	city	6	1	0.801819	0.801819	0	1	0	0	CorrectCommission	1.321184	1.022951	0	0	4.817391e+01
461.301270	1.279609	city	5	1	1.975475	1.975475	0	1	0	0	CorrectCommission	2.220419	1.050541	0	0	4.769565e+01
462.580841	1.279547	city	6	1	1.018503	1.018503	0	1	0	0	CorrectCommission	0.667322	1.070724	0	0	4.721739e+01
463.860474	1.279745	city	1	1	0.644517	0.644517	0	1	0	0	CorrectCommission	1.795854	1.080561	0	0	4.673913e+01
465.140137	1.279579	city	7	1	0.760590	0.760590	0	1	0	0	CorrectCommission	1.445594	1.078278	0	0	4.626087e+01
466.419739	1.279578	city	9	0	0.000000	0.802303	0	0	0	1	OmissionError	1.319723	1.063512	0	0	4.578261e+01
467.699280	1.279506	city	3	0	0.000000	0.808337	0	0	0	1	OmissionError	1.301514	1.037321	0	0	4.530435e+01
468.978851	1.279656	city	7	0	0.000000	0.817374	0	0	0	1	OmissionError	1.274245	1.002004	0	0	4.482609e+01
470.258453	1.279572	city	3	0	0.000000	0.868095	0	0	0	1	OmissionError	1.121189	0.960781	0	0	4.434783e+01
471.537994	1.279511	city	9	0	0.000000	0.999182	0	0	0	1	OmissionError	0.725623	0.917393	0	0	4.386957e+01
472.817596	1.279677	city	4	1	1.249317	1.249317	0	1	0	0	CorrectCommission	0.029178	0.875638	0	0	4.339130e+01
474.097198	1.279552	city	6	1	1.657180	1.657180	0	1	0	0	CorrectCommission	1.259939	0.838946	0	0	4.291304e+01
475.376770	1.279584	city	4	1	1.342558	1.342558	0	1	0	0	CorrectCommission	0.310541	0.809986	0	0	4.243478e+01
476.656372	1.279575	city	6	1	1.128889	1.128889	0	1	0	0	CorrectCommission	0.334223	0.790450	0	0	4.195652e+01
477.942596	1.292900	city	10	1	1.230605	1.230605	0	1	0	0	CorrectCommission	0.027287	0.780833	0	0	4.147826e+01
478.589050	15.688180	break	0	1	0.753109	0.753109	0	0	0	0	ThoughtProbe	1.468169	0.780496	0	41	41
494.917023	1.279596	city	10	1	1.084536	1.084536	0	1	0	0	CorrectCommission	0.468062	0.787716	0	0	4.178261e+01
496.196533	1.279421	city	8	1	1.022771	1.022771	0	1	0	0	CorrectCommission	0.654443	0.800039	0	0	4.256522e+01
497.476105	1.279729	city	3	1	1.017078	1.017078	0	1	0	0	CorrectCommission	0.671620	0.814525	0	0	4.334783e+01
498.755768	1.279591	city	10	1	1.017527	1.017527	0	1	0	0	CorrectCommission	0.670267	0.828172	0	0	4.413043e+01
500.035278	1.279421	city	1	1	0.912864	0.912864	0	1	0	0	CorrectCommission	0.986097	0.838338	0	0	4.491304e+01
501.314758	1.279573	city	3	1	0.802174	0.802174	0	1	0	0	CorrectCommission	1.320111	0.843066	0	0	4.569565e+01
502.594421	1.279729	mountain	10	0	0.000000	0.722585	1	0	0	0	CorrectOmission	1.560277	0.841368	0	0	4.647826e+01
503.874084	1.279592	city	10	1	0.750964	0.750964	0	1	0	0	CorrectCommission	1.474641	0.833364	0	0	4.726087e+01
505.153564	1.279394	city	3	1	0.964178	0.964178	0	1	0	0	CorrectCommission	0.831251	0.820276	0	0	4.804348e+01
506.433167	1.279790	city	7	1	1.602043	1.602043	0	1	0	0	CorrectCommission	1.093557	0.804190	0	0	4.882609e+01
507.712738	1.279368	city	2	1	1.429520	1.429520	0	1	0	0	CorrectCommission	0.572955	0.787710	0	0	4.960870e+01
508.998993	1.293101	mountain	5	0	0.000000	1.310580	1	0	0	0	CorrectOmission	0.214046	0.773541	1	0	5.039130e+01
510.285309	1.279557	city	3	1	1.231218	1.231218	0	1	0	0	CorrectCommission	0.025438	0.764054	1	0	5.117391e+01
511.564911	1.279625	city	10	1	1.177425	1.177425	0	1	0	0	CorrectCommission	0.187761	0.760923	1	0	5.195652e+01
512.844421	1.279364	city	9	1	1.229026	1.229026	0	1	0	0	CorrectCommission	0.032053	0.764894	1	0	5.273913e+01
514.123840	1.279580	city	8	1	0.751124	0.751124	0	1	0	0	CorrectCommission	1.474157	0.775757	1	0	5.352174e+01
515.403442	1.279577	city	1	1	0.697786	0.697786	0	1	0	0	CorrectCommission	1.635110	0.792419	0	0	5.430435e+01
516.683044	1.279582	city	4	1	1.156783	1.156783	0	1	0	0	CorrectCommission	0.250050	0.813156	0	0	5.508696e+01
517.962708	1.279737	city	2	1	0.858182	0.858182	0	1	0	0	CorrectCommission	1.151102	0.835944	0	0	5.586957e+01
519.242371	1.279575	mountain	8	0	0.000000	1.286334	1	0	0	0	CorrectOmission	0.140880	0.858724	0	0	5.665217e+01
520.521912	1.279608	city	6	1	1.729112	1.729112	0	1	0	0	CorrectCommission	1.476999	0.879753	0	0	5.743478e+01
521.801453	1.279403	city	2	1	1.474392	1.474392	0	1	0	0	CorrectCommission	0.708360	0.897728	0	0	5.821739e+01
523.080933	1.279604	city	8	1	1.017650	1.017650	0	1	0	0	CorrectCommission	0.669897	0.912064	0	0	59
524.360596	1.279708	city	5	1	0.707528	0.707528	0	1	0	0	CorrectCommission	1.605713	0.922852	0	0	5.978261e+01
525.640259	1.279579	city	7	1	0.603240	0.603240	0	1	0	0	CorrectCommission	1.920410	0.930772	0	0	6.056522e+01
526.919800	1.279580	city	5	1	1.507422	1.507422	0	1	0	0	CorrectCommission	0.808032	0.936920	0	0	6.134783e+01
528.199402	1.279527	city	4	1	1.556198	1.556198	0	1	0	0	CorrectCommission	0.955216	0.942524	0	0	6.213043e+01
529.478882	1.279495	city	2	1	1.071747	1.071747	0	1	0	0	CorrectCommission	0.506654	0.948548	0	0	6.291304e+01
530.758484	1.279738	city	4	1	1.294032	1.294032	0	1	0	0	CorrectCommission	0.164108	0.955411	0	0	6.369565e+01
532.038086	1.279421	mountain	6	0	0.000000	1.417310	1	0	0	0	CorrectOmission	0.536111	0.962757	0	0	6.447826e+01
533.318298	1.281031	city	2	1	1.317052	1.317052	0	1	0	0	CorrectCommission	0.233575	0.969404	0	0	6.526087e+01
534.597961	1.278261	city	1	1	0.868727	0.868727	0	1	0	0	CorrectCommission	1.119284	0.973490	0	0	6.604348e+01
535.876892	1.279577	city	8	1	0.589267	0.589267	0	1	0	0	CorrectCommission	1.962575	0.972740	0	0	6.682609e+01
537.156372	1.279445	city	1	1	0.751734	0.751734	0	1	0	0	CorrectCommission	1.472317	0.964875	0	0	6.760870e+01
538.435974	1.279742	city	3	1	0.644549	0.644549	0	1	0	0	CorrectCommission	1.795757	0.948090	0	0	6.839130e+01
539.715576	1.279462	city	1	1	1.604068	1.604068	0	1	0	0	CorrectCommission	1.099668	0.921299	0	0	6.917391e+01
540.995178	1.279696	city	9	1	1.603967	1.603967	0	1	0	0	CorrectCommission	1.099362	0.884396	0	0	6.995652e+01
542.274780	1.279578	city	10	1	1.283378	1.283378	0	1	0	0	CorrectCommission	0.131960	0.838189	0	0	7.073913e+01
543.554260	1.279388	city	7	1	1.825393	1.825393	0	1	0	0	CorrectCommission	1.767534	0.784302	0	0	7.152174e+01
544.833801	1.279657	city	9	1	1.502899	1.502899	0	1	0	0	CorrectCommission	0.794381	0.724816	1	0	7.230435e+01
546.113464	1.279665	city	10	1	1.284203	1.284203	0	1	0	0	CorrectCommission	0.134450	0.661979	1	0	7.308696e+01
547.393066	1.279576	city	1	1	1.178363	1.178363	0	1	0	0	CorrectCommission	0.184930	0.597836	1	0	7.386957e+01
548.672668	1.279608	city	5	1	1.100222	1.100222	0	1	0	0	CorrectCommission	0.420728	0.533879	1	0	7.465217e+01
549.952271	1.279574	city	7	1	1.124145	1.124145	0	1	0	0	CorrectCommission	0.348537	0.470940	1	0	7.543478e+01
551.238403	1.292749	city	8	1	1.136795	1.136795	0	1	0	0	CorrectCommission	0.310366	0.409168	1	0	7.621739e+01
551.884827	9.997052	break	0	0	1.124278	1.124278	0	0	0	0	ThoughtProbe	0.348136	0.348136	1	77	77
