onset	duration	trial_type	image_type	Press	ReactionTime	ReactionTime_Interpolated	CorrectOmission	CorrectCommission	CommissionError	OmissionError	response_type	nonsmoothVarianceTimeCourse	VarianceTimeCourse	In_the_Zone	ThoughtProbe	ThoughtProbe_Interpolated
0.653222	1.279415	city	2	1	1.579724	1.579724	0	1	0	0	CorrectCommission	1.814166	1.814166	0	0	19
1.946079	1.306298	city	5	1	1.144521	1.144521	0	1	0	0	CorrectCommission	0.244358	1.639244	0	0	19
3.245721	1.292985	city	1	1	1.209784	1.209784	0	1	0	0	CorrectCommission	0.064339	1.472217	0	0	19
4.531920	1.279413	city	5	1	1.089825	1.089825	0	1	0	0	CorrectCommission	0.503073	1.320005	0	0	19
5.811496	1.279740	mountain	5	0	0.000000	1.100135	1	0	0	0	CorrectOmission	0.454308	1.187786	0	0	19
7.091031	1.279329	mountain	9	0	0.000000	1.147355	1	0	0	0	CorrectOmission	0.230954	1.078535	0	0	19
8.370609	1.279826	city	7	1	1.138127	1.138127	0	1	0	0	CorrectCommission	0.274602	0.992916	0	0	19
9.656915	1.292786	city	1	1	0.979093	0.979093	0	1	0	0	CorrectCommission	1.026840	0.929452	0	0	19
10.943079	1.279543	city	8	1	1.042646	1.042646	0	1	0	0	CorrectCommission	0.726233	0.885040	0	0	19
12.229296	1.292889	city	6	1	0.911475	0.911475	0	1	0	0	CorrectCommission	1.346672	0.855583	0	0	19
13.522243	1.293007	city	9	1	0.817972	0.817972	0	1	0	0	CorrectCommission	1.788945	0.836652	0	0	19
14.808534	1.279573	mountain	6	0	0.000000	1.044562	1	0	0	0	CorrectOmission	0.717167	0.824051	0	0	19
16.101393	1.306147	city	8	1	1.272131	1.272131	0	1	0	0	CorrectCommission	0.359242	0.814280	0	0	19
17.394270	1.279605	city	1	1	1.181566	1.181566	0	1	0	0	CorrectCommission	0.069137	0.804755	0	0	19
18.673943	1.279741	city	4	1	1.514739	1.514739	0	1	0	0	CorrectCommission	1.506786	0.793846	1	0	19
19.953508	1.279389	city	5	1	1.043848	1.043848	0	1	0	0	CorrectCommission	0.720543	0.780841	1	0	19
21.246412	1.306421	city	8	1	0.870869	0.870869	0	1	0	0	CorrectCommission	1.538744	0.765847	1	0	19
22.546064	1.292882	city	1	1	1.081729	1.081729	0	1	0	0	CorrectCommission	0.541365	0.749565	1	0	19
23.832275	1.279540	city	5	1	1.234111	1.234111	0	1	0	0	CorrectCommission	0.179404	0.733136	1	0	19
25.118446	1.292800	city	10	1	1.020417	1.020417	0	1	0	0	CorrectCommission	0.831375	0.717929	1	0	19
26.404718	1.279745	city	2	1	1.337869	1.337869	0	1	0	0	CorrectCommission	0.670185	0.705356	1	0	19
27.684374	1.279569	city	7	1	1.449867	1.449867	0	1	0	0	CorrectCommission	1.199938	0.696698	1	0	19
28.970554	1.292790	city	8	1	1.137871	1.137871	0	1	0	0	CorrectCommission	0.275812	0.692982	1	0	19
30.256760	1.279622	city	1	1	1.231582	1.231582	0	1	0	0	CorrectCommission	0.167442	0.694914	1	0	19
31.549667	1.306193	city	2	1	1.151028	1.151028	0	1	0	0	CorrectCommission	0.213579	0.702755	1	0	19
32.842552	1.279579	city	8	1	1.025060	1.025060	0	1	0	0	CorrectCommission	0.809415	0.716293	1	0	19
34.122116	1.279543	city	2	1	0.965745	0.965745	0	1	0	0	CorrectCommission	1.089975	0.734864	1	0	19
35.401768	1.279763	mountain	1	0	0.000000	1.034296	1	0	0	0	CorrectOmission	0.765729	0.757432	1	0	19
36.681362	1.279424	city	4	1	1.087767	1.087767	0	1	0	0	CorrectCommission	0.512807	0.782640	1	0	19
37.967590	1.293033	city	9	1	0.983215	0.983215	0	1	0	0	CorrectCommission	1.007341	0.808921	0	0	19
39.253845	1.279475	city	7	1	1.299692	1.299692	0	1	0	0	CorrectCommission	0.489603	0.834635	0	0	19
40.533436	1.279712	city	5	1	1.231355	1.231355	0	1	0	0	CorrectCommission	0.166370	0.858233	0	0	19
41.819656	1.292725	city	7	1	1.682307	1.682307	0	1	0	0	CorrectCommission	2.299389	0.878350	0	0	19
43.105850	1.279661	city	4	1	0.964919	0.964919	0	1	0	0	CorrectCommission	1.093885	0.893915	0	0	19
44.385426	1.279489	city	1	1	0.938806	0.938806	0	1	0	0	CorrectCommission	1.217396	0.904288	0	0	19
45.671696	1.293055	city	3	1	1.101375	1.101375	0	1	0	0	CorrectCommission	0.448440	0.909218	0	0	19
46.978027	1.319605	city	5	1	1.395068	1.395068	0	1	0	0	CorrectCommission	0.940738	0.908856	0	0	19
48.284187	1.292717	city	3	1	1.261177	1.261177	0	1	0	0	CorrectCommission	0.307427	0.903684	0	0	19
49.577080	1.293065	city	10	1	1.422167	1.422167	0	1	0	0	CorrectCommission	1.068917	0.894467	0	0	19
50.876656	1.306091	city	7	1	1.741768	1.741768	0	1	0	0	CorrectCommission	2.580641	0.882135	0	0	19
52.176151	1.292896	city	3	1	1.084630	1.084630	0	1	0	0	CorrectCommission	0.527645	0.867673	0	0	19
53.469162	1.293132	city	6	1	1.140854	1.140854	0	1	0	0	CorrectCommission	0.261704	0.852082	0	0	19
54.755405	1.279352	city	10	1	1.139985	1.139985	0	1	0	0	CorrectCommission	0.265816	0.836273	0	0	19
56.061623	1.333084	city	8	1	1.355062	1.355062	0	1	0	0	CorrectCommission	0.751507	0.821016	0	0	19
57.374607	1.292880	city	7	1	1.101905	1.101905	0	1	0	0	CorrectCommission	0.445936	0.806958	0	0	19
61.526543	7.010996	break	0	0	0.000000	1.408345	0	0	0	0	ThoughtProbe	1.003539	0.794678	1	19	19
65.671852	1.279614	city	6	1	1.618362	1.618362	0	1	0	0	CorrectCommission	1.996926	0.784702	1	0	2.034783e+01
66.951393	1.279471	city	10	1	1.075934	1.075934	0	1	0	0	CorrectCommission	0.568776	0.777535	1	0	2.169565e+01
68.244286	1.306318	city	7	1	1.106335	1.106335	0	1	0	0	CorrectCommission	0.424979	0.773724	1	0	2.304348e+01
69.537247	1.279609	city	4	1	1.124487	1.124487	0	1	0	0	CorrectCommission	0.339122	0.773725	1	0	2.439130e+01
70.830101	1.306097	city	8	1	0.994061	0.994061	0	1	0	0	CorrectCommission	0.956039	0.777839	1	0	2.573913e+01
72.129608	1.292914	mountain	4	0	0.000000	1.261531	1	0	0	0	CorrectOmission	0.309103	0.786044	1	0	2.708696e+01
73.415848	1.279561	city	5	1	1.456365	1.456365	0	1	0	0	CorrectCommission	1.230674	0.797979	0	0	2.843478e+01
74.702103	1.292949	city	1	1	1.108030	1.108030	0	1	0	0	CorrectCommission	0.416960	0.812824	0	0	2.978261e+01
75.988335	1.279522	city	10	1	1.247848	1.247848	0	1	0	0	CorrectCommission	0.244379	0.829380	0	0	3.113043e+01
77.267868	1.279537	city	6	1	1.406484	1.406484	0	1	0	0	CorrectCommission	0.994733	0.846186	0	0	3.247826e+01
78.574135	1.332997	city	5	1	1.338039	1.338039	0	1	0	0	CorrectCommission	0.670990	0.861665	0	0	3.382609e+01
79.887138	1.293005	mountain	5	0	0.000000	1.477861	1	0	0	0	CorrectOmission	1.332353	0.874426	0	0	3.517391e+01
81.180115	1.292959	city	5	1	1.595806	1.595806	0	1	0	0	CorrectCommission	1.890236	0.883360	0	0	3.652174e+01
82.492935	1.332683	city	7	1	1.461731	1.461731	0	1	0	0	CorrectCommission	1.256054	0.887905	0	0	3.786957e+01
83.799164	1.279767	city	2	1	1.182376	1.182376	0	1	0	0	CorrectCommission	0.065304	0.888037	0	0	3.921739e+01
85.078773	1.279450	city	1	1	1.514544	1.514544	0	1	0	0	CorrectCommission	1.505861	0.884230	0	0	4.056522e+01
86.378372	1.319747	city	5	1	1.481741	1.481741	0	1	0	0	CorrectCommission	1.350702	0.877316	0	0	4.191304e+01
87.724564	1.372647	city	8	1	1.267384	1.267384	0	1	0	0	CorrectCommission	0.336789	0.868363	0	0	4.326087e+01
89.050774	1.279771	mountain	3	0	0.000000	1.222254	1	0	0	0	CorrectOmission	0.123322	0.858499	0	0	4.460870e+01
90.337029	1.292737	city	2	1	1.262973	1.262973	0	1	0	0	CorrectCommission	0.315922	0.848774	0	0	4.595652e+01
91.643272	1.319752	city	4	1	1.306161	1.306161	0	1	0	0	CorrectCommission	0.520205	0.840130	0	0	4.730435e+01
92.942841	1.279374	city	8	1	0.857913	0.857913	0	1	0	0	CorrectCommission	1.600025	0.833448	0	0	4.865217e+01
94.229057	1.293062	city	6	1	0.882816	0.882816	0	1	0	0	CorrectCommission	1.482234	0.829524	0	0	50
95.528725	1.306269	city	3	1	0.873117	0.873117	0	1	0	0	CorrectCommission	1.528110	0.829171	0	0	5.134783e+01
96.821548	1.279386	city	2	1	1.124381	1.124381	0	1	0	0	CorrectCommission	0.339619	0.833120	0	0	5.269565e+01
98.107773	1.293069	city	4	1	1.036931	1.036931	0	1	0	0	CorrectCommission	0.753264	0.841924	0	0	5.404348e+01
99.400696	1.292771	mountain	6	0	0.000000	1.224732	1	0	0	0	CorrectOmission	0.135044	0.855664	0	0	5.539130e+01
100.686943	1.279720	city	9	1	1.357198	1.357198	0	1	0	0	CorrectCommission	0.761611	0.873831	0	0	5.673913e+01
101.973259	1.292908	city	1	1	1.103739	1.103739	0	1	0	0	CorrectCommission	0.437259	0.895103	0	0	5.808696e+01
103.292847	1.346276	city	9	1	1.178731	1.178731	0	1	0	0	CorrectCommission	0.082542	0.917417	0	0	5.943478e+01
104.612358	1.292744	city	10	1	0.974838	0.974838	0	1	0	0	CorrectCommission	1.046966	0.938127	0	0	6.078261e+01
105.931824	1.346192	city	3	1	1.220864	1.220864	0	1	0	0	CorrectCommission	0.116747	0.954314	0	0	6.213043e+01
107.244797	1.279753	city	9	1	0.537690	0.537690	0	1	0	0	CorrectCommission	3.114690	0.963308	0	0	6.347826e+01
108.524452	1.279550	city	6	1	0.783238	0.783238	0	1	0	0	CorrectCommission	1.953237	0.963052	0	0	6.482609e+01
109.817268	1.306093	city	9	1	0.834574	0.834574	0	1	0	0	CorrectCommission	1.710420	0.952602	0	0	6.617391e+01
111.110184	1.279742	city	10	1	0.913768	0.913768	0	1	0	0	CorrectCommission	1.335828	0.932233	0	0	6.752174e+01
112.389870	1.279617	city	3	1	1.284200	1.284200	0	1	0	0	CorrectCommission	0.416326	0.903495	0	0	6.886957e+01
113.676018	1.292682	city	7	1	1.141643	1.141643	0	1	0	0	CorrectCommission	0.257970	0.868937	0	0	7.021739e+01
114.962196	1.279680	city	1	1	1.090474	1.090474	0	1	0	0	CorrectCommission	0.500002	0.831724	0	0	7.156522e+01
116.248444	1.292809	city	7	1	1.123810	1.123810	0	1	0	0	CorrectCommission	0.342325	0.795253	1	0	7.291304e+01
117.548058	1.306420	city	10	1	0.901035	0.901035	0	1	0	0	CorrectCommission	1.396056	0.762744	1	0	7.426087e+01
118.874344	1.346152	city	1	1	1.094111	1.094111	0	1	0	0	CorrectCommission	0.482801	0.736863	1	0	7.560870e+01
120.200569	1.306306	city	7	1	1.205721	1.205721	0	1	0	0	CorrectCommission	0.045119	0.719587	1	0	7.695652e+01
121.500175	1.292906	city	4	1	1.090298	1.090298	0	1	0	0	CorrectCommission	0.500833	0.712045	1	0	7.830435e+01
122.793068	1.292883	city	9	1	0.932376	0.932376	0	1	0	0	CorrectCommission	1.247813	0.714511	1	0	7.965217e+01
126.578430	6.277837	break	0	0	0.000000	1.085037	0	0	0	0	ThoughtProbe	0.525718	0.726436	1	81	81
130.357208	1.279710	city	2	1	1.282887	1.282887	0	1	0	0	CorrectCommission	0.410119	0.746638	1	0	7.902500e+01
131.643433	1.292755	city	7	1	1.260530	1.260530	0	1	0	0	CorrectCommission	0.304366	0.773376	1	0	7.705000e+01
132.949677	1.319729	city	2	1	1.130062	1.130062	0	1	0	0	CorrectCommission	0.312751	0.804557	0	0	7.507500e+01
134.255936	1.292790	city	1	1	0.983457	0.983457	0	1	0	0	CorrectCommission	1.006195	0.837898	0	0	7.310000e+01
135.555511	1.306347	city	9	1	0.847554	0.847554	0	1	0	0	CorrectCommission	1.649021	0.871134	0	0	7.112500e+01
136.861801	1.306248	city	10	1	0.983667	0.983667	0	1	0	0	CorrectCommission	1.005203	0.902230	0	0	6.915000e+01
138.154648	1.279427	city	1	1	0.884069	0.884069	0	1	0	0	CorrectCommission	1.476306	0.929501	0	0	6.717500e+01
139.434219	1.279722	city	3	1	1.037810	1.037810	0	1	0	0	CorrectCommission	0.749107	0.951736	0	0	6.520000e+01
140.727112	1.306076	city	7	1	1.206808	1.206808	0	1	0	0	CorrectCommission	0.050259	0.968209	0	0	6.322500e+01
142.019958	1.279613	mountain	3	0	0.000000	1.544691	1	0	0	0	CorrectOmission	1.648459	0.978705	0	0	6.125000e+01
143.306198	1.292854	city	6	1	1.627019	1.627019	0	1	0	0	CorrectCommission	2.037873	0.983408	0	0	5.927500e+01
144.612442	1.319646	city	2	1	1.029351	1.029351	0	1	0	0	CorrectCommission	0.789118	0.982828	0	0	5.730000e+01
145.912094	1.279666	city	7	1	1.356706	1.356706	0	1	0	0	CorrectCommission	0.759283	0.977710	0	0	5.532500e+01
147.198349	1.292833	mountain	5	0	0.000000	1.398806	1	0	0	0	CorrectOmission	0.958417	0.968809	0	0	5.335000e+01
148.517853	1.346179	city	9	1	1.260577	1.260577	0	1	0	0	CorrectCommission	0.304590	0.956808	0	0	5.137500e+01
149.837418	1.292954	city	4	1	1.046946	1.046946	0	1	0	0	CorrectCommission	0.705892	0.942256	0	0	4.940000e+01
151.143646	1.319487	city	5	1	0.885848	0.885848	0	1	0	0	CorrectCommission	1.467890	0.925509	0	0	4.742500e+01
152.443466	1.280165	city	8	1	0.807742	0.807742	0	1	0	0	CorrectCommission	1.837333	0.906789	0	0	4.545000e+01
153.736359	1.305627	city	5	1	1.137829	1.137829	0	1	0	0	CorrectCommission	0.276014	0.886227	0	0	4.347500e+01
155.035629	1.292908	city	2	1	1.050682	1.050682	0	1	0	0	CorrectCommission	0.688222	0.863983	0	0	4.150000e+01
156.335297	1.306434	city	9	1	0.974940	0.974940	0	1	0	0	CorrectCommission	1.046484	0.840268	0	0	3.952500e+01
157.634903	1.292761	city	2	1	0.943888	0.943888	0	1	0	0	CorrectCommission	1.193359	0.815484	0	0	3.755000e+01
158.927719	1.292867	city	6	1	1.130189	1.130189	0	1	0	0	CorrectCommission	0.312150	0.790252	1	0	3.557500e+01
160.227356	1.306418	city	4	1	1.125413	1.125413	0	1	0	0	CorrectCommission	0.334742	0.765449	1	0	3.360000e+01
161.526932	1.292743	city	8	1	0.927012	0.927012	0	1	0	0	CorrectCommission	1.273184	0.742147	1	0	3.162500e+01
162.853165	1.359718	city	4	1	1.018327	1.018327	0	1	0	0	CorrectCommission	0.841261	0.721554	1	0	2.965000e+01
164.199463	1.332871	city	5	1	0.996575	0.996575	0	1	0	0	CorrectCommission	0.944150	0.704927	1	0	2.767500e+01
165.512375	1.292954	city	7	1	1.067564	1.067564	0	1	0	0	CorrectCommission	0.608368	0.693383	1	0	2.570000e+01
166.811874	1.306038	city	4	1	1.182538	1.182538	0	1	0	0	CorrectCommission	0.064538	0.687728	1	0	2.372500e+01
168.104706	1.279624	city	6	1	1.037919	1.037919	0	1	0	0	CorrectCommission	0.748588	0.688289	1	0	2.175000e+01
169.384323	1.279621	mountain	4	0	0.000000	1.202387	1	0	0	0	CorrectOmission	0.029347	0.694752	1	0	1.977500e+01
170.670639	1.292995	city	5	1	1.370217	1.370217	0	1	0	0	CorrectCommission	0.823191	0.706130	1	0	1.780000e+01
171.970230	1.306213	city	2	1	1.235689	1.235689	0	1	0	0	CorrectCommission	0.186870	0.720789	1	0	1.582500e+01
173.263046	1.279421	city	7	1	1.326729	1.326729	0	1	0	0	CorrectCommission	0.617489	0.736712	1	0	1.385000e+01
174.582565	1.359597	city	9	1	1.120081	1.120081	0	1	0	0	CorrectCommission	0.359961	0.751701	1	0	1.187500e+01
175.908798	1.292868	city	5	1	0.883074	0.883074	0	1	0	0	CorrectCommission	1.481013	0.763732	1	0	9.900000e+00
177.195007	1.279572	city	3	1	0.652370	0.652370	0	1	0	0	CorrectCommission	2.572247	0.771218	1	0	7.925000e+00
178.481277	1.292957	city	5	1	1.423918	1.423918	0	1	0	0	CorrectCommission	1.077197	0.773224	1	0	5.950000e+00
179.820923	1.386318	city	8	1	1.171288	1.171288	0	1	0	0	CorrectCommission	0.117752	0.769610	1	0	3.975000e+00
183.792923	6.557711	break	0	0	0.000000	1.261185	0	0	0	0	ThoughtProbe	0.307466	0.760864	1	2	2
187.711563	1.279553	city	10	1	1.413171	1.413171	0	1	0	0	CorrectCommission	1.026363	0.748005	1	0	2.941176e+00
188.991180	1.279694	city	8	1	1.346804	1.346804	0	1	0	0	CorrectCommission	0.712447	0.732344	1	0	3.882353e+00
190.310837	1.359618	mountain	10	0	0.000000	1.291876	1	0	0	0	CorrectOmission	0.452633	0.715276	1	0	4.823529e+00
191.637009	1.292731	city	5	1	1.190970	1.190970	0	1	0	0	CorrectCommission	0.024652	0.698119	1	0	5.764706e+00
192.923264	1.279765	city	3	1	0.986673	0.986673	0	1	0	0	CorrectCommission	0.990983	0.682079	1	0	6.705882e+00
194.216278	1.306256	city	10	1	0.940189	0.940189	0	1	0	0	CorrectCommission	1.210854	0.668262	1	0	7.647059e+00
195.522415	1.306034	city	7	1	1.116930	1.116930	0	1	0	0	CorrectCommission	0.374865	0.657719	1	0	8.588235e+00
196.835281	1.319707	city	1	1	1.078647	1.078647	0	1	0	0	CorrectCommission	0.555946	0.651589	1	0	9.529412e+00
198.161514	1.332750	city	9	1	0.994357	0.994357	0	1	0	0	CorrectCommission	0.954639	0.651042	1	0	1.047059e+01
199.514389	1.372981	city	8	1	1.039669	1.039669	0	1	0	0	CorrectCommission	0.740313	0.657275	1	0	1.141176e+01
200.840668	1.279605	mountain	10	0	0.000000	1.093266	1	0	0	0	CorrectOmission	0.486797	0.671340	1	0	1.235294e+01
202.146866	1.332764	city	1	1	1.122502	1.122502	0	1	0	0	CorrectCommission	0.348510	0.693929	1	0	1.329412e+01
203.466400	1.306303	city	10	1	1.094731	1.094731	0	1	0	0	CorrectCommission	0.479867	0.725136	1	0	1.423529e+01
204.779327	1.319560	city	3	1	1.146186	1.146186	0	1	0	0	CorrectCommission	0.236485	0.764213	1	0	1.517647e+01
206.085632	1.293044	city	8	1	1.116474	1.116474	0	1	0	0	CorrectCommission	0.377022	0.809539	0	0	1.611765e+01
207.378586	1.292878	city	5	1	1.088324	1.088324	0	1	0	0	CorrectCommission	0.510173	0.858560	0	0	1.705882e+01
208.671417	1.292772	city	2	1	1.296990	1.296990	0	1	0	0	CorrectCommission	0.476825	0.908102	0	0	18
209.985184	1.334780	city	7	1	1.604324	1.604324	0	1	0	0	CorrectCommission	1.930524	0.954718	0	0	1.894118e+01
211.304749	1.304324	city	4	1	1.087819	1.087819	0	1	0	0	CorrectCommission	0.512563	0.995144	0	0	1.988235e+01
212.596756	1.279706	city	5	1	0.824535	0.824535	0	1	0	0	CorrectCommission	1.757902	1.026905	0	0	2.082353e+01
213.883087	1.292954	city	7	1	0.564982	0.564982	0	1	0	0	CorrectCommission	2.985598	1.048592	0	0	2.176471e+01
215.176025	1.292923	city	3	1	0.804659	0.804659	0	1	0	0	CorrectCommission	1.851917	1.060093	0	0	2.270588e+01
216.495590	1.346204	city	1	1	1.301675	1.301675	0	1	0	0	CorrectCommission	0.498984	1.062599	0	0	2.364706e+01
217.855133	1.372884	city	3	1	1.171695	1.171695	0	1	0	0	CorrectCommission	0.115825	1.058326	0	0	2.458824e+01
219.188004	1.292846	city	1	1	1.531934	1.531934	0	1	0	0	CorrectCommission	1.588118	1.050039	0	0	2.552941e+01
220.480789	1.292720	city	2	1	1.253928	1.253928	0	1	0	0	CorrectCommission	0.273141	1.040525	0	0	2.647059e+01
221.780350	1.306420	city	3	1	1.394289	1.394289	0	1	0	0	CorrectCommission	0.937053	1.032139	0	0	2.741176e+01
223.120041	1.372963	city	4	1	1.306287	1.306287	0	1	0	0	CorrectCommission	0.520798	1.026329	0	0	2.835294e+01
224.472916	1.332796	city	8	1	0.889173	0.889173	0	1	0	0	CorrectCommission	1.452163	1.023497	0	0	2.929412e+01
225.799149	1.319642	city	2	1	1.150746	1.150746	0	1	0	0	CorrectCommission	0.214915	1.022934	0	0	3.023529e+01
227.098740	1.279558	city	5	1	1.410735	1.410735	0	1	0	0	CorrectCommission	1.014842	1.023047	0	0	3.117647e+01
228.378265	1.279474	city	4	1	1.434614	1.434614	0	1	0	0	CorrectCommission	1.127793	1.021625	0	0	3.211765e+01
229.684509	1.333021	city	8	1	0.958667	0.958667	0	1	0	0	CorrectCommission	1.123456	1.016317	0	0	3.305882e+01
233.469940	6.237850	break	0	1	0.555563	0.555563	0	0	0	0	ThoughtProbe	3.030148	1.005016	0	34	34
237.255295	1.332847	city	8	1	1.302611	1.302611	0	1	0	0	CorrectCommission	0.503414	0.986171	0	0	3.488235e+01
238.568253	1.293080	city	2	1	0.999416	0.999416	0	1	0	0	CorrectCommission	0.930709	0.959133	0	0	3.576471e+01
239.881165	1.332744	city	7	1	1.057296	1.057296	0	1	0	0	CorrectCommission	0.656935	0.924133	0	0	3.664706e+01
241.187332	1.279596	mountain	10	0	0.000000	1.013023	1	0	0	0	CorrectOmission	0.866347	0.882326	0	0	3.752941e+01
242.493637	1.332996	city	10	1	0.943661	0.943661	0	1	0	0	CorrectCommission	1.194435	0.835658	0	0	3.841176e+01
243.826553	1.332841	city	9	1	0.926271	0.926271	0	1	0	0	CorrectCommission	1.276688	0.786605	1	0	3.929412e+01
245.146133	1.306328	city	5	1	1.084907	1.084907	0	1	0	0	CorrectCommission	0.526334	0.738005	1	0	4.017647e+01
246.445663	1.292716	city	9	1	1.265151	1.265151	0	1	0	0	CorrectCommission	0.326225	0.692710	1	0	4.105882e+01
247.738464	1.292904	city	2	1	1.283023	1.283023	0	1	0	0	CorrectCommission	0.410760	0.653314	1	0	4.194118e+01
249.038040	1.306241	city	9	1	1.286792	1.286792	0	1	0	0	CorrectCommission	0.428588	0.621930	1	0	4.282353e+01
250.344284	1.306259	city	2	1	1.083370	1.083370	0	1	0	0	CorrectCommission	0.533607	0.600011	1	0	4.370588e+01
251.663849	1.332876	city	10	1	1.226481	1.226481	0	1	0	0	CorrectCommission	0.143313	0.588208	1	0	4.458824e+01
252.983444	1.306288	city	8	1	1.225489	1.225489	0	1	0	0	CorrectCommission	0.138622	0.586291	1	0	4.547059e+01
254.283112	1.293051	city	3	1	1.138474	1.138474	0	1	0	0	CorrectCommission	0.272960	0.593238	1	0	4.635294e+01
255.576904	1.294533	city	2	1	1.443043	1.443043	0	1	0	0	CorrectCommission	1.167662	0.607337	1	0	4.723529e+01
256.876465	1.304580	city	10	1	1.141782	1.141782	0	1	0	0	CorrectCommission	0.257314	0.626428	1	0	4.811765e+01
258.181824	1.306130	city	5	1	1.225924	1.225924	0	1	0	0	CorrectCommission	0.140681	0.648159	1	0	49
259.474670	1.279616	city	7	1	1.411527	1.411527	0	1	0	0	CorrectCommission	1.018590	0.670279	1	0	4.988235e+01
260.760925	1.292857	city	2	1	1.460406	1.460406	0	1	0	0	CorrectCommission	1.249787	0.690833	1	0	5.076471e+01
262.067200	1.319704	city	3	1	1.550168	1.550168	0	1	0	0	CorrectCommission	1.674364	0.708387	1	0	5.164706e+01
263.380188	1.306275	city	8	1	1.106486	1.106486	0	1	0	0	CorrectCommission	0.424265	0.722135	1	0	5.252941e+01
264.673096	1.279546	city	5	1	1.102040	1.102040	0	1	0	0	CorrectCommission	0.445297	0.731887	1	0	5.341176e+01
265.959229	1.292723	mountain	7	1	1.128655	1.128655	0	0	1	0	CommissionError	0.319405	0.737978	1	0	5.429412e+01
267.252075	1.292980	city	4	1	1.446219	1.446219	0	1	0	0	CorrectCommission	1.182681	0.741101	1	0	5.517647e+01
268.591736	1.386299	city	6	1	1.059765	1.059765	0	1	0	0	CorrectCommission	0.645256	0.742149	1	0	5.605882e+01
269.944580	1.319418	city	1	1	0.885710	0.885710	0	1	0	0	CorrectCommission	1.468544	0.742049	1	0	5.694118e+01
271.250824	1.293052	city	10	1	1.137129	1.137129	0	1	0	0	CorrectCommission	0.279323	0.741608	1	0	5.782353e+01
272.543732	1.292801	city	2	1	1.154228	1.154228	0	1	0	0	CorrectCommission	0.198444	0.741512	1	0	5.870588e+01
273.889923	1.399552	city	9	1	1.212022	1.212022	0	1	0	0	CorrectCommission	0.074925	0.742220	1	0	5.958824e+01
275.236115	1.292855	city	5	1	1.408402	1.408402	0	1	0	0	CorrectCommission	1.003808	0.744078	1	0	6.047059e+01
276.542419	1.319716	city	3	1	1.521882	1.521882	0	1	0	0	CorrectCommission	1.540573	0.747360	1	0	6.135294e+01
277.881989	1.359444	city	8	1	0.971873	0.971873	0	1	0	0	CorrectCommission	1.060989	0.752390	1	0	6.223529e+01
279.221466	1.319514	city	6	1	1.048100	1.048100	0	1	0	0	CorrectCommission	0.700435	0.759590	1	0	6.311765e+01
283.426727	7.091007	break	0	0	0.000000	1.279441	0	0	0	0	ThoughtProbe	0.393817	0.769428	1	64	64
287.612030	1.279587	city	4	1	1.427053	1.427053	0	1	0	0	CorrectCommission	1.092027	0.782395	1	0	6.350000e+01
288.925018	1.346395	mountain	1	0	0.000000	1.252092	1	0	0	0	CorrectOmission	0.264456	0.798795	0	0	63
290.264557	1.332708	city	3	1	1.045413	1.045413	0	1	0	0	CorrectCommission	0.713144	0.818683	0	0	6.250000e+01
291.617462	1.373068	city	10	1	1.097871	1.097871	0	1	0	0	CorrectCommission	0.465017	0.841731	0	0	62
292.950439	1.292913	city	8	1	1.157910	1.157910	0	1	0	0	CorrectCommission	0.181027	0.867192	0	0	6.150000e+01
294.243286	1.292780	mountain	8	0	0.000000	1.435348	1	0	0	0	CorrectOmission	1.131262	0.893928	0	0	61
295.549530	1.319666	city	5	1	1.626097	1.626097	0	1	0	0	CorrectCommission	2.033514	0.920529	0	0	6.050000e+01
296.862488	1.306263	city	9	1	1.426073	1.426073	0	1	0	0	CorrectCommission	1.087389	0.945469	0	0	60
298.208710	1.386185	city	6	1	1.135207	1.135207	0	1	0	0	CorrectCommission	0.288413	0.967379	0	0	5.950000e+01
299.554840	1.306101	city	7	1	0.922999	0.922999	0	1	0	0	CorrectCommission	1.292167	0.985154	0	0	59
300.867676	1.319539	city	2	1	1.048213	1.048213	0	1	0	0	CorrectCommission	0.699898	0.998040	0	0	5.850000e+01
302.173920	1.292962	city	8	1	1.484108	1.484108	0	1	0	0	CorrectCommission	1.361899	1.005755	0	0	58
303.473511	1.306233	city	9	1	1.771105	1.771105	0	1	0	0	CorrectCommission	2.719405	1.008446	0	0	5.750000e+01
304.793091	1.332913	city	6	1	1.146781	1.146781	0	1	0	0	CorrectCommission	0.233667	1.006560	0	0	57
306.119293	1.319504	city	2	1	1.123990	1.123990	0	1	0	0	CorrectCommission	0.341471	1.000847	0	0	5.650000e+01
307.445496	1.332894	city	4	1	1.283084	1.283084	0	1	0	0	CorrectCommission	0.411049	0.992100	0	0	56
308.758514	1.293112	mountain	8	0	0.000000	1.482727	1	0	0	0	CorrectOmission	1.355367	0.981055	0	0	5.550000e+01
310.044830	1.279548	city	8	1	1.535164	1.535164	0	1	0	0	CorrectCommission	1.603394	0.968298	0	0	55
311.357727	1.346234	city	5	1	1.252639	1.252639	0	1	0	0	CorrectCommission	0.267041	0.954243	0	0	5.450000e+01
312.670624	1.279546	city	2	1	1.604731	1.604731	0	1	0	0	CorrectCommission	1.932451	0.939190	0	0	54
313.983429	1.346071	city	8	1	1.231632	1.231632	0	1	0	0	CorrectCommission	0.167677	0.923239	0	0	5.350000e+01
315.296326	1.279761	city	1	1	1.341088	1.341088	0	1	0	0	CorrectCommission	0.685412	0.906531	0	0	53
316.615906	1.359366	city	3	1	1.546143	1.546143	0	1	0	0	CorrectCommission	1.655329	0.889127	0	0	5.250000e+01
317.968781	1.346420	city	6	1	1.365756	1.365756	0	1	0	0	CorrectCommission	0.802090	0.871139	0	0	52
319.308441	1.332878	city	5	1	1.080663	1.080663	0	1	0	0	CorrectCommission	0.546411	0.852774	0	0	5.150000e+01
320.614594	1.279432	city	2	1	1.419364	1.419364	0	1	0	0	CorrectCommission	1.055659	0.834305	0	0	51
321.927460	1.346284	city	10	1	1.285656	1.285656	0	1	0	0	CorrectCommission	0.423213	0.816050	0	0	5.050000e+01
323.240356	1.279546	city	4	0	0.000000	1.369576	0	0	0	1	OmissionError	0.820160	0.798401	0	0	50
324.533234	1.306192	city	2	1	1.441864	1.441864	0	1	0	0	CorrectCommission	1.162086	0.781747	1	0	4.950000e+01
325.832794	1.292917	city	9	1	1.273259	1.273259	0	1	0	0	CorrectCommission	0.364576	0.766506	1	0	49
327.132446	1.306378	city	10	1	1.353288	1.353288	0	1	0	0	CorrectCommission	0.743117	0.753120	1	0	4.850000e+01
328.451996	1.332747	city	1	1	1.487429	1.487429	0	1	0	0	CorrectCommission	1.377606	0.741929	1	0	48
329.791504	1.346273	city	7	1	1.287590	1.287590	0	1	0	0	CorrectCommission	0.432363	0.733174	1	0	4.750000e+01
331.124451	1.319594	city	4	1	1.229018	1.229018	0	1	0	0	CorrectCommission	0.155316	0.726950	1	0	47
332.437408	1.306322	city	3	1	0.976177	0.976177	0	1	0	0	CorrectCommission	1.040632	0.723096	1	0	4.650000e+01
333.750183	1.319252	city	1	1	1.273760	1.273760	0	1	0	0	CorrectCommission	0.366946	0.721222	1	0	46
335.089752	1.359880	city	2	1	1.080569	1.080569	0	1	0	0	CorrectCommission	0.546855	0.720706	1	0	4.550000e+01
336.449402	1.359390	city	9	1	1.055896	1.055896	0	1	0	0	CorrectCommission	0.663559	0.720707	1	0	45
337.782257	1.306336	city	6	1	0.878658	0.878658	0	1	0	0	CorrectCommission	1.501898	0.720289	1	0	4.450000e+01
341.474365	6.077899	break	0	0	0.000000	1.205824	0	0	0	0	ThoughtProbe	0.045606	0.718536	1	44	44
345.179779	1.332891	city	8	1	1.516568	1.516568	0	1	0	0	CorrectCommission	1.515436	0.714798	1	0	4.285294e+01
346.505981	1.319563	city	10	1	1.290067	1.290067	0	1	0	0	CorrectCommission	0.444079	0.708700	1	0	4.170588e+01
347.812195	1.292823	city	9	1	1.241139	1.241139	0	1	0	0	CorrectCommission	0.212648	0.700389	1	0	4.055882e+01
349.111755	1.306336	mountain	10	0	0.000000	0.982885	1	0	0	0	CorrectOmission	1.008901	0.690538	1	0	3.941176e+01
350.418030	1.306202	city	10	1	0.896338	0.896338	0	1	0	0	CorrectCommission	1.418272	0.680296	1	0	3.826471e+01
351.717682	1.293106	city	2	1	1.362530	1.362530	0	1	0	0	CorrectCommission	0.786831	0.671313	1	0	3.711765e+01
353.044250	1.360011	city	10	1	1.325454	1.325454	0	1	0	0	CorrectCommission	0.611462	0.665556	1	0	3.597059e+01
354.370453	1.292408	city	3	1	1.241847	1.241847	0	1	0	0	CorrectCommission	0.215996	0.664999	1	0	3.482353e+01
355.669739	1.306163	city	8	1	1.160596	1.160596	0	1	0	0	CorrectCommission	0.168326	0.671449	1	0	3.367647e+01
356.989319	1.332988	city	5	1	1.068933	1.068933	0	1	0	0	CorrectCommission	0.601893	0.686233	1	0	3.252941e+01
358.335602	1.359569	city	1	1	1.224184	1.224184	0	1	0	0	CorrectCommission	0.132449	0.710001	1	0	3.138235e+01
359.675079	1.319394	city	2	1	1.095511	1.095511	0	1	0	0	CorrectCommission	0.476177	0.742640	1	0	3.023529e+01
361.001312	1.333060	city	10	1	1.136602	1.136602	0	1	0	0	CorrectCommission	0.281816	0.783228	1	0	2.908824e+01
362.320953	1.306228	city	7	1	1.390141	1.390141	0	1	0	0	CorrectCommission	0.917432	0.830146	0	0	2.794118e+01
363.653839	1.359549	city	8	1	0.818624	0.818624	0	1	0	0	CorrectCommission	1.785863	0.881222	0	0	2.679412e+01
364.973358	1.279483	mountain	9	0	0.000000	0.889740	1	0	0	0	CorrectOmission	1.449480	0.933943	0	0	2.564706e+01
366.272919	1.319652	city	8	1	1.127597	1.127597	0	1	0	0	CorrectCommission	0.324410	0.985695	0	0	2.450000e+01
367.592529	1.319560	city	7	1	1.056301	1.056301	0	1	0	0	CorrectCommission	0.661642	1.033975	0	0	2.335294e+01
368.945374	1.386103	city	3	1	0.987912	0.987912	0	1	0	0	CorrectCommission	0.985124	1.076511	0	0	2.220588e+01
370.298248	1.319698	city	10	1	0.946192	0.946192	0	1	0	0	CorrectCommission	1.182461	1.111437	0	0	2.105882e+01
371.597839	1.279464	city	3	1	1.723225	1.723225	0	1	0	0	CorrectCommission	2.492929	1.137367	0	0	1.991176e+01
372.890686	1.306195	city	6	1	1.468565	1.468565	0	1	0	0	CorrectCommission	1.288381	1.153484	0	0	1.876471e+01
374.236969	1.386373	city	4	1	1.510837	1.510837	0	1	0	0	CorrectCommission	1.488330	1.159551	0	0	1.761765e+01
375.576538	1.292801	city	8	0	0.000000	1.184681	0	0	0	1	OmissionError	0.054401	1.155840	0	0	1.647059e+01
376.889343	1.332817	city	3	1	0.802393	0.802393	0	1	0	0	CorrectCommission	1.862637	1.143082	0	0	1.532353e+01
378.215637	1.319742	city	1	1	0.676270	0.676270	0	1	0	0	CorrectCommission	2.459202	1.122260	0	0	1.417647e+01
379.548615	1.346244	city	9	1	1.190879	1.190879	0	1	0	0	CorrectCommission	0.025083	1.094505	0	0	1.302941e+01
380.868195	1.292871	city	6	1	1.000821	1.000821	0	1	0	0	CorrectCommission	0.924064	1.061049	0	0	1.188235e+01
382.167664	1.306091	city	5	1	1.031668	1.031668	0	1	0	0	CorrectCommission	0.778158	1.023006	0	0	1.073529e+01
383.460571	1.279724	city	3	1	1.445141	1.445141	0	1	0	0	CorrectCommission	1.177586	0.981432	0	0	9.588235e+00
384.746887	1.292921	city	1	1	1.363423	1.363423	0	1	0	0	CorrectCommission	0.791056	0.937308	0	0	8.441176e+00
386.053009	1.319318	city	5	1	1.465957	1.465957	0	1	0	0	CorrectCommission	1.276046	0.891625	0	0	7.294118e+00
387.352509	1.279678	city	3	1	1.527305	1.527305	0	1	0	0	CorrectCommission	1.566224	0.845414	0	0	6.147059e+00
391.204620	6.424547	break	0	0	0.000000	1.343160	0	0	0	0	ThoughtProbe	0.695209	0.799794	0	5	5
395.070007	1.306240	city	8	1	1.180566	1.180566	0	1	0	0	CorrectCommission	0.073864	0.756073	1	0	7.075000e+00
396.369690	1.293090	mountain	7	0	0.000000	1.306570	1	0	0	0	CorrectOmission	0.522140	0.715603	1	0	9.150000e+00
397.656006	1.279564	city	4	1	1.376091	1.376091	0	1	0	0	CorrectCommission	0.850977	0.679731	1	0	1.122500e+01
398.988800	1.386026	city	3	1	1.044048	1.044048	0	1	0	0	CorrectCommission	0.719601	0.649728	1	0	1.330000e+01
400.341675	1.319722	mountain	9	0	0.000000	1.053754	1	0	0	0	CorrectOmission	0.673687	0.626720	1	0	1.537500e+01
401.681274	1.359479	city	8	1	1.196222	1.196222	0	1	0	0	CorrectCommission	0.000189	0.611515	1	0	1.745000e+01
403.007446	1.292877	city	4	1	1.262461	1.262461	0	1	0	0	CorrectCommission	0.313500	0.604583	1	0	1.952500e+01
404.320312	1.332834	city	5	1	1.141547	1.141547	0	1	0	0	CorrectCommission	0.258425	0.605975	1	0	2.160000e+01
405.666626	1.359787	city	9	1	1.304131	1.304131	0	1	0	0	CorrectCommission	0.510602	0.615355	1	0	2.367500e+01
407.006287	1.319525	city	1	1	1.115872	1.115872	0	1	0	0	CorrectCommission	0.379869	0.632038	1	0	2.575000e+01
408.319153	1.306220	city	4	1	1.590059	1.590059	0	1	0	0	CorrectCommission	1.863050	0.655017	1	0	2.782500e+01
409.645355	1.346217	city	7	1	1.086091	1.086091	0	1	0	0	CorrectCommission	0.520733	0.682997	1	0	2.990000e+01
410.964844	1.292743	city	6	1	1.157505	1.157505	0	1	0	0	CorrectCommission	0.182944	0.714469	1	0	3.197500e+01
412.251007	1.279580	city	4	1	1.267222	1.267222	0	1	0	0	CorrectCommission	0.336020	0.747686	1	0	3.405000e+01
413.537354	1.293076	city	10	1	1.069637	1.069637	0	1	0	0	CorrectCommission	0.598560	0.780757	1	0	3.612500e+01
414.836914	1.306084	city	9	1	1.349768	1.349768	0	1	0	0	CorrectCommission	0.726467	0.811677	0	0	3.820000e+01
416.149780	1.319643	mountain	2	0	0.000000	1.481789	1	0	0	0	CorrectOmission	1.350930	0.838475	0	0	4.027500e+01
417.476013	1.332823	city	7	1	1.419868	1.419868	0	1	0	0	CorrectCommission	1.058043	0.859345	0	0	4.235000e+01
418.795624	1.306369	city	9	1	1.118175	1.118175	0	1	0	0	CorrectCommission	0.368976	0.872900	0	0	4.442500e+01
420.088531	1.279487	city	4	1	1.824499	1.824499	0	1	0	0	CorrectCommission	2.971958	0.878312	0	0	4.650000e+01
421.434784	1.413008	city	2	1	1.072288	1.072288	0	1	0	0	CorrectCommission	0.586024	0.875380	0	0	4.857500e+01
422.794312	1.306037	city	1	1	1.266556	1.266556	0	1	0	0	CorrectCommission	0.332869	0.864750	0	0	5.065000e+01
424.147095	1.399538	city	3	1	1.249276	1.249276	0	1	0	0	CorrectCommission	0.251136	0.847789	0	0	5.272500e+01
425.486664	1.279590	city	7	1	1.597665	1.597665	0	1	0	0	CorrectCommission	1.899025	0.826484	0	0	5.480000e+01
426.792999	1.333073	city	6	1	1.033982	1.033982	0	1	0	0	CorrectCommission	0.767212	0.803255	0	0	5.687500e+01
428.126007	1.332943	city	9	1	0.967729	0.967729	0	1	0	0	CorrectCommission	1.080589	0.780783	1	0	5.895000e+01
429.458862	1.332767	city	10	1	1.192145	1.192145	0	1	0	0	CorrectCommission	0.019094	0.761645	1	0	6.102500e+01
430.764984	1.279480	city	1	1	1.382167	1.382167	0	1	0	0	CorrectCommission	0.879715	0.748073	1	0	6.310000e+01
432.064514	1.319599	city	2	1	1.289600	1.289600	0	1	0	0	CorrectCommission	0.441869	0.741600	1	0	6.517500e+01
433.417389	1.386167	city	7	1	1.255782	1.255782	0	1	0	0	CorrectCommission	0.281909	0.742897	1	0	6.725000e+01
434.783630	1.346277	city	2	1	1.152609	1.152609	0	1	0	0	CorrectCommission	0.206101	0.751597	1	0	6.932500e+01
436.116547	1.319567	city	5	1	1.135986	1.135986	0	1	0	0	CorrectCommission	0.284731	0.766321	1	0	7.140000e+01
437.442841	1.333037	city	2	1	0.952476	0.952476	0	1	0	0	CorrectCommission	1.152737	0.784762	1	0	7.347500e+01
438.749084	1.279419	city	4	1	1.436163	1.436163	0	1	0	0	CorrectCommission	1.135118	0.803960	0	0	7.555000e+01
440.075134	1.372678	city	5	1	0.975995	0.975995	0	1	0	0	CorrectCommission	1.041494	0.820668	0	0	7.762500e+01
441.401428	1.279935	city	6	1	1.381227	1.381227	0	1	0	0	CorrectCommission	0.875269	0.831716	0	0	7.970000e+01
442.741119	1.399444	city	7	1	1.112924	1.112924	0	1	0	0	CorrectCommission	0.393816	0.834406	0	0	8.177500e+01
444.093933	1.306153	city	10	1	0.861668	0.861668	0	1	0	0	CorrectCommission	1.582261	0.826846	0	0	8.385000e+01
445.400177	1.306372	city	7	1	1.527520	1.527520	0	1	0	0	CorrectCommission	1.567241	0.808125	0	0	8.592500e+01
449.352234	6.597711	break	0	0	0.000000	1.562189	0	0	0	0	ThoughtProbe	1.731226	0.778480	1	88	88
453.310852	1.319553	city	4	1	1.285313	1.285313	0	1	0	0	CorrectCommission	0.421591	0.739224	1	0	8.619565e+01
454.650482	1.359727	city	6	1	1.016529	1.016529	0	1	0	0	CorrectCommission	0.849765	0.692511	1	0	8.439130e+01
455.970093	1.279459	mountain	9	0	0.000000	1.177274	1	0	0	0	CorrectOmission	0.089436	0.641069	1	0	8.258696e+01
457.262909	1.306188	city	4	1	1.359466	1.359466	0	1	0	0	CorrectCommission	0.772338	0.587842	1	0	8.078261e+01
458.622467	1.412923	city	1	1	1.155023	1.155023	0	1	0	0	CorrectCommission	0.194684	0.535652	1	0	7.897826e+01
459.988678	1.319512	city	7	1	1.205158	1.205158	0	1	0	0	CorrectCommission	0.042456	0.486898	1	0	7.717391e+01
461.308228	1.319546	city	1	1	1.181431	1.181431	0	1	0	0	CorrectCommission	0.069773	0.443440	1	0	7.536957e+01
462.614441	1.292908	city	5	1	1.303529	1.303529	0	1	0	0	CorrectCommission	0.507755	0.406507	1	0	7.356522e+01
463.974060	1.426355	city	2	1	1.076130	1.076130	0	1	0	0	CorrectCommission	0.567850	0.376783	1	0	7.176087e+01
465.353729	1.332930	city	1	1	1.161387	1.161387	0	1	0	0	CorrectCommission	0.164581	0.354555	1	0	6.995652e+01
466.693298	1.346239	city	3	1	1.276020	1.276020	0	1	0	0	CorrectCommission	0.377636	0.339903	1	0	6.815217e+01
468.046173	1.359523	city	6	1	1.284903	1.284903	0	1	0	0	CorrectCommission	0.419654	0.332794	1	0	6.634783e+01
469.392303	1.332736	mountain	6	0	0.000000	1.210312	1	0	0	0	CorrectOmission	0.066837	0.333237	1	0	6.454348e+01
470.711792	1.306234	city	5	1	1.162051	1.162051	0	1	0	0	CorrectCommission	0.161441	0.341294	1	0	6.273913e+01
472.031403	1.332972	city	10	1	1.249922	1.249922	0	1	0	0	CorrectCommission	0.254194	0.357022	1	0	6.093478e+01
473.357727	1.319659	city	1	1	1.074570	1.074570	0	1	0	0	CorrectCommission	0.575231	0.380361	1	0	5.913043e+01
474.690552	1.346040	city	8	1	1.234423	1.234423	0	1	0	0	CorrectCommission	0.180880	0.410993	1	0	5.732609e+01
476.016693	1.306235	city	2	1	1.200649	1.200649	0	1	0	0	CorrectCommission	0.021129	0.448216	1	0	5.552174e+01
477.309631	1.279604	mountain	5	0	0.000000	1.263845	1	0	0	0	CorrectOmission	0.320046	0.490774	1	0	5.371739e+01
478.595856	1.292895	city	10	1	1.318889	1.318889	0	1	0	0	CorrectCommission	0.580409	0.536835	1	0	5.191304e+01
479.955414	1.426221	city	6	1	1.260663	1.260663	0	1	0	0	CorrectCommission	0.304998	0.584054	1	0	5.010870e+01
481.321716	1.306363	city	3	1	1.060104	1.060104	0	1	0	0	CorrectCommission	0.643653	0.629750	1	0	4.830435e+01
482.634613	1.319403	city	4	1	1.176096	1.176096	0	1	0	0	CorrectCommission	0.095009	0.671153	1	0	4.650000e+01
483.954193	1.319751	city	8	1	0.835256	0.835256	0	1	0	0	CorrectCommission	1.707193	0.705735	1	0	4.469565e+01
485.260437	1.292741	city	4	1	1.434661	1.434661	0	1	0	0	CorrectCommission	1.128013	0.731492	1	0	4.289130e+01
486.573242	1.332878	mountain	9	0	0.000000	1.562909	1	0	0	0	CorrectOmission	1.734629	0.747271	1	0	4.108696e+01
487.886200	1.293067	city	4	1	1.406494	1.406494	0	1	0	0	CorrectCommission	0.994784	0.752891	1	0	3.928261e+01
489.205841	1.346225	city	1	1	1.151912	1.151912	0	1	0	0	CorrectCommission	0.209397	0.749211	1	0	3.747826e+01
490.532104	1.306292	city	6	1	1.418200	1.418200	0	1	0	0	CorrectCommission	1.050150	0.738005	1	0	3.567391e+01
491.858368	1.346209	city	1	1	1.524342	1.524342	0	1	0	0	CorrectCommission	1.552209	0.721712	1	0	3.386957e+01
493.224548	1.386171	city	8	1	1.204962	1.204962	0	1	0	0	CorrectCommission	0.041527	0.703217	1	0	3.206522e+01
494.570770	1.306239	city	3	1	1.236502	1.236502	0	1	0	0	CorrectCommission	0.190716	0.685622	1	0	3.026087e+01
495.896912	1.346061	city	8	1	1.217998	1.217998	0	1	0	0	CorrectCommission	0.103191	0.671994	1	0	2.845652e+01
497.223053	1.306238	city	4	1	1.311079	1.311079	0	1	0	0	CorrectCommission	0.543464	0.665294	1	0	2.665217e+01
498.569275	1.386212	city	3	1	1.261352	1.261352	0	1	0	0	CorrectCommission	0.308257	0.668371	1	0	2.484783e+01
499.902222	1.279664	city	2	1	1.362168	1.362168	0	1	0	0	CorrectCommission	0.785120	0.683975	1	0	2.304348e+01
501.221832	1.359540	city	8	1	1.582251	1.582251	0	1	0	0	CorrectCommission	1.826119	0.714821	1	0	2.123913e+01
502.581390	1.359616	city	9	1	1.190962	1.190962	0	1	0	0	CorrectCommission	0.024690	0.763527	1	0	1.943478e+01
503.940918	1.359417	city	7	1	1.074555	1.074555	0	1	0	0	CorrectCommission	0.575300	0.832545	0	0	1.763043e+01
505.300476	1.359725	city	4	1	1.292864	1.292864	0	1	0	0	CorrectCommission	0.457308	0.923802	0	0	1.582609e+01
506.640076	1.319429	city	8	1	1.002471	1.002471	0	1	0	0	CorrectCommission	0.916259	1.038387	0	0	1.402174e+01
507.946320	1.293057	city	2	1	1.155577	1.155577	0	1	0	0	CorrectCommission	0.192065	1.176146	0	0	1.221739e+01
509.252625	1.319587	city	5	1	1.254834	1.254834	0	1	0	0	CorrectCommission	0.277427	1.335386	0	0	1.041304e+01
510.578857	1.332881	city	2	1	1.304015	1.304015	0	1	0	0	CorrectCommission	0.510053	1.512721	0	0	8.608696e+00
511.898346	1.306068	city	1	1	1.451004	1.451004	0	1	0	0	CorrectCommission	1.205317	1.703197	0	0	6.804348e+00
515.950317	6.797938	break	0	0	0.000000	1.597993	0	0	0	0	ThoughtProbe	1.900580	1.900580	0	5	5
