onset	duration	trial_type	image_type	Press	ReactionTime	ReactionTime_Interpolated	CorrectOmission	CorrectCommission	CommissionError	OmissionError	response_type	nonsmoothVarianceTimeCourse	VarianceTimeCourse	In_the_Zone	ThoughtProbe	ThoughtProbe_Interpolated
0.672081	1.319708	city	2	1	1.114847	1.114847	0	1	0	0	CorrectCommission	0.091807	0.091807	1	0	81
1.971723	1.279575	city	1	1	0.976699	0.976699	0	1	0	0	CorrectCommission	1.009651	0.240599	1	0	81
3.251309	1.279598	city	2	1	0.921428	0.921428	0	1	0	0	CorrectCommission	1.376872	0.380978	1	0	81
4.544184	1.306152	city	5	1	0.937453	0.937453	0	1	0	0	CorrectCommission	1.270398	0.505538	1	0	81
5.837040	1.279561	city	4	1	0.802590	0.802590	0	1	0	0	CorrectCommission	2.166420	0.608699	1	0	81
7.116665	1.279688	city	2	1	0.854855	0.854855	0	1	0	0	CorrectCommission	1.819173	0.687181	1	0	81
8.402964	1.292908	city	8	1	0.901553	0.901553	0	1	0	0	CorrectCommission	1.508916	0.740219	1	0	81
9.689206	1.279578	mountain	3	0	0.000000	1.037746	1	0	0	0	CorrectOmission	0.604057	0.769322	1	0	81
10.975451	1.292911	city	3	1	1.154637	1.154637	0	1	0	0	CorrectCommission	0.172553	0.777806	0	0	81
12.268316	1.292820	city	1	1	1.143425	1.143425	0	1	0	0	CorrectCommission	0.098065	0.770113	1	0	81
13.567823	1.306194	city	3	1	1.222342	1.222342	0	1	0	0	CorrectCommission	0.622383	0.751149	1	0	81
14.867437	1.293035	mountain	3	0	0.000000	1.278647	1	0	0	0	CorrectOmission	0.996468	0.725672	1	0	81
16.153656	1.279403	city	3	1	1.297081	1.297081	0	1	0	0	CorrectCommission	1.118946	0.697858	1	0	81
17.439806	1.292898	city	2	1	1.262387	1.262387	0	1	0	0	CorrectCommission	0.888442	0.671026	1	0	81
18.726048	1.279582	city	5	1	1.177654	1.177654	0	1	0	0	CorrectCommission	0.325481	0.647502	1	0	81
20.012314	1.292952	city	10	1	1.089872	1.089872	0	1	0	0	CorrectCommission	0.257741	0.628642	1	0	81
21.298557	1.279534	city	2	1	1.189840	1.189840	0	1	0	0	CorrectCommission	0.406444	0.614896	1	0	81
22.584871	1.293096	city	4	1	1.115018	1.115018	0	1	0	0	CorrectCommission	0.090668	0.605952	1	0	81
23.884478	1.306117	city	2	1	0.996166	0.996166	0	1	0	0	CorrectCommission	0.880314	0.600956	1	0	81
25.177372	1.279670	city	5	1	1.022378	1.022378	0	1	0	0	CorrectCommission	0.706165	0.598679	1	0	81
26.463587	1.292758	city	7	1	1.123598	1.123598	0	1	0	0	CorrectCommission	0.033666	0.597796	1	0	81
27.749842	1.279755	city	9	1	0.964391	0.964391	0	1	0	0	CorrectCommission	1.091428	0.597111	1	0	81
29.029499	1.279559	city	2	1	0.965934	0.965934	0	1	0	0	CorrectCommission	1.081171	0.595687	1	0	81
30.309067	1.279577	city	7	1	1.016930	1.016930	0	1	0	0	CorrectCommission	0.742361	0.593034	1	0	81
31.588657	1.279606	mountain	7	0	0.000000	1.050299	1	0	0	0	CorrectOmission	0.520657	0.589154	1	0	81
32.881557	1.306190	city	8	1	1.059234	1.059234	0	1	0	0	CorrectCommission	0.461294	0.584512	1	0	81
34.181129	1.292958	city	2	1	1.036926	1.036926	0	1	0	0	CorrectCommission	0.609510	0.579898	1	0	81
35.474014	1.292807	city	4	1	1.273816	1.273816	0	1	0	0	CorrectCommission	0.964376	0.576305	1	0	81
36.780243	1.319654	city	7	1	1.151991	1.151991	0	1	0	0	CorrectCommission	0.154975	0.574744	1	0	81
38.086525	1.292907	city	1	1	1.091981	1.091981	0	1	0	0	CorrectCommission	0.243727	0.576122	1	0	81
39.386086	1.306218	city	2	1	1.117181	1.117181	0	1	0	0	CorrectCommission	0.076301	0.581070	1	0	81
40.705563	1.332733	city	4	1	1.045952	1.045952	0	1	0	0	CorrectCommission	0.549538	0.589903	1	0	81
42.038383	1.332909	city	7	1	0.990062	0.990062	0	1	0	0	CorrectCommission	0.920871	0.602592	1	0	81
43.352802	1.295932	city	5	1	1.194283	1.194283	0	1	0	0	CorrectCommission	0.435964	0.618832	1	0	81
44.652367	1.303199	city	3	1	0.998229	0.998229	0	1	0	0	CorrectCommission	0.866610	0.638128	1	0	81
45.957085	1.306235	city	10	1	1.004952	1.004952	0	1	0	0	CorrectCommission	0.821944	0.659823	1	0	81
47.256672	1.292936	city	6	1	1.034857	1.034857	0	1	0	0	CorrectCommission	0.623254	0.683167	1	0	81
48.549641	1.293005	city	9	1	1.015807	1.015807	0	1	0	0	CorrectCommission	0.749820	0.707294	1	0	81
49.849216	1.306149	city	4	1	0.991511	0.991511	0	1	0	0	CorrectCommission	0.911240	0.731181	1	0	81
53.141335	5.278083	break	0	0	0.000000	1.089554	0	0	0	0	ThoughtProbe	0.259848	0.753618	1	81	81
56.426987	1.293221	mountain	3	0	0.000000	1.197550	1	0	0	0	CorrectOmission	0.457669	0.773200	0	0	7.970588e+01
57.726753	1.306313	city	7	1	1.203113	1.203113	0	1	0	0	CorrectCommission	0.494626	0.788364	0	0	7.841176e+01
59.026253	1.292683	city	9	1	0.993856	0.993856	0	1	0	0	CorrectCommission	0.895663	0.797533	0	0	7.711765e+01
60.319122	1.293058	city	8	1	0.871527	0.871527	0	1	0	0	CorrectCommission	1.708407	0.799252	0	0	7.582353e+01
61.605392	1.279485	city	4	1	0.876683	0.876683	0	1	0	0	CorrectCommission	1.674149	0.792432	0	0	7.452941e+01
62.891579	1.292888	city	1	1	0.996227	0.996227	0	1	0	0	CorrectCommission	0.879912	0.776552	0	0	7.323529e+01
64.191238	1.306424	city	2	1	1.043823	1.043823	0	1	0	0	CorrectCommission	0.563687	0.751776	1	0	7.194118e+01
65.504112	1.319325	city	8	1	1.055922	1.055922	0	1	0	0	CorrectCommission	0.483302	0.719032	1	0	7.064706e+01
66.816887	1.306235	city	4	1	0.982684	0.982684	0	1	0	0	CorrectCommission	0.969886	0.680006	1	0	6.935294e+01
68.116570	1.293127	city	5	1	0.982071	0.982071	0	1	0	0	CorrectCommission	0.973962	0.636984	1	0	6.805882e+01
69.402870	1.279480	city	8	1	1.022107	1.022107	0	1	0	0	CorrectCommission	0.707966	0.592741	1	0	6.676471e+01
70.689026	1.292832	city	6	1	1.081169	1.081169	0	1	0	0	CorrectCommission	0.315562	0.550313	1	0	6.547059e+01
71.975250	1.279612	city	3	1	1.094898	1.094898	0	1	0	0	CorrectCommission	0.224343	0.512754	1	0	6.417647e+01
73.261566	1.293017	city	4	1	1.103545	1.103545	0	1	0	0	CorrectCommission	0.166894	0.482905	1	0	6.288235e+01
74.554489	1.292833	city	3	1	1.142284	1.142284	0	1	0	0	CorrectCommission	0.090482	0.463149	1	0	6.158824e+01
75.847389	1.292961	city	2	1	1.188151	1.188151	0	1	0	0	CorrectCommission	0.395218	0.455241	1	0	6.029412e+01
77.166901	1.346065	city	10	1	1.110795	1.110795	0	1	0	0	CorrectCommission	0.118728	0.460174	1	0	59
78.519806	1.359745	city	3	1	1.060188	1.060188	0	1	0	0	CorrectCommission	0.454958	0.478094	1	0	5.770588e+01
79.839455	1.279550	city	6	1	1.094959	1.094959	0	1	0	0	CorrectCommission	0.223938	0.508257	1	0	5.641176e+01
81.118935	1.279415	city	1	1	1.153990	1.153990	0	1	0	0	CorrectCommission	0.168259	0.549105	1	0	5.511765e+01
82.405190	1.293095	city	4	1	1.041538	1.041538	0	1	0	0	CorrectCommission	0.578865	0.598343	1	0	5.382353e+01
83.718185	1.332896	city	5	1	1.073983	1.073983	0	1	0	0	CorrectCommission	0.363306	0.653141	1	0	5.252941e+01
85.031090	1.292909	city	4	1	1.159380	1.159380	0	1	0	0	CorrectCommission	0.204067	0.710385	1	0	5.123529e+01
86.317345	1.279600	mountain	8	0	0.000000	1.334812	1	0	0	0	CorrectOmission	1.369625	0.766920	1	0	4.994118e+01
87.603561	1.292847	city	10	1	1.387215	1.387215	0	1	0	0	CorrectCommission	1.717786	0.819846	0	0	4.864706e+01
88.896461	1.292942	city	2	1	1.103525	1.103525	0	1	0	0	CorrectCommission	0.167032	0.866779	0	0	4.735294e+01
90.182709	1.279564	city	10	1	0.965212	0.965212	0	1	0	0	CorrectCommission	1.085974	0.906105	0	0	4.605882e+01
91.462204	1.279412	city	6	1	1.516644	1.516644	0	1	0	0	CorrectCommission	2.577706	0.937015	0	0	4.476471e+01
92.761688	1.319562	city	8	1	0.953859	0.953859	0	1	0	0	CorrectCommission	1.161401	0.959520	0	0	4.347059e+01
94.061256	1.279581	city	10	1	1.075404	1.075404	0	1	0	0	CorrectCommission	0.353866	0.974434	0	0	4.217647e+01
95.340927	1.279752	city	7	1	1.240317	1.240317	0	1	0	0	CorrectCommission	0.741808	0.983088	0	0	4.088235e+01
96.633881	1.306155	city	1	1	1.045298	1.045298	0	1	0	0	CorrectCommission	0.553888	0.987121	0	0	3.958824e+01
97.926704	1.279492	city	8	1	0.916075	0.916075	0	1	0	0	CorrectCommission	1.412431	0.988276	0	0	3.829412e+01
101.905396	6.677891	break	0	0	0.000000	0.979303	0	0	0	0	ThoughtProbe	0.992348	0.988198	0	37	37
105.884094	1.279515	city	2	1	1.156109	1.156109	0	1	0	0	CorrectCommission	0.182337	0.988274	0	0	3.741304e+01
107.183716	1.319731	mountain	2	0	0.000000	1.367620	1	0	0	0	CorrectOmission	1.587601	0.989542	0	0	3.782609e+01
108.489944	1.292716	city	8	1	1.382297	1.382297	0	1	0	0	CorrectCommission	1.685114	0.992563	0	0	3.823913e+01
109.796120	1.319643	city	5	1	0.968601	0.968601	0	1	0	0	CorrectCommission	1.063452	0.997416	0	0	3.865217e+01
111.115685	1.319488	city	9	1	1.000046	1.000046	0	1	0	0	CorrectCommission	0.854538	1.003673	0	0	3.906522e+01
112.428566	1.306269	city	2	1	1.136185	1.136185	0	1	0	0	CorrectCommission	0.049960	1.010356	0	0	3.947826e+01
113.748207	1.333017	city	3	1	1.086404	1.086404	0	1	0	0	CorrectCommission	0.280782	1.016032	0	0	3.989130e+01
115.061104	1.292768	city	9	1	0.941548	0.941548	0	1	0	0	CorrectCommission	1.243194	1.018921	0	0	4.030435e+01
116.353935	1.292894	mountain	3	0	0.000000	1.270429	1	0	0	0	CorrectOmission	0.941868	1.017118	0	0	4.071739e+01
117.640266	1.279772	city	5	1	1.468133	1.468133	0	1	0	0	CorrectCommission	2.255401	1.008915	0	0	4.113043e+01
118.926506	1.292715	city	8	1	0.929748	0.929748	0	1	0	0	CorrectCommission	1.321594	0.993046	0	0	4.154348e+01
120.212654	1.279583	city	9	1	0.919177	0.919177	0	1	0	0	CorrectCommission	1.391827	0.968982	0	0	4.195652e+01
121.505562	1.306233	city	2	1	0.916859	0.916859	0	1	0	0	CorrectCommission	1.407226	0.937025	0	0	4.236957e+01
122.811882	1.306402	city	5	1	0.995337	0.995337	0	1	0	0	CorrectCommission	0.885822	0.898389	0	0	4.278261e+01
124.104881	1.279591	city	3	1	0.969578	0.969578	0	1	0	0	CorrectCommission	1.056962	0.855036	0	0	4.319565e+01
125.417740	1.346135	mountain	1	1	1.101054	1.101054	0	0	1	0	CommissionError	0.183448	0.809450	0	0	4.360870e+01
126.737312	1.293006	city	1	1	1.114354	1.114354	0	1	0	0	CorrectCommission	0.095085	0.764471	1	0	4.402174e+01
128.036880	1.306139	city	4	1	1.099235	1.099235	0	1	0	0	CorrectCommission	0.195534	0.723021	1	0	4.443478e+01
129.363113	1.346316	city	3	1	0.887503	0.887503	0	1	0	0	CorrectCommission	1.602262	0.687908	1	0	4.484783e+01
130.702637	1.332725	city	6	1	1.186241	1.186241	0	1	0	0	CorrectCommission	0.382533	0.661729	1	0	4.526087e+01
132.008865	1.279733	city	5	1	1.205801	1.205801	0	1	0	0	CorrectCommission	0.512485	0.646803	1	0	4.567391e+01
133.288452	1.279431	city	2	1	1.039274	1.039274	0	1	0	0	CorrectCommission	0.593908	0.645008	1	0	4.608696e+01
134.574600	1.292891	city	10	1	1.090003	1.090003	0	1	0	0	CorrectCommission	0.256867	0.657718	1	0	4.650000e+01
135.874252	1.306401	city	4	1	1.220309	1.220309	0	1	0	0	CorrectCommission	0.608874	0.685637	1	0	4.691304e+01
137.173904	1.292909	city	3	1	1.082930	1.082930	0	1	0	0	CorrectCommission	0.303864	0.728629	1	0	4.732609e+01
138.460159	1.279585	city	1	1	1.075975	1.075975	0	1	0	0	CorrectCommission	0.350066	0.785595	0	0	4.773913e+01
139.746323	1.292746	city	10	1	1.071585	1.071585	0	1	0	0	CorrectCommission	0.379233	0.854330	0	0	4.815217e+01
141.052582	1.319772	city	9	1	1.241726	1.241726	0	1	0	0	CorrectCommission	0.751172	0.931534	0	0	4.856522e+01
142.365570	1.306214	city	10	1	1.018879	1.018879	0	1	0	0	CorrectCommission	0.729409	1.012932	0	0	4.897826e+01
143.671783	1.306205	city	9	1	0.993730	0.993730	0	1	0	0	CorrectCommission	0.896498	1.093544	0	0	4.939130e+01
144.971283	1.292794	city	8	1	1.254562	1.254562	0	1	0	0	CorrectCommission	0.836450	1.168102	0	0	4.980435e+01
146.270798	1.306253	city	7	1	1.392896	1.392896	0	1	0	0	CorrectCommission	1.755535	1.231578	0	0	5.021739e+01
147.577103	1.306341	mountain	7	0	0.000000	1.584507	1	0	0	0	CorrectOmission	3.028580	1.279726	0	0	5.063043e+01
148.870056	1.279580	city	6	1	1.501952	1.501952	0	1	0	0	CorrectCommission	2.480096	1.309544	0	0	5.104348e+01
150.156326	1.292937	city	3	1	0.817794	0.817794	0	1	0	0	CorrectCommission	2.065407	1.319607	0	0	5.145652e+01
151.449142	1.292714	city	8	1	0.928600	0.928600	0	1	0	0	CorrectCommission	1.329217	1.310162	0	0	5.186957e+01
152.741959	1.292915	city	7	1	1.011753	1.011753	0	1	0	0	CorrectCommission	0.776759	1.283017	0	0	5.228261e+01
154.054855	1.332890	city	2	1	1.130305	1.130305	0	1	0	0	CorrectCommission	0.010899	1.241285	0	0	5.269565e+01
155.361191	1.279760	city	1	1	1.413729	1.413729	0	1	0	0	CorrectCommission	1.893946	1.188990	0	0	5.310870e+01
156.640839	1.279557	city	4	1	1.478794	1.478794	0	1	0	0	CorrectCommission	2.326233	1.130540	0	0	5.352174e+01
157.940430	1.319623	city	2	1	1.354321	1.354321	0	1	0	0	CorrectCommission	1.499246	1.070325	0	0	5.393478e+01
159.240005	1.279533	city	3	1	1.208098	1.208098	0	1	0	0	CorrectCommission	0.527745	1.012363	0	0	5.434783e+01
160.532822	1.306073	city	7	1	1.179840	1.179840	0	1	0	0	CorrectCommission	0.340004	0.959888	0	0	5.476087e+01
161.825729	1.279762	city	3	1	1.131593	1.131593	0	1	0	0	CorrectCommission	0.019455	0.915128	0	0	5.517391e+01
163.111969	1.292716	city	5	1	1.133888	1.133888	0	1	0	0	CorrectCommission	0.034699	0.879246	0	0	5.558696e+01
167.190552	6.864430	break	0	0	0.000000	1.161146	0	0	0	0	ThoughtProbe	0.215801	0.852377	0	56	56
171.289276	1.333041	city	10	1	1.248946	1.248946	0	1	0	0	CorrectCommission	0.799138	0.833847	0	0	5.558696e+01
172.608856	1.306119	mountain	4	0	0.000000	1.432865	1	0	0	0	CorrectOmission	2.021085	0.822410	0	0	5.517391e+01
173.908371	1.292896	city	6	1	1.463044	1.463044	0	1	0	0	CorrectCommission	2.221589	0.816547	0	0	5.476087e+01
175.201340	1.293043	city	2	1	1.089621	1.089621	0	1	0	0	CorrectCommission	0.259403	0.814721	0	0	5.434783e+01
176.507629	1.319546	city	7	1	1.064184	1.064184	0	1	0	0	CorrectCommission	0.428408	0.815541	0	0	5.393478e+01
177.840530	1.346261	city	5	1	1.075586	1.075586	0	1	0	0	CorrectCommission	0.352653	0.817729	0	0	5.352174e+01
179.200089	1.372852	city	6	1	1.276678	1.276678	0	1	0	0	CorrectCommission	0.983389	0.820113	0	0	5.310870e+01
180.539658	1.306266	city	3	1	1.155292	1.155292	0	1	0	0	CorrectCommission	0.176906	0.821574	0	0	5.269565e+01
181.845886	1.306212	city	9	1	1.045196	1.045196	0	1	0	0	CorrectCommission	0.554564	0.821064	0	0	5.228261e+01
183.158783	1.319587	city	6	1	1.036321	1.036321	0	1	0	0	CorrectCommission	0.613525	0.817661	0	0	5.186957e+01
184.458359	1.279561	mountain	8	0	0.000000	1.334455	1	0	0	0	CorrectOmission	1.367257	0.810750	0	0	5.145652e+01
185.757935	1.319584	city	6	1	1.462989	1.462989	0	1	0	0	CorrectCommission	2.221222	0.800186	0	0	5.104348e+01
187.090851	1.346240	city	8	1	0.945312	0.945312	0	1	0	0	CorrectCommission	1.218188	0.786421	0	0	5.063043e+01
188.423737	1.319534	city	6	1	1.158200	1.158200	0	1	0	0	CorrectCommission	0.196231	0.770587	0	0	5.021739e+01
189.723297	1.279595	city	9	1	0.936807	0.936807	0	1	0	0	CorrectCommission	1.274691	0.754337	1	0	4.980435e+01
191.016220	1.306232	city	6	1	1.102557	1.102557	0	1	0	0	CorrectCommission	0.173459	0.739598	1	0	4.939130e+01
192.322449	1.306243	city	2	1	1.117456	1.117456	0	1	0	0	CorrectCommission	0.074469	0.728362	1	0	4.897826e+01
193.628677	1.306212	city	9	1	1.089184	1.089184	0	1	0	0	CorrectCommission	0.262307	0.722293	1	0	4.856522e+01
194.948151	1.332731	city	7	1	1.073489	1.073489	0	1	0	0	CorrectCommission	0.366587	0.722453	1	0	4.815217e+01
196.267731	1.306428	city	2	1	0.923635	0.923635	0	1	0	0	CorrectCommission	1.362203	0.729137	1	0	4.773913e+01
197.580627	1.319375	mountain	3	0	0.000000	1.047957	1	0	0	0	CorrectOmission	0.536216	0.741759	1	0	4.732609e+01
198.893524	1.306421	city	7	1	1.181477	1.181477	0	1	0	0	CorrectCommission	0.350880	0.758999	1	0	4.691304e+01
200.199768	1.306066	city	3	1	1.059217	1.059217	0	1	0	0	CorrectCommission	0.461410	0.778925	0	0	4.650000e+01
201.519241	1.332882	city	6	1	1.045079	1.045079	0	1	0	0	CorrectCommission	0.555337	0.799253	0	0	4.608696e+01
202.845566	1.319757	city	10	1	0.882534	0.882534	0	1	0	0	CorrectCommission	1.635281	0.817645	0	0	4.567391e+01
204.145218	1.279554	city	1	1	0.947703	0.947703	0	1	0	0	CorrectCommission	1.202297	0.831985	0	0	4.526087e+01
205.444702	1.319402	city	9	1	0.890015	0.890015	0	1	0	0	CorrectCommission	1.585576	0.840598	0	0	4.484783e+01
206.744217	1.279618	city	6	1	1.300614	1.300614	0	1	0	0	CorrectCommission	1.142417	0.842338	0	0	4.443478e+01
208.070480	1.372913	city	9	1	1.167499	1.167499	0	1	0	0	CorrectCommission	0.258010	0.836655	0	0	4.402174e+01
209.403427	1.293003	city	6	1	1.096779	1.096779	0	1	0	0	CorrectCommission	0.211848	0.823570	0	0	4.360870e+01
210.689651	1.279441	city	3	1	0.966998	0.966998	0	1	0	0	CorrectCommission	1.074101	0.803541	0	0	4.319565e+01
211.969162	1.279565	city	9	1	0.964549	0.964549	0	1	0	0	CorrectCommission	1.090379	0.777426	0	0	4.278261e+01
213.262146	1.306417	city	7	1	1.261915	1.261915	0	1	0	0	CorrectCommission	0.885302	0.746428	1	0	4.236957e+01
214.588470	1.346213	city	8	1	1.279366	1.279366	0	1	0	0	CorrectCommission	1.001244	0.712017	1	0	4.195652e+01
215.901352	1.279549	mountain	8	0	0.000000	1.274945	1	0	0	0	CorrectOmission	0.971871	0.675899	1	0	4.154348e+01
217.187576	1.292928	city	9	1	1.221200	1.221200	0	1	0	0	CorrectCommission	0.614794	0.639962	1	0	4.113043e+01
218.507172	1.346240	city	2	1	1.090679	1.090679	0	1	0	0	CorrectCommission	0.252376	0.606135	1	0	4.071739e+01
219.860062	1.359554	city	1	1	1.097551	1.097551	0	1	0	0	CorrectCommission	0.206717	0.576260	1	0	4.030435e+01
221.199570	1.319448	city	7	1	1.248347	1.248347	0	1	0	0	CorrectCommission	0.795156	0.551909	1	0	3.989130e+01
222.505798	1.293021	city	8	1	1.117352	1.117352	0	1	0	0	CorrectCommission	0.075166	0.534211	1	0	3.947826e+01
223.818756	1.332889	city	4	1	1.074442	1.074442	0	1	0	0	CorrectCommission	0.360257	0.523742	1	0	3.906522e+01
225.164963	1.359529	city	9	1	1.166753	1.166753	0	1	0	0	CorrectCommission	0.253057	0.520438	1	0	3.865217e+01
226.504425	1.319408	city	4	1	1.062404	1.062404	0	1	0	0	CorrectCommission	0.440232	0.523601	1	0	3.823913e+01
227.824005	1.319728	city	2	1	1.045057	1.045057	0	1	0	0	CorrectCommission	0.555485	0.532003	1	0	3.782609e+01
229.123657	1.279582	city	8	1	1.081814	1.081814	0	1	0	0	CorrectCommission	0.311274	0.544057	1	0	3.741304e+01
229.763443	8.613647	break	0	1	1.085346	1.085346	0	0	0	0	ThoughtProbe	0.287811	0.558112	1	37	37
239.028641	1.303085	mountain	9	0	0.000000	1.203771	1	0	0	0	CorrectOmission	0.499001	0.572664	1	0	3.827500e+01
240.326630	1.292919	mountain	4	0	0.000000	1.329750	1	0	0	0	CorrectOmission	1.335994	0.586661	1	0	3.955000e+01
241.639542	1.332900	city	7	1	1.355940	1.355940	0	1	0	0	CorrectCommission	1.509998	0.599665	1	0	4.082500e+01
242.965790	1.319573	city	10	1	1.175000	1.175000	0	1	0	0	CorrectCommission	0.307845	0.611937	1	0	4.210000e+01
244.272034	1.292935	city	5	1	1.231285	1.231285	0	1	0	0	CorrectCommission	0.681803	0.624394	1	0	4.337500e+01
245.564850	1.292701	city	10	1	1.030998	1.030998	0	1	0	0	CorrectCommission	0.648895	0.638302	1	0	4.465000e+01
246.877686	1.332968	city	6	1	1.169561	1.169561	0	1	0	0	CorrectCommission	0.271711	0.655014	1	0	4.592500e+01
248.204010	1.319683	city	1	1	1.136452	1.136452	0	1	0	0	CorrectCommission	0.051739	0.675614	1	0	4.720000e+01
249.536957	1.346199	city	3	1	1.181545	1.181545	0	1	0	0	CorrectCommission	0.351331	0.700557	1	0	4.847500e+01
250.883179	1.346238	city	2	1	1.306269	1.306269	0	1	0	0	CorrectCommission	1.179986	0.729455	1	0	4.975000e+01
252.196075	1.279562	city	6	1	1.077975	1.077975	0	1	0	0	CorrectCommission	0.336783	0.760992	1	0	5.102500e+01
253.495651	1.319580	city	7	1	1.047981	1.047981	0	1	0	0	CorrectCommission	0.536057	0.793081	0	0	5.230000e+01
254.795212	1.279561	city	4	1	1.238220	1.238220	0	1	0	0	CorrectCommission	0.727875	0.823080	0	0	5.357500e+01
256.088135	1.306255	city	2	1	1.096764	1.096764	0	1	0	0	CorrectCommission	0.211949	0.848211	0	0	5.485000e+01
257.387634	1.292758	city	4	1	1.511769	1.511769	0	1	0	0	CorrectCommission	2.545314	0.865978	0	0	5.612500e+01
258.673798	1.279588	city	9	1	1.337990	1.337990	0	1	0	0	CorrectCommission	1.390741	0.874561	0	0	5.740000e+01
259.980042	1.332868	city	3	1	1.315593	1.315593	0	1	0	0	CorrectCommission	1.241939	0.873206	0	0	5.867500e+01
261.299652	1.306389	city	8	1	0.993060	0.993060	0	1	0	0	CorrectCommission	0.900949	0.862315	0	0	5.995000e+01
262.612640	1.319567	city	3	1	1.406672	1.406672	0	1	0	0	CorrectCommission	1.847061	0.843358	0	0	6.122500e+01
263.965515	1.386193	city	4	1	1.224093	1.224093	0	1	0	0	CorrectCommission	0.634017	0.818626	0	0	6.250000e+01
265.325012	1.332802	city	7	1	1.089335	1.089335	0	1	0	0	CorrectCommission	0.261306	0.790898	0	0	6.377500e+01
266.631256	1.279693	city	6	1	1.100758	1.100758	0	1	0	0	CorrectCommission	0.185411	0.762937	1	0	6.505000e+01
267.930878	1.319562	city	1	1	1.110195	1.110195	0	1	0	0	CorrectCommission	0.122713	0.737111	1	0	6.632500e+01
269.250458	1.319592	city	7	1	1.190757	1.190757	0	1	0	0	CorrectCommission	0.412536	0.715098	1	0	6.760000e+01
270.603271	1.386017	city	3	1	1.139452	1.139452	0	1	0	0	CorrectCommission	0.071667	0.697758	1	0	6.887500e+01
271.949402	1.306239	mountain	3	0	0.000000	1.302408	1	0	0	0	CorrectOmission	1.154336	0.685205	1	0	7.015000e+01
273.249054	1.293088	city	9	1	1.420672	1.420672	0	1	0	0	CorrectCommission	1.940077	0.676900	1	0	7.142500e+01
274.562073	1.332901	city	2	1	1.235292	1.235292	0	1	0	0	CorrectCommission	0.708423	0.671854	1	0	7.270000e+01
275.888306	1.319596	city	8	1	1.050627	1.050627	0	1	0	0	CorrectCommission	0.518480	0.668895	1	0	7.397500e+01
277.214539	1.332861	city	1	1	1.131550	1.131550	0	1	0	0	CorrectCommission	0.019166	0.666777	1	0	7.525000e+01
278.527435	1.292917	city	8	1	1.084172	1.084172	0	1	0	0	CorrectCommission	0.295610	0.664299	1	0	7.652500e+01
279.847168	1.346555	city	7	1	1.221722	1.221722	0	1	0	0	CorrectCommission	0.618263	0.660389	1	0	7.780000e+01
281.173309	1.305721	city	6	1	1.353785	1.353785	0	1	0	0	CorrectCommission	1.495683	0.654182	1	0	7.907500e+01
282.532593	1.412861	city	3	1	1.168836	1.168836	0	1	0	0	CorrectCommission	0.266892	0.645080	1	0	8.035000e+01
283.898834	1.319613	city	5	1	1.249639	1.249639	0	1	0	0	CorrectCommission	0.803740	0.632838	1	0	8.162500e+01
285.211731	1.306193	city	6	1	1.185424	1.185424	0	1	0	0	CorrectCommission	0.377102	0.617628	1	0	8.290000e+01
286.504608	1.279582	city	7	1	1.375869	1.375869	0	1	0	0	CorrectCommission	1.642408	0.600055	1	0	8.417500e+01
287.804108	1.319389	city	3	1	1.085828	1.085828	0	1	0	0	CorrectCommission	0.284609	0.581194	1	0	8.545000e+01
289.143646	1.359730	city	4	1	1.232494	1.232494	0	1	0	0	CorrectCommission	0.689831	0.562569	1	0	8.672500e+01
293.269135	6.891221	break	0	0	0.000000	1.222983	0	0	0	0	ThoughtProbe	0.626640	0.545949	1	88	88
297.381195	1.332895	city	4	1	1.143482	1.143482	0	1	0	0	CorrectCommission	0.098440	0.533172	1	0	8.705882e+01
298.714020	1.332752	city	9	1	1.080178	1.080178	0	1	0	0	CorrectCommission	0.322147	0.525956	1	0	8.611765e+01
300.026825	1.292892	city	2	1	1.111253	1.111253	0	1	0	0	CorrectCommission	0.115686	0.525668	1	0	8.517647e+01
301.319702	1.292822	mountain	9	0	0.000000	1.134984	1	0	0	0	CorrectOmission	0.041982	0.533128	1	0	8.423529e+01
302.612610	1.293006	city	2	1	1.193627	1.193627	0	1	0	0	CorrectCommission	0.431603	0.548522	1	0	8.329412e+01
303.905609	1.292967	city	4	1	1.329438	1.329438	0	1	0	0	CorrectCommission	1.333925	0.571348	1	0	8.235294e+01
305.238556	1.372975	city	5	1	1.145334	1.145334	0	1	0	0	CorrectCommission	0.110750	0.600487	1	0	8.141176e+01
306.578064	1.306032	city	1	1	1.167480	1.167480	0	1	0	0	CorrectCommission	0.257882	0.634361	1	0	8.047059e+01
307.890839	1.319491	city	7	1	1.258695	1.258695	0	1	0	0	CorrectCommission	0.863913	0.671048	1	0	7.952941e+01
309.197174	1.293188	city	6	1	1.127525	1.127525	0	1	0	0	CorrectCommission	0.007577	0.708546	1	0	7.858824e+01
310.523468	1.359392	city	9	1	0.943118	0.943118	0	1	0	0	CorrectCommission	1.232761	0.745021	1	0	7.764706e+01
311.882935	1.359580	city	10	1	0.961620	0.961620	0	1	0	0	CorrectCommission	1.109835	0.778956	0	0	7.670588e+01
313.202515	1.279545	city	4	1	1.431179	1.431179	0	1	0	0	CorrectCommission	2.009882	0.809358	0	0	7.576471e+01
314.495453	1.306360	city	6	1	1.210294	1.210294	0	1	0	0	CorrectCommission	0.542337	0.835787	0	0	7.482353e+01
315.808441	1.319586	city	5	1	1.272994	1.272994	0	1	0	0	CorrectCommission	0.958912	0.858406	0	0	7.388235e+01
317.141357	1.346262	city	2	1	1.141983	1.141983	0	1	0	0	CorrectCommission	0.088486	0.877869	0	0	7.294118e+01
318.460938	1.292893	city	10	1	1.007945	1.007945	0	1	0	0	CorrectCommission	0.802055	0.895179	0	0	72
319.753845	1.292926	city	1	1	0.981133	0.981133	0	1	0	0	CorrectCommission	0.980190	0.911517	0	0	7.105882e+01
321.066772	1.332932	city	3	1	0.942098	0.942098	0	1	0	0	CorrectCommission	1.239535	0.928061	0	0	7.011765e+01
322.386353	1.306207	city	2	1	0.972777	0.972777	0	1	0	0	CorrectCommission	1.035710	0.945845	0	0	6.917647e+01
323.692535	1.306191	mountain	4	0	0.000000	1.236366	1	0	0	0	CorrectOmission	0.715558	0.965596	0	0	6.823529e+01
324.992035	1.292767	city	4	1	1.381713	1.381713	0	1	0	0	CorrectCommission	1.681230	0.987607	0	0	6.729412e+01
326.311615	1.346402	city	5	1	1.057663	1.057663	0	1	0	0	CorrectCommission	0.471733	1.011630	0	0	6.635294e+01
327.624573	1.279509	city	4	1	1.075373	1.075373	0	1	0	0	CorrectCommission	0.354066	1.036867	0	0	6.541176e+01
328.917389	1.306126	city	2	1	1.018200	1.018200	0	1	0	0	CorrectCommission	0.733924	1.061948	0	0	6.447059e+01
330.216949	1.293016	city	8	1	0.974249	0.974249	0	1	0	0	CorrectCommission	1.025931	1.085065	0	0	6.352941e+01
331.523285	1.319631	city	4	1	0.914553	0.914553	0	1	0	0	CorrectCommission	1.422543	1.104169	0	0	6.258824e+01
332.856140	1.346125	city	2	1	0.862603	0.862603	0	1	0	0	CorrectCommission	1.767696	1.117251	0	0	6.164706e+01
334.175690	1.292957	city	8	1	0.921273	0.921273	0	1	0	0	CorrectCommission	1.377898	1.122632	0	0	6.070588e+01
335.481903	1.319451	city	4	1	0.925607	0.925607	0	1	0	0	CorrectCommission	1.349105	1.119268	0	0	5.976471e+01
336.795959	1.308660	city	10	1	0.878346	0.878346	0	1	0	0	CorrectCommission	1.663101	1.106898	0	0	5.882353e+01
338.122223	1.343890	city	6	1	0.914636	0.914636	0	1	0	0	CorrectCommission	1.421994	1.086171	0	0	5.788235e+01
339.453949	1.319521	city	5	1	1.005479	1.005479	0	1	0	0	CorrectCommission	0.818438	1.058651	0	0	5.694118e+01
342.992828	5.758281	break	0	0	0.000000	1.232974	0	0	0	0	ThoughtProbe	0.693020	1.026691	0	56	56
346.525085	1.306193	city	7	1	1.367732	1.367732	0	1	0	0	CorrectCommission	1.588347	0.993138	0	0	5.564706e+01
347.817932	1.279498	city	3	1	1.180368	1.180368	0	1	0	0	CorrectCommission	0.343508	0.961153	0	0	5.529412e+01
349.110748	1.306134	city	5	1	1.258937	1.258937	0	1	0	0	CorrectCommission	0.865517	0.933916	0	0	5.494118e+01
350.416931	1.306238	city	2	1	0.983129	0.983129	0	1	0	0	CorrectCommission	0.966930	0.914289	0	0	5.458824e+01
351.716492	1.292921	mountain	1	1	1.185407	1.185407	0	0	1	0	CommissionError	0.376991	0.904589	0	0	5.423529e+01
353.022766	1.319606	city	4	1	1.040662	1.040662	0	1	0	0	CorrectCommission	0.584684	0.906373	0	0	5.388235e+01
354.342407	1.319671	city	6	1	1.022471	1.022471	0	1	0	0	CorrectCommission	0.705545	0.920236	0	0	5.352941e+01
355.668701	1.332925	city	10	1	0.956869	0.956869	0	1	0	0	CorrectCommission	1.141399	0.945761	0	0	5.317647e+01
357.001526	1.332740	city	7	1	1.040191	1.040191	0	1	0	0	CorrectCommission	0.587817	0.981503	0	0	5.282353e+01
358.327667	1.319533	city	1	1	1.071238	1.071238	0	1	0	0	CorrectCommission	0.381542	1.025042	0	0	5.247059e+01
359.653870	1.332893	city	5	1	1.005334	1.005334	0	1	0	0	CorrectCommission	0.819404	1.073184	0	0	5.211765e+01
360.973541	1.306416	mountain	4	0	0.000000	1.246219	1	0	0	0	CorrectOmission	0.781021	1.122181	0	0	5.176471e+01
362.286499	1.319487	city	7	1	1.464325	1.464325	0	1	0	0	CorrectCommission	2.230100	1.168077	0	0	5.141176e+01
363.639404	1.386318	city	2	1	1.330081	1.330081	0	1	0	0	CorrectCommission	1.338195	1.207032	0	0	5.105882e+01
364.985657	1.306191	city	1	1	1.432217	1.432217	0	1	0	0	CorrectCommission	2.016777	1.235719	0	0	5.070588e+01
366.285217	1.292972	city	6	1	1.327843	1.327843	0	1	0	0	CorrectCommission	1.323325	1.251543	0	0	5.035294e+01
367.624817	1.386189	city	5	1	1.222151	1.222151	0	1	0	0	CorrectCommission	0.621112	1.252931	0	0	50
368.970917	1.306042	city	1	1	1.521905	1.521905	0	1	0	0	CorrectCommission	2.612660	1.239384	0	0	4.964706e+01
370.270477	1.293067	city	2	1	1.521480	1.521480	0	1	0	0	CorrectCommission	2.609835	1.211423	0	0	4.929412e+01
371.583435	1.332861	city	10	1	1.107116	1.107116	0	1	0	0	CorrectCommission	0.143173	1.170539	0	0	4.894118e+01
372.896362	1.292963	city	5	1	1.247577	1.247577	0	1	0	0	CorrectCommission	0.790042	1.119022	0	0	4.858824e+01
374.202606	1.319560	city	4	1	1.287936	1.287936	0	1	0	0	CorrectCommission	1.058187	1.059668	0	0	4.823529e+01
375.555481	1.386192	city	8	1	1.017132	1.017132	0	1	0	0	CorrectCommission	0.741018	0.995579	0	0	4.788235e+01
376.888397	1.279594	city	7	1	1.378603	1.378603	0	1	0	0	CorrectCommission	1.660569	0.930036	0	0	4.752941e+01
378.194611	1.332886	city	8	1	1.278146	1.278146	0	1	0	0	CorrectCommission	0.993139	0.866231	0	0	4.717647e+01
379.500763	1.279408	city	10	1	1.093598	1.093598	0	1	0	0	CorrectCommission	0.232983	0.807161	0	0	4.682353e+01
380.806915	1.332896	city	4	1	1.211955	1.211955	0	1	0	0	CorrectCommission	0.553371	0.755478	1	0	4.647059e+01
382.146515	1.346258	city	8	1	0.973184	0.973184	0	1	0	0	CorrectCommission	1.033004	0.713309	1	0	4.611765e+01
383.466064	1.292873	city	1	1	1.157559	1.157559	0	1	0	0	CorrectCommission	0.191972	0.682099	1	0	4.576471e+01
384.765625	1.306263	city	3	1	1.165863	1.165863	0	1	0	0	CorrectCommission	0.247142	0.662552	1	0	4.541176e+01
386.078613	1.319722	city	5	1	1.138301	1.138301	0	1	0	0	CorrectCommission	0.064021	0.654486	1	0	4.505882e+01
387.438232	1.399516	city	4	1	1.093213	1.093213	0	1	0	0	CorrectCommission	0.235544	0.656862	1	0	4.470588e+01
388.797791	1.319565	city	2	1	0.979961	0.979961	0	1	0	0	CorrectCommission	0.987981	0.667836	1	0	4.435294e+01
392.629822	6.344531	break	0	0	0.000000	1.041136	0	0	0	0	ThoughtProbe	0.581538	0.684965	1	44	44
396.461914	1.319625	city	2	1	1.102948	1.102948	0	1	0	0	CorrectCommission	0.170865	0.705470	1	0	4.382500e+01
397.781525	1.319599	city	1	1	0.991606	0.991606	0	1	0	0	CorrectCommission	0.910611	0.726558	1	0	4.365000e+01
399.101074	1.319529	city	6	1	0.982152	0.982152	0	1	0	0	CorrectCommission	0.973421	0.745690	1	0	4.347500e+01
400.407318	1.292906	city	8	1	0.809729	0.809729	0	1	0	0	CorrectCommission	2.118992	0.760859	1	0	4.330000e+01
401.733490	1.359481	city	3	1	0.931443	0.931443	0	1	0	0	CorrectCommission	1.310333	0.770719	0	0	4.312500e+01
403.079742	1.332997	city	7	1	1.115353	1.115353	0	1	0	0	CorrectCommission	0.088447	0.774632	0	0	4.295000e+01
404.412598	1.332702	city	5	1	1.039845	1.039845	0	1	0	0	CorrectCommission	0.590114	0.772565	0	0	4.277500e+01
405.718811	1.279763	mountain	5	0	0.000000	1.182398	1	0	0	0	CorrectOmission	0.357000	0.764921	1	0	4.260000e+01
407.005066	1.292746	city	10	1	1.332185	1.332185	0	1	0	0	CorrectCommission	1.352172	0.752348	1	0	4.242500e+01
408.317902	1.332896	city	1	1	1.278377	1.278377	0	1	0	0	CorrectCommission	0.994676	0.735536	1	0	4.225000e+01
409.644196	1.319698	city	5	1	1.143551	1.143551	0	1	0	0	CorrectCommission	0.098903	0.715137	1	0	4.207500e+01
410.950378	1.292703	city	8	1	1.059703	1.059703	0	1	0	0	CorrectCommission	0.458181	0.691699	1	0	4.190000e+01
412.243317	1.293119	city	3	1	0.949203	0.949203	0	1	0	0	CorrectCommission	1.192334	0.665745	1	0	4.172500e+01
413.536255	1.292773	mountain	7	0	0.000000	1.141468	1	0	0	0	CorrectOmission	0.085063	0.637926	1	0	4.155000e+01
414.835754	1.306250	city	6	1	1.345891	1.345891	0	1	0	0	CorrectCommission	1.443232	0.609144	1	0	4.137500e+01
416.181976	1.386193	city	3	1	1.271862	1.271862	0	1	0	0	CorrectCommission	0.951393	0.580633	1	0	4.120000e+01
417.568268	1.386357	city	8	1	1.009949	1.009949	0	1	0	0	CorrectCommission	0.788742	0.554052	1	0	4.102500e+01
418.914520	1.306141	city	6	1	1.134501	1.134501	0	1	0	0	CorrectCommission	0.038774	0.531371	1	0	4.085000e+01
420.214081	1.292995	city	9	1	1.175296	1.175296	0	1	0	0	CorrectCommission	0.309811	0.514735	1	0	4.067500e+01
421.513702	1.306241	city	10	1	1.113066	1.113066	0	1	0	0	CorrectCommission	0.103639	0.506115	1	0	4.050000e+01
422.866577	1.399544	city	1	1	1.115608	1.115608	0	1	0	0	CorrectCommission	0.086747	0.507071	1	0	4.032500e+01
424.246063	1.359409	city	8	1	1.027455	1.027455	0	1	0	0	CorrectCommission	0.672430	0.518473	1	0	4.015000e+01
425.605621	1.359694	city	1	1	1.105569	1.105569	0	1	0	0	CorrectCommission	0.153451	0.540277	1	0	3.997500e+01
426.931915	1.292923	city	2	1	1.106947	1.106947	0	1	0	0	CorrectCommission	0.144296	0.571445	1	0	3.980000e+01
428.271393	1.386027	city	7	1	1.164783	1.164783	0	1	0	0	CorrectCommission	0.239967	0.610020	1	0	3.962500e+01
429.637604	1.346387	city	10	1	1.057333	1.057333	0	1	0	0	CorrectCommission	0.473928	0.653336	1	0	3.945000e+01
430.963898	1.306174	city	2	1	1.103418	1.103418	0	1	0	0	CorrectCommission	0.167742	0.698369	1	0	3.927500e+01
432.270050	1.306168	mountain	5	0	0.000000	1.318028	1	0	0	0	CorrectOmission	1.258115	0.742221	1	0	3.910000e+01
433.576263	1.306252	city	1	1	1.478145	1.478145	0	1	0	0	CorrectCommission	2.321919	0.782388	0	0	3.892500e+01
434.895844	1.332878	city	7	1	1.360749	1.360749	0	1	0	0	CorrectCommission	1.541950	0.817171	0	0	3.875000e+01
436.228790	1.333028	city	10	1	1.110107	1.110107	0	1	0	0	CorrectCommission	0.123295	0.845836	0	0	3.857500e+01
437.561768	1.332903	city	4	1	1.005127	1.005127	0	1	0	0	CorrectCommission	0.820776	0.868642	0	0	3.840000e+01
438.874573	1.292735	city	9	1	0.857806	0.857806	0	1	0	0	CorrectCommission	1.799572	0.886594	0	0	3.822500e+01
440.167419	1.292975	city	6	1	1.108295	1.108295	0	1	0	0	CorrectCommission	0.135340	0.901201	0	0	3.805000e+01
441.500427	1.373006	city	10	1	0.980901	0.980901	0	1	0	0	CorrectCommission	0.981734	0.914108	0	0	3.787500e+01
442.846619	1.319407	city	2	1	1.072458	1.072458	0	1	0	0	CorrectCommission	0.373439	0.926742	0	0	3.770000e+01
444.199493	1.386342	city	5	1	1.074249	1.074249	0	1	0	0	CorrectCommission	0.361535	0.940049	0	0	3.752500e+01
445.559113	1.332897	city	6	1	1.393733	1.393733	0	1	0	0	CorrectCommission	1.761095	0.954373	0	0	3.735000e+01
446.925354	1.399562	city	7	1	1.119752	1.119752	0	1	0	0	CorrectCommission	0.059217	0.969433	0	0	3.717500e+01
450.330902	5.411533	break	0	0	0.000000	1.230949	0	0	0	0	ThoughtProbe	0.679568	0.984531	0	37	37
453.676453	1.279577	mountain	4	0	0.000000	1.438079	1	0	0	0	CorrectOmission	2.055728	0.998642	0	0	3.658696e+01
454.956024	1.279581	city	5	1	1.451898	1.451898	0	1	0	0	CorrectCommission	2.147541	1.010648	0	0	3.617391e+01
456.235535	1.279441	city	8	1	0.983161	0.983161	0	1	0	0	CorrectCommission	0.966717	1.019556	0	0	3.576087e+01
457.515106	1.279713	city	4	1	1.071602	1.071602	0	1	0	0	CorrectCommission	0.379122	1.024593	0	0	3.534783e+01
458.794769	1.279585	city	1	1	1.030805	1.030805	0	1	0	0	CorrectCommission	0.650172	1.025232	0	0	3.493478e+01
460.080994	1.292898	city	10	1	1.084251	1.084251	0	1	0	0	CorrectCommission	0.295082	1.021177	0	0	3.452174e+01
461.367188	1.279461	city	6	1	1.497401	1.497401	0	1	0	0	CorrectCommission	2.449857	1.012370	0	0	3.410870e+01
462.646759	1.279706	city	10	1	0.985254	0.985254	0	1	0	0	CorrectCommission	0.952813	0.998908	0	0	3.369565e+01
463.926331	1.279427	mountain	9	0	0.000000	0.960728	1	0	0	0	CorrectOmission	1.115761	0.981170	0	0	3.328261e+01
465.205841	1.279570	mountain	10	0	0.000000	1.167882	1	0	0	0	CorrectOmission	0.260556	0.959706	0	0	3.286957e+01
466.492157	1.293081	city	5	1	1.350775	1.350775	0	1	0	0	CorrectCommission	1.475680	0.935303	0	0	3.245652e+01
467.778412	1.279400	city	10	1	1.253464	1.253464	0	1	0	0	CorrectCommission	0.829156	0.908941	0	0	3.204348e+01
469.057922	1.279659	city	6	1	1.401216	1.401216	0	1	0	0	CorrectCommission	1.810811	0.881849	0	0	3.163043e+01
470.344238	1.292993	city	8	1	1.105303	1.105303	0	1	0	0	CorrectCommission	0.155213	0.855327	0	0	3.121739e+01
471.630554	1.279605	city	2	1	0.964142	0.964142	0	1	0	0	CorrectCommission	1.093077	0.830710	0	0	3.080435e+01
472.910065	1.279404	city	1	1	1.071192	1.071192	0	1	0	0	CorrectCommission	0.381846	0.809195	0	0	3.039130e+01
474.189636	1.279732	city	4	1	1.191548	1.191548	0	1	0	0	CorrectCommission	0.417791	0.791724	0	0	2.997826e+01
475.475952	1.292929	city	2	1	1.008960	1.008960	0	1	0	0	CorrectCommission	0.795311	0.778876	0	0	2.956522e+01
476.762115	1.279409	city	7	1	1.105933	1.105933	0	1	0	0	CorrectCommission	0.151027	0.770810	0	0	2.915217e+01
478.041656	1.279662	city	10	1	1.022849	1.022849	0	1	0	0	CorrectCommission	0.703035	0.767259	1	0	2.873913e+01
479.327972	1.292972	city	2	1	1.256626	1.256626	0	1	0	0	CorrectCommission	0.850165	0.767591	1	0	2.832609e+01
480.614288	1.279631	city	10	1	1.318820	1.318820	0	1	0	0	CorrectCommission	1.263374	0.770877	0	0	2.791304e+01
481.893860	1.279528	city	7	1	1.337737	1.337737	0	1	0	0	CorrectCommission	1.389057	0.775956	0	0	2.750000e+01
483.173370	1.279508	city	6	1	1.270480	1.270480	0	1	0	0	CorrectCommission	0.942210	0.781493	0	0	2.708696e+01
484.466217	1.306157	city	4	1	1.158245	1.158245	0	1	0	0	CorrectCommission	0.196525	0.786039	0	0	2.667391e+01
485.765808	1.293061	city	7	1	1.114628	1.114628	0	1	0	0	CorrectCommission	0.093259	0.788062	0	0	2.626087e+01
487.052124	1.279569	city	9	1	1.071585	1.071585	0	1	0	0	CorrectCommission	0.379234	0.785990	0	0	2.584783e+01
488.331665	1.279491	city	7	1	0.966498	0.966498	0	1	0	0	CorrectCommission	1.077425	0.778357	0	0	2.543478e+01
489.611267	1.279694	city	3	1	0.925674	0.925674	0	1	0	0	CorrectCommission	1.348661	0.763941	1	0	2.502174e+01
490.890900	1.279577	city	1	1	0.910901	0.910901	0	1	0	0	CorrectCommission	1.446807	0.742049	1	0	2.460870e+01
492.177032	1.292724	city	3	1	0.977627	0.977627	0	1	0	0	CorrectCommission	1.003488	0.712687	1	0	2.419565e+01
493.463196	1.279580	city	7	1	0.970819	0.970819	0	1	0	0	CorrectCommission	1.048721	0.676776	1	0	2.378261e+01
494.742859	1.279754	mountain	1	0	0.000000	1.028567	1	0	0	0	CorrectOmission	0.665046	0.636143	1	0	2.336957e+01
496.022522	1.279569	city	5	1	1.070900	1.070900	0	1	0	0	CorrectCommission	0.383790	0.593514	1	0	2.295652e+01
497.302124	1.279624	city	2	1	1.017845	1.017845	0	1	0	0	CorrectCommission	0.736279	0.552282	1	0	2.254348e+01
498.581604	1.279366	city	6	1	1.155765	1.155765	0	1	0	0	CorrectCommission	0.180051	0.516244	1	0	2.213043e+01
499.861084	1.279595	city	7	1	1.159984	1.159984	0	1	0	0	CorrectCommission	0.208082	0.489235	1	0	2.171739e+01
501.140778	1.279783	city	5	1	1.124565	1.124565	0	1	0	0	CorrectCommission	0.027242	0.474747	1	0	2.130435e+01
502.420441	1.279545	city	4	1	1.131237	1.131237	0	1	0	0	CorrectCommission	0.017086	0.475611	1	0	2.089130e+01
503.700012	1.279561	city	7	1	1.133962	1.133962	0	1	0	0	CorrectCommission	0.035191	0.493695	1	0	2.047826e+01
504.979553	1.279574	city	2	1	1.124551	1.124551	0	1	0	0	CorrectCommission	0.027331	0.529733	1	0	2.006522e+01
506.259155	1.279577	city	9	1	0.996586	0.996586	0	1	0	0	CorrectCommission	0.877526	0.583227	1	0	1.965217e+01
507.538727	1.279605	city	8	1	1.176339	1.176339	0	1	0	0	CorrectCommission	0.316741	0.652438	1	0	1.923913e+01
508.818329	1.279579	city	4	1	1.123756	1.123756	0	1	0	0	CorrectCommission	0.032618	0.734539	1	0	1.882609e+01
510.097900	1.279555	city	10	1	1.056842	1.056842	0	1	0	0	CorrectCommission	0.477187	0.825781	0	0	1.841304e+01
510.737671	8.757626	break	0	0	0.000000	0.989928	0	0	0	0	ThoughtProbe	0.921757	0.921757	0	18	18
