onset	duration	trial_type	image_type	Press	ReactionTime	ReactionTime_Interpolated	CorrectOmission	CorrectCommission	CommissionError	OmissionError	response_type	nonsmoothVarianceTimeCourse	VarianceTimeCourse	In_the_Zone	ThoughtProbe	ThoughtProbe_Interpolated
0.653113	1.279578	mountain	10	0	0.000000	0.878442	1	0	0	0	CorrectOmission	2.007270	2.007270	0	0	99
1.932612	1.279421	city	10	1	1.074076	1.074076	0	1	0	0	CorrectCommission	1.256917	1.831245	0	0	99
3.212182	1.279718	mountain	6	0	0.000000	1.269709	1	0	0	0	CorrectOmission	0.506565	1.660692	0	0	99
4.491753	1.279423	city	10	1	1.451144	1.451144	0	1	0	0	CorrectCommission	0.189326	1.500473	0	0	99
5.771326	1.279724	city	6	1	1.604179	1.604179	0	1	0	0	CorrectCommission	0.776291	1.354415	0	0	99
7.050992	1.279609	city	7	1	1.182023	1.182023	0	1	0	0	CorrectCommission	0.842886	1.224962	0	0	99
8.330581	1.279569	city	3	1	1.128133	1.128133	0	1	0	0	CorrectCommission	1.049579	1.113217	0	0	99
9.610163	1.279594	city	10	1	0.961600	0.961600	0	1	0	0	CorrectCommission	1.688315	1.019073	0	0	99
10.889665	1.279411	city	8	1	1.075878	1.075878	0	1	0	0	CorrectCommission	1.250002	0.941526	0	0	99
12.169149	1.279559	city	5	1	1.351405	1.351405	0	1	0	0	CorrectCommission	0.193221	0.879071	0	0	99
13.448795	1.279733	city	1	1	1.128813	1.128813	0	1	0	0	CorrectCommission	1.046972	0.829976	0	0	99
14.728413	1.279502	city	5	1	1.399710	1.399710	0	1	0	0	CorrectCommission	0.007950	0.792453	0	0	99
16.007984	1.279641	mountain	10	0	0.000000	1.246349	1	0	0	0	CorrectOmission	0.596165	0.764896	0	0	99
17.287535	1.279461	city	2	1	1.073888	1.073888	0	1	0	0	CorrectCommission	1.257636	0.745810	0	0	99
18.567131	1.279731	city	8	1	1.287487	1.287487	0	1	0	0	CorrectCommission	0.438379	0.733824	1	0	99
19.846712	1.279432	city	1	1	1.358941	1.358941	0	1	0	0	CorrectCommission	0.164317	0.727666	1	0	99
21.126307	1.279754	city	7	1	1.575312	1.575312	0	1	0	0	CorrectCommission	0.665571	0.726060	1	0	99
22.405962	1.279560	city	5	1	1.235460	1.235460	0	1	0	0	CorrectCommission	0.637928	0.727696	1	0	99
23.685448	1.279409	city	10	1	0.921878	0.921878	0	1	0	0	CorrectCommission	1.840670	0.731267	1	0	99
24.965027	1.279750	city	5	1	1.390608	1.390608	0	1	0	0	CorrectCommission	0.042858	0.735463	1	0	99
26.244778	1.279753	city	2	1	1.181229	1.181229	0	1	0	0	CorrectCommission	0.845932	0.739114	1	0	99
27.524281	1.279249	city	1	1	1.246352	1.246352	0	1	0	0	CorrectCommission	0.596151	0.741132	1	0	99
28.803705	1.279602	city	2	1	1.207104	1.207104	0	1	0	0	CorrectCommission	0.746687	0.740674	1	0	99
30.083363	1.279715	city	1	1	1.074183	1.074183	0	1	0	0	CorrectCommission	1.256506	0.737175	1	0	99
31.362955	1.279468	city	9	1	1.252045	1.252045	0	1	0	0	CorrectCommission	0.574316	0.730402	1	0	99
32.642517	1.279654	city	5	1	1.182700	1.182700	0	1	0	0	CorrectCommission	0.840288	0.720519	1	0	99
33.922073	1.279464	city	4	1	1.234009	1.234009	0	1	0	0	CorrectCommission	0.643495	0.708024	1	0	99
35.201576	1.279541	city	5	1	1.247839	1.247839	0	1	0	0	CorrectCommission	0.590450	0.693764	1	0	99
36.481232	1.279765	city	2	1	1.086388	1.086388	0	1	0	0	CorrectCommission	1.209691	0.678870	1	0	99
37.760899	1.279573	mountain	1	0	0.000000	1.186442	1	0	0	0	CorrectOmission	0.825936	0.664635	1	0	99
39.040482	1.279588	city	8	1	1.339669	1.339669	0	1	0	0	CorrectCommission	0.238235	0.652427	1	0	99
40.320065	1.279580	city	5	1	1.337740	1.337740	0	1	0	0	CorrectCommission	0.245636	0.643526	1	0	99
41.599640	1.279570	city	10	1	1.183781	1.183781	0	1	0	0	CorrectCommission	0.836144	0.638957	1	0	99
42.879196	1.279545	city	6	1	1.509942	1.509942	0	1	0	0	CorrectCommission	0.414847	0.639381	1	0	99
44.158779	1.279618	city	5	1	1.497813	1.497813	0	1	0	0	CorrectCommission	0.368324	0.645001	1	0	99
45.438381	1.279585	city	3	1	1.537999	1.537999	0	1	0	0	CorrectCommission	0.522459	0.655524	1	0	99
46.771183	1.386021	city	8	1	1.324616	1.324616	0	1	0	0	CorrectCommission	0.295972	0.670198	1	0	99
48.104076	1.279770	city	9	1	1.287021	1.287021	0	1	0	0	CorrectCommission	0.440168	0.687912	1	0	99
49.383732	1.279538	city	8	1	1.033925	1.033925	0	1	0	0	CorrectCommission	1.410915	0.707298	1	0	99
50.663288	1.279578	city	9	1	0.975290	0.975290	0	1	0	0	CorrectCommission	1.635808	0.726854	1	0	99
51.942810	1.279464	city	1	1	1.322924	1.322924	0	1	0	0	CorrectCommission	0.302462	0.745071	1	0	99
53.249054	1.333024	city	9	1	1.347879	1.347879	0	1	0	0	CorrectCommission	0.206745	0.760603	0	0	99
54.555370	1.279604	city	4	1	1.289765	1.289765	0	1	0	0	CorrectCommission	0.429641	0.772248	0	0	99
55.834995	1.279652	city	1	1	1.136771	1.136771	0	1	0	0	CorrectCommission	1.016450	0.779060	0	0	99
57.114483	1.279321	city	9	1	1.835930	1.835930	0	1	0	0	CorrectCommission	1.665171	0.780372	0	0	99
60.779900	6.051513	break	0	0	0.000000	1.676862	0	0	0	0	ThoughtProbe	1.055066	0.775810	0	99	99
64.452034	1.292756	city	10	1	1.263568	1.263568	0	1	0	0	CorrectCommission	0.530119	0.765351	0	0	9.715000e+01
65.738228	1.279627	city	8	1	1.200052	1.200052	0	1	0	0	CorrectCommission	0.773736	0.749269	0	0	9.530000e+01
67.017883	1.279695	city	4	1	1.622213	1.622213	0	1	0	0	CorrectCommission	0.845460	0.728103	1	0	9.345000e+01
68.310852	1.306239	mountain	4	0	0.000000	1.628097	1	0	0	0	CorrectOmission	0.868027	0.702619	1	0	9.160000e+01
69.603676	1.279406	city	8	1	1.402631	1.402631	0	1	0	0	CorrectCommission	0.003257	0.673734	1	0	8.975000e+01
70.903198	1.319636	city	6	1	1.130745	1.130745	0	1	0	0	CorrectCommission	1.039560	0.642509	1	0	8.790000e+01
72.202858	1.279681	city	8	1	1.084555	1.084555	0	1	0	0	CorrectCommission	1.216725	0.610006	1	0	8.605000e+01
73.482391	1.279394	city	6	1	1.355642	1.355642	0	1	0	0	CorrectCommission	0.176972	0.577277	1	0	8.420000e+01
74.775215	1.306252	city	1	1	1.226738	1.226738	0	1	0	0	CorrectCommission	0.671382	0.545329	1	0	8.235000e+01
76.068123	1.279568	city	10	1	1.420076	1.420076	0	1	0	0	CorrectCommission	0.070167	0.515049	1	0	8.050000e+01
77.354454	1.293093	mountain	10	0	0.000000	1.339630	1	0	0	0	CorrectOmission	0.238385	0.487230	1	0	7.865000e+01
78.647446	1.292887	city	5	1	1.207326	1.207326	0	1	0	0	CorrectCommission	0.745837	0.462516	1	0	7.680000e+01
79.933632	1.279478	city	10	1	1.245091	1.245091	0	1	0	0	CorrectCommission	0.600987	0.441413	1	0	7.495000e+01
81.213203	1.279664	city	1	1	1.446420	1.446420	0	1	0	0	CorrectCommission	0.171209	0.424375	1	0	7.310000e+01
82.499413	1.292762	city	4	1	1.431398	1.431398	0	1	0	0	CorrectCommission	0.113591	0.411767	1	0	7.125000e+01
83.792336	1.293086	city	10	1	1.416984	1.416984	0	1	0	0	CorrectCommission	0.058306	0.403937	1	0	6.940000e+01
85.085266	1.292767	city	8	1	1.632596	1.632596	0	1	0	0	CorrectCommission	0.885284	0.401247	1	0	6.755000e+01
86.384781	1.306264	city	1	1	1.202937	1.202937	0	1	0	0	CorrectCommission	0.762670	0.404054	1	0	6.570000e+01
87.677765	1.279700	city	8	1	1.330750	1.330750	0	1	0	0	CorrectCommission	0.272444	0.412703	1	0	6.385000e+01
88.970634	1.306045	city	6	1	1.393647	1.393647	0	1	0	0	CorrectCommission	0.031204	0.427454	1	0	62
90.263451	1.279588	city	4	1	1.399702	1.399702	0	1	0	0	CorrectCommission	0.007981	0.448376	1	0	6.015000e+01
91.549782	1.293075	city	10	1	1.304276	1.304276	0	1	0	0	CorrectCommission	0.373985	0.475309	1	0	5.830000e+01
92.842781	1.292912	city	3	1	1.435675	1.435675	0	1	0	0	CorrectCommission	0.129993	0.507788	1	0	5.645000e+01
94.135628	1.292789	city	7	1	1.372656	1.372656	0	1	0	0	CorrectCommission	0.111716	0.545046	1	0	5.460000e+01
95.421852	1.279656	city	8	1	0.980948	0.980948	0	1	0	0	CorrectCommission	1.614106	0.586018	1	0	5.275000e+01
96.708168	1.292972	city	7	1	1.083746	1.083746	0	1	0	0	CorrectCommission	1.219825	0.629358	1	0	5.090000e+01
97.994347	1.279387	city	1	1	1.369719	1.369719	0	1	0	0	CorrectCommission	0.122980	0.673597	1	0	4.905000e+01
99.280563	1.293056	city	10	1	1.428122	1.428122	0	1	0	0	CorrectCommission	0.101024	0.717183	1	0	4.720000e+01
100.573540	1.292893	city	8	1	1.282206	1.282206	0	1	0	0	CorrectCommission	0.458636	0.758573	0	0	4.535000e+01
101.859795	1.279616	mountain	6	0	0.000000	1.084110	1	0	0	0	CorrectOmission	1.218429	0.796388	0	0	4.350000e+01
103.139328	1.279447	city	1	1	1.092513	1.092513	0	1	0	0	CorrectCommission	1.186201	0.829469	0	0	4.165000e+01
104.418831	1.279558	city	5	1	1.566090	1.566090	0	1	0	0	CorrectCommission	0.630202	0.857016	0	0	3.980000e+01
105.698456	1.279689	city	9	1	1.997013	1.997013	0	1	0	0	CorrectCommission	2.283003	0.878647	0	0	3.795000e+01
106.978104	1.279603	city	4	0	0.000000	1.571772	0	0	0	1	OmissionError	0.651995	0.894325	0	0	3.610000e+01
108.264381	1.292966	city	5	1	1.092317	1.092317	0	1	0	0	CorrectCommission	1.186951	0.904428	0	0	3.425000e+01
109.550545	1.279357	city	6	0	0.000000	1.360597	0	0	0	1	OmissionError	0.157968	0.909511	0	0	3.240000e+01
110.836769	1.293094	city	7	1	1.626402	1.626402	0	1	0	0	CorrectCommission	0.861528	0.910264	0	0	3.055000e+01
112.123108	1.279583	city	1	1	1.139526	1.139526	0	1	0	0	CorrectCommission	1.005882	0.907304	0	0	2.870000e+01
113.429291	1.332776	city	3	1	1.153667	1.153667	0	1	0	0	CorrectCommission	0.951646	0.901138	0	0	2.685000e+01
117.061424	5.931501	break	0	1	1.262095	1.262095	0	0	0	0	ThoughtProbe	0.535769	0.892177	0	25	25
120.680214	1.306073	city	5	1	1.097493	1.097493	0	1	0	0	CorrectCommission	1.167101	0.880779	0	0	2.504348e+01
121.973068	1.279628	city	4	1	1.178042	1.178042	0	1	0	0	CorrectCommission	0.858156	0.867288	0	0	2.508696e+01
123.266006	1.306254	city	9	1	1.051619	1.051619	0	1	0	0	CorrectCommission	1.343048	0.852246	0	0	2.513043e+01
124.572296	1.306329	city	6	1	1.050737	1.050737	0	1	0	0	CorrectCommission	1.346430	0.836424	0	0	2.517391e+01
125.885246	1.319568	city	7	1	1.173890	1.173890	0	1	0	0	CorrectCommission	0.874079	0.820917	0	0	2.521739e+01
127.184807	1.279559	city	6	1	1.300129	1.300129	0	1	0	0	CorrectCommission	0.389891	0.807144	0	0	2.526087e+01
128.464294	1.279410	city	5	1	1.408999	1.408999	0	1	0	0	CorrectCommission	0.027681	0.796728	0	0	2.530435e+01
129.750504	1.293020	city	6	1	1.519596	1.519596	0	1	0	0	CorrectCommission	0.451874	0.791445	0	0	2.534783e+01
131.036850	1.279657	city	2	1	1.046166	1.046166	0	1	0	0	CorrectCommission	1.363965	0.793057	0	0	2.539130e+01
132.329697	1.306049	mountain	6	0	0.000000	1.152905	1	0	0	0	CorrectOmission	0.954569	0.803177	0	0	2.543478e+01
133.629257	1.293074	mountain	8	0	0.000000	1.466327	1	0	0	0	CorrectOmission	0.247559	0.823126	0	0	2.547826e+01
134.915543	1.279482	city	2	1	1.612945	1.612945	0	1	0	0	CorrectCommission	0.809913	0.853774	0	0	2.552174e+01
136.208450	1.306350	city	5	1	1.219274	1.219274	0	1	0	0	CorrectCommission	0.700010	0.895358	0	0	2.556522e+01
137.501419	1.279575	city	10	1	1.088020	1.088020	0	1	0	0	CorrectCommission	1.203433	0.947410	0	0	2.560870e+01
138.780945	1.279475	city	9	1	1.354556	1.354556	0	1	0	0	CorrectCommission	0.181136	1.008567	0	0	2.565217e+01
140.073776	1.306185	city	2	1	1.218731	1.218731	0	1	0	0	CorrectCommission	0.702091	1.076662	0	0	2.569565e+01
141.366745	1.279743	mountain	2	0	0.000000	1.326891	1	0	0	0	CorrectOmission	0.287244	1.148661	0	0	2.573913e+01
142.652985	1.292738	city	2	1	1.634224	1.634224	0	1	0	0	CorrectCommission	0.891529	1.220925	0	0	2.578261e+01
143.952515	1.306326	city	7	0	0.000000	2.095918	0	0	0	1	OmissionError	2.662353	1.289379	0	0	2.582609e+01
145.245499	1.279644	city	5	1	2.222872	2.222872	0	1	0	0	CorrectCommission	3.149283	1.349869	0	0	2.586957e+01
146.531769	1.292916	city	1	1	1.525984	1.525984	0	1	0	0	CorrectCommission	0.476374	1.398506	0	0	2.591304e+01
147.818024	1.279588	city	8	1	1.023103	1.023103	0	1	0	0	CorrectCommission	1.452421	1.432079	0	0	2.595652e+01
149.097610	1.279573	city	7	1	1.034223	1.034223	0	1	0	0	CorrectCommission	1.409773	1.448161	0	0	26
150.397095	1.319407	mountain	10	0	0.000000	0.886415	1	0	0	0	CorrectOmission	1.976688	1.445443	0	0	2.604348e+01
151.703247	1.292882	city	10	1	0.813445	0.813445	0	1	0	0	CorrectCommission	2.256563	1.423806	0	0	2.608696e+01
153.009552	1.319733	city	7	1	1.049078	1.049078	0	1	0	0	CorrectCommission	1.352796	1.384383	0	0	2.613043e+01
154.329208	1.319584	city	9	1	0.821359	0.821359	0	1	0	0	CorrectCommission	2.226211	1.329509	0	0	2.617391e+01
155.628784	1.279562	city	2	1	1.017224	1.017224	0	1	0	0	CorrectCommission	1.474970	1.262484	0	0	2.621739e+01
156.921631	1.306141	city	7	1	0.932701	0.932701	0	1	0	0	CorrectCommission	1.799158	1.187324	0	0	2.626087e+01
158.221634	1.293865	city	4	1	1.272924	1.272924	0	1	0	0	CorrectCommission	0.494235	1.108367	0	0	2.630435e+01
159.527847	1.318540	city	10	1	1.213345	1.213345	0	1	0	0	CorrectCommission	0.722751	1.029913	0	0	2.634783e+01
160.827042	1.279860	city	5	1	1.457502	1.457502	0	1	0	0	CorrectCommission	0.213711	0.955784	0	0	2.639130e+01
162.106613	1.279301	city	1	1	1.517410	1.517410	0	1	0	0	CorrectCommission	0.443490	0.889094	0	0	2.643478e+01
163.406067	1.319581	city	10	1	1.343457	1.343457	0	1	0	0	CorrectCommission	0.223705	0.832069	0	0	2.647826e+01
164.712311	1.292922	city	8	1	1.140051	1.140051	0	1	0	0	CorrectCommission	1.003869	0.786076	0	0	2.652174e+01
166.011963	1.306377	city	2	1	1.221007	1.221007	0	1	0	0	CorrectCommission	0.693364	0.751654	0	0	2.656522e+01
167.318283	1.306250	city	5	1	1.123196	1.123196	0	1	0	0	CorrectCommission	1.068518	0.728856	1	0	2.660870e+01
168.611191	1.279584	city	4	1	1.476134	1.476134	0	1	0	0	CorrectCommission	0.285175	0.717354	1	0	2.665217e+01
169.890701	1.279436	city	2	1	1.070859	1.070859	0	1	0	0	CorrectCommission	1.269256	0.716688	1	0	2.669565e+01
171.170212	1.279591	city	4	1	1.429039	1.429039	0	1	0	0	CorrectCommission	0.104542	0.726334	1	0	2.673913e+01
172.456528	1.293025	city	8	1	1.190565	1.190565	0	1	0	0	CorrectCommission	0.810123	0.745751	1	0	2.678261e+01
173.742813	1.279543	city	4	1	1.517302	1.517302	0	1	0	0	CorrectCommission	0.443073	0.774249	0	0	2.682609e+01
175.028992	1.292838	city	1	1	1.243468	1.243468	0	1	0	0	CorrectCommission	0.607213	0.810990	0	0	2.686957e+01
176.315170	1.279509	city	8	1	1.488470	1.488470	0	1	0	0	CorrectCommission	0.332491	0.854755	0	0	2.691304e+01
177.621445	1.333037	city	1	1	1.550945	1.550945	0	1	0	0	CorrectCommission	0.572111	0.903903	0	0	2.695652e+01
181.133667	5.691401	break	0	0	0.000000	1.741270	0	0	0	0	ThoughtProbe	1.302102	0.956329	0	27	27
184.625854	1.292971	city	10	1	1.813580	1.813580	0	1	0	0	CorrectCommission	1.579447	1.009498	0	0	2.720588e+01
185.918747	1.292831	mountain	3	0	0.000000	1.522010	1	0	0	0	CorrectOmission	0.461132	1.060585	0	0	2.741176e+01
187.204941	1.279543	city	4	0	0.000000	1.123548	0	0	0	1	OmissionError	1.067166	1.106675	0	0	2.761765e+01
188.484573	1.279729	city	6	1	0.875184	0.875184	0	1	0	0	CorrectCommission	2.019766	1.144956	0	0	2.782353e+01
189.764221	1.279574	city	2	1	1.033906	1.033906	0	1	0	0	CorrectCommission	1.410988	1.172976	0	0	2.802941e+01
191.050415	1.292788	city	10	1	1.221144	1.221144	0	1	0	0	CorrectCommission	0.692836	1.188908	0	0	2.823529e+01
192.336639	1.279683	city	4	1	1.846586	1.846586	0	1	0	0	CorrectCommission	1.706042	1.191723	0	0	2.844118e+01
193.636276	1.319579	city	5	1	2.048613	2.048613	0	1	0	0	CorrectCommission	2.480915	1.181260	0	0	2.864706e+01
194.935852	1.279569	city	8	0	0.000000	1.426900	0	0	0	1	OmissionError	0.096340	1.158304	0	0	2.885294e+01
196.235367	1.319453	city	5	1	0.811222	0.811222	0	1	0	0	CorrectCommission	2.265089	1.124591	0	0	2.905882e+01
197.534943	1.279710	mountain	8	0	0.000000	1.031352	1	0	0	0	CorrectOmission	1.420782	1.082487	0	0	2.926471e+01
198.814590	1.279582	city	4	1	1.531065	1.531065	0	1	0	0	CorrectCommission	0.495861	1.034894	0	0	2.947059e+01
200.100739	1.292725	city	7	1	1.754133	1.754133	0	1	0	0	CorrectCommission	1.351437	0.984899	0	0	2.967647e+01
201.413605	1.332999	city	6	0	0.000000	1.575518	0	0	0	1	OmissionError	0.666362	0.935440	0	0	2.988235e+01
202.719910	1.279607	city	2	1	1.313895	1.313895	0	1	0	0	CorrectCommission	0.337091	0.889053	0	0	3.008824e+01
203.999435	1.279462	city	8	1	1.287939	1.287939	0	1	0	0	CorrectCommission	0.436646	0.847661	0	0	3.029412e+01
205.279037	1.279740	city	1	1	1.337676	1.337676	0	1	0	0	CorrectCommission	0.245879	0.812438	0	0	3.050000e+01
206.558701	1.279579	city	2	1	1.473264	1.473264	0	1	0	0	CorrectCommission	0.274166	0.783852	0	0	3.070588e+01
207.844925	1.292871	city	9	1	1.808640	1.808640	0	1	0	0	CorrectCommission	1.560501	0.761761	0	0	3.091176e+01
209.137817	1.292913	city	3	1	1.888777	1.888777	0	1	0	0	CorrectCommission	1.867865	0.745594	1	0	3.111765e+01
210.437393	1.306236	city	6	1	1.369241	1.369241	0	1	0	0	CorrectCommission	0.124811	0.734536	1	0	3.132353e+01
211.730316	1.279608	city	5	0	0.000000	1.299383	0	0	0	1	OmissionError	0.392751	0.727739	1	0	3.152941e+01
213.009888	1.279537	city	7	1	1.475086	1.475086	0	1	0	0	CorrectCommission	0.281154	0.724355	1	0	3.173529e+01
214.296097	1.292880	city	8	1	1.692230	1.692230	0	1	0	0	CorrectCommission	1.114008	0.723656	1	0	3.194118e+01
215.582306	1.279527	city	2	0	0.000000	1.395664	0	0	0	1	OmissionError	0.023466	0.725033	1	0	3.214706e+01
216.868576	1.293035	city	10	1	1.074350	1.074350	0	1	0	0	CorrectCommission	1.255866	0.727997	1	0	3.235294e+01
218.174866	1.319530	city	4	1	1.217246	1.217246	0	1	0	0	CorrectCommission	0.707787	0.732107	1	0	3.255882e+01
219.481094	1.292924	city	10	1	1.639362	1.639362	0	1	0	0	CorrectCommission	0.911236	0.737010	1	0	3.276471e+01
220.767334	1.279566	city	8	1	1.658549	1.658549	0	1	0	0	CorrectCommission	0.984826	0.742328	1	0	3.297059e+01
222.046906	1.279587	city	9	1	1.152531	1.152531	0	1	0	0	CorrectCommission	0.956003	0.747626	0	0	3.317647e+01
223.339813	1.306225	city	1	1	1.413038	1.413038	0	1	0	0	CorrectCommission	0.043172	0.752446	0	0	3.338235e+01
224.646057	1.306269	city	8	1	1.479619	1.479619	0	1	0	0	CorrectCommission	0.298541	0.756219	0	0	3.358824e+01
225.939011	1.279614	city	2	1	1.603887	1.603887	0	1	0	0	CorrectCommission	0.775172	0.758391	0	0	3.379412e+01
229.564484	5.971341	break	0	0	0.000000	1.700917	0	0	0	0	ThoughtProbe	1.147330	0.758452	0	34	34
233.189941	1.279576	city	2	0	0.000000	1.739423	0	0	0	1	OmissionError	1.295020	0.756074	0	0	3.363043e+01
234.469452	1.279439	city	4	1	1.688120	1.688120	0	1	0	0	CorrectCommission	1.098247	0.751256	0	0	3.326087e+01
235.769028	1.319703	city	7	1	1.515722	1.515722	0	1	0	0	CorrectCommission	0.437015	0.744418	1	0	3.289130e+01
237.075241	1.292730	city	4	1	1.501533	1.501533	0	1	0	0	CorrectCommission	0.382592	0.736441	1	0	3.252174e+01
238.374817	1.306422	city	5	1	1.805542	1.805542	0	1	0	0	CorrectCommission	1.548619	0.728605	1	0	3.215217e+01
239.667801	1.279560	city	6	1	1.484809	1.484809	0	1	0	0	CorrectCommission	0.318448	0.722488	1	0	3.178261e+01
240.954041	1.292925	city	10	1	1.253183	1.253183	0	1	0	0	CorrectCommission	0.569952	0.719806	1	0	3.141304e+01
242.240295	1.279578	mountain	5	1	1.195059	1.195059	0	0	1	0	CommissionError	0.792885	0.722106	1	0	3.104348e+01
243.533112	1.306053	city	1	1	1.423332	1.423332	0	1	0	0	CorrectCommission	0.082654	0.730599	1	0	3.067391e+01
244.825943	1.279597	city	7	1	1.674076	1.674076	0	1	0	0	CorrectCommission	1.044381	0.745872	0	0	3.030435e+01
246.118866	1.306257	city	2	1	1.328448	1.328448	0	1	0	0	CorrectCommission	0.281275	0.767706	0	0	2.993478e+01
247.411789	1.279601	city	6	0	0.000000	1.268452	0	0	0	1	OmissionError	0.511386	0.795007	0	0	2.956522e+01
248.691360	1.279542	city	7	1	1.289459	1.289459	0	1	0	0	CorrectCommission	0.430814	0.825847	0	0	2.919565e+01
249.970917	1.279553	city	8	0	0.000000	1.186838	0	0	0	1	OmissionError	0.824416	0.857587	0	0	2.882609e+01
251.263885	1.306395	city	4	1	1.074410	1.074410	0	1	0	0	CorrectCommission	1.255635	0.887164	0	0	2.845652e+01
252.556900	1.279638	city	9	0	0.000000	1.065994	0	0	0	1	OmissionError	1.287913	0.911432	0	0	2.808696e+01
253.836426	1.279404	city	4	1	1.356050	1.356050	0	1	0	0	CorrectCommission	0.175404	0.927559	0	0	2.771739e+01
255.136032	1.319799	city	6	1	2.139037	2.139037	0	1	0	0	CorrectCommission	2.827736	0.933415	0	0	2.734783e+01
256.442322	1.292762	mountain	5	0	0.000000	1.668899	1	0	0	0	CorrectOmission	1.024526	0.927781	0	0	2.697826e+01
257.748505	1.319628	mountain	7	1	1.117623	1.117623	0	0	1	0	CommissionError	1.089893	0.910608	0	0	2.660870e+01
259.048096	1.279579	city	7	1	1.657193	1.657193	0	1	0	0	CorrectCommission	0.979624	0.882977	0	0	2.623913e+01
260.334320	1.292842	city	9	1	1.110039	1.110039	0	1	0	0	CorrectCommission	1.118980	0.847006	0	0	2.586957e+01
261.620544	1.279642	mountain	9	0	0.000000	1.174170	1	0	0	0	CorrectOmission	0.873005	0.805637	0	0	2.550000e+01
262.900085	1.279418	city	9	1	1.468008	1.468008	0	1	0	0	CorrectCommission	0.254009	0.762330	0	0	2.513043e+01
264.179626	1.279676	city	2	1	1.609975	1.609975	0	1	0	0	CorrectCommission	0.798521	0.720776	1	0	2.476087e+01
265.479218	1.319475	city	7	0	0.000000	1.499623	0	0	0	1	OmissionError	0.375268	0.684463	1	0	2.439130e+01
266.785400	1.292898	city	1	1	1.414100	1.414100	0	1	0	0	CorrectCommission	0.047245	0.656433	1	0	2.402174e+01
268.078278	1.292859	city	8	1	1.630552	1.630552	0	1	0	0	CorrectCommission	0.877446	0.639052	1	0	2.365217e+01
269.384583	1.319730	city	7	1	1.483172	1.483172	0	1	0	0	CorrectCommission	0.312169	0.633804	1	0	2.328261e+01
270.684204	1.279567	city	1	1	1.230324	1.230324	0	1	0	0	CorrectCommission	0.657629	0.641197	1	0	2.291304e+01
271.963837	1.279646	city	7	0	0.000000	1.376124	0	0	0	1	OmissionError	0.098413	0.660719	1	0	2.254348e+01
273.243378	1.279434	city	5	1	1.578967	1.578967	0	1	0	0	CorrectCommission	0.679590	0.690867	1	0	2.217391e+01
274.522858	1.279549	city	8	1	1.497247	1.497247	0	1	0	0	CorrectCommission	0.366154	0.729225	1	0	2.180435e+01
275.822418	1.319566	city	5	1	1.292788	1.292788	0	1	0	0	CorrectCommission	0.418046	0.772679	0	0	2.143478e+01
277.121979	1.279587	city	8	1	1.310522	1.310522	0	1	0	0	CorrectCommission	0.350030	0.817677	0	0	2.106522e+01
278.408325	1.293070	city	10	1	1.220733	1.220733	0	1	0	0	CorrectCommission	0.694413	0.860555	0	0	2.069565e+01
279.701294	1.292876	city	3	1	1.857184	1.857184	0	1	0	0	CorrectCommission	1.746691	0.897899	0	0	2.032609e+01
280.987549	1.279613	city	9	1	2.243855	2.243855	0	1	0	0	CorrectCommission	3.229764	0.926826	0	0	1.995652e+01
282.267090	1.279516	city	8	1	1.284088	1.284088	0	1	0	0	CorrectCommission	0.451418	0.945285	0	0	1.958696e+01
283.546600	1.279482	city	9	1	1.674433	1.674433	0	1	0	0	CorrectCommission	1.045750	0.952180	0	0	1.921739e+01
284.826111	1.279559	city	7	1	1.320782	1.320782	0	1	0	0	CorrectCommission	0.310675	0.947334	0	0	1.884783e+01
286.125763	1.319725	city	6	1	1.175007	1.175007	0	1	0	0	CorrectCommission	0.869794	0.931429	0	0	1.847826e+01
287.438751	1.306260	city	2	1	1.221654	1.221654	0	1	0	0	CorrectCommission	0.690882	0.905817	0	0	1.810870e+01
288.738281	1.292775	city	7	1	2.096870	2.096870	0	1	0	0	CorrectCommission	2.666004	0.872346	0	0	1.773913e+01
290.024475	1.279620	city	5	1	1.577013	1.577013	0	1	0	0	CorrectCommission	0.672097	0.833102	0	0	1.736957e+01
293.689911	6.051265	break	0	0	0.000000	1.346599	0	0	0	0	ThoughtProbe	0.211656	0.790368	0	17	17
297.368713	1.306345	city	9	1	1.395591	1.395591	0	1	0	0	CorrectCommission	0.023746	0.746336	0	0	1.911765e+01
298.668365	1.292967	city	3	1	1.713956	1.713956	0	1	0	0	CorrectCommission	1.197339	0.703045	1	0	2.123529e+01
299.967896	1.306076	city	8	1	1.339904	1.339904	0	1	0	0	CorrectCommission	0.237333	0.662262	1	0	2.335294e+01
301.267456	1.293049	city	7	1	1.578373	1.578373	0	1	0	0	CorrectCommission	0.677314	0.625466	1	0	2.547059e+01
302.573700	1.319472	city	10	1	1.060928	1.060928	0	1	0	0	CorrectCommission	1.307345	0.593742	1	0	2.758824e+01
303.873199	1.279526	city	9	1	1.301765	1.301765	0	1	0	0	CorrectCommission	0.383616	0.567759	1	0	2.970588e+01
305.166107	1.306262	city	4	1	1.417103	1.417103	0	1	0	0	CorrectCommission	0.058761	0.547756	1	0	3.182353e+01
306.465729	1.292989	mountain	4	0	0.000000	1.395276	1	0	0	0	CorrectOmission	0.024956	0.533512	1	0	3.394118e+01
307.752045	1.279625	city	10	1	1.407270	1.407270	0	1	0	0	CorrectCommission	0.021049	0.524380	1	0	3.605882e+01
309.031586	1.279454	city	2	1	1.624072	1.624072	0	1	0	0	CorrectCommission	0.852592	0.519357	1	0	3.817647e+01
310.324524	1.306415	city	5	1	1.509588	1.509588	0	1	0	0	CorrectCommission	0.413488	0.517213	1	0	4.029412e+01
311.624084	1.292720	city	1	1	1.594269	1.594269	0	1	0	0	CorrectCommission	0.738282	0.516732	1	0	4.241176e+01
312.923584	1.306273	city	5	1	1.529754	1.529754	0	1	0	0	CorrectCommission	0.490836	0.516864	1	0	4.452941e+01
314.229889	1.306344	city	4	1	1.660819	1.660819	0	1	0	0	CorrectCommission	0.993534	0.516892	1	0	4.664706e+01
315.542755	1.319385	city	10	1	1.285449	1.285449	0	1	0	0	CorrectCommission	0.446194	0.516644	1	0	4.876471e+01
316.842316	1.279734	city	2	1	1.661897	1.661897	0	1	0	0	CorrectCommission	0.997669	0.516489	1	0	5.088235e+01
318.121979	1.279600	city	9	1	1.527074	1.527074	0	1	0	0	CorrectCommission	0.480556	0.517239	1	0	53
319.428192	1.332848	city	2	1	1.341928	1.341928	0	1	0	0	CorrectCommission	0.229573	0.520045	1	0	5.511765e+01
320.761078	1.332926	city	1	1	1.300820	1.300820	0	1	0	0	CorrectCommission	0.387241	0.526149	1	0	5.723529e+01
322.067291	1.279474	city	3	1	1.412865	1.412865	0	1	0	0	CorrectCommission	0.042507	0.536600	1	0	5.935294e+01
323.386871	1.359686	city	8	1	1.324800	1.324800	0	1	0	0	CorrectCommission	0.295266	0.552128	1	0	6.147059e+01
324.739777	1.346115	city	6	1	1.314557	1.314557	0	1	0	0	CorrectCommission	0.334550	0.572921	1	0	6.358824e+01
326.072571	1.319493	city	5	1	1.217110	1.217110	0	1	0	0	CorrectCommission	0.708311	0.598595	1	0	6.570588e+01
327.378784	1.292904	mountain	9	0	0.000000	1.519661	1	0	0	0	CorrectOmission	0.452125	0.628151	1	0	6.782353e+01
328.678406	1.306385	city	6	1	1.750427	1.750427	0	1	0	0	CorrectCommission	1.337224	0.660152	1	0	6.994118e+01
329.977997	1.292784	city	10	1	1.437620	1.437620	0	1	0	0	CorrectCommission	0.137456	0.692788	1	0	7.205882e+01
331.270935	1.293067	city	1	1	1.637792	1.637792	0	1	0	0	CorrectCommission	0.905215	0.724126	1	0	7.417647e+01
332.557251	1.279579	city	7	1	1.673090	1.673090	0	1	0	0	CorrectCommission	1.040598	0.752216	0	0	7.629412e+01
333.843414	1.292729	city	5	0	0.000000	1.556333	0	0	0	1	OmissionError	0.592779	0.775307	0	0	7.841176e+01
335.129639	1.279719	city	1	1	1.519483	1.519483	0	1	0	0	CorrectCommission	0.451440	0.791996	0	0	8.052941e+01
336.422546	1.306123	city	8	1	1.794501	1.794501	0	1	0	0	CorrectCommission	1.506268	0.801303	0	0	8.264706e+01
337.728790	1.306368	city	5	1	1.872586	1.872586	0	1	0	0	CorrectCommission	1.805763	0.802750	0	0	8.476471e+01
339.021790	1.279604	city	10	1	1.431350	1.431350	0	1	0	0	CorrectCommission	0.113408	0.796433	0	0	8.688235e+01
342.200653	5.078167	break	0	0	0.000000	1.123452	0	0	0	0	ThoughtProbe	1.067535	0.783008	0	89	89
345.379608	1.279692	city	8	1	1.070809	1.070809	0	1	0	0	CorrectCommission	1.269446	0.763571	0	0	8.727500e+01
346.659180	1.279507	city	4	1	1.395341	1.395341	0	1	0	0	CorrectCommission	0.024707	0.739605	1	0	8.555000e+01
347.938812	1.279701	city	5	1	1.677717	1.677717	0	1	0	0	CorrectCommission	1.058347	0.712917	1	0	8.382500e+01
349.218445	1.279588	city	1	1	1.565622	1.565622	0	1	0	0	CorrectCommission	0.628407	0.685412	1	0	8.210000e+01
350.497986	1.279523	city	10	1	1.341652	1.341652	0	1	0	0	CorrectCommission	0.230630	0.659069	1	0	8.037500e+01
351.777557	1.279577	city	5	1	1.669318	1.669318	0	1	0	0	CorrectCommission	1.026133	0.635788	1	0	7.865000e+01
353.057159	1.279631	city	10	1	1.285246	1.285246	0	1	0	0	CorrectCommission	0.446975	0.617247	1	0	7.692500e+01
354.336761	1.279582	city	6	1	1.603266	1.603266	0	1	0	0	CorrectCommission	0.772790	0.604839	1	0	7.520000e+01
355.616272	1.279437	city	5	1	1.390473	1.390473	0	1	0	0	CorrectCommission	0.043376	0.599497	1	0	7.347500e+01
356.895844	1.279736	city	10	1	1.230498	1.230498	0	1	0	0	CorrectCommission	0.656959	0.601626	1	0	7.175000e+01
358.175446	1.279423	mountain	5	0	0.000000	1.379190	1	0	0	0	CorrectOmission	0.086651	0.610969	1	0	7.002500e+01
359.454987	1.279692	city	10	1	1.560170	1.560170	0	1	0	0	CorrectCommission	0.607494	0.626619	1	0	6.830000e+01
360.734650	1.279605	city	5	1	1.497057	1.497057	0	1	0	0	CorrectCommission	0.365424	0.646980	1	0	6.657500e+01
362.014221	1.279574	mountain	10	0	0.000000	1.266790	1	0	0	0	CorrectOmission	0.517761	0.669951	1	0	6.485000e+01
363.293793	1.279578	city	2	1	1.127415	1.127415	0	1	0	0	CorrectCommission	1.052335	0.693048	1	0	6.312500e+01
364.573364	1.279513	city	7	1	1.336974	1.336974	0	1	0	0	CorrectCommission	0.248573	0.713694	1	0	6.140000e+01
365.852936	1.279640	city	9	1	1.075246	1.075246	0	1	0	0	CorrectCommission	1.252429	0.729526	1	0	5.967500e+01
367.132477	1.279437	city	2	1	1.046560	1.046560	0	1	0	0	CorrectCommission	1.362454	0.738609	1	0	5.795000e+01
368.411957	1.279562	city	3	1	1.656934	1.656934	0	1	0	0	CorrectCommission	0.978632	0.739741	1	0	5.622500e+01
369.691620	1.279745	city	5	1	1.676843	1.676843	0	1	0	0	CorrectCommission	1.054993	0.732587	1	0	5.450000e+01
370.971222	1.279453	city	2	1	1.603522	1.603522	0	1	0	0	CorrectCommission	0.773773	0.717751	1	0	5.277500e+01
372.250793	1.279724	mountain	2	0	0.000000	1.620306	1	0	0	0	CorrectOmission	0.838147	0.696695	1	0	5.105000e+01
373.530396	1.279436	city	8	1	1.621469	1.621469	0	1	0	0	CorrectCommission	0.842606	0.671557	1	0	4.932500e+01
374.809937	1.279658	city	2	1	1.501284	1.501284	0	1	0	0	CorrectCommission	0.381640	0.644940	1	0	4.760000e+01
376.089569	1.279629	city	6	1	1.496320	1.496320	0	1	0	0	CorrectCommission	0.362600	0.619580	1	0	4.587500e+01
377.369171	1.279582	city	10	1	1.287247	1.287247	0	1	0	0	CorrectCommission	0.439299	0.598080	1	0	4.415000e+01
378.648743	1.279570	city	1	1	1.302639	1.302639	0	1	0	0	CorrectCommission	0.380265	0.582653	1	0	4.242500e+01
379.928345	1.279585	city	6	1	1.496640	1.496640	0	1	0	0	CorrectCommission	0.363827	0.574912	1	0	4.070000e+01
381.207825	1.279406	city	5	1	1.501956	1.501956	0	1	0	0	CorrectCommission	0.384213	0.575747	1	0	3.897500e+01
382.487396	1.279751	city	8	1	1.241211	1.241211	0	1	0	0	CorrectCommission	0.615870	0.585259	1	0	3.725000e+01
383.767059	1.279577	city	2	1	1.283796	1.283796	0	1	0	0	CorrectCommission	0.452534	0.602784	1	0	3.552500e+01
385.046661	1.279574	city	7	1	1.448942	1.448942	0	1	0	0	CorrectCommission	0.180880	0.626938	1	0	3.380000e+01
386.326233	1.279580	city	3	1	1.288696	1.288696	0	1	0	0	CorrectCommission	0.433742	0.655811	1	0	3.207500e+01
387.605743	1.279465	city	6	1	1.337230	1.337230	0	1	0	0	CorrectCommission	0.247590	0.687076	1	0	3.035000e+01
388.885223	1.279510	city	8	1	0.968850	0.968850	0	1	0	0	CorrectCommission	1.660509	0.718241	1	0	2.862500e+01
390.164856	1.279749	city	10	1	0.963935	0.963935	0	1	0	0	CorrectCommission	1.679360	0.746833	0	0	2.690000e+01
391.444458	1.279422	city	4	1	1.422559	1.422559	0	1	0	0	CorrectCommission	0.079687	0.770661	0	0	2.517500e+01
392.723969	1.279595	city	6	1	1.627809	1.627809	0	1	0	0	CorrectCommission	0.866924	0.788003	0	0	2.345000e+01
394.003571	1.279650	city	7	1	1.550143	1.550143	0	1	0	0	CorrectCommission	0.569038	0.797672	0	0	2.172500e+01
397.102570	4.918316	break	0	0	0.000000	1.618571	0	0	0	0	ThoughtProbe	0.831492	0.799223	0	20	20
400.208252	1.293050	mountain	7	0	0.000000	1.739721	1	0	0	0	CorrectOmission	1.296161	0.792979	0	0	2.017500e+01
401.494507	1.279465	mountain	4	0	0.000000	1.820222	1	0	0	0	CorrectOmission	1.604922	0.780008	0	0	2.035000e+01
402.780762	1.293042	city	1	1	1.766703	1.766703	0	1	0	0	CorrectCommission	1.399650	0.762053	0	0	2.052500e+01
404.080292	1.306054	city	2	1	1.485792	1.485792	0	1	0	0	CorrectCommission	0.322220	0.741337	1	0	2.070000e+01
405.379791	1.292902	city	8	1	1.500145	1.500145	0	1	0	0	CorrectCommission	0.377269	0.720301	1	0	2.087500e+01
406.672699	1.292916	city	6	1	1.365149	1.365149	0	1	0	0	CorrectCommission	0.140506	0.701260	1	0	2.105000e+01
407.965668	1.293058	city	2	1	1.263555	1.263555	0	1	0	0	CorrectCommission	0.530170	0.686137	1	0	2.122500e+01
409.265259	1.306090	city	6	1	1.334413	1.334413	0	1	0	0	CorrectCommission	0.258396	0.676166	1	0	2.140000e+01
410.558136	1.279700	city	3	0	0.000000	1.227216	0	0	0	1	OmissionError	0.669549	0.671799	1	0	2.157500e+01
411.837830	1.279642	city	5	1	1.177601	1.177601	0	1	0	0	CorrectCommission	0.859846	0.672647	1	0	2.175000e+01
413.130676	1.306052	city	2	1	1.421205	1.421205	0	1	0	0	CorrectCommission	0.074497	0.677616	1	0	2.192500e+01
414.436890	1.306361	city	7	1	1.735916	1.735916	0	1	0	0	CorrectCommission	1.281566	0.685103	1	0	2.210000e+01
415.743103	1.306104	city	4	1	1.536801	1.536801	0	1	0	0	CorrectCommission	0.517864	0.693241	1	0	2.227500e+01
417.042694	1.293063	city	6	1	1.384910	1.384910	0	1	0	0	CorrectCommission	0.064715	0.700285	1	0	2.245000e+01
418.362335	1.346249	city	10	1	1.658500	1.658500	0	1	0	0	CorrectCommission	0.984640	0.704802	1	0	2.262500e+01
419.688568	1.306196	city	5	1	1.973216	1.973216	0	1	0	0	CorrectCommission	2.191731	0.705881	1	0	2.280000e+01
420.994781	1.306237	city	8	1	1.689896	1.689896	0	1	0	0	CorrectCommission	1.105060	0.703231	1	0	2.297500e+01
422.307678	1.319551	city	10	1	1.502447	1.502447	0	1	0	0	CorrectCommission	0.386097	0.697245	1	0	2.315000e+01
423.627228	1.319560	city	1	1	1.512565	1.512565	0	1	0	0	CorrectCommission	0.424907	0.688845	1	0	2.332500e+01
424.940063	1.306112	city	2	1	1.506440	1.506440	0	1	0	0	CorrectCommission	0.401415	0.679253	1	0	2.350000e+01
426.239594	1.292959	city	1	1	1.403651	1.403651	0	1	0	0	CorrectCommission	0.007169	0.669827	1	0	2.367500e+01
427.552582	1.333008	city	5	1	1.502663	1.502663	0	1	0	0	CorrectCommission	0.386929	0.661887	1	0	2.385000e+01
428.872223	1.306236	city	7	1	1.649381	1.649381	0	1	0	0	CorrectCommission	0.949662	0.656556	1	0	2.402500e+01
430.171783	1.292936	city	5	1	1.683647	1.683647	0	1	0	0	CorrectCommission	1.081089	0.654691	1	0	2.420000e+01
431.477966	1.319384	city	2	1	1.242638	1.242638	0	1	0	0	CorrectCommission	0.610396	0.656882	1	0	2.437500e+01
432.777496	1.279711	city	6	1	1.737405	1.737405	0	1	0	0	CorrectCommission	1.287279	0.663444	1	0	2.455000e+01
434.063843	1.292949	city	3	1	1.422970	1.422970	0	1	0	0	CorrectCommission	0.081267	0.674373	1	0	2.472500e+01
435.356689	1.292744	mountain	6	0	0.000000	1.289967	1	0	0	0	CorrectOmission	0.428867	0.689396	1	0	2.490000e+01
436.642944	1.279793	city	8	1	1.346048	1.346048	0	1	0	0	CorrectCommission	0.213769	0.707822	1	0	2.507500e+01
437.935913	1.306150	city	4	1	1.598866	1.598866	0	1	0	0	CorrectCommission	0.755914	0.728683	1	0	2.525000e+01
439.235474	1.292980	city	1	1	1.423952	1.423952	0	1	0	0	CorrectCommission	0.085031	0.750733	0	0	2.542500e+01
440.521759	1.279541	city	3	1	1.614269	1.614269	0	1	0	0	CorrectCommission	0.814992	0.772633	0	0	2.560000e+01
441.814575	1.306112	city	5	1	1.926363	1.926363	0	1	0	0	CorrectCommission	2.012026	0.793088	0	0	2.577500e+01
443.107483	1.279684	city	4	1	1.711587	1.711587	0	1	0	0	CorrectCommission	1.188254	0.811025	0	0	2.595000e+01
444.387024	1.279415	city	5	0	0.000000	1.551226	0	0	0	1	OmissionError	0.573189	0.825823	0	0	2.612500e+01
445.666534	1.279591	city	6	1	1.535234	1.535234	0	1	0	0	CorrectCommission	0.511854	0.837331	0	0	2.630000e+01
446.952789	1.292958	city	7	1	1.753569	1.753569	0	1	0	0	CorrectCommission	1.349274	0.845839	0	0	2.647500e+01
448.245789	1.293014	city	6	1	1.721731	1.721731	0	1	0	0	CorrectCommission	1.227160	0.851927	0	0	2.665000e+01
449.558716	1.332819	city	1	1	1.545654	1.545654	0	1	0	0	CorrectCommission	0.551818	0.856349	0	0	2.682500e+01
453.637329	6.824440	break	0	0	0.000000	1.315498	0	0	0	0	ThoughtProbe	0.330941	0.859803	0	27	27
457.715942	1.332791	city	4	1	1.145410	1.145410	0	1	0	0	CorrectCommission	0.983313	0.862663	0	0	2.694118e+01
459.048859	1.333061	city	2	1	1.149535	1.149535	0	1	0	0	CorrectCommission	0.967492	0.864842	0	0	2.688235e+01
460.355133	1.279469	city	8	1	1.292999	1.292999	0	1	0	0	CorrectCommission	0.417240	0.865793	0	0	2.682353e+01
461.674622	1.359495	city	9	1	1.208952	1.208952	0	1	0	0	CorrectCommission	0.739600	0.864556	0	0	2.676471e+01
462.994202	1.279679	city	10	1	1.343784	1.343784	0	1	0	0	CorrectCommission	0.222454	0.859966	0	0	2.670588e+01
464.287140	1.306159	mountain	8	0	0.000000	1.825000	1	0	0	0	CorrectOmission	1.623250	0.850898	0	0	2.664706e+01
465.580078	1.279735	city	4	1	2.056778	2.056778	0	1	0	0	CorrectCommission	2.512231	0.836558	0	0	2.658824e+01
466.886383	1.332912	city	1	1	1.443292	1.443292	0	1	0	0	CorrectCommission	0.159209	0.816746	0	0	2.652941e+01
468.232544	1.359367	city	4	1	1.713669	1.713669	0	1	0	0	CorrectCommission	1.196239	0.792124	0	0	2.647059e+01
469.571930	1.319421	city	10	1	1.621272	1.621272	0	1	0	0	CorrectCommission	0.841852	0.764081	0	0	2.641176e+01
470.884857	1.306420	city	1	1	1.619619	1.619619	0	1	0	0	CorrectCommission	0.835512	0.734719	1	0	2.635294e+01
472.204590	1.333046	city	10	1	1.453787	1.453787	0	1	0	0	CorrectCommission	0.199464	0.706589	1	0	2.629412e+01
473.530792	1.319361	city	9	1	1.432183	1.432183	0	1	0	0	CorrectCommission	0.116603	0.682416	1	0	2.623529e+01
474.863617	1.346313	city	1	1	1.606022	1.606022	0	1	0	0	CorrectCommission	0.783361	0.664761	1	0	2.617647e+01
476.196533	1.319512	city	2	1	1.290085	1.290085	0	1	0	0	CorrectCommission	0.428414	0.655724	1	0	2.611765e+01
477.496063	1.279546	city	4	1	1.593682	1.593682	0	1	0	0	CorrectCommission	0.736030	0.656827	1	0	2.605882e+01
478.795624	1.319568	city	3	1	1.366941	1.366941	0	1	0	0	CorrectCommission	0.133634	0.668903	1	0	26
480.115204	1.319616	city	5	1	1.439676	1.439676	0	1	0	0	CorrectCommission	0.145341	0.692173	1	0	2.594118e+01
481.441528	1.333004	city	2	1	1.736153	1.736153	0	1	0	0	CorrectCommission	1.282477	0.726386	1	0	2.588235e+01
482.747742	1.279447	city	8	1	1.495044	1.495044	0	1	0	0	CorrectCommission	0.357703	0.771082	0	0	2.582353e+01
484.047272	1.319590	city	6	1	1.398075	1.398075	0	1	0	0	CorrectCommission	0.014221	0.826015	0	0	2.576471e+01
485.353485	1.292853	mountain	9	1	1.161438	1.161438	0	0	1	0	CommissionError	0.921840	0.891455	0	0	2.570588e+01
486.653046	1.306280	city	8	1	1.594916	1.594916	0	1	0	0	CorrectCommission	0.740762	0.968438	0	0	2.564706e+01
487.952728	1.293049	city	4	1	0.602447	0.602447	0	1	0	0	CorrectCommission	3.065844	1.058980	0	0	2.558824e+01
489.245697	1.292914	city	8	1	1.695216	1.695216	0	1	0	0	CorrectCommission	1.125462	1.165942	0	0	2.552941e+01
490.545197	1.306080	city	9	1	1.581006	1.581006	0	1	0	0	CorrectCommission	0.687411	1.292927	0	0	2.547059e+01
491.897980	1.399506	city	1	1	1.369024	1.369024	0	1	0	0	CorrectCommission	0.125644	1.443658	0	0	2.541176e+01
493.244293	1.293106	city	7	1	1.159392	1.159392	0	1	0	0	CorrectCommission	0.929685	1.621381	0	0	2.535294e+01
494.550568	1.319435	city	5	1	1.043786	1.043786	0	1	0	0	CorrectCommission	1.373094	1.828124	0	0	2.529412e+01
495.863434	1.306307	city	7	1	1.152904	1.152904	0	1	0	0	CorrectCommission	0.954570	2.064170	0	0	2.523529e+01
497.163055	1.292946	city	10	1	0.994938	0.994938	0	1	0	0	CorrectCommission	1.560448	2.327625	0	0	2.517647e+01
498.462585	1.306115	city	7	1	1.855931	1.855931	0	1	0	0	CorrectCommission	1.741884	2.614256	0	0	2.511765e+01
499.775421	1.319533	city	1	1	2.049925	2.049925	0	1	0	0	CorrectCommission	2.485946	2.917707	0	0	2.505882e+01
503.334290	5.798223	break	0	0	0.000000	2.243919	0	0	0	0	ThoughtProbe	3.230008	3.230008	0	25	25
