onset	duration	trial_type	image_type	Press	ReactionTime	ReactionTime_Interpolated	CorrectOmission	CorrectCommission	CommissionError	OmissionError	response_type	nonsmoothVarianceTimeCourse	VarianceTimeCourse	In_the_Zone	ThoughtProbe	ThoughtProbe_Interpolated
0.659823	1.292984	city	1	1	1.097205	1.097205	0	1	0	0	CorrectCommission	0.010371	0.010371	1	0	78
1.959378	1.306124	city	4	1	1.232156	1.232156	0	1	0	0	CorrectCommission	0.595403	0.163023	1	0	78
3.252234	1.279589	city	5	1	1.076916	1.076916	0	1	0	0	CorrectCommission	0.077585	0.309907	1	0	78
4.531869	1.279680	city	3	1	0.858269	0.858269	0	1	0	0	CorrectCommission	1.025456	0.445781	1	0	78
5.811507	1.279595	city	7	1	0.883226	0.883226	0	1	0	0	CorrectCommission	0.917262	0.566281	1	0	78
7.090995	1.279381	city	9	1	0.805572	0.805572	0	1	0	0	CorrectCommission	1.253903	0.668322	1	0	78
8.377173	1.292976	city	4	1	0.835349	0.835349	0	1	0	0	CorrectCommission	1.124815	0.750285	1	0	78
9.670162	1.293001	city	2	1	0.715460	0.715460	0	1	0	0	CorrectCommission	1.644551	0.812063	1	0	78
10.963035	1.292745	city	9	1	0.674396	0.674396	0	1	0	0	CorrectCommission	1.822572	0.854874	0	0	78
12.249197	1.279580	city	5	1	0.805311	0.805311	0	1	0	0	CorrectCommission	1.255033	0.881026	0	0	78
13.528785	1.279596	mountain	3	1	1.085369	1.085369	0	0	1	0	CommissionError	0.040942	0.893450	0	0	78
14.828451	1.319737	city	10	1	0.925860	0.925860	0	1	0	0	CorrectCommission	0.732437	0.895259	0	0	78
16.128052	1.279463	city	7	1	0.970032	0.970032	0	1	0	0	CorrectCommission	0.540944	0.889235	0	0	78
17.407549	1.279533	city	8	1	0.808094	0.808094	0	1	0	0	CorrectCommission	1.242971	0.877575	0	0	78
18.687183	1.279734	mountain	8	0	0.000000	1.107721	1	0	0	0	CorrectOmission	0.055956	0.861674	0	0	78
19.966785	1.279471	city	9	1	1.298593	1.298593	0	1	0	0	CorrectCommission	0.883417	0.842196	0	0	78
21.246284	1.279527	city	6	1	0.810393	0.810393	0	1	0	0	CorrectCommission	1.233005	0.819188	1	0	78
22.525921	1.279744	city	5	1	0.930291	0.930291	0	1	0	0	CorrectCommission	0.713227	0.792426	1	0	78
23.805534	1.279485	mountain	8	0	0.000000	1.347514	1	0	0	0	CorrectOmission	1.095495	0.761780	1	0	78
25.085114	1.279673	city	6	1	1.512331	1.512331	0	1	0	0	CorrectCommission	1.810001	0.727476	1	0	78
26.364716	1.279533	city	4	1	0.875012	0.875012	0	1	0	0	CorrectCommission	0.952869	0.690285	1	0	78
27.650881	1.292794	city	1	1	1.061080	1.061080	0	1	0	0	CorrectCommission	0.146238	0.651610	1	0	78
28.937136	1.279719	city	10	1	0.970195	0.970195	0	1	0	0	CorrectCommission	0.540240	0.613330	1	0	78
30.216793	1.279593	city	8	1	1.017628	1.017628	0	1	0	0	CorrectCommission	0.334607	0.577534	1	0	78
31.496380	1.279580	city	2	1	1.033306	1.033306	0	1	0	0	CorrectCommission	0.266642	0.546252	1	0	78
32.775959	1.279577	city	8	1	1.032549	1.032549	0	1	0	0	CorrectCommission	0.269925	0.521110	1	0	78
34.062160	1.292829	city	7	1	1.057125	1.057125	0	1	0	0	CorrectCommission	0.163383	0.503090	1	0	78
35.348404	1.279655	city	6	1	1.068759	1.068759	0	1	0	0	CorrectCommission	0.112950	0.492385	1	0	78
36.641342	1.306223	city	10	1	0.990977	0.990977	0	1	0	0	CorrectCommission	0.450146	0.488399	1	0	78
37.934162	1.279417	city	1	1	1.203046	1.203046	0	1	0	0	CorrectCommission	0.469207	0.489861	1	0	78
39.227036	1.306330	city	4	1	1.218493	1.218493	0	1	0	0	CorrectCommission	0.536169	0.495051	1	0	78
40.526691	1.292981	city	10	1	0.909114	0.909114	0	1	0	0	CorrectCommission	0.805033	0.502061	1	0	78
41.826309	1.306253	city	6	1	1.240780	1.240780	0	1	0	0	CorrectCommission	0.632789	0.509109	1	0	78
43.119217	1.279563	city	5	1	0.982383	0.982383	0	1	0	0	CorrectCommission	0.487401	0.514753	1	0	78
44.398712	1.279432	city	4	1	0.982290	0.982290	0	1	0	0	CorrectCommission	0.487805	0.518094	1	0	78
45.684956	1.293051	city	10	1	0.819541	0.819541	0	1	0	0	CorrectCommission	1.193344	0.518845	1	0	78
46.971272	1.279578	city	3	1	1.143777	1.143777	0	1	0	0	CorrectCommission	0.212266	0.517301	1	0	78
48.270844	1.319569	city	10	1	0.923217	0.923217	0	1	0	0	CorrectCommission	0.743894	0.514289	1	0	78
49.590336	1.319418	city	3	1	1.004236	1.004236	0	1	0	0	CorrectCommission	0.392667	0.510902	1	0	78
50.250046	8.477377	break	0	1	1.190979	1.190979	0	0	0	0	ThoughtProbe	0.416894	0.508368	1	78	78
59.367783	1.280716	city	2	1	1.150909	1.150909	0	1	0	0	CorrectCommission	0.243185	0.507802	1	0	7.850000e+01
60.647297	1.278312	city	8	1	1.140922	1.140922	0	1	0	0	CorrectCommission	0.199889	0.510033	1	0	79
61.932961	1.293016	city	3	1	1.251171	1.251171	0	1	0	0	CorrectCommission	0.677833	0.515479	1	0	7.950000e+01
63.252583	1.346228	city	7	1	1.157787	1.157787	0	1	0	0	CorrectCommission	0.273003	0.524116	1	0	80
64.572067	1.292739	city	1	1	0.916522	0.916522	0	1	0	0	CorrectCommission	0.772918	0.535513	1	0	8.050000e+01
65.864914	1.292959	city	4	1	1.032224	1.032224	0	1	0	0	CorrectCommission	0.271334	0.548930	1	0	81
67.151184	1.279583	mountain	3	0	0.000000	1.183180	1	0	0	0	CorrectOmission	0.383082	0.563487	1	0	8.150000e+01
68.457481	1.333006	city	5	1	1.176784	1.176784	0	1	0	0	CorrectCommission	0.355356	0.578342	1	0	82
69.770439	1.292911	city	9	1	0.820431	0.820431	0	1	0	0	CorrectCommission	1.189486	0.592855	1	0	8.250000e+01
71.063286	1.292778	city	10	1	0.768123	0.768123	0	1	0	0	CorrectCommission	1.416253	0.606716	1	0	83
72.362785	1.306228	city	5	1	1.003951	1.003951	0	1	0	0	CorrectCommission	0.393899	0.619976	1	0	8.350000e+01
73.669098	1.306394	city	7	1	0.964468	0.964468	0	1	0	0	CorrectCommission	0.565068	0.633045	1	0	84
74.961990	1.279393	city	5	1	1.142017	1.142017	0	1	0	0	CorrectCommission	0.204638	0.646541	1	0	8.450000e+01
76.254890	1.306401	city	3	1	1.204948	1.204948	0	1	0	0	CorrectCommission	0.477453	0.661137	1	0	85
77.561211	1.306240	city	1	1	0.825239	0.825239	0	1	0	0	CorrectCommission	1.168642	0.677367	1	0	8.550000e+01
78.854034	1.279417	city	9	1	1.081006	1.081006	0	1	0	0	CorrectCommission	0.059855	0.695483	1	0	86
80.133537	1.279578	city	5	1	1.291633	1.291633	0	1	0	0	CorrectCommission	0.853242	0.715376	1	0	8.650000e+01
81.413109	1.279576	city	3	1	0.994258	0.994258	0	1	0	0	CorrectCommission	0.435923	0.736468	1	0	87
82.719368	1.332944	city	8	1	0.982507	0.982507	0	1	0	0	CorrectCommission	0.486862	0.757882	1	0	8.750000e+01
84.032288	1.292886	mountain	9	0	0.000000	1.311305	1	0	0	0	CorrectOmission	0.938527	0.778523	1	0	88
85.318520	1.279577	city	9	1	1.470759	1.470759	0	1	0	0	CorrectCommission	1.629781	0.797295	1	0	8.850000e+01
86.644753	1.372889	city	6	1	0.950975	0.950975	0	1	0	0	CorrectCommission	0.623561	0.813266	1	0	89
87.977661	1.292929	city	8	1	0.884933	0.884933	0	1	0	0	CorrectCommission	0.909860	0.825898	0	0	8.950000e+01
89.270653	1.293058	city	5	1	1.296344	1.296344	0	1	0	0	CorrectCommission	0.873665	0.835064	0	0	90
90.556953	1.279538	city	7	1	1.420567	1.420567	0	1	0	0	CorrectCommission	1.412190	0.841095	0	0	9.050000e+01
91.843185	1.292931	city	2	1	0.998143	0.998143	0	1	0	0	CorrectCommission	0.419078	0.844682	0	0	91
93.149429	1.319564	city	4	1	1.290139	1.290139	0	1	0	0	CorrectCommission	0.846767	0.846794	0	0	9.150000e+01
94.475655	1.332873	city	2	1	0.956560	0.956560	0	1	0	0	CorrectCommission	0.599347	0.848437	0	0	92
95.788460	1.292749	city	8	1	0.711886	0.711886	0	1	0	0	CorrectCommission	1.660044	0.850515	0	0	9.250000e+01
97.088036	1.306400	city	7	1	0.983613	0.983613	0	1	0	0	CorrectCommission	0.482068	0.853609	0	0	93
98.381027	1.279580	city	9	1	1.078535	1.078535	0	1	0	0	CorrectCommission	0.070569	0.857962	0	0	9.350000e+01
99.660614	1.279601	city	2	1	0.946867	0.946867	0	1	0	0	CorrectCommission	0.641371	0.863408	0	0	94
100.946785	1.292732	city	6	1	0.978254	0.978254	0	1	0	0	CorrectCommission	0.505301	0.869466	0	0	9.450000e+01
101.593147	8.503953	break	0	0	0.000000	1.281435	0	0	0	0	ThoughtProbe	0.809032	0.875516	0	95	95
110.736938	1.279666	mountain	9	0	0.000000	1.566783	1	0	0	0	CorrectOmission	2.046059	0.880948	0	0	95
112.023132	1.292725	city	9	1	1.544673	1.544673	0	1	0	0	CorrectCommission	1.950210	0.885311	0	0	95
113.315994	1.293005	city	10	1	0.925480	0.925480	0	1	0	0	CorrectCommission	0.734084	0.888441	0	0	95
114.635590	1.346184	city	2	1	1.217300	1.217300	0	1	0	0	CorrectCommission	0.531000	0.890502	0	0	95
115.948540	1.279710	city	8	1	1.037109	1.037109	0	1	0	0	CorrectCommission	0.250155	0.891828	0	0	95
117.228188	1.279587	city	9	1	1.236989	1.236989	0	1	0	0	CorrectCommission	0.616352	0.892878	0	0	95
118.514336	1.292712	city	2	1	0.997621	0.997621	0	1	0	0	CorrectCommission	0.421340	0.894089	0	0	95
119.807228	1.293067	city	1	1	0.817552	0.817552	0	1	0	0	CorrectCommission	1.201967	0.895816	0	0	95
121.113556	1.319590	city	3	1	0.783859	0.783859	0	1	0	0	CorrectCommission	1.348035	0.898274	0	0	95
122.419724	1.292754	city	2	1	1.412891	1.412891	0	1	0	0	CorrectCommission	1.378917	0.901593	0	0	95
123.732613	1.333025	city	4	1	1.022243	1.022243	0	1	0	0	CorrectCommission	0.314603	0.905869	0	0	95
125.038918	1.279580	city	6	1	0.865575	0.865575	0	1	0	0	CorrectCommission	0.993783	0.911224	0	0	95
126.325165	1.292912	city	1	1	0.884512	0.884512	0	1	0	0	CorrectCommission	0.911685	0.917746	0	0	95
127.611404	1.279574	city	8	1	0.723318	0.723318	0	1	0	0	CorrectCommission	1.610486	0.925534	0	0	95
128.890991	1.279607	mountain	3	0	0.000000	0.981738	1	0	0	0	CorrectOmission	0.490196	0.934569	0	0	95
130.203918	1.346220	city	3	1	1.209102	1.209102	0	1	0	0	CorrectCommission	0.495459	0.944707	0	0	95
131.530090	1.306145	city	9	1	0.954737	0.954737	0	1	0	0	CorrectCommission	0.607250	0.955524	0	0	95
132.836319	1.306309	city	7	1	0.955402	0.955402	0	1	0	0	CorrectCommission	0.604368	0.966359	0	0	95
134.135849	1.292740	city	1	1	0.718490	0.718490	0	1	0	0	CorrectCommission	1.631415	0.976348	0	0	95
135.428680	1.292931	city	9	1	0.836453	0.836453	0	1	0	0	CorrectCommission	1.120028	0.984459	0	0	95
136.721695	1.293104	city	6	1	0.828796	0.828796	0	1	0	0	CorrectCommission	1.153226	0.989648	0	0	95
138.014679	1.292846	city	7	1	0.805373	0.805373	0	1	0	0	CorrectCommission	1.254768	0.990983	0	0	95
139.327545	1.332906	city	2	1	0.778208	0.778208	0	1	0	0	CorrectCommission	1.372533	0.987721	0	0	95
140.653763	1.319507	city	7	1	0.987445	0.987445	0	1	0	0	CorrectCommission	0.465457	0.979437	0	0	95
141.953293	1.279578	city	4	1	0.891828	0.891828	0	1	0	0	CorrectCommission	0.879971	0.966080	0	0	95
143.239563	1.292948	city	6	1	0.812695	0.812695	0	1	0	0	CorrectCommission	1.223023	0.947932	0	0	95
144.525848	1.279618	city	3	1	0.825077	0.825077	0	1	0	0	CorrectCommission	1.169345	0.925609	0	0	95
145.818756	1.306218	city	8	1	0.764817	0.764817	0	1	0	0	CorrectCommission	1.430581	0.899997	0	0	95
147.124924	1.306088	mountain	9	0	0.000000	1.059519	1	0	0	0	CorrectOmission	0.153006	0.872170	0	0	95
148.417831	1.279744	city	4	1	1.236616	1.236616	0	1	0	0	CorrectCommission	0.614735	0.843331	0	0	95
149.710815	1.306217	city	6	1	0.823541	0.823541	0	1	0	0	CorrectCommission	1.176004	0.814695	1	0	95
151.010345	1.292839	city	7	1	1.333040	1.333040	0	1	0	0	CorrectCommission	1.032747	0.787391	1	0	95
152.316589	1.319665	city	1	1	0.914225	0.914225	0	1	0	0	CorrectCommission	0.782877	0.762381	1	0	95
153.616196	1.279553	city	7	1	0.943202	0.943202	0	1	0	0	CorrectCommission	0.657259	0.740388	1	0	95
154.915756	1.319565	city	4	1	1.024018	1.024018	0	1	0	0	CorrectCommission	0.306907	0.721848	1	0	95
156.222015	1.292939	city	2	1	1.085292	1.085292	0	1	0	0	CorrectCommission	0.041275	0.706908	1	0	95
157.514923	1.292880	city	4	1	1.044524	1.044524	0	1	0	0	CorrectCommission	0.218011	0.695517	1	0	95
158.801086	1.279438	city	8	1	0.805171	0.805171	0	1	0	0	CorrectCommission	1.255641	0.687476	1	0	95
160.080658	1.279713	city	10	1	0.717209	0.717209	0	1	0	0	CorrectCommission	1.636969	0.682550	1	0	95
163.939407	6.437774	break	0	0	0.000000	1.068225	0	0	0	0	ThoughtProbe	0.115265	0.680586	1	95	95
167.811386	1.306193	city	7	1	1.345378	1.345378	0	1	0	0	CorrectCommission	1.086237	0.681563	1	0	9.508824e+01
169.144333	1.359713	city	6	1	1.035831	1.035831	0	1	0	0	CorrectCommission	0.255697	0.685507	1	0	9.517647e+01
170.503906	1.359415	city	2	1	0.891987	0.891987	0	1	0	0	CorrectCommission	0.879282	0.692518	1	0	9.526471e+01
171.843460	1.319714	city	1	1	1.011431	1.011431	0	1	0	0	CorrectCommission	0.361474	0.702564	1	0	9.535294e+01
173.149780	1.292911	city	5	1	1.250198	1.250198	0	1	0	0	CorrectCommission	0.673617	0.715417	1	0	9.544118e+01
174.449265	1.306055	city	7	1	1.244666	1.244666	0	1	0	0	CorrectCommission	0.649634	0.730517	1	0	9.552941e+01
175.742157	1.279739	city	4	1	1.204253	1.204253	0	1	0	0	CorrectCommission	0.474438	0.746981	1	0	9.561765e+01
177.048492	1.332920	city	7	1	1.111049	1.111049	0	1	0	0	CorrectCommission	0.070384	0.763673	1	0	9.570588e+01
178.374634	1.319390	mountain	9	1	1.078783	1.078783	0	0	1	0	CommissionError	0.069493	0.779353	1	0	9.579412e+01
179.680878	1.293086	city	1	1	1.619827	1.619827	0	1	0	0	CorrectCommission	2.276013	0.792864	1	0	9.588235e+01
180.987213	1.319571	city	7	1	1.676085	1.676085	0	1	0	0	CorrectCommission	2.519901	0.803335	1	0	9.597059e+01
182.300079	1.306182	city	8	1	1.204797	1.204797	0	1	0	0	CorrectCommission	0.476798	0.810355	1	0	9.605882e+01
183.592911	1.279482	city	9	1	1.259801	1.259801	0	1	0	0	CorrectCommission	0.715247	0.814006	1	0	9.614706e+01
184.879166	1.293031	city	6	1	0.992691	0.992691	0	1	0	0	CorrectCommission	0.442715	0.814724	1	0	9.623529e+01
186.165482	1.279576	city	9	1	1.091297	1.091297	0	1	0	0	CorrectCommission	0.015245	0.813205	1	0	9.632353e+01
187.451736	1.292930	city	10	1	0.936588	0.936588	0	1	0	0	CorrectCommission	0.685930	0.810202	1	0	9.641176e+01
188.777969	1.359536	city	4	1	0.981613	0.981613	0	1	0	0	CorrectCommission	0.490737	0.806327	1	0	9.650000e+01
190.104111	1.292748	city	8	1	0.770124	0.770124	0	1	0	0	CorrectCommission	1.407575	0.801967	1	0	9.658824e+01
191.403671	1.306397	city	7	1	0.764802	0.764802	0	1	0	0	CorrectCommission	1.430649	0.797189	1	0	9.667647e+01
192.716675	1.319596	city	3	1	0.843144	0.843144	0	1	0	0	CorrectCommission	1.091021	0.791783	1	0	9.676471e+01
194.016251	1.279559	mountain	5	0	0.000000	1.085102	1	0	0	0	CorrectOmission	0.042098	0.785326	1	0	9.685294e+01
195.309082	1.306103	city	6	1	1.277427	1.277427	0	1	0	0	CorrectCommission	0.791660	0.777290	1	0	9.694118e+01
196.621902	1.319523	city	5	1	1.206872	1.206872	0	1	0	0	CorrectCommission	0.485794	0.767056	1	0	9.702941e+01
197.928406	1.293498	city	2	1	1.339363	1.339363	0	1	0	0	CorrectCommission	1.060161	0.754150	1	0	9.711765e+01
199.267975	1.385640	city	7	1	1.191374	1.191374	0	1	0	0	CorrectCommission	0.418606	0.738312	1	0	9.720588e+01
200.607239	1.292886	city	6	1	0.860802	0.860802	0	1	0	0	CorrectCommission	1.014474	0.719680	1	0	9.729412e+01
201.906891	1.306427	city	8	1	0.719185	0.719185	0	1	0	0	CorrectCommission	1.628403	0.698818	1	0	9.738235e+01
203.213226	1.306232	city	2	1	1.257184	1.257184	0	1	0	0	CorrectCommission	0.703900	0.676781	1	0	9.747059e+01
204.519455	1.306221	city	6	1	1.059915	1.059915	0	1	0	0	CorrectCommission	0.151291	0.655071	1	0	9.755882e+01
205.812286	1.279463	city	4	1	0.944948	0.944948	0	1	0	0	CorrectCommission	0.649687	0.635455	1	0	9.764706e+01
207.098450	1.292867	city	2	1	0.871093	0.871093	0	1	0	0	CorrectCommission	0.969862	0.619753	1	0	9.773529e+01
208.391342	1.292902	city	3	1	1.137336	1.137336	0	1	0	0	CorrectCommission	0.184341	0.609539	1	0	9.782353e+01
209.697678	1.319772	city	4	1	1.089503	1.089503	0	1	0	0	CorrectCommission	0.023021	0.605968	1	0	9.791176e+01
213.536453	6.357775	break	0	0	0.000000	1.177298	0	0	0	0	ThoughtProbe	0.357586	0.609571	1	98	98
217.361832	1.292992	city	7	1	1.206765	1.206765	0	1	0	0	CorrectCommission	0.485328	0.620174	1	0	9.773913e+01
218.654724	1.292782	city	10	1	0.983946	0.983946	0	1	0	0	CorrectCommission	0.480625	0.636937	1	0	9.747826e+01
219.960968	1.319720	city	8	1	1.043113	1.043113	0	1	0	0	CorrectCommission	0.224130	0.658538	1	0	9.721739e+01
221.260620	1.279568	city	7	1	1.032601	1.032601	0	1	0	0	CorrectCommission	0.269698	0.683387	1	0	9.695652e+01
222.540192	1.279568	city	6	1	0.879941	0.879941	0	1	0	0	CorrectCommission	0.931501	0.709940	1	0	9.669565e+01
223.839676	1.319398	city	2	1	0.558692	0.558692	0	1	0	0	CorrectCommission	2.324164	0.736869	1	0	9.643478e+01
225.165817	1.332900	city	8	1	0.714060	0.714060	0	1	0	0	CorrectCommission	1.650623	0.763242	1	0	9.617391e+01
226.505463	1.346384	city	1	1	1.007290	1.007290	0	1	0	0	CorrectCommission	0.379427	0.788544	1	0	9.591304e+01
227.845032	1.332749	city	3	1	1.026719	1.026719	0	1	0	0	CorrectCommission	0.295200	0.812551	1	0	9.565217e+01
229.177917	1.333037	city	4	1	0.999013	0.999013	0	1	0	0	CorrectCommission	0.415306	0.835047	0	0	9.539130e+01
230.490814	1.292766	city	7	1	1.034028	1.034028	0	1	0	0	CorrectCommission	0.263514	0.855613	0	0	9.513043e+01
231.803650	1.332901	city	5	1	1.054540	1.054540	0	1	0	0	CorrectCommission	0.174589	0.873490	0	0	9.486957e+01
233.109970	1.279717	mountain	9	0	0.000000	1.341817	1	0	0	0	CorrectOmission	1.070801	0.887565	0	0	9.460870e+01
234.409607	1.319565	city	6	1	1.411645	1.411645	0	1	0	0	CorrectCommission	1.373512	0.896476	0	0	9.434783e+01
235.722443	1.306106	mountain	7	1	0.779807	0.779807	0	0	1	0	CommissionError	1.365597	0.898876	0	0	9.408696e+01
237.048676	1.346356	city	7	1	1.618667	1.618667	0	1	0	0	CorrectCommission	2.270985	0.893765	0	0	9.382609e+01
238.388290	1.332893	city	9	1	0.871999	0.871999	0	1	0	0	CorrectCommission	0.965934	0.880742	0	0	9.356522e+01
239.714523	1.319567	city	10	1	0.834156	0.834156	0	1	0	0	CorrectCommission	1.129986	0.860242	0	0	9.330435e+01
241.027435	1.306242	mountain	3	0	0.000000	1.071143	1	0	0	0	CorrectOmission	0.102614	0.833468	0	0	9.304348e+01
242.326950	1.292785	city	6	1	1.298440	1.298440	0	1	0	0	CorrectCommission	0.882755	0.802455	1	0	9.278261e+01
243.686447	1.426229	city	5	1	1.231532	1.231532	0	1	0	0	CorrectCommission	0.592694	0.769738	1	0	9.252174e+01
245.045975	1.292833	city	6	1	1.277894	1.277894	0	1	0	0	CorrectCommission	0.793684	0.738177	1	0	9.226087e+01
246.345596	1.306399	city	4	1	0.994001	0.994001	0	1	0	0	CorrectCommission	0.437037	0.710676	1	0	92
247.651917	1.306240	city	6	1	0.822804	0.822804	0	1	0	0	CorrectCommission	1.179198	0.689926	1	0	9.173913e+01
248.971420	1.332779	city	10	1	1.101308	1.101308	0	1	0	0	CorrectCommission	0.028157	0.678178	1	0	9.147826e+01
250.317642	1.359665	city	9	1	0.971767	0.971767	0	1	0	0	CorrectCommission	0.533422	0.677133	1	0	9.121739e+01
251.643951	1.292950	city	4	1	1.095539	1.095539	0	1	0	0	CorrectCommission	0.003148	0.687772	1	0	9.095652e+01
252.936859	1.292870	city	7	1	0.952820	0.952820	0	1	0	0	CorrectCommission	0.615563	0.710334	1	0	9.069565e+01
254.236343	1.306078	city	8	1	0.855252	0.855252	0	1	0	0	CorrectCommission	1.038532	0.744293	1	0	9.043478e+01
255.542587	1.306412	city	7	1	1.101380	1.101380	0	1	0	0	CorrectCommission	0.028468	0.788415	1	0	9.017391e+01
256.855560	1.319546	city	9	1	0.943732	0.943732	0	1	0	0	CorrectCommission	0.654961	0.840863	0	0	8.991304e+01
258.155060	1.279435	city	2	1	1.330652	1.330652	0	1	0	0	CorrectCommission	1.022398	0.899290	0	0	8.965217e+01
259.474640	1.359719	mountain	6	0	0.000000	1.444715	1	0	0	0	CorrectOmission	1.516876	0.961026	0	0	8.939130e+01
260.800842	1.292695	city	7	1	1.304944	1.304944	0	1	0	0	CorrectCommission	0.910948	1.023259	0	0	8.913043e+01
262.100311	1.306265	city	8	1	0.930364	0.930364	0	1	0	0	CorrectCommission	0.712910	1.083262	0	0	8.886957e+01
263.393250	1.279616	city	9	1	1.342628	1.342628	0	1	0	0	CorrectCommission	1.074315	1.138543	0	0	8.860870e+01
264.692902	1.319692	city	5	1	1.535723	1.535723	0	1	0	0	CorrectCommission	1.911412	1.187057	0	0	8.834783e+01
266.012543	1.319591	city	10	1	1.076263	1.076263	0	1	0	0	CorrectCommission	0.080418	1.227311	0	0	8.808696e+01
267.338776	1.332871	city	6	1	1.793881	1.793881	0	1	0	0	CorrectCommission	3.030563	1.258529	0	0	8.782609e+01
268.671661	1.332898	city	5	1	1.507965	1.507965	0	1	0	0	CorrectCommission	1.791077	1.280473	0	0	8.756522e+01
269.991211	1.306170	city	9	1	1.434305	1.434305	0	1	0	0	CorrectCommission	1.471750	1.293535	0	0	8.730435e+01
271.290771	1.292972	city	3	1	1.541394	1.541394	0	1	0	0	CorrectCommission	1.935993	1.298378	0	0	8.704348e+01
272.603668	1.332847	city	6	1	1.284520	1.284520	0	1	0	0	CorrectCommission	0.822406	1.295714	0	0	8.678261e+01
273.949921	1.359615	city	9	1	1.010500	1.010500	0	1	0	0	CorrectCommission	0.365512	1.286108	0	0	8.652174e+01
275.282745	1.306057	city	4	1	1.060325	1.060325	0	1	0	0	CorrectCommission	0.149511	1.269784	0	0	8.626087e+01
279.521271	7.170993	break	0	0	0.000000	1.307257	0	0	0	0	ThoughtProbe	0.920977	1.246607	0	86	86
283.753296	1.293066	mountain	4	0	0.000000	1.580507	1	0	0	0	CorrectOmission	2.105557	1.216245	0	0	8.614706e+01
285.052948	1.306238	city	3	1	1.709286	1.709286	0	1	0	0	CorrectCommission	2.663833	1.178421	0	0	8.629412e+01
286.352539	1.292913	city	2	0	0.000000	1.522806	0	0	0	1	OmissionError	1.855411	1.133219	0	0	8.644118e+01
287.645386	1.292779	city	3	1	1.327784	1.327784	0	1	0	0	CorrectCommission	1.009965	1.081313	0	0	8.658824e+01
288.938263	1.293002	city	7	1	1.430942	1.430942	0	1	0	0	CorrectCommission	1.457169	1.024086	0	0	8.673529e+01
290.237915	1.306270	city	3	1	1.274720	1.274720	0	1	0	0	CorrectCommission	0.779922	0.963554	0	0	8.688235e+01
291.544067	1.306072	city	2	1	1.056120	1.056120	0	1	0	0	CorrectCommission	0.167743	0.902187	0	0	8.702941e+01
292.850311	1.306413	city	7	1	0.962349	0.962349	0	1	0	0	CorrectCommission	0.574250	0.842646	0	0	8.717647e+01
294.163269	1.319464	city	1	1	1.072884	1.072884	0	1	0	0	CorrectCommission	0.095068	0.787400	1	0	8.732353e+01
295.489471	1.332990	mountain	2	0	0.000000	1.280396	1	0	0	0	CorrectOmission	0.804531	0.738550	1	0	8.747059e+01
296.802734	1.293495	city	7	1	1.349209	1.349209	0	1	0	0	CorrectCommission	1.102846	0.697611	1	0	8.761765e+01
298.122284	1.345615	city	4	1	1.043644	1.043644	0	1	0	0	CorrectCommission	0.221825	0.665485	1	0	8.776471e+01
299.441528	1.292908	city	7	1	1.046700	1.046700	0	1	0	0	CorrectCommission	0.208577	0.642478	1	0	8.791176e+01
300.747711	1.319408	city	2	1	0.855281	0.855281	0	1	0	0	CorrectCommission	1.038407	0.628418	1	0	8.805882e+01
302.060577	1.306325	city	5	1	0.953513	0.953513	0	1	0	0	CorrectCommission	0.612559	0.622655	1	0	8.820588e+01
303.373474	1.319476	city	3	1	1.195980	1.195980	0	1	0	0	CorrectCommission	0.438574	0.624284	1	0	8.835294e+01
304.686401	1.306420	city	5	1	0.936821	0.936821	0	1	0	0	CorrectCommission	0.684917	0.632215	1	0	8.850000e+01
305.986053	1.292880	city	7	1	1.028194	1.028194	0	1	0	0	CorrectCommission	0.288803	0.645218	1	0	8.864706e+01
307.298889	1.332769	city	6	1	1.160963	1.160963	0	1	0	0	CorrectCommission	0.286768	0.662022	1	0	8.879412e+01
308.638458	1.346358	city	4	1	1.030099	1.030099	0	1	0	0	CorrectCommission	0.280547	0.681408	1	0	8.894118e+01
309.951355	1.279436	city	5	1	1.453380	1.453380	0	1	0	0	CorrectCommission	1.554442	0.702266	1	0	8.908824e+01
311.264252	1.346360	city	2	1	0.841382	0.841382	0	1	0	0	CorrectCommission	1.098662	0.723675	1	0	8.923529e+01
312.597137	1.319405	city	8	1	1.071683	1.071683	0	1	0	0	CorrectCommission	0.100271	0.745050	1	0	8.938235e+01
313.910034	1.306420	city	10	1	0.857530	0.857530	0	1	0	0	CorrectCommission	1.028660	0.766160	1	0	8.952941e+01
315.243042	1.359556	city	9	1	0.867459	0.867459	0	1	0	0	CorrectCommission	0.985614	0.787114	1	0	8.967647e+01
316.595917	1.346221	city	2	1	0.995482	0.995482	0	1	0	0	CorrectCommission	0.430615	0.808334	1	0	8.982353e+01
317.928741	1.319390	city	4	1	1.564358	1.564358	0	1	0	0	CorrectCommission	2.035548	0.830382	0	0	8.997059e+01
319.241547	1.306227	city	2	1	1.207854	1.207854	0	1	0	0	CorrectCommission	0.490047	0.853733	0	0	9.011765e+01
320.561188	1.333060	city	3	1	1.167734	1.167734	0	1	0	0	CorrectCommission	0.316121	0.878640	0	0	9.026471e+01
321.874176	1.292913	city	8	1	1.078858	1.078858	0	1	0	0	CorrectCommission	0.069167	0.904882	0	0	9.041176e+01
323.180389	1.319557	city	6	1	0.911141	0.911141	0	1	0	0	CorrectCommission	0.796246	0.931689	0	0	9.055882e+01
324.486664	1.292946	city	4	1	0.858178	0.858178	0	1	0	0	CorrectCommission	1.025848	0.957724	0	0	9.070588e+01
325.779572	1.292871	city	7	1	0.712742	0.712742	0	1	0	0	CorrectCommission	1.656336	0.981265	0	0	9.085294e+01
330.151367	7.450729	break	0	0	0.000000	0.892207	0	0	0	0	ThoughtProbe	0.878328	1.000426	0	91	91
334.529938	1.306414	mountain	10	0	0.000000	1.217931	1	0	0	0	CorrectOmission	0.533735	1.013545	0	0	9.057500e+01
335.829590	1.292888	city	10	1	1.511273	1.511273	0	1	0	0	CorrectCommission	1.805414	1.019397	0	0	9.015000e+01
337.122406	1.292775	city	9	1	1.593589	1.593589	0	1	0	0	CorrectCommission	2.162268	1.017485	0	0	8.972500e+01
338.448669	1.359732	city	1	1	1.303183	1.303183	0	1	0	0	CorrectCommission	0.903313	1.008196	0	0	8.930000e+01
339.801636	1.346178	city	3	1	1.525040	1.525040	0	1	0	0	CorrectCommission	1.865097	0.992748	0	0	8.887500e+01
341.127838	1.306265	city	4	1	1.201907	1.201907	0	1	0	0	CorrectCommission	0.464270	0.972965	0	0	8.845000e+01
342.434021	1.306062	city	3	1	1.167711	1.167711	0	1	0	0	CorrectCommission	0.316024	0.951078	0	0	8.802500e+01
343.726898	1.279744	city	10	1	0.946811	0.946811	0	1	0	0	CorrectCommission	0.641612	0.929355	0	0	8.760000e+01
345.026459	1.319372	city	1	1	1.177634	1.177634	0	1	0	0	CorrectCommission	0.359039	0.909793	0	0	8.717500e+01
346.346039	1.319761	city	8	1	0.886684	0.886684	0	1	0	0	CorrectCommission	0.902269	0.893985	0	0	8.675000e+01
347.652283	1.292738	city	6	1	0.914923	0.914923	0	1	0	0	CorrectCommission	0.779849	0.883046	0	0	8.632500e+01
348.951843	1.306383	city	9	1	0.839375	0.839375	0	1	0	0	CorrectCommission	1.107364	0.877576	0	0	8.590000e+01
350.271484	1.332923	city	10	1	0.795251	0.795251	0	1	0	0	CorrectCommission	1.298648	0.877800	0	0	8.547500e+01
351.611053	1.346204	city	6	1	1.181490	1.181490	0	1	0	0	CorrectCommission	0.375756	0.883691	0	0	8.505000e+01
352.923950	1.279600	mountain	2	0	0.000000	1.373657	1	0	0	0	CorrectOmission	1.208828	0.895043	0	0	8.462500e+01
354.203522	1.279514	city	7	1	1.316158	1.316158	0	1	0	0	CorrectCommission	0.959562	0.911483	0	0	8.420000e+01
355.523102	1.359627	city	2	1	0.953400	0.953400	0	1	0	0	CorrectCommission	0.613048	0.932454	0	0	8.377500e+01
356.855927	1.306053	city	10	1	0.832724	0.832724	0	1	0	0	CorrectCommission	1.136197	0.957134	0	0	8.335000e+01
358.175415	1.332902	city	7	1	1.112539	1.112539	0	1	0	0	CorrectCommission	0.076846	0.984270	0	0	8.292500e+01
359.501709	1.319723	city	10	1	0.775672	0.775672	0	1	0	0	CorrectCommission	1.383526	1.012222	0	0	8.250000e+01
360.814697	1.306219	city	2	1	1.100951	1.100951	0	1	0	0	CorrectCommission	0.026609	1.038892	0	0	8.207500e+01
362.114258	1.292931	city	7	1	1.379102	1.379102	0	1	0	0	CorrectCommission	1.232436	1.062012	0	0	8.165000e+01
363.414001	1.306512	mountain	3	0	0.000000	1.590772	1	0	0	0	CorrectOmission	2.150055	1.079250	0	0	8.122500e+01
364.720215	1.305958	city	4	1	1.482594	1.482594	0	1	0	0	CorrectCommission	1.681089	1.088522	0	0	8.080000e+01
366.032990	1.319547	city	10	1	0.801203	0.801203	0	1	0	0	CorrectCommission	1.272843	1.088332	0	0	8.037500e+01
367.345856	1.306239	city	4	1	1.387638	1.387638	0	1	0	0	CorrectCommission	1.269440	1.078015	0	0	7.995000e+01
368.645386	1.292782	city	9	1	1.400048	1.400048	0	1	0	0	CorrectCommission	1.323238	1.057838	0	0	7.952500e+01
369.984863	1.386199	city	7	1	0.949236	0.949236	0	1	0	0	CorrectCommission	0.631099	1.029085	0	0	7.910000e+01
371.344482	1.333051	city	9	1	0.893662	0.893662	0	1	0	0	CorrectCommission	0.872018	0.993943	0	0	7.867500e+01
372.677460	1.332876	city	5	1	0.512095	0.512095	0	1	0	0	CorrectCommission	2.526169	0.955239	0	0	7.825000e+01
373.997040	1.306254	city	3	1	1.173142	1.173142	0	1	0	0	CorrectCommission	0.339569	0.916121	0	0	7.782500e+01
375.303253	1.306211	city	2	1	0.993069	0.993069	0	1	0	0	CorrectCommission	0.441077	0.879758	0	0	7.740000e+01
376.616119	1.319510	city	4	1	1.048073	1.048073	0	1	0	0	CorrectCommission	0.202625	0.848854	0	0	7.697500e+01
377.922394	1.293065	city	3	1	1.231074	1.231074	0	1	0	0	CorrectCommission	0.590712	0.825368	0	0	7.655000e+01
379.222015	1.306168	city	8	1	0.983048	0.983048	0	1	0	0	CorrectCommission	0.484519	0.810255	1	0	7.612500e+01
380.554810	1.359401	city	1	1	0.963777	0.963777	0	1	0	0	CorrectCommission	0.568059	0.803413	1	0	7.570000e+01
381.887695	1.306383	city	5	1	1.392987	1.392987	0	1	0	0	CorrectCommission	1.292627	0.803699	1	0	7.527500e+01
383.187256	1.292723	city	9	1	1.146648	1.146648	0	1	0	0	CorrectCommission	0.224710	0.809111	1	0	7.485000e+01
384.473450	1.279685	city	8	1	1.051233	1.051233	0	1	0	0	CorrectCommission	0.188928	0.817203	1	0	7.442500e+01
388.532227	6.837826	break	0	1	1.208083	1.208083	0	0	0	0	ThoughtProbe	0.491041	0.825385	0	74	74
392.624146	1.346055	city	5	1	1.539084	1.539084	0	1	0	0	CorrectCommission	1.925981	0.831404	0	0	7.436957e+01
393.970306	1.346240	city	2	1	1.588492	1.588492	0	1	0	0	CorrectCommission	2.140173	0.833602	0	0	7.473913e+01
395.283264	1.279713	city	7	1	1.373081	1.373081	0	1	0	0	CorrectCommission	1.206334	0.831253	0	0	7.510870e+01
396.589813	1.333375	city	2	1	1.293640	1.293640	0	1	0	0	CorrectCommission	0.861946	0.824557	0	0	7.547826e+01
397.896088	1.279148	city	8	1	1.213205	1.213205	0	1	0	0	CorrectCommission	0.513245	0.814456	1	0	7.584783e+01
399.221985	1.372672	city	6	1	1.128764	1.128764	0	1	0	0	CorrectCommission	0.147181	0.802467	1	0	7.621739e+01
400.568146	1.319665	city	5	1	0.996923	0.996923	0	1	0	0	CorrectCommission	0.424370	0.790339	1	0	7.658696e+01
401.887726	1.319492	city	4	1	1.219342	1.219342	0	1	0	0	CorrectCommission	0.539853	0.779740	1	0	7.695652e+01
403.207275	1.319564	city	1	1	0.936355	0.936355	0	1	0	0	CorrectCommission	0.686940	0.772012	1	0	7.732609e+01
404.526917	1.319723	mountain	10	0	0.000000	0.811810	1	0	0	0	CorrectOmission	1.226862	0.768053	1	0	7.769565e+01
405.866547	1.359537	city	2	1	0.891664	0.891664	0	1	0	0	CorrectCommission	0.880683	0.768263	1	0	7.806522e+01
407.199371	1.306146	city	6	1	1.221874	1.221874	0	1	0	0	CorrectCommission	0.550827	0.772585	1	0	7.843478e+01
408.512268	1.319656	city	10	1	1.011325	1.011325	0	1	0	0	CorrectCommission	0.361932	0.780664	1	0	7.880435e+01
409.838562	1.332913	city	8	1	0.965294	0.965294	0	1	0	0	CorrectCommission	0.561483	0.791902	1	0	7.917391e+01
411.151459	1.292880	mountain	5	0	0.000000	1.322114	1	0	0	0	CorrectOmission	0.985382	0.805595	1	0	7.954348e+01
412.471008	1.346222	city	3	1	1.519375	1.519375	0	1	0	0	CorrectCommission	1.840540	0.820973	0	0	7.991304e+01
413.790588	1.292913	city	8	1	0.994670	0.994670	0	1	0	0	CorrectCommission	0.434134	0.837251	0	0	8.028261e+01
415.103485	1.332891	city	10	1	0.880512	0.880512	0	1	0	0	CorrectCommission	0.929026	0.853667	0	0	8.065217e+01
416.429718	1.319576	mountain	6	0	0.000000	1.039120	1	0	0	0	CorrectOmission	0.241438	0.869380	0	0	8.102174e+01
417.742615	1.306233	city	10	1	1.220120	1.220120	0	1	0	0	CorrectCommission	0.543222	0.883563	0	0	8.139130e+01
419.068787	1.346068	city	4	1	1.173138	1.173138	0	1	0	0	CorrectCommission	0.339549	0.895342	0	0	8.176087e+01
420.388336	1.293068	mountain	8	0	0.000000	1.504968	1	0	0	0	CorrectOmission	1.778083	0.903914	0	0	8.213043e+01
421.701141	1.332555	city	6	1	1.667352	1.667352	0	1	0	0	CorrectCommission	2.482043	0.908573	0	0	8.250000e+01
423.027374	1.319902	city	3	1	1.112032	1.112032	0	1	0	0	CorrectCommission	0.074646	0.908857	0	0	8.286957e+01
424.367126	1.359578	city	5	1	0.863991	0.863991	0	1	0	0	CorrectCommission	1.000647	0.904662	0	0	8.323913e+01
425.686676	1.279556	city	2	1	0.930318	0.930318	0	1	0	0	CorrectCommission	0.713109	0.896162	0	0	8.360870e+01
426.992920	1.332918	city	8	1	0.831358	0.831358	0	1	0	0	CorrectCommission	1.142118	0.883858	0	0	8.397826e+01
428.325836	1.332895	city	10	1	0.927776	0.927776	0	1	0	0	CorrectCommission	0.724132	0.868489	0	0	8.434783e+01
429.658630	1.332712	city	1	1	0.904983	0.904983	0	1	0	0	CorrectCommission	0.822944	0.851023	0	0	8.471739e+01
430.991516	1.333070	city	3	1	0.901080	0.901080	0	1	0	0	CorrectCommission	0.839863	0.832517	0	0	8.508696e+01
432.317780	1.319413	city	1	1	0.926376	0.926376	0	1	0	0	CorrectCommission	0.730200	0.814069	1	0	8.545652e+01
433.637238	1.319543	city	2	1	0.804343	0.804343	0	1	0	0	CorrectCommission	1.259232	0.796767	1	0	8.582609e+01
434.950134	1.306255	city	9	1	1.156745	1.156745	0	1	0	0	CorrectCommission	0.268485	0.781627	1	0	8.619565e+01
436.243134	1.279728	city	10	1	0.864147	0.864147	0	1	0	0	CorrectCommission	0.999973	0.769610	1	0	8.656522e+01
437.556122	1.346217	city	2	1	1.001081	1.001081	0	1	0	0	CorrectCommission	0.406343	0.761474	1	0	8.693478e+01
438.882355	1.306288	city	7	1	0.917041	0.917041	0	1	0	0	CorrectCommission	0.770668	0.757832	1	0	8.730435e+01
440.215240	1.359502	city	9	1	0.974788	0.974788	0	1	0	0	CorrectCommission	0.520328	0.759006	1	0	8.767391e+01
441.568146	1.346249	city	4	1	0.922542	0.922542	0	1	0	0	CorrectCommission	0.746823	0.765011	1	0	8.804348e+01
442.901031	1.319539	city	7	1	0.777925	0.777925	0	1	0	0	CorrectCommission	1.373757	0.775539	1	0	8.841304e+01
444.227203	1.332821	city	5	1	1.106613	1.106613	0	1	0	0	CorrectCommission	0.051153	0.789900	1	0	8.878261e+01
445.553375	1.319500	city	3	1	1.032035	1.032035	0	1	0	0	CorrectCommission	0.272153	0.807110	1	0	8.915217e+01
446.866302	1.306375	city	8	1	0.899136	0.899136	0	1	0	0	CorrectCommission	0.848290	0.825876	0	0	8.952174e+01
448.165894	1.292836	city	5	1	1.414155	1.414155	0	1	0	0	CorrectCommission	1.384393	0.844714	0	0	8.989130e+01
449.472137	1.319652	city	4	1	1.272521	1.272521	0	1	0	0	CorrectCommission	0.770392	0.862063	0	0	9.026087e+01
450.785004	1.306063	city	5	1	1.439580	1.439580	0	1	0	0	CorrectCommission	1.494616	0.876459	0	0	9.063043e+01
455.183533	7.490986	break	0	0	0.000000	1.227796	0	0	0	0	ThoughtProbe	0.576500	0.886680	0	91	91
459.588745	1.319450	city	10	1	1.114959	1.114959	0	1	0	0	CorrectCommission	0.087336	0.891883	0	0	9.063043e+01
460.908356	1.319727	city	5	1	1.578860	1.578860	0	1	0	0	CorrectCommission	2.098414	0.891682	0	0	9.026087e+01
462.227997	1.319564	city	7	1	1.505761	1.505761	0	1	0	0	CorrectCommission	1.781520	0.886119	0	0	8.989130e+01
463.554138	1.332737	city	2	1	1.225027	1.225027	0	1	0	0	CorrectCommission	0.564498	0.875767	0	0	8.952174e+01
464.887054	1.333101	city	1	1	0.971521	0.971521	0	1	0	0	CorrectCommission	0.534489	0.861635	0	0	8.915217e+01
466.206696	1.306189	city	7	1	1.048631	1.048631	0	1	0	0	CorrectCommission	0.200205	0.845019	0	0	8.878261e+01
467.506165	1.292758	mountain	10	1	1.327917	1.327917	0	0	1	0	CommissionError	1.010538	0.827438	0	0	8.841304e+01
468.812408	1.319714	city	8	1	1.022779	1.022779	0	1	0	0	CorrectCommission	0.312280	0.810478	1	0	8.804348e+01
470.118652	1.292776	city	5	1	1.537863	1.537863	0	1	0	0	CorrectCommission	1.920687	0.795729	1	0	8.767391e+01
471.451477	1.372855	city	3	1	1.338089	1.338089	0	1	0	0	CorrectCommission	1.054639	0.784562	1	0	8.730435e+01
472.811096	1.346389	city	6	1	1.167864	1.167864	0	1	0	0	CorrectCommission	0.316688	0.778093	1	0	8.693478e+01
474.150726	1.332899	city	5	1	1.196860	1.196860	0	1	0	0	CorrectCommission	0.442388	0.776998	1	0	8.656522e+01
475.476898	1.319412	city	8	1	1.024127	1.024127	0	1	0	0	CorrectCommission	0.306435	0.781393	1	0	8.619565e+01
476.836456	1.399703	city	9	1	1.034290	1.034290	0	1	0	0	CorrectCommission	0.262377	0.790783	1	0	8.582609e+01
478.189423	1.306223	city	4	1	0.852281	0.852281	0	1	0	0	CorrectCommission	1.051414	0.804046	1	0	8.545652e+01
479.508972	1.332892	city	7	1	0.925400	0.925400	0	1	0	0	CorrectCommission	0.734429	0.819583	1	0	8.508696e+01
480.835114	1.319403	city	4	1	1.207954	1.207954	0	1	0	0	CorrectCommission	0.490484	0.835502	0	0	8.471739e+01
482.161285	1.332945	mountain	7	0	0.000000	1.334559	1	0	0	0	CorrectOmission	1.039334	0.849898	0	0	8.434783e+01
483.474274	1.293022	city	1	1	1.391230	1.391230	0	1	0	0	CorrectCommission	1.285012	0.861097	0	0	8.397826e+01
484.793915	1.346241	mountain	5	0	0.000000	1.463985	1	0	0	0	CorrectOmission	1.600413	0.868004	0	0	8.360870e+01
486.113495	1.292916	city	1	1	1.453826	1.453826	0	1	0	0	CorrectCommission	1.556374	0.870226	0	0	8.323913e+01
487.493042	1.466178	city	10	1	1.261758	1.261758	0	1	0	0	CorrectCommission	0.723732	0.868132	0	0	8.286957e+01
488.879150	1.306057	city	3	1	1.197933	1.197933	0	1	0	0	CorrectCommission	0.447041	0.862780	0	0	8.250000e+01
490.171967	1.279592	city	1	1	0.858973	0.858973	0	1	0	0	CorrectCommission	1.022403	0.855650	0	0	8.213043e+01
491.451630	1.279725	city	5	0	0.000000	1.014913	0	0	0	1	OmissionError	0.346379	0.848380	0	0	8.176087e+01
492.751221	1.319471	city	2	1	1.178171	1.178171	0	1	0	0	CorrectCommission	0.361368	0.842529	0	0	8.139130e+01
494.084045	1.346159	city	8	1	0.861164	0.861164	0	1	0	0	CorrectCommission	1.012904	0.839241	0	0	8.102174e+01
495.436981	1.359716	city	1	1	1.299859	1.299859	0	1	0	0	CorrectCommission	0.888903	0.839086	0	0	8.065217e+01
496.763306	1.292907	city	7	1	1.351124	1.351124	0	1	0	0	CorrectCommission	1.111147	0.841982	0	0	8.028261e+01
498.089447	1.359429	city	2	1	0.997620	0.997620	0	1	0	0	CorrectCommission	0.421347	0.847223	0	0	7.991304e+01
499.408966	1.279560	city	3	1	0.911424	0.911424	0	1	0	0	CorrectCommission	0.795019	0.853600	0	0	7.954348e+01
500.701874	1.306248	city	6	1	1.273151	1.273151	0	1	0	0	CorrectCommission	0.773120	0.859577	0	0	7.917391e+01
502.008179	1.306400	city	10	1	0.927868	0.927868	0	1	0	0	CorrectCommission	0.723733	0.863564	0	0	7.880435e+01
503.301147	1.279547	mountain	8	0	0.000000	1.216592	1	0	0	0	CorrectOmission	0.527929	0.864189	0	0	7.843478e+01
504.580719	1.279576	city	7	1	1.564506	1.564506	0	1	0	0	CorrectCommission	2.036188	0.860541	0	0	7.806522e+01
505.946899	1.452801	city	10	1	1.396793	1.396793	0	1	0	0	CorrectCommission	1.309126	0.852283	0	0	7.769565e+01
507.333130	1.319622	city	2	1	1.463310	1.463310	0	1	0	0	CorrectCommission	1.597490	0.839811	0	0	7.732609e+01
508.666046	1.346225	city	8	1	1.088759	1.088759	0	1	0	0	CorrectCommission	0.026246	0.824120	0	0	7.695652e+01
510.005524	1.332746	city	10	1	0.980976	0.980976	0	1	0	0	CorrectCommission	0.493502	0.806722	1	0	7.658696e+01
511.331787	1.319770	city	6	1	1.365402	1.365402	0	1	0	0	CorrectCommission	1.173041	0.789268	1	0	7.621739e+01
512.704773	1.426161	city	2	1	0.995915	0.995915	0	1	0	0	CorrectCommission	0.428740	0.773301	1	0	7.584783e+01
514.064270	1.292929	city	7	1	1.076104	1.076104	0	1	0	0	CorrectCommission	0.081106	0.760017	1	0	7.547826e+01
515.363892	1.306222	city	9	1	0.921099	0.921099	0	1	0	0	CorrectCommission	0.753078	0.750033	1	0	7.510870e+01
516.670044	1.306102	city	1	1	0.946382	0.946382	0	1	0	0	CorrectCommission	0.643471	0.743290	1	0	7.473913e+01
518.002930	1.359663	city	2	1	0.852855	0.852855	0	1	0	0	CorrectCommission	1.048924	0.739128	1	0	7.436957e+01
522.241699	7.117853	break	0	0	0.924952	0.924952	0	0	0	0	ThoughtProbe	0.736371	0.736371	1	74	74
