onset	duration	trial_type	image_type	Press	ReactionTime	ReactionTime_Interpolated	CorrectOmission	CorrectCommission	CommissionError	OmissionError	response_type	nonsmoothVarianceTimeCourse	VarianceTimeCourse	In_the_Zone	ThoughtProbe	ThoughtProbe_Interpolated
0.653004	1.279717	city	7	1	1.130008	1.130008	0	1	0	0	CorrectCommission	0.106330	0.106330	1	0	63
1.932669	1.279613	city	8	1	0.861211	0.861211	0	1	0	0	CorrectCommission	1.419513	0.226530	1	0	63
3.212250	1.279549	city	2	1	0.855037	0.855037	0	1	0	0	CorrectCommission	1.449677	0.341693	1	0	63
4.491742	1.279435	city	3	1	1.036716	1.036716	0	1	0	0	CorrectCommission	0.562097	0.447305	1	0	63
5.771324	1.279728	city	7	1	1.018223	1.018223	0	1	0	0	CorrectCommission	0.652443	0.539879	1	0	63
7.050929	1.279483	city	10	1	0.920649	0.920649	0	1	0	0	CorrectCommission	1.129135	0.617136	1	0	63
8.330515	1.279690	city	5	1	0.996520	0.996520	0	1	0	0	CorrectCommission	0.758471	0.678215	1	0	63
9.616800	1.292881	city	1	1	0.981260	0.981260	0	1	0	0	CorrectCommission	0.833025	0.723672	1	0	63
10.909699	1.292918	mountain	10	1	0.872285	0.872285	0	0	1	0	CommissionError	1.365410	0.755253	0	0	63
12.196016	1.279716	city	4	1	0.970847	0.970847	0	1	0	0	CorrectCommission	0.883894	0.775581	0	0	63
13.475514	1.279280	city	9	1	0.881246	0.881246	0	1	0	0	CorrectCommission	1.321635	0.787777	0	0	63
14.761700	1.293090	city	10	1	1.047332	1.047332	0	1	0	0	CorrectCommission	0.510236	0.794990	0	0	63
16.047939	1.279391	mountain	6	0	0.000000	1.202933	1	0	0	0	CorrectOmission	0.249940	0.800006	0	0	63
17.327518	1.279765	city	4	1	1.284532	1.284532	0	1	0	0	CorrectCommission	0.648583	0.804840	0	0	63
18.607096	1.279393	city	10	1	1.228611	1.228611	0	1	0	0	CorrectCommission	0.375387	0.810526	0	0	63
19.886671	1.279759	city	3	1	1.292952	1.292952	0	1	0	0	CorrectCommission	0.689720	0.817040	0	0	63
21.172934	1.292763	city	4	1	1.244484	1.244484	0	1	0	0	CorrectCommission	0.452934	0.823387	0	0	63
22.459181	1.279730	city	7	1	1.138887	1.138887	0	1	0	0	CorrectCommission	0.062950	0.827903	0	0	63
23.738792	1.279494	city	9	1	1.710731	1.710731	0	1	0	0	CorrectCommission	2.730743	0.828620	0	0	63
25.018370	1.279661	city	7	1	0.964308	0.964308	0	1	0	0	CorrectCommission	0.915844	0.823621	0	0	63
26.297993	1.279585	city	9	1	1.494890	1.494890	0	1	0	0	CorrectCommission	1.676270	0.811558	0	0	63
27.584185	1.292797	city	1	1	1.198504	1.198504	0	1	0	0	CorrectCommission	0.228299	0.791841	0	0	63
28.870356	1.279548	mountain	2	0	0.000000	1.286461	1	0	0	0	CorrectOmission	0.658008	0.764829	0	0	63
30.150023	1.279785	city	8	1	1.444171	1.444171	0	1	0	0	CorrectCommission	1.428486	0.731758	1	0	63
31.429657	1.279482	city	7	1	1.357042	1.357042	0	1	0	0	CorrectCommission	1.002823	0.694636	1	0	63
32.709114	1.279435	city	9	1	1.177889	1.177889	0	1	0	0	CorrectCommission	0.127588	0.656048	1	0	63
33.988708	1.279750	city	6	1	1.200456	1.200456	0	1	0	0	CorrectCommission	0.237838	0.618790	1	0	63
35.275032	1.292897	city	8	1	1.034604	1.034604	0	1	0	0	CorrectCommission	0.572418	0.585562	1	0	63
36.561230	1.279500	city	3	1	1.206927	1.206927	0	1	0	0	CorrectCommission	0.269453	0.558685	1	0	63
37.840725	1.279488	city	1	1	1.075444	1.075444	0	1	0	0	CorrectCommission	0.372899	0.539892	1	0	63
39.146988	1.333043	city	6	1	1.269372	1.269372	0	1	0	0	CorrectCommission	0.574519	0.530165	1	0	63
40.459892	1.292766	city	8	1	1.106928	1.106928	0	1	0	0	CorrectCommission	0.219082	0.529689	1	0	63
41.759483	1.306411	city	7	1	1.139857	1.139857	0	1	0	0	CorrectCommission	0.058211	0.537865	1	0	63
43.072392	1.319405	city	1	1	1.016893	1.016893	0	1	0	0	CorrectCommission	0.658944	0.553419	1	0	63
44.371964	1.279737	city	6	1	1.034750	1.034750	0	1	0	0	CorrectCommission	0.571706	0.574539	1	0	63
45.651619	1.279581	city	9	1	1.207479	1.207479	0	1	0	0	CorrectCommission	0.272147	0.599088	1	0	63
46.951103	1.319386	city	7	1	1.042441	1.042441	0	1	0	0	CorrectCommission	0.534132	0.624808	1	0	63
48.257248	1.292905	city	8	1	0.928522	0.928522	0	1	0	0	CorrectCommission	1.090672	0.649534	1	0	63
49.556904	1.306407	city	3	1	0.891927	0.891927	0	1	0	0	CorrectCommission	1.269452	0.671373	1	0	63
53.848892	7.277571	break	0	0	0.000000	1.197213	0	0	0	0	ThoughtProbe	0.221997	0.688880	1	63	63
58.127399	1.279443	city	5	1	1.461256	1.461256	0	1	0	0	CorrectCommission	1.511951	0.701094	1	0	6.323529e+01
59.406921	1.279601	city	4	1	1.300928	1.300928	0	1	0	0	CorrectCommission	0.728687	0.707589	1	0	6.347059e+01
60.686501	1.279557	city	2	1	1.038959	1.038959	0	1	0	0	CorrectCommission	0.551142	0.708418	1	0	6.370588e+01
61.966190	1.279817	mountain	7	1	1.236457	1.236457	0	0	1	0	CommissionError	0.413717	0.704085	1	0	6.394118e+01
63.252525	1.292859	city	6	1	1.372681	1.372681	0	1	0	0	CorrectCommission	1.079228	0.695432	1	0	6.417647e+01
64.538734	1.279563	city	4	1	1.140876	1.140876	0	1	0	0	CorrectCommission	0.053234	0.683527	1	0	6.441176e+01
65.824951	1.292864	city	8	1	0.887625	0.887625	0	1	0	0	CorrectCommission	1.290468	0.669712	1	0	6.464706e+01
67.124512	1.306253	city	6	1	0.956720	0.956720	0	1	0	0	CorrectCommission	0.952912	0.655406	1	0	6.488235e+01
68.417358	1.279449	city	1	1	1.087070	1.087070	0	1	0	0	CorrectCommission	0.316099	0.642140	1	0	6.511765e+01
69.710289	1.306409	city	2	1	0.991856	0.991856	0	1	0	0	CorrectCommission	0.781260	0.631419	1	0	6.535294e+01
71.003273	1.279560	city	6	1	1.018615	1.018615	0	1	0	0	CorrectCommission	0.650531	0.624594	1	0	6.558824e+01
72.302849	1.319586	city	10	1	1.107831	1.107831	0	1	0	0	CorrectCommission	0.214672	0.622745	1	0	6.582353e+01
73.615753	1.306233	city	6	1	1.206815	1.206815	0	1	0	0	CorrectCommission	0.268903	0.626517	1	0	6.605882e+01
74.915321	1.292896	city	5	1	1.040418	1.040418	0	1	0	0	CorrectCommission	0.544016	0.635987	1	0	6.629412e+01
76.201561	1.279583	city	7	1	0.987628	0.987628	0	1	0	0	CorrectCommission	0.801916	0.650582	1	0	6.652941e+01
77.494476	1.306249	mountain	10	1	1.157426	1.157426	0	0	1	0	CommissionError	0.027617	0.669045	1	0	6.676471e+01
78.800713	1.306219	city	4	1	0.994190	0.994190	0	1	0	0	CorrectCommission	0.769854	0.689563	1	0	67
80.100273	1.292905	city	6	1	1.039821	1.039821	0	1	0	0	CorrectCommission	0.546930	0.709898	1	0	6.723529e+01
81.413200	1.332958	city	1	1	0.979103	0.979103	0	1	0	0	CorrectCommission	0.843560	0.727671	1	0	6.747059e+01
82.726021	1.292684	city	9	1	1.342727	1.342727	0	1	0	0	CorrectCommission	0.932889	0.740660	0	0	6.770588e+01
84.025581	1.306423	city	7	1	1.582040	1.582040	0	1	0	0	CorrectCommission	2.102034	0.747126	0	0	6.794118e+01
85.338562	1.319538	city	5	1	1.114046	1.114046	0	1	0	0	CorrectCommission	0.184311	0.746083	0	0	6.817647e+01
86.658028	1.319403	city	9	1	0.938116	0.938116	0	1	0	0	CorrectCommission	1.043801	0.737522	1	0	6.841176e+01
88.050919	1.466378	city	5	1	1.353764	1.353764	0	1	0	0	CorrectCommission	0.986811	0.722451	1	0	6.864706e+01
89.423889	1.279553	city	8	1	1.198913	1.198913	0	1	0	0	CorrectCommission	0.230300	0.702908	1	0	6.888235e+01
90.703453	1.279577	city	7	1	1.527791	1.527791	0	1	0	0	CorrectCommission	1.837005	0.681799	1	0	6.911765e+01
91.996338	1.306192	city	8	1	1.196267	1.196267	0	1	0	0	CorrectCommission	0.217374	0.662510	1	0	6.935294e+01
93.295929	1.292997	city	3	1	1.252125	1.252125	0	1	0	0	CorrectCommission	0.490261	0.648679	1	0	6.958824e+01
94.602112	1.319365	city	10	1	1.117649	1.117649	0	1	0	0	CorrectCommission	0.166709	0.643608	1	0	6.982353e+01
95.914917	1.306243	city	3	1	1.176432	1.176432	0	1	0	0	CorrectCommission	0.120471	0.649893	1	0	7.005882e+01
97.207870	1.279666	city	1	1	1.183344	1.183344	0	1	0	0	CorrectCommission	0.154239	0.669013	1	0	7.029412e+01
98.500786	1.306164	city	9	1	1.102427	1.102427	0	1	0	0	CorrectCommission	0.241074	0.701050	1	0	7.052941e+01
99.793686	1.279642	city	10	1	1.017991	1.017991	0	1	0	0	CorrectCommission	0.653579	0.744561	0	0	7.076471e+01
100.433510	8.144101	break	0	0	0.000000	0.978221	0	0	0	0	ThoughtProbe	0.847874	0.796628	0	71	71
109.230621	1.306031	city	2	1	1.047527	1.047527	0	1	0	0	CorrectCommission	0.509283	0.853109	0	0	7.075000e+01
110.523438	1.279599	mountain	8	0	0.000000	1.290321	1	0	0	0	CorrectOmission	0.676865	0.909041	0	0	7.050000e+01
111.809731	1.292984	city	6	1	1.380346	1.380346	0	1	0	0	CorrectCommission	1.116673	0.959165	0	0	7.025000e+01
113.149277	1.386114	city	3	1	0.991345	0.991345	0	1	0	0	CorrectCommission	0.783755	0.998579	0	0	70
114.482208	1.279746	city	2	1	0.755237	0.755237	0	1	0	0	CorrectCommission	1.937238	1.023345	0	0	6.975000e+01
115.775131	1.306093	city	6	1	0.612629	0.612629	0	1	0	0	CorrectCommission	2.633937	1.030971	0	0	6.950000e+01
117.103035	1.349723	city	8	1	0.634360	0.634360	0	1	0	0	CorrectCommission	2.527771	1.020761	0	0	6.925000e+01
118.422668	1.289545	city	9	1	0.984188	0.984188	0	1	0	0	CorrectCommission	0.818720	0.993909	0	0	69
119.720566	1.306243	city	10	1	0.996797	0.996797	0	1	0	0	CorrectCommission	0.757119	0.953297	0	0	6.875000e+01
121.013489	1.279600	city	4	1	1.021351	1.021351	0	1	0	0	CorrectCommission	0.637162	0.903109	0	0	6.850000e+01
122.293076	1.279583	city	1	1	0.978930	0.978930	0	1	0	0	CorrectCommission	0.844405	0.848258	0	0	6.825000e+01
123.592651	1.319555	city	6	1	1.127547	1.127547	0	1	0	0	CorrectCommission	0.118354	0.793783	0	0	68
124.932198	1.359545	city	9	1	1.082181	1.082181	0	1	0	0	CorrectCommission	0.339986	0.744311	0	0	6.775000e+01
126.258362	1.292786	city	3	1	1.018111	1.018111	0	1	0	0	CorrectCommission	0.652990	0.703538	1	0	6.750000e+01
127.544601	1.279695	mountain	5	0	0.000000	1.064788	1	0	0	0	CorrectOmission	0.424955	0.674021	1	0	6.725000e+01
128.830902	1.292911	city	4	1	1.161103	1.161103	0	1	0	0	CorrectCommission	0.045581	0.657058	1	0	67
130.163757	1.372793	city	2	1	1.245947	1.245947	0	1	0	0	CorrectCommission	0.460080	0.652741	1	0	6.675000e+01
131.496658	1.292991	city	3	1	1.025673	1.025673	0	1	0	0	CorrectCommission	0.616048	0.660143	1	0	6.650000e+01
132.802948	1.319599	city	1	1	1.006280	1.006280	0	1	0	0	CorrectCommission	0.710793	0.677571	1	0	6.625000e+01
134.122528	1.319562	city	5	1	0.900344	0.900344	0	1	0	0	CorrectCommission	1.228333	0.702853	1	0	66
135.428757	1.292893	mountain	3	0	0.000000	1.023385	1	0	0	0	CorrectOmission	0.627226	0.733547	1	0	6.575000e+01
136.721573	1.292735	city	10	1	1.187840	1.187840	0	1	0	0	CorrectCommission	0.176202	0.767196	0	0	6.550000e+01
138.014465	1.293066	city	4	1	1.206143	1.206143	0	1	0	0	CorrectCommission	0.265623	0.801475	0	0	6.525000e+01
139.307465	1.292914	city	7	1	0.937807	0.937807	0	1	0	0	CorrectCommission	1.045312	0.834298	0	0	65
140.607025	1.306233	city	4	1	0.818126	0.818126	0	1	0	0	CorrectCommission	1.630002	0.863860	0	0	6.475000e+01
141.899872	1.279450	city	2	1	0.808724	0.808724	0	1	0	0	CorrectCommission	1.675936	0.888715	0	0	6.450000e+01
143.186127	1.293053	city	10	1	0.884006	0.884006	0	1	0	0	CorrectCommission	1.308150	0.907732	0	0	6.425000e+01
144.485779	1.306251	city	7	1	1.126381	1.126381	0	1	0	0	CorrectCommission	0.124050	0.920095	0	0	64
145.785339	1.292877	city	8	1	1.083609	1.083609	0	1	0	0	CorrectCommission	0.333010	0.925277	0	0	6.375000e+01
147.098251	1.332935	city	4	1	0.966519	0.966519	0	1	0	0	CorrectCommission	0.905040	0.923017	0	0	6.350000e+01
148.411194	1.292950	city	9	1	0.819092	0.819092	0	1	0	0	CorrectCommission	1.625283	0.913327	0	0	6.325000e+01
149.710693	1.306045	city	4	1	0.942784	0.942784	0	1	0	0	CorrectCommission	1.020997	0.896542	0	0	63
151.043549	1.359668	city	10	1	0.894161	0.894161	0	1	0	0	CorrectCommission	1.258538	0.873399	0	0	6.275000e+01
152.389740	1.332725	city	9	1	0.879340	0.879340	0	1	0	0	CorrectCommission	1.330948	0.845067	0	0	6.250000e+01
153.702637	1.293072	city	8	1	0.911142	0.911142	0	1	0	0	CorrectCommission	1.175581	0.813140	0	0	6.225000e+01
155.008881	1.319404	city	2	1	1.162214	1.162214	0	1	0	0	CorrectCommission	0.051012	0.779567	0	0	62
156.308456	1.279742	city	4	1	1.236723	1.236723	0	1	0	0	CorrectCommission	0.415017	0.746521	0	0	6.175000e+01
157.634705	1.372769	city	3	1	1.235239	1.235239	0	1	0	0	CorrectCommission	0.407768	0.716172	1	0	6.150000e+01
158.980927	1.319681	city	9	1	0.904842	0.904842	0	1	0	0	CorrectCommission	1.206358	0.690457	1	0	6.125000e+01
162.146545	5.011535	break	0	1	1.019182	1.019182	0	0	0	0	ThoughtProbe	0.647760	0.670845	1	61	61
165.305511	1.306397	city	2	1	1.097121	1.097121	0	1	0	0	CorrectCommission	0.266998	0.658174	1	0	6.050000e+01
166.611816	1.306232	city	3	1	1.205936	1.205936	0	1	0	0	CorrectCommission	0.264611	0.652485	1	0	60
167.918045	1.306227	city	2	1	1.008136	1.008136	0	1	0	0	CorrectCommission	0.701726	0.652992	1	0	5.950000e+01
169.210953	1.279570	mountain	3	0	0.000000	1.115640	1	0	0	0	CorrectOmission	0.176525	0.658126	1	0	59
170.523819	1.346160	city	4	1	1.247065	1.247065	0	1	0	0	CorrectCommission	0.465543	0.665750	1	0	5.850000e+01
171.870041	1.346296	city	2	1	1.121031	1.121031	0	1	0	0	CorrectCommission	0.150188	0.673391	1	0	58
173.182983	1.279600	city	1	1	0.942090	0.942090	0	1	0	0	CorrectCommission	1.024385	0.678657	1	0	5.750000e+01
174.469238	1.292907	city	4	1	0.879471	0.879471	0	1	0	0	CorrectCommission	1.330307	0.679548	1	0	5.700000e+01
175.762146	1.292909	city	2	1	0.767369	0.767369	0	1	0	0	CorrectCommission	1.877972	0.674819	1	0	5.650000e+01
177.068375	1.319544	city	10	1	0.871324	0.871324	0	1	0	0	CorrectCommission	1.370105	0.664158	1	0	56
178.387939	1.319582	city	9	1	1.030503	1.030503	0	1	0	0	CorrectCommission	0.592452	0.648189	1	0	5.550000e+01
179.700836	1.306219	city	1	1	1.158664	1.158664	0	1	0	0	CorrectCommission	0.033665	0.628311	1	0	55
181.033676	1.359444	city	6	1	1.108959	1.108959	0	1	0	0	CorrectCommission	0.209165	0.606381	1	0	5.450000e+01
182.373199	1.319609	city	7	1	1.112723	1.112723	0	1	0	0	CorrectCommission	0.190775	0.584381	1	0	54
183.686157	1.306307	city	4	1	1.230113	1.230113	0	1	0	0	CorrectCommission	0.382724	0.564078	1	0	5.350000e+01
184.985687	1.292744	city	3	1	1.085750	1.085750	0	1	0	0	CorrectCommission	0.322550	0.546763	1	0	53
186.291931	1.319751	city	10	1	0.991192	0.991192	0	1	0	0	CorrectCommission	0.784505	0.533131	1	0	5.250000e+01
187.604919	1.306214	city	1	1	1.048797	1.048797	0	1	0	0	CorrectCommission	0.503080	0.523283	1	0	52
188.911148	1.306260	city	4	1	1.037394	1.037394	0	1	0	0	CorrectCommission	0.558789	0.516871	1	0	5.150000e+01
190.230713	1.332856	city	1	1	1.193035	1.193035	0	1	0	0	CorrectCommission	0.201582	0.513249	1	0	51
191.570282	1.346292	mountain	9	1	1.034604	1.034604	0	0	1	0	CommissionError	0.572417	0.511681	1	0	5.050000e+01
192.883102	1.279362	city	7	1	1.361334	1.361334	0	1	0	0	CorrectCommission	1.023794	0.511543	1	0	50
194.189331	1.333085	city	8	1	1.043929	1.043929	0	1	0	0	CorrectCommission	0.526861	0.512455	1	0	4.950000e+01
195.535645	1.359531	city	1	1	1.033568	1.033568	0	1	0	0	CorrectCommission	0.577480	0.514386	1	0	49
196.861862	1.292924	city	6	1	1.124523	1.124523	0	1	0	0	CorrectCommission	0.133128	0.517609	1	0	4.850000e+01
198.174896	1.333134	city	8	1	0.978512	0.978512	0	1	0	0	CorrectCommission	0.846448	0.522658	1	0	48
199.487808	1.292675	city	3	1	1.133361	1.133361	0	1	0	0	CorrectCommission	0.089951	0.530167	1	0	4.750000e+01
200.793915	1.319562	city	6	1	1.189165	1.189165	0	1	0	0	CorrectCommission	0.182678	0.540794	1	0	47
202.093399	1.279396	city	8	1	0.968338	0.968338	0	1	0	0	CorrectCommission	0.896152	0.554995	1	0	4.650000e+01
203.392883	1.319562	city	5	1	1.062334	1.062334	0	1	0	0	CorrectCommission	0.436946	0.572945	1	0	46
204.699203	1.293100	city	1	1	1.006781	1.006781	0	1	0	0	CorrectCommission	0.708342	0.594433	1	0	4.550000e+01
205.998795	1.306059	city	6	1	1.238621	1.238621	0	1	0	0	CorrectCommission	0.424289	0.618811	1	0	45
207.318268	1.332885	city	8	1	1.007742	1.007742	0	1	0	0	CorrectCommission	0.703648	0.645022	1	0	4.450000e+01
210.677338	5.385268	break	0	0	0.000000	1.014878	0	0	0	0	ThoughtProbe	0.668784	0.671609	1	44	44
214.009628	1.279309	city	1	1	1.088708	1.088708	0	1	0	0	CorrectCommission	0.308098	0.696903	1	0	4.402500e+01
215.302444	1.306319	city	3	1	1.057908	1.057908	0	1	0	0	CorrectCommission	0.458566	0.719236	1	0	4.405000e+01
216.622040	1.332892	city	6	1	1.114881	1.114881	0	1	0	0	CorrectCommission	0.180230	0.737175	1	0	4.407500e+01
217.928284	1.279577	city	2	1	0.749543	0.749543	0	1	0	0	CorrectCommission	1.965059	0.749823	0	0	4.410000e+01
219.221176	1.306215	city	6	1	0.778676	0.778676	0	1	0	0	CorrectCommission	1.822730	0.757020	0	0	4.412500e+01
220.527390	1.306218	city	4	1	0.941180	0.941180	0	1	0	0	CorrectCommission	1.028833	0.759528	0	0	4.415000e+01
221.833603	1.306193	city	10	1	0.937698	0.937698	0	1	0	0	CorrectCommission	1.045844	0.758991	0	0	4.417500e+01
223.153168	1.332959	mountain	7	1	1.168958	1.168958	0	0	1	0	CommissionError	0.083959	0.757750	0	0	4.420000e+01
224.459457	1.279595	city	1	1	1.031322	1.031322	0	1	0	0	CorrectCommission	0.588449	0.758592	0	0	4.422500e+01
225.752335	1.306159	city	7	1	0.992065	0.992065	0	1	0	0	CorrectCommission	0.780238	0.764250	0	0	4.425000e+01
227.051895	1.292967	city	3	1	1.112850	1.112850	0	1	0	0	CorrectCommission	0.190154	0.777067	0	0	4.427500e+01
228.338089	1.279433	mountain	9	0	0.000000	1.198761	1	0	0	0	CorrectOmission	0.229559	0.798634	0	0	4.430000e+01
229.630997	1.306388	city	1	1	1.221504	1.221504	0	1	0	0	CorrectCommission	0.340667	0.829543	0	0	4.432500e+01
230.923904	1.279425	city	6	1	1.152783	1.152783	0	1	0	0	CorrectCommission	0.004937	0.869291	0	0	4.435000e+01
232.203491	1.279733	city	7	1	1.477420	1.477420	0	1	0	0	CorrectCommission	1.590922	0.916379	0	0	4.437500e+01
233.523026	1.359327	city	4	1	1.348627	1.348627	0	1	0	0	CorrectCommission	0.961713	0.968449	0	0	4.440000e+01
234.842529	1.279683	mountain	3	0	0.000000	1.527433	1	0	0	0	CorrectOmission	1.835257	1.022597	0	0	4.442500e+01
236.128845	1.292960	city	9	1	1.595016	1.595016	0	1	0	0	CorrectCommission	2.165424	1.075536	0	0	4.445000e+01
237.448395	1.346140	city	7	1	1.132549	1.132549	0	1	0	0	CorrectCommission	0.093915	1.123905	0	0	4.447500e+01
238.774582	1.306225	city	6	1	1.020708	1.020708	0	1	0	0	CorrectCommission	0.640304	1.164515	0	0	4.450000e+01
240.100815	1.346259	city	8	1	0.903509	0.903509	0	1	0	0	CorrectCommission	1.212871	1.194451	0	0	4.452500e+01
241.433716	1.319534	city	10	1	0.889438	0.889438	0	1	0	0	CorrectCommission	1.281611	1.211342	0	0	4.455000e+01
242.760025	1.333080	city	1	1	0.899344	0.899344	0	1	0	0	CorrectCommission	1.233217	1.213602	0	0	4.457500e+01
244.093002	1.332871	city	5	1	0.591821	0.591821	0	1	0	0	CorrectCommission	2.735594	1.200599	0	0	4.460000e+01
245.419220	1.319587	city	6	1	0.702492	0.702492	0	1	0	0	CorrectCommission	2.194919	1.172785	0	0	4.462500e+01
246.738800	1.319547	city	9	1	0.923861	0.923861	0	1	0	0	CorrectCommission	1.113441	1.131777	0	0	4.465000e+01
248.051697	1.306258	city	10	1	0.981125	0.981125	0	1	0	0	CorrectCommission	0.833685	1.080253	0	0	4.467500e+01
249.344620	1.279578	city	6	1	1.590640	1.590640	0	1	0	0	CorrectCommission	2.144047	1.021674	0	0	4.470000e+01
250.657486	1.346162	city	9	1	1.059921	1.059921	0	1	0	0	CorrectCommission	0.448732	0.959827	0	0	4.472500e+01
251.970398	1.279656	city	2	1	1.127525	1.127525	0	1	0	0	CorrectCommission	0.118461	0.898483	0	0	4.475000e+01
253.263336	1.306227	city	10	1	1.104005	1.104005	0	1	0	0	CorrectCommission	0.233365	0.840828	0	0	4.477500e+01
254.569565	1.306237	city	1	1	1.216760	1.216760	0	1	0	0	CorrectCommission	0.317488	0.789151	0	0	4.480000e+01
255.862473	1.279575	city	8	1	1.217907	1.217907	0	1	0	0	CorrectCommission	0.323093	0.744666	0	0	4.482500e+01
257.162048	1.319581	city	1	1	1.135529	1.135529	0	1	0	0	CorrectCommission	0.079356	0.707535	1	0	4.485000e+01
258.461639	1.279565	city	2	1	1.365216	1.365216	0	1	0	0	CorrectCommission	1.042758	0.677052	1	0	4.487500e+01
259.774506	1.346220	city	3	1	1.556655	1.556655	0	1	0	0	CorrectCommission	1.978014	0.651950	1	0	4.490000e+01
261.120667	1.346109	city	6	1	1.076087	1.076087	0	1	0	0	CorrectCommission	0.369754	0.630716	1	0	4.492500e+01
262.433594	1.279692	city	1	1	0.969359	0.969359	0	1	0	0	CorrectCommission	0.891166	0.612036	1	0	4.495000e+01
263.719879	1.292906	city	9	1	1.035413	1.035413	0	1	0	0	CorrectCommission	0.568464	0.594881	1	0	4.497500e+01
266.972076	5.211460	break	0	1	1.149026	1.149026	0	0	0	0	ThoughtProbe	0.013419	0.578698	1	45	45
270.224335	1.293075	city	6	1	1.194124	1.194124	0	1	0	0	CorrectCommission	0.206905	0.563446	1	0	4.523529e+01
271.510559	1.279400	city	3	1	1.327503	1.327503	0	1	0	0	CorrectCommission	0.858516	0.549446	1	0	4.547059e+01
272.850128	1.399697	city	8	1	1.329280	1.329280	0	1	0	0	CorrectCommission	0.867194	0.537298	1	0	4.570588e+01
274.223053	1.346146	city	6	1	1.192123	1.192123	0	1	0	0	CorrectCommission	0.197128	0.527768	1	0	4.594118e+01
275.542603	1.293001	city	5	1	1.100016	1.100016	0	1	0	0	CorrectCommission	0.252854	0.521682	1	0	4.617647e+01
276.855530	1.332862	city	6	1	1.273917	1.273917	0	1	0	0	CorrectCommission	0.596725	0.519800	1	0	4.641176e+01
278.161652	1.279360	city	7	1	1.368468	1.368468	0	1	0	0	CorrectCommission	1.058645	0.522763	1	0	4.664706e+01
279.461151	1.319635	city	6	1	1.164117	1.164117	0	1	0	0	CorrectCommission	0.060306	0.531045	1	0	4.688235e+01
280.760834	1.279748	mountain	9	0	0.000000	1.111853	1	0	0	0	CorrectOmission	0.195024	0.544933	1	0	4.711765e+01
282.047089	1.292740	city	10	1	1.178079	1.178079	0	1	0	0	CorrectCommission	0.128518	0.564378	1	0	4.735294e+01
283.353241	1.319565	city	4	1	1.329198	1.329198	0	1	0	0	CorrectCommission	0.866796	0.589091	1	0	4.758824e+01
284.686127	1.346226	city	3	1	1.089993	1.089993	0	1	0	0	CorrectCommission	0.301821	0.618412	1	0	4.782353e+01
286.005768	1.293073	city	7	1	0.966617	0.966617	0	1	0	0	CorrectCommission	0.904560	0.651387	1	0	4.805882e+01
287.332092	1.359550	city	8	1	0.964379	0.964379	0	1	0	0	CorrectCommission	0.915495	0.686725	1	0	4.829412e+01
288.651581	1.279419	city	3	1	0.939829	0.939829	0	1	0	0	CorrectCommission	1.035430	0.722869	1	0	4.852941e+01
289.944489	1.306429	city	7	1	1.152100	1.152100	0	1	0	0	CorrectCommission	0.001599	0.758047	0	0	4.876471e+01
291.250824	1.306224	city	3	1	1.010956	1.010956	0	1	0	0	CorrectCommission	0.687945	0.790379	0	0	49
292.557068	1.306227	city	6	1	1.047824	1.047824	0	1	0	0	CorrectCommission	0.507831	0.817953	0	0	4.923529e+01
293.869904	1.319478	city	1	1	0.947631	0.947631	0	1	0	0	CorrectCommission	0.997316	0.839083	0	0	4.947059e+01
295.176147	1.293008	city	5	1	0.805152	0.805152	0	1	0	0	CorrectCommission	1.693384	0.852422	0	0	4.970588e+01
296.482422	1.319534	city	1	1	0.880304	0.880304	0	1	0	0	CorrectCommission	1.326235	0.857114	0	0	4.994118e+01
297.788666	1.292940	city	4	1	1.487196	1.487196	0	1	0	0	CorrectCommission	1.638680	0.852941	0	0	5.017647e+01
299.101562	1.332859	mountain	4	0	0.000000	1.419541	1	0	0	0	CorrectOmission	1.308158	0.840271	0	0	5.041176e+01
300.434418	1.332863	city	10	1	1.180678	1.180678	0	1	0	0	CorrectCommission	0.141212	0.820001	0	0	5.064706e+01
301.747253	1.292790	city	9	1	1.273944	1.273944	0	1	0	0	CorrectCommission	0.596855	0.793434	0	0	5.088235e+01
303.073425	1.359562	city	3	1	1.194424	1.194424	0	1	0	0	CorrectCommission	0.208368	0.762085	0	0	5.111765e+01
304.406403	1.306384	city	10	1	1.073659	1.073659	0	1	0	0	CorrectCommission	0.381619	0.727579	1	0	5.135294e+01
305.699310	1.279437	city	3	1	1.380257	1.380257	0	1	0	0	CorrectCommission	1.116238	0.691540	1	0	5.158824e+01
307.025482	1.372902	city	10	1	1.227442	1.227442	0	1	0	0	CorrectCommission	0.369673	0.655538	1	0	5.182353e+01
308.391693	1.359557	city	6	1	1.638688	1.638688	0	1	0	0	CorrectCommission	2.378779	0.621153	1	0	5.205882e+01
309.724640	1.306292	city	9	1	1.103906	1.103906	0	1	0	0	CorrectCommission	0.233849	0.589815	1	0	5.229412e+01
311.044189	1.332801	city	6	1	1.165138	1.165138	0	1	0	0	CorrectCommission	0.065295	0.562915	1	0	5.252941e+01
312.363770	1.306373	city	4	1	1.127536	1.127536	0	1	0	0	CorrectCommission	0.118408	0.541554	1	0	5.276471e+01
316.369110	6.704326	break	0	0	0.000000	1.096657	0	0	0	0	ThoughtProbe	0.269262	0.526491	1	53	53
320.414459	1.386390	city	8	1	1.100957	1.100957	0	1	0	0	CorrectCommission	0.248257	0.518009	1	0	5.280435e+01
321.760712	1.306071	city	4	1	1.168889	1.168889	0	1	0	0	CorrectCommission	0.083618	0.515933	1	0	5.260870e+01
323.066895	1.306319	city	6	1	1.103380	1.103380	0	1	0	0	CorrectCommission	0.236417	0.519702	1	0	5.241304e+01
324.379883	1.319630	city	4	1	1.047474	1.047474	0	1	0	0	CorrectCommission	0.509544	0.528551	1	0	5.221739e+01
325.706116	1.332882	city	9	1	0.918760	0.918760	0	1	0	0	CorrectCommission	1.138361	0.541777	1	0	5.202174e+01
327.019012	1.292890	city	10	1	1.068125	1.068125	0	1	0	0	CorrectCommission	0.408653	0.558989	1	0	5.182609e+01
328.311890	1.292873	city	6	1	1.350968	1.350968	0	1	0	0	CorrectCommission	0.973149	0.580370	1	0	5.163043e+01
329.618134	1.319636	mountain	5	0	0.000000	1.357644	1	0	0	0	CorrectOmission	1.005763	0.606671	1	0	5.143478e+01
330.930969	1.306010	city	8	1	1.262969	1.262969	0	1	0	0	CorrectCommission	0.543238	0.639202	1	0	5.123913e+01
332.257111	1.346287	city	1	1	1.241759	1.241759	0	1	0	0	CorrectCommission	0.439620	0.679530	1	0	5.104348e+01
333.603363	1.346221	city	5	1	1.010861	1.010861	0	1	0	0	CorrectCommission	0.688411	0.729027	1	0	5.084783e+01
334.929688	1.306403	city	6	1	1.082912	1.082912	0	1	0	0	CorrectCommission	0.336412	0.788431	0	0	5.065217e+01
336.242584	1.319399	city	3	1	1.127230	1.127230	0	1	0	0	CorrectCommission	0.119902	0.857396	0	0	5.045652e+01
337.555389	1.306237	city	1	1	1.128542	1.128542	0	1	0	0	CorrectCommission	0.113492	0.934187	0	0	5.026087e+01
338.848328	1.279580	city	3	1	1.299401	1.299401	0	1	0	0	CorrectCommission	0.721226	1.015624	0	0	5.006522e+01
340.134552	1.292908	mountain	9	0	0.000000	1.116751	1	0	0	0	CorrectOmission	0.171094	1.097263	0	0	4.986957e+01
341.440887	1.319762	city	5	1	0.832474	0.832474	0	1	0	0	CorrectCommission	1.559905	1.173970	0	0	4.967391e+01
342.747223	1.292903	city	6	1	0.698451	0.698451	0	1	0	0	CorrectCommission	2.214664	1.240510	0	0	4.947826e+01
344.080017	1.372692	city	3	1	0.556692	0.556692	0	1	0	0	CorrectCommission	2.907213	1.292401	0	0	4.928261e+01
345.426239	1.319734	city	6	1	0.743016	0.743016	0	1	0	0	CorrectCommission	1.996942	1.326578	0	0	4.908696e+01
346.739197	1.306169	mountain	1	1	0.711493	0.711493	0	0	1	0	CommissionError	2.150946	1.341911	0	0	4.889130e+01
348.038696	1.292831	city	8	1	0.681701	0.681701	0	1	0	0	CorrectCommission	2.296495	1.339302	0	0	4.869565e+01
349.344940	1.319664	city	6	1	0.966610	0.966610	0	1	0	0	CorrectCommission	0.904598	1.321573	0	0	4.850000e+01
350.644562	1.279620	city	9	1	1.420557	1.420557	0	1	0	0	CorrectCommission	1.313122	1.293025	0	0	4.830435e+01
351.930847	1.292896	city	5	1	1.220767	1.220767	0	1	0	0	CorrectCommission	0.337063	1.258711	0	0	4.810870e+01
353.217072	1.279596	city	1	1	1.325362	1.325362	0	1	0	0	CorrectCommission	0.848057	1.223761	0	0	4.791304e+01
354.523254	1.332729	city	2	1	1.228018	1.228018	0	1	0	0	CorrectCommission	0.372492	1.192621	0	0	4.771739e+01
355.856049	1.332902	mountain	4	0	0.000000	1.464620	1	0	0	0	CorrectOmission	1.528390	1.168562	0	0	4.752174e+01
357.169037	1.293065	city	5	1	1.578776	1.578776	0	1	0	0	CorrectCommission	2.086085	1.153233	0	0	4.732609e+01
358.515381	1.399645	city	8	1	1.114092	1.114092	0	1	0	0	CorrectCommission	0.184085	1.146594	0	0	4.713043e+01
359.868256	1.306059	city	9	1	1.136652	1.136652	0	1	0	0	CorrectCommission	0.073871	1.147036	0	0	4.693478e+01
361.167694	1.292819	city	6	1	1.318820	1.318820	0	1	0	0	CorrectCommission	0.816097	1.151583	0	0	4.673913e+01
362.473969	1.319728	city	5	1	1.416864	1.416864	0	1	0	0	CorrectCommission	1.295081	1.156371	0	0	4.654348e+01
363.806885	1.346140	city	3	1	1.539797	1.539797	0	1	0	0	CorrectCommission	1.895657	1.157235	0	0	4.634783e+01
365.146423	1.332899	city	8	1	1.482989	1.482989	0	1	0	0	CorrectCommission	1.618129	1.150265	0	0	4.615217e+01
366.479279	1.332817	city	2	1	1.435663	1.435663	0	1	0	0	CorrectCommission	1.386920	1.132374	0	0	4.595652e+01
367.838867	1.386379	city	8	1	1.596248	1.596248	0	1	0	0	CorrectCommission	2.171446	1.101697	0	0	4.576087e+01
369.191864	1.319589	city	3	1	1.409498	1.409498	0	1	0	0	CorrectCommission	1.259095	1.057819	0	0	4.556522e+01
370.518036	1.332752	city	6	1	1.383225	1.383225	0	1	0	0	CorrectCommission	1.130739	1.001860	0	0	4.536957e+01
371.844269	1.319715	city	4	1	1.489885	1.489885	0	1	0	0	CorrectCommission	1.651816	0.936244	0	0	4.517391e+01
373.197205	1.386163	city	10	1	1.241753	1.241753	0	1	0	0	CorrectCommission	0.439589	0.864372	0	0	4.497826e+01
374.570068	1.359559	city	3	1	1.058907	1.058907	0	1	0	0	CorrectCommission	0.453687	0.790247	0	0	4.478261e+01
375.922943	1.346229	city	2	1	1.079470	1.079470	0	1	0	0	CorrectCommission	0.353230	0.717946	1	0	4.458696e+01
377.269165	1.346215	city	1	1	1.102772	1.102772	0	1	0	0	CorrectCommission	0.239391	0.651230	1	0	4.439130e+01
378.662018	1.439465	city	7	1	1.207961	1.207961	0	1	0	0	CorrectCommission	0.274505	0.593278	1	0	4.419565e+01
382.027557	5.291643	break	0	0	0.000000	1.250614	0	0	0	0	ThoughtProbe	0.482878	0.546455	1	44	44
385.353180	1.359570	city	2	1	1.230408	1.230408	0	1	0	0	CorrectCommission	0.384166	0.512266	1	0	4.430435e+01
386.726044	1.386182	city	3	1	1.147025	1.147025	0	1	0	0	CorrectCommission	0.023197	0.491390	1	0	4.460870e+01
388.098938	1.359602	city	8	1	1.027619	1.027619	0	1	0	0	CorrectCommission	0.606541	0.483807	1	0	4.491304e+01
389.438507	1.319538	mountain	6	0	0.000000	1.065308	1	0	0	0	CorrectOmission	0.422415	0.488897	1	0	4.521739e+01
390.758057	1.319566	city	8	1	1.124658	1.124658	0	1	0	0	CorrectCommission	0.132467	0.505595	1	0	4.552174e+01
392.110962	1.386236	city	3	1	1.070236	1.070236	0	1	0	0	CorrectCommission	0.398341	0.532513	1	0	4.582609e+01
393.457123	1.306086	mountain	1	1	0.977132	0.977132	0	0	1	0	CommissionError	0.853191	0.567946	1	0	4.613043e+01
394.796600	1.372845	city	4	1	1.253656	1.253656	0	1	0	0	CorrectCommission	0.497740	0.609938	1	0	4.643478e+01
396.149536	1.333062	city	3	1	1.116149	1.116149	0	1	0	0	CorrectCommission	0.174035	0.656337	1	0	4.673913e+01
397.475861	1.319575	city	5	1	1.260706	1.260706	0	1	0	0	CorrectCommission	0.532183	0.704827	1	0	4.704348e+01
398.808746	1.346215	city	2	1	1.199041	1.199041	0	1	0	0	CorrectCommission	0.230925	0.753069	0	0	4.734783e+01
400.134888	1.306069	city	7	1	1.450490	1.450490	0	1	0	0	CorrectCommission	1.459356	0.798861	0	0	4.765217e+01
401.441132	1.306405	city	5	1	1.394293	1.394293	0	1	0	0	CorrectCommission	1.184810	0.840263	0	0	4.795652e+01
402.760773	1.332844	city	1	1	1.483644	1.483644	0	1	0	0	CorrectCommission	1.621326	0.875861	0	0	4.826087e+01
404.080322	1.306290	city	2	1	1.375613	1.375613	0	1	0	0	CorrectCommission	1.093550	0.904834	0	0	4.856522e+01
405.406494	1.346060	city	5	1	1.320284	1.320284	0	1	0	0	CorrectCommission	0.823246	0.927022	0	0	4.886957e+01
406.752716	1.346372	city	1	1	1.236616	1.236616	0	1	0	0	CorrectCommission	0.414494	0.942888	0	0	4.917391e+01
408.072388	1.292942	mountain	8	0	0.000000	1.415376	1	0	0	0	CorrectOmission	1.287810	0.953356	0	0	4.947826e+01
409.365295	1.292906	city	7	1	1.545028	1.545028	0	1	0	0	CorrectCommission	1.921211	0.959539	0	0	4.978261e+01
410.684845	1.346207	city	3	1	1.314035	1.314035	0	1	0	0	CorrectCommission	0.792716	0.962509	0	0	5.008696e+01
412.044312	1.372715	city	2	1	1.250093	1.250093	0	1	0	0	CorrectCommission	0.480333	0.963062	0	0	5.039130e+01
413.390564	1.319744	city	6	1	1.108682	1.108682	0	1	0	0	CorrectCommission	0.210517	0.961469	0	0	5.069565e+01
414.696838	1.292848	city	3	1	1.031160	1.031160	0	1	0	0	CorrectCommission	0.589243	0.957436	0	0	51
415.983002	1.279456	city	6	1	1.418826	1.418826	0	1	0	0	CorrectCommission	1.304666	0.950115	0	0	5.130435e+01
417.275970	1.306460	mountain	5	0	0.000000	1.416188	1	0	0	0	CorrectOmission	1.291777	0.938299	0	0	5.160870e+01
418.588959	1.319533	city	1	1	1.324863	1.324863	0	1	0	0	CorrectCommission	0.845617	0.920749	0	0	5.191304e+01
419.901825	1.306232	city	5	1	1.446470	1.446470	0	1	0	0	CorrectCommission	1.439715	0.896523	0	0	5.221739e+01
421.227966	1.346037	city	6	1	1.495253	1.495253	0	1	0	0	CorrectCommission	1.678044	0.865239	0	0	5.252174e+01
422.574127	1.346301	city	1	1	1.276499	1.276499	0	1	0	0	CorrectCommission	0.609340	0.827314	0	0	5.282609e+01
423.900421	1.306234	city	10	1	1.447035	1.447035	0	1	0	0	CorrectCommission	1.442475	0.784059	0	0	5.313043e+01
425.226624	1.346208	city	9	1	1.295979	1.295979	0	1	0	0	CorrectCommission	0.704507	0.737579	1	0	5.343478e+01
426.572815	1.346166	city	10	1	1.220806	1.220806	0	1	0	0	CorrectCommission	0.337258	0.690552	1	0	5.373913e+01
427.925751	1.359738	city	2	1	1.061563	1.061563	0	1	0	0	CorrectCommission	0.440712	0.645897	1	0	5.404348e+01
429.305389	1.399537	city	3	1	1.200387	1.200387	0	1	0	0	CorrectCommission	0.237502	0.606435	1	0	5.434783e+01
430.678284	1.346222	city	9	1	1.157158	1.157158	0	1	0	0	CorrectCommission	0.026310	0.574599	1	0	5.465217e+01
432.011169	1.319568	city	4	1	1.084744	1.084744	0	1	0	0	CorrectCommission	0.327463	0.552181	1	0	5.495652e+01
433.317352	1.292777	city	5	1	1.003643	1.003643	0	1	0	0	CorrectCommission	0.723675	0.540204	1	0	5.526087e+01
434.636902	1.346343	city	4	1	1.103910	1.103910	0	1	0	0	CorrectCommission	0.233830	0.538909	1	0	5.556522e+01
435.963104	1.306068	city	3	1	1.141387	1.141387	0	1	0	0	CorrectCommission	0.050740	0.547844	1	0	5.586957e+01
437.276001	1.319728	city	4	1	1.270766	1.270766	0	1	0	0	CorrectCommission	0.581332	0.565950	1	0	5.617391e+01
438.588989	1.306207	city	3	1	1.240859	1.240859	0	1	0	0	CorrectCommission	0.435224	0.591702	1	0	5.647826e+01
439.888458	1.292772	city	1	1	1.502573	1.502573	0	1	0	0	CorrectCommission	1.713803	0.623314	1	0	5.678261e+01
441.234619	1.399545	city	9	1	1.217265	1.217265	0	1	0	0	CorrectCommission	0.319957	0.658795	1	0	5.708696e+01
442.587616	1.306396	city	6	1	1.137311	1.137311	0	1	0	0	CorrectCommission	0.070653	0.696134	1	0	5.739130e+01
443.907166	1.332732	city	4	1	1.289770	1.289770	0	1	0	0	CorrectCommission	0.674173	0.733293	1	0	5.769565e+01
447.199432	5.251784	break	0	0	0.000000	1.363971	0	0	0	0	ThoughtProbe	1.036676	0.768310	0	58	58
450.491669	1.332715	city	1	1	1.304123	1.304123	0	1	0	0	CorrectCommission	0.744293	0.799441	0	0	5.791304e+01
451.804565	1.293091	city	8	1	1.054435	1.054435	0	1	0	0	CorrectCommission	0.475536	0.825321	0	0	5.782609e+01
453.124207	1.346200	city	5	1	1.115698	1.115698	0	1	0	0	CorrectCommission	0.176241	0.845060	0	0	5.773913e+01
454.443787	1.292912	city	6	1	1.752305	1.752305	0	1	0	0	CorrectCommission	2.933848	0.858397	0	0	5.765217e+01
455.770020	1.359571	city	2	1	1.578965	1.578965	0	1	0	0	CorrectCommission	2.087010	0.865690	0	0	5.756522e+01
457.116241	1.332874	city	1	1	1.116601	1.116601	0	1	0	0	CorrectCommission	0.171830	0.867957	0	0	5.747826e+01
458.429138	1.292935	city	6	1	1.330017	1.330017	0	1	0	0	CorrectCommission	0.870796	0.866692	0	0	5.739130e+01
459.768707	1.386204	city	10	1	1.263629	1.263629	0	1	0	0	CorrectCommission	0.546464	0.863507	0	0	5.730435e+01
461.128174	1.332717	city	5	1	1.206759	1.206759	0	1	0	0	CorrectCommission	0.268630	0.859984	0	0	5.721739e+01
462.467712	1.346378	mountain	7	1	1.182613	1.182613	0	0	1	0	CommissionError	0.150667	0.857368	0	0	5.713043e+01
463.800629	1.319429	city	2	1	1.275830	1.275830	0	1	0	0	CorrectCommission	0.606069	0.856484	0	0	5.704348e+01
465.126862	1.333051	city	1	1	1.372306	1.372306	0	1	0	0	CorrectCommission	1.077394	0.857748	0	0	5.695652e+01
466.466431	1.346054	city	3	1	1.385117	1.385117	0	1	0	0	CorrectCommission	1.139981	0.861308	0	0	5.686957e+01
467.799316	1.319742	city	4	1	1.359502	1.359502	0	1	0	0	CorrectCommission	1.014845	0.867271	0	0	5.678261e+01
469.132233	1.346056	mountain	3	0	0.000000	1.405068	1	0	0	0	CorrectOmission	1.237453	0.875883	0	0	5.669565e+01
470.458374	1.306232	city	5	1	1.446711	1.446711	0	1	0	0	CorrectCommission	1.440893	0.887573	0	0	5.660870e+01
471.777924	1.332887	city	6	1	1.409325	1.409325	0	1	0	0	CorrectCommission	1.258249	0.902973	0	0	5.652174e+01
473.117462	1.346220	city	1	1	1.247509	1.247509	0	1	0	0	CorrectCommission	0.467713	0.922694	0	0	5.643478e+01
474.443726	1.306275	mountain	5	0	0.000000	1.195934	1	0	0	0	CorrectOmission	0.215745	0.947084	0	0	5.634783e+01
475.769958	1.346192	city	9	1	1.227700	1.227700	0	1	0	0	CorrectCommission	0.370937	0.975919	0	0	5.626087e+01
477.096161	1.306234	city	3	1	1.315910	1.315910	0	1	0	0	CorrectCommission	0.801880	1.008190	0	0	5.617391e+01
478.422485	1.346395	city	9	1	1.202946	1.202946	0	1	0	0	CorrectCommission	0.250002	1.042026	0	0	5.608696e+01
479.742126	1.292893	city	1	1	1.351671	1.351671	0	1	0	0	CorrectCommission	0.976584	1.074895	0	0	56
481.054932	1.332747	city	2	1	1.429423	1.429423	0	1	0	0	CorrectCommission	1.356434	1.103882	0	0	5.591304e+01
482.381195	1.319722	city	4	1	1.521681	1.521681	0	1	0	0	CorrectCommission	1.807156	1.126177	0	0	5.582609e+01
483.720734	1.359385	city	6	1	1.701001	1.701001	0	1	0	0	CorrectCommission	2.683206	1.139484	0	0	5.573913e+01
485.073608	1.346391	city	10	1	1.394340	1.394340	0	1	0	0	CorrectCommission	1.185042	1.142414	0	0	5.565217e+01
486.413208	1.332803	city	7	1	1.749804	1.749804	0	1	0	0	CorrectCommission	2.921629	1.134733	0	0	5.556522e+01
487.752716	1.346175	city	6	1	1.281317	1.281317	0	1	0	0	CorrectCommission	0.632877	1.117139	0	0	5.547826e+01
489.085632	1.319698	city	10	1	1.156324	1.156324	0	1	0	0	CorrectCommission	0.022237	1.091165	0	0	5.539130e+01
490.398621	1.306243	city	3	1	1.113547	1.113547	0	1	0	0	CorrectCommission	0.186750	1.058689	0	0	5.530435e+01
491.751434	1.399419	city	5	1	1.271009	1.271009	0	1	0	0	CorrectCommission	0.582517	1.021548	0	0	5.521739e+01
493.117676	1.333037	mountain	8	0	0.000000	1.449643	1	0	0	0	CorrectOmission	1.455217	0.981183	0	0	5.513043e+01
494.437317	1.306244	city	5	1	1.495632	1.495632	0	1	0	0	CorrectCommission	1.679892	0.938457	0	0	5.504348e+01
495.750183	1.319477	city	1	1	1.255159	1.255159	0	1	0	0	CorrectCommission	0.505084	0.893622	0	0	5.495652e+01
497.069763	1.319693	city	9	1	0.933496	0.933496	0	1	0	0	CorrectCommission	1.066370	0.846409	0	0	5.486957e+01
498.409271	1.359316	city	1	1	0.891563	0.891563	0	1	0	0	CorrectCommission	1.271229	0.796155	0	0	5.478261e+01
499.788696	1.399543	city	5	1	1.106311	1.106311	0	1	0	0	CorrectCommission	0.222099	0.742065	0	0	5.469565e+01
501.161652	1.346363	city	7	1	1.013904	1.013904	0	1	0	0	CorrectCommission	0.673546	0.683401	1	0	5.460870e+01
502.494568	1.319465	city	8	1	0.877876	0.877876	0	1	0	0	CorrectCommission	1.338097	0.619624	1	0	5.452174e+01
503.827393	1.346186	city	10	1	1.084975	1.084975	0	1	0	0	CorrectCommission	0.326333	0.550520	1	0	5.443478e+01
505.160309	1.319641	city	8	1	1.020549	1.020549	0	1	0	0	CorrectCommission	0.641082	0.476275	1	0	5.434783e+01
506.499908	1.359567	city	5	1	1.021304	1.021304	0	1	0	0	CorrectCommission	0.637393	0.397416	1	0	5.426087e+01
507.839417	1.319477	city	10	1	1.103044	1.103044	0	1	0	0	CorrectCommission	0.238061	0.314811	1	0	5.417391e+01
509.179016	1.359720	city	9	1	1.142038	1.142038	0	1	0	0	CorrectCommission	0.047559	0.229553	1	0	5.408696e+01
512.144897	4.571991	break	0	0	0.000000	1.181032	0	0	0	0	ThoughtProbe	0.142943	0.142943	1	54	54
