onset	duration	trial_type	image_type	Press	ReactionTime	ReactionTime_Interpolated	CorrectOmission	CorrectCommission	CommissionError	OmissionError	response_type	nonsmoothVarianceTimeCourse	VarianceTimeCourse	In_the_Zone	ThoughtProbe	ThoughtProbe_Interpolated
0.661275	1.289584	city	4	1	1.294487	1.294487	0	1	0	0	CorrectCommission	0.145277	0.145277	1	0	60
1.945871	1.279609	city	7	1	1.128163	1.128163	0	1	0	0	CorrectCommission	0.745505	0.243279	1	0	60
3.225462	1.279573	city	4	1	1.071157	1.071157	0	1	0	0	CorrectCommission	0.951226	0.336783	1	0	60
4.511704	1.292911	city	2	1	0.910466	0.910466	0	1	0	0	CorrectCommission	1.531126	0.421774	1	0	60
5.797855	1.279391	city	1	1	1.100846	1.100846	0	1	0	0	CorrectCommission	0.844085	0.495080	1	0	60
7.077431	1.279760	city	2	1	1.021509	1.021509	0	1	0	0	CorrectCommission	1.130396	0.554644	1	0	60
8.357072	1.279523	city	6	1	1.258475	1.258475	0	1	0	0	CorrectCommission	0.275235	0.599528	1	0	60
9.636563	1.279459	city	5	1	1.207958	1.207958	0	1	0	0	CorrectCommission	0.457541	0.629861	1	0	60
10.916162	1.279740	city	1	1	1.074377	1.074377	0	1	0	0	CorrectCommission	0.939605	0.646573	1	0	60
12.202413	1.292760	city	5	1	1.181044	1.181044	0	1	0	0	CorrectCommission	0.554668	0.651169	1	0	60
13.488588	1.279593	city	3	1	1.070339	1.070339	0	1	0	0	CorrectCommission	0.954177	0.645488	1	0	60
14.768255	1.279741	city	5	1	1.178167	1.178167	0	1	0	0	CorrectCommission	0.565051	0.631488	1	0	60
16.047842	1.279432	city	8	1	1.124105	1.124105	0	1	0	0	CorrectCommission	0.760150	0.611175	1	0	60
17.327332	1.279548	city	4	1	1.074394	1.074394	0	1	0	0	CorrectCommission	0.939545	0.586519	1	0	60
18.606937	1.279661	mountain	4	0	0.000000	1.247478	1	0	0	0	CorrectOmission	0.314921	0.559494	1	0	60
19.886513	1.279489	city	8	1	1.451291	1.451291	0	1	0	0	CorrectCommission	0.420596	0.532076	1	0	60
21.166136	1.279759	mountain	6	0	0.000000	1.493765	1	0	0	0	CorrectOmission	0.573877	0.506220	1	0	60
22.445747	1.279464	city	9	1	1.471607	1.471607	0	1	0	0	CorrectCommission	0.493911	0.483879	1	0	60
23.725239	1.279517	mountain	1	0	0.000000	1.481520	1	0	0	0	CorrectOmission	0.529686	0.466892	1	0	60
25.004864	1.279732	city	9	1	1.459334	1.459334	0	1	0	0	CorrectCommission	0.449622	0.456862	1	0	60
26.284521	1.279585	city	4	1	1.340878	1.340878	0	1	0	0	CorrectCommission	0.022139	0.454998	1	0	60
27.564114	1.279601	city	2	1	1.287396	1.287396	0	1	0	0	CorrectCommission	0.170867	0.461950	1	0	60
28.843689	1.279547	city	6	1	1.289221	1.289221	0	1	0	0	CorrectCommission	0.164281	0.477672	1	0	60
30.123171	1.279417	city	7	1	1.340974	1.340974	0	1	0	0	CorrectCommission	0.022488	0.501413	1	0	60
31.402763	1.279770	city	2	1	1.239123	1.239123	0	1	0	0	CorrectCommission	0.345073	0.531725	1	0	60
32.682434	1.279574	mountain	3	0	0.000000	1.397934	1	0	0	0	CorrectOmission	0.228044	0.566625	1	0	60
33.962021	1.279598	city	1	1	1.604723	1.604723	0	1	0	0	CorrectCommission	0.974299	0.603882	1	0	60
35.241570	1.279499	city	4	1	1.646801	1.646801	0	1	0	0	CorrectCommission	1.126152	0.641221	1	0	60
36.534386	1.306129	city	7	1	1.687911	1.687911	0	1	0	0	CorrectCommission	1.274506	0.676658	1	0	60
37.840656	1.306412	city	10	1	1.578057	1.578057	0	1	0	0	CorrectCommission	0.878067	0.708709	1	0	60
39.133648	1.279568	city	5	1	1.507477	1.507477	0	1	0	0	CorrectCommission	0.623361	0.736523	1	0	60
40.446491	1.346125	city	3	1	1.494210	1.494210	0	1	0	0	CorrectCommission	0.575482	0.759921	1	0	60
41.765984	1.292855	city	2	1	1.473529	1.473529	0	1	0	0	CorrectCommission	0.500849	0.779279	1	0	60
43.052269	1.279716	city	9	1	1.750460	1.750460	0	1	0	0	CorrectCommission	1.500233	0.795412	0	0	60
44.345177	1.306101	city	4	1	1.547039	1.547039	0	1	0	0	CorrectCommission	0.766131	0.809326	0	0	60
45.651428	1.306397	city	2	1	1.364485	1.364485	0	1	0	0	CorrectCommission	0.107333	0.822043	0	0	60
46.951069	1.292888	city	5	1	1.646196	1.646196	0	1	0	0	CorrectCommission	1.123965	0.834358	0	0	60
48.257248	1.319470	city	6	1	1.677322	1.677322	0	1	0	0	CorrectCommission	1.236292	0.846644	0	0	60
49.570076	1.306183	city	7	1	1.522477	1.522477	0	1	0	0	CorrectCommission	0.677490	0.858759	0	0	60
50.869621	1.292909	city	8	1	1.594476	1.594476	0	1	0	0	CorrectCommission	0.937321	0.870013	0	0	60
52.169281	1.306413	city	9	0	0.000000	1.412489	0	0	0	1	OmissionError	0.280567	0.879179	0	0	60
53.462132	1.279286	city	10	1	1.362009	1.362009	0	1	0	0	CorrectCommission	0.098398	0.884665	0	0	60
54.775028	1.346506	city	3	1	1.828533	1.828533	0	1	0	0	CorrectCommission	1.781983	0.884734	0	0	60
56.121380	1.346202	city	5	0	0.000000	1.544814	0	0	0	1	OmissionError	0.758102	0.877743	0	0	60
57.447559	1.306158	city	2	1	0.993964	0.993964	0	1	0	0	CorrectCommission	1.229798	0.862528	0	0	60
58.100639	10.556521	break	0	1	0.659095	0.659095	0	0	0	0	ThoughtProbe	2.438270	0.838563	0	60	60
69.296997	1.279666	city	8	1	1.728597	1.728597	0	1	0	0	CorrectCommission	1.421335	0.806089	0	0	5.950000e+01
70.583290	1.292933	city	3	1	1.375234	1.375234	0	1	0	0	CorrectCommission	0.146123	0.766183	1	0	59
71.882874	1.306229	mountain	2	0	0.000000	1.224965	1	0	0	0	CorrectOmission	0.396166	0.720578	1	0	5.850000e+01
73.202347	1.332714	city	8	1	1.286261	1.286261	0	1	0	0	CorrectCommission	0.174961	0.671409	1	0	58
74.508514	1.279619	city	1	1	1.567594	1.567594	0	1	0	0	CorrectCommission	0.840309	0.620974	1	0	5.750000e+01
75.794846	1.293053	city	7	1	1.356346	1.356346	0	1	0	0	CorrectCommission	0.077960	0.571449	1	0	57
77.081070	1.279391	city	4	1	1.471245	1.471245	0	1	0	0	CorrectCommission	0.492605	0.524732	1	0	5.650000e+01
78.360657	1.279777	city	10	1	1.524182	1.524182	0	1	0	0	CorrectCommission	0.683643	0.482274	1	0	56
79.640320	1.279546	city	4	1	1.527668	1.527668	0	1	0	0	CorrectCommission	0.696225	0.445059	1	0	5.550000e+01
80.933136	1.306093	city	3	1	1.327359	1.327359	0	1	0	0	CorrectCommission	0.026649	0.413595	1	0	55
82.239372	1.306380	city	9	1	1.471153	1.471153	0	1	0	0	CorrectCommission	0.492272	0.387984	1	0	5.450000e+01
83.539024	1.292922	city	4	1	1.373843	1.373843	0	1	0	0	CorrectCommission	0.141102	0.367957	1	0	54
84.825279	1.279587	city	3	1	1.346836	1.346836	0	1	0	0	CorrectCommission	0.043639	0.352939	1	0	5.350000e+01
86.104774	1.279409	city	5	1	1.422874	1.422874	0	1	0	0	CorrectCommission	0.318045	0.342123	1	0	53
87.397591	1.306221	mountain	9	0	0.000000	1.326946	1	0	0	0	CorrectOmission	0.028137	0.334562	1	0	5.250000e+01
88.703903	1.306402	city	6	1	1.206038	1.206038	0	1	0	0	CorrectCommission	0.464469	0.329257	1	0	52
89.996895	1.279581	city	10	1	1.207135	1.207135	0	1	0	0	CorrectCommission	0.460511	0.325257	1	0	5.150000e+01
91.296486	1.319605	city	2	1	1.172516	1.172516	0	1	0	0	CorrectCommission	0.585443	0.321768	1	0	51
92.595978	1.279373	city	7	1	1.143812	1.143812	0	1	0	0	CorrectCommission	0.689029	0.318193	1	0	5.050000e+01
93.875549	1.279767	city	3	1	1.356120	1.356120	0	1	0	0	CorrectCommission	0.077143	0.314236	1	0	50
95.155136	1.279416	city	5	1	1.315568	1.315568	0	1	0	0	CorrectCommission	0.069199	0.309911	1	0	4.950000e+01
96.441368	1.293047	city	9	1	1.407239	1.407239	0	1	0	0	CorrectCommission	0.261623	0.305474	1	0	49
97.740929	1.306074	city	2	1	1.230398	1.230398	0	1	0	0	CorrectCommission	0.376559	0.301439	1	0	4.850000e+01
99.033768	1.279605	city	4	1	1.468337	1.468337	0	1	0	0	CorrectCommission	0.482112	0.298505	1	0	48
100.313431	1.279715	city	7	1	1.381173	1.381173	0	1	0	0	CorrectCommission	0.167555	0.297442	1	0	4.750000e+01
101.646393	1.386212	city	3	1	1.299353	1.299353	0	1	0	0	CorrectCommission	0.127715	0.299053	1	0	47
102.979286	1.279575	city	9	1	1.197377	1.197377	0	1	0	0	CorrectCommission	0.495724	0.304063	1	0	4.650000e+01
104.258865	1.279581	mountain	5	0	0.000000	1.293691	1	0	0	0	CorrectOmission	0.148149	0.313078	1	0	46
105.538376	1.279444	city	1	1	1.405104	1.405104	0	1	0	0	CorrectCommission	0.253916	0.326521	1	0	4.550000e+01
106.817886	1.279568	city	9	1	1.348425	1.348425	0	1	0	0	CorrectCommission	0.049374	0.344558	1	0	45
108.097527	1.279721	city	3	1	1.290998	1.290998	0	1	0	0	CorrectCommission	0.157865	0.367120	1	0	4.450000e+01
109.397095	1.319411	city	5	1	1.386816	1.386816	0	1	0	0	CorrectCommission	0.187920	0.393892	1	0	44
110.743317	1.373026	city	7	1	1.240285	1.240285	0	1	0	0	CorrectCommission	0.340879	0.424339	1	0	4.350000e+01
112.076294	1.292941	city	2	1	1.100216	1.100216	0	1	0	0	CorrectCommission	0.846358	0.457739	1	0	43
113.369217	1.292890	city	8	1	1.550093	1.550093	0	1	0	0	CorrectCommission	0.777150	0.493193	1	0	4.250000e+01
114.682022	1.332734	city	4	1	1.575584	1.575584	0	1	0	0	CorrectCommission	0.869142	0.529661	1	0	42
115.994873	1.292962	city	9	1	1.368306	1.368306	0	1	0	0	CorrectCommission	0.121121	0.565975	1	0	4.150000e+01
117.314529	1.346353	city	8	1	1.377872	1.377872	0	1	0	0	CorrectCommission	0.155642	0.600837	1	0	41
118.654060	1.332706	city	6	1	1.232516	1.232516	0	1	0	0	CorrectCommission	0.368917	0.632847	1	0	4.050000e+01
122.892639	7.144451	break	0	0	0.000000	1.105472	0	0	0	0	ThoughtProbe	0.827391	0.660608	1	40	40
127.117943	1.306162	city	3	1	1.221346	1.221346	0	1	0	0	CorrectCommission	0.409225	0.682865	1	0	4.055882e+01
128.410873	1.279706	city	6	1	1.804744	1.804744	0	1	0	0	CorrectCommission	1.696132	0.698678	1	0	4.111765e+01
129.703842	1.306215	city	5	1	1.793159	1.793159	0	1	0	0	CorrectCommission	1.654324	0.707541	1	0	4.167647e+01
131.016724	1.319567	city	4	1	1.507463	1.507463	0	1	0	0	CorrectCommission	0.623310	0.709538	1	0	4.223529e+01
132.349548	1.346073	city	8	1	1.243586	1.243586	0	1	0	0	CorrectCommission	0.328966	0.705365	1	0	4.279412e+01
133.675797	1.306409	city	5	1	1.171410	1.171410	0	1	0	0	CorrectCommission	0.589434	0.696229	1	0	4.335294e+01
134.988785	1.319583	city	7	1	1.027086	1.027086	0	1	0	0	CorrectCommission	1.110268	0.683695	1	0	4.391176e+01
136.315002	1.332855	mountain	10	1	1.059261	1.059261	0	0	1	0	CommissionError	0.994156	0.669462	1	0	4.447059e+01
137.661118	1.359372	city	7	1	1.332298	1.332298	0	1	0	0	CorrectCommission	0.008824	0.655102	1	0	4.502941e+01
139.000641	1.319657	city	2	1	1.218820	1.218820	0	1	0	0	CorrectCommission	0.418342	0.641869	1	0	4.558824e+01
140.300293	1.279669	city	1	1	1.396440	1.396440	0	1	0	0	CorrectCommission	0.222651	0.630482	1	0	4.614706e+01
141.579849	1.279430	mountain	7	0	0.000000	1.522947	1	0	0	0	CorrectOmission	0.679187	0.621120	1	0	4.670588e+01
142.866119	1.293107	city	4	1	1.541549	1.541549	0	1	0	0	CorrectCommission	0.746319	0.613479	1	0	4.726471e+01
144.165771	1.306211	city	5	1	1.395457	1.395457	0	1	0	0	CorrectCommission	0.219105	0.606910	1	0	4.782353e+01
145.471924	1.306074	city	3	1	1.448877	1.448877	0	1	0	0	CorrectCommission	0.411885	0.600695	1	0	4.838235e+01
146.764740	1.279561	city	7	1	1.807438	1.807438	0	1	0	0	CorrectCommission	1.705854	0.594242	1	0	4.894118e+01
148.064392	1.319737	city	2	0	0.000000	1.558594	0	0	0	1	OmissionError	0.807831	0.587289	1	0	4.950000e+01
149.377304	1.306114	city	3	1	1.206649	1.206649	0	1	0	0	CorrectCommission	0.462265	0.580071	1	0	5.005882e+01
150.683548	1.306344	city	5	1	1.255904	1.255904	0	1	0	0	CorrectCommission	0.284514	0.573277	1	0	5.061765e+01
151.983124	1.292814	city	9	1	1.030753	1.030753	0	1	0	0	CorrectCommission	1.097036	0.567929	1	0	5.117647e+01
153.276031	1.293004	city	2	1	1.376705	1.376705	0	1	0	0	CorrectCommission	0.151432	0.565131	1	0	5.173529e+01
154.602310	1.359554	city	1	1	1.201663	1.201663	0	1	0	0	CorrectCommission	0.480259	0.565860	1	0	5.229412e+01
155.921799	1.279436	city	9	1	1.378555	1.378555	0	1	0	0	CorrectCommission	0.158108	0.570663	1	0	5.285294e+01
157.234726	1.346418	city	5	1	1.303000	1.303000	0	1	0	0	CorrectCommission	0.114554	0.579486	1	0	5.341176e+01
158.547623	1.279360	city	1	1	1.351888	1.351888	0	1	0	0	CorrectCommission	0.061871	0.591608	1	0	5.397059e+01
159.860428	1.346248	city	9	1	1.488264	1.488264	0	1	0	0	CorrectCommission	0.554023	0.605763	1	0	5.452941e+01
161.173355	1.279633	city	4	1	1.694886	1.694886	0	1	0	0	CorrectCommission	1.299678	0.620307	1	0	5.508824e+01
162.466339	1.306324	city	9	1	1.548636	1.548636	0	1	0	0	CorrectCommission	0.771893	0.633539	1	0	5.564706e+01
163.759216	1.279430	city	3	1	1.683601	1.683601	0	1	0	0	CorrectCommission	1.258952	0.644058	1	0	5.620588e+01
165.058716	1.319583	city	2	1	1.536597	1.536597	0	1	0	0	CorrectCommission	0.728448	0.651030	1	0	5.676471e+01
166.358383	1.279729	city	1	1	1.456102	1.456102	0	1	0	0	CorrectCommission	0.437957	0.654453	1	0	5.732353e+01
167.651291	1.306080	city	7	1	1.700001	1.700001	0	1	0	0	CorrectCommission	1.318139	0.655193	1	0	5.788235e+01
168.977417	1.346201	city	9	1	1.358719	1.358719	0	1	0	0	CorrectCommission	0.086525	0.654864	1	0	5.844118e+01
173.309357	7.317660	break	0	0	0.000000	1.155762	0	0	0	0	ThoughtProbe	0.645904	0.655722	1	59	59
177.614700	1.293026	city	9	1	1.084640	1.084640	0	1	0	0	CorrectCommission	0.902569	0.660241	1	0	5.860870e+01
178.907578	1.292738	city	6	1	1.138864	1.138864	0	1	0	0	CorrectCommission	0.706887	0.670783	1	0	5.821739e+01
180.193726	1.279570	city	5	1	1.421533	1.421533	0	1	0	0	CorrectCommission	0.313205	0.689212	1	0	5.782609e+01
181.486633	1.306231	city	10	1	1.284656	1.284656	0	1	0	0	CorrectCommission	0.180752	0.716496	1	0	5.743478e+01
182.779587	1.279684	city	6	1	1.408932	1.408932	0	1	0	0	CorrectCommission	0.267732	0.752482	1	0	5.704348e+01
184.119217	1.399571	city	8	1	1.360202	1.360202	0	1	0	0	CorrectCommission	0.091875	0.795802	0	0	5.665217e+01
185.478806	1.319597	city	6	1	1.489340	1.489340	0	1	0	0	CorrectCommission	0.557908	0.843955	0	0	5.626087e+01
186.798386	1.319560	mountain	1	0	0.000000	1.618249	1	0	0	0	CorrectOmission	1.023111	0.893538	0	0	5.586957e+01
188.111252	1.306173	city	3	1	1.702683	1.702683	0	1	0	0	CorrectCommission	1.327816	0.940683	0	0	5.547826e+01
189.410751	1.292839	city	6	1	1.698398	1.698398	0	1	0	0	CorrectCommission	1.312351	0.981526	0	0	5.508696e+01
190.723694	1.333029	city	7	1	0.726350	0.726350	0	1	0	0	CorrectCommission	2.195561	1.012695	0	0	5.469565e+01
192.049896	1.319401	city	6	1	0.890393	0.890393	0	1	0	0	CorrectCommission	1.603563	1.031658	0	0	5.430435e+01
193.349472	1.279750	mountain	3	0	0.000000	1.031342	1	0	0	0	CorrectOmission	1.094910	1.037057	0	0	5.391304e+01
194.649139	1.319563	city	4	0	0.000000	1.111983	0	0	0	1	OmissionError	0.803895	1.028829	0	0	5.352174e+01
195.988632	1.359441	city	5	1	1.095102	1.095102	0	1	0	0	CorrectCommission	0.864812	1.008127	0	0	5.313043e+01
197.314819	1.292911	city	8	1	0.943489	0.943489	0	1	0	0	CorrectCommission	1.411952	0.977229	0	0	5.273913e+01
198.614441	1.306340	city	2	1	0.815738	0.815738	0	1	0	0	CorrectCommission	1.872978	0.939231	0	0	5.234783e+01
199.907379	1.279557	city	3	1	1.312862	1.312862	0	1	0	0	CorrectCommission	0.078964	0.897830	0	0	5.195652e+01
201.226868	1.359416	city	5	1	1.104071	1.104071	0	1	0	0	CorrectCommission	0.832445	0.857066	0	0	5.156522e+01
202.573105	1.333053	city	1	1	1.171000	1.171000	0	1	0	0	CorrectCommission	0.590914	0.820898	0	0	5.117391e+01
203.899643	1.320021	mountain	6	0	0.000000	1.425434	1	0	0	0	CorrectOmission	0.327283	0.792975	1	0	5.078261e+01
205.205887	1.292478	city	2	1	1.628735	1.628735	0	1	0	0	CorrectCommission	1.060953	0.776331	1	0	5.039130e+01
206.498520	1.292762	city	5	1	1.542265	1.542265	0	1	0	0	CorrectCommission	0.748902	0.773087	1	0	50
207.798004	1.306221	city	4	1	1.360746	1.360746	0	1	0	0	CorrectCommission	0.093837	0.784272	1	0	4.960870e+01
209.124222	1.346197	city	1	1	1.252613	1.252613	0	1	0	0	CorrectCommission	0.296391	0.809644	0	0	4.921739e+01
210.437088	1.279563	city	3	1	1.246937	1.246937	0	1	0	0	CorrectCommission	0.316875	0.847622	0	0	4.882609e+01
211.716751	1.279756	city	2	1	1.444831	1.444831	0	1	0	0	CorrectCommission	0.397284	0.895352	0	0	4.843478e+01
213.009750	1.306239	city	6	1	1.523387	1.523387	0	1	0	0	CorrectCommission	0.680775	0.948902	0	0	4.804348e+01
214.342667	1.359581	mountain	8	0	0.000000	1.747791	1	0	0	0	CorrectOmission	1.490601	1.003599	0	0	4.765217e+01
215.662247	1.279574	city	6	1	1.843956	1.843956	0	1	0	0	CorrectCommission	1.837641	1.054472	0	0	4.726087e+01
216.961823	1.319592	city	2	1	1.537796	1.537796	0	1	0	0	CorrectCommission	0.732773	1.096796	0	0	4.686957e+01
218.261383	1.279528	city	5	1	1.525817	1.525817	0	1	0	0	CorrectCommission	0.689544	1.126623	0	0	4.647826e+01
219.547607	1.292931	city	7	1	0.556521	0.556521	0	1	0	0	CorrectCommission	2.808438	1.141163	0	0	4.608696e+01
220.847153	1.306139	city	8	1	0.735702	0.735702	0	1	0	0	CorrectCommission	2.161809	1.139065	0	0	4.569565e+01
222.159973	1.319511	city	6	1	0.617104	0.617104	0	1	0	0	CorrectCommission	2.589807	1.120603	0	0	4.530435e+01
223.466263	1.293060	city	1	1	1.297570	1.297570	0	1	0	0	CorrectCommission	0.134151	1.087494	0	0	4.491304e+01
224.752563	1.279552	city	6	1	1.366301	1.366301	0	1	0	0	CorrectCommission	0.113884	1.042685	0	0	4.452174e+01
226.052139	1.319598	city	5	0	0.000000	1.039233	0	0	0	1	OmissionError	1.066434	0.989851	0	0	4.413043e+01
227.371719	1.319558	city	10	1	0.832120	0.832120	0	1	0	0	CorrectCommission	1.813858	0.932971	0	0	4.373913e+01
228.677872	1.292748	city	9	1	1.260717	1.260717	0	1	0	0	CorrectCommission	0.267143	0.875960	0	0	4.334783e+01
229.977356	1.306208	city	10	1	1.168584	1.168584	0	1	0	0	CorrectCommission	0.599632	0.822321	0	0	4.295652e+01
231.283569	1.306229	city	6	1	1.264610	1.264610	0	1	0	0	CorrectCommission	0.253097	0.774865	1	0	4.256522e+01
232.583221	1.293089	city	8	1	1.158460	1.158460	0	1	0	0	CorrectCommission	0.636169	0.735672	1	0	4.217391e+01
233.876144	1.292742	city	2	1	1.298040	1.298040	0	1	0	0	CorrectCommission	0.132453	0.706059	1	0	4.178261e+01
235.175629	1.306241	city	4	1	1.613891	1.613891	0	1	0	0	CorrectCommission	1.007385	0.686711	1	0	4.139130e+01
238.954391	6.251284	break	0	0	0.000000	1.633569	0	0	0	0	ThoughtProbe	1.078397	0.677748	1	41	41
242.719833	1.279600	city	4	1	1.465430	1.465430	0	1	0	0	CorrectCommission	0.471621	0.678854	1	0	4.102500e+01
244.026077	1.332863	city	9	1	1.217833	1.217833	0	1	0	0	CorrectCommission	0.421905	0.689323	1	0	4.105000e+01
245.359024	1.333057	city	5	1	1.227434	1.227434	0	1	0	0	CorrectCommission	0.387257	0.708088	1	0	4.107500e+01
246.672028	1.292923	city	7	1	1.533224	1.533224	0	1	0	0	CorrectCommission	0.716275	0.733742	1	0	4.110000e+01
247.964935	1.292913	city	3	1	1.462306	1.462306	0	1	0	0	CorrectCommission	0.460348	0.764555	1	0	4.112500e+01
249.251175	1.279559	city	2	1	1.470405	1.470405	0	1	0	0	CorrectCommission	0.489573	0.798547	0	0	4.115000e+01
250.537354	1.292796	mountain	1	0	0.000000	1.510133	1	0	0	0	CorrectOmission	0.632946	0.833580	0	0	4.117500e+01
251.823608	1.279718	city	2	1	1.593778	1.593778	0	1	0	0	CorrectCommission	0.934800	0.867560	0	0	4.120000e+01
253.129898	1.332862	mountain	3	1	1.733622	1.733622	0	0	1	0	CommissionError	1.439468	0.898605	0	0	4.122500e+01
254.469376	1.346095	city	3	1	1.754875	1.754875	0	1	0	0	CorrectCommission	1.516165	0.925315	0	0	4.125000e+01
255.782288	1.279731	city	8	1	1.628495	1.628495	0	1	0	0	CorrectCommission	1.060086	0.946905	0	0	4.127500e+01
257.081879	1.319415	city	1	1	1.731714	1.731714	0	1	0	0	CorrectCommission	1.432583	0.963283	0	0	4.130000e+01
258.401367	1.319562	city	9	1	1.673576	1.673576	0	1	0	0	CorrectCommission	1.222775	0.974929	0	0	4.132500e+01
259.740967	1.359675	city	7	1	1.587783	1.587783	0	1	0	0	CorrectCommission	0.913168	0.982728	0	0	4.135000e+01
261.093903	1.346172	city	2	1	1.488099	1.488099	0	1	0	0	CorrectCommission	0.553429	0.987686	0	0	4.137500e+01
262.413483	1.292995	city	8	1	1.250389	1.250389	0	1	0	0	CorrectCommission	0.304414	0.990699	0	0	4.140000e+01
263.719757	1.319579	city	4	1	1.179247	1.179247	0	1	0	0	CorrectCommission	0.561154	0.992317	0	0	4.142500e+01
265.026001	1.292904	city	5	1	1.036435	1.036435	0	1	0	0	CorrectCommission	1.076531	0.992623	0	0	4.145000e+01
266.312195	1.279492	city	6	1	0.884979	0.884979	0	1	0	0	CorrectCommission	1.623103	0.991266	0	0	4.147500e+01
267.605011	1.306131	city	2	1	0.764988	0.764988	0	1	0	0	CorrectCommission	2.056126	0.987647	0	0	4.150000e+01
268.911194	1.306246	city	9	1	1.253326	1.253326	0	1	0	0	CorrectCommission	0.293816	0.981136	0	0	4.152500e+01
270.204193	1.279735	city	2	1	1.429536	1.429536	0	1	0	0	CorrectCommission	0.342089	0.971415	0	0	4.155000e+01
271.497070	1.306022	city	10	0	0.000000	1.193075	0	0	0	1	OmissionError	0.511249	0.958681	0	0	4.157500e+01
272.803253	1.306317	city	1	1	0.829012	0.829012	0	1	0	0	CorrectCommission	1.825075	0.943895	0	0	4.160000e+01
274.102936	1.293073	mountain	3	1	0.622416	0.622416	0	0	1	0	CommissionError	2.570638	0.928814	0	0	4.162500e+01
275.402527	1.306133	city	10	1	1.089117	1.089117	0	1	0	0	CorrectCommission	0.886413	0.915903	0	0	4.165000e+01
276.715363	1.319530	city	9	1	1.204576	1.204576	0	1	0	0	CorrectCommission	0.469745	0.908108	0	0	4.167500e+01
278.028290	1.306298	city	8	1	1.344337	1.344337	0	1	0	0	CorrectCommission	0.034622	0.908360	0	0	4.170000e+01
279.341248	1.319627	city	2	1	1.258962	1.258962	0	1	0	0	CorrectCommission	0.273477	0.919068	0	0	4.172500e+01
280.640839	1.279567	city	5	1	1.551496	1.551496	0	1	0	0	CorrectCommission	0.782213	0.941590	0	0	4.175000e+01
281.953735	1.346202	city	2	1	1.279137	1.279137	0	1	0	0	CorrectCommission	0.200671	0.975862	0	0	4.177500e+01
283.266632	1.279601	city	10	1	1.434819	1.434819	0	1	0	0	CorrectCommission	0.361152	1.020197	0	0	4.180000e+01
284.579559	1.346238	city	1	1	1.614103	1.614103	0	1	0	0	CorrectCommission	1.008151	1.071320	0	0	4.182500e+01
285.919098	1.332884	city	6	1	1.667464	1.667464	0	1	0	0	CorrectCommission	1.200718	1.124653	0	0	4.185000e+01
287.251923	1.332732	city	8	1	1.715984	1.715984	0	1	0	0	CorrectCommission	1.375818	1.174848	0	0	4.187500e+01
288.578156	1.319724	city	5	1	0.737783	0.737783	0	1	0	0	CorrectCommission	2.154300	1.216416	0	0	4.190000e+01
289.884399	1.292754	city	2	1	1.710924	1.710924	0	1	0	0	CorrectCommission	1.357558	1.244401	0	0	4.192500e+01
291.197235	1.332916	city	4	1	1.734315	1.734315	0	1	0	0	CorrectCommission	1.441969	1.255034	0	0	4.195000e+01
292.510193	1.293047	city	10	1	0.697757	0.697757	0	1	0	0	CorrectCommission	2.298748	1.246144	0	0	4.197500e+01
296.875427	7.437391	break	0	1	0.666582	0.666582	0	0	0	0	ThoughtProbe	2.411251	1.217410	0	42	42
301.247314	1.306390	mountain	10	0	0.000000	0.815929	1	0	0	0	CorrectOmission	1.872291	1.170403	0	0	4.164706e+01
302.566925	1.332808	city	10	1	1.145974	1.145974	0	1	0	0	CorrectCommission	0.681227	1.108317	0	0	4.129412e+01
303.899811	1.332997	city	1	1	1.656895	1.656895	0	1	0	0	CorrectCommission	1.162578	1.035577	0	0	4.094118e+01
305.232697	1.332746	city	8	1	1.472345	1.472345	0	1	0	0	CorrectCommission	0.496577	0.957204	0	0	4.058824e+01
306.558838	1.319541	city	5	1	1.353805	1.353805	0	1	0	0	CorrectCommission	0.068790	0.878290	0	0	4.023529e+01
307.878448	1.319722	city	3	1	1.406155	1.406155	0	1	0	0	CorrectCommission	0.257709	0.803448	0	0	3.988235e+01
309.198120	1.319599	city	5	1	1.650638	1.650638	0	1	0	0	CorrectCommission	1.139997	0.736401	1	0	3.952941e+01
310.504364	1.292879	city	1	1	1.574163	1.574163	0	1	0	0	CorrectCommission	0.864014	0.679746	1	0	3.917647e+01
311.803925	1.306242	city	10	0	0.000000	1.344599	0	0	0	1	OmissionError	0.035568	0.634889	1	0	3.882353e+01
313.096771	1.279440	city	1	1	1.184169	1.184169	0	1	0	0	CorrectCommission	0.543390	0.602070	1	0	3.847059e+01
314.402924	1.332896	city	5	1	1.315094	1.315094	0	1	0	0	CorrectCommission	0.070910	0.580506	1	0	3.811765e+01
315.715912	1.293043	city	4	1	1.307998	1.307998	0	1	0	0	CorrectCommission	0.096519	0.568679	1	0	3.776471e+01
317.022125	1.319400	city	3	1	1.506347	1.506347	0	1	0	0	CorrectCommission	0.619283	0.564579	1	0	3.741176e+01
318.355011	1.346411	city	8	1	1.463262	1.463262	0	1	0	0	CorrectCommission	0.463798	0.566051	1	0	3.705882e+01
319.681335	1.306233	city	7	1	1.546702	1.546702	0	1	0	0	CorrectCommission	0.764914	0.571104	1	0	3.670588e+01
321.000854	1.332809	city	2	1	1.670657	1.670657	0	1	0	0	CorrectCommission	1.212242	0.578138	1	0	3.635294e+01
322.327026	1.319482	city	6	1	1.636181	1.636181	0	1	0	0	CorrectCommission	1.087824	0.586112	1	0	36
323.646606	1.319723	city	8	1	1.459769	1.459769	0	1	0	0	CorrectCommission	0.451190	0.594587	1	0	3.564706e+01
324.952850	1.292739	city	5	1	1.299800	1.299800	0	1	0	0	CorrectCommission	0.126103	0.603690	1	0	3.529412e+01
326.265747	1.333059	city	1	1	1.169786	1.169786	0	1	0	0	CorrectCommission	0.595295	0.613915	1	0	3.494118e+01
327.591980	1.319407	city	5	1	1.208542	1.208542	0	1	0	0	CorrectCommission	0.455433	0.625902	1	0	3.458824e+01
328.911499	1.319609	city	6	1	1.117516	1.117516	0	1	0	0	CorrectCommission	0.783926	0.640247	1	0	3.423529e+01
330.224335	1.306111	city	5	1	1.196577	1.196577	0	1	0	0	CorrectCommission	0.498611	0.657289	1	0	3.388235e+01
331.517242	1.279682	mountain	3	0	0.000000	1.355672	1	0	0	0	CorrectOmission	0.075528	0.677013	1	0	3.352941e+01
332.796875	1.279560	city	4	1	1.528112	1.528112	0	1	0	0	CorrectCommission	0.697827	0.698943	1	0	3.317647e+01
334.109772	1.346224	city	3	1	1.647209	1.647209	0	1	0	0	CorrectCommission	1.127621	0.722171	1	0	3.282353e+01
335.429413	1.293086	city	1	1	1.541239	1.541239	0	1	0	0	CorrectCommission	0.745199	0.745463	1	0	3.247059e+01
336.715729	1.279557	city	4	1	1.556351	1.556351	0	1	0	0	CorrectCommission	0.799734	0.767392	1	0	3.211765e+01
338.008606	1.306163	city	9	1	1.245383	1.245383	0	1	0	0	CorrectCommission	0.322482	0.786432	1	0	3.176471e+01
339.301514	1.279654	city	4	1	1.666237	1.666237	0	1	0	0	CorrectCommission	1.196289	0.801166	0	0	3.141176e+01
340.621033	1.359394	city	9	1	0.724366	0.724366	0	1	0	0	CorrectCommission	2.202719	0.810363	0	0	3.105882e+01
341.947266	1.293072	city	10	1	1.297605	1.297605	0	1	0	0	CorrectCommission	0.134022	0.813094	0	0	3.070588e+01
343.240204	1.292839	city	4	1	1.208611	1.208611	0	1	0	0	CorrectCommission	0.455184	0.808880	0	0	3.035294e+01
347.771973	7.770701	break	0	1	1.101995	1.101995	0	0	0	0	ThoughtProbe	0.839938	0.797612	0	30	30
352.337189	1.359697	city	6	1	1.569495	1.569495	0	1	0	0	CorrectCommission	0.847169	0.779614	1	0	2.986957e+01
353.690155	1.346218	mountain	6	0	0.000000	1.650155	1	0	0	0	CorrectOmission	1.138253	0.755688	1	0	2.973913e+01
355.003052	1.279582	city	5	1	1.604198	1.604198	0	1	0	0	CorrectCommission	0.972406	0.727055	1	0	2.960870e+01
356.309265	1.332895	city	6	1	1.691851	1.691851	0	1	0	0	CorrectCommission	1.288725	0.695314	1	0	2.947826e+01
357.628845	1.306261	city	8	1	1.501242	1.501242	0	1	0	0	CorrectCommission	0.600859	0.662319	1	0	2.934783e+01
358.934998	1.306002	city	10	1	1.263161	1.263161	0	1	0	0	CorrectCommission	0.258323	0.630055	1	0	2.921739e+01
360.234558	1.293144	city	4	1	1.426726	1.426726	0	1	0	0	CorrectCommission	0.331945	0.600415	1	0	2.908696e+01
361.540924	1.319561	city	6	1	1.445336	1.445336	0	1	0	0	CorrectCommission	0.399106	0.575002	1	0	2.895652e+01
362.873810	1.346224	city	2	1	1.239892	1.239892	0	1	0	0	CorrectCommission	0.342298	0.554951	1	0	2.882609e+01
364.193359	1.292891	city	6	1	1.351403	1.351403	0	1	0	0	CorrectCommission	0.060122	0.540819	1	0	2.869565e+01
365.486176	1.292748	city	10	1	1.345188	1.345188	0	1	0	0	CorrectCommission	0.037693	0.532560	1	0	2.856522e+01
366.799011	1.332914	city	3	1	1.600091	1.600091	0	1	0	0	CorrectCommission	0.957583	0.529582	1	0	2.843478e+01
368.111908	1.292897	city	7	1	1.662549	1.662549	0	1	0	0	CorrectCommission	1.182981	0.530832	1	0	2.830435e+01
369.404907	1.293072	city	3	1	1.422301	1.422301	0	1	0	0	CorrectCommission	0.315977	0.534996	1	0	2.817391e+01
370.697815	1.292756	city	10	1	1.453466	1.453466	0	1	0	0	CorrectCommission	0.428444	0.540695	1	0	2.804348e+01
371.990662	1.292932	city	2	0	0.000000	1.345604	0	0	0	1	OmissionError	0.039194	0.546629	1	0	2.791304e+01
373.303619	1.333011	city	9	1	1.164537	1.164537	0	1	0	0	CorrectCommission	0.614236	0.551812	1	0	2.778261e+01
374.629913	1.319562	city	1	1	0.976089	0.976089	0	1	0	0	CorrectCommission	1.294306	0.555583	1	0	2.765217e+01
375.929504	1.279596	mountain	6	0	0.000000	1.120348	1	0	0	0	CorrectOmission	0.773706	0.557737	1	0	2.752174e+01
377.222412	1.306247	city	5	1	1.374639	1.374639	0	1	0	0	CorrectCommission	0.143975	0.558604	1	0	2.739130e+01
378.555237	1.359366	mountain	5	0	0.000000	1.516284	1	0	0	0	CorrectOmission	0.655143	0.558958	1	0	2.726087e+01
379.881348	1.292906	city	5	1	1.544341	1.544341	0	1	0	0	CorrectCommission	0.756395	0.559925	1	0	2.713043e+01
381.200928	1.346249	city	9	1	1.457866	1.457866	0	1	0	0	CorrectCommission	0.444325	0.562872	1	0	27
382.533936	1.319719	city	7	1	1.513521	1.513521	0	1	0	0	CorrectCommission	0.645172	0.569212	1	0	2.686957e+01
383.846832	1.306079	city	5	1	1.395617	1.395617	0	1	0	0	CorrectCommission	0.219680	0.580196	1	0	2.673913e+01
385.159637	1.319568	city	1	1	1.383749	1.383749	0	1	0	0	CorrectCommission	0.176850	0.596749	1	0	2.660870e+01
386.459290	1.279722	city	9	1	1.581890	1.581890	0	1	0	0	CorrectCommission	0.891900	0.619244	1	0	2.647826e+01
387.758942	1.319582	city	1	1	1.417405	1.417405	0	1	0	0	CorrectCommission	0.298310	0.647397	1	0	2.634783e+01
389.085175	1.332877	city	7	1	1.236372	1.236372	0	1	0	0	CorrectCommission	0.354999	0.680282	1	0	2.621739e+01
390.444702	1.386208	city	5	1	1.210012	1.210012	0	1	0	0	CorrectCommission	0.450127	0.716359	1	0	2.608696e+01
391.777618	1.279605	city	6	1	1.609301	1.609301	0	1	0	0	CorrectCommission	0.990821	0.753603	1	0	2.595652e+01
393.103851	1.372855	city	4	1	1.679248	1.679248	0	1	0	0	CorrectCommission	1.243244	0.789763	1	0	2.582609e+01
394.463409	1.346275	mountain	3	0	0.000000	1.549587	1	0	0	0	CorrectOmission	0.775324	0.822620	0	0	2.569565e+01
395.809662	1.346192	city	9	1	1.422561	1.422561	0	1	0	0	CorrectCommission	0.316916	0.850263	0	0	2.556522e+01
397.142517	1.319544	city	4	1	1.500415	1.500415	0	1	0	0	CorrectCommission	0.597873	0.871344	0	0	2.543478e+01
398.455414	1.306266	city	9	1	0.511106	0.511106	0	1	0	0	CorrectCommission	2.972328	0.885263	0	0	2.530435e+01
399.761658	1.306209	city	2	1	1.635180	1.635180	0	1	0	0	CorrectCommission	1.084212	0.892166	0	0	2.517391e+01
401.067902	1.306254	city	9	1	1.683896	1.683896	0	1	0	0	CorrectCommission	1.260018	0.892988	0	0	2.504348e+01
402.387482	1.332906	city	6	1	1.525577	1.525577	0	1	0	0	CorrectCommission	0.688679	0.889145	0	0	2.491304e+01
403.706970	1.306075	city	9	1	1.357921	1.357921	0	1	0	0	CorrectCommission	0.083646	0.882254	0	0	2.478261e+01
405.019775	1.319539	city	6	1	1.208713	1.208713	0	1	0	0	CorrectCommission	0.454817	0.873867	0	0	2.465217e+01
406.332672	1.306254	city	3	1	1.194268	1.194268	0	1	0	0	CorrectCommission	0.506944	0.865224	0	0	2.452174e+01
407.639008	1.306397	city	6	1	1.420966	1.420966	0	1	0	0	CorrectCommission	0.311161	0.857117	0	0	2.439130e+01
408.945221	1.306065	city	3	1	1.554669	1.554669	0	1	0	0	CorrectCommission	0.793666	0.849893	0	0	2.426087e+01
410.258057	1.319594	city	5	1	0.577807	0.577807	0	1	0	0	CorrectCommission	2.731619	0.843540	0	0	2.413043e+01
410.917847	8.730464	break	0	1	1.051671	1.051671	0	0	0	0	ThoughtProbe	1.021546	0.837857	0	24	24
420.288147	1.279638	city	9	1	1.299965	1.299965	0	1	0	0	CorrectCommission	0.125505	0.832724	0	0	2.505882e+01
421.574371	1.292844	city	3	1	1.426251	1.426251	0	1	0	0	CorrectCommission	0.330232	0.828162	0	0	2.611765e+01
422.880554	1.319532	city	5	1	1.674585	1.674585	0	1	0	0	CorrectCommission	1.226416	0.824359	0	0	2.717647e+01
424.186798	1.292915	city	1	1	1.439152	1.439152	0	1	0	0	CorrectCommission	0.376788	0.821686	0	0	2.823529e+01
425.499756	1.333049	city	10	1	1.725140	1.725140	0	1	0	0	CorrectCommission	1.408860	0.820633	0	0	2.929412e+01
426.846069	1.359555	city	5	1	1.637887	1.637887	0	1	0	0	CorrectCommission	1.093982	0.821654	0	0	3.035294e+01
428.205627	1.359572	mountain	1	0	0.000000	1.400076	1	0	0	0	CorrectOmission	0.235772	0.825049	0	0	3.141176e+01
429.551758	1.332659	city	1	1	1.277693	1.277693	0	1	0	0	CorrectCommission	0.205881	0.830917	0	0	3.247059e+01
430.864655	1.293125	city	3	1	1.536726	1.536726	0	1	0	0	CorrectCommission	0.728914	0.839103	0	0	3.352941e+01
432.164337	1.306246	city	7	1	1.647767	1.647767	0	1	0	0	CorrectCommission	1.129636	0.849244	0	0	3.458824e+01
433.490479	1.346050	city	9	0	0.000000	1.140778	0	0	0	1	OmissionError	0.699977	0.860900	0	0	3.564706e+01
434.823273	1.319567	city	7	1	0.798041	0.798041	0	1	0	0	CorrectCommission	1.936842	0.873654	0	0	3.670588e+01
436.136200	1.306258	city	2	1	1.401836	1.401836	0	1	0	0	CorrectCommission	0.242123	0.887292	0	0	3.776471e+01
437.449127	1.319593	city	6	1	1.431823	1.431823	0	1	0	0	CorrectCommission	0.350341	0.901986	0	0	3.882353e+01
438.755432	1.293043	city	10	1	1.701117	1.701117	0	1	0	0	CorrectCommission	1.322165	0.918256	0	0	3.988235e+01
440.048340	1.292755	city	4	1	1.825097	1.825097	0	1	0	0	CorrectCommission	1.769581	0.936966	0	0	4.094118e+01
441.387909	1.386369	city	3	1	1.692428	1.692428	0	1	0	0	CorrectCommission	1.290806	0.959165	0	0	42
442.740875	1.319565	city	6	1	1.366203	1.366203	0	1	0	0	CorrectCommission	0.113533	0.985850	0	0	4.305882e+01
444.060425	1.319544	city	1	1	1.199077	1.199077	0	1	0	0	CorrectCommission	0.489590	1.017717	0	0	4.411765e+01
445.373230	1.306068	city	9	1	1.204112	1.204112	0	1	0	0	CorrectCommission	0.471420	1.054824	0	0	4.517647e+01
446.699463	1.346389	city	7	1	1.019809	1.019809	0	1	0	0	CorrectCommission	1.136531	1.096416	0	0	4.623529e+01
448.019073	1.292835	city	3	1	1.069149	1.069149	0	1	0	0	CorrectCommission	0.958472	1.140892	0	0	4.729412e+01
449.338562	1.346137	city	9	1	0.985341	0.985341	0	1	0	0	CorrectCommission	1.260918	1.185886	0	0	4.835294e+01
450.678192	1.333134	mountain	6	1	1.057456	1.057456	0	0	1	0	CommissionError	1.000668	1.228481	0	0	4.941176e+01
451.984528	1.279528	city	5	1	0.643557	0.643557	0	1	0	0	CorrectCommission	2.494342	1.265560	0	0	5.047059e+01
453.304047	1.359527	city	4	1	1.117717	1.117717	0	1	0	0	CorrectCommission	0.783200	1.294204	0	0	5.152941e+01
454.650269	1.332913	city	10	1	0.978181	0.978181	0	1	0	0	CorrectCommission	1.286756	1.312168	0	0	5.258824e+01
455.976440	1.319415	city	8	1	0.830145	0.830145	0	1	0	0	CorrectCommission	1.820988	1.318082	0	0	5.364706e+01
457.282593	1.292895	city	7	1	0.755859	0.755859	0	1	0	0	CorrectCommission	2.089070	1.311723	0	0	5.470588e+01
458.582245	1.306406	city	4	1	0.654573	0.654573	0	1	0	0	CorrectCommission	2.454587	1.294019	0	0	5.576471e+01
459.881897	1.292885	city	1	1	0.893901	0.893901	0	1	0	0	CorrectCommission	1.590903	1.266840	0	0	5.682353e+01
461.181458	1.306274	city	4	1	1.073446	1.073446	0	1	0	0	CorrectCommission	0.942965	1.232770	0	0	5.788235e+01
462.501038	1.332870	city	3	1	1.158297	1.158297	0	1	0	0	CorrectCommission	0.636757	1.194664	0	0	5.894118e+01
466.666290	6.997668	break	0	1	1.301708	1.301708	0	0	0	0	ThoughtProbe	0.119215	1.155244	0	60	60
470.851593	1.372914	city	8	1	1.087985	1.087985	0	1	0	0	CorrectCommission	0.890498	1.116862	0	0	5.947500e+01
472.197815	1.319541	city	3	1	1.078248	1.078248	0	1	0	0	CorrectCommission	0.925637	1.081306	0	0	5.895000e+01
473.517395	1.319610	city	1	1	1.239548	1.239548	0	1	0	0	CorrectCommission	0.343539	1.049854	0	0	5.842500e+01
474.823639	1.292872	city	3	1	1.797891	1.797891	0	1	0	0	CorrectCommission	1.671402	1.023445	0	0	5.790000e+01
476.129852	1.319565	city	10	1	0.858501	0.858501	0	1	0	0	CorrectCommission	1.718657	1.002828	0	0	5.737500e+01
477.456085	1.332894	city	4	1	1.809334	1.809334	0	1	0	0	CorrectCommission	1.712698	0.988803	0	0	5.685000e+01
478.795593	1.346136	mountain	10	0	0.000000	1.776329	1	0	0	0	CorrectOmission	1.593588	0.982232	0	0	5.632500e+01
480.121765	1.306168	city	2	1	1.396668	1.396668	0	1	0	0	CorrectCommission	0.223473	0.983866	0	0	5.580000e+01
481.421387	1.293066	mountain	6	0	0.000000	1.307536	1	0	0	0	CorrectOmission	0.098186	0.994137	0	0	5.527500e+01
482.707703	1.279600	city	6	1	1.357833	1.357833	0	1	0	0	CorrectCommission	0.083326	1.012813	0	0	5.475000e+01
484.007202	1.319394	city	2	1	1.396459	1.396459	0	1	0	0	CorrectCommission	0.222720	1.038763	0	0	5.422500e+01
485.326782	1.319779	city	3	1	1.698089	1.698089	0	1	0	0	CorrectCommission	1.311237	1.069896	0	0	5.370000e+01
486.666351	1.359373	city	8	1	1.429916	1.429916	0	1	0	0	CorrectCommission	0.343457	1.103190	0	0	5.317500e+01
487.999237	1.306350	city	7	1	1.733433	1.733433	0	1	0	0	CorrectCommission	1.438787	1.135177	0	0	5.265000e+01
489.318787	1.332743	city	2	1	2.003424	2.003424	0	1	0	0	CorrectCommission	2.413124	1.162255	0	0	5.212500e+01
490.645020	1.319748	city	3	1	1.006652	1.006652	0	1	0	0	CorrectCommission	1.184012	1.181298	0	0	5.160000e+01
491.977936	1.346090	city	4	1	0.547749	0.547749	0	1	0	0	CorrectCommission	2.840094	1.190105	0	0	5.107500e+01
493.290833	1.279684	city	8	1	1.817675	1.817675	0	1	0	0	CorrectCommission	1.742799	1.187577	0	0	5.055000e+01
494.603790	1.346220	city	4	1	1.693585	1.693585	0	1	0	0	CorrectCommission	1.294984	1.173870	0	0	5.002500e+01
495.956665	1.359573	city	8	1	1.567650	1.567650	0	1	0	0	CorrectCommission	0.840511	1.150143	0	0	4.950000e+01
497.342834	1.412724	city	3	1	1.484554	1.484554	0	1	0	0	CorrectCommission	0.540635	1.118269	0	0	4.897500e+01
498.728943	1.359515	city	9	1	1.218949	1.218949	0	1	0	0	CorrectCommission	0.417874	1.080484	0	0	4.845000e+01
500.068573	1.319731	city	10	1	1.087238	1.087238	0	1	0	0	CorrectCommission	0.893195	1.039070	0	0	4.792500e+01
501.394867	1.332890	city	5	1	1.230811	1.230811	0	1	0	0	CorrectCommission	0.375069	0.996219	0	0	4.740000e+01
502.727783	1.332894	city	9	1	1.057567	1.057567	0	1	0	0	CorrectCommission	1.000269	0.954134	0	0	4.687500e+01
504.067322	1.346235	mountain	3	1	0.506689	0.506689	0	0	1	0	CommissionError	2.988270	0.915109	0	0	4.635000e+01
505.386902	1.292900	city	4	1	1.647507	1.647507	0	1	0	0	CorrectCommission	1.128698	0.881829	0	0	4.582500e+01
506.699799	1.332893	city	1	1	1.463138	1.463138	0	1	0	0	CorrectCommission	0.463348	0.857631	0	0	4.530000e+01
508.025970	1.319430	city	5	1	1.347347	1.347347	0	1	0	0	CorrectCommission	0.045485	0.846549	0	0	4.477500e+01
509.372192	1.373026	city	1	1	1.278387	1.278387	0	1	0	0	CorrectCommission	0.203376	0.853254	0	0	4.425000e+01
510.711792	1.306157	city	8	1	1.108312	1.108312	0	1	0	0	CorrectCommission	0.817142	0.882810	0	0	4.372500e+01
512.011292	1.292846	city	3	1	1.294934	1.294934	0	1	0	0	CorrectCommission	0.143663	0.940257	0	0	4.320000e+01
513.337463	1.359551	city	10	1	0.993151	0.993151	0	1	0	0	CorrectCommission	1.232733	1.030115	0	0	4.267500e+01
514.677002	1.319551	city	1	1	1.331555	1.331555	0	1	0	0	CorrectCommission	0.011506	1.155721	0	0	4.215000e+01
515.976685	1.279739	city	5	1	1.019552	1.019552	0	1	0	0	CorrectCommission	1.137456	1.318737	0	0	4.162500e+01
517.282959	1.332884	city	9	1	1.230789	1.230789	0	1	0	0	CorrectCommission	0.375149	1.518605	0	0	4.110000e+01
518.615906	1.332918	city	8	1	1.126347	1.126347	0	1	0	0	CorrectCommission	0.752056	1.752286	0	0	4.057500e+01
519.968811	1.372903	city	10	1	1.164211	1.164211	0	1	0	0	CorrectCommission	0.615413	2.014176	0	0	4.005000e+01
521.301636	1.292791	city	4	1	1.582119	1.582119	0	1	0	0	CorrectCommission	0.892726	2.296359	0	0	3.952500e+01
521.948059	8.330919	break	0	0	0.617279	0.617279	0	0	0	0	ThoughtProbe	2.589174	2.589174	0	39	39
