onset	duration	trial_type	image_type	Press	ReactionTime	ReactionTime_Interpolated	CorrectOmission	CorrectCommission	CommissionError	OmissionError	response_type	nonsmoothVarianceTimeCourse	VarianceTimeCourse	In_the_Zone	ThoughtProbe	ThoughtProbe_Interpolated
0.653018	1.279392	city	3	1	1.032250	1.032250	0	1	0	0	CorrectCommission	0.627838	0.627838	1	0	71
1.939248	1.293068	city	9	1	0.679252	0.679252	0	1	0	0	CorrectCommission	1.683343	0.671926	1	0	71
3.225490	1.279416	city	7	1	1.563058	1.563058	0	1	0	0	CorrectCommission	0.959338	0.716060	1	0	71
4.538403	1.346411	city	2	1	1.206831	1.206831	0	1	0	0	CorrectCommission	0.105820	0.760076	1	0	71
5.857974	1.292729	city	10	1	1.034259	1.034259	0	1	0	0	CorrectCommission	0.621831	0.803377	0	0	71
7.177482	1.346288	mountain	5	0	0.000000	1.086296	1	0	0	0	CorrectOmission	0.466235	0.844814	0	0	71
8.530449	1.359644	city	1	1	1.049273	1.049273	0	1	0	0	CorrectCommission	0.576939	0.882725	0	0	71
9.856724	1.292906	mountain	2	1	0.609520	0.609520	0	0	1	0	CommissionError	1.891850	0.915038	0	0	71
11.149641	1.292929	city	7	1	1.138430	1.138430	0	1	0	0	CorrectCommission	0.310349	0.939502	0	0	71
12.462462	1.332712	mountain	1	1	0.788306	0.788306	0	0	1	0	CommissionError	1.357259	0.954090	0	0	71
13.768606	1.279576	city	8	1	0.696210	0.696210	0	1	0	0	CorrectCommission	1.632636	0.957211	0	0	71
15.048184	1.279581	city	9	1	0.878689	0.878689	0	1	0	0	CorrectCommission	1.087003	0.948078	0	0	71
16.334513	1.293076	city	8	1	0.678914	0.678914	0	1	0	0	CorrectCommission	1.684354	0.926930	0	0	71
17.620852	1.279601	city	10	1	0.617070	0.617070	0	1	0	0	CorrectCommission	1.869274	0.895023	0	0	71
18.900431	1.279559	city	5	1	1.027418	1.027418	0	1	0	0	CorrectCommission	0.642288	0.854527	0	0	71
20.180000	1.279581	city	2	1	1.124931	1.124931	0	1	0	0	CorrectCommission	0.350713	0.808342	0	0	71
21.472921	1.306261	city	10	1	0.968016	0.968016	0	1	0	0	CorrectCommission	0.819905	0.759659	1	0	71
22.785830	1.319554	city	6	1	1.178554	1.178554	0	1	0	0	CorrectCommission	0.190373	0.711614	1	0	71
24.085308	1.279404	city	5	1	1.301910	1.301910	0	1	0	0	CorrectCommission	0.178477	0.666989	1	0	71
25.371462	1.292902	city	10	1	1.244387	1.244387	0	1	0	0	CorrectCommission	0.006476	0.627954	1	0	71
26.664366	1.292905	city	4	1	1.417579	1.417579	0	1	0	0	CorrectCommission	0.524338	0.595957	1	0	71
27.950689	1.279745	city	5	1	0.877387	0.877387	0	1	0	0	CorrectCommission	1.090896	0.571741	1	0	71
29.230316	1.279509	mountain	6	0	0.000000	0.893976	1	0	0	0	CorrectOmission	1.041293	0.555440	1	0	71
30.516560	1.292978	city	2	1	1.166544	1.166544	0	1	0	0	CorrectCommission	0.226283	0.546691	1	0	71
31.802774	1.279450	city	3	1	1.394291	1.394291	0	1	0	0	CorrectCommission	0.454707	0.544805	1	0	71
33.082363	1.279728	city	7	1	1.211237	1.211237	0	1	0	0	CorrectCommission	0.092647	0.548843	1	0	71
34.368591	1.292726	city	4	1	1.305261	1.305261	0	1	0	0	CorrectCommission	0.188495	0.557722	1	0	71
35.654823	1.279743	city	8	1	1.514329	1.514329	0	1	0	0	CorrectCommission	0.813632	0.570239	1	0	71
36.934486	1.279581	city	7	1	1.458195	1.458195	0	1	0	0	CorrectCommission	0.645784	0.585140	1	0	71
38.227428	1.306300	city	2	1	1.321270	1.321270	0	1	0	0	CorrectCommission	0.236363	0.601175	1	0	71
39.533585	1.306018	city	1	1	1.444954	1.444954	0	1	0	0	CorrectCommission	0.606193	0.617212	1	0	71
40.833122	1.293053	city	7	1	1.595013	1.595013	0	1	0	0	CorrectCommission	1.054887	0.632245	1	0	71
42.126022	1.292751	city	9	1	1.632657	1.632657	0	1	0	0	CorrectCommission	1.167447	0.645468	1	0	71
43.425598	1.306401	city	5	1	1.482697	1.482697	0	1	0	0	CorrectCommission	0.719049	0.656316	1	0	71
44.738575	1.319553	city	10	1	1.410927	1.410927	0	1	0	0	CorrectCommission	0.504448	0.664420	1	0	71
46.051491	1.306274	city	6	1	1.059283	1.059283	0	1	0	0	CorrectCommission	0.547007	0.669541	1	0	71
47.344322	1.279393	city	2	1	1.022648	1.022648	0	1	0	0	CorrectCommission	0.656550	0.671499	1	0	71
48.657223	1.346404	city	9	1	1.350922	1.350922	0	1	0	0	CorrectCommission	0.325026	0.670088	1	0	71
49.983532	1.306215	city	5	1	1.693932	1.693932	0	1	0	0	CorrectCommission	1.350666	0.665064	1	0	71
51.283051	1.292823	city	2	1	1.298467	1.298467	0	1	0	0	CorrectCommission	0.168180	0.656106	1	0	71
52.602619	1.346313	city	3	1	1.139121	1.139121	0	1	0	0	CorrectCommission	0.308284	0.642977	1	0	71
53.928894	1.306236	city	9	1	0.734205	0.734205	0	1	0	0	CorrectCommission	1.519028	0.625573	1	0	71
55.221798	1.279575	city	10	1	1.520129	1.520129	0	1	0	0	CorrectCommission	0.830976	0.604086	1	0	71
56.534698	1.346224	city	3	1	1.389912	1.389912	0	1	0	0	CorrectCommission	0.441612	0.579175	1	0	71
57.900917	1.386213	city	6	1	1.142160	1.142160	0	1	0	0	CorrectCommission	0.299194	0.552023	1	0	71
58.594025	10.636477	break	0	1	0.819052	0.819052	0	0	0	0	ThoughtProbe	1.265324	0.524346	1	71	71
69.876884	1.292773	city	1	1	1.422332	1.422332	0	1	0	0	CorrectCommission	0.538551	0.498305	1	0	7.105000e+01
71.223038	1.399535	city	5	1	1.106221	1.106221	0	1	0	0	CorrectCommission	0.406656	0.476412	1	0	7.110000e+01
72.582603	1.319586	city	3	1	1.218490	1.218490	0	1	0	0	CorrectCommission	0.070961	0.461224	1	0	7.115000e+01
73.908844	1.332906	city	4	1	1.233581	1.233581	0	1	0	0	CorrectCommission	0.025836	0.455073	1	0	7.120000e+01
75.221741	1.292890	mountain	4	0	0.000000	1.247474	1	0	0	0	CorrectOmission	0.015706	0.459796	1	0	7.125000e+01
76.508057	1.279729	mountain	1	1	1.242834	1.242834	0	0	1	0	CommissionError	0.001831	0.476520	1	0	7.130000e+01
77.794373	1.292911	city	9	0	0.000000	1.202324	0	0	0	1	OmissionError	0.119297	0.505464	1	0	7.135000e+01
79.100624	1.319586	city	6	1	1.109276	1.109276	0	1	0	0	CorrectCommission	0.397522	0.545907	1	0	7.140000e+01
80.413460	1.306087	city	7	1	0.947020	0.947020	0	1	0	0	CorrectCommission	0.882686	0.596238	1	0	7.145000e+01
81.706352	1.279708	city	8	1	0.967158	0.967158	0	1	0	0	CorrectCommission	0.822471	0.654063	1	0	7.150000e+01
82.992584	1.292744	city	5	1	1.137709	1.137709	0	1	0	0	CorrectCommission	0.312503	0.716455	1	0	7.155000e+01
84.305405	1.332906	city	1	1	1.713898	1.713898	0	1	0	0	CorrectCommission	1.410368	0.780165	1	0	7.160000e+01
85.631676	1.319640	city	6	1	1.285232	1.285232	0	1	0	0	CorrectCommission	0.128606	0.841834	0	0	7.165000e+01
86.951241	1.319482	city	4	1	1.033640	1.033640	0	1	0	0	CorrectCommission	0.623682	0.898405	0	0	7.170000e+01
88.284172	1.346388	city	8	1	1.023458	1.023458	0	1	0	0	CorrectCommission	0.654128	0.947274	0	0	7.175000e+01
89.617119	1.319497	city	7	1	0.524611	0.524611	0	1	0	0	CorrectCommission	2.145738	0.986621	0	0	7.180000e+01
90.916687	1.279645	city	1	1	0.490610	0.490610	0	1	0	0	CorrectCommission	2.247403	1.015504	0	0	7.185000e+01
92.202896	1.292772	city	8	1	0.511210	0.511210	0	1	0	0	CorrectCommission	2.185807	1.033956	0	0	7.190000e+01
93.502388	1.306212	city	2	1	1.367496	1.367496	0	1	0	0	CorrectCommission	0.374586	1.042909	0	0	7.195000e+01
94.815376	1.319768	city	8	1	1.093101	1.093101	0	1	0	0	CorrectCommission	0.445889	1.044013	0	0	72
96.121620	1.292711	city	4	1	1.578272	1.578272	0	1	0	0	CorrectCommission	1.004829	1.039296	0	0	7.205000e+01
97.427849	1.319745	city	9	1	1.556311	1.556311	0	1	0	0	CorrectCommission	0.939165	1.030797	0	0	7.210000e+01
98.780800	1.386167	city	8	1	1.152194	1.152194	0	1	0	0	CorrectCommission	0.269192	1.020392	0	0	7.215000e+01
100.126930	1.306094	city	10	1	0.885946	0.885946	0	1	0	0	CorrectCommission	1.065305	1.009535	0	0	7.220000e+01
101.439781	1.319598	mountain	1	1	0.658559	0.658559	0	0	1	0	CommissionError	1.745219	0.999152	0	0	7.225000e+01
102.746101	1.293043	city	9	1	0.934166	0.934166	0	1	0	0	CorrectCommission	0.921120	0.989711	0	0	7.230000e+01
104.039070	1.292905	city	4	1	0.994686	0.994686	0	1	0	0	CorrectCommission	0.740160	0.981328	0	0	7.235000e+01
105.325310	1.279576	city	2	1	1.690816	1.690816	0	1	0	0	CorrectCommission	1.341349	0.973889	0	0	7.240000e+01
106.624809	1.319422	city	6	1	1.171327	1.171327	0	1	0	0	CorrectCommission	0.211984	0.967161	0	0	7.245000e+01
107.944382	1.319717	city	2	1	1.780794	1.780794	0	1	0	0	CorrectCommission	1.610395	0.960986	0	0	7.250000e+01
109.250702	1.292927	city	7	1	1.683818	1.683818	0	1	0	0	CorrectCommission	1.320426	0.955269	0	0	7.255000e+01
110.543526	1.292720	city	6	1	1.195486	1.195486	0	1	0	0	CorrectCommission	0.139744	0.950134	0	0	7.260000e+01
111.829758	1.279740	city	8	1	0.931316	0.931316	0	1	0	0	CorrectCommission	0.929642	0.945885	0	0	7.265000e+01
113.116096	1.292937	city	7	1	0.834067	0.834067	0	1	0	0	CorrectCommission	1.220429	0.942881	0	0	7.270000e+01
114.415672	1.306213	city	3	1	1.764985	1.764985	0	1	0	0	CorrectCommission	1.563124	0.941566	0	0	7.275000e+01
115.715240	1.292928	city	5	1	1.420446	1.420446	0	1	0	0	CorrectCommission	0.532913	0.942338	0	0	7.280000e+01
117.014748	1.306078	city	9	1	1.121046	1.121046	0	1	0	0	CorrectCommission	0.362328	0.945484	0	0	7.285000e+01
118.314316	1.293066	city	10	1	1.041361	1.041361	0	1	0	0	CorrectCommission	0.600596	0.951061	0	0	7.290000e+01
119.613876	1.306052	city	8	1	0.942890	0.942890	0	1	0	0	CorrectCommission	0.895034	0.958924	0	0	7.295000e+01
120.266899	10.636688	break	0	1	0.501213	0.501213	0	0	0	0	ThoughtProbe	2.215699	0.968636	0	73	73
131.556656	1.306142	city	8	1	1.219071	1.219071	0	1	0	0	CorrectCommission	0.069223	0.979568	0	0	7.270588e+01
132.882828	1.346206	city	5	1	1.779348	1.779348	0	1	0	0	CorrectCommission	1.606069	0.990989	0	0	7.241176e+01
134.222382	1.332891	city	1	1	1.406249	1.406249	0	1	0	0	CorrectCommission	0.490462	1.002000	0	0	7.211765e+01
135.561905	1.346154	city	9	1	1.150266	1.150266	0	1	0	0	CorrectCommission	0.274957	1.011777	0	0	7.182353e+01
136.894791	1.319623	city	6	1	1.715204	1.715204	0	1	0	0	CorrectCommission	1.414271	1.019590	0	0	7.152941e+01
138.194366	1.279530	city	10	1	0.712468	0.712468	0	1	0	0	CorrectCommission	1.584025	1.024852	0	0	7.123529e+01
139.493912	1.319561	mountain	6	1	0.566746	0.566746	0	0	1	0	CommissionError	2.019748	1.027216	0	0	7.094118e+01
140.813477	1.319573	city	10	1	1.512986	1.512986	0	1	0	0	CorrectCommission	0.809616	1.026569	0	0	7.064706e+01
142.126480	1.306412	city	3	1	1.383699	1.383699	0	1	0	0	CorrectCommission	0.423035	1.023018	0	0	7.035294e+01
143.446045	1.332719	city	7	1	1.368297	1.368297	0	1	0	0	CorrectCommission	0.376981	1.016779	0	0	7.005882e+01
144.772186	1.319585	mountain	5	1	0.621653	0.621653	0	0	1	0	CommissionError	1.855572	1.008126	0	0	6.976471e+01
146.091751	1.319540	city	3	1	1.664407	1.664407	0	1	0	0	CorrectCommission	1.262382	0.997281	0	0	6.947059e+01
147.411911	1.320769	city	10	1	1.101445	1.101445	0	1	0	0	CorrectCommission	0.420939	0.984415	0	0	6.917647e+01
148.724823	1.305060	city	8	1	0.992881	0.992881	0	1	0	0	CorrectCommission	0.745555	0.969686	0	0	6.888235e+01
150.023834	1.292973	city	7	1	1.741945	1.741945	0	1	0	0	CorrectCommission	1.494231	0.953212	0	0	6.858824e+01
151.323486	1.306311	city	3	1	1.379380	1.379380	0	1	0	0	CorrectCommission	0.410120	0.935174	0	0	6.829412e+01
152.623001	1.292740	city	1	1	1.471107	1.471107	0	1	0	0	CorrectCommission	0.684394	0.915938	0	0	68
153.942490	1.346238	city	7	1	2.176898	2.176898	0	1	0	0	CorrectCommission	2.794790	0.896051	0	0	6.770588e+01
155.282074	1.332909	city	2	1	1.174875	1.174875	0	1	0	0	CorrectCommission	0.201375	0.876207	0	0	6.741176e+01
156.628372	1.359705	city	8	1	0.993453	0.993453	0	1	0	0	CorrectCommission	0.743846	0.857290	0	0	6.711765e+01
157.967926	1.319387	city	10	1	1.492220	1.492220	0	1	0	0	CorrectCommission	0.747525	0.840109	0	0	6.682353e+01
159.327393	1.399545	city	2	1	1.305023	1.305023	0	1	0	0	CorrectCommission	0.187785	0.825297	0	0	6.652941e+01
160.673615	1.292906	city	5	1	1.006267	1.006267	0	1	0	0	CorrectCommission	0.705530	0.813281	0	0	6.623529e+01
161.959869	1.279592	city	8	1	1.472612	1.472612	0	1	0	0	CorrectCommission	0.688894	0.804101	0	0	6.594118e+01
163.259506	1.319711	city	7	1	1.071850	1.071850	0	1	0	0	CorrectCommission	0.509431	0.797540	0	0	6.564706e+01
164.599091	1.359455	city	10	1	0.887401	0.887401	0	1	0	0	CorrectCommission	1.060953	0.793220	1	0	6.535294e+01
165.938660	1.319663	city	6	1	1.594448	1.594448	0	1	0	0	CorrectCommission	1.053198	0.790762	1	0	6.505882e+01
167.271606	1.346227	city	9	1	1.062300	1.062300	0	1	0	0	CorrectCommission	0.537985	0.790004	1	0	6.476471e+01
168.591171	1.292924	city	6	1	0.822550	0.822550	0	1	0	0	CorrectCommission	1.254865	0.791130	1	0	6.447059e+01
169.904083	1.332876	city	5	1	0.991146	0.991146	0	1	0	0	CorrectCommission	0.750746	0.794711	1	0	6.417647e+01
171.251053	1.361090	city	6	1	1.847927	1.847927	0	1	0	0	CorrectCommission	1.811128	0.801651	0	0	6.388235e+01
172.603867	1.344526	city	1	1	1.245433	1.245433	0	1	0	0	CorrectCommission	0.009601	0.812902	0	0	6.358824e+01
173.935989	1.319730	city	8	1	1.436568	1.436568	0	1	0	0	CorrectCommission	0.581118	0.829256	0	0	6.329412e+01
174.595856	9.063526	break	0	0	0.000000	1.394810	0	0	0	0	ThoughtProbe	0.456257	0.850957	0	63	63
184.299225	1.279679	city	7	1	1.308877	1.308877	0	1	0	0	CorrectCommission	0.199308	0.877491	0	0	6.306522e+01
185.618866	1.359611	mountain	5	0	0.000000	1.367488	1	0	0	0	CorrectOmission	0.374560	0.907477	0	0	6.313043e+01
186.958389	1.319432	city	2	1	1.504194	1.504194	0	1	0	0	CorrectCommission	0.783327	0.938658	0	0	6.319565e+01
188.277893	1.319556	city	1	1	1.652547	1.652547	0	1	0	0	CorrectCommission	1.226920	0.968196	0	0	6.326087e+01
189.590790	1.306243	city	4	1	1.746659	1.746659	0	1	0	0	CorrectCommission	1.508326	0.993057	0	0	6.332609e+01
190.897064	1.306325	mountain	8	0	0.000000	1.733746	1	0	0	0	CorrectOmission	1.469714	1.010415	0	0	6.339130e+01
192.216629	1.332779	city	2	1	1.756958	1.756958	0	1	0	0	CorrectCommission	1.539121	1.018166	0	0	6.345652e+01
193.556152	1.346267	city	1	1	1.959446	1.959446	0	1	0	0	CorrectCommission	2.144583	1.015184	0	0	6.352174e+01
194.895706	1.332862	city	4	1	1.648927	1.648927	0	1	0	0	CorrectCommission	1.216097	1.001492	0	0	6.358696e+01
196.221924	1.319557	city	6	1	1.546584	1.546584	0	1	0	0	CorrectCommission	0.910080	0.978222	0	0	6.365217e+01
197.548187	1.332973	city	8	1	1.395728	1.395728	0	1	0	0	CorrectCommission	0.459002	0.947347	0	0	6.371739e+01
198.867828	1.306321	city	3	1	1.499468	1.499468	0	1	0	0	CorrectCommission	0.769198	0.911384	0	0	6.378261e+01
200.167450	1.292911	city	2	1	1.408532	1.408532	0	1	0	0	CorrectCommission	0.497287	0.873021	0	0	6.384783e+01
201.507019	1.386225	city	1	1	1.098509	1.098509	0	1	0	0	CorrectCommission	0.429717	0.834786	0	0	6.391304e+01
202.839905	1.279556	city	2	1	0.874731	0.874731	0	1	0	0	CorrectCommission	1.098838	0.798819	0	0	6.397826e+01
204.139481	1.319587	city	3	1	1.728327	1.728327	0	1	0	0	CorrectCommission	1.453512	0.766695	1	0	6.404348e+01
205.452377	1.306218	city	9	1	1.320462	1.320462	0	1	0	0	CorrectCommission	0.233948	0.739416	1	0	6.410870e+01
206.751892	1.292813	mountain	10	0	0.000000	1.361264	1	0	0	0	CorrectOmission	0.355950	0.717507	1	0	6.417391e+01
208.044724	1.292848	city	9	1	1.471984	1.471984	0	1	0	0	CorrectCommission	0.687017	0.701010	1	0	6.423913e+01
209.384262	1.386239	city	2	1	1.273875	1.273875	0	1	0	0	CorrectCommission	0.094648	0.689650	1	0	6.430435e+01
210.730484	1.306204	city	4	1	1.712893	1.712893	0	1	0	0	CorrectCommission	1.407362	0.682952	1	0	6.436957e+01
212.036713	1.306237	city	2	1	1.426118	1.426118	0	1	0	0	CorrectCommission	0.549872	0.680298	1	0	6.443478e+01
213.349625	1.319579	city	3	1	1.352750	1.352750	0	1	0	0	CorrectCommission	0.330493	0.681067	1	0	6.450000e+01
214.695847	1.372876	city	8	1	0.913738	0.913738	0	1	0	0	CorrectCommission	0.982203	0.684623	1	0	6.456522e+01
216.022110	1.279659	city	5	1	1.518062	1.518062	0	1	0	0	CorrectCommission	0.824795	0.690340	1	0	6.463043e+01
217.328415	1.332948	city	7	1	1.368757	1.368757	0	1	0	0	CorrectCommission	0.378354	0.697641	1	0	6.469565e+01
218.701324	1.412879	city	3	1	1.216094	1.216094	0	1	0	0	CorrectCommission	0.078124	0.705993	1	0	6.476087e+01
220.060928	1.306309	mountain	10	1	0.671149	0.671149	0	0	1	0	CommissionError	1.707572	0.714901	1	0	6.482609e+01
221.373749	1.319355	city	2	1	1.028026	1.028026	0	1	0	0	CorrectCommission	0.640469	0.723912	1	0	6.489130e+01
222.686630	1.306392	city	3	1	1.150965	1.150965	0	1	0	0	CorrectCommission	0.272867	0.732721	1	0	6.495652e+01
223.992966	1.306283	city	1	1	1.097510	1.097510	0	1	0	0	CorrectCommission	0.432704	0.741159	1	0	6.502174e+01
225.299210	1.306216	city	8	1	0.822972	0.822972	0	1	0	0	CorrectCommission	1.253603	0.749222	1	0	6.508696e+01
226.598694	1.292731	city	7	1	0.910652	0.910652	0	1	0	0	CorrectCommission	0.991431	0.757087	1	0	6.515217e+01
227.904922	1.319739	city	10	1	1.744612	1.744612	0	1	0	0	CorrectCommission	1.502205	0.765076	1	0	6.521739e+01
229.251160	1.372724	city	9	1	1.253458	1.253458	0	1	0	0	CorrectCommission	0.033600	0.773545	1	0	6.528261e+01
230.617279	1.359521	city	7	1	1.310994	1.310994	0	1	0	0	CorrectCommission	0.205638	0.782846	1	0	6.534783e+01
231.963486	1.332896	city	1	1	1.620863	1.620863	0	1	0	0	CorrectCommission	1.132181	0.793144	1	0	6.541304e+01
233.289795	1.319730	city	2	1	1.659665	1.659665	0	1	0	0	CorrectCommission	1.248205	0.804320	0	0	6.547826e+01
234.616135	1.332944	city	8	1	1.284687	1.284687	0	1	0	0	CorrectCommission	0.126977	0.815992	0	0	6.554348e+01
235.975601	1.385996	city	5	1	1.158861	1.158861	0	1	0	0	CorrectCommission	0.249258	0.827549	0	0	6.560870e+01
237.321732	1.306266	city	2	1	0.826274	0.826274	0	1	0	0	CorrectCommission	1.243732	0.838168	0	0	6.567391e+01
238.641296	1.332863	city	7	1	1.620931	1.620931	0	1	0	0	CorrectCommission	1.132384	0.847035	0	0	6.573913e+01
239.967529	1.319575	city	10	1	1.544686	1.544686	0	1	0	0	CorrectCommission	0.904404	0.853544	0	0	6.580435e+01
241.267181	1.279759	city	8	1	1.571442	1.571442	0	1	0	0	CorrectCommission	0.984407	0.857518	0	0	6.586957e+01
242.566849	1.319548	city	10	1	1.714416	1.714416	0	1	0	0	CorrectCommission	1.411916	0.859256	0	0	6.593478e+01
243.226624	9.943243	break	0	1	0.750939	0.750939	0	0	0	0	ThoughtProbe	1.468990	0.859546	0	66	66
253.816299	1.292895	city	1	1	1.093803	1.093803	0	1	0	0	CorrectCommission	0.443788	0.859603	0	0	6.577500e+01
255.122589	1.319682	city	2	1	1.450200	1.450200	0	1	0	0	CorrectCommission	0.621879	0.860892	0	0	6.555000e+01
256.448822	1.332781	city	5	1	1.011699	1.011699	0	1	0	0	CorrectCommission	0.689288	0.864841	0	0	6.532500e+01
257.761749	1.293089	city	9	1	1.297593	1.297593	0	1	0	0	CorrectCommission	0.165567	0.872549	0	0	6.510000e+01
259.061401	1.306218	city	7	1	1.150912	1.150912	0	1	0	0	CorrectCommission	0.273025	0.884661	0	0	6.487500e+01
260.380890	1.332758	city	6	1	0.779688	0.779688	0	1	0	0	CorrectCommission	1.383027	0.901184	0	0	6.465000e+01
261.707062	1.319585	city	4	1	1.690639	1.690639	0	1	0	0	CorrectCommission	1.340821	0.921471	0	0	6.442500e+01
263.053375	1.372987	mountain	5	0	0.000000	1.391583	1	0	0	0	CorrectOmission	0.446607	0.944322	0	0	6.420000e+01
264.406250	1.332811	city	5	1	1.040841	1.040841	0	1	0	0	CorrectCommission	0.602152	0.968185	0	0	6.397500e+01
265.745819	1.346322	city	7	1	1.796735	1.796735	0	1	0	0	CorrectCommission	1.658059	0.991264	0	0	6.375000e+01
267.078766	1.319585	city	10	1	1.620839	1.620839	0	1	0	0	CorrectCommission	1.132109	1.011760	0	0	6.352500e+01
268.405029	1.332896	city	4	1	1.677440	1.677440	0	1	0	0	CorrectCommission	1.301353	1.028065	0	0	6.330000e+01
269.724579	1.306231	city	3	1	1.864647	1.864647	0	1	0	0	CorrectCommission	1.861124	1.038820	0	0	6.307500e+01
271.037384	1.319386	city	6	1	1.382848	1.382848	0	1	0	0	CorrectCommission	0.420491	1.042992	0	0	6.285000e+01
272.350189	1.306233	mountain	2	0	0.000000	1.194945	1	0	0	0	CorrectOmission	0.141363	1.039993	0	0	6.262500e+01
273.656433	1.306246	city	1	1	1.439048	1.439048	0	1	0	0	CorrectCommission	0.588533	1.029619	0	0	6.240000e+01
274.976013	1.332918	city	5	1	2.253270	2.253270	0	1	0	0	CorrectCommission	3.023149	1.012092	0	0	6.217500e+01
276.315674	1.346411	city	1	1	1.760553	1.760553	0	1	0	0	CorrectCommission	1.549870	0.988060	0	0	6.195000e+01
277.661987	1.346166	city	7	1	1.434728	1.434728	0	1	0	0	CorrectCommission	0.575616	0.958694	0	0	6.172500e+01
279.028137	1.386154	city	3	1	1.365706	1.365706	0	1	0	0	CorrectCommission	0.369232	0.925554	0	0	6.150000e+01
280.400940	1.359448	mountain	1	0	0.000000	0.956115	1	0	0	0	CorrectOmission	0.855492	0.890506	0	0	6.127500e+01
281.740540	1.319756	city	1	1	0.744224	0.744224	0	1	0	0	CorrectCommission	1.489069	0.855589	0	0	6.105000e+01
283.060120	1.319394	city	8	1	1.268303	1.268303	0	1	0	0	CorrectCommission	0.077986	0.822899	0	0	6.082500e+01
284.412903	1.386196	city	5	1	1.622709	1.622709	0	1	0	0	CorrectCommission	1.137700	0.794390	1	0	6.060000e+01
285.745789	1.279585	city	8	1	1.407583	1.407583	0	1	0	0	CorrectCommission	0.494449	0.771620	1	0	6.037500e+01
287.025391	1.279569	city	2	1	1.444200	1.444200	0	1	0	0	CorrectCommission	0.603939	0.755691	1	0	6.015000e+01
288.305054	1.279767	city	9	1	1.294194	1.294194	0	1	0	0	CorrectCommission	0.155404	0.747069	1	0	5.992500e+01
289.584717	1.279557	city	2	1	1.603959	1.603959	0	1	0	0	CorrectCommission	1.081638	0.745523	1	0	5.970000e+01
290.877533	1.306101	city	1	1	1.308365	1.308365	0	1	0	0	CorrectCommission	0.197778	0.750119	1	0	5.947500e+01
292.183777	1.306371	city	2	1	1.163612	1.163612	0	1	0	0	CorrectCommission	0.235051	0.759393	1	0	5.925000e+01
293.476746	1.279601	city	9	1	0.927407	0.927407	0	1	0	0	CorrectCommission	0.941331	0.771452	1	0	5.902500e+01
294.756256	1.279399	city	6	1	0.762185	0.762185	0	1	0	0	CorrectCommission	1.435365	0.784166	1	0	5.880000e+01
296.035828	1.279736	city	4	1	1.657616	1.657616	0	1	0	0	CorrectCommission	1.242076	0.795462	0	0	5.857500e+01
297.315491	1.279580	city	7	1	1.550677	1.550677	0	1	0	0	CorrectCommission	0.922317	0.803495	0	0	5.835000e+01
298.594971	1.279419	city	2	1	1.305005	1.305005	0	1	0	0	CorrectCommission	0.187731	0.806828	0	0	5.812500e+01
299.874481	1.279576	city	8	1	1.021121	1.021121	0	1	0	0	CorrectCommission	0.661116	0.804558	0	0	5.790000e+01
301.154053	1.279579	city	4	1	1.678724	1.678724	0	1	0	0	CorrectCommission	1.305191	0.796333	0	0	5.767500e+01
302.433624	1.279578	city	2	1	0.697906	0.697906	0	1	0	0	CorrectCommission	1.627566	0.782366	1	0	5.745000e+01
303.726532	1.306238	city	7	1	1.536297	1.536297	0	1	0	0	CorrectCommission	0.879320	0.763308	1	0	5.722500e+01
304.379669	12.356120	break	0	1	1.027631	1.027631	0	0	0	0	ThoughtProbe	0.641650	0.740219	1	57	57
317.388824	1.306080	city	7	1	1.204162	1.204162	0	1	0	0	CorrectCommission	0.113803	0.714405	1	0	5.678261e+01
318.681732	1.279714	city	10	1	1.605136	1.605136	0	1	0	0	CorrectCommission	1.085156	0.687289	1	0	5.656522e+01
319.961365	1.279583	city	6	1	1.240360	1.240360	0	1	0	0	CorrectCommission	0.005566	0.660299	1	0	5.634783e+01
321.247528	1.292739	city	7	1	1.244060	1.244060	0	1	0	0	CorrectCommission	0.005497	0.634846	1	0	5.613043e+01
322.533752	1.279720	city	4	1	1.615308	1.615308	0	1	0	0	CorrectCommission	1.115570	0.612254	1	0	5.591304e+01
323.813354	1.279449	city	8	1	1.714679	1.714679	0	1	0	0	CorrectCommission	1.412702	0.593746	1	0	5.569565e+01
325.106262	1.306417	mountain	9	0	0.000000	1.530025	1	0	0	0	CorrectOmission	0.860564	0.580448	1	0	5.547826e+01
326.405945	1.292903	city	1	1	1.297195	1.297195	0	1	0	0	CorrectCommission	0.164378	0.573335	1	0	5.526087e+01
327.692169	1.279583	city	9	1	1.252042	1.252042	0	1	0	0	CorrectCommission	0.029365	0.573142	1	0	5.504348e+01
328.971680	1.279401	mountain	4	0	0.000000	1.299407	1	0	0	0	CorrectOmission	0.170992	0.580222	1	0	5.482609e+01
330.251251	1.279732	city	3	1	1.240331	1.240331	0	1	0	0	CorrectCommission	0.005653	0.594486	1	0	5.460870e+01
331.530823	1.279415	city	7	1	0.875854	0.875854	0	1	0	0	CorrectCommission	1.095480	0.615351	1	0	5.439130e+01
332.810394	1.279742	city	2	1	1.230795	1.230795	0	1	0	0	CorrectCommission	0.034167	0.641721	1	0	5.417391e+01
334.090057	1.279571	mountain	6	1	1.017628	1.017628	0	0	1	0	CommissionError	0.671560	0.672173	1	0	5.395652e+01
335.369629	1.279614	city	7	1	1.395796	1.395796	0	1	0	0	CorrectCommission	0.459205	0.705034	1	0	5.373913e+01
336.649231	1.279553	city	5	1	0.867505	0.867505	0	1	0	0	CorrectCommission	1.120444	0.738618	1	0	5.352174e+01
337.928802	1.279602	city	2	1	0.555675	0.555675	0	1	0	0	CorrectCommission	2.052854	0.771381	1	0	5.330435e+01
339.208374	1.279559	city	1	1	1.567866	1.567866	0	1	0	0	CorrectCommission	0.973715	0.802054	0	0	5.308696e+01
340.487976	1.279602	city	2	1	1.358359	1.358359	0	1	0	0	CorrectCommission	0.347264	0.829743	0	0	5.286957e+01
341.767517	1.279486	city	7	1	1.070668	1.070668	0	1	0	0	CorrectCommission	0.512964	0.853883	0	0	5.265217e+01
343.046997	1.279506	city	5	1	1.312481	1.312481	0	1	0	0	CorrectCommission	0.210084	0.874195	0	0	5.243478e+01
344.326538	1.279556	city	10	1	0.822190	0.822190	0	1	0	0	CorrectCommission	1.255943	0.890657	0	0	5.221739e+01
345.606110	1.279577	mountain	7	1	0.751130	0.751130	0	0	1	0	CommissionError	1.468421	0.903442	0	0	52
346.885681	1.279583	city	2	1	1.189750	1.189750	0	1	0	0	CorrectCommission	0.156895	0.912932	0	0	5.178261e+01
348.165253	1.279576	city	6	1	0.658668	0.658668	0	1	0	0	CorrectCommission	1.744893	0.919742	0	0	5.156522e+01
349.444946	1.279817	city	3	1	1.724356	1.724356	0	1	0	0	CorrectCommission	1.441637	0.924644	0	0	5.134783e+01
350.724548	1.279347	city	5	1	1.678764	1.678764	0	1	0	0	CorrectCommission	1.305313	0.928545	0	0	5.113043e+01
352.004089	1.279737	city	6	1	1.459485	1.459485	0	1	0	0	CorrectCommission	0.649643	0.932358	0	0	5.091304e+01
353.296997	1.306074	city	4	1	1.386712	1.386712	0	1	0	0	CorrectCommission	0.432044	0.936879	0	0	5.069565e+01
354.589905	1.279747	city	3	1	1.177647	1.177647	0	1	0	0	CorrectCommission	0.193084	0.942614	0	0	5.047826e+01
355.869568	1.279579	city	4	1	1.409663	1.409663	0	1	0	0	CorrectCommission	0.500671	0.949677	0	0	5.026087e+01
357.149139	1.279575	city	2	1	0.978669	0.978669	0	1	0	0	CorrectCommission	0.788054	0.957722	0	0	5.004348e+01
358.428619	1.279415	city	5	1	0.547337	0.547337	0	1	0	0	CorrectCommission	2.077784	0.966004	0	0	4.982609e+01
359.741455	1.346237	city	8	1	1.777210	1.777210	0	1	0	0	CorrectCommission	1.599678	0.973441	0	0	4.960870e+01
361.054352	1.279572	city	5	1	1.502155	1.502155	0	1	0	0	CorrectCommission	0.777232	0.978831	0	0	4.939130e+01
362.334015	1.279736	city	2	1	1.178019	1.178019	0	1	0	0	CorrectCommission	0.191972	0.980957	0	0	4.917391e+01
363.613678	1.279574	city	6	1	0.973507	0.973507	0	1	0	0	CorrectCommission	0.803488	0.978771	0	0	4.895652e+01
364.893158	1.279423	city	4	1	0.754351	0.754351	0	1	0	0	CorrectCommission	1.458787	0.971505	0	0	4.873913e+01
366.172668	1.279605	city	1	1	0.595896	0.595896	0	1	0	0	CorrectCommission	1.932588	0.958753	0	0	4.852174e+01
367.459015	1.293050	city	6	1	1.627196	1.627196	0	1	0	0	CorrectCommission	1.151117	0.940546	0	0	4.830435e+01
368.745239	1.279407	city	5	1	1.497365	1.497365	0	1	0	0	CorrectCommission	0.762908	0.917377	0	0	4.808696e+01
370.024719	1.279581	city	1	1	1.342789	1.342789	0	1	0	0	CorrectCommission	0.300710	0.890122	0	0	4.786957e+01
371.304321	1.279579	city	6	1	1.502975	1.502975	0	1	0	0	CorrectCommission	0.779683	0.860010	0	0	4.765217e+01
372.583893	1.279577	city	2	1	1.140570	1.140570	0	1	0	0	CorrectCommission	0.303950	0.828532	0	0	4.743478e+01
373.863464	1.279579	city	8	1	1.840698	1.840698	0	1	0	0	CorrectCommission	1.789512	0.797357	0	0	4.721739e+01
374.503265	14.035565	break	0	1	0.860600	0.860600	0	0	0	0	ThoughtProbe	1.141091	0.768206	1	47	47
389.178528	1.279402	city	6	1	1.518033	1.518033	0	1	0	0	CorrectCommission	0.824710	0.742738	1	0	4.702941e+01
390.458099	1.279742	city	9	1	1.124326	1.124326	0	1	0	0	CorrectCommission	0.352521	0.722382	1	0	4.705882e+01
391.737671	1.279412	city	7	1	1.300919	1.300919	0	1	0	0	CorrectCommission	0.175513	0.708127	1	0	4.708824e+01
393.017181	1.279577	mountain	4	0	0.000000	1.294655	1	0	0	0	CorrectOmission	0.156783	0.700405	1	0	4.711765e+01
394.296753	1.279582	city	7	1	1.189894	1.189894	0	1	0	0	CorrectCommission	0.156466	0.698961	1	0	4.714706e+01
395.576355	1.279607	city	5	1	1.070995	1.070995	0	1	0	0	CorrectCommission	0.511987	0.702843	1	0	4.717647e+01
396.862671	1.293020	city	7	1	1.743394	1.743394	0	1	0	0	CorrectCommission	1.498565	0.710485	1	0	4.720588e+01
398.148987	1.279621	city	5	1	1.560684	1.560684	0	1	0	0	CorrectCommission	0.952240	0.719890	1	0	4.723529e+01
399.428589	1.279576	city	4	1	1.242395	1.242395	0	1	0	0	CorrectCommission	0.000519	0.728901	1	0	4.726471e+01
400.708069	1.279412	mountain	10	0	0.000000	1.455897	1	0	0	0	CorrectOmission	0.638916	0.735524	1	0	4.729412e+01
401.987640	1.279750	city	1	1	1.764075	1.764075	0	1	0	0	CorrectCommission	1.560401	0.738134	1	0	4.732353e+01
403.267242	1.279404	city	5	1	1.729811	1.729811	0	1	0	0	CorrectCommission	1.457947	0.735702	1	0	4.735294e+01
404.546722	1.279571	city	2	1	1.497531	1.497531	0	1	0	0	CorrectCommission	0.763404	0.727916	1	0	4.738235e+01
405.826294	1.279599	city	9	1	1.507152	1.507152	0	1	0	0	CorrectCommission	0.792173	0.715187	1	0	4.741176e+01
407.105957	1.279724	city	7	1	1.080928	1.080928	0	1	0	0	CorrectCommission	0.482287	0.698513	1	0	4.744118e+01
408.405609	1.319567	city	4	1	1.138585	1.138585	0	1	0	0	CorrectCommission	0.309884	0.679324	1	0	4.747059e+01
409.705109	1.279415	city	9	1	1.613957	1.613957	0	1	0	0	CorrectCommission	1.111532	0.659248	1	0	4.750000e+01
410.984589	1.279588	city	5	1	1.358580	1.358580	0	1	0	0	CorrectCommission	0.347926	0.639890	1	0	4.752941e+01
412.297913	1.347028	city	3	1	1.207260	1.207260	0	1	0	0	CorrectCommission	0.104539	0.622711	1	0	4.755882e+01
413.644135	1.345409	city	5	1	1.095475	1.095475	0	1	0	0	CorrectCommission	0.438788	0.608867	1	0	4.758824e+01
415.003357	1.373046	city	9	1	1.687136	1.687136	0	1	0	0	CorrectCommission	1.330345	0.599138	1	0	4.761765e+01
416.356354	1.332950	city	4	1	1.237825	1.237825	0	1	0	0	CorrectCommission	0.013146	0.593969	1	0	4.764706e+01
417.709229	1.372823	city	9	1	1.007259	1.007259	0	1	0	0	CorrectCommission	0.702564	0.593542	1	0	4.767647e+01
419.035431	1.279584	city	10	1	1.027592	1.027592	0	1	0	0	CorrectCommission	0.641767	0.597763	1	0	4.770588e+01
420.354919	1.359397	city	3	1	1.150814	1.150814	0	1	0	0	CorrectCommission	0.273318	0.606324	1	0	4.773529e+01
421.707825	1.346414	city	2	1	1.514446	1.514446	0	1	0	0	CorrectCommission	0.813983	0.618750	1	0	4.776471e+01
423.034058	1.306059	city	7	1	1.427294	1.427294	0	1	0	0	CorrectCommission	0.553387	0.634369	1	0	4.779412e+01
424.360291	1.346390	city	4	1	1.287027	1.287027	0	1	0	0	CorrectCommission	0.133973	0.652352	1	0	4.782353e+01
425.693268	1.319565	city	8	1	1.654109	1.654109	0	1	0	0	CorrectCommission	1.231591	0.671726	1	0	4.785294e+01
427.026093	1.346041	city	4	1	1.532121	1.532121	0	1	0	0	CorrectCommission	0.866832	0.691368	1	0	4.788235e+01
428.358917	1.319613	city	10	1	1.185920	1.185920	0	1	0	0	CorrectCommission	0.168347	0.710165	1	0	4.791176e+01
429.671875	1.306347	city	3	1	1.278934	1.278934	0	1	0	0	CorrectCommission	0.109776	0.727066	1	0	4.794118e+01
430.998108	1.346071	city	7	1	1.635794	1.635794	0	1	0	0	CorrectCommission	1.176828	0.741164	1	0	4.797059e+01
431.671143	11.356281	break	0	1	0.644599	0.644599	0	0	0	0	ThoughtProbe	1.786959	0.751849	1	48	48
443.667267	1.279736	mountain	10	0	0.000000	0.859590	1	0	0	0	CorrectOmission	1.144112	0.758912	1	0	4.790000e+01
444.960175	1.306081	city	6	1	1.339733	1.339733	0	1	0	0	CorrectCommission	0.291572	0.762578	1	0	4.780000e+01
446.259674	1.292876	city	8	1	1.143995	1.143995	0	1	0	0	CorrectCommission	0.293708	0.763454	1	0	4.770000e+01
447.579468	1.346725	city	5	1	0.676147	0.676147	0	1	0	0	CorrectCommission	1.692628	0.762430	1	0	4.760000e+01
448.899109	1.292577	city	2	1	1.498080	1.498080	0	1	0	0	CorrectCommission	0.765045	0.760484	1	0	4.750000e+01
450.205200	1.319573	city	8	1	1.344954	1.344954	0	1	0	0	CorrectCommission	0.307181	0.758598	1	0	4.740000e+01
451.511414	1.292896	mountain	4	0	0.000000	1.156719	1	0	0	0	CorrectOmission	0.255661	0.757536	1	0	4.730000e+01
452.804199	1.292636	city	4	1	1.187644	1.187644	0	1	0	0	CorrectCommission	0.163194	0.757743	1	0	4.720000e+01
454.123779	1.346520	city	8	1	1.691993	1.691993	0	1	0	0	CorrectCommission	1.344867	0.759319	1	0	4.710000e+01
455.463470	1.332852	city	5	1	1.116793	1.116793	0	1	0	0	CorrectCommission	0.375046	0.762034	1	0	47
456.803009	1.346242	city	3	1	1.755163	1.755163	0	1	0	0	CorrectCommission	1.533755	0.765476	1	0	4.690000e+01
458.149170	1.346067	city	5	1	1.559052	1.559052	0	1	0	0	CorrectCommission	0.947359	0.769052	1	0	4.680000e+01
459.508636	1.372881	city	7	1	1.049771	1.049771	0	1	0	0	CorrectCommission	0.575448	0.772192	1	0	4.670000e+01
460.848267	1.306388	city	10	1	1.606704	1.606704	0	1	0	0	CorrectCommission	1.089843	0.774349	1	0	4.660000e+01
462.147919	1.292937	city	4	1	1.369964	1.369964	0	1	0	0	CorrectCommission	0.381963	0.775051	1	0	4.650000e+01
463.487488	1.386191	city	8	1	1.004739	1.004739	0	1	0	0	CorrectCommission	0.710100	0.773959	1	0	4.640000e+01
464.840393	1.319583	city	9	1	1.516870	1.516870	0	1	0	0	CorrectCommission	0.821232	0.770830	1	0	4.630000e+01
466.193237	1.386123	city	7	1	1.206420	1.206420	0	1	0	0	CorrectCommission	0.107052	0.765621	1	0	4.620000e+01
467.532776	1.292982	mountain	1	0	0.000000	0.829666	1	0	0	0	CorrectOmission	1.233588	0.758562	1	0	4.610000e+01
468.825714	1.292903	city	3	1	0.820903	0.820903	0	1	0	0	CorrectCommission	1.259790	0.750210	1	0	46
470.118591	1.292812	city	5	1	1.614425	1.614425	0	1	0	0	CorrectCommission	1.112933	0.741601	1	0	4.590000e+01
471.424744	1.319500	city	2	1	1.350267	1.350267	0	1	0	0	CorrectCommission	0.323070	0.734195	1	0	4.580000e+01
472.751038	1.333083	city	5	1	0.960641	0.960641	0	1	0	0	CorrectCommission	0.841957	0.729873	1	0	4.570000e+01
474.070587	1.306054	city	10	1	0.941065	0.941065	0	1	0	0	CorrectCommission	0.900494	0.730729	1	0	4.560000e+01
475.410156	1.373033	city	3	1	1.499259	1.499259	0	1	0	0	CorrectCommission	0.768571	0.738822	1	0	4.550000e+01
476.776367	1.359396	city	10	1	1.272974	1.272974	0	1	0	0	CorrectCommission	0.091953	0.755797	1	0	4.540000e+01
478.115845	1.319565	city	6	1	1.221436	1.221436	0	1	0	0	CorrectCommission	0.062150	0.782612	1	0	4.530000e+01
479.428741	1.306265	city	3	1	0.949865	0.949865	0	1	0	0	CorrectCommission	0.874178	0.819244	0	0	4.520000e+01
480.734985	1.306208	city	2	1	1.143021	1.143021	0	1	0	0	CorrectCommission	0.296620	0.864508	0	0	4.510000e+01
482.034546	1.292914	city	6	1	0.950929	0.950929	0	1	0	0	CorrectCommission	0.870999	0.916139	0	0	45
483.327484	1.292980	city	5	1	1.366370	1.366370	0	1	0	0	CorrectCommission	0.371219	0.970919	0	0	4.490000e+01
484.633759	1.319518	city	8	1	0.932666	0.932666	0	1	0	0	CorrectCommission	0.925606	1.025126	0	0	4.480000e+01
485.953369	1.319701	city	10	1	0.806076	0.806076	0	1	0	0	CorrectCommission	1.304125	1.074940	0	0	4.470000e+01
487.286316	1.346218	city	7	1	0.508526	0.508526	0	1	0	0	CorrectCommission	2.193834	1.117003	0	0	4.460000e+01
488.625916	1.332952	city	2	1	0.577660	0.577660	0	1	0	0	CorrectCommission	1.987115	1.148809	0	0	4.450000e+01
489.958710	1.332680	city	4	1	0.540438	0.540438	0	1	0	0	CorrectCommission	2.098413	1.169008	0	0	4.440000e+01
491.278259	1.306392	city	1	1	0.591972	0.591972	0	1	0	0	CorrectCommission	1.944320	1.177434	0	0	4.430000e+01
492.604584	1.346257	city	5	1	1.084205	1.084205	0	1	0	0	CorrectCommission	0.472488	1.174939	0	0	4.420000e+01
493.937408	1.319380	city	9	1	1.194293	1.194293	0	1	0	0	CorrectCommission	0.143312	1.163122	0	0	4.410000e+01
494.597076	14.182075	break	0	1	0.600912	0.600912	0	0	0	0	ThoughtProbe	1.917588	1.143876	0	44	44
509.452332	1.346325	city	2	1	1.308223	1.308223	0	1	0	0	CorrectCommission	0.197352	1.118974	0	0	4.394118e+01
510.818573	1.386159	city	8	1	1.097545	1.097545	0	1	0	0	CorrectCommission	0.432599	1.089935	0	0	4.388235e+01
512.178040	1.332769	city	6	1	0.706883	0.706883	0	1	0	0	CorrectCommission	1.600722	1.057799	0	0	4.382353e+01
513.504211	1.319564	mountain	4	1	0.567749	0.567749	0	0	1	0	CommissionError	2.016750	1.023214	0	0	4.376471e+01
514.823853	1.319731	city	7	1	1.502642	1.502642	0	1	0	0	CorrectCommission	0.778688	0.986573	0	0	4.370588e+01
516.163391	1.359390	city	3	1	0.977871	0.977871	0	1	0	0	CorrectCommission	0.790438	0.948224	0	0	4.364706e+01
517.489624	1.293091	city	4	1	1.746412	1.746412	0	1	0	0	CorrectCommission	1.507588	0.908604	0	0	4.358824e+01
518.802612	1.332899	city	7	1	1.576724	1.576724	0	1	0	0	CorrectCommission	1.000200	0.868348	0	0	4.352941e+01
520.135498	1.332873	city	10	1	1.511491	1.511491	0	1	0	0	CorrectCommission	0.805146	0.828306	0	0	4.347059e+01
521.455017	1.306141	city	3	1	1.446848	1.446848	0	1	0	0	CorrectCommission	0.611858	0.789429	1	0	4.341176e+01
522.794495	1.372812	city	1	1	1.266366	1.266366	0	1	0	0	CorrectCommission	0.072195	0.752659	1	0	4.335294e+01
524.127380	1.292925	city	6	1	1.326233	1.326233	0	1	0	0	CorrectCommission	0.251205	0.718787	1	0	4.329412e+01
525.453613	1.359545	city	3	1	0.966199	0.966199	0	1	0	0	CorrectCommission	0.825339	0.688339	1	0	4.323529e+01
526.799927	1.333047	city	5	1	1.096958	1.096958	0	1	0	0	CorrectCommission	0.434354	0.661543	1	0	4.317647e+01
528.126160	1.319411	city	10	1	0.823893	0.823893	0	1	0	0	CorrectCommission	1.250850	0.638430	1	0	4.311765e+01
529.445618	1.319576	mountain	6	1	0.957949	0.957949	0	0	1	0	CommissionError	0.850007	0.618891	1	0	4.305882e+01
530.811890	1.412995	city	6	1	1.187041	1.187041	0	1	0	0	CorrectCommission	0.164996	0.602870	1	0	43
532.191528	1.346263	city	8	1	0.866794	0.866794	0	1	0	0	CorrectCommission	1.122571	0.590512	1	0	4.294118e+01
533.544434	1.359531	city	7	1	1.364212	1.364212	0	1	0	0	CorrectCommission	0.364766	0.582292	1	0	4.288235e+01
534.897339	1.346243	city	8	1	1.240855	1.240855	0	1	0	0	CorrectCommission	0.004087	0.579247	1	0	4.282353e+01
536.270142	1.399386	city	5	1	1.247151	1.247151	0	1	0	0	CorrectCommission	0.014739	0.583058	1	0	4.276471e+01
537.643005	1.346359	city	6	1	1.070107	1.070107	0	1	0	0	CorrectCommission	0.514643	0.596082	1	0	4.270588e+01
538.969299	1.306257	city	8	1	0.738817	0.738817	0	1	0	0	CorrectCommission	1.505238	0.621450	1	0	4.264706e+01
540.288818	1.332709	city	7	1	1.633503	1.633503	0	1	0	0	CorrectCommission	1.169976	0.662942	1	0	4.258824e+01
541.641602	1.372929	city	6	1	1.248210	1.248210	0	1	0	0	CorrectCommission	0.017905	0.724788	1	0	4.252941e+01
542.994507	1.332860	city	4	1	1.216415	1.216415	0	1	0	0	CorrectCommission	0.077165	0.811321	0	0	4.247059e+01
544.314087	1.306260	city	2	1	1.050348	1.050348	0	1	0	0	CorrectCommission	0.573722	0.926508	0	0	4.241176e+01
545.620361	1.306350	city	1	1	1.243292	1.243292	0	1	0	0	CorrectCommission	0.003201	1.073382	0	0	4.235294e+01
546.919922	1.292777	city	6	1	1.416318	1.416318	0	1	0	0	CorrectCommission	0.520570	1.253497	0	0	4.229412e+01
548.226196	1.319710	city	9	1	1.529075	1.529075	0	1	0	0	CorrectCommission	0.857724	1.466433	0	0	4.223529e+01
549.552429	1.332735	city	3	1	1.626690	1.626690	0	1	0	0	CorrectCommission	1.149606	1.709504	0	0	4.217647e+01
550.891907	1.346244	city	4	1	1.544011	1.544011	0	1	0	0	CorrectCommission	0.902386	1.977735	0	0	4.211765e+01
552.291565	1.453062	city	8	1	0.965054	0.965054	0	1	0	0	CorrectCommission	0.828762	2.264077	0	0	4.205882e+01
553.018066	12.142689	break	0	0	0.000000	0.386097	0	0	0	0	ThoughtProbe	2.559910	2.559910	0	42	42
