onset	duration	trial_type	image_type	Press	ReactionTime	ReactionTime_Interpolated	CorrectOmission	CorrectCommission	CommissionError	OmissionError	response_type	nonsmoothVarianceTimeCourse	VarianceTimeCourse	In_the_Zone	ThoughtProbe	ThoughtProbe_Interpolated
0.652986	1.279549	city	2	1	1.176679	1.176679	0	1	0	0	CorrectCommission	0.165667	0.165667	1	0	70
1.932549	1.279578	city	6	1	1.085673	1.085673	0	1	0	0	CorrectCommission	0.221859	0.245758	1	0	70
3.212129	1.279582	mountain	7	0	0.000000	1.210122	1	0	0	0	CorrectOmission	0.308075	0.323332	1	0	70
4.491707	1.279574	city	7	1	1.305555	1.305555	0	1	0	0	CorrectCommission	0.714454	0.395960	1	0	70
5.771285	1.279582	city	8	1	1.127502	1.127502	0	1	0	0	CorrectCommission	0.043738	0.461398	1	0	70
7.050869	1.279586	city	5	1	0.858370	0.858370	0	1	0	0	CorrectCommission	1.189766	0.517757	1	0	70
8.343708	1.306093	city	7	1	1.008092	1.008092	0	1	0	0	CorrectCommission	0.552215	0.563536	1	0	70
9.636615	1.279721	city	1	1	1.017857	1.017857	0	1	0	0	CorrectCommission	0.510633	0.597870	1	0	70
10.916277	1.279602	city	3	1	0.872057	0.872057	0	1	0	0	CorrectCommission	1.131485	0.620577	1	0	70
12.195868	1.279580	city	5	1	0.712047	0.712047	0	1	0	0	CorrectCommission	1.812845	0.632232	1	0	70
13.475444	1.279572	city	1	1	0.929690	0.929690	0	1	0	0	CorrectCommission	0.886070	0.634127	1	0	70
14.755017	1.279575	mountain	5	0	0.000000	1.072724	1	0	0	0	CorrectOmission	0.276998	0.628210	1	0	70
16.034597	1.279585	city	10	1	1.178411	1.178411	0	1	0	0	CorrectCommission	0.173043	0.616835	1	0	70
17.314182	1.279582	city	2	1	1.284014	1.284014	0	1	0	0	CorrectCommission	0.622726	0.602526	1	0	70
18.593760	1.279575	city	7	1	1.236277	1.236277	0	1	0	0	CorrectCommission	0.419449	0.587677	1	0	70
19.873293	1.279489	city	4	1	1.285123	1.285123	0	1	0	0	CorrectCommission	0.627446	0.574327	1	0	70
21.159525	1.292977	city	10	1	1.049628	1.049628	0	1	0	0	CorrectCommission	0.375347	0.563945	1	0	70
22.445812	1.279599	city	3	1	1.284162	1.284162	0	1	0	0	CorrectCommission	0.623356	0.557364	1	0	70
23.725378	1.279530	city	7	1	1.177491	1.177491	0	1	0	0	CorrectCommission	0.169124	0.554730	1	0	70
25.004957	1.279630	city	1	1	1.036943	1.036943	0	1	0	0	CorrectCommission	0.429360	0.555619	1	0	70
26.284555	1.279565	mountain	6	1	1.230165	1.230165	0	0	1	0	CommissionError	0.393424	0.559170	1	0	70
27.564123	1.279571	city	7	1	1.283757	1.283757	0	1	0	0	CorrectCommission	0.621633	0.564327	1	0	70
28.843695	1.279573	city	1	1	1.250000	1.250000	0	1	0	0	CorrectCommission	0.477884	0.570028	1	0	70
30.123283	1.279605	city	10	1	1.342657	1.342657	0	1	0	0	CorrectCommission	0.872443	0.575433	1	0	70
31.402815	1.279458	city	2	1	1.554416	1.554416	0	1	0	0	CorrectCommission	1.774162	0.580043	1	0	70
32.682388	1.279685	city	3	1	1.182776	1.182776	0	1	0	0	CorrectCommission	0.191632	0.583757	1	0	70
33.961937	1.279414	city	9	1	1.045505	1.045505	0	1	0	0	CorrectCommission	0.392903	0.586899	1	0	70
35.241497	1.279709	city	4	1	1.075215	1.075215	0	1	0	0	CorrectCommission	0.266388	0.589980	1	0	70
36.521168	1.279629	city	7	1	1.303226	1.303226	0	1	0	0	CorrectCommission	0.704534	0.593608	1	0	70
37.800774	1.279584	city	9	1	1.088670	1.088670	0	1	0	0	CorrectCommission	0.209096	0.598330	1	0	70
39.087009	1.292886	city	1	1	1.001222	1.001222	0	1	0	0	CorrectCommission	0.581469	0.604551	1	0	70
40.373249	1.279597	city	3	1	1.201113	1.201113	0	1	0	0	CorrectCommission	0.269715	0.612444	1	0	70
41.659492	1.292888	mountain	5	0	0.000000	1.302517	1	0	0	0	CorrectOmission	0.701516	0.622036	1	0	70
42.945724	1.279577	city	4	1	1.349959	1.349959	0	1	0	0	CorrectCommission	0.903535	0.633272	1	0	70
44.225281	1.279532	city	7	1	1.387965	1.387965	0	1	0	0	CorrectCommission	1.065374	0.646107	1	0	70
45.504707	1.279321	city	6	1	1.286343	1.286343	0	1	0	0	CorrectCommission	0.632643	0.660568	1	0	70
46.784195	1.279656	city	10	1	1.242443	1.242443	0	1	0	0	CorrectCommission	0.445707	0.676806	1	0	70
48.063934	1.279822	city	8	1	1.396535	1.396535	0	1	0	0	CorrectCommission	1.101866	0.694999	1	0	70
49.350288	1.292891	city	3	1	1.200773	1.200773	0	1	0	0	CorrectCommission	0.268265	0.715268	1	0	70
50.636536	1.279603	city	7	1	1.032733	1.032733	0	1	0	0	CorrectCommission	0.447287	0.737587	1	0	70
51.916119	1.279559	city	6	1	0.860426	0.860426	0	1	0	0	CorrectCommission	1.181011	0.761644	1	0	70
53.195686	1.279579	city	2	1	1.093770	1.093770	0	1	0	0	CorrectCommission	0.187377	0.786790	1	0	70
54.475269	1.279587	city	5	1	1.076231	1.076231	0	1	0	0	CorrectCommission	0.262063	0.812136	1	0	70
55.761524	1.292919	city	10	1	1.210390	1.210390	0	1	0	0	CorrectCommission	0.309217	0.836639	0	0	70
57.047756	1.279549	city	1	1	1.547062	1.547062	0	1	0	0	CorrectCommission	1.742847	0.859303	0	0	70
61.472973	7.570885	break	0	0	0.000000	1.625228	0	0	0	0	ThoughtProbe	2.075697	0.879368	0	70	70
65.898193	1.279554	city	6	1	1.495753	1.495753	0	1	0	0	CorrectCommission	1.524359	0.896508	0	0	7.002941e+01
67.184380	1.292823	city	5	1	1.209500	1.209500	0	1	0	0	CorrectCommission	0.305426	0.910938	0	0	7.005882e+01
68.477211	1.292840	mountain	6	1	1.008674	1.008674	0	0	1	0	CommissionError	0.549736	0.923320	0	0	7.008824e+01
69.763496	1.279721	city	6	1	1.446772	1.446772	0	1	0	0	CorrectCommission	1.315786	0.934610	0	0	7.011765e+01
71.043076	1.279447	city	10	1	1.342564	1.342564	0	1	0	0	CorrectCommission	0.872045	0.945783	0	0	7.014706e+01
72.329338	1.293064	city	8	1	1.102743	1.102743	0	1	0	0	CorrectCommission	0.149172	0.957675	0	0	7.017647e+01
73.615646	1.279563	city	7	1	0.965177	0.965177	0	1	0	0	CorrectCommission	0.734959	0.970682	0	0	7.020588e+01
74.901833	1.292810	city	3	1	0.941642	0.941642	0	1	0	0	CorrectCommission	0.835177	0.984675	0	0	7.023529e+01
76.188072	1.279673	city	8	1	0.911744	0.911744	0	1	0	0	CorrectCommission	0.962486	0.999012	0	0	7.026471e+01
77.467697	1.279577	city	10	1	0.712127	0.712127	0	1	0	0	CorrectCommission	1.812506	1.012627	0	0	7.029412e+01
78.747284	1.279597	city	7	1	0.866222	0.866222	0	1	0	0	CorrectCommission	1.156331	1.024197	0	0	7.032353e+01
80.026871	1.279562	city	3	1	0.911618	0.911618	0	1	0	0	CorrectCommission	0.963026	1.032437	0	0	7.035294e+01
81.306442	1.279583	city	6	1	0.858428	0.858428	0	1	0	0	CorrectCommission	1.189522	1.036271	0	0	7.038235e+01
82.599350	1.306232	city	1	1	0.879782	0.879782	0	1	0	0	CorrectCommission	1.098590	1.034994	0	0	7.041176e+01
83.898926	1.292928	city	8	1	0.960558	0.960558	0	1	0	0	CorrectCommission	0.754626	1.028463	0	0	7.044118e+01
85.191849	1.292914	city	7	1	0.876432	0.876432	0	1	0	0	CorrectCommission	1.112855	1.017121	0	0	7.047059e+01
86.484688	1.292771	city	8	1	0.724184	0.724184	0	1	0	0	CorrectCommission	1.761166	1.001913	0	0	7.050000e+01
87.784248	1.306349	city	1	1	0.849851	0.849851	0	1	0	0	CorrectCommission	1.226045	0.984230	0	0	7.052941e+01
89.083878	1.292901	city	6	1	0.980026	0.980026	0	1	0	0	CorrectCommission	0.671727	0.965736	0	0	7.055882e+01
90.376755	1.292855	city	2	1	0.922772	0.922772	0	1	0	0	CorrectCommission	0.915531	0.948118	0	0	7.058824e+01
91.689659	1.332955	city	3	1	0.950093	0.950093	0	1	0	0	CorrectCommission	0.799189	0.932809	0	0	7.061765e+01
92.995926	1.279583	city	4	1	1.139313	1.139313	0	1	0	0	CorrectCommission	0.006556	0.920807	0	0	7.064706e+01
94.282135	1.292831	city	7	1	0.827321	0.827321	0	1	0	0	CorrectCommission	1.321984	0.912513	0	0	7.067647e+01
95.568344	1.279585	mountain	5	0	0.000000	1.182888	1	0	0	0	CorrectOmission	0.192109	0.907615	0	0	7.070588e+01
96.847969	1.279671	city	10	1	1.517597	1.517597	0	1	0	0	CorrectCommission	1.617378	0.905218	0	0	7.073529e+01
98.127586	1.279554	city	8	1	1.143027	1.143027	0	1	0	0	CorrectCommission	0.022369	0.903871	0	0	7.076471e+01
99.413811	1.292906	city	6	1	0.894143	0.894143	0	1	0	0	CorrectCommission	1.037439	0.901897	0	0	7.079412e+01
100.700066	1.279606	city	8	1	0.710298	0.710298	0	1	0	0	CorrectCommission	1.820295	0.897583	0	0	7.082353e+01
101.979614	1.279490	city	5	1	0.814926	0.814926	0	1	0	0	CorrectCommission	1.374763	0.889444	0	0	7.085294e+01
103.265839	1.292946	city	2	1	1.001435	1.001435	0	1	0	0	CorrectCommission	0.580564	0.876510	0	0	7.088235e+01
104.552124	1.279625	city	7	1	0.879375	0.879375	0	1	0	0	CorrectCommission	1.100325	0.858415	0	0	7.091176e+01
105.838341	1.292814	city	2	1	0.944784	0.944784	0	1	0	0	CorrectCommission	0.821797	0.835434	0	0	7.094118e+01
107.124504	1.279507	city	6	1	1.190218	1.190218	0	1	0	0	CorrectCommission	0.223320	0.808529	1	0	7.097059e+01
110.956612	6.384718	break	0	0	0.000000	1.435254	0	0	0	0	ThoughtProbe	1.266740	0.779242	1	71	71
114.788765	1.279593	city	4	1	1.494603	1.494603	0	1	0	0	CorrectCommission	1.519462	0.749459	1	0	7.076087e+01
116.088333	1.319540	city	1	1	1.182977	1.182977	0	1	0	0	CorrectCommission	0.192488	0.721297	1	0	7.052174e+01
117.387901	1.279587	city	4	1	1.236192	1.236192	0	1	0	0	CorrectCommission	0.419090	0.696910	1	0	7.028261e+01
118.674080	1.292770	city	5	1	0.988463	0.988463	0	1	0	0	CorrectCommission	0.635802	0.678194	1	0	7.004348e+01
119.966934	1.292949	mountain	1	0	0.000000	1.034146	1	0	0	0	CorrectOmission	0.441271	0.666628	1	0	6.980435e+01
121.253273	1.279723	mountain	6	0	0.000000	1.189045	1	0	0	0	CorrectOmission	0.218325	0.663148	1	0	6.956522e+01
122.559555	1.332842	city	4	1	1.268962	1.268962	0	1	0	0	CorrectCommission	0.558629	0.668052	1	0	6.932609e+01
123.865738	1.279521	city	10	1	1.089698	1.089698	0	1	0	0	CorrectCommission	0.204717	0.680961	1	0	6.908696e+01
125.145317	1.279644	city	5	1	1.091880	1.091880	0	1	0	0	CorrectCommission	0.195427	0.700898	1	0	6.884783e+01
126.424850	1.279417	city	3	1	0.856808	0.856808	0	1	0	0	CorrectCommission	1.196419	0.726439	1	0	6.860870e+01
127.717682	1.306248	city	5	1	0.740506	0.740506	0	1	0	0	CorrectCommission	1.691660	0.755820	1	0	6.836957e+01
129.010590	1.279575	city	4	1	1.018490	1.018490	0	1	0	0	CorrectCommission	0.507939	0.787151	1	0	6.813043e+01
130.303589	1.306416	city	10	1	0.929529	0.929529	0	1	0	0	CorrectCommission	0.886756	0.818549	1	0	6.789130e+01
131.603821	1.294055	city	1	1	1.142523	1.142523	0	1	0	0	CorrectCommission	0.020223	0.848242	0	0	6.765217e+01
132.890076	1.278453	city	6	1	1.460331	1.460331	0	1	0	0	CorrectCommission	1.373525	0.874677	0	0	6.741304e+01
134.175659	1.292695	city	5	1	1.268828	1.268828	0	1	0	0	CorrectCommission	0.558059	0.896529	0	0	6.717391e+01
135.468384	1.292763	mountain	5	0	0.000000	1.337462	1	0	0	0	CorrectOmission	0.850322	0.912844	0	0	6.693478e+01
136.761368	1.293218	city	1	1	1.521467	1.521467	0	1	0	0	CorrectCommission	1.633855	0.923003	0	0	6.669565e+01
138.081024	1.346087	city	4	1	1.676071	1.676071	0	1	0	0	CorrectCommission	2.292199	0.926727	0	0	6.645652e+01
139.393921	1.279718	city	9	1	1.303345	1.303345	0	1	0	0	CorrectCommission	0.705041	0.924055	0	0	6.621739e+01
140.680237	1.292902	city	2	1	1.039557	1.039557	0	1	0	0	CorrectCommission	0.418229	0.915334	0	0	6.597826e+01
141.973068	1.292748	city	10	1	0.986124	0.986124	0	1	0	0	CorrectCommission	0.645761	0.901062	0	0	6.573913e+01
143.265884	1.292908	city	5	1	1.051931	1.051931	0	1	0	0	CorrectCommission	0.365539	0.881846	0	0	6.550000e+01
144.558884	1.293072	city	10	1	0.994992	0.994992	0	1	0	0	CorrectCommission	0.608000	0.858421	0	0	6.526087e+01
145.845215	1.279596	city	5	1	0.823745	0.823745	0	1	0	0	CorrectCommission	1.337210	0.831654	0	0	6.502174e+01
147.124741	1.279447	mountain	10	1	0.749499	0.749499	0	0	1	0	CommissionError	1.653365	0.802592	1	0	6.478261e+01
148.404236	1.279551	city	4	1	1.461837	1.461837	0	1	0	0	CorrectCommission	1.379939	0.772531	1	0	6.454348e+01
149.683884	1.279730	city	7	1	1.142721	1.142721	0	1	0	0	CorrectCommission	0.021065	0.743076	1	0	6.430435e+01
150.976883	1.306277	city	5	1	1.002951	1.002951	0	1	0	0	CorrectCommission	0.574109	0.716058	1	0	6.406522e+01
152.269791	1.279548	city	10	1	0.882125	0.882125	0	1	0	0	CorrectCommission	1.088612	0.693367	1	0	6.382609e+01
153.549347	1.279557	city	2	1	1.195261	1.195261	0	1	0	0	CorrectCommission	0.244795	0.676781	1	0	6.358696e+01
154.828918	1.279588	city	6	1	1.143314	1.143314	0	1	0	0	CorrectCommission	0.023590	0.667741	1	0	6.334783e+01
156.115112	1.292788	city	9	1	1.071493	1.071493	0	1	0	0	CorrectCommission	0.282238	0.667100	1	0	6.310870e+01
157.408005	1.293021	city	8	1	1.071077	1.071077	0	1	0	0	CorrectCommission	0.284011	0.675006	1	0	6.286957e+01
158.694305	1.279583	city	5	1	0.911867	0.911867	0	1	0	0	CorrectCommission	0.961965	0.690842	1	0	6.263043e+01
159.993881	1.319557	city	1	1	0.908842	0.908842	0	1	0	0	CorrectCommission	0.974847	0.713250	1	0	6.239130e+01
161.300156	1.292998	city	9	1	1.047613	1.047613	0	1	0	0	CorrectCommission	0.383925	0.740305	1	0	6.215217e+01
162.586411	1.279518	city	10	1	0.983366	0.983366	0	1	0	0	CorrectCommission	0.657506	0.769739	1	0	6.191304e+01
163.865967	1.279580	city	6	1	0.976324	0.976324	0	1	0	0	CorrectCommission	0.687492	0.799197	1	0	6.167391e+01
165.152191	1.292878	city	3	1	0.976533	0.976533	0	1	0	0	CorrectCommission	0.686600	0.826534	0	0	6.143478e+01
166.445023	1.292781	city	9	1	0.780821	0.780821	0	1	0	0	CorrectCommission	1.519990	0.850046	0	0	6.119565e+01
167.737930	1.293041	city	5	1	0.813918	0.813918	0	1	0	0	CorrectCommission	1.379057	0.868663	0	0	6.095652e+01
169.030914	1.292928	city	4	1	0.896147	0.896147	0	1	0	0	CorrectCommission	1.028906	0.882044	0	0	6.071739e+01
170.317169	1.279557	city	2	1	0.804962	0.804962	0	1	0	0	CorrectCommission	1.417194	0.890482	0	0	6.047826e+01
171.616730	1.319567	city	6	1	0.859579	0.859579	0	1	0	0	CorrectCommission	1.184618	0.894760	0	0	6.023913e+01
175.568771	6.584538	break	0	0	0.000000	1.134992	0	0	0	0	ThoughtProbe	0.011846	0.895904	0	60	60
179.507477	1.292876	city	7	1	1.302893	1.302893	0	1	0	0	CorrectCommission	0.703116	0.894944	0	0	6.005882e+01
180.793701	1.279575	city	9	1	1.034977	1.034977	0	1	0	0	CorrectCommission	0.437735	0.892642	0	0	6.011765e+01
182.073288	1.279577	city	4	1	0.986365	0.986365	0	1	0	0	CorrectCommission	0.644736	0.889447	0	0	6.017647e+01
183.359543	1.292934	mountain	3	1	0.876272	0.876272	0	0	1	0	CommissionError	1.113538	0.885434	0	0	6.023529e+01
184.652451	1.292881	city	4	1	1.401726	1.401726	0	1	0	0	CorrectCommission	1.123971	0.880416	0	0	6.029412e+01
185.951981	1.306188	city	2	1	1.390141	1.390141	0	1	0	0	CorrectCommission	1.074641	0.874144	0	0	6.035294e+01
187.244904	1.279650	city	1	1	1.417964	1.417964	0	1	0	0	CorrectCommission	1.193116	0.866510	0	0	6.041176e+01
188.524490	1.279532	city	8	1	1.516490	1.516490	0	1	0	0	CorrectCommission	1.612663	0.857705	0	0	6.047059e+01
189.810745	1.292960	city	6	1	1.213520	1.213520	0	1	0	0	CorrectCommission	0.322545	0.848294	0	0	6.052941e+01
191.103653	1.292879	city	8	1	0.867483	0.867483	0	1	0	0	CorrectCommission	1.150962	0.839211	0	0	6.058824e+01
192.389908	1.279611	city	7	1	1.134203	1.134203	0	1	0	0	CorrectCommission	0.015203	0.831569	0	0	6.064706e+01
193.676163	1.292897	city	3	1	1.255436	1.255436	0	1	0	0	CorrectCommission	0.501034	0.826538	0	0	6.070588e+01
194.962387	1.279564	city	4	1	1.354522	1.354522	0	1	0	0	CorrectCommission	0.922966	0.825094	0	0	6.076471e+01
196.248627	1.292929	city	6	1	0.942301	0.942301	0	1	0	0	CorrectCommission	0.832371	0.827807	0	0	6.082353e+01
197.541534	1.292877	city	8	1	0.982845	0.982845	0	1	0	0	CorrectCommission	0.659725	0.834722	0	0	6.088235e+01
198.834427	1.292912	mountain	3	1	0.828617	0.828617	0	0	1	0	CommissionError	1.316463	0.845263	0	0	6.094118e+01
200.120605	1.279421	city	1	1	1.259659	1.259659	0	1	0	0	CorrectCommission	0.519015	0.858174	0	0	61
201.406860	1.293099	city	4	1	1.404845	1.404845	0	1	0	0	CorrectCommission	1.137251	0.871654	0	0	6.105882e+01
202.699844	1.292881	city	7	1	1.138217	1.138217	0	1	0	0	CorrectCommission	0.001889	0.883464	0	0	6.111765e+01
203.999374	1.306166	city	9	1	1.048529	1.048529	0	1	0	0	CorrectCommission	0.380026	0.891230	0	0	6.117647e+01
205.292282	1.279648	city	4	1	0.924399	0.924399	0	1	0	0	CorrectCommission	0.908600	0.892658	0	0	6.123529e+01
206.585922	1.307653	city	3	1	1.763560	1.763560	0	1	0	0	CorrectCommission	2.664747	0.885914	0	0	6.129412e+01
207.885513	1.291513	city	8	0	0.000000	1.499368	0	0	0	1	OmissionError	1.539753	0.869848	0	0	6.135294e+01
209.171051	1.279579	city	9	1	0.930447	0.930447	0	1	0	0	CorrectCommission	0.882847	0.844258	0	0	6.141176e+01
210.477280	1.332870	city	1	1	0.855424	0.855424	0	1	0	0	CorrectCommission	1.202314	0.809913	1	0	6.147059e+01
211.790100	1.292751	city	9	1	1.230831	1.230831	0	1	0	0	CorrectCommission	0.396259	0.768406	1	0	6.152941e+01
213.083008	1.293076	city	8	1	1.008142	1.008142	0	1	0	0	CorrectCommission	0.552002	0.722026	1	0	6.158824e+01
214.382645	1.306216	city	10	1	0.935801	0.935801	0	1	0	0	CorrectCommission	0.860048	0.673402	1	0	6.164706e+01
215.675491	1.279450	city	4	1	1.183621	1.183621	0	1	0	0	CorrectCommission	0.195227	0.625236	1	0	6.170588e+01
216.961731	1.293036	city	3	1	1.035502	1.035502	0	1	0	0	CorrectCommission	0.435499	0.580009	1	0	6.176471e+01
218.248047	1.279597	city	5	1	1.145502	1.145502	0	1	0	0	CorrectCommission	0.032909	0.539821	1	0	6.182353e+01
219.527634	1.279580	city	10	1	0.981481	0.981481	0	1	0	0	CorrectCommission	0.665532	0.506261	1	0	6.188235e+01
220.807129	1.279415	city	4	1	1.125114	1.125114	0	1	0	0	CorrectCommission	0.053910	0.480453	1	0	6.194118e+01
224.739166	6.584669	break	0	0	0.000000	1.266479	0	0	0	0	ThoughtProbe	0.548058	0.463108	1	62	62
228.691284	1.319560	mountain	9	1	1.338098	1.338098	0	0	1	0	CommissionError	0.853027	0.454579	1	0	6.241304e+01
230.012451	1.322777	city	7	1	1.272490	1.272490	0	1	0	0	CorrectCommission	0.573655	0.454958	1	0	6.282609e+01
231.318695	1.289694	city	6	1	1.138030	1.138030	0	1	0	0	CorrectCommission	0.001091	0.464105	1	0	6.323913e+01
232.603333	1.279602	city	7	1	1.143911	1.143911	0	1	0	0	CorrectCommission	0.026132	0.481586	1	0	6.365217e+01
233.896255	1.306231	city	1	1	0.968110	0.968110	0	1	0	0	CorrectCommission	0.722467	0.506627	1	0	6.406522e+01
235.195801	1.292866	city	8	1	1.143342	1.143342	0	1	0	0	CorrectCommission	0.023711	0.537994	1	0	6.447826e+01
236.495377	1.306282	city	6	1	1.108018	1.108018	0	1	0	0	CorrectCommission	0.126709	0.574017	1	0	6.489130e+01
237.794891	1.292750	city	9	1	1.363040	1.363040	0	1	0	0	CorrectCommission	0.959236	0.612550	1	0	6.530435e+01
239.081131	1.279719	city	7	1	1.176298	1.176298	0	1	0	0	CorrectCommission	0.164045	0.651070	1	0	6.571739e+01
240.360779	1.279574	city	4	1	1.521660	1.521660	0	1	0	0	CorrectCommission	1.634677	0.686855	1	0	6.613043e+01
241.653687	1.306262	city	3	1	1.045181	1.045181	0	1	0	0	CorrectCommission	0.394280	0.717274	1	0	6.654348e+01
242.959930	1.306223	city	2	1	0.895135	0.895135	0	1	0	0	CorrectCommission	1.033214	0.740083	1	0	6.695652e+01
244.259491	1.292901	city	7	1	0.982849	0.982849	0	1	0	0	CorrectCommission	0.659706	0.753643	1	0	6.736957e+01
245.552414	1.292934	city	5	1	0.715500	0.715500	0	1	0	0	CorrectCommission	1.798141	0.757245	1	0	6.778261e+01
246.865311	1.332867	city	8	1	0.905182	0.905182	0	1	0	0	CorrectCommission	0.990431	0.751178	1	0	6.819565e+01
248.171555	1.279599	city	2	1	0.817816	0.817816	0	1	0	0	CorrectCommission	1.362457	0.736782	1	0	6.860870e+01
249.451141	1.279579	mountain	1	0	0.000000	1.116500	1	0	0	0	CorrectOmission	0.090589	0.716330	1	0	6.902174e+01
250.730713	1.279563	city	8	1	1.342334	1.342334	0	1	0	0	CorrectCommission	0.871064	0.692837	1	0	6.943478e+01
252.010284	1.279578	city	1	1	1.036416	1.036416	0	1	0	0	CorrectCommission	0.431604	0.669666	1	0	6.984783e+01
253.309814	1.319492	city	8	1	1.224617	1.224617	0	1	0	0	CorrectCommission	0.369797	0.650194	1	0	7.026087e+01
254.609390	1.279650	mountain	1	0	0.000000	1.295095	1	0	0	0	CorrectOmission	0.669909	0.637465	1	0	7.067391e+01
255.902344	1.306256	city	2	1	1.263680	1.263680	0	1	0	0	CorrectCommission	0.536139	0.633850	1	0	7.108696e+01
257.195251	1.279585	city	6	1	1.146203	1.146203	0	1	0	0	CorrectCommission	0.035893	0.640821	1	0	7.150000e+01
258.488098	1.306073	city	5	1	1.072221	1.072221	0	1	0	0	CorrectCommission	0.279141	0.658865	1	0	7.191304e+01
259.800934	1.319624	city	6	1	1.155039	1.155039	0	1	0	0	CorrectCommission	0.073520	0.687431	1	0	7.232609e+01
261.100586	1.279662	city	2	1	1.073157	1.073157	0	1	0	0	CorrectCommission	0.275153	0.725085	1	0	7.273913e+01
262.380219	1.279592	city	7	1	0.872141	0.872141	0	1	0	0	CorrectCommission	1.131128	0.769699	1	0	7.315217e+01
263.659790	1.279564	city	4	1	1.498933	1.498933	0	1	0	0	CorrectCommission	1.537903	0.818764	1	0	7.356522e+01
264.939362	1.279565	city	1	1	1.154894	1.154894	0	1	0	0	CorrectCommission	0.072904	0.869704	0	0	7.397826e+01
266.218872	1.279486	city	2	1	1.786663	1.786663	0	1	0	0	CorrectCommission	2.763126	0.920098	0	0	7.439130e+01
267.505066	1.292869	city	10	1	1.250052	1.250052	0	1	0	0	CorrectCommission	0.478106	0.967805	0	0	7.480435e+01
268.798004	1.293056	city	1	1	1.196082	1.196082	0	1	0	0	CorrectCommission	0.248289	1.011181	0	0	7.521739e+01
270.091003	1.292933	mountain	2	0	0.000000	1.402502	1	0	0	0	CorrectOmission	1.127275	1.049009	0	0	7.563043e+01
271.383911	1.292872	city	1	1	1.526676	1.526676	0	1	0	0	CorrectCommission	1.656039	1.080445	0	0	7.604348e+01
272.683380	1.306082	city	4	1	1.225969	1.225969	0	1	0	0	CorrectCommission	0.375556	1.105008	0	0	7.645652e+01
274.009644	1.346397	city	5	1	0.855365	0.855365	0	1	0	0	CorrectCommission	1.202563	1.122495	0	0	7.686957e+01
275.335938	1.306225	city	3	1	1.757024	1.757024	0	1	0	0	CorrectCommission	2.636916	1.132861	0	0	7.728261e+01
276.635529	1.292927	city	8	1	1.584504	1.584504	0	1	0	0	CorrectCommission	1.902286	1.136159	0	0	7.769565e+01
277.935028	1.306082	city	6	1	1.204768	1.204768	0	1	0	0	CorrectCommission	0.285278	1.132551	0	0	7.810870e+01
279.234497	1.292888	city	9	1	1.054074	1.054074	0	1	0	0	CorrectCommission	0.356414	1.122236	0	0	7.852174e+01
280.527496	1.293091	city	2	1	0.942039	0.942039	0	1	0	0	CorrectCommission	0.833486	1.105383	0	0	7.893478e+01
281.813690	1.279315	city	8	1	0.933296	0.933296	0	1	0	0	CorrectCommission	0.870713	1.082215	0	0	7.934783e+01
283.106598	1.306473	city	5	1	1.705027	1.705027	0	1	0	0	CorrectCommission	2.415500	1.053134	0	0	7.976087e+01
284.412964	1.306258	city	1	1	1.534312	1.534312	0	1	0	0	CorrectCommission	1.688553	1.018806	0	0	8.017391e+01
285.705841	1.279502	city	3	1	1.295608	1.295608	0	1	0	0	CorrectCommission	0.672094	0.980356	0	0	8.058696e+01
290.190948	7.690714	break	0	0	0.000000	1.204270	0	0	0	0	ThoughtProbe	0.283155	0.939401	0	81	81
294.676086	1.279574	city	1	1	1.314949	1.314949	0	1	0	0	CorrectCommission	0.754456	0.898052	0	0	8.085000e+01
295.955750	1.279726	city	3	1	1.682299	1.682299	0	1	0	0	CorrectCommission	2.318716	0.858774	0	0	8.070000e+01
297.242065	1.292933	city	8	1	1.267084	1.267084	0	1	0	0	CorrectCommission	0.550635	0.824180	0	0	8.055000e+01
298.528381	1.279708	city	5	1	1.198662	1.198662	0	1	0	0	CorrectCommission	0.259275	0.796806	1	0	8.040000e+01
299.834625	1.332749	city	10	1	1.108832	1.108832	0	1	0	0	CorrectCommission	0.123241	0.778746	1	0	8.025000e+01
301.147461	1.292902	mountain	7	0	0.000000	1.150690	1	0	0	0	CorrectOmission	0.054999	0.771296	1	0	8.010000e+01
302.440369	1.292912	mountain	2	0	0.000000	1.246890	1	0	0	0	CorrectOmission	0.464641	0.774811	1	0	7.995000e+01
303.733185	1.292749	city	10	1	1.320086	1.320086	0	1	0	0	CorrectCommission	0.776328	0.788550	1	0	7.980000e+01
305.046051	1.332966	city	8	1	1.292933	1.292933	0	1	0	0	CorrectCommission	0.660703	0.810707	1	0	7.965000e+01
306.365631	1.306185	city	4	1	1.041397	1.041397	0	1	0	0	CorrectCommission	0.410394	0.838610	0	0	7.950000e+01
307.658569	1.279720	city	1	1	0.926397	0.926397	0	1	0	0	CorrectCommission	0.900094	0.869051	0	0	7.935000e+01
308.938202	1.279518	city	8	1	0.881107	0.881107	0	1	0	0	CorrectCommission	1.092947	0.898588	0	0	7.920000e+01
310.217804	1.279693	city	5	1	1.755465	1.755465	0	1	0	0	CorrectCommission	2.630275	0.923950	0	0	7.905000e+01
311.510681	1.306089	city	10	1	1.368066	1.368066	0	1	0	0	CorrectCommission	0.980637	0.942346	0	0	7.890000e+01
312.803528	1.279601	city	4	1	1.188720	1.188720	0	1	0	0	CorrectCommission	0.216942	0.951822	0	0	7.875000e+01
314.083160	1.279646	city	9	1	0.948288	0.948288	0	1	0	0	CorrectCommission	0.806876	0.951326	0	0	7.860000e+01
315.369446	1.292931	city	8	1	0.841633	0.841633	0	1	0	0	CorrectCommission	1.261037	0.940736	0	0	7.845000e+01
316.669006	1.306181	city	6	1	0.806822	0.806822	0	1	0	0	CorrectCommission	1.409272	0.920863	0	0	7.830000e+01
317.961731	1.279295	city	8	1	0.878510	0.878510	0	1	0	0	CorrectCommission	1.104006	0.893287	0	0	7.815000e+01
319.248016	1.293250	city	5	1	0.720101	0.720101	0	1	0	0	CorrectCommission	1.778551	0.860215	0	0	78
320.561096	1.332902	city	6	1	1.251004	1.251004	0	1	0	0	CorrectCommission	0.482159	0.824166	0	0	7.785000e+01
321.880646	1.306221	city	10	1	1.279896	1.279896	0	1	0	0	CorrectCommission	0.605191	0.787734	1	0	7.770000e+01
323.186859	1.306223	city	3	1	1.091596	1.091596	0	1	0	0	CorrectCommission	0.196636	0.753239	1	0	7.755000e+01
324.493103	1.306260	city	2	1	1.201410	1.201410	0	1	0	0	CorrectCommission	0.270977	0.722513	1	0	7.740000e+01
325.812653	1.332812	city	9	1	1.060626	1.060626	0	1	0	0	CorrectCommission	0.328512	0.696808	1	0	7.725000e+01
327.118866	1.279604	city	2	1	0.965491	0.965491	0	1	0	0	CorrectCommission	0.733619	0.676743	1	0	7.710000e+01
328.411682	1.306064	city	3	1	1.254850	1.254850	0	1	0	0	CorrectCommission	0.498539	0.662397	1	0	7.695000e+01
329.711212	1.292967	city	9	1	1.055018	1.055018	0	1	0	0	CorrectCommission	0.352393	0.653533	1	0	7.680000e+01
330.997406	1.279445	mountain	10	0	0.000000	1.349343	1	0	0	0	CorrectOmission	0.900910	0.649809	1	0	7.665000e+01
332.276978	1.279719	city	6	1	1.535548	1.535548	0	1	0	0	CorrectCommission	1.693818	0.650983	1	0	7.650000e+01
333.570038	1.306399	city	8	1	1.011360	1.011360	0	1	0	0	CorrectCommission	0.538300	0.657017	1	0	7.635000e+01
334.863037	1.279581	city	1	1	0.947068	0.947068	0	1	0	0	CorrectCommission	0.812069	0.668134	1	0	7.620000e+01
336.149261	1.292884	city	7	1	1.154651	1.154651	0	1	0	0	CorrectCommission	0.071868	0.684608	1	0	7.605000e+01
337.448853	1.306268	city	6	1	1.122534	1.122534	0	1	0	0	CorrectCommission	0.064896	0.706634	1	0	7.590000e+01
338.741699	1.279448	city	2	1	0.970436	0.970436	0	1	0	0	CorrectCommission	0.712564	0.733993	1	0	7.575000e+01
340.034607	1.306338	city	1	1	0.947720	0.947720	0	1	0	0	CorrectCommission	0.809293	0.765949	1	0	7.560000e+01
341.327576	1.279607	city	2	1	1.179609	1.179609	0	1	0	0	CorrectCommission	0.178143	0.801159	1	0	7.545000e+01
342.620453	1.306149	city	3	1	1.161730	1.161730	0	1	0	0	CorrectCommission	0.102010	0.837685	0	0	7.530000e+01
343.920013	1.292975	city	6	1	1.530666	1.530666	0	1	0	0	CorrectCommission	1.673030	0.873218	0	0	7.515000e+01
347.998627	6.864255	break	0	0	0.000000	1.542855	0	0	0	0	ThoughtProbe	1.724930	0.905324	0	75	75
352.077209	1.292925	city	7	1	1.404979	1.404979	0	1	0	0	CorrectCommission	1.137824	0.931844	0	0	7.482353e+01
353.370117	1.292895	city	2	1	1.323724	1.323724	0	1	0	0	CorrectCommission	0.791822	0.951202	0	0	7.464706e+01
354.669769	1.306393	city	5	1	1.354245	1.354245	0	1	0	0	CorrectCommission	0.921788	0.962658	0	0	7.447059e+01
355.996002	1.346065	city	7	1	1.581417	1.581417	0	1	0	0	CorrectCommission	1.889138	0.966382	0	0	7.429412e+01
357.328796	1.319555	mountain	3	0	0.000000	1.516306	1	0	0	0	CorrectOmission	1.611882	0.963409	0	0	7.411765e+01
358.628448	1.279739	city	9	1	1.335803	1.335803	0	1	0	0	CorrectCommission	0.843256	0.955462	0	0	7.394118e+01
359.914795	1.292930	city	3	1	1.216796	1.216796	0	1	0	0	CorrectCommission	0.336495	0.944668	0	0	7.376471e+01
361.220947	1.319409	city	7	1	1.049838	1.049838	0	1	0	0	CorrectCommission	0.374451	0.933142	0	0	7.358824e+01
362.533844	1.306373	city	6	1	0.920860	0.920860	0	1	0	0	CorrectCommission	0.923670	0.922676	0	0	7.341176e+01
363.840149	1.306227	city	8	1	0.987064	0.987064	0	1	0	0	CorrectCommission	0.641759	0.914461	0	0	7.323529e+01
365.153046	1.319587	city	2	1	0.949114	0.949114	0	1	0	0	CorrectCommission	0.803360	0.908983	0	0	7.305882e+01
366.452637	1.279558	city	9	1	0.938596	0.938596	0	1	0	0	CorrectCommission	0.848147	0.905976	0	0	7.288235e+01
367.738861	1.292912	city	1	1	0.769282	0.769282	0	1	0	0	CorrectCommission	1.569126	0.904592	0	0	7.270588e+01
369.051788	1.332918	city	4	1	1.087759	1.087759	0	1	0	0	CorrectCommission	0.212976	0.903568	0	0	7.252941e+01
370.384674	1.332872	city	8	1	0.909245	0.909245	0	1	0	0	CorrectCommission	0.973130	0.901592	0	0	7.235294e+01
371.690918	1.279591	city	10	1	0.757220	0.757220	0	1	0	0	CorrectCommission	1.620488	0.897500	0	0	7.217647e+01
372.970459	1.279491	mountain	7	0	0.000000	1.156887	1	0	0	0	CorrectOmission	0.081389	0.890544	0	0	72
374.276672	1.332970	city	10	1	1.581887	1.581887	0	1	0	0	CorrectCommission	1.891141	0.880636	0	0	7.182353e+01
375.602875	1.319437	city	4	1	1.505862	1.505862	0	1	0	0	CorrectCommission	1.567406	0.868291	0	0	7.164706e+01
376.915710	1.306198	city	2	1	1.226652	1.226652	0	1	0	0	CorrectCommission	0.378464	0.854691	0	0	7.147059e+01
378.228668	1.319744	city	9	1	1.040911	1.040911	0	1	0	0	CorrectCommission	0.412464	0.841444	0	0	7.129412e+01
379.528259	1.279426	city	1	1	0.965126	0.965126	0	1	0	0	CorrectCommission	0.735175	0.830319	0	0	7.111765e+01
380.807831	1.279745	city	7	1	1.352708	1.352708	0	1	0	0	CorrectCommission	0.915241	0.822943	1	0	7.094118e+01
382.107483	1.319547	city	5	1	0.996375	0.996375	0	1	0	0	CorrectCommission	0.602108	0.820507	1	0	7.076471e+01
383.406982	1.279440	city	9	1	1.095307	1.095307	0	1	0	0	CorrectCommission	0.180835	0.823511	1	0	7.058824e+01
384.693146	1.292911	city	4	1	0.830530	0.830530	0	1	0	0	CorrectCommission	1.308317	0.831594	0	0	7.041176e+01
385.986145	1.293039	city	2	1	0.999726	0.999726	0	1	0	0	CorrectCommission	0.587842	0.843459	0	0	7.023529e+01
387.292450	1.319567	city	9	1	1.007480	1.007480	0	1	0	0	CorrectCommission	0.554822	0.857072	0	0	7.005882e+01
388.598663	1.292919	city	7	1	1.101323	1.101323	0	1	0	0	CorrectCommission	0.155215	0.869885	0	0	6.988235e+01
389.898193	1.306087	city	4	1	0.945005	0.945005	0	1	0	0	CorrectCommission	0.820854	0.879245	0	0	6.970588e+01
391.191071	1.279716	city	2	1	0.777420	0.777420	0	1	0	0	CorrectCommission	1.534471	0.882833	0	0	6.952941e+01
392.470734	1.279584	city	10	1	0.657925	0.657925	0	1	0	0	CorrectCommission	2.043312	0.879093	0	0	6.935294e+01
393.763641	1.306237	city	2	1	0.823403	0.823403	0	1	0	0	CorrectCommission	1.338665	0.867593	0	0	6.917647e+01
397.875549	6.917589	break	0	1	0.785810	0.785810	0	0	0	0	ThoughtProbe	1.498747	0.849196	0	69	69
401.974213	1.279710	city	7	1	1.417052	1.417052	0	1	0	0	CorrectCommission	1.189231	0.825900	0	0	6.902500e+01
403.267120	1.306102	city	5	1	1.167341	1.167341	0	1	0	0	CorrectCommission	0.125905	0.800610	1	0	6.905000e+01
404.560028	1.279736	city	9	1	1.021407	1.021407	0	1	0	0	CorrectCommission	0.495518	0.776634	1	0	6.907500e+01
405.839600	1.279410	mountain	2	0	0.000000	1.160916	1	0	0	0	CorrectOmission	0.098543	0.757056	1	0	6.910000e+01
407.119171	1.279719	city	3	1	1.285153	1.285153	0	1	0	0	CorrectCommission	0.627576	0.744304	1	0	6.912500e+01
408.412170	1.306264	city	1	1	1.093406	1.093406	0	1	0	0	CorrectCommission	0.188929	0.739622	1	0	6.915000e+01
409.718414	1.306220	city	9	1	1.194057	1.194057	0	1	0	0	CorrectCommission	0.239668	0.742942	1	0	6.917500e+01
411.064575	1.386133	city	5	1	1.138283	1.138283	0	1	0	0	CorrectCommission	0.002167	0.752940	1	0	6.920000e+01
412.404114	1.292941	city	3	1	1.023496	1.023496	0	1	0	0	CorrectCommission	0.486621	0.767308	1	0	6.922500e+01
413.697052	1.292953	city	4	1	0.809602	0.809602	0	1	0	0	CorrectCommission	1.397435	0.783153	1	0	6.925000e+01
415.003326	1.319586	city	1	1	1.726632	1.726632	0	1	0	0	CorrectCommission	2.507500	0.797544	1	0	6.927500e+01
416.309509	1.292758	city	8	1	1.495170	1.495170	0	1	0	0	CorrectCommission	1.521880	0.807992	1	0	6.930000e+01
417.595734	1.279729	mountain	9	0	0.000000	1.272880	1	0	0	0	CorrectOmission	0.575316	0.812842	1	0	6.932500e+01
418.888672	1.306137	city	7	1	1.100228	1.100228	0	1	0	0	CorrectCommission	0.159878	0.811404	1	0	6.935000e+01
420.181580	1.279655	city	8	1	1.017680	1.017680	0	1	0	0	CorrectCommission	0.511387	0.803973	1	0	6.937500e+01
421.467865	1.292907	city	3	1	1.485383	1.485383	0	1	0	0	CorrectCommission	1.480204	0.791647	1	0	6.940000e+01
422.794098	1.359577	city	2	1	1.222490	1.222490	0	1	0	0	CorrectCommission	0.360742	0.776090	1	0	6.942500e+01
424.133667	1.319551	mountain	3	0	0.000000	1.318580	1	0	0	0	CorrectOmission	0.769916	0.759279	1	0	6.945000e+01
425.433228	1.279574	city	2	1	1.445135	1.445135	0	1	0	0	CorrectCommission	1.308817	0.743143	1	0	6.947500e+01
426.732727	1.319400	city	8	1	1.273636	1.273636	0	1	0	0	CorrectCommission	0.578533	0.729349	1	0	6.950000e+01
428.045624	1.306404	city	10	1	1.100924	1.100924	0	1	0	0	CorrectCommission	0.156914	0.719171	1	0	6.952500e+01
429.345215	1.292786	city	6	1	1.262381	1.262381	0	1	0	0	CorrectCommission	0.530606	0.713346	1	0	6.955000e+01
430.671387	1.359585	city	9	1	1.115425	1.115425	0	1	0	0	CorrectCommission	0.095164	0.712061	1	0	6.957500e+01
431.990967	1.279531	city	10	1	0.857836	0.857836	0	1	0	0	CorrectCommission	1.192040	0.715065	1	0	6.960000e+01
433.290527	1.319610	city	1	1	1.283313	1.283313	0	1	0	0	CorrectCommission	0.619739	0.721696	1	0	6.962500e+01
434.596802	1.292944	city	3	1	1.086210	1.086210	0	1	0	0	CorrectCommission	0.219570	0.731156	1	0	6.965000e+01
435.896362	1.306154	city	7	1	0.872510	0.872510	0	1	0	0	CorrectCommission	1.129555	0.742636	1	0	6.967500e+01
437.195953	1.293063	city	8	1	0.707792	0.707792	0	1	0	0	CorrectCommission	1.830964	0.755424	1	0	6.970000e+01
438.508881	1.332761	city	4	1	1.003443	1.003443	0	1	0	0	CorrectCommission	0.572012	0.768994	1	0	6.972500e+01
439.835022	1.319545	city	5	1	1.044912	1.044912	0	1	0	0	CorrectCommission	0.395427	0.783031	1	0	6.975000e+01
441.134613	1.279614	city	4	1	1.316360	1.316360	0	1	0	0	CorrectCommission	0.760462	0.797337	1	0	6.977500e+01
442.427582	1.306366	city	7	1	1.100683	1.100683	0	1	0	0	CorrectCommission	0.157941	0.811738	1	0	6.980000e+01
443.727173	1.292816	city	3	1	0.932236	0.932236	0	1	0	0	CorrectCommission	0.875229	0.825996	0	0	6.982500e+01
445.020081	1.292974	city	9	1	0.872270	0.872270	0	1	0	0	CorrectCommission	1.130579	0.839756	0	0	6.985000e+01
446.319672	1.306236	city	2	1	0.902514	0.902514	0	1	0	0	CorrectCommission	1.001794	0.852558	0	0	6.987500e+01
447.625854	1.306088	city	6	1	0.965137	0.965137	0	1	0	0	CorrectCommission	0.735130	0.863859	0	0	6.990000e+01
448.925415	1.293061	city	2	1	0.882434	0.882434	0	1	0	0	CorrectCommission	1.087299	0.873101	0	0	6.992500e+01
450.211731	1.279580	city	5	1	0.883504	0.883504	0	1	0	0	CorrectCommission	1.082743	0.879729	0	0	6.995000e+01
451.497986	1.292907	city	1	1	0.962594	0.962594	0	1	0	0	CorrectCommission	0.745955	0.883332	0	0	6.997500e+01
455.083405	5.877915	break	0	1	0.929299	0.929299	0	0	0	0	ThoughtProbe	0.887737	0.883649	0	70	70
458.675476	1.306243	city	5	1	1.325498	1.325498	0	1	0	0	CorrectCommission	0.799373	0.880598	0	0	70
459.975067	1.292912	city	7	1	1.469963	1.469963	0	1	0	0	CorrectCommission	1.414540	0.874277	0	0	70
461.267975	1.292906	city	9	1	1.481783	1.481783	0	1	0	0	CorrectCommission	1.464871	0.864913	0	0	70
462.567596	1.306375	city	4	1	1.128601	1.128601	0	1	0	0	CorrectCommission	0.039061	0.852861	0	0	70
463.880585	1.319584	city	3	1	1.153149	1.153149	0	1	0	0	CorrectCommission	0.065472	0.838627	0	0	70
465.200134	1.319552	city	8	1	0.830315	0.830315	0	1	0	0	CorrectCommission	1.309234	0.822775	1	0	70
466.519684	1.319495	city	6	1	0.863800	0.863800	0	1	0	0	CorrectCommission	1.166647	0.805968	1	0	70
467.832581	1.306307	city	1	1	0.856299	0.856299	0	1	0	0	CorrectCommission	1.198585	0.789047	1	0	70
469.172119	1.372787	city	7	1	1.131446	1.131446	0	1	0	0	CorrectCommission	0.026945	0.772947	1	0	70
470.498291	1.279540	mountain	8	0	0.000000	1.420691	1	0	0	0	CorrectOmission	1.204730	0.758727	1	0	70
471.791199	1.306303	city	8	1	1.491553	1.491553	0	1	0	0	CorrectCommission	1.506475	0.747443	1	0	70
473.110840	1.332983	city	1	1	1.111549	1.111549	0	1	0	0	CorrectCommission	0.111672	0.740087	1	0	70
474.443787	1.332895	mountain	10	1	1.130957	1.130957	0	0	1	0	CommissionError	0.029029	0.737423	1	0	70
475.783264	1.346040	city	10	1	1.228792	1.228792	0	1	0	0	CorrectCommission	0.387579	0.739847	1	0	70
477.109467	1.306408	city	4	1	1.248204	1.248204	0	1	0	0	CorrectCommission	0.470239	0.747286	1	0	70
478.422485	1.319577	city	9	1	0.822535	0.822535	0	1	0	0	CorrectCommission	1.342363	0.759232	1	0	70
479.728729	1.292909	mountain	6	0	0.000000	1.032927	1	0	0	0	CorrectOmission	0.446465	0.774804	1	0	70
481.021606	1.292891	city	4	1	1.300557	1.300557	0	1	0	0	CorrectCommission	0.693172	0.792928	1	0	70
482.314423	1.292741	city	1	1	1.046605	1.046605	0	1	0	0	CorrectCommission	0.388217	0.812460	1	0	70
483.613922	1.306259	city	7	1	1.565212	1.565212	0	1	0	0	CorrectCommission	1.820132	0.832440	0	0	70
484.920258	1.306378	city	5	1	1.488210	1.488210	0	1	0	0	CorrectCommission	1.492241	0.852208	0	0	70
486.226501	1.306144	city	1	1	1.263181	1.263181	0	1	0	0	CorrectCommission	0.534014	0.871559	0	0	70
487.532745	1.306307	city	3	1	1.244257	1.244257	0	1	0	0	CorrectCommission	0.453431	0.890760	0	0	70
488.852356	1.332908	city	2	1	1.321863	1.321863	0	1	0	0	CorrectCommission	0.783896	0.910457	0	0	70
490.158600	1.279587	city	1	1	1.406163	1.406163	0	1	0	0	CorrectCommission	1.142866	0.931603	0	0	70
491.458191	1.319592	city	4	1	1.340387	1.340387	0	1	0	0	CorrectCommission	0.862775	0.955416	0	0	70
492.771118	1.306276	city	8	1	1.457935	1.457935	0	1	0	0	CorrectCommission	1.363324	0.983276	0	0	70
494.137329	1.426130	city	7	1	1.166957	1.166957	0	1	0	0	CorrectCommission	0.124267	1.016593	0	0	70
495.510101	1.319433	city	5	1	0.999598	0.999598	0	1	0	0	CorrectCommission	0.588383	1.056866	0	0	70
496.829681	1.319726	city	10	1	0.861886	0.861886	0	1	0	0	CorrectCommission	1.174795	1.105560	0	0	70
498.149261	1.319413	city	6	1	1.644795	1.644795	0	1	0	0	CorrectCommission	2.159019	1.164156	0	0	70
499.455383	1.292875	city	7	1	1.372576	1.372576	0	1	0	0	CorrectCommission	0.999843	1.234044	0	0	70
500.755005	1.306384	city	4	1	1.382846	1.382846	0	1	0	0	CorrectCommission	1.043576	1.316468	0	0	70
502.074615	1.332799	city	6	1	1.212408	1.212408	0	1	0	0	CorrectCommission	0.317809	1.412317	0	0	70
503.400848	1.319683	city	9	1	0.879394	0.879394	0	1	0	0	CorrectCommission	1.100241	1.521989	0	0	70
504.713806	1.306228	city	4	1	1.701548	1.701548	0	1	0	0	CorrectCommission	2.400686	1.645140	0	0	70
506.033386	1.332903	city	6	1	1.507047	1.507047	0	1	0	0	CorrectCommission	1.572451	1.780586	0	0	70
507.372955	1.346246	city	5	1	1.305529	1.305529	0	1	0	0	CorrectCommission	0.714340	1.926283	0	0	70
508.692535	1.292899	city	4	1	0.827262	0.827262	0	1	0	0	CorrectCommission	1.322232	2.079381	0	0	70
509.338959	11.089859	break	0	0	0.612592	0.612592	0	0	0	0	ThoughtProbe	2.236349	2.236349	0	70	70
