onset	duration	trial_type	image_type	Press	ReactionTime	ReactionTime_Interpolated	CorrectOmission	CorrectCommission	CommissionError	OmissionError	response_type	nonsmoothVarianceTimeCourse	VarianceTimeCourse	In_the_Zone	ThoughtProbe	ThoughtProbe_Interpolated
0.653012	1.279547	city	5	1	1.394504	1.394504	0	1	0	0	CorrectCommission	0.885216	0.885216	0	0	73
1.932528	1.279487	city	8	1	1.129618	1.129618	0	1	0	0	CorrectCommission	0.589650	0.818457	0	0	73
3.212028	1.279513	city	5	1	1.074120	1.074120	0	1	0	0	CorrectCommission	0.898657	0.754122	0	0	73
4.491610	1.279650	city	7	1	1.133079	1.133079	0	1	0	0	CorrectCommission	0.570379	0.694484	0	0	73
5.771192	1.279515	city	8	1	1.124500	1.124500	0	1	0	0	CorrectCommission	0.618146	0.641511	1	0	73
7.057399	1.292899	city	7	1	1.183814	1.183814	0	1	0	0	CorrectCommission	0.287888	0.596760	1	0	73
8.343596	1.279497	city	10	1	1.282526	1.282526	0	1	0	0	CorrectCommission	0.261731	0.561274	1	0	73
9.623176	1.279661	city	5	1	1.254206	1.254206	0	1	0	0	CorrectCommission	0.104045	0.535555	1	0	73
10.916209	1.306405	city	9	1	1.153251	1.153251	0	1	0	0	CorrectCommission	0.458061	0.519558	1	0	73
12.209209	1.279596	city	2	1	1.182444	1.182444	0	1	0	0	CorrectCommission	0.295519	0.512727	1	0	73
13.488707	1.279399	mountain	7	0	0.000000	1.240283	1	0	0	0	CorrectOmission	0.026523	0.514141	1	0	73
14.768210	1.279607	city	10	1	1.340392	1.340392	0	1	0	0	CorrectCommission	0.583926	0.522604	1	0	73
16.047869	1.279710	city	8	1	1.496396	1.496396	0	1	0	0	CorrectCommission	1.452546	0.536744	1	0	73
17.327517	1.279585	mountain	1	0	0.000000	1.301139	1	0	0	0	CorrectOmission	0.365364	0.555198	1	0	73
18.613768	1.292916	city	9	1	1.128080	1.128080	0	1	0	0	CorrectCommission	0.598216	0.576647	1	0	73
19.906673	1.292897	city	8	1	1.350680	1.350680	0	1	0	0	CorrectCommission	0.641209	0.599883	1	0	73
21.192911	1.279576	city	5	1	1.250614	1.250614	0	1	0	0	CorrectCommission	0.084049	0.623804	1	0	73
22.485840	1.306281	city	4	1	1.273482	1.273482	0	1	0	0	CorrectCommission	0.211377	0.647520	1	0	73
23.778673	1.279388	city	8	1	1.149750	1.149750	0	1	0	0	CorrectCommission	0.477554	0.670385	1	0	73
25.058237	1.279740	city	4	1	1.516854	1.516854	0	1	0	0	CorrectCommission	1.566455	0.692084	0	0	73
26.351225	1.306238	city	9	1	1.154722	1.154722	0	1	0	0	CorrectCommission	0.449875	0.712709	0	0	73
27.644138	1.279588	city	10	1	0.964928	0.964928	0	1	0	0	CorrectCommission	1.506636	0.732831	0	0	73
28.923717	1.279569	city	2	1	1.019830	1.019830	0	1	0	0	CorrectCommission	1.200943	0.753363	0	0	73
30.203291	1.279580	city	9	1	1.177415	1.177415	0	1	0	0	CorrectCommission	0.323522	0.775483	0	0	73
31.482882	1.279601	city	10	1	1.075501	1.075501	0	1	0	0	CorrectCommission	0.890968	0.800352	0	0	73
32.769039	1.292709	mountain	9	0	0.000000	1.191668	1	0	0	0	CorrectOmission	0.244162	0.828794	0	0	73
34.055191	1.279597	city	9	1	1.340649	1.340649	0	1	0	0	CorrectCommission	0.585355	0.860992	0	0	73
35.334770	1.279559	city	6	1	1.337180	1.337180	0	1	0	0	CorrectCommission	0.566042	0.896261	0	0	73
36.614365	1.279635	city	4	1	1.341550	1.341550	0	1	0	0	CorrectCommission	0.590371	0.932949	0	0	73
37.893955	1.279542	city	2	1	1.314219	1.314219	0	1	0	0	CorrectCommission	0.438195	0.968571	0	0	73
39.186924	1.306398	city	9	1	1.429076	1.429076	0	1	0	0	CorrectCommission	1.077709	1.000071	0	0	73
40.486568	1.292892	city	8	1	1.347989	1.347989	0	1	0	0	CorrectCommission	0.626227	1.024255	0	0	73
41.772820	1.279605	city	1	1	1.847468	1.847468	0	1	0	0	CorrectCommission	3.407291	1.038344	0	0	73
43.058987	1.292736	city	2	1	1.459539	1.459539	0	1	0	0	CorrectCommission	1.247329	1.040294	0	0	73
44.345222	1.279729	city	7	1	1.768827	1.768827	0	1	0	0	CorrectCommission	2.969421	1.029282	0	0	73
45.624790	1.279409	city	1	1	1.187534	1.187534	0	1	0	0	CorrectCommission	0.267176	1.005635	0	0	73
46.924370	1.319754	city	7	1	1.152732	1.152732	0	1	0	0	CorrectCommission	0.460955	0.970885	0	0	73
48.224037	1.279580	city	4	1	1.287106	1.287106	0	1	0	0	CorrectCommission	0.287235	0.927351	0	0	73
49.503605	1.279556	city	1	1	1.125680	1.125680	0	1	0	0	CorrectCommission	0.611578	0.877846	0	0	73
50.143383	14.088677	break	0	1	1.026646	1.026646	0	0	0	0	ThoughtProbe	1.162994	0.825262	0	73	73
64.871872	1.279620	city	9	1	1.451462	1.451462	0	1	0	0	CorrectCommission	1.202356	0.772266	0	0	7.255882e+01
66.151375	1.279395	city	1	1	1.342415	1.342415	0	1	0	0	CorrectCommission	0.595189	0.721081	0	0	7.211765e+01
67.430893	1.279643	city	10	1	1.284642	1.284642	0	1	0	0	CorrectCommission	0.273515	0.673390	1	0	7.167647e+01
68.717232	1.293033	city	9	1	1.200173	1.200173	0	1	0	0	CorrectCommission	0.196808	0.630292	1	0	7.123529e+01
70.003464	1.279426	city	5	1	1.024859	1.024859	0	1	0	0	CorrectCommission	1.172941	0.592364	1	0	7.079412e+01
71.282944	1.279540	city	6	1	1.234839	1.234839	0	1	0	0	CorrectCommission	0.003788	0.559728	1	0	7.035294e+01
72.569176	1.292914	city	2	1	1.089015	1.089015	0	1	0	0	CorrectCommission	0.815727	0.532205	1	0	6.991176e+01
73.855522	1.279774	mountain	8	0	0.000000	1.245150	1	0	0	0	CorrectOmission	0.053622	0.509355	1	0	6.947059e+01
75.141785	1.292760	city	3	1	1.409504	1.409504	0	1	0	0	CorrectCommission	0.968737	0.490615	1	0	6.902941e+01
76.427933	1.279538	city	10	1	1.288339	1.288339	0	1	0	0	CorrectCommission	0.294095	0.475306	1	0	6.858824e+01
77.708038	1.280666	city	3	1	1.236968	1.236968	0	1	0	0	CorrectCommission	0.008066	0.462761	1	0	6.814706e+01
78.987694	1.278645	city	10	1	1.355000	1.355000	0	1	0	0	CorrectCommission	0.665259	0.452308	1	0	6.770588e+01
80.266800	1.279566	city	9	1	1.231096	1.231096	0	1	0	0	CorrectCommission	0.024628	0.443299	1	0	6.726471e+01
81.559631	1.306103	city	1	1	1.039556	1.039556	0	1	0	0	CorrectCommission	1.091107	0.435199	1	0	6.682353e+01
82.852470	1.279575	city	10	1	1.184560	1.184560	0	1	0	0	CorrectCommission	0.283736	0.427524	1	0	6.638235e+01
84.132126	1.279734	city	7	1	1.339349	1.339349	0	1	0	0	CorrectCommission	0.578117	0.420029	1	0	6.594118e+01
85.418457	1.292923	city	4	1	1.328406	1.328406	0	1	0	0	CorrectCommission	0.517187	0.412564	1	0	6.550000e+01
86.704636	1.279433	city	2	1	1.313330	1.313330	0	1	0	0	CorrectCommission	0.433247	0.405201	1	0	6.505882e+01
88.004120	1.319534	city	9	1	1.236811	1.236811	0	1	0	0	CorrectCommission	0.007192	0.398199	1	0	6.461765e+01
89.323662	1.319560	city	8	1	1.220603	1.220603	0	1	0	0	CorrectCommission	0.083051	0.392045	1	0	6.417647e+01
90.623238	1.279585	city	7	1	1.373911	1.373911	0	1	0	0	CorrectCommission	0.770558	0.387444	1	0	6.373529e+01
91.909569	1.293086	city	5	1	1.251304	1.251304	0	1	0	0	CorrectCommission	0.087888	0.385309	1	0	6.329412e+01
93.195816	1.279398	mountain	6	0	0.000000	1.334099	1	0	0	0	CorrectOmission	0.548884	0.386767	1	0	6.285294e+01
94.475395	1.279770	city	2	1	1.408914	1.408914	0	1	0	0	CorrectCommission	0.965450	0.393039	1	0	6.241176e+01
95.755013	1.279466	city	8	1	1.262368	1.262368	0	1	0	0	CorrectCommission	0.149491	0.405297	1	0	6.197059e+01
97.034523	1.279543	city	1	1	1.231141	1.231141	0	1	0	0	CorrectCommission	0.024380	0.424481	1	0	6.152941e+01
98.314087	1.279586	city	7	1	1.306744	1.306744	0	1	0	0	CorrectCommission	0.396573	0.450983	1	0	6.108824e+01
99.600388	1.293022	city	2	1	1.195570	1.195570	0	1	0	0	CorrectCommission	0.222432	0.484447	1	0	6.064706e+01
100.893532	1.293269	city	10	1	1.243278	1.243278	0	1	0	0	CorrectCommission	0.043202	0.523551	1	0	6.020588e+01
102.179695	1.279049	city	6	1	1.337913	1.337913	0	1	0	0	CorrectCommission	0.570121	0.565978	1	0	5.976471e+01
103.459251	1.280060	city	2	1	1.234789	1.234789	0	1	0	0	CorrectCommission	0.004064	0.608465	1	0	5.932353e+01
104.738907	1.279261	city	4	1	1.297124	1.297124	0	1	0	0	CorrectCommission	0.343011	0.647188	1	0	5.888235e+01
106.018364	1.279656	city	8	1	1.250408	1.250408	0	1	0	0	CorrectCommission	0.082900	0.678202	1	0	5.844118e+01
106.658195	12.555714	break	0	0	0.000000	1.528984	0	0	0	0	ThoughtProbe	1.633992	0.697994	0	58	58
119.853745	1.279672	city	5	1	1.773925	1.773925	0	1	0	0	CorrectCommission	2.997807	0.704086	0	0	5.802174e+01
121.133369	1.279574	mountain	1	0	0.000000	1.626305	1	0	0	0	CorrectOmission	2.175866	0.695465	0	0	5.804348e+01
122.412941	1.279576	city	7	1	1.351339	1.351339	0	1	0	0	CorrectCommission	0.644878	0.672898	1	0	5.806522e+01
123.719208	1.332955	city	5	1	1.214246	1.214246	0	1	0	0	CorrectCommission	0.118448	0.638833	1	0	5.808696e+01
125.038780	1.306192	city	7	1	1.262650	1.262650	0	1	0	0	CorrectCommission	0.151063	0.597093	1	0	5.810870e+01
126.338242	1.292727	city	9	1	1.308916	1.308916	0	1	0	0	CorrectCommission	0.408666	0.552333	1	0	5.813043e+01
127.631157	1.293095	mountain	6	0	0.000000	1.265971	1	0	0	0	CorrectOmission	0.169551	0.509421	1	0	5.815217e+01
128.930725	1.306060	city	2	1	1.223489	1.223489	0	1	0	0	CorrectCommission	0.066986	0.472832	1	0	5.817391e+01
130.236969	1.306406	city	9	1	1.271143	1.271143	0	1	0	0	CorrectCommission	0.198352	0.446052	1	0	5.819565e+01
131.529953	1.279564	mountain	4	0	0.000000	1.269909	1	0	0	0	CorrectOmission	0.191482	0.431248	1	0	5.821739e+01
132.816650	1.293835	city	3	1	1.253622	1.253622	0	1	0	0	CorrectCommission	0.100795	0.429074	1	0	5.823913e+01
134.109573	1.292027	city	8	1	1.256116	1.256116	0	1	0	0	CorrectCommission	0.114682	0.438696	1	0	5.826087e+01
135.395294	1.279402	city	6	1	1.178403	1.178403	0	1	0	0	CorrectCommission	0.318021	0.458012	1	0	5.828261e+01
136.694794	1.319586	city	10	1	1.251058	1.251058	0	1	0	0	CorrectCommission	0.086521	0.483999	1	0	5.830435e+01
137.994431	1.279713	city	7	1	1.336221	1.336221	0	1	0	0	CorrectCommission	0.560701	0.513171	1	0	5.832609e+01
139.287415	1.306234	city	5	1	1.315437	1.315437	0	1	0	0	CorrectCommission	0.444980	0.542061	1	0	5.834783e+01
140.580231	1.279397	city	3	1	1.421818	1.421818	0	1	0	0	CorrectCommission	1.037299	0.567695	1	0	5.836957e+01
141.873123	1.306395	city	1	1	1.625050	1.625050	0	1	0	0	CorrectCommission	2.168883	0.587921	1	0	5.839130e+01
143.172806	1.292959	city	8	1	1.315274	1.315274	0	1	0	0	CorrectCommission	0.444072	0.601606	1	0	5.841304e+01
144.478958	1.319358	city	3	1	1.385294	1.385294	0	1	0	0	CorrectCommission	0.833936	0.608712	1	0	5.843478e+01
145.778427	1.279579	city	4	1	1.357678	1.357678	0	1	0	0	CorrectCommission	0.680173	0.610046	1	0	5.845652e+01
147.057999	1.279579	city	6	1	1.286962	1.286962	0	1	0	0	CorrectCommission	0.286431	0.606999	1	0	5.847826e+01
148.337662	1.279745	city	10	1	1.235945	1.235945	0	1	0	0	CorrectCommission	0.002369	0.601162	1	0	5.850000e+01
149.630661	1.306229	city	9	1	1.091131	1.091131	0	1	0	0	CorrectCommission	0.803941	0.594010	1	0	5.852174e+01
150.923569	1.279601	mountain	9	0	0.000000	1.170466	1	0	0	0	CorrectOmission	0.362212	0.586585	1	0	5.854348e+01
152.203018	1.279296	city	4	1	1.238199	1.238199	0	1	0	0	CorrectCommission	0.014924	0.579386	1	0	5.856522e+01
153.502579	1.319834	city	10	1	1.058584	1.058584	0	1	0	0	CorrectCommission	0.985165	0.572329	1	0	5.858696e+01
154.802231	1.279468	city	1	1	1.138410	1.138410	0	1	0	0	CorrectCommission	0.540695	0.564828	1	0	5.860870e+01
156.095093	1.306254	city	10	1	1.106797	1.106797	0	1	0	0	CorrectCommission	0.716719	0.556059	1	0	5.863043e+01
157.394745	1.293033	city	6	1	1.095557	1.095557	0	1	0	0	CorrectCommission	0.779300	0.545149	1	0	5.865217e+01
158.694366	1.306219	city	8	1	1.062837	1.062837	0	1	0	0	CorrectCommission	0.961481	0.531402	1	0	5.867391e+01
159.987259	1.279562	city	4	1	1.136545	1.136545	0	1	0	0	CorrectCommission	0.551080	0.514457	1	0	5.869565e+01
161.273499	1.292912	city	2	1	1.145899	1.145899	0	1	0	0	CorrectCommission	0.499001	0.494402	1	0	5.871739e+01
162.559677	1.279445	city	6	1	1.304024	1.304024	0	1	0	0	CorrectCommission	0.381429	0.471745	1	0	5.873913e+01
163.839233	1.279695	city	9	1	1.310286	1.310286	0	1	0	0	CorrectCommission	0.416295	0.447373	1	0	5.876087e+01
165.118896	1.279625	city	3	1	1.194061	1.194061	0	1	0	0	CorrectCommission	0.230836	0.422455	1	0	5.878261e+01
166.398483	1.279552	city	1	1	1.137043	1.137043	0	1	0	0	CorrectCommission	0.548309	0.398333	1	0	5.880435e+01
167.684753	1.292968	city	8	1	1.195554	1.195554	0	1	0	0	CorrectCommission	0.222522	0.376393	1	0	5.882609e+01
168.984314	1.306155	city	7	1	1.278388	1.278388	0	1	0	0	CorrectCommission	0.238693	0.358021	1	0	5.884783e+01
170.277191	1.279600	city	1	1	1.309633	1.309633	0	1	0	0	CorrectCommission	0.412663	0.344471	1	0	5.886957e+01
171.556793	1.279600	city	9	1	1.289563	1.289563	0	1	0	0	CorrectCommission	0.300914	0.336851	1	0	5.889130e+01
172.856354	1.319544	city	4	1	1.245116	1.245116	0	1	0	0	CorrectCommission	0.053436	0.336028	1	0	5.891304e+01
174.162521	1.292777	city	1	1	1.136843	1.136843	0	1	0	0	CorrectCommission	0.549421	0.342581	1	0	5.893478e+01
175.448761	1.279719	city	3	1	1.231650	1.231650	0	1	0	0	CorrectCommission	0.021545	0.356693	1	0	5.895652e+01
176.728348	1.279431	city	2	1	1.257330	1.257330	0	1	0	0	CorrectCommission	0.121442	0.378131	1	0	5.897826e+01
177.368057	10.943079	break	0	0	0.000000	1.257251	0	0	0	0	ThoughtProbe	0.121003	0.406163	1	59	59
188.970963	1.319656	city	2	1	1.266758	1.266758	0	1	0	0	CorrectCommission	0.173937	0.439575	1	0	5.839130e+01
190.270599	1.279614	mountain	10	0	0.000000	1.321196	1	0	0	0	CorrectOmission	0.477044	0.476745	1	0	5.778261e+01
191.550217	1.279605	city	1	1	1.363242	1.363242	0	1	0	0	CorrectCommission	0.711152	0.515709	1	0	5.717391e+01
192.843109	1.306183	city	6	1	1.335573	1.335573	0	1	0	0	CorrectCommission	0.557091	0.554358	1	0	5.656522e+01
194.135895	1.279387	city	9	1	1.140190	1.140190	0	1	0	0	CorrectCommission	0.530787	0.590603	1	0	5.595652e+01
195.415482	1.279801	city	10	1	1.036379	1.036379	0	1	0	0	CorrectCommission	1.108797	0.622571	1	0	5.534783e+01
196.695084	1.279414	city	6	1	1.391187	1.391187	0	1	0	0	CorrectCommission	0.866745	0.648753	1	0	5.473913e+01
197.981339	1.293074	city	1	1	1.084966	1.084966	0	1	0	0	CorrectCommission	0.838270	0.668168	1	0	5.413043e+01
199.274323	1.292904	city	5	1	1.100880	1.100880	0	1	0	0	CorrectCommission	0.749662	0.680375	1	0	5.352174e+01
200.573898	1.306240	mountain	7	1	1.048356	1.048356	0	0	1	0	CommissionError	1.042112	0.685493	0	0	5.291304e+01
201.866806	1.279578	city	10	1	1.286290	1.286290	0	1	0	0	CorrectCommission	0.282689	0.684102	1	0	5.230435e+01
203.146393	1.279601	city	6	1	1.400126	1.400126	0	1	0	0	CorrectCommission	0.916518	0.677180	1	0	5.169565e+01
204.425980	1.279561	mountain	8	0	0.000000	1.410686	1	0	0	0	CorrectOmission	0.975319	0.665911	1	0	5.108696e+01
205.725540	1.319560	city	2	1	1.338300	1.338300	0	1	0	0	CorrectCommission	0.572277	0.651587	1	0	5.047826e+01
207.031799	1.292964	city	1	1	1.203295	1.203295	0	1	0	0	CorrectCommission	0.179425	0.635475	1	0	4.986957e+01
208.324646	1.292726	city	9	1	1.052195	1.052195	0	1	0	0	CorrectCommission	1.020736	0.618678	1	0	4.926087e+01
209.610779	1.279541	city	8	1	1.149330	1.149330	0	1	0	0	CorrectCommission	0.479893	0.602062	1	0	4.865217e+01
210.890427	1.279747	city	7	1	1.298986	1.298986	0	1	0	0	CorrectCommission	0.353379	0.586246	1	0	4.804348e+01
212.169998	1.279411	city	10	1	1.124249	1.124249	0	1	0	0	CorrectCommission	0.619542	0.571560	1	0	4.743478e+01
213.462845	1.306269	city	3	1	1.262076	1.262076	0	1	0	0	CorrectCommission	0.147867	0.558103	1	0	4.682609e+01
214.755753	1.279546	city	9	1	1.092624	1.092624	0	1	0	0	CorrectCommission	0.795628	0.545824	1	0	4.621739e+01
216.035416	1.279794	city	3	1	1.089574	1.089574	0	1	0	0	CorrectCommission	0.812612	0.534564	1	0	4.560870e+01
217.335098	1.319572	city	10	1	1.061009	1.061009	0	1	0	0	CorrectCommission	0.971660	0.524189	1	0	45
218.641251	1.292742	city	8	1	1.247687	1.247687	0	1	0	0	CorrectCommission	0.067748	0.514626	1	0	4.439130e+01
219.940811	1.306368	city	7	1	1.223433	1.223433	0	1	0	0	CorrectCommission	0.067296	0.505935	1	0	4.378261e+01
221.247116	1.306244	city	2	1	1.280980	1.280980	0	1	0	0	CorrectCommission	0.253124	0.498306	1	0	4.317391e+01
222.540024	1.279569	city	3	1	1.404271	1.404271	0	1	0	0	CorrectCommission	0.939597	0.492076	1	0	4.256522e+01
223.819595	1.279583	city	5	1	1.358213	1.358213	0	1	0	0	CorrectCommission	0.683153	0.487675	1	0	4.195652e+01
225.105835	1.292885	city	7	1	1.416146	1.416146	0	1	0	0	CorrectCommission	1.005720	0.485622	1	0	4.134783e+01
226.398758	1.292951	city	10	1	1.197960	1.197960	0	1	0	0	CorrectCommission	0.209127	0.486400	1	0	4.073913e+01
227.685013	1.279572	city	9	1	1.241053	1.241053	0	1	0	0	CorrectCommission	0.030813	0.490393	1	0	4.013043e+01
228.977905	1.306220	city	10	1	1.274566	1.274566	0	1	0	0	CorrectCommission	0.217411	0.497770	1	0	3.952174e+01
230.297455	1.332878	city	9	1	1.235964	1.235964	0	1	0	0	CorrectCommission	0.002474	0.508454	1	0	3.891304e+01
231.610260	1.292738	city	7	1	1.129438	1.129438	0	1	0	0	CorrectCommission	0.590650	0.522116	1	0	3.830435e+01
232.896423	1.279583	mountain	2	0	0.000000	1.292015	1	0	0	0	CorrectOmission	0.314566	0.538242	1	0	3.769565e+01
234.176086	1.279749	city	3	1	1.469327	1.469327	0	1	0	0	CorrectCommission	1.301828	0.556253	1	0	3.708696e+01
235.475769	1.319598	city	5	1	1.407009	1.407009	0	1	0	0	CorrectCommission	0.954842	0.575601	1	0	3.647826e+01
236.795334	1.319544	city	3	1	1.348071	1.348071	0	1	0	0	CorrectCommission	0.626683	0.595876	1	0	3.586957e+01
238.128174	1.346138	city	6	1	1.298310	1.298310	0	1	0	0	CorrectCommission	0.349616	0.616844	1	0	3.526087e+01
239.447754	1.292998	city	4	1	1.307379	1.307379	0	1	0	0	CorrectCommission	0.400109	0.638432	1	0	3.465217e+01
240.740631	1.292780	city	2	1	1.253777	1.253777	0	1	0	0	CorrectCommission	0.101658	0.660650	1	0	3.404348e+01
242.033463	1.292862	city	8	1	1.050101	1.050101	0	1	0	0	CorrectCommission	1.032396	0.683517	1	0	3.343478e+01
243.333099	1.306412	city	1	1	0.991312	0.991312	0	1	0	0	CorrectCommission	1.359728	0.706949	0	0	3.282609e+01
244.626083	1.279573	city	9	1	1.355635	1.355635	0	1	0	0	CorrectCommission	0.668796	0.730714	0	0	3.221739e+01
245.912323	1.292911	city	10	1	1.153356	1.153356	0	1	0	0	CorrectCommission	0.457479	0.754397	0	0	3.160870e+01
246.558792	8.876899	break	0	0	0.000000	1.175250	0	0	0	0	ThoughtProbe	0.335577	0.777425	0	31	31
256.082214	1.293088	city	7	1	1.209664	1.209664	0	1	0	0	CorrectCommission	0.143962	0.799121	0	0	3.079412e+01
257.381897	1.306231	city	4	1	1.044946	1.044946	0	1	0	0	CorrectCommission	1.061096	0.818834	0	0	3.058824e+01
258.688110	1.306226	city	1	1	0.958798	0.958798	0	1	0	0	CorrectCommission	1.540764	0.836024	0	0	3.038235e+01
259.980957	1.279454	city	4	1	0.979979	0.979979	0	1	0	0	CorrectCommission	1.422828	0.850421	0	0	3.017647e+01
261.273865	1.306362	city	5	1	0.945567	0.945567	0	1	0	0	CorrectCommission	1.614431	0.862041	0	0	2.997059e+01
262.566833	1.279580	mountain	10	0	0.000000	1.057172	1	0	0	0	CorrectOmission	0.993024	0.871128	0	0	2.976471e+01
263.846436	1.279595	city	10	1	1.211135	1.211135	0	1	0	0	CorrectCommission	0.135770	0.878095	0	0	2.955882e+01
265.126007	1.279565	city	6	1	1.303797	1.303797	0	1	0	0	CorrectCommission	0.380167	0.883314	0	0	2.935294e+01
266.425537	1.319472	city	8	1	1.269503	1.269503	0	1	0	0	CorrectCommission	0.189220	0.886984	0	0	2.914706e+01
267.731750	1.292996	city	10	1	1.081433	1.081433	0	1	0	0	CorrectCommission	0.857939	0.889059	0	0	2.894118e+01
269.024719	1.292911	city	7	1	1.430087	1.430087	0	1	0	0	CorrectCommission	1.083341	0.889278	0	0	2.873529e+01
270.324188	1.306073	city	2	1	1.473184	1.473184	0	1	0	0	CorrectCommission	1.323301	0.887260	0	0	2.852941e+01
271.643768	1.333074	city	7	1	1.492387	1.492387	0	1	0	0	CorrectCommission	1.430221	0.882700	0	0	2.832353e+01
272.976685	1.332742	city	2	1	1.492866	1.492866	0	1	0	0	CorrectCommission	1.432892	0.875490	0	0	2.811765e+01
274.289581	1.293068	city	8	1	1.311343	1.311343	0	1	0	0	CorrectCommission	0.422182	0.865877	0	0	2.791176e+01
275.582489	1.292749	city	2	1	1.467663	1.467663	0	1	0	0	CorrectCommission	1.292561	0.854482	0	0	2.770588e+01
276.875397	1.293063	city	6	1	1.407735	1.407735	0	1	0	0	CorrectCommission	0.958888	0.842139	0	0	2.750000e+01
278.168396	1.292904	city	2	1	1.260968	1.260968	0	1	0	0	CorrectCommission	0.141696	0.829855	0	0	2.729412e+01
279.474518	1.319382	city	5	1	1.119618	1.119618	0	1	0	0	CorrectCommission	0.645331	0.818665	0	0	2.708824e+01
280.780731	1.293008	city	2	1	1.183637	1.183637	0	1	0	0	CorrectCommission	0.288877	0.809453	0	0	2.688235e+01
282.073730	1.292992	city	8	1	1.136860	1.136860	0	1	0	0	CorrectCommission	0.549330	0.802954	0	0	2.667647e+01
283.366669	1.292910	city	9	1	1.101979	1.101979	0	1	0	0	CorrectCommission	0.743543	0.799755	0	0	2.647059e+01
284.659576	1.292889	city	5	1	0.972431	0.972431	0	1	0	0	CorrectCommission	1.464855	0.800378	0	0	2.626471e+01
285.965729	1.319431	city	8	1	0.945066	0.945066	0	1	0	0	CorrectCommission	1.617222	0.805323	0	0	2.605882e+01
287.271973	1.293062	mountain	3	0	0.000000	1.251670	1	0	0	0	CorrectOmission	0.089929	0.815096	0	0	2.585294e+01
288.564972	1.292894	city	1	1	1.501391	1.501391	0	1	0	0	CorrectCommission	1.480357	0.830178	0	0	2.564706e+01
289.884491	1.346187	city	3	1	1.303376	1.303376	0	1	0	0	CorrectCommission	0.377820	0.850747	0	0	2.544118e+01
291.217407	1.319598	city	7	1	1.157384	1.157384	0	1	0	0	CorrectCommission	0.435051	0.876563	0	0	2.523529e+01
292.523621	1.292870	city	2	1	1.240885	1.240885	0	1	0	0	CorrectCommission	0.029878	0.906690	0	0	2.502941e+01
293.816528	1.292963	city	5	1	1.370164	1.370164	0	1	0	0	CorrectCommission	0.749694	0.939362	0	0	2.482353e+01
295.102814	1.279564	city	10	1	1.371012	1.371012	0	1	0	0	CorrectCommission	0.754414	0.971938	0	0	2.461765e+01
296.402374	1.319564	city	4	1	1.549621	1.549621	0	1	0	0	CorrectCommission	1.748900	1.001120	0	0	2.441176e+01
297.701965	1.279643	city	2	1	1.301209	1.301209	0	1	0	0	CorrectCommission	0.365756	1.023236	0	0	2.420588e+01
298.341797	8.103776	break	0	0	0.000000	1.550007	0	0	0	0	ThoughtProbe	1.751050	1.034786	0	24	24
307.085419	1.279674	city	4	1	1.709131	1.709131	0	1	0	0	CorrectCommission	2.637039	1.032853	0	0	2.407500e+01
308.371735	1.292976	city	10	1	1.191694	1.191694	0	1	0	0	CorrectCommission	0.244017	1.015626	0	0	2.415000e+01
309.671356	1.306255	mountain	10	0	0.000000	1.424354	1	0	0	0	CorrectOmission	1.051417	0.982815	0	0	2.422500e+01
310.970825	1.292725	city	6	1	1.757470	1.757470	0	1	0	0	CorrectCommission	2.906186	0.935642	0	0	2.430000e+01
312.270416	1.306399	city	1	1	1.541402	1.541402	0	1	0	0	CorrectCommission	1.703134	0.876829	0	0	2.437500e+01
313.563324	1.279416	city	4	1	1.284224	1.284224	0	1	0	0	CorrectCommission	0.271184	0.810356	0	0	2.445000e+01
314.849457	1.292902	mountain	7	0	0.000000	1.217498	1	0	0	0	CorrectOmission	0.100340	0.740888	0	0	2.452500e+01
316.135742	1.279675	city	6	1	1.236453	1.236453	0	1	0	0	CorrectCommission	0.005199	0.673206	1	0	2.460000e+01
317.415344	1.279495	city	1	1	1.236316	1.236316	0	1	0	0	CorrectCommission	0.004438	0.611658	1	0	2.467500e+01
318.701538	1.292925	city	6	1	1.250842	1.250842	0	1	0	0	CorrectCommission	0.085317	0.559697	1	0	2.475000e+01
319.987823	1.279651	city	9	1	1.289795	1.289795	0	1	0	0	CorrectCommission	0.302206	0.519579	1	0	2.482500e+01
321.274109	1.292867	city	2	1	1.303178	1.303178	0	1	0	0	CorrectCommission	0.376718	0.492262	1	0	2.490000e+01
322.560303	1.279553	city	7	1	1.282460	1.282460	0	1	0	0	CorrectCommission	0.261365	0.477533	1	0	2.497500e+01
323.846527	1.292878	city	10	1	1.138376	1.138376	0	1	0	0	CorrectCommission	0.540888	0.474150	1	0	2.505000e+01
325.146149	1.306398	city	8	1	1.039307	1.039307	0	1	0	0	CorrectCommission	1.092495	0.480157	1	0	2.512500e+01
326.439087	1.279425	city	1	1	1.229591	1.229591	0	1	0	0	CorrectCommission	0.033009	0.493138	1	0	2.520000e+01
327.718597	1.279599	city	4	1	1.332221	1.332221	0	1	0	0	CorrectCommission	0.538432	0.510502	1	0	2.527500e+01
329.031586	1.346382	city	6	1	1.248735	1.248735	0	1	0	0	CorrectCommission	0.073587	0.529623	1	0	2.535000e+01
330.351135	1.292729	city	2	1	1.172956	1.172956	0	1	0	0	CorrectCommission	0.348348	0.548067	1	0	2.542500e+01
331.650696	1.306394	city	8	1	1.044964	1.044964	0	1	0	0	CorrectCommission	1.060998	0.563673	1	0	2.550000e+01
332.943695	1.279605	city	2	1	1.072913	1.072913	0	1	0	0	CorrectCommission	0.905380	0.574749	1	0	2.557500e+01
334.229919	1.292861	city	7	1	1.119086	1.119086	0	1	0	0	CorrectCommission	0.648292	0.580171	1	0	2.565000e+01
335.516083	1.279453	city	4	1	1.158500	1.158500	0	1	0	0	CorrectCommission	0.428837	0.579431	1	0	2.572500e+01
336.795654	1.279722	city	5	1	1.025852	1.025852	0	1	0	0	CorrectCommission	1.167412	0.572761	1	0	2.580000e+01
338.082001	1.292932	city	2	1	1.022295	1.022295	0	1	0	0	CorrectCommission	1.187220	0.561092	1	0	2.587500e+01
339.388153	1.319377	city	3	1	1.196914	1.196914	0	1	0	0	CorrectCommission	0.214950	0.546000	1	0	2.595000e+01
340.707642	1.319581	city	1	1	1.275610	1.275610	0	1	0	0	CorrectCommission	0.223224	0.529646	1	0	2.602500e+01
342.040527	1.346228	mountain	9	0	0.000000	1.341970	1	0	0	0	CorrectOmission	0.592713	0.514506	1	0	2.610000e+01
343.360199	1.293074	city	1	1	1.352834	1.352834	0	1	0	0	CorrectCommission	0.653200	0.503135	1	0	2.617500e+01
344.653168	1.292912	city	5	1	1.265040	1.265040	0	1	0	0	CorrectCommission	0.164367	0.497915	1	0	2.625000e+01
345.966064	1.332880	city	10	1	1.222203	1.222203	0	1	0	0	CorrectCommission	0.074143	0.500787	1	0	2.632500e+01
347.278992	1.292931	city	3	1	1.257430	1.257430	0	1	0	0	CorrectCommission	0.121997	0.513020	1	0	2.640000e+01
348.565155	1.279387	city	7	1	1.252454	1.252454	0	1	0	0	CorrectCommission	0.094291	0.535039	1	0	2.647500e+01
349.844727	1.279772	city	1	1	1.135568	1.135568	0	1	0	0	CorrectCommission	0.556521	0.566356	1	0	2.655000e+01
351.131042	1.292897	city	10	1	1.436856	1.436856	0	1	0	0	CorrectCommission	1.121028	0.605573	1	0	2.662500e+01
352.417297	1.279578	city	5	1	1.182813	1.182813	0	1	0	0	CorrectCommission	0.293465	0.650513	1	0	2.670000e+01
353.710114	1.306057	city	2	1	1.144523	1.144523	0	1	0	0	CorrectCommission	0.506661	0.698417	0	0	2.677500e+01
355.003021	1.279751	city	1	1	1.182714	1.182714	0	1	0	0	CorrectCommission	0.294018	0.746246	0	0	2.685000e+01
356.295929	1.306064	city	5	1	1.207457	1.207457	0	1	0	0	CorrectCommission	0.156246	0.790993	0	0	2.692500e+01
356.948944	8.743697	break	0	0	0.000000	1.509222	0	0	0	0	ThoughtProbe	1.523957	0.830045	0	27	27
366.332489	1.279683	city	1	1	1.722789	1.722789	0	1	0	0	CorrectCommission	2.713083	0.861463	0	0	2.697059e+01
367.618896	1.293123	city	10	1	1.482941	1.482941	0	1	0	0	CorrectCommission	1.377625	0.884220	0	0	2.694118e+01
368.918457	1.306011	city	2	1	1.344100	1.344100	0	1	0	0	CorrectCommission	0.604572	0.898335	0	0	2.691176e+01
370.231323	1.319738	city	7	1	1.142521	1.142521	0	1	0	0	CorrectCommission	0.517808	0.904765	0	0	2.688235e+01
371.537567	1.292732	mountain	10	0	0.000000	1.361547	1	0	0	0	CorrectOmission	0.701716	0.905215	0	0	2.685294e+01
372.823761	1.279644	city	3	1	1.570475	1.570475	0	1	0	0	CorrectCommission	1.865010	0.901811	0	0	2.682353e+01
374.116669	1.306184	city	1	1	1.338599	1.338599	0	1	0	0	CorrectCommission	0.573943	0.896753	0	0	2.679412e+01
375.436218	1.332891	city	6	1	1.227242	1.227242	0	1	0	0	CorrectCommission	0.046084	0.892061	0	0	2.676471e+01
376.755768	1.306231	city	4	1	1.147012	1.147012	0	1	0	0	CorrectCommission	0.492800	0.889241	0	0	2.673529e+01
378.048676	1.279576	city	3	1	1.148364	1.148364	0	1	0	0	CorrectCommission	0.485273	0.889149	0	0	2.670588e+01
379.335022	1.293091	city	10	1	0.986399	0.986399	0	1	0	0	CorrectCommission	1.387086	0.891992	0	0	2.667647e+01
380.641327	1.319559	city	9	1	0.992510	0.992510	0	1	0	0	CorrectCommission	1.353057	0.897361	0	0	2.664706e+01
381.954224	1.306226	city	8	1	1.048967	1.048967	0	1	0	0	CorrectCommission	1.038712	0.904422	0	0	2.661765e+01
383.260468	1.306261	city	7	1	1.114727	1.114727	0	1	0	0	CorrectCommission	0.672561	0.912099	0	0	2.658824e+01
384.553375	1.279578	city	1	1	1.047644	1.047644	0	1	0	0	CorrectCommission	1.046075	0.919234	0	0	2.655882e+01
385.832977	1.279596	city	3	1	1.299355	1.299355	0	1	0	0	CorrectCommission	0.355436	0.924806	0	0	2.652941e+01
387.132538	1.319522	city	7	1	1.464747	1.464747	0	1	0	0	CorrectCommission	1.276323	0.928022	0	0	2.650000e+01
388.438660	1.292750	city	3	1	1.431810	1.431810	0	1	0	0	CorrectCommission	1.092932	0.928459	0	0	2.647059e+01
389.764862	1.359631	city	6	1	1.394621	1.394621	0	1	0	0	CorrectCommission	0.885869	0.926186	0	0	2.644118e+01
391.104431	1.319483	mountain	6	0	0.000000	1.447454	1	0	0	0	CorrectOmission	1.180038	0.921763	0	0	2.641176e+01
392.404053	1.279762	city	5	1	1.479030	1.479030	0	1	0	0	CorrectCommission	1.355850	0.916220	0	0	2.638235e+01
393.703613	1.319402	city	9	1	1.378070	1.378070	0	1	0	0	CorrectCommission	0.793714	0.910939	0	0	2.635294e+01
395.016541	1.306409	city	7	1	1.118477	1.118477	0	1	0	0	CorrectCommission	0.651684	0.907527	0	0	2.632353e+01
396.309509	1.279558	city	6	1	1.018315	1.018315	0	1	0	0	CorrectCommission	1.209378	0.907619	0	0	2.629412e+01
397.615753	1.332926	city	3	1	1.140205	1.140205	0	1	0	0	CorrectCommission	0.530702	0.912629	0	0	2.626471e+01
398.961945	1.359428	city	1	1	1.166796	1.166796	0	1	0	0	CorrectCommission	0.382644	0.923550	0	0	2.623529e+01
400.294739	1.306180	city	2	1	1.351256	1.351256	0	1	0	0	CorrectCommission	0.644413	0.940742	0	0	2.620588e+01
401.607605	1.319573	city	7	1	1.169128	1.169128	0	1	0	0	CorrectCommission	0.369662	0.963794	0	0	2.617647e+01
402.913849	1.292913	city	9	1	1.001701	1.001701	0	1	0	0	CorrectCommission	1.301884	0.991612	0	0	2.614706e+01
404.200104	1.279562	city	6	1	0.964976	0.964976	0	1	0	0	CorrectCommission	1.506367	1.022458	0	0	2.611765e+01
405.492981	1.306230	city	2	1	1.084848	1.084848	0	1	0	0	CorrectCommission	0.838925	1.054118	0	0	2.608824e+01
406.819214	1.346217	city	7	1	1.112643	1.112643	0	1	0	0	CorrectCommission	0.684169	1.084216	0	0	2.605882e+01
408.132202	1.279782	city	1	1	0.933626	0.933626	0	1	0	0	CorrectCommission	1.680919	1.110420	0	0	2.602941e+01
411.464447	5.384706	break	0	0	0.000000	1.416300	0	0	0	0	ThoughtProbe	1.006575	1.130707	0	26	26
414.816681	1.319718	city	6	1	1.779331	1.779331	0	1	0	0	CorrectCommission	3.027905	1.143629	0	0	2.717500e+01
416.123138	1.293226	city	10	1	1.241385	1.241385	0	1	0	0	CorrectCommission	0.032663	1.148387	0	0	2.835000e+01
417.429291	1.319082	city	5	1	1.214270	1.214270	0	1	0	0	CorrectCommission	0.118315	1.145043	0	0	2.952500e+01
418.735321	1.292990	city	9	1	0.916759	0.916759	0	1	0	0	CorrectCommission	1.774833	1.134343	0	0	3.070000e+01
420.041656	1.319656	city	1	1	0.833592	0.833592	0	1	0	0	CorrectCommission	2.237902	1.117612	0	0	3.187500e+01
421.361176	1.319411	mountain	5	1	0.824381	0.824381	0	0	1	0	CommissionError	2.289188	1.096629	0	0	3.305000e+01
422.674103	1.306401	city	8	1	1.317066	1.317066	0	1	0	0	CorrectCommission	0.454048	1.073294	0	0	3.422500e+01
423.980377	1.306162	city	6	1	1.273084	1.273084	0	1	0	0	CorrectCommission	0.209157	1.049362	0	0	3.540000e+01
425.286591	1.306286	city	3	1	1.209216	1.209216	0	1	0	0	CorrectCommission	0.146455	1.026105	0	0	3.657500e+01
426.592804	1.306111	city	5	1	1.376199	1.376199	0	1	0	0	CorrectCommission	0.783297	1.004149	0	0	3.775000e+01
427.912384	1.333043	city	10	1	1.444692	1.444692	0	1	0	0	CorrectCommission	1.164660	0.983389	0	0	3.892500e+01
429.238678	1.319559	city	1	1	1.436152	1.436152	0	1	0	0	CorrectCommission	1.117110	0.963092	0	0	4.010000e+01
430.558228	1.319522	city	4	1	1.266614	1.266614	0	1	0	0	CorrectCommission	0.173133	0.942149	0	0	4.127500e+01
431.864380	1.292808	mountain	5	0	0.000000	1.510578	1	0	0	0	CorrectOmission	1.531506	0.919415	0	0	4.245000e+01
433.150574	1.279574	city	1	1	1.686227	1.686227	0	1	0	0	CorrectCommission	2.509508	0.893979	0	0	4.362500e+01
434.443542	1.306376	city	6	1	1.311745	1.311745	0	1	0	0	CorrectCommission	0.424418	0.865526	0	0	4.480000e+01
435.756531	1.319588	city	10	1	1.020877	1.020877	0	1	0	0	CorrectCommission	1.195114	0.834501	0	0	4.597500e+01
437.082764	1.332894	city	6	1	1.071807	1.071807	0	1	0	0	CorrectCommission	0.911541	0.801991	0	0	4.715000e+01
438.388947	1.279445	mountain	9	0	0.000000	1.156385	1	0	0	0	CorrectOmission	0.440616	0.769670	0	0	4.832500e+01
439.675110	1.292913	city	8	1	1.240747	1.240747	0	1	0	0	CorrectCommission	0.029108	0.739499	0	0	4.950000e+01
440.988098	1.333025	city	5	1	1.291030	1.291030	0	1	0	0	CorrectCommission	0.309078	0.713392	0	0	5.067500e+01
442.301056	1.292888	city	9	1	1.437827	1.437827	0	1	0	0	CorrectCommission	1.126439	0.692944	0	0	5.185000e+01
443.587219	1.279431	city	4	1	1.308231	1.308231	0	1	0	0	CorrectCommission	0.404852	0.679130	1	0	5.302500e+01
444.900116	1.346363	city	6	1	1.208788	1.208788	0	1	0	0	CorrectCommission	0.148838	0.672281	1	0	5.420000e+01
446.219757	1.292931	city	4	1	1.444362	1.444362	0	1	0	0	CorrectCommission	1.162825	0.671965	1	0	5.537500e+01
447.525909	1.319396	city	9	1	1.282561	1.282561	0	1	0	0	CorrectCommission	0.261927	0.677004	1	0	5.655000e+01
448.845490	1.319788	city	4	1	1.211878	1.211878	0	1	0	0	CorrectCommission	0.131632	0.685708	0	0	5.772500e+01
450.145050	1.279323	city	7	1	1.073866	1.073866	0	1	0	0	CorrectCommission	0.900075	0.696019	0	0	5.890000e+01
451.444519	1.319596	city	8	1	0.990806	0.990806	0	1	0	0	CorrectCommission	1.362548	0.705761	0	0	6.007500e+01
452.744202	1.279755	city	4	1	1.075595	1.075595	0	1	0	0	CorrectCommission	0.890448	0.712857	0	0	6.125000e+01
454.023773	1.279411	city	9	1	1.075739	1.075739	0	1	0	0	CorrectCommission	0.889646	0.715539	0	0	6.242500e+01
455.316620	1.306249	city	6	1	1.149280	1.149280	0	1	0	0	CorrectCommission	0.480176	0.712486	0	0	6.360000e+01
456.636261	1.333034	city	7	1	1.126322	1.126322	0	1	0	0	CorrectCommission	0.608004	0.702942	0	0	6.477500e+01
457.982452	1.359393	city	9	1	1.150447	1.150447	0	1	0	0	CorrectCommission	0.473676	0.686756	0	0	6.595000e+01
459.308716	1.293098	city	10	1	0.937066	0.937066	0	1	0	0	CorrectCommission	1.661764	0.664424	1	0	6.712500e+01
460.621704	1.332875	city	9	1	1.043836	1.043836	0	1	0	0	CorrectCommission	1.067280	0.636983	1	0	6.830000e+01
461.927917	1.279594	city	8	1	1.127559	1.127559	0	1	0	0	CorrectCommission	0.601115	0.605976	1	0	6.947500e+01
463.220825	1.306224	city	7	1	1.333185	1.333185	0	1	0	0	CorrectCommission	0.543797	0.573348	1	0	7.065000e+01
464.533630	1.319390	city	1	1	1.209896	1.209896	0	1	0	0	CorrectCommission	0.142669	0.541242	1	0	7.182500e+01
468.172485	5.958272	break	0	0	0.000000	1.227812	0	0	0	0	ThoughtProbe	0.042913	0.511876	1	73	73
471.791382	1.279539	city	4	1	1.253893	1.253893	0	1	0	0	CorrectCommission	0.102303	0.487427	1	0	7.297826e+01
473.090912	1.319537	city	10	1	1.155098	1.155098	0	1	0	0	CorrectCommission	0.447782	0.469899	1	0	7.295652e+01
474.397156	1.292934	city	1	1	1.152268	1.152268	0	1	0	0	CorrectCommission	0.463538	0.461040	1	0	7.293478e+01
475.690033	1.292793	city	4	1	1.394453	1.394453	0	1	0	0	CorrectCommission	0.884932	0.462255	1	0	7.291304e+01
477.016144	1.359475	city	2	1	1.317068	1.317068	0	1	0	0	CorrectCommission	0.454059	0.474489	1	0	7.289130e+01
478.349091	1.306422	city	10	1	1.211623	1.211623	0	1	0	0	CorrectCommission	0.133053	0.498130	1	0	7.286957e+01
479.668671	1.332743	city	1	1	1.276150	1.276150	0	1	0	0	CorrectCommission	0.226230	0.532790	1	0	7.284783e+01
480.988281	1.306458	city	2	1	1.189402	1.189402	0	1	0	0	CorrectCommission	0.256777	0.577186	1	0	7.282609e+01
482.287933	1.292826	mountain	10	0	0.000000	1.219503	1	0	0	0	CorrectOmission	0.089179	0.629038	1	0	7.280435e+01
483.587463	1.306248	city	6	1	1.235478	1.235478	0	1	0	0	CorrectCommission	0.000230	0.685123	1	0	7.278261e+01
484.893707	1.306223	city	8	1	1.106354	1.106354	0	1	0	0	CorrectCommission	0.719182	0.741446	0	0	7.276087e+01
486.199951	1.306258	city	2	1	1.053938	1.053938	0	1	0	0	CorrectCommission	1.011029	0.793644	0	0	7.273913e+01
487.519501	1.332867	city	4	1	0.999525	0.999525	0	1	0	0	CorrectCommission	1.313998	0.837499	0	0	7.271739e+01
488.839020	1.306165	city	6	1	0.997873	0.997873	0	1	0	0	CorrectCommission	1.323195	0.869571	0	0	7.269565e+01
490.151917	1.319651	city	1	1	0.927595	0.927595	0	1	0	0	CorrectCommission	1.714504	0.887806	0	0	7.267391e+01
491.458221	1.292920	mountain	1	0	0.000000	0.908865	1	0	0	0	CorrectOmission	1.818789	0.891968	0	0	7.265217e+01
492.771027	1.332710	city	3	1	0.935526	0.935526	0	1	0	0	CorrectCommission	1.670344	0.883952	0	0	7.263043e+01
494.083862	1.292934	city	6	1	1.001418	1.001418	0	1	0	0	CorrectCommission	1.303461	0.867767	0	0	7.260870e+01
495.383514	1.306376	mountain	5	0	0.000000	1.203297	1	0	0	0	CorrectOmission	0.179409	0.849172	0	0	7.258696e+01
496.683105	1.292834	city	1	1	1.355138	1.355138	0	1	0	0	CorrectCommission	0.666031	0.835024	0	0	7.256522e+01
497.982605	1.306152	city	4	1	1.270914	1.270914	0	1	0	0	CorrectCommission	0.197077	0.832368	0	0	7.254348e+01
499.282196	1.293057	city	2	1	1.249703	1.249703	0	1	0	0	CorrectCommission	0.078976	0.847512	0	0	7.252174e+01
500.575226	1.292965	city	9	1	1.327863	1.327863	0	1	0	0	CorrectCommission	0.514163	0.884999	0	0	7.250000e+01
501.888123	1.332854	city	1	1	1.215691	1.215691	0	1	0	0	CorrectCommission	0.110400	0.946822	0	0	7.247826e+01
503.194244	1.279407	city	5	1	1.311277	1.311277	0	1	0	0	CorrectCommission	0.421816	1.031881	0	0	7.245652e+01
504.473755	1.279588	city	9	1	1.310937	1.310937	0	1	0	0	CorrectCommission	0.419922	1.135810	0	0	7.243478e+01
505.773407	1.319737	mountain	1	0	0.000000	1.324006	1	0	0	0	CorrectOmission	0.492690	1.251282	0	0	7.241304e+01
507.126373	1.386194	city	8	1	1.242509	1.242509	0	1	0	0	CorrectCommission	0.038918	1.368730	0	0	7.239130e+01
508.485870	1.332806	city	5	1	0.958469	0.958469	0	1	0	0	CorrectCommission	1.542595	1.477494	0	0	7.236957e+01
509.805389	1.306190	city	6	1	0.800021	0.800021	0	1	0	0	CorrectCommission	2.424826	1.567140	0	0	7.234783e+01
511.118256	1.319557	city	9	1	0.511358	0.511358	0	1	0	0	CorrectCommission	4.032080	1.628998	0	0	7.232609e+01
512.424561	1.293049	city	6	1	0.500601	0.500601	0	1	0	0	CorrectCommission	4.091975	1.657368	0	0	7.230435e+01
513.724121	1.306095	city	5	1	0.517623	0.517623	0	1	0	0	CorrectCommission	3.997197	1.650454	0	0	7.228261e+01
515.037048	1.319709	city	7	1	0.564920	0.564920	0	1	0	0	CorrectCommission	3.733851	1.610618	0	0	7.226087e+01
516.349976	1.306240	city	3	1	1.222226	1.222226	0	1	0	0	CorrectCommission	0.074018	1.544065	0	0	7.223913e+01
517.649475	1.292762	city	2	1	1.260136	1.260136	0	1	0	0	CorrectCommission	0.137067	1.460043	0	0	7.221739e+01
518.942383	1.292971	city	4	1	1.367391	1.367391	0	1	0	0	CorrectCommission	0.734256	1.369465	0	0	7.219565e+01
520.241943	1.306153	city	7	1	1.369594	1.369594	0	1	0	0	CorrectCommission	0.746519	1.283564	0	0	7.217391e+01
521.541504	1.292954	city	5	1	1.328021	1.328021	0	1	0	0	CorrectCommission	0.515046	1.212515	0	0	7.215217e+01
522.847778	1.319661	city	8	1	1.273427	1.273427	0	1	0	0	CorrectCommission	0.211067	1.164387	0	0	7.213043e+01
524.154053	1.292834	city	9	1	1.430291	1.430291	0	1	0	0	CorrectCommission	1.084474	1.144386	0	0	7.210870e+01
525.480286	1.359683	city	1	1	1.245862	1.245862	0	1	0	0	CorrectCommission	0.057591	1.154433	0	0	7.208696e+01
526.799927	1.279579	city	10	1	1.425768	1.425768	0	1	0	0	CorrectCommission	1.059295	1.193244	0	0	7.206522e+01
528.086182	1.292902	city	7	1	1.194552	1.194552	0	1	0	0	CorrectCommission	0.228101	1.256525	0	0	7.204348e+01
529.372375	1.279451	city	6	1	1.086802	1.086802	0	1	0	0	CorrectCommission	0.828047	1.337590	0	0	7.202174e+01
532.724548	5.424950	break	0	0	0.000000	0.979052	0	0	0	0	ThoughtProbe	1.427993	1.427993	0	72	72
