onset	duration	trial_type	image_type	Press	ReactionTime	ReactionTime_Interpolated	CorrectOmission	CorrectCommission	CommissionError	OmissionError	response_type	nonsmoothVarianceTimeCourse	VarianceTimeCourse	In_the_Zone	ThoughtProbe	ThoughtProbe_Interpolated
0.686158	1.346121	city	3	1	1.192843	1.192843	0	1	0	0	CorrectCommission	0.127849	0.127849	1	0	69
1.999065	1.279693	city	5	1	1.180240	1.180240	0	1	0	0	CorrectCommission	0.208408	0.252267	1	0	69
3.291940	1.306057	city	10	1	1.195498	1.195498	0	1	0	0	CorrectCommission	0.110881	0.377728	1	0	69
4.591519	1.293101	city	5	1	1.190531	1.190531	0	1	0	0	CorrectCommission	0.142628	0.504820	1	0	69
5.891188	1.306236	city	7	1	1.100720	1.100720	0	1	0	0	CorrectCommission	0.716688	0.633260	1	0	69
7.184001	1.279392	city	5	1	1.121663	1.121663	0	1	0	0	CorrectCommission	0.582820	0.761675	0	0	69
8.463513	1.279632	city	4	1	1.177109	1.177109	0	1	0	0	CorrectCommission	0.228421	0.887617	0	0	69
9.743139	1.279620	mountain	8	0	0.000000	1.130508	1	0	0	0	CorrectOmission	0.526289	1.007699	0	0	69
11.022780	1.279662	city	4	0	0.000000	1.024396	0	0	0	1	OmissionError	1.204540	1.118015	0	0	69
12.309077	1.292933	city	2	1	0.901311	0.901311	0	1	0	0	CorrectCommission	1.991286	1.214630	0	0	69
13.601962	1.292836	city	3	1	0.803787	0.803787	0	1	0	0	CorrectCommission	2.614644	1.294201	0	0	69
14.894768	1.292775	city	1	1	0.870413	0.870413	0	1	0	0	CorrectCommission	2.188781	1.354401	0	0	69
16.194374	1.306437	city	3	1	1.758268	1.758268	0	1	0	0	CorrectCommission	3.486277	1.394265	0	0	69
17.487354	1.279525	city	4	1	1.334718	1.334718	0	1	0	0	CorrectCommission	0.778998	1.414209	0	0	69
18.766922	1.279611	city	2	1	1.123544	1.123544	0	1	0	0	CorrectCommission	0.570801	1.415995	0	0	69
20.046429	1.279401	city	7	1	1.077082	1.077082	0	1	0	0	CorrectCommission	0.867777	1.402286	0	0	69
21.339249	1.306238	city	8	1	0.911407	0.911407	0	1	0	0	CorrectCommission	1.926753	1.376310	0	0	69
22.632158	1.279581	city	2	1	1.039192	1.039192	0	1	0	0	CorrectCommission	1.109970	1.341469	0	0	69
23.911737	1.279580	city	5	1	1.017880	1.017880	0	1	0	0	CorrectCommission	1.246193	1.301015	0	0	69
25.191410	1.279763	city	7	1	0.860972	0.860972	0	1	0	0	CorrectCommission	2.249124	1.257776	0	0	69
26.477652	1.292722	city	5	1	0.967165	0.967165	0	1	0	0	CorrectCommission	1.570351	1.213992	0	0	69
27.763887	1.279748	mountain	8	0	0.000000	1.137648	1	0	0	0	CorrectOmission	0.480646	1.171330	0	0	69
29.043467	1.279409	city	8	1	1.235551	1.235551	0	1	0	0	CorrectCommission	0.145138	1.130872	0	0	69
30.323051	1.279761	city	4	1	1.124004	1.124004	0	1	0	0	CorrectCommission	0.567857	1.093128	0	0	69
31.602682	1.279502	city	7	1	1.021410	1.021410	0	1	0	0	CorrectCommission	1.223630	1.058198	0	0	69
32.888916	1.292963	city	5	1	0.877278	0.877278	0	1	0	0	CorrectCommission	2.144900	1.025888	0	0	69
34.188473	1.306151	city	7	1	1.049783	1.049783	0	1	0	0	CorrectCommission	1.042272	0.995846	0	0	69
35.488060	1.293020	city	10	1	0.965200	0.965200	0	1	0	0	CorrectCommission	1.582916	0.967751	0	0	69
36.794289	1.319443	city	4	1	1.192944	1.192944	0	1	0	0	CorrectCommission	0.127203	0.941299	0	0	69
38.100498	1.292972	city	9	1	1.197262	1.197262	0	1	0	0	CorrectCommission	0.099601	0.916324	0	0	69
39.393375	1.292779	city	3	1	1.100705	1.100705	0	1	0	0	CorrectCommission	0.716783	0.892763	0	0	69
40.679649	1.279769	city	6	1	1.034200	1.034200	0	1	0	0	CorrectCommission	1.141877	0.870669	0	0	69
41.972622	1.306176	city	3	1	1.000896	1.000896	0	1	0	0	CorrectCommission	1.354753	0.850197	0	0	69
42.625710	9.516901	break	0	1	0.982988	0.982988	0	0	0	0	ThoughtProbe	1.469218	0.831623	0	69	69
52.789017	1.292819	city	2	1	1.265583	1.265583	0	1	0	0	CorrectCommission	0.337096	0.815267	0	0	6.895000e+01
54.081947	1.293037	city	8	1	1.276086	1.276086	0	1	0	0	CorrectCommission	0.404232	0.801498	0	0	6.890000e+01
55.374821	1.292709	city	9	1	1.427705	1.427705	0	1	0	0	CorrectCommission	1.373360	0.790601	0	0	6.885000e+01
56.707706	1.373067	city	10	1	1.233382	1.233382	0	1	0	0	CorrectCommission	0.131274	0.782666	0	0	6.880000e+01
58.033936	1.279392	city	2	1	1.296562	1.296562	0	1	0	0	CorrectCommission	0.535113	0.777560	0	0	6.875000e+01
59.326836	1.306403	city	7	1	1.204487	1.204487	0	1	0	0	CorrectCommission	0.053419	0.774869	0	0	6.870000e+01
60.619823	1.279573	city	5	1	1.071357	1.071357	0	1	0	0	CorrectCommission	0.904370	0.773962	0	0	6.865000e+01
61.906013	1.292805	mountain	6	1	0.919753	0.919753	0	0	1	0	CommissionError	1.873405	0.774047	0	0	6.860000e+01
63.192249	1.279671	mountain	1	0	0.000000	1.148985	1	0	0	0	CorrectOmission	0.408187	0.774295	0	0	6.855000e+01
64.471886	1.279607	city	7	1	1.399493	1.399493	0	1	0	0	CorrectCommission	1.193031	0.774022	0	0	6.850000e+01
65.758064	1.292746	city	3	1	1.311719	1.311719	0	1	0	0	CorrectCommission	0.631994	0.772677	0	0	6.845000e+01
67.050880	1.292892	city	8	1	1.143338	1.143338	0	1	0	0	CorrectCommission	0.444280	0.769942	0	0	6.840000e+01
68.337143	1.279633	city	6	1	1.440459	1.440459	0	1	0	0	CorrectCommission	1.454883	0.765673	0	0	6.835000e+01
69.690132	1.426339	city	2	1	1.284961	1.284961	0	1	0	0	CorrectCommission	0.460960	0.759801	0	0	6.830000e+01
71.043091	1.279576	city	7	1	1.206289	1.206289	0	1	0	0	CorrectCommission	0.041906	0.752390	1	0	6.825000e+01
72.322678	1.279596	mountain	8	0	0.000000	1.353683	1	0	0	0	CorrectOmission	0.900222	0.743457	1	0	6.820000e+01
73.602158	1.279369	city	3	1	1.463795	1.463795	0	1	0	0	CorrectCommission	1.604041	0.732982	1	0	6.815000e+01
74.901695	1.319700	city	2	1	1.273273	1.273273	0	1	0	0	CorrectCommission	0.386248	0.720896	1	0	6.810000e+01
76.214607	1.306128	city	9	1	1.287442	1.287442	0	1	0	0	CorrectCommission	0.476819	0.707154	1	0	6.805000e+01
77.514137	1.292936	city	8	1	1.088783	1.088783	0	1	0	0	CorrectCommission	0.792989	0.691720	1	0	68
78.800453	1.279693	city	5	1	1.195574	1.195574	0	1	0	0	CorrectCommission	0.110390	0.674676	1	0	6.795000e+01
80.080032	1.279471	city	10	1	0.968227	0.968227	0	1	0	0	CorrectCommission	1.563565	0.656295	1	0	6.790000e+01
81.372856	1.306177	city	2	1	1.048928	1.048928	0	1	0	0	CorrectCommission	1.047737	0.637039	1	0	6.785000e+01
82.672462	1.293034	city	1	1	1.136763	1.136763	0	1	0	0	CorrectCommission	0.486302	0.617629	1	0	6.780000e+01
83.978706	1.319449	city	9	1	1.156550	1.156550	0	1	0	0	CorrectCommission	0.359831	0.598944	1	0	6.775000e+01
85.284973	1.293079	city	7	1	1.217590	1.217590	0	1	0	0	CorrectCommission	0.030332	0.581979	1	0	6.770000e+01
86.577911	1.292800	city	4	1	1.383137	1.383137	0	1	0	0	CorrectCommission	1.088487	0.567777	1	0	6.765000e+01
87.864143	1.279670	city	10	1	1.177763	1.177763	0	1	0	0	CorrectCommission	0.224241	0.557337	1	0	6.760000e+01
89.157120	1.306288	city	3	1	1.209859	1.209859	0	1	0	0	CorrectCommission	0.019087	0.551577	1	0	6.755000e+01
90.449959	1.279375	city	7	1	1.249806	1.249806	0	1	0	0	CorrectCommission	0.236253	0.551285	1	0	6.750000e+01
91.736191	1.293090	city	8	1	1.031251	1.031251	0	1	0	0	CorrectCommission	1.160722	0.557116	1	0	6.745000e+01
93.042435	1.319397	city	10	1	1.055729	1.055729	0	1	0	0	CorrectCommission	1.004263	0.569523	1	0	6.740000e+01
94.355247	1.306235	city	6	1	1.214114	1.214114	0	1	0	0	CorrectCommission	0.008113	0.588764	1	0	6.735000e+01
95.654892	1.293053	city	3	1	1.091400	1.091400	0	1	0	0	CorrectCommission	0.776259	0.614810	1	0	6.730000e+01
96.947800	1.292763	city	5	1	1.244614	1.244614	0	1	0	0	CorrectCommission	0.203064	0.647175	1	0	6.725000e+01
98.234047	1.279722	city	3	1	1.304371	1.304371	0	1	0	0	CorrectCommission	0.585022	0.684916	1	0	6.720000e+01
99.520279	1.292749	city	1	1	1.152394	1.152394	0	1	0	0	CorrectCommission	0.386394	0.726482	1	0	6.715000e+01
100.806442	1.279579	city	8	1	1.104253	1.104253	0	1	0	0	CorrectCommission	0.694106	0.769759	0	0	6.710000e+01
102.092773	1.293087	city	2	1	1.264518	1.264518	0	1	0	0	CorrectCommission	0.330292	0.812140	0	0	6.705000e+01
102.739319	8.090508	break	0	0	0.000000	1.341890	0	0	0	0	ThoughtProbe	0.824839	0.850823	0	67	67
111.469696	1.279736	city	5	1	1.396720	1.396720	0	1	0	0	CorrectCommission	1.175305	0.883008	0	0	6.705882e+01
112.749275	1.279419	mountain	4	0	0.000000	1.489361	1	0	0	0	CorrectOmission	1.767458	0.906300	0	0	6.711765e+01
114.035522	1.293084	city	3	1	1.533533	1.533533	0	1	0	0	CorrectCommission	2.049796	0.919013	0	0	6.717647e+01
115.328537	1.292933	city	7	1	1.442952	1.442952	0	1	0	0	CorrectCommission	1.470818	0.920364	0	0	6.723529e+01
116.628021	1.306036	city	2	1	1.257701	1.257701	0	1	0	0	CorrectCommission	0.286715	0.910622	0	0	6.729412e+01
117.947495	1.332910	city	1	1	1.355997	1.355997	0	1	0	0	CorrectCommission	0.915009	0.891102	0	0	6.735294e+01
119.260452	1.293009	city	10	1	1.401494	1.401494	0	1	0	0	CorrectCommission	1.205820	0.863910	0	0	6.741176e+01
120.560081	1.306251	city	3	1	1.209047	1.209047	0	1	0	0	CorrectCommission	0.024276	0.831776	0	0	6.747059e+01
121.852921	1.279430	city	8	1	1.027403	1.027403	0	1	0	0	CorrectCommission	1.185320	0.797766	0	0	6.752941e+01
123.145767	1.306261	city	10	1	1.075956	1.075956	0	1	0	0	CorrectCommission	0.874978	0.764895	0	0	6.758824e+01
124.438675	1.279552	city	5	1	1.075404	1.075404	0	1	0	0	CorrectCommission	0.878503	0.735918	1	0	6.764706e+01
125.738327	1.319759	city	9	1	1.130732	1.130732	0	1	0	0	CorrectCommission	0.524853	0.713052	1	0	6.770588e+01
127.051231	1.306051	city	1	1	1.218547	1.218547	0	1	0	0	CorrectCommission	0.036446	0.697774	1	0	6.776471e+01
128.357452	1.306385	city	9	1	1.168275	1.168275	0	1	0	0	CorrectCommission	0.284883	0.690703	1	0	6.782353e+01
129.657120	1.292950	city	3	1	1.048283	1.048283	0	1	0	0	CorrectCommission	1.051860	0.691576	1	0	6.788235e+01
130.956696	1.306194	city	1	1	1.206723	1.206723	0	1	0	0	CorrectCommission	0.039131	0.699274	1	0	6.794118e+01
132.249603	1.279617	city	8	1	1.141594	1.141594	0	1	0	0	CorrectCommission	0.455429	0.712051	1	0	68
133.535858	1.292906	city	4	1	1.178391	1.178391	0	1	0	0	CorrectCommission	0.220224	0.727693	1	0	6.805882e+01
134.835403	1.306171	city	8	1	0.926520	0.926520	0	1	0	0	CorrectCommission	1.830155	0.743864	1	0	6.811765e+01
136.134872	1.292787	city	3	1	1.141922	1.141922	0	1	0	0	CorrectCommission	0.453328	0.758327	1	0	6.817647e+01
137.427719	1.292912	city	2	1	0.973334	0.973334	0	1	0	0	CorrectCommission	1.530924	0.769312	0	0	6.823529e+01
138.740738	1.333098	city	10	1	0.953708	0.953708	0	1	0	0	CorrectCommission	1.656368	0.775547	0	0	6.829412e+01
140.053711	1.292862	city	9	1	1.121784	1.121784	0	1	0	0	CorrectCommission	0.582046	0.776386	0	0	6.835294e+01
141.346603	1.292934	mountain	10	1	1.207968	1.207968	0	0	1	0	CommissionError	0.031170	0.771754	0	0	6.841176e+01
142.639450	1.292744	city	6	1	1.435188	1.435188	0	1	0	0	CorrectCommission	1.421192	0.762019	0	0	6.847059e+01
143.938919	1.306210	city	5	1	1.226169	1.226169	0	1	0	0	CorrectCommission	0.085168	0.747761	1	0	6.852941e+01
145.258514	1.332972	city	10	1	1.180325	1.180325	0	1	0	0	CorrectCommission	0.207860	0.729791	1	0	6.858824e+01
146.564850	1.279688	city	2	1	1.437787	1.437787	0	1	0	0	CorrectCommission	1.437806	0.708951	1	0	6.864706e+01
147.857758	1.306130	city	3	1	1.333589	1.333589	0	1	0	0	CorrectCommission	0.771782	0.686106	1	0	6.870588e+01
149.170578	1.319517	city	5	1	1.295009	1.295009	0	1	0	0	CorrectCommission	0.525184	0.662258	1	0	6.876471e+01
150.476776	1.292879	city	6	1	1.391430	1.391430	0	1	0	0	CorrectCommission	1.141497	0.638513	1	0	6.882353e+01
151.796417	1.346412	city	10	1	1.367451	1.367451	0	1	0	0	CorrectCommission	0.988226	0.616107	1	0	6.888235e+01
153.142654	1.346063	city	9	1	1.236948	1.236948	0	1	0	0	CorrectCommission	0.154064	0.596411	1	0	6.894118e+01
153.815689	9.357038	break	0	0	0.000000	1.237604	0	0	0	0	ThoughtProbe	0.158261	0.580807	1	69	69
163.832458	1.319472	city	6	1	1.284042	1.284042	0	1	0	0	CorrectCommission	0.455084	0.570558	1	0	6.904348e+01
165.152054	1.319717	city	4	1	1.290881	1.290881	0	1	0	0	CorrectCommission	0.498800	0.566617	1	0	6.908696e+01
166.478363	1.332890	city	9	1	1.276447	1.276447	0	1	0	0	CorrectCommission	0.406540	0.569470	1	0	6.913043e+01
167.791092	1.292569	city	5	1	1.315907	1.315907	0	1	0	0	CorrectCommission	0.658761	0.579040	1	0	6.917391e+01
169.143982	1.413197	city	8	1	1.215169	1.215169	0	1	0	0	CorrectCommission	0.014859	0.594630	1	0	6.921739e+01
170.497070	1.292978	city	10	1	1.150955	1.150955	0	1	0	0	CorrectCommission	0.395594	0.614980	1	0	6.926087e+01
171.796631	1.306160	city	8	1	1.268172	1.268172	0	1	0	0	CorrectCommission	0.353645	0.638356	1	0	6.930435e+01
173.089508	1.279588	mountain	6	0	0.000000	1.305976	1	0	0	0	CorrectOmission	0.595282	0.662870	1	0	6.934783e+01
174.375671	1.292738	city	10	1	1.371193	1.371193	0	1	0	0	CorrectCommission	1.012141	0.686643	1	0	6.939130e+01
175.661835	1.279589	city	7	1	1.570650	1.570650	0	1	0	0	CorrectCommission	2.287047	0.708110	1	0	6.943478e+01
176.954773	1.306280	city	4	1	1.170880	1.170880	0	1	0	0	CorrectCommission	0.268234	0.726152	1	0	6.947826e+01
178.280991	1.346162	city	10	1	1.096580	1.096580	0	1	0	0	CorrectCommission	0.743147	0.740302	1	0	6.952174e+01
179.607224	1.306319	city	8	1	1.109633	1.109633	0	1	0	0	CorrectCommission	0.659714	0.750590	1	0	6.956522e+01
180.900208	1.279634	mountain	1	0	0.000000	1.089813	1	0	0	0	CorrectOmission	0.786405	0.757525	1	0	6.960870e+01
182.186401	1.292765	city	10	1	1.132423	1.132423	0	1	0	0	CorrectCommission	0.514045	0.761901	0	0	6.965217e+01
183.485931	1.306296	city	1	1	1.332769	1.332769	0	1	0	0	CorrectCommission	0.766539	0.764615	0	0	6.969565e+01
184.792191	1.306206	city	5	1	1.330514	1.330514	0	1	0	0	CorrectCommission	0.752128	0.766484	0	0	6.973913e+01
186.085083	1.279577	city	7	1	1.388150	1.388150	0	1	0	0	CorrectCommission	1.120527	0.768157	0	0	6.978261e+01
187.411377	1.373018	city	2	1	1.234467	1.234467	0	1	0	0	CorrectCommission	0.138209	0.770010	0	0	6.982609e+01
188.750916	1.306076	city	5	1	1.342090	1.342090	0	1	0	0	CorrectCommission	0.826118	0.772194	0	0	6.986957e+01
190.070419	1.332914	mountain	9	0	0.000000	1.358367	1	0	0	0	CorrectOmission	0.930161	0.774612	0	0	6.991304e+01
191.376740	1.279741	city	10	1	1.338325	1.338325	0	1	0	0	CorrectCommission	0.802053	0.777046	0	0	6.995652e+01
192.656311	1.279391	city	1	1	1.336989	1.336989	0	1	0	0	CorrectCommission	0.793512	0.779224	0	0	70
193.955811	1.319615	city	7	1	1.473347	1.473347	0	1	0	0	CorrectCommission	1.665098	0.780851	0	0	7.004348e+01
195.275482	1.319710	city	3	1	1.176047	1.176047	0	1	0	0	CorrectCommission	0.235208	0.781675	0	0	7.008696e+01
196.575119	1.279578	city	6	1	1.199211	1.199211	0	1	0	0	CorrectCommission	0.087148	0.781536	0	0	7.013043e+01
197.854691	1.279554	city	2	1	1.038968	1.038968	0	1	0	0	CorrectCommission	1.111397	0.780342	0	0	7.017391e+01
199.140839	1.292746	mountain	6	0	0.000000	1.275630	1	0	0	0	CorrectOmission	0.401313	0.778043	0	0	7.021739e+01
200.427094	1.279761	city	3	1	1.497041	1.497041	0	1	0	0	CorrectCommission	1.816546	0.774675	0	0	7.026087e+01
201.720001	1.306056	city	6	1	1.291049	1.291049	0	1	0	0	CorrectCommission	0.499870	0.770276	0	0	7.030435e+01
203.032883	1.319714	city	10	1	1.130442	1.130442	0	1	0	0	CorrectCommission	0.526711	0.764970	0	0	7.034783e+01
204.345810	1.306143	city	7	1	1.030773	1.030773	0	1	0	0	CorrectCommission	1.163778	0.758872	1	0	7.039130e+01
205.671967	1.346181	city	4	1	1.115211	1.115211	0	1	0	0	CorrectCommission	0.624061	0.752090	1	0	7.043478e+01
206.998276	1.306421	city	6	1	1.159119	1.159119	0	1	0	0	CorrectCommission	0.343411	0.744724	1	0	7.047826e+01
208.317902	1.332845	city	7	1	1.071397	1.071397	0	1	0	0	CorrectCommission	0.904114	0.736868	1	0	7.052174e+01
209.637375	1.306088	city	4	1	1.155710	1.155710	0	1	0	0	CorrectCommission	0.365200	0.728546	1	0	7.056522e+01
210.936890	1.292937	city	8	1	1.052438	1.052438	0	1	0	0	CorrectCommission	1.025300	0.719859	1	0	7.060870e+01
212.243118	1.319542	city	6	1	1.065261	1.065261	0	1	0	0	CorrectCommission	0.943336	0.710920	1	0	7.065217e+01
213.556076	1.306374	city	7	1	1.051939	1.051939	0	1	0	0	CorrectCommission	1.028492	0.701992	1	0	7.069565e+01
214.875641	1.332753	city	6	1	1.194367	1.194367	0	1	0	0	CorrectCommission	0.118108	0.693462	1	0	7.073913e+01
216.195190	1.306332	city	4	1	1.099832	1.099832	0	1	0	0	CorrectCommission	0.722366	0.685927	1	0	7.078261e+01
217.501434	1.306169	city	3	1	0.993762	0.993762	0	1	0	0	CorrectCommission	1.400350	0.680120	1	0	7.082609e+01
218.814285	1.319530	city	7	1	1.223259	1.223259	0	1	0	0	CorrectCommission	0.066564	0.676889	1	0	7.086957e+01
220.140579	1.333067	city	8	1	1.114475	1.114475	0	1	0	0	CorrectCommission	0.628766	0.677202	1	0	7.091304e+01
221.446945	1.279638	city	6	1	1.199294	1.199294	0	1	0	0	CorrectCommission	0.086616	0.682001	1	0	7.095652e+01
224.905777	5.638024	break	0	0	0.000000	1.328556	0	0	0	0	ThoughtProbe	0.739612	0.692129	1	71	71
228.384644	1.319731	city	10	1	1.398692	1.398692	0	1	0	0	CorrectCommission	1.187910	0.708263	1	0	7.105000e+01
229.690842	1.292647	city	2	1	1.306130	1.306130	0	1	0	0	CorrectCommission	0.596268	0.730774	1	0	7.110000e+01
231.010269	1.346221	city	1	1	1.144706	1.144706	0	1	0	0	CorrectCommission	0.435532	0.759634	0	0	7.115000e+01
232.349915	1.333073	city	5	1	1.167059	1.167059	0	1	0	0	CorrectCommission	0.292655	0.794330	0	0	7.120000e+01
233.656235	1.279548	city	7	1	1.492164	1.492164	0	1	0	0	CorrectCommission	1.785371	0.833749	0	0	7.125000e+01
234.969131	1.346268	city	3	1	1.238266	1.238266	0	1	0	0	CorrectCommission	0.162486	0.876162	0	0	7.130000e+01
236.315384	1.346218	city	2	1	1.196562	1.196562	0	1	0	0	CorrectCommission	0.104074	0.919346	0	0	7.135000e+01
237.654846	1.332709	mountain	4	1	0.973104	0.973104	0	0	1	0	CommissionError	1.532394	0.960637	0	0	7.140000e+01
238.967743	1.293091	mountain	10	0	0.000000	1.225002	1	0	0	0	CorrectOmission	0.077705	0.997137	0	0	7.145000e+01
240.273987	1.319386	city	3	1	1.520475	1.520475	0	1	0	0	CorrectCommission	1.966337	1.026123	0	0	7.150000e+01
241.593475	1.319593	city	10	1	1.427745	1.427745	0	1	0	0	CorrectCommission	1.373614	1.045218	0	0	7.155000e+01
242.913116	1.319695	city	6	1	1.585085	1.585085	0	1	0	0	CorrectCommission	2.379311	1.052812	0	0	7.160000e+01
244.219391	1.292867	city	1	1	1.452410	1.452410	0	1	0	0	CorrectCommission	1.531269	1.048132	0	0	7.165000e+01
245.518967	1.306275	city	10	1	1.369333	1.369333	0	1	0	0	CorrectCommission	1.000252	1.031382	0	0	7.170000e+01
246.825150	1.306078	city	2	1	1.439299	1.439299	0	1	0	0	CorrectCommission	1.447465	1.003601	0	0	7.175000e+01
248.137894	1.319405	city	8	1	1.176556	1.176556	0	1	0	0	CorrectCommission	0.231954	0.966452	0	0	7.180000e+01
249.450882	1.306575	city	7	1	1.159653	1.159653	0	1	0	0	CorrectCommission	0.339996	0.922008	0	0	7.185000e+01
250.803848	1.399372	city	8	1	1.064678	1.064678	0	1	0	0	CorrectCommission	0.947065	0.872420	0	0	7.190000e+01
252.149963	1.292859	mountain	2	0	0.000000	1.289132	1	0	0	0	CorrectOmission	0.487617	0.819803	0	0	7.195000e+01
253.442963	1.293150	city	2	1	1.495484	1.495484	0	1	0	0	CorrectCommission	1.806593	0.766072	0	0	72
254.755905	1.332732	city	3	1	1.346202	1.346202	0	1	0	0	CorrectCommission	0.852403	0.712896	1	0	7.205000e+01
256.082031	1.319525	city	9	1	1.146026	1.146026	0	1	0	0	CorrectCommission	0.427100	0.661776	1	0	7.210000e+01
257.415009	1.346384	city	8	1	1.129395	1.129395	0	1	0	0	CorrectCommission	0.533398	0.614054	1	0	7.215000e+01
258.754578	1.332775	city	1	1	1.161901	1.161901	0	1	0	0	CorrectCommission	0.325628	0.570957	1	0	7.220000e+01
260.067474	1.293022	city	6	1	1.201850	1.201850	0	1	0	0	CorrectCommission	0.070276	0.533640	1	0	7.225000e+01
261.380432	1.332910	city	7	1	1.192662	1.192662	0	1	0	0	CorrectCommission	0.129005	0.503170	1	0	7.230000e+01
262.713257	1.332725	city	8	1	0.997141	0.997141	0	1	0	0	CorrectCommission	1.378752	0.480440	1	0	7.235000e+01
264.032745	1.306236	city	6	1	1.228153	1.228153	0	1	0	0	CorrectCommission	0.097847	0.466143	1	0	7.240000e+01
265.345673	1.319642	city	8	1	1.221617	1.221617	0	1	0	0	CorrectCommission	0.056069	0.460719	1	0	7.245000e+01
266.651978	1.292981	city	6	1	1.255623	1.255623	0	1	0	0	CorrectCommission	0.273435	0.464167	1	0	7.250000e+01
267.964874	1.332767	city	3	1	1.126517	1.126517	0	1	0	0	CorrectCommission	0.551795	0.476061	1	0	7.255000e+01
269.291016	1.319545	city	4	1	1.239962	1.239962	0	1	0	0	CorrectCommission	0.173328	0.495392	1	0	7.260000e+01
270.617310	1.333038	city	3	1	1.241596	1.241596	0	1	0	0	CorrectCommission	0.183773	0.520683	1	0	7.265000e+01
271.963623	1.359578	city	1	1	1.309414	1.309414	0	1	0	0	CorrectCommission	0.617262	0.550024	1	0	7.270000e+01
273.343079	1.399371	city	4	1	1.238908	1.238908	0	1	0	0	CorrectCommission	0.166594	0.581290	1	0	7.275000e+01
274.715973	1.346391	city	7	1	1.133704	1.133704	0	1	0	0	CorrectCommission	0.505859	0.612388	1	0	7.280000e+01
276.048950	1.319553	city	10	1	1.113348	1.113348	0	1	0	0	CorrectCommission	0.635974	0.641479	1	0	7.285000e+01
277.361755	1.306084	city	7	1	1.558842	1.558842	0	1	0	0	CorrectCommission	2.211569	0.667284	1	0	7.290000e+01
278.681305	1.332982	city	5	1	1.396681	1.396681	0	1	0	0	CorrectCommission	1.175056	0.689174	1	0	7.295000e+01
279.347778	8.943828	break	0	0	0.000000	1.311157	0	0	0	0	ThoughtProbe	0.628397	0.707265	1	73	73
288.931335	1.279412	city	1	1	1.230846	1.230846	0	1	0	0	CorrectCommission	0.115060	0.722278	1	0	7.304348e+01
290.217560	1.293070	city	9	1	1.084324	1.084324	0	1	0	0	CorrectCommission	0.821489	0.735284	1	0	7.308696e+01
291.510559	1.292912	city	7	1	1.112061	1.112061	0	1	0	0	CorrectCommission	0.644197	0.747416	1	0	7.313043e+01
292.810120	1.306227	city	8	1	1.094961	1.094961	0	1	0	0	CorrectCommission	0.753496	0.759590	0	0	7.317391e+01
294.109680	1.292909	city	7	1	1.297322	1.297322	0	1	0	0	CorrectCommission	0.539969	0.772197	0	0	7.321739e+01
295.395935	1.279573	city	6	1	1.242100	1.242100	0	1	0	0	CorrectCommission	0.186995	0.784997	0	0	7.326087e+01
296.682587	1.293726	city	3	1	1.295884	1.295884	0	1	0	0	CorrectCommission	0.530779	0.797126	0	0	7.330435e+01
297.968750	1.278587	mountain	10	0	0.000000	1.313074	1	0	0	0	CorrectOmission	0.640655	0.807231	0	0	7.334783e+01
299.247833	1.279600	city	10	1	1.388444	1.388444	0	1	0	0	CorrectCommission	1.122407	0.813733	0	0	7.339130e+01
300.527466	1.279646	city	4	1	1.616767	1.616767	0	1	0	0	CorrectCommission	2.581818	0.815175	0	0	7.343478e+01
301.813782	1.293023	city	9	1	1.089488	1.089488	0	1	0	0	CorrectCommission	0.788480	0.810477	0	0	7.347826e+01
303.099976	1.279379	city	1	1	1.123307	1.123307	0	1	0	0	CorrectCommission	0.572311	0.799257	0	0	7.352174e+01
304.379547	1.279756	city	5	1	1.324222	1.324222	0	1	0	0	CorrectCommission	0.711906	0.781795	0	0	7.356522e+01
305.665894	1.292915	city	3	1	1.405734	1.405734	0	1	0	0	CorrectCommission	1.232922	0.759072	0	0	7.360870e+01
306.952057	1.279393	city	10	1	1.289903	1.289903	0	1	0	0	CorrectCommission	0.492545	0.732618	1	0	7.365217e+01
308.231567	1.279627	city	8	1	1.230471	1.230471	0	1	0	0	CorrectCommission	0.112666	0.704326	1	0	7.369565e+01
309.511230	1.279700	city	6	1	1.339647	1.339647	0	1	0	0	CorrectCommission	0.810503	0.676211	1	0	7.373913e+01
310.790802	1.279448	city	8	1	1.344510	1.344510	0	1	0	0	CorrectCommission	0.841586	0.650165	1	0	7.378261e+01
312.070312	1.279592	mountain	3	0	0.000000	1.321325	1	0	0	0	CorrectOmission	0.693391	0.627803	1	0	7.382609e+01
313.349945	1.279671	mountain	1	0	0.000000	1.279423	1	0	0	0	CorrectOmission	0.425560	0.610297	1	0	7.386957e+01
314.629608	1.279630	city	6	1	1.228136	1.228136	0	1	0	0	CorrectCommission	0.097740	0.598328	1	0	7.391304e+01
315.909210	1.279572	city	3	1	1.176795	1.176795	0	1	0	0	CorrectCommission	0.230427	0.592038	1	0	7.395652e+01
317.188690	1.279422	city	10	1	1.069041	1.069041	0	1	0	0	CorrectCommission	0.919179	0.591041	1	0	74
318.468262	1.279734	city	3	1	1.124406	1.124406	0	1	0	0	CorrectCommission	0.565287	0.594489	1	0	7.404348e+01
319.747925	1.279546	city	9	1	1.124268	1.124268	0	1	0	0	CorrectCommission	0.566171	0.601207	1	0	7.408696e+01
321.027496	1.279619	city	7	1	1.337567	1.337567	0	1	0	0	CorrectCommission	0.797209	0.609811	1	0	7.413043e+01
322.307037	1.279441	city	5	1	1.260732	1.260732	0	1	0	0	CorrectCommission	0.306092	0.618879	1	0	7.417391e+01
323.593201	1.292912	city	2	1	1.269625	1.269625	0	1	0	0	CorrectCommission	0.362930	0.627196	1	0	7.421739e+01
324.886108	1.292926	city	8	1	1.137163	1.137163	0	1	0	0	CorrectCommission	0.483748	0.633893	1	0	7.426087e+01
326.172333	1.279510	city	6	1	1.071231	1.071231	0	1	0	0	CorrectCommission	0.905176	0.638629	1	0	7.430435e+01
327.458618	1.293061	city	1	1	0.920011	0.920011	0	1	0	0	CorrectCommission	1.871760	0.641677	1	0	7.434783e+01
328.744965	1.279606	city	4	1	1.337825	1.337825	0	1	0	0	CorrectCommission	0.798856	0.643910	1	0	7.439130e+01
330.024445	1.279390	city	5	1	1.289737	1.289737	0	1	0	0	CorrectCommission	0.491487	0.646814	1	0	7.443478e+01
331.310608	1.292908	city	8	1	1.135556	1.135556	0	1	0	0	CorrectCommission	0.494021	0.652174	1	0	7.447826e+01
332.596832	1.279579	mountain	6	0	0.000000	1.183851	1	0	0	0	CorrectOmission	0.185324	0.661796	1	0	7.452174e+01
333.883087	1.292907	city	5	1	1.243734	1.243734	0	1	0	0	CorrectCommission	0.197441	0.677188	1	0	7.456522e+01
335.169434	1.279756	city	8	1	1.124316	1.124316	0	1	0	0	CorrectCommission	0.565867	0.699275	1	0	7.460870e+01
336.449066	1.279540	city	7	1	1.230195	1.230195	0	1	0	0	CorrectCommission	0.110903	0.728190	1	0	7.465217e+01
337.728638	1.279621	city	1	1	1.123638	1.123638	0	1	0	0	CorrectCommission	0.570201	0.763193	0	0	7.469565e+01
339.008240	1.279589	city	3	1	1.081784	1.081784	0	1	0	0	CorrectCommission	0.837722	0.802712	0	0	7.473913e+01
340.287811	1.279552	city	5	1	1.390248	1.390248	0	1	0	0	CorrectCommission	1.133939	0.844537	0	0	7.478261e+01
341.567322	1.279433	city	2	1	1.337530	1.337530	0	1	0	0	CorrectCommission	0.796972	0.886066	0	0	7.482609e+01
342.846924	1.279779	city	4	1	1.497637	1.497637	0	1	0	0	CorrectCommission	1.820355	0.924589	0	0	7.486957e+01
344.139923	1.306213	city	8	1	1.019173	1.019173	0	1	0	0	CorrectCommission	1.237925	0.957514	0	0	7.491304e+01
345.432800	1.279554	city	1	1	1.075449	1.075449	0	1	0	0	CorrectCommission	0.878216	0.982615	0	0	7.495652e+01
346.072571	9.730152	break	0	0	0.000000	1.244581	0	0	0	0	ThoughtProbe	0.202852	0.998187	0	75	75
356.449127	1.292792	city	2	1	1.424560	1.424560	0	1	0	0	CorrectCommission	1.353259	1.003144	0	0	7.470588e+01
357.742035	1.293010	city	1	1	1.513381	1.513381	0	1	0	0	CorrectCommission	1.920988	0.997041	0	0	7.441176e+01
359.028320	1.279554	city	6	1	1.446956	1.446956	0	1	0	0	CorrectCommission	1.496410	0.980137	0	0	7.411765e+01
360.307861	1.279572	city	10	1	1.324998	1.324998	0	1	0	0	CorrectCommission	0.716871	0.953375	0	0	7.382353e+01
361.594055	1.292776	city	6	1	1.297840	1.297840	0	1	0	0	CorrectCommission	0.543281	0.918332	0	0	7.352941e+01
362.880310	1.279738	city	8	1	0.969259	0.969259	0	1	0	0	CorrectCommission	1.556968	0.877082	0	0	7.323529e+01
364.173279	1.306237	city	5	1	1.030646	1.030646	0	1	0	0	CorrectCommission	1.164589	0.832081	0	0	7.294118e+01
365.466187	1.279581	city	7	1	1.101380	1.101380	0	1	0	0	CorrectCommission	0.712466	0.786060	0	0	7.264706e+01
366.752350	1.292748	mountain	9	0	0.000000	1.165498	1	0	0	0	CorrectOmission	0.302632	0.741793	1	0	7.235294e+01
368.038605	1.279761	city	2	1	1.177452	1.177452	0	1	0	0	CorrectCommission	0.226228	0.701910	1	0	7.205882e+01
369.318268	1.279565	city	8	1	1.091692	1.091692	0	1	0	0	CorrectCommission	0.774395	0.668674	1	0	7.176471e+01
370.604523	1.292892	city	7	1	1.241514	1.241514	0	1	0	0	CorrectCommission	0.183248	0.643819	1	0	7.147059e+01
371.890686	1.279472	city	10	1	1.134874	1.134874	0	1	0	0	CorrectCommission	0.498382	0.628455	1	0	7.117647e+01
373.170288	1.279697	city	1	1	1.283957	1.283957	0	1	0	0	CorrectCommission	0.454538	0.622974	1	0	7.088235e+01
374.463257	1.306251	city	4	1	1.315782	1.315782	0	1	0	0	CorrectCommission	0.657961	0.627040	1	0	7.058824e+01
375.762817	1.292884	city	6	1	1.115423	1.115423	0	1	0	0	CorrectCommission	0.622709	0.639604	1	0	7.029412e+01
377.049072	1.279605	city	4	1	1.121944	1.121944	0	1	0	0	CorrectCommission	0.581024	0.658983	1	0	70
378.328583	1.279415	city	7	1	1.177451	1.177451	0	1	0	0	CorrectCommission	0.226234	0.683024	1	0	6.970588e+01
379.608063	1.279580	city	1	1	1.147061	1.147061	0	1	0	0	CorrectCommission	0.420482	0.709245	1	0	6.941176e+01
380.887634	1.279557	city	10	1	1.288813	1.288813	0	1	0	0	CorrectCommission	0.485577	0.735109	1	0	6.911765e+01
382.167206	1.279576	city	2	1	1.391309	1.391309	0	1	0	0	CorrectCommission	1.140723	0.758245	1	0	6.882353e+01
383.446899	1.279796	mountain	4	0	0.000000	1.437413	1	0	0	0	CorrectOmission	1.435414	0.776703	0	0	6.852941e+01
384.733154	1.292717	city	1	1	1.449446	1.449446	0	1	0	0	CorrectCommission	1.512323	0.789161	0	0	6.823529e+01
386.032623	1.306210	city	10	1	1.449727	1.449727	0	1	0	0	CorrectCommission	1.514123	0.795070	0	0	6.794118e+01
387.325531	1.279657	city	2	1	1.230305	1.230305	0	1	0	0	CorrectCommission	0.111606	0.794662	0	0	6.764706e+01
388.605133	1.279502	city	7	1	1.288869	1.288869	0	1	0	0	CorrectCommission	0.485940	0.788916	0	0	6.735294e+01
389.891357	1.292942	city	1	1	1.092606	1.092606	0	1	0	0	CorrectCommission	0.768552	0.779318	0	0	6.705882e+01
391.177673	1.279711	city	4	1	1.123811	1.123811	0	1	0	0	CorrectCommission	0.569091	0.767678	0	0	6.676471e+01
392.457245	1.279417	city	8	1	0.963575	0.963575	0	1	0	0	CorrectCommission	1.593300	0.755883	1	0	6.647059e+01
393.736816	1.279772	city	3	1	1.121548	1.121548	0	1	0	0	CorrectCommission	0.583558	0.745643	1	0	6.617647e+01
395.023071	1.292730	city	6	1	1.191239	1.191239	0	1	0	0	CorrectCommission	0.138099	0.738348	1	0	6.588235e+01
396.309326	1.279753	city	5	1	1.235188	1.235188	0	1	0	0	CorrectCommission	0.142816	0.734861	1	0	6.558824e+01
397.588928	1.279431	city	6	1	1.346836	1.346836	0	1	0	0	CorrectCommission	0.856458	0.735436	1	0	6.529412e+01
398.228638	11.103120	break	0	0	0.000000	1.390471	0	0	0	0	ThoughtProbe	1.135366	0.739734	1	65	65
409.971558	1.279600	city	3	1	1.341908	1.341908	0	1	0	0	CorrectCommission	0.824959	0.746909	1	0	6.497500e+01
411.251068	1.279411	city	10	1	1.176963	1.176963	0	1	0	0	CorrectCommission	0.229349	0.755722	1	0	6.495000e+01
412.530548	1.279579	city	3	1	1.124538	1.124538	0	1	0	0	CorrectCommission	0.564446	0.764739	0	0	6.492500e+01
413.810120	1.279581	city	1	1	1.288768	1.288768	0	1	0	0	CorrectCommission	0.485293	0.772537	0	0	6.490000e+01
415.089722	1.279576	city	3	1	1.498505	1.498505	0	1	0	0	CorrectCommission	1.825905	0.777974	0	0	6.487500e+01
416.376038	1.293097	city	9	1	1.403655	1.403655	0	1	0	0	CorrectCommission	1.219634	0.780347	0	0	6.485000e+01
417.662384	1.279575	city	6	1	1.281693	1.281693	0	1	0	0	CorrectCommission	0.440072	0.779593	0	0	6.482500e+01
418.941956	1.279584	city	3	1	1.128359	1.128359	0	1	0	0	CorrectCommission	0.540025	0.776343	0	0	6.480000e+01
420.221527	1.279558	mountain	1	1	0.963975	0.963975	0	0	1	0	CommissionError	1.590747	0.771791	0	0	6.477500e+01
421.501007	1.279417	city	10	1	1.076474	1.076474	0	1	0	0	CorrectCommission	0.871668	0.767612	0	0	6.475000e+01
422.780548	1.279628	city	9	1	1.123691	1.123691	0	1	0	0	CorrectCommission	0.569857	0.765745	0	0	6.472500e+01
424.060120	1.279547	city	2	1	1.213983	1.213983	0	1	0	0	CorrectCommission	0.007276	0.768094	0	0	6.470000e+01
425.339783	1.279746	city	1	1	1.123759	1.123759	0	1	0	0	CorrectCommission	0.569426	0.776294	0	0	6.467500e+01
426.632751	1.306239	city	3	1	1.150471	1.150471	0	1	0	0	CorrectCommission	0.398683	0.791433	0	0	6.465000e+01
427.925629	1.279487	mountain	2	0	0.000000	1.324301	1	0	0	0	CorrectOmission	0.712415	0.813936	0	0	6.462500e+01
429.205200	1.279654	city	9	1	1.402238	1.402238	0	1	0	0	CorrectCommission	1.210579	0.843491	0	0	6.460000e+01
430.484802	1.279584	city	10	1	1.141273	1.141273	0	1	0	0	CorrectCommission	0.457480	0.879027	0	0	6.457500e+01
431.764313	1.279425	city	2	1	1.151422	1.151422	0	1	0	0	CorrectCommission	0.392607	0.918893	0	0	6.455000e+01
433.043823	1.279559	city	5	1	1.077725	1.077725	0	1	0	0	CorrectCommission	0.863671	0.960950	0	0	6.452500e+01
434.330048	1.292908	city	1	1	0.881019	0.881019	0	1	0	0	CorrectCommission	2.120987	1.002772	0	0	6.450000e+01
435.616302	1.279590	city	7	1	1.457699	1.457699	0	1	0	0	CorrectCommission	1.565076	1.041766	0	0	6.447500e+01
436.902618	1.293078	city	10	1	1.089964	1.089964	0	1	0	0	CorrectCommission	0.785438	1.075412	0	0	6.445000e+01
438.188965	1.279589	city	9	1	1.129595	1.129595	0	1	0	0	CorrectCommission	0.532121	1.101383	0	0	6.442500e+01
439.468536	1.279568	city	3	1	1.039617	1.039617	0	1	0	0	CorrectCommission	1.107250	1.117709	0	0	6.440000e+01
440.748108	1.279580	city	6	1	1.049501	1.049501	0	1	0	0	CorrectCommission	1.044075	1.122891	0	0	6.437500e+01
442.027679	1.279552	mountain	2	0	0.000000	1.412201	1	0	0	0	CorrectOmission	1.274263	1.116132	0	0	6.435000e+01
443.307159	1.279419	city	6	1	1.664781	1.664781	0	1	0	0	CorrectCommission	2.888721	1.097421	0	0	6.432500e+01
444.586731	1.279733	city	10	1	1.344302	1.344302	0	1	0	0	CorrectCommission	0.840255	1.067581	0	0	6.430000e+01
445.866333	1.279427	city	6	1	1.538311	1.538311	0	1	0	0	CorrectCommission	2.080342	1.028395	0	0	6.427500e+01
447.159271	1.306464	city	7	1	1.342885	1.342885	0	1	0	0	CorrectCommission	0.831200	0.982289	0	0	6.425000e+01
448.452209	1.279398	city	10	1	1.283568	1.283568	0	1	0	0	CorrectCommission	0.452055	0.932224	0	0	6.422500e+01
449.731659	1.279539	city	2	1	1.246180	1.246180	0	1	0	0	CorrectCommission	0.213077	0.881316	0	0	6.420000e+01
451.011230	1.279574	city	10	1	1.123708	1.123708	0	1	0	0	CorrectCommission	0.569753	0.832510	0	0	6.417500e+01
452.290802	1.279592	city	9	1	1.123779	1.123779	0	1	0	0	CorrectCommission	0.569299	0.788276	0	0	6.415000e+01
453.577118	1.293035	city	2	1	1.030471	1.030471	0	1	0	0	CorrectCommission	1.165710	0.750390	1	0	6.412500e+01
454.863373	1.279442	city	6	1	1.179991	1.179991	0	1	0	0	CorrectCommission	0.209997	0.719820	1	0	6.410000e+01
456.142975	1.279794	city	8	1	1.186827	1.186827	0	1	0	0	CorrectCommission	0.166302	0.696763	1	0	6.407500e+01
457.422638	1.279508	city	4	1	1.128507	1.128507	0	1	0	0	CorrectCommission	0.539080	0.680680	1	0	6.405000e+01
458.702179	1.279591	city	8	1	0.973849	0.973849	0	1	0	0	CorrectCommission	1.527630	0.670463	1	0	6.402500e+01
463.040771	7.397594	break	0	0	0.000000	1.109583	0	0	0	0	ThoughtProbe	0.660038	0.664611	1	64	64
467.379364	1.279569	city	9	1	1.283560	1.283560	0	1	0	0	CorrectCommission	0.452005	0.661432	1	0	6.417391e+01
468.665497	1.292736	city	4	1	1.243635	1.243635	0	1	0	0	CorrectCommission	0.196804	0.659162	1	0	6.434783e+01
469.951721	1.279722	city	7	1	1.071162	1.071162	0	1	0	0	CorrectCommission	0.905622	0.656132	1	0	6.452174e+01
471.231384	1.279564	mountain	9	0	0.000000	1.178947	1	0	0	0	CorrectOmission	0.216670	0.650908	1	0	6.469565e+01
472.510925	1.279508	mountain	8	0	0.000000	1.371626	1	0	0	0	CorrectOmission	1.014908	0.642449	1	0	6.486957e+01
473.790527	1.279706	city	6	1	1.453832	1.453832	0	1	0	0	CorrectCommission	1.540362	0.630140	1	0	6.504348e+01
475.070129	1.279529	city	4	1	1.230201	1.230201	0	1	0	0	CorrectCommission	0.110941	0.613909	1	0	6.521739e+01
476.349731	1.279630	city	5	1	1.035772	1.035772	0	1	0	0	CorrectCommission	1.131830	0.594264	1	0	6.539130e+01
477.649323	1.319566	mountain	8	0	0.000000	1.182576	1	0	0	0	CorrectOmission	0.193474	0.572164	1	0	6.556522e+01
478.955566	1.292919	city	2	1	1.369750	1.369750	0	1	0	0	CorrectCommission	1.002917	0.549030	1	0	6.573913e+01
480.248383	1.292724	city	7	1	1.296427	1.296427	0	1	0	0	CorrectCommission	0.534247	0.526466	1	0	6.591304e+01
481.534607	1.279751	city	2	1	1.178578	1.178578	0	1	0	0	CorrectCommission	0.219031	0.506132	1	0	6.608696e+01
482.814178	1.279396	city	7	1	1.249399	1.249399	0	1	0	0	CorrectCommission	0.233653	0.489512	1	0	6.626087e+01
484.093750	1.279721	city	2	1	1.231196	1.231196	0	1	0	0	CorrectCommission	0.117299	0.477721	1	0	6.643478e+01
485.373413	1.279618	city	1	1	1.174827	1.174827	0	1	0	0	CorrectCommission	0.243006	0.471401	1	0	6.660870e+01
486.652954	1.279441	city	10	1	1.261278	1.261278	0	1	0	0	CorrectCommission	0.309577	0.470705	1	0	6.678261e+01
487.939178	1.293043	city	9	1	1.137383	1.137383	0	1	0	0	CorrectCommission	0.482342	0.475323	1	0	6.695652e+01
489.225433	1.279454	city	4	1	1.230489	1.230489	0	1	0	0	CorrectCommission	0.112777	0.484669	1	0	6.713043e+01
490.504913	1.279518	city	6	1	1.070207	1.070207	0	1	0	0	CorrectCommission	0.911722	0.498023	1	0	6.730435e+01
491.791138	1.292909	city	9	1	1.097210	1.097210	0	1	0	0	CorrectCommission	0.739126	0.514693	1	0	6.747826e+01
493.077393	1.279590	city	6	1	1.390476	1.390476	0	1	0	0	CorrectCommission	1.135399	0.534152	1	0	6.765217e+01
494.357056	1.279756	city	10	1	1.187491	1.187491	0	1	0	0	CorrectCommission	0.162061	0.556105	1	0	6.782609e+01
495.636719	1.279540	city	3	1	1.181177	1.181177	0	1	0	0	CorrectCommission	0.202414	0.580465	1	0	68
496.916260	1.279573	city	5	1	1.141406	1.141406	0	1	0	0	CorrectCommission	0.456626	0.607231	1	0	6.817391e+01
498.222534	1.332942	city	4	1	1.316894	1.316894	0	1	0	0	CorrectCommission	0.665072	0.636327	1	0	6.834783e+01
499.528748	1.279531	city	9	1	1.077954	1.077954	0	1	0	0	CorrectCommission	0.862204	0.667520	1	0	6.852174e+01
500.808319	1.279611	mountain	5	0	0.000000	1.212125	1	0	0	0	CorrectOmission	0.004601	0.700358	1	0	6.869565e+01
502.087952	1.279611	city	6	1	1.390037	1.390037	0	1	0	0	CorrectCommission	1.132592	0.734216	1	0	6.886957e+01
503.367523	1.279539	city	7	1	1.282322	1.282322	0	1	0	0	CorrectCommission	0.444088	0.768412	0	0	6.904348e+01
504.653687	1.292787	city	6	1	1.403930	1.403930	0	1	0	0	CorrectCommission	1.221395	0.802509	0	0	6.921739e+01
505.939911	1.279693	city	7	1	1.284161	1.284161	0	1	0	0	CorrectCommission	0.455847	0.836694	0	0	6.939130e+01
507.219574	1.279607	city	8	1	1.014956	1.014956	0	1	0	0	CorrectCommission	1.264878	0.872245	0	0	6.956522e+01
508.512482	1.306198	city	3	1	1.076187	1.076187	0	1	0	0	CorrectCommission	0.873499	0.911941	0	0	6.973913e+01
509.805359	1.279596	city	7	1	1.017763	1.017763	0	1	0	0	CorrectCommission	1.246938	0.960425	0	0	6.991304e+01
511.084900	1.279452	city	8	1	0.964277	0.964277	0	1	0	0	CorrectCommission	1.588812	1.024311	0	0	7.008696e+01
512.364380	1.279542	city	3	1	1.074867	1.074867	0	1	0	0	CorrectCommission	0.881937	1.112029	0	0	7.026087e+01
513.644043	1.279766	city	8	1	1.022640	1.022640	0	1	0	0	CorrectCommission	1.215763	1.233365	0	0	7.043478e+01
514.923706	1.279559	city	5	1	1.174820	1.174820	0	1	0	0	CorrectCommission	0.243053	1.398573	0	0	7.060870e+01
516.203186	1.279410	city	10	1	1.121407	1.121407	0	1	0	0	CorrectCommission	0.584457	1.617321	0	0	7.078261e+01
517.482666	1.279577	city	7	1	1.199209	1.199209	0	1	0	0	CorrectCommission	0.087157	1.897367	0	0	7.095652e+01
518.782288	1.319616	city	8	1	1.056033	1.056033	0	1	0	0	CorrectCommission	1.002322	2.243293	0	0	7.113043e+01
520.081970	1.279708	city	7	1	1.070759	1.070759	0	1	0	0	CorrectCommission	0.908196	2.655416	0	0	7.130435e+01
521.361511	1.279437	city	9	1	0.963437	0.963437	0	1	0	0	CorrectCommission	1.594183	3.129096	0	0	7.147826e+01
522.640991	1.279546	city	1	1	1.030300	1.030300	0	1	0	0	CorrectCommission	1.166806	3.654613	0	0	7.165217e+01
523.920593	1.279581	city	10	1	1.497082	1.497082	0	1	0	0	CorrectCommission	1.816811	4.217655	0	0	7.182609e+01
528.145935	7.171187	break	0	0	0.000000	1.963865	0	0	0	0	ThoughtProbe	4.800427	4.800427	0	72	72
