onset	duration	trial_type	image_type	Press	ReactionTime	ReactionTime_Interpolated	CorrectOmission	CorrectCommission	CommissionError	OmissionError	response_type	nonsmoothVarianceTimeCourse	VarianceTimeCourse	In_the_Zone	ThoughtProbe	ThoughtProbe_Interpolated
0.699487	1.372712	city	9	1	1.859121	1.859121	0	1	0	0	CorrectCommission	1.314843	1.314843	0	0	43
2.045633	1.319580	city	6	1	1.012307	1.012307	0	1	0	0	CorrectCommission	0.730797	1.207288	0	0	43
3.365749	1.320652	city	4	1	1.409030	1.409030	0	1	0	0	CorrectCommission	0.227562	1.104136	0	0	43
4.665396	1.278643	city	2	1	1.706034	1.706034	0	1	0	0	CorrectCommission	0.945032	1.009248	0	0	43
5.991087	1.372739	city	1	1	1.164417	1.164417	0	1	0	0	CorrectCommission	0.363346	0.925534	0	0	43
7.363897	1.372881	city	10	1	1.154977	1.154977	0	1	0	0	CorrectCommission	0.386152	0.854699	0	0	43
8.690198	1.279721	city	1	1	1.661277	1.661277	0	1	0	0	CorrectCommission	0.836912	0.797121	0	0	43
9.969769	1.279421	city	6	1	1.338316	1.338316	0	1	0	0	CorrectCommission	0.056738	0.751953	1	0	43
11.275937	1.332915	city	9	1	1.242451	1.242451	0	1	0	0	CorrectCommission	0.174842	0.717442	1	0	43
12.582171	1.279554	city	1	1	0.755154	0.755154	0	1	0	0	CorrectCommission	1.351999	0.691219	1	0	43
13.875160	1.306424	city	10	1	0.914213	0.914213	0	1	0	0	CorrectCommission	0.967763	0.670774	1	0	43
15.168083	1.279423	city	2	1	1.746468	1.746468	0	1	0	0	CorrectCommission	1.042707	0.653863	1	0	43
16.467564	1.319539	city	5	0	0.000000	1.620905	0	0	0	1	OmissionError	0.739387	0.638757	1	0	43
17.767202	1.279737	mountain	10	1	1.388721	1.388721	0	0	1	0	CommissionError	0.178501	0.624433	1	0	43
19.060192	1.306240	city	5	1	1.901110	1.901110	0	1	0	0	CorrectCommission	1.416275	0.610566	1	0	43
20.353018	1.279413	city	2	1	1.403967	1.403967	0	1	0	0	CorrectCommission	0.215333	0.597412	1	0	43
21.652523	1.319596	mountain	9	1	1.139857	1.139857	0	0	1	0	CommissionError	0.422677	0.585674	1	0	43
22.958717	1.292796	city	8	1	1.256882	1.256882	0	1	0	0	CorrectCommission	0.139979	0.576184	1	0	43
24.251694	1.293154	city	10	1	1.099290	1.099290	0	1	0	0	CorrectCommission	0.520673	0.569753	1	0	43
25.558086	1.319632	city	3	1	1.332243	1.332243	0	1	0	0	CorrectCommission	0.042069	0.566985	1	0	43
26.870926	1.306047	mountain	6	1	1.638630	1.638630	0	0	1	0	CommissionError	0.782204	0.568192	1	0	43
28.163761	1.279625	city	5	1	1.897488	1.897488	0	1	0	0	CorrectCommission	1.407524	0.573340	1	0	43
29.456743	1.306341	city	1	1	1.395760	1.395760	0	1	0	0	CorrectCommission	0.195506	0.582119	1	0	43
30.762939	1.306051	city	6	1	1.226100	1.226100	0	1	0	0	CorrectCommission	0.214340	0.594024	1	0	43
32.069176	1.306417	city	10	1	1.504254	1.504254	0	1	0	0	CorrectCommission	0.457594	0.608364	1	0	43
33.382153	1.319540	mountain	6	1	1.108189	1.108189	0	0	1	0	CommissionError	0.499175	0.624341	1	0	43
34.701641	1.319436	city	1	1	0.867198	0.867198	0	1	0	0	CorrectCommission	1.081335	0.641123	1	0	43
36.014572	1.306428	city	2	1	1.649006	1.649006	0	1	0	0	CorrectCommission	0.807269	0.657862	1	0	43
37.320889	1.306205	city	6	1	1.381001	1.381001	0	1	0	0	CorrectCommission	0.159853	0.673736	1	0	43
38.647102	1.346225	city	8	1	1.739783	1.739783	0	1	0	0	CorrectCommission	1.026559	0.687971	1	0	43
39.973244	1.306056	city	4	0	0.000000	1.743369	0	0	0	1	OmissionError	1.035221	0.699794	1	0	43
41.272812	1.293082	city	9	0	0.000000	1.580942	0	0	0	1	OmissionError	0.642847	0.708468	1	0	43
42.572384	1.306058	city	8	0	0.000000	1.441684	0	0	0	1	OmissionError	0.306444	0.713298	1	0	43
43.891945	1.333063	city	10	1	1.514779	1.514779	0	1	0	0	CorrectCommission	0.483019	0.713648	1	0	43
45.211517	1.306079	city	2	1	1.989411	1.989411	0	1	0	0	CorrectCommission	1.629582	0.708954	1	0	43
46.537743	1.346372	city	4	1	1.677751	1.677751	0	1	0	0	CorrectCommission	0.876709	0.698806	1	0	43
47.877380	1.332904	city	2	1	1.280514	1.280514	0	1	0	0	CorrectCommission	0.082892	0.683009	1	0	43
49.216942	1.346219	city	7	1	0.855247	0.855247	0	1	0	0	CorrectCommission	1.110206	0.661667	1	0	43
50.529766	1.279435	city	9	1	1.745984	1.745984	0	1	0	0	CorrectCommission	1.041539	0.635183	1	0	43
51.822594	1.306216	city	2	1	1.611252	1.611252	0	1	0	0	CorrectCommission	0.716068	0.604360	1	0	43
53.162159	1.372917	city	1	1	1.286886	1.286886	0	1	0	0	CorrectCommission	0.067501	0.570377	1	0	43
54.488407	1.279577	city	7	1	1.076540	1.076540	0	1	0	0	CorrectCommission	0.575630	0.534754	1	0	43
55.781307	1.306224	city	9	1	0.940286	0.940286	0	1	0	0	CorrectCommission	0.904778	0.499258	1	0	43
57.087528	1.306217	city	4	1	1.459695	1.459695	0	1	0	0	CorrectCommission	0.349953	0.465801	1	0	43
58.400417	1.319565	city	2	1	1.074812	1.074812	0	1	0	0	CorrectCommission	0.579804	0.436323	1	0	43
59.060200	10.250084	break	0	1	1.244394	1.244394	0	0	0	0	ThoughtProbe	0.170146	0.412568	1	43	43
69.969986	1.319395	city	4	1	1.296319	1.296319	0	1	0	0	CorrectCommission	0.044712	0.395950	1	0	4.332500e+01
71.276253	1.293144	city	3	1	1.306840	1.306840	0	1	0	0	CorrectCommission	0.019298	0.387369	1	0	4.365000e+01
72.595840	1.346036	mountain	6	0	0.000000	1.364110	1	0	0	0	CorrectOmission	0.119050	0.387117	1	0	4.397500e+01
73.935310	1.332898	city	5	1	1.342250	1.342250	0	1	0	0	CorrectCommission	0.066242	0.394833	1	0	4.430000e+01
75.268288	1.333058	city	8	1	1.115377	1.115377	0	1	0	0	CorrectCommission	0.481811	0.409557	1	0	4.462500e+01
76.574608	1.279578	city	4	1	1.349495	1.349495	0	1	0	0	CorrectCommission	0.083744	0.429855	1	0	4.495000e+01
77.867432	1.306067	city	7	1	1.620205	1.620205	0	1	0	0	CorrectCommission	0.737696	0.454028	1	0	4.527500e+01
79.173668	1.306413	city	8	1	1.491447	1.491447	0	1	0	0	CorrectCommission	0.426655	0.480295	1	0	4.560000e+01
80.506645	1.359542	city	6	1	1.820665	1.820665	0	1	0	0	CorrectCommission	1.221944	0.507050	1	0	4.592500e+01
81.839455	1.306076	city	8	1	1.584020	1.584020	0	1	0	0	CorrectCommission	0.650282	0.532984	1	0	4.625000e+01
83.132362	1.279742	city	2	1	1.439733	1.439733	0	1	0	0	CorrectCommission	0.301730	0.557243	1	0	4.657500e+01
84.425354	1.306236	city	7	0	0.000000	1.213466	0	0	0	1	OmissionError	0.244860	0.579460	1	0	4.690000e+01
85.731590	1.306235	city	9	1	0.998215	0.998215	0	1	0	0	CorrectCommission	0.764840	0.599702	1	0	4.722500e+01
87.031174	1.292937	mountain	1	1	0.886974	0.886974	0	0	1	0	CommissionError	1.033563	0.618368	1	0	4.755000e+01
88.324005	1.292719	city	5	1	1.425650	1.425650	0	1	0	0	CorrectCommission	0.267712	0.636064	1	0	4.787500e+01
89.610245	1.279764	city	1	1	1.660743	1.660743	0	1	0	0	CorrectCommission	0.835621	0.653441	1	0	4.820000e+01
90.889824	1.279395	city	5	1	1.767237	1.767237	0	1	0	0	CorrectCommission	1.092878	0.670987	1	0	4.852500e+01
92.176086	1.293135	city	9	0	0.000000	1.452888	0	0	0	1	OmissionError	0.333508	0.688887	1	0	4.885000e+01
93.475746	1.306171	city	10	1	1.213020	1.213020	0	1	0	0	CorrectCommission	0.245937	0.706905	1	0	4.917500e+01
94.775284	1.292912	city	9	1	1.542960	1.542960	0	1	0	0	CorrectCommission	0.551095	0.724308	1	0	4.950000e+01
96.088104	1.332725	city	2	0	0.000000	1.075562	0	0	0	1	OmissionError	0.577992	0.739900	1	0	4.982500e+01
97.420929	1.332924	city	6	1	0.786419	0.786419	0	1	0	0	CorrectCommission	1.276473	0.752174	1	0	5.015000e+01
98.767235	1.359688	city	5	1	1.651121	1.651121	0	1	0	0	CorrectCommission	0.812378	0.759483	1	0	5.047500e+01
100.126869	1.359581	city	10	1	1.274708	1.274708	0	1	0	0	CorrectCommission	0.096918	0.760349	1	0	5.080000e+01
101.453110	1.292902	city	3	1	1.955154	1.955154	0	1	0	0	CorrectCommission	1.546828	0.753701	1	0	5.112500e+01
102.752670	1.306216	city	2	1	2.012742	2.012742	0	1	0	0	CorrectCommission	1.685942	0.739049	1	0	5.145000e+01
104.052147	1.292742	city	7	0	0.000000	1.864910	0	0	0	1	OmissionError	1.328827	0.716656	1	0	5.177500e+01
105.351646	1.306254	city	10	0	0.000000	1.606108	0	0	0	1	OmissionError	0.703642	0.687534	1	0	5.210000e+01
106.644569	1.279590	city	5	1	1.330785	1.330785	0	1	0	0	CorrectCommission	0.038547	0.653300	1	0	5.242500e+01
107.950882	1.333035	mountain	9	1	1.133391	1.133391	0	0	1	0	CommissionError	0.438297	0.615971	1	0	5.275000e+01
109.263779	1.292767	city	4	1	0.994052	0.994052	0	1	0	0	CorrectCommission	0.774896	0.577653	1	0	5.307500e+01
110.569931	1.319540	city	3	1	1.287677	1.287677	0	1	0	0	CorrectCommission	0.065589	0.540341	1	0	5.340000e+01
111.889572	1.319732	city	6	1	1.518155	1.518155	0	1	0	0	CorrectCommission	0.491174	0.505757	1	0	5.372500e+01
113.189140	1.279414	city	8	0	0.000000	1.438589	0	0	0	1	OmissionError	0.298968	0.475216	1	0	5.405000e+01
114.482048	1.306389	city	5	1	1.271988	1.271988	0	1	0	0	CorrectCommission	0.103489	0.449652	1	0	5.437500e+01
115.808372	1.346259	city	10	1	1.241358	1.241358	0	1	0	0	CorrectCommission	0.177481	0.429694	1	0	5.470000e+01
117.147850	1.332708	city	8	1	0.940646	0.940646	0	1	0	0	CorrectCommission	0.903907	0.415801	1	0	5.502500e+01
118.454086	1.279763	city	6	1	1.738751	1.738751	0	1	0	0	CorrectCommission	1.024067	0.408307	1	0	5.535000e+01
119.767036	1.346127	city	5	1	1.298048	1.298048	0	1	0	0	CorrectCommission	0.040537	0.407484	1	0	5.567500e+01
120.440094	9.863532	break	0	1	1.234104	1.234104	0	0	0	0	ThoughtProbe	0.195006	0.413549	1	56	56
130.943405	1.279547	city	4	1	1.504286	1.504286	0	1	0	0	CorrectCommission	0.457670	0.426504	1	0	5.729412e+01
132.242889	1.319415	city	7	1	1.290186	1.290186	0	1	0	0	CorrectCommission	0.059527	0.446011	1	0	5.858824e+01
133.542450	1.279727	city	8	1	1.241811	1.241811	0	1	0	0	CorrectCommission	0.176387	0.471295	1	0	5.988235e+01
134.842102	1.319568	mountain	3	0	0.000000	1.291440	1	0	0	0	CorrectOmission	0.056498	0.501050	1	0	6.117647e+01
136.181686	1.359612	city	7	1	1.310366	1.310366	0	1	0	0	CorrectCommission	0.010779	0.533521	1	0	6.247059e+01
137.521255	1.319514	city	8	1	1.169880	1.169880	0	1	0	0	CorrectCommission	0.350149	0.566707	1	0	6.376471e+01
138.867371	1.372717	city	10	1	0.962545	0.962545	0	1	0	0	CorrectCommission	0.851006	0.598595	1	0	6.505882e+01
140.206924	1.306395	city	4	1	0.556846	0.556846	0	1	0	0	CorrectCommission	1.831050	0.627518	1	0	6.635294e+01
141.519836	1.319424	city	5	1	0.604120	0.604120	0	1	0	0	CorrectCommission	1.716850	0.652427	1	0	6.764706e+01
142.819351	1.279609	city	10	1	1.694002	1.694002	0	1	0	0	CorrectCommission	0.915966	0.673083	1	0	6.894118e+01
144.105606	1.292891	city	3	1	1.409289	1.409289	0	1	0	0	CorrectCommission	0.228188	0.690092	1	0	7.023529e+01
145.418564	1.333019	city	8	1	1.156467	1.156467	0	1	0	0	CorrectCommission	0.382552	0.704690	1	0	7.152941e+01
146.738159	1.306187	city	9	1	1.130252	1.130252	0	1	0	0	CorrectCommission	0.445878	0.718459	1	0	7.282353e+01
148.044418	1.306339	city	8	1	1.247456	1.247456	0	1	0	0	CorrectCommission	0.162750	0.733015	1	0	7.411765e+01
149.370605	1.346039	city	7	1	1.536754	1.536754	0	1	0	0	CorrectCommission	0.536102	0.749665	1	0	7.541176e+01
150.703476	1.319698	city	5	1	1.873548	1.873548	0	1	0	0	CorrectCommission	1.349694	0.769112	1	0	7.670588e+01
152.029694	1.332734	city	8	1	1.737389	1.737389	0	1	0	0	CorrectCommission	1.020776	0.791348	0	0	78
153.349197	1.306266	city	7	1	1.330337	1.330337	0	1	0	0	CorrectCommission	0.037465	0.815638	0	0	7.929412e+01
154.662155	1.319656	city	6	1	1.053634	1.053634	0	1	0	0	CorrectCommission	0.630965	0.840653	0	0	8.058824e+01
155.961716	1.279460	city	1	1	0.970648	0.970648	0	1	0	0	CorrectCommission	0.831432	0.864597	0	0	8.188235e+01
157.261322	1.319751	city	9	1	0.844771	0.844771	0	1	0	0	CorrectCommission	1.135512	0.885573	0	0	8.317647e+01
158.587631	1.332875	city	7	1	0.732969	0.732969	0	1	0	0	CorrectCommission	1.405591	0.901876	0	0	8.447059e+01
159.913788	1.319422	city	2	1	0.720682	0.720682	0	1	0	0	CorrectCommission	1.435273	0.912220	0	0	8.576471e+01
161.226608	1.306222	city	7	1	0.916920	0.916920	0	1	0	0	CorrectCommission	0.961224	0.915982	0	0	8.705882e+01
162.526245	1.293064	mountain	2	1	0.815372	0.815372	0	0	1	0	CommissionError	1.206532	0.913284	0	0	8.835294e+01
163.839233	1.332895	city	6	1	0.888580	0.888580	0	1	0	0	CorrectCommission	1.029683	0.904942	0	0	8.964706e+01
165.165375	1.319410	city	7	1	0.937753	0.937753	0	1	0	0	CorrectCommission	0.910897	0.892371	0	0	9.094118e+01
166.478302	1.306445	city	2	1	1.104755	1.104755	0	1	0	0	CorrectCommission	0.507471	0.877362	0	0	9.223529e+01
167.777878	1.292710	city	1	1	1.433724	1.433724	0	1	0	0	CorrectCommission	0.287215	0.861853	0	0	9.352941e+01
169.077362	1.306253	city	3	1	1.888514	1.888514	0	1	0	0	CorrectCommission	1.385845	0.847661	0	0	9.482353e+01
170.376938	1.292888	city	8	1	1.745980	1.745980	0	1	0	0	CorrectCommission	1.041528	0.836258	0	0	9.611765e+01
171.663162	1.279572	city	9	1	1.524456	1.524456	0	1	0	0	CorrectCommission	0.506396	0.828670	0	0	9.741176e+01
172.969376	1.332841	city	8	0	0.000000	1.145705	0	0	0	1	OmissionError	0.408549	0.825351	0	0	9.870588e+01
173.635788	9.916790	break	0	1	0.962142	0.962142	0	0	0	0	ThoughtProbe	0.851981	0.826151	0	100	100
184.239029	1.372904	city	1	1	1.326181	1.326181	0	1	0	0	CorrectCommission	0.027426	0.830338	0	0	9.813043e+01
185.572021	1.293066	city	8	1	1.813759	1.813759	0	1	0	0	CorrectCommission	1.205262	0.836746	0	0	9.626087e+01
186.871582	1.306061	city	4	1	1.705249	1.705249	0	1	0	0	CorrectCommission	0.943136	0.843883	0	0	9.439130e+01
188.171066	1.292899	city	10	1	2.159307	2.159307	0	1	0	0	CorrectCommission	2.039999	0.850157	0	0	9.252174e+01
189.484055	1.333084	mountain	9	1	1.189170	1.189170	0	0	1	0	CommissionError	0.303552	0.854023	0	0	9.065217e+01
190.790283	1.279389	city	2	1	1.290974	1.290974	0	1	0	0	CorrectCommission	0.057625	0.854255	0	0	8.878261e+01
192.083099	1.306234	city	8	1	0.651074	0.651074	0	1	0	0	CorrectCommission	1.603424	0.850002	0	0	8.691304e+01
193.382767	1.293103	city	10	1	1.682088	1.682088	0	1	0	0	CorrectCommission	0.887186	0.840903	0	0	8.504348e+01
194.682343	1.306046	city	3	1	1.740121	1.740121	0	1	0	0	CorrectCommission	1.027376	0.827225	0	0	8.317391e+01
196.008484	1.346224	city	7	1	1.810344	1.810344	0	1	0	0	CorrectCommission	1.197011	0.809800	0	0	8.130435e+01
197.341461	1.319749	city	10	1	1.604505	1.604505	0	1	0	0	CorrectCommission	0.699769	0.789960	0	0	7.943478e+01
198.661118	1.319544	city	2	0	0.000000	1.593736	0	0	0	1	OmissionError	0.673755	0.769410	1	0	7.756522e+01
199.960602	1.279426	city	3	0	0.000000	1.657666	0	0	0	1	OmissionError	0.828188	0.749975	1	0	7.569565e+01
201.246765	1.292900	mountain	10	1	1.675920	1.675920	0	0	1	0	CommissionError	0.872286	0.733355	1	0	7.382609e+01
202.539764	1.293097	city	6	1	1.528128	1.528128	0	1	0	0	CorrectCommission	0.515266	0.720829	1	0	7.195652e+01
203.866074	1.359545	city	8	1	1.259790	1.259790	0	1	0	0	CorrectCommission	0.132954	0.713053	1	0	7.008696e+01
205.218872	1.346040	city	10	1	1.201091	1.201091	0	1	0	0	CorrectCommission	0.274754	0.709883	1	0	6.821739e+01
206.538345	1.292916	city	6	1	1.244937	1.244937	0	1	0	0	CorrectCommission	0.168835	0.710326	1	0	6.634783e+01
207.871338	1.373061	mountain	1	1	0.839598	0.839598	0	0	1	0	CommissionError	1.148008	0.712685	1	0	6.447826e+01
209.210907	1.306060	city	3	0	0.000000	1.025970	0	0	0	1	OmissionError	0.697792	0.714782	1	0	6.260870e+01
210.517059	1.306252	city	4	1	1.200849	1.200849	0	1	0	0	CorrectCommission	0.275338	0.714339	1	0	6.073913e+01
211.816711	1.293051	city	9	1	0.761033	0.761033	0	1	0	0	CorrectCommission	1.337796	0.709312	1	0	5.886957e+01
213.116287	1.306096	city	6	1	0.606611	0.606611	0	1	0	0	CorrectCommission	1.710832	0.698242	1	0	57
214.422440	1.306210	city	4	0	0.000000	0.710723	0	0	0	1	OmissionError	1.459330	0.680465	1	0	5.513043e+01
215.715408	1.279745	city	10	0	0.000000	0.952873	0	0	0	1	OmissionError	0.874372	0.656242	1	0	5.326087e+01
217.008316	1.306069	city	3	1	1.212563	1.212563	0	1	0	0	CorrectCommission	0.247040	0.626613	1	0	5.139130e+01
218.314560	1.306405	city	1	1	1.369299	1.369299	0	1	0	0	CorrectCommission	0.131584	0.593247	1	0	4.952174e+01
219.640808	1.346109	city	7	1	1.354812	1.354812	0	1	0	0	CorrectCommission	0.096588	0.558102	1	0	4.765217e+01
220.973724	1.319697	city	4	1	1.172160	1.172160	0	1	0	0	CorrectCommission	0.344643	0.523117	1	0	4.578261e+01
222.286682	1.306242	city	6	1	1.140705	1.140705	0	1	0	0	CorrectCommission	0.420628	0.490011	1	0	4.391304e+01
223.586166	1.292719	city	1	1	1.156653	1.156653	0	1	0	0	CorrectCommission	0.382103	0.460104	1	0	4.204348e+01
224.905640	1.346226	mountain	1	1	1.018052	1.018052	0	0	1	0	CommissionError	0.716918	0.434284	1	0	4.017391e+01
226.231873	1.306237	city	9	1	0.970307	0.970307	0	1	0	0	CorrectCommission	0.832256	0.413009	1	0	3.830435e+01
227.538193	1.306406	city	3	1	1.340336	1.340336	0	1	0	0	CorrectCommission	0.061618	0.396386	1	0	3.643478e+01
228.871170	1.359551	city	6	1	1.456593	1.456593	0	1	0	0	CorrectCommission	0.342458	0.384281	1	0	3.456522e+01
230.237396	1.372884	city	1	1	1.329649	1.329649	0	1	0	0	CorrectCommission	0.035802	0.376387	1	0	3.269565e+01
231.576874	1.306076	city	2	0	0.000000	1.262020	0	0	0	1	OmissionError	0.127568	0.372363	1	0	3.082609e+01
232.883026	1.306225	city	7	0	0.000000	1.215498	0	0	0	1	OmissionError	0.239952	0.371893	1	0	2.895652e+01
234.189346	1.306422	city	1	1	1.151875	1.151875	0	1	0	0	CorrectCommission	0.393645	0.374770	1	0	2.708696e+01
235.522324	1.359550	city	6	1	1.032943	1.032943	0	1	0	0	CorrectCommission	0.680948	0.380981	1	0	2.521739e+01
236.861893	1.319567	city	1	0	0.000000	1.426715	0	0	0	1	OmissionError	0.270284	0.390704	1	0	2.334783e+01
238.181458	1.319572	city	6	1	1.717150	1.717150	0	1	0	0	CorrectCommission	0.971883	0.404319	1	0	2.147826e+01
239.520920	1.359365	city	10	1	1.288204	1.288204	0	1	0	0	CorrectCommission	0.064317	0.422312	1	0	1.960870e+01
240.840485	1.279745	city	3	1	1.519525	1.519525	0	1	0	0	CorrectCommission	0.494484	0.445128	1	0	1.773913e+01
242.153397	1.346093	city	1	1	1.327115	1.327115	0	1	0	0	CorrectCommission	0.029680	0.472976	1	0	1.586957e+01
242.826447	9.250386	break	0	1	1.065909	1.065909	0	0	0	0	ThoughtProbe	0.601311	0.505661	1	14	14
252.716629	1.279602	city	8	1	1.346235	1.346235	0	1	0	0	CorrectCommission	0.075869	0.542441	1	0	1.585000e+01
254.009491	1.306098	city	2	1	1.339819	1.339819	0	1	0	0	CorrectCommission	0.060369	0.582016	1	0	1.770000e+01
255.315643	1.306228	city	1	1	1.085455	1.085455	0	1	0	0	CorrectCommission	0.554094	0.622595	1	0	1.955000e+01
256.622803	1.308112	city	6	1	1.162142	1.162142	0	1	0	0	CorrectCommission	0.368842	0.662067	1	0	2.140000e+01
257.922455	1.291188	mountain	8	1	0.702642	0.702642	0	0	1	0	CommissionError	1.478853	0.698313	1	0	2.325000e+01
259.221191	1.306240	city	4	1	1.902922	1.902922	0	1	0	0	CorrectCommission	1.420652	0.729486	1	0	2.510000e+01
260.547424	1.346242	city	9	1	1.738965	1.738965	0	1	0	0	CorrectCommission	1.024582	0.754341	1	0	2.695000e+01
261.880249	1.319390	mountain	6	0	0.000000	1.649954	1	0	0	0	CorrectOmission	0.809560	0.772407	1	0	2.880000e+01
263.186432	1.292989	city	3	1	1.700005	1.700005	0	1	0	0	CorrectCommission	0.930468	0.784029	0	0	3.065000e+01
264.485992	1.306145	city	4	1	1.953233	1.953233	0	1	0	0	CorrectCommission	1.542188	0.790287	0	0	3.250000e+01
265.792267	1.306429	city	7	1	1.634828	1.634828	0	1	0	0	CorrectCommission	0.773019	0.792687	0	0	3.435000e+01
267.085297	1.279579	city	9	0	0.000000	1.405745	0	0	0	1	OmissionError	0.219627	0.792945	0	0	3.620000e+01
268.391418	1.332708	city	5	1	1.249144	1.249144	0	1	0	0	CorrectCommission	0.158674	0.792581	0	0	3.805000e+01
269.704315	1.293089	city	7	0	0.000000	1.148179	0	0	0	1	OmissionError	0.402572	0.792677	0	0	3.990000e+01
270.997253	1.292748	city	8	1	1.323893	1.323893	0	1	0	0	CorrectCommission	0.021898	0.793761	0	0	4.175000e+01
272.290070	1.292920	city	1	1	1.997326	1.997326	0	1	0	0	CorrectCommission	1.648703	0.795806	0	0	4.360000e+01
273.622925	1.372742	mountain	4	1	1.729011	1.729011	0	0	1	0	CommissionError	1.000537	0.798329	0	0	4.545000e+01
274.975861	1.333166	city	2	1	2.031222	2.031222	0	1	0	0	CorrectCommission	1.730585	0.800652	0	0	4.730000e+01
276.295563	1.306255	city	8	0	0.000000	1.576462	0	0	0	1	OmissionError	0.632026	0.802099	0	0	4.915000e+01
277.601807	1.306214	city	4	1	1.125323	1.125323	0	1	0	0	CorrectCommission	0.457785	0.802194	0	0	51
278.907959	1.306089	city	8	0	0.000000	1.438397	0	0	0	1	OmissionError	0.298503	0.800735	0	0	5.285000e+01
280.214111	1.306222	city	3	1	1.882596	1.882596	0	1	0	0	CorrectCommission	1.371551	0.797806	0	0	5.470000e+01
281.533691	1.332898	city	8	1	1.824835	1.824835	0	1	0	0	CorrectCommission	1.232017	0.793695	0	0	5.655000e+01
282.839996	1.279739	city	1	1	1.595667	1.595667	0	1	0	0	CorrectCommission	0.678419	0.788809	0	0	5.840000e+01
284.132996	1.306267	city	5	1	1.554097	1.554097	0	1	0	0	CorrectCommission	0.578000	0.783498	0	0	6.025000e+01
285.452576	1.332891	city	7	0	0.000000	1.421636	0	0	0	1	OmissionError	0.258015	0.777951	1	0	6.210000e+01
286.778778	1.319539	city	2	0	0.000000	1.209450	0	0	0	1	OmissionError	0.254561	0.772139	1	0	6.395000e+01
288.131592	1.386069	city	8	1	0.928705	0.928705	0	1	0	0	CorrectCommission	0.932754	0.765863	1	0	6.580000e+01
289.497803	1.346365	city	4	1	0.590568	0.590568	0	1	0	0	CorrectCommission	1.749587	0.758847	1	0	6.765000e+01
290.850769	1.359553	city	6	0	0.000000	1.225762	0	0	0	1	OmissionError	0.215157	0.750905	1	0	6.950000e+01
292.170258	1.279423	city	4	1	1.873913	1.873913	0	1	0	0	CorrectCommission	1.350576	0.742171	1	0	7.135000e+01
293.456512	1.293067	city	6	1	1.574651	1.574651	0	1	0	0	CorrectCommission	0.627650	0.733145	1	0	7.320000e+01
294.762756	1.319438	city	2	1	1.495774	1.495774	0	1	0	0	CorrectCommission	0.437108	0.724897	1	0	7.505000e+01
296.082245	1.319550	city	4	1	1.839911	1.839911	0	1	0	0	CorrectCommission	1.268436	0.718995	1	0	7.690000e+01
297.388458	1.292891	city	5	1	1.593817	1.593817	0	1	0	0	CorrectCommission	0.673950	0.717377	1	0	7.875000e+01
298.701447	1.333076	city	1	1	1.468487	1.468487	0	1	0	0	CorrectCommission	0.371191	0.722147	1	0	8.060000e+01
300.021118	1.306224	city	4	1	1.311592	1.311592	0	1	0	0	CorrectCommission	0.007817	0.735273	1	0	8.245000e+01
301.340668	1.332890	city	9	1	0.883790	0.883790	0	1	0	0	CorrectCommission	1.041254	0.758223	1	0	8.430000e+01
302.700134	1.386070	city	2	1	1.054819	1.054819	0	1	0	0	CorrectCommission	0.628101	0.791651	0	0	8.615000e+01
303.393188	10.876584	break	0	0	0.000000	1.180180	0	0	0	0	ThoughtProbe	0.325269	0.835162	0	88	88
314.916138	1.292733	city	9	1	1.195475	1.195475	0	1	0	0	CorrectCommission	0.288321	0.887184	0	0	8.732609e+01
316.208954	1.292894	city	3	1	1.036306	1.036306	0	1	0	0	CorrectCommission	0.672822	0.944940	0	0	8.665217e+01
317.501862	1.292935	mountain	4	1	0.818030	0.818030	0	0	1	0	CommissionError	1.200110	1.004637	0	0	8.597826e+01
318.794769	1.292879	city	4	1	1.721885	1.721885	0	1	0	0	CorrectCommission	0.983322	1.061794	0	0	8.530435e+01
320.087677	1.292930	city	9	1	1.799335	1.799335	0	1	0	0	CorrectCommission	1.170419	1.111768	0	0	8.463043e+01
321.387238	1.306216	city	10	1	0.834201	0.834201	0	1	0	0	CorrectCommission	1.161047	1.150305	0	0	8.395652e+01
322.686829	1.292942	city	8	0	0.000000	0.386572	0	0	0	1	OmissionError	2.242378	1.174128	0	0	8.328261e+01
323.979736	1.292875	city	7	0	0.000000	0.314897	0	0	0	1	OmissionError	2.415524	1.181368	0	0	8.260870e+01
325.266052	1.279740	city	8	0	0.000000	0.477622	0	0	0	1	OmissionError	2.022431	1.171943	0	0	8.193478e+01
326.552307	1.292774	city	5	0	0.000000	0.733194	0	0	0	1	OmissionError	1.405048	1.147597	0	0	8.126087e+01
327.851868	1.306399	city	2	1	0.940060	0.940060	0	1	0	0	CorrectCommission	0.905323	1.111710	0	0	8.058696e+01
329.171539	1.332891	city	5	1	0.956668	0.956668	0	1	0	0	CorrectCommission	0.865204	1.068934	0	0	7.991304e+01
330.484344	1.292723	city	7	1	1.050045	1.050045	0	1	0	0	CorrectCommission	0.639634	1.024574	0	0	7.923913e+01
331.777222	1.293073	mountain	10	1	0.835657	0.835657	0	0	1	0	CommissionError	1.157528	0.983997	0	0	7.856522e+01
333.070129	1.292742	city	2	1	1.524167	1.524167	0	1	0	0	CorrectCommission	0.505697	0.952009	0	0	7.789130e+01
334.369629	1.306235	city	10	1	1.213679	1.213679	0	1	0	0	CorrectCommission	0.244345	0.932303	0	0	7.721739e+01
335.682617	1.319733	city	1	1	1.484274	1.484274	0	1	0	0	CorrectCommission	0.409327	0.927132	0	0	7.654348e+01
336.988861	1.292770	city	9	1	1.406581	1.406581	0	1	0	0	CorrectCommission	0.221646	0.937121	0	0	7.586957e+01
338.281708	1.292900	city	1	1	1.244317	1.244317	0	1	0	0	CorrectCommission	0.170333	0.961347	0	0	7.519565e+01
339.581268	1.306221	city	4	1	1.804546	1.804546	0	1	0	0	CorrectCommission	1.183007	0.997529	0	0	7.452174e+01
340.880829	1.292904	mountain	3	0	0.000000	2.011580	1	0	0	0	CorrectOmission	1.683135	1.042413	0	0	7.384783e+01
342.173798	1.293069	city	10	0	0.000000	1.986927	0	0	0	1	OmissionError	1.623582	1.092190	0	0	7.317391e+01
343.466797	1.292908	city	1	0	0.000000	1.852097	0	0	0	1	OmissionError	1.297874	1.142903	0	0	7.250000e+01
344.759644	1.292770	mountain	1	1	1.728598	1.728598	0	0	1	0	CommissionError	0.999540	1.190811	0	0	7.182609e+01
346.059143	1.306240	city	5	1	1.737941	1.737941	0	1	0	0	CorrectCommission	1.022108	1.232632	0	0	7.115217e+01
347.352112	1.279714	city	10	1	1.924105	1.924105	0	1	0	0	CorrectCommission	1.471824	1.265759	0	0	7.047826e+01
348.631683	1.279430	city	5	1	0.971176	0.971176	0	1	0	0	CorrectCommission	0.830157	1.288344	0	0	6.980435e+01
349.917938	1.293053	city	8	0	0.000000	0.479045	0	0	0	1	OmissionError	2.018994	1.299362	0	0	6.913043e+01
351.210907	1.292913	city	5	0	0.000000	0.347722	0	0	0	1	OmissionError	2.336229	1.298537	0	0	6.845652e+01
352.497070	1.279420	city	1	0	0.000000	0.477218	0	0	0	1	OmissionError	2.023406	1.286320	0	0	6.778261e+01
353.783325	1.293063	city	3	1	0.767543	0.767543	0	1	0	0	CorrectCommission	1.322071	1.263753	0	0	6.710870e+01
355.089569	1.319406	city	8	1	1.118707	1.118707	0	1	0	0	CorrectCommission	0.473767	1.232296	0	0	6.643478e+01
356.389130	1.279764	city	2	1	1.511605	1.511605	0	1	0	0	CorrectCommission	0.475352	1.193610	0	0	6.576087e+01
357.682098	1.306171	city	6	1	0.551068	0.551068	0	1	0	0	CorrectCommission	1.845008	1.149362	0	0	6.508696e+01
358.981598	1.292787	city	1	1	1.668253	1.668253	0	1	0	0	CorrectCommission	0.853764	1.101067	0	0	6.441304e+01
360.281189	1.306424	city	5	1	1.910461	1.910461	0	1	0	0	CorrectCommission	1.438863	1.050068	0	0	6.373913e+01
361.580841	1.292886	city	8	1	0.924263	0.924263	0	1	0	0	CorrectCommission	0.943484	0.997468	0	0	6.306522e+01
362.880432	1.306260	city	9	1	0.945839	0.945839	0	1	0	0	CorrectCommission	0.891364	0.944227	0	0	6.239130e+01
364.186584	1.306052	city	2	1	1.097573	1.097573	0	1	0	0	CorrectCommission	0.524821	0.891217	0	0	6.171739e+01
365.479492	1.279760	city	8	1	0.697863	0.697863	0	1	0	0	CorrectCommission	1.490397	0.839344	0	0	6.104348e+01
366.779053	1.319383	city	5	0	0.000000	0.879770	0	0	0	1	OmissionError	1.050964	0.789630	0	0	6.036957e+01
368.078613	1.279764	city	10	0	0.000000	1.287207	0	0	0	1	OmissionError	0.066724	0.743317	1	0	5.969565e+01
369.364868	1.292722	city	2	1	1.564084	1.564084	0	1	0	0	CorrectCommission	0.602124	0.701898	1	0	5.902174e+01
370.651031	1.279608	city	6	1	1.354312	1.354312	0	1	0	0	CorrectCommission	0.095381	0.666999	1	0	5.834783e+01
371.950623	1.319567	city	10	1	0.911082	0.911082	0	1	0	0	CorrectCommission	0.975325	0.640373	1	0	5.767391e+01
375.776093	6.331386	break	0	1	0.804342	0.804342	0	0	0	0	ThoughtProbe	1.233177	0.623686	1	57	57
379.588165	1.292747	city	9	1	1.247871	1.247871	0	1	0	0	CorrectCommission	0.161749	0.618316	1	0	5.742500e+01
380.880981	1.292908	city	10	1	1.158731	1.158731	0	1	0	0	CorrectCommission	0.377083	0.625104	1	0	5.785000e+01
382.173920	1.292947	city	3	0	0.000000	1.241076	0	0	0	1	OmissionError	0.178163	0.644077	1	0	5.827500e+01
383.480255	1.319716	city	1	0	0.000000	1.376860	0	0	0	1	OmissionError	0.149850	0.674267	1	0	5.870000e+01
384.799805	1.319401	city	5	1	1.448039	1.448039	0	1	0	0	CorrectCommission	0.321796	0.713633	1	0	5.912500e+01
386.112610	1.306211	city	9	1	1.336568	1.336568	0	1	0	0	CorrectCommission	0.052516	0.759143	1	0	5.955000e+01
387.412262	1.293097	city	3	0	0.000000	1.477055	0	0	0	1	OmissionError	0.391888	0.807058	0	0	5.997500e+01
388.705170	1.292721	city	6	0	0.000000	1.751980	0	0	0	1	OmissionError	1.056022	0.853341	0	0	6.040000e+01
389.997986	1.292914	city	8	0	0.000000	2.043823	0	0	0	1	OmissionError	1.761024	0.894180	0	0	6.082500e+01
391.284332	1.279762	city	4	0	0.000000	2.235064	0	0	0	1	OmissionError	2.223003	0.926503	0	0	6.125000e+01
392.570648	1.292884	city	5	1	2.208182	2.208182	0	1	0	0	CorrectCommission	2.158065	0.948462	0	0	6.167500e+01
393.856812	1.279420	mountain	6	0	0.000000	1.845658	1	0	0	0	CorrectOmission	1.282319	0.959635	0	0	6.210000e+01
395.143036	1.293026	city	8	1	1.437149	1.437149	0	1	0	0	CorrectCommission	0.295489	0.961053	0	0	6.252500e+01
396.442688	1.306275	city	2	1	1.272314	1.272314	0	1	0	0	CorrectCommission	0.102700	0.954964	0	0	6.295000e+01
397.748962	1.306264	mountain	4	1	0.960776	0.960776	0	0	1	0	CommissionError	0.855280	0.944481	0	0	6.337500e+01
399.048523	1.292905	city	5	1	2.150526	2.150526	0	1	0	0	CorrectCommission	2.018785	0.933078	0	0	6.380000e+01
400.341431	1.292905	city	8	1	1.182057	1.182057	0	1	0	0	CorrectCommission	0.320734	0.924101	0	0	6.422500e+01
401.634338	1.292874	city	5	1	1.147351	1.147351	0	1	0	0	CorrectCommission	0.404573	0.920437	0	0	6.465000e+01
402.933807	1.306089	city	8	1	0.937659	0.937659	0	1	0	0	CorrectCommission	0.911123	0.924036	0	0	6.507500e+01
404.233307	1.292928	city	10	1	0.977174	0.977174	0	1	0	0	CorrectCommission	0.815668	0.935755	0	0	6.550000e+01
405.519562	1.279574	city	4	0	0.000000	1.158163	0	0	0	1	OmissionError	0.378453	0.955305	0	0	6.592500e+01
406.805908	1.293083	city	9	0	0.000000	1.419402	0	0	0	1	OmissionError	0.252617	0.981322	0	0	6.635000e+01
408.092163	1.279416	city	5	0	0.000000	1.699663	0	0	0	1	OmissionError	0.929641	1.011561	0	0	6.677500e+01
409.378296	1.292880	city	9	0	0.000000	1.937720	0	0	0	1	OmissionError	1.504713	1.043206	0	0	6.720000e+01
410.671295	1.293092	city	4	0	0.000000	2.072347	0	0	0	1	OmissionError	1.829930	1.073237	0	0	6.762500e+01
411.957550	1.279419	city	6	1	2.042318	2.042318	0	1	0	0	CorrectCommission	1.757389	1.098787	0	0	6.805000e+01
413.250427	1.306364	mountain	3	0	0.000000	1.786407	1	0	0	0	CorrectOmission	1.139187	1.117467	0	0	6.847500e+01
414.543335	1.279461	city	1	1	1.550856	1.550856	0	1	0	0	CorrectCommission	0.570169	1.127632	0	0	6.890000e+01
415.829559	1.292994	city	10	1	1.581908	1.581908	0	1	0	0	CorrectCommission	0.645182	1.128554	0	0	6.932500e+01
417.115875	1.279642	city	9	1	0.591052	0.591052	0	1	0	0	CorrectCommission	1.748419	1.120506	0	0	6.975000e+01
418.408813	1.306216	city	4	0	0.000000	0.371141	0	0	0	1	OmissionError	2.279656	1.104775	0	0	7.017500e+01
419.708374	1.292906	city	8	0	0.000000	0.654844	0	0	0	1	OmissionError	1.594317	1.083612	0	0	7.060000e+01
421.001312	1.292935	city	3	0	0.000000	1.174829	0	0	0	1	OmissionError	0.338195	1.060081	0	0	7.102500e+01
422.300812	1.306079	city	10	1	1.663764	1.663764	0	1	0	0	CorrectCommission	0.842921	1.037794	0	0	7.145000e+01
423.607025	1.306375	city	5	1	1.854318	1.854318	0	1	0	0	CorrectCommission	1.303239	1.020542	0	0	7.187500e+01
424.906586	1.292752	city	3	0	0.000000	1.414633	0	0	0	1	OmissionError	0.241098	1.011938	0	0	7.230000e+01
426.199524	1.293080	city	6	1	0.940607	0.940607	0	1	0	0	CorrectCommission	0.904003	1.015059	0	0	7.272500e+01
427.492493	1.292886	city	1	1	1.028135	1.028135	0	1	0	0	CorrectCommission	0.692561	1.032018	0	0	7.315000e+01
428.778656	1.279417	city	5	1	1.403575	1.403575	0	1	0	0	CorrectCommission	0.214385	1.063806	0	0	7.357500e+01
432.863892	6.891083	break	0	0	0.000000	1.741122	0	0	0	0	ThoughtProbe	1.029794	1.110129	0	74	74
436.982635	1.346388	city	7	1	1.804340	1.804340	0	1	0	0	CorrectCommission	1.182509	1.169363	0	0	7.182353e+01
438.295593	1.279561	city	5	0	0.000000	1.356792	0	0	0	1	OmissionError	0.101372	1.238732	0	0	6.964706e+01
439.608429	1.346060	city	9	1	0.792799	0.792799	0	1	0	0	CorrectCommission	1.261061	1.314579	0	0	6.747059e+01
440.927979	1.293073	city	3	0	0.000000	0.506681	0	0	0	1	OmissionError	1.952233	1.392604	0	0	6.529412e+01
442.220886	1.292742	city	2	0	0.000000	0.422272	0	0	0	1	OmissionError	2.156138	1.468260	0	0	6.311765e+01
443.520386	1.306237	mountain	9	0	0.000000	0.463407	1	0	0	0	CorrectOmission	2.056770	1.537107	0	0	6.094118e+01
444.826630	1.306238	city	6	1	0.553919	0.553919	0	1	0	0	CorrectCommission	1.838121	1.595092	0	0	5.876471e+01
446.186279	1.413055	city	9	1	0.617641	0.617641	0	1	0	0	CorrectCommission	1.684187	1.638766	0	0	5.658824e+01
447.539276	1.292940	city	8	0	0.000000	0.621404	0	0	0	1	OmissionError	1.675097	1.665460	0	0	5.441176e+01
448.838745	1.306031	city	4	0	0.000000	0.584697	0	0	0	1	OmissionError	1.763771	1.673414	0	0	5.223529e+01
450.144958	1.306388	city	7	0	0.000000	0.527007	0	0	0	1	OmissionError	1.903131	1.661893	0	0	5.005882e+01
451.451202	1.306073	city	6	0	0.000000	0.467825	0	0	0	1	OmissionError	2.046096	1.631289	0	0	4.788235e+01
452.750671	1.292908	city	8	0	0.000000	0.426640	0	0	0	1	OmissionError	2.145586	1.583214	0	0	4.570588e+01
454.050354	1.306464	city	1	0	0.000000	0.422941	0	0	0	1	OmissionError	2.154523	1.520527	0	0	4.352941e+01
455.356598	1.306015	city	2	0	0.000000	0.476216	0	0	0	1	OmissionError	2.025826	1.447253	0	0	4.135294e+01
456.676147	1.333076	city	5	0	0.000000	0.605956	0	0	0	1	OmissionError	1.712416	1.368326	0	0	3.917647e+01
457.989044	1.292735	city	8	0	0.000000	0.831649	0	0	0	1	OmissionError	1.167212	1.289180	0	0	37
459.295288	1.319713	mountain	8	1	1.172784	1.172784	0	0	1	0	CommissionError	0.343136	1.215247	0	0	3.482353e+01
460.594849	1.279418	city	10	1	1.648850	1.648850	0	1	0	0	CorrectCommission	0.806893	1.151291	0	0	3.264706e+01
461.907684	1.346243	city	3	1	1.543453	1.543453	0	1	0	0	CorrectCommission	0.552286	1.100804	0	0	3.047059e+01
463.260590	1.359584	city	10	1	1.187383	1.187383	0	1	0	0	CorrectCommission	0.307869	1.065561	0	0	2.829412e+01
464.600128	1.319521	city	8	1	1.060973	1.060973	0	1	0	0	CorrectCommission	0.613235	1.045311	0	0	2.611765e+01
465.933014	1.346245	city	6	1	1.171250	1.171250	0	1	0	0	CorrectCommission	0.346841	1.037777	0	0	2.394118e+01
467.286011	1.359714	city	5	1	1.310538	1.310538	0	1	0	0	CorrectCommission	0.010363	1.039019	0	0	2.176471e+01
468.632233	1.332725	city	8	1	1.860545	1.860545	0	1	0	0	CorrectCommission	1.318283	1.043946	0	0	1.958824e+01
469.971741	1.346331	city	4	0	0.000000	2.132606	0	0	0	1	OmissionError	1.975496	1.047059	0	0	1.741176e+01
471.324646	1.359471	city	9	0	0.000000	2.195163	0	0	0	1	OmissionError	2.126616	1.043295	0	0	1.523529e+01
472.664246	1.319685	city	5	0	0.000000	2.116662	0	0	0	1	OmissionError	1.936980	1.028765	0	0	1.305882e+01
473.977203	1.306240	city	8	0	0.000000	1.965544	0	0	0	1	OmissionError	1.571928	1.001322	0	0	1.088235e+01
475.276672	1.292743	city	2	0	0.000000	1.810255	0	0	0	1	OmissionError	1.196796	0.960814	0	0	8.705882e+00
476.576172	1.306249	city	7	1	1.719237	1.719237	0	1	0	0	CorrectCommission	0.976925	0.909054	0	0	6.529412e+00
477.882446	1.306251	city	3	1	1.760934	1.760934	0	1	0	0	CorrectCommission	1.077652	0.849488	0	0	4.352941e+00
479.182007	1.292881	city	5	1	1.484989	1.484989	0	1	0	0	CorrectCommission	0.411056	0.786678	0	0	2.176471e+00
479.828430	9.250318	break	0	1	1.259522	1.259522	0	0	0	0	ThoughtProbe	0.133603	0.725703	1	0	0
489.731873	1.306220	city	3	1	1.344797	1.344797	0	1	0	0	CorrectCommission	0.072394	0.671512	1	0	2.117647e+00
491.044769	1.319561	city	2	1	1.182054	1.182054	0	1	0	0	CorrectCommission	0.320741	0.628357	1	0	4.235294e+00
492.350983	1.292901	mountain	7	1	0.970268	0.970268	0	0	1	0	CommissionError	0.832351	0.599377	1	0	6.352941e+00
493.643890	1.292906	city	3	1	1.379491	1.379491	0	1	0	0	CorrectCommission	0.156205	0.586319	1	0	8.470588e+00
494.950134	1.319588	city	1	1	1.211514	1.211514	0	1	0	0	CorrectCommission	0.249576	0.589445	1	0	1.058824e+01
496.263123	1.306381	city	5	0	0.000000	1.237809	0	0	0	1	OmissionError	0.186055	0.607535	1	0	1.270588e+01
497.562683	1.292759	city	3	0	0.000000	1.298296	0	0	0	1	OmissionError	0.039938	0.638056	1	0	1.482353e+01
498.875519	1.332894	city	9	1	1.232892	1.232892	0	1	0	0	CorrectCommission	0.197933	0.677451	1	0	1.694118e+01
500.201752	1.319556	city	6	1	0.881517	0.881517	0	1	0	0	CorrectCommission	1.046745	0.721504	1	0	1.905882e+01
501.534668	1.346269	city	8	1	1.829519	1.829519	0	1	0	0	CorrectCommission	1.243332	0.765744	1	0	2.117647e+01
502.880890	1.346178	city	4	0	0.000000	1.941548	0	0	0	1	OmissionError	1.513961	0.805916	0	0	2.329412e+01
504.193756	1.279594	city	3	0	0.000000	1.674603	0	0	0	1	OmissionError	0.869103	0.838385	0	0	2.541176e+01
505.486755	1.306382	city	1	1	1.485679	1.485679	0	1	0	0	CorrectCommission	0.412722	0.860480	0	0	2.752941e+01
506.813049	1.346229	city	5	1	1.831775	1.831775	0	1	0	0	CorrectCommission	1.248782	0.870738	0	0	2.964706e+01
508.172607	1.372877	city	2	0	0.000000	2.067493	0	0	0	1	OmissionError	1.818203	0.869006	0	0	3.176471e+01
509.518829	1.319591	city	9	1	2.075761	2.075761	0	1	0	0	CorrectCommission	1.838177	0.856447	0	0	3.388235e+01
510.825012	1.292739	city	6	1	1.739510	1.739510	0	1	0	0	CorrectCommission	1.025899	0.835367	0	0	36
512.137817	1.332907	city	9	1	1.404481	1.404481	0	1	0	0	CorrectCommission	0.216574	0.808930	0	0	3.811765e+01
513.504150	1.399675	city	4	1	1.208799	1.208799	0	1	0	0	CorrectCommission	0.256133	0.780763	0	0	4.023529e+01
514.850403	1.292906	city	8	1	1.038595	1.038595	0	1	0	0	CorrectCommission	0.667293	0.754514	1	0	4.235294e+01
516.149902	1.306071	city	6	1	1.378848	1.378848	0	1	0	0	CorrectCommission	0.154651	0.733497	1	0	4.447059e+01
517.469482	1.333063	city	1	0	0.000000	1.555038	0	0	0	1	OmissionError	0.580272	0.720375	1	0	4.658824e+01
518.782349	1.292751	mountain	10	0	0.000000	1.612283	1	0	0	0	CorrectOmission	0.718558	0.716922	1	0	4.870588e+01
520.088623	1.319721	city	1	0	0.000000	1.595698	0	0	0	1	OmissionError	0.678495	0.723966	1	0	5.082353e+01
521.394897	1.292797	city	8	0	0.000000	1.550401	0	0	0	1	OmissionError	0.569071	0.741400	1	0	5.294118e+01
522.681091	1.279688	city	1	1	1.521508	1.521508	0	1	0	0	CorrectCommission	0.499273	0.768332	1	0	5.505882e+01
524.000671	1.359390	city	4	1	1.554134	1.554134	0	1	0	0	CorrectCommission	0.578088	0.803268	0	0	5.717647e+01
525.380188	1.399705	city	6	1	1.159435	1.159435	0	1	0	0	CorrectCommission	0.375383	0.844368	0	0	5.929412e+01
526.733154	1.306253	city	5	1	0.915636	0.915636	0	1	0	0	CorrectCommission	0.964323	0.889703	0	0	6.141176e+01
528.059387	1.346205	city	1	1	0.798027	0.798027	0	1	0	0	CorrectCommission	1.248431	0.937502	0	0	6.352941e+01
529.385620	1.306236	city	2	0	0.000000	0.749537	0	0	0	1	OmissionError	1.365569	0.986361	0	0	6.564706e+01
530.685120	1.292790	city	6	0	0.000000	0.752886	0	0	0	1	OmissionError	1.357479	1.035367	0	0	6.776471e+01
531.997986	1.332851	city	2	0	0.000000	0.790794	0	0	0	1	OmissionError	1.265903	1.084105	0	0	6.988235e+01
532.664368	9.663606	break	0	0	0.845983	0.845983	0	0	0	0	ThoughtProbe	1.132585	1.132585	0	72	72
