onset	duration	trial_type	image_type	Press	ReactionTime	ReactionTime_Interpolated	CorrectOmission	CorrectCommission	CommissionError	OmissionError	response_type	nonsmoothVarianceTimeCourse	VarianceTimeCourse	In_the_Zone	ThoughtProbe	ThoughtProbe_Interpolated
0.659584	1.293048	city	2	1	1.071249	1.071249	0	1	0	0	CorrectCommission	0.160778	0.160778	1	0	57
1.945901	1.279587	city	8	1	1.021609	1.021609	0	1	0	0	CorrectCommission	0.348867	0.198147	1	0	57
3.225422	1.279454	mountain	4	0	0.000000	1.075300	1	0	0	0	CorrectOmission	0.145428	0.234268	1	0	57
4.511669	1.293040	city	7	1	1.087724	1.087724	0	1	0	0	CorrectCommission	0.098353	0.268017	1	0	57
5.797948	1.279519	city	1	1	0.914283	0.914283	0	1	0	0	CorrectCommission	0.755534	0.298486	1	0	57
7.077489	1.279564	city	8	1	1.049834	1.049834	0	1	0	0	CorrectCommission	0.241923	0.325043	1	0	57
8.357055	1.279567	city	4	1	1.021173	1.021173	0	1	0	0	CorrectCommission	0.350523	0.347419	1	0	57
9.649995	1.306314	city	3	1	0.884855	0.884855	0	1	0	0	CorrectCommission	0.867039	0.365696	1	0	57
10.942942	1.279580	city	1	1	0.964846	0.964846	0	1	0	0	CorrectCommission	0.563946	0.380275	1	0	57
12.222519	1.279574	mountain	7	0	0.000000	1.148316	1	0	0	0	CorrectOmission	0.131233	0.391816	1	0	57
13.502021	1.279429	city	2	1	1.234631	1.234631	0	1	0	0	CorrectCommission	0.458285	0.401113	1	0	57
14.794937	1.306404	mountain	8	1	1.023157	1.023157	0	0	1	0	CommissionError	0.343003	0.408913	1	0	57
16.087847	1.279417	city	8	1	1.251659	1.251659	0	1	0	0	CorrectCommission	0.522806	0.415825	1	0	57
17.367418	1.279724	city	2	1	1.201849	1.201849	0	1	0	0	CorrectCommission	0.334074	0.422188	1	0	57
18.646988	1.279418	city	3	1	1.082269	1.082269	0	1	0	0	CorrectCommission	0.119024	0.428042	1	0	57
19.933231	1.293069	city	10	1	1.136642	1.136642	0	1	0	0	CorrectCommission	0.086999	0.433145	1	0	57
21.219559	1.279584	city	2	1	1.048014	1.048014	0	1	0	0	CorrectCommission	0.248818	0.437099	1	0	57
22.499149	1.279598	city	6	1	0.913089	0.913089	0	1	0	0	CorrectCommission	0.760058	0.439457	1	0	57
23.778727	1.279557	city	2	1	0.770411	0.770411	0	1	0	0	CorrectCommission	1.300676	0.439957	1	0	57
25.058298	1.279585	city	6	1	0.911197	0.911197	0	1	0	0	CorrectCommission	0.767226	0.438667	1	0	57
26.351219	1.306255	city	3	1	1.045175	1.045175	0	1	0	0	CorrectCommission	0.259577	0.436105	1	0	57
27.644135	1.279577	city	7	1	1.068037	1.068037	0	1	0	0	CorrectCommission	0.172952	0.433235	1	0	57
28.923662	1.279478	city	9	1	1.240770	1.240770	0	1	0	0	CorrectCommission	0.481546	0.431387	1	0	57
30.203238	1.279673	city	6	1	1.040435	1.040435	0	1	0	0	CorrectCommission	0.277536	0.432071	1	0	57
31.482782	1.279414	city	3	1	1.015035	1.015035	0	1	0	0	CorrectCommission	0.373778	0.436800	1	0	57
32.762367	1.279754	city	10	1	1.080973	1.080973	0	1	0	0	CorrectCommission	0.123934	0.446839	1	0	57
34.048687	1.292885	city	2	1	1.031156	1.031156	0	1	0	0	CorrectCommission	0.312694	0.462994	1	0	57
35.341591	1.292925	city	5	1	1.033954	1.033954	0	1	0	0	CorrectCommission	0.302094	0.485448	1	0	57
36.634460	1.292813	city	9	1	1.200676	1.200676	0	1	0	0	CorrectCommission	0.329629	0.513681	1	0	57
37.947273	1.332816	city	3	1	0.951413	0.951413	0	1	0	0	CorrectCommission	0.614844	0.546452	1	0	57
39.253479	1.279598	city	1	1	1.046282	1.046282	0	1	0	0	CorrectCommission	0.255379	0.581894	1	0	57
40.533054	1.279549	mountain	10	0	0.000000	0.973206	1	0	0	0	CorrectOmission	0.532273	0.617675	1	0	57
41.819378	1.293098	city	9	1	0.868292	0.868292	0	1	0	0	CorrectCommission	0.929797	0.651185	1	0	57
43.112312	1.292769	city	10	1	0.867652	0.867652	0	1	0	0	CorrectCommission	0.932222	0.679811	1	0	57
44.411938	1.306480	city	7	1	1.261838	1.261838	0	1	0	0	CorrectCommission	0.561375	0.701205	1	0	57
45.711567	1.292778	city	4	1	1.646683	1.646683	0	1	0	0	CorrectCommission	2.019578	0.713523	1	0	57
47.011086	1.306261	city	8	1	1.170668	1.170668	0	1	0	0	CorrectCommission	0.215925	0.715581	1	0	57
48.330624	1.332817	city	3	1	0.972085	0.972085	0	1	0	0	CorrectCommission	0.536518	0.707085	1	0	57
49.636795	1.279523	city	5	1	0.758361	0.758361	0	1	0	0	CorrectCommission	1.346334	0.688584	1	0	57
50.916401	1.279693	city	2	1	0.821453	0.821453	0	1	0	0	CorrectCommission	1.107275	0.661447	1	0	57
52.202648	1.292804	city	8	1	0.925759	0.925759	0	1	0	0	CorrectCommission	0.712052	0.627806	1	0	57
53.535465	1.372828	city	5	1	0.879532	0.879532	0	1	0	0	CorrectCommission	0.887207	0.590349	1	0	57
54.868362	1.292966	city	7	1	1.102687	1.102687	0	1	0	0	CorrectCommission	0.041660	0.552092	1	0	57
56.154625	1.279558	city	2	1	1.139650	1.139650	0	1	0	0	CorrectCommission	0.098397	0.516165	1	0	57
57.467525	1.346244	city	3	1	1.035469	1.035469	0	1	0	0	CorrectCommission	0.296352	0.485493	1	0	57
61.352901	6.424505	break	0	1	0.988707	0.988707	0	0	0	0	ThoughtProbe	0.473539	0.462601	1	57	57
65.211609	1.292904	mountain	1	0	0.000000	1.035745	1	0	0	0	CorrectOmission	0.295308	0.449392	1	0	5.691304e+01
66.497925	1.279729	city	1	1	1.104894	1.104894	0	1	0	0	CorrectCommission	0.033296	0.447034	1	0	5.682609e+01
67.777512	1.279448	city	3	1	1.124465	1.124465	0	1	0	0	CorrectCommission	0.040861	0.455875	1	0	5.673913e+01
69.063675	1.292884	city	9	1	1.322526	1.322526	0	1	0	0	CorrectCommission	0.791326	0.475415	1	0	5.665217e+01
70.349991	1.279740	city	4	1	1.231817	1.231817	0	1	0	0	CorrectCommission	0.447624	0.504355	1	0	5.656522e+01
71.629562	1.279408	city	8	1	1.100309	1.100309	0	1	0	0	CorrectCommission	0.050670	0.540733	1	0	5.647826e+01
72.909142	1.279749	mountain	5	0	0.000000	1.192631	1	0	0	0	CorrectOmission	0.299145	0.582090	1	0	5.639130e+01
74.195488	1.292949	city	4	1	1.244742	1.244742	0	1	0	0	CorrectCommission	0.496596	0.625689	1	0	5.630435e+01
75.495049	1.306163	city	2	1	0.992598	0.992598	0	1	0	0	CorrectCommission	0.458792	0.668840	1	0	5.621739e+01
76.787933	1.279604	mountain	10	0	0.000000	0.852578	1	0	0	0	CorrectOmission	0.989339	0.709241	1	0	5.613043e+01
78.087471	1.319482	city	10	1	0.741468	0.741468	0	1	0	0	CorrectCommission	1.410343	0.745278	0	0	5.604348e+01
79.400291	1.306160	city	9	1	0.576056	0.576056	0	1	0	0	CorrectCommission	2.037101	0.776182	0	0	5.595652e+01
80.693260	1.279767	city	6	1	0.913939	0.913939	0	1	0	0	CorrectCommission	0.756837	0.802145	0	0	5.586957e+01
81.979546	1.292811	city	9	1	1.404319	1.404319	0	1	0	0	CorrectCommission	1.101244	0.824236	0	0	5.578261e+01
83.292435	1.332966	city	10	1	1.101605	1.101605	0	1	0	0	CorrectCommission	0.045760	0.844092	0	0	5.569565e+01
84.598625	1.279411	city	1	1	1.141410	1.141410	0	1	0	0	CorrectCommission	0.105063	0.863604	0	0	5.560870e+01
85.878128	1.279601	city	9	1	1.422573	1.422573	0	1	0	0	CorrectCommission	1.170412	0.884467	0	0	5.552174e+01
87.164459	1.293053	city	2	1	1.369141	1.369141	0	1	0	0	CorrectCommission	0.967952	0.907773	0	0	5.543478e+01
88.450790	1.279622	city	7	1	1.466382	1.466382	0	1	0	0	CorrectCommission	1.336404	0.933784	0	0	5.534783e+01
89.730377	1.279550	city	1	1	1.196314	1.196314	0	1	0	0	CorrectCommission	0.313099	0.961744	0	0	5.526087e+01
91.023232	1.306154	city	2	1	1.155911	1.155911	0	1	0	0	CorrectCommission	0.160009	0.989995	0	0	5.517391e+01
92.316139	1.279661	city	4	1	0.965103	0.965103	0	1	0	0	CorrectCommission	0.562976	1.016116	0	0	5.508696e+01
93.615738	1.319536	city	3	1	0.824758	0.824758	0	1	0	0	CorrectCommission	1.094752	1.037376	0	0	55
94.915230	1.279452	city	7	1	1.620303	1.620303	0	1	0	0	CorrectCommission	1.919624	1.051224	0	0	5.491304e+01
96.221474	1.333039	city	1	1	1.806011	1.806011	0	1	0	0	CorrectCommission	2.623284	1.055781	0	0	5.482609e+01
97.534447	1.292901	city	8	1	1.703531	1.703531	0	1	0	0	CorrectCommission	2.234977	1.050230	0	0	5.473913e+01
98.840675	1.319557	city	10	0	0.000000	1.332382	0	0	0	1	OmissionError	0.828672	1.035081	0	0	5.465217e+01
100.140282	1.279649	city	1	1	1.071323	1.071323	0	1	0	0	CorrectCommission	0.160500	1.012204	0	0	5.456522e+01
101.419792	1.279375	city	4	1	1.299108	1.299108	0	1	0	0	CorrectCommission	0.702592	0.984641	0	0	5.447826e+01
102.699356	1.279750	city	2	1	1.505331	1.505331	0	1	0	0	CorrectCommission	1.483985	0.956228	0	0	5.439130e+01
103.985672	1.292885	mountain	2	0	0.000000	1.362759	1	0	0	0	CorrectOmission	0.943773	0.931168	0	0	5.430435e+01
105.285233	1.306243	city	5	1	1.152518	1.152518	0	1	0	0	CorrectCommission	0.147153	0.913547	0	0	5.421739e+01
106.578148	1.279590	city	7	1	1.155730	1.155730	0	1	0	0	CorrectCommission	0.159325	0.906847	0	0	5.413043e+01
107.897728	1.359556	city	2	1	0.816382	0.816382	0	1	0	0	CorrectCommission	1.126488	0.913510	0	0	5.404348e+01
109.223885	1.292764	city	6	1	1.360072	1.360072	0	1	0	0	CorrectCommission	0.933592	0.934649	0	0	5.395652e+01
110.536804	1.333070	city	2	1	1.307282	1.307282	0	1	0	0	CorrectCommission	0.733567	0.969889	0	0	5.386957e+01
111.863014	1.319361	city	1	1	1.047373	1.047373	0	1	0	0	CorrectCommission	0.251248	1.017334	0	0	5.378261e+01
113.169250	1.293102	city	8	1	1.023090	1.023090	0	1	0	0	CorrectCommission	0.343258	1.073670	0	0	5.369565e+01
114.455566	1.279541	city	1	1	0.930602	0.930602	0	1	0	0	CorrectCommission	0.693699	1.134420	0	0	5.360870e+01
115.748390	1.306098	city	6	1	1.773099	1.773099	0	1	0	0	CorrectCommission	2.498578	1.194396	0	0	5.352174e+01
117.061211	1.319540	city	10	0	0.000000	1.292558	0	0	0	1	OmissionError	0.677773	1.248196	0	0	5.343478e+01
118.387512	1.333062	city	2	1	0.810269	0.810269	0	1	0	0	CorrectCommission	1.149652	1.290909	0	0	5.334783e+01
119.707169	1.306256	city	3	1	1.647524	1.647524	0	1	0	0	CorrectCommission	2.022764	1.318541	0	0	5.326087e+01
121.013420	1.306246	city	4	1	1.972426	1.972426	0	1	0	0	CorrectCommission	3.253840	1.328487	0	0	5.317391e+01
122.312981	1.292876	city	9	1	1.848947	1.848947	0	1	0	0	CorrectCommission	2.785971	1.319794	0	0	5.308696e+01
125.865089	5.811348	break	0	0	0.000000	1.534201	0	0	0	0	ThoughtProbe	1.593376	1.293208	0	53	53
129.423874	1.306202	city	9	0	0.000000	1.172747	0	0	0	1	OmissionError	0.223805	1.250938	0	0	5.285000e+01
130.716782	1.279622	city	3	1	0.909147	0.909147	0	1	0	0	CorrectCommission	0.774994	1.196292	0	0	5.270000e+01
132.003082	1.292997	city	2	1	0.887961	0.887961	0	1	0	0	CorrectCommission	0.855271	1.133171	0	0	5.255000e+01
133.289368	1.279578	city	3	1	0.872099	0.872099	0	1	0	0	CorrectCommission	0.915374	1.065675	0	0	5.240000e+01
134.575623	1.292913	city	1	1	0.846599	0.846599	0	1	0	0	CorrectCommission	1.011992	0.997688	0	0	5.225000e+01
135.861862	1.279557	city	3	1	0.807660	0.807660	0	1	0	0	CorrectCommission	1.159536	0.932603	0	0	5.210000e+01
137.148010	1.292758	city	8	1	0.819146	0.819146	0	1	0	0	CorrectCommission	1.116015	0.873211	0	0	5.195000e+01
138.454239	1.319680	city	9	1	1.010662	1.010662	0	1	0	0	CorrectCommission	0.390348	0.821650	0	0	5.180000e+01
139.773865	1.319593	city	3	1	1.015533	1.015533	0	1	0	0	CorrectCommission	0.371891	0.779402	0	0	5.165000e+01
141.086746	1.306175	city	8	1	0.875269	0.875269	0	1	0	0	CorrectCommission	0.903361	0.747264	0	0	5.150000e+01
142.379593	1.279496	city	1	1	0.985570	0.985570	0	1	0	0	CorrectCommission	0.485424	0.725366	1	0	5.135000e+01
143.665878	1.293080	mountain	6	1	1.241789	1.241789	0	0	1	0	CommissionError	0.485407	0.713209	1	0	5.120000e+01
144.952118	1.279398	city	9	1	1.050886	1.050886	0	1	0	0	CorrectCommission	0.237935	0.709620	1	0	5.105000e+01
146.231644	1.279667	mountain	6	0	0.000000	0.940305	1	0	0	0	CorrectOmission	0.656935	0.712804	1	0	5.090000e+01
147.511322	1.279682	city	1	1	0.911109	0.911109	0	1	0	0	CorrectCommission	0.767561	0.720421	1	0	5.075000e+01
148.790894	1.279462	city	8	1	0.964361	0.964361	0	1	0	0	CorrectCommission	0.565785	0.729724	1	0	5.060000e+01
150.070465	1.279685	city	4	1	1.070877	1.070877	0	1	0	0	CorrectCommission	0.162190	0.737847	1	0	5.045000e+01
151.350006	1.279395	city	3	1	0.803657	0.803657	0	1	0	0	CorrectCommission	1.174704	0.742042	0	0	5.030000e+01
152.629532	1.279651	city	10	1	0.702940	0.702940	0	1	0	0	CorrectCommission	1.556328	0.739949	1	0	5.015000e+01
153.909103	1.279508	city	3	1	0.804140	0.804140	0	1	0	0	CorrectCommission	1.172872	0.729877	1	0	50
155.188751	1.279764	city	8	1	0.748956	0.748956	0	1	0	0	CorrectCommission	1.381969	0.711016	1	0	4.985000e+01
156.468414	1.279575	mountain	2	1	1.015536	1.015536	0	0	1	0	CommissionError	0.371879	0.683474	1	0	4.970000e+01
157.747940	1.279484	city	9	1	1.358575	1.358575	0	1	0	0	CorrectCommission	0.927919	0.648257	1	0	4.955000e+01
159.027481	1.279585	city	4	1	1.336329	1.336329	0	1	0	0	CorrectCommission	0.843628	0.607001	1	0	4.940000e+01
160.307053	1.279554	city	3	1	1.128077	1.128077	0	1	0	0	CorrectCommission	0.054544	0.561782	1	0	4.925000e+01
161.586685	1.279731	city	7	1	1.177568	1.177568	0	1	0	0	CorrectCommission	0.242068	0.514842	1	0	4.910000e+01
162.866241	1.279379	city	6	1	1.208833	1.208833	0	1	0	0	CorrectCommission	0.360535	0.468312	1	0	4.895000e+01
164.145813	1.279747	city	7	1	1.228580	1.228580	0	1	0	0	CorrectCommission	0.435358	0.424058	1	0	4.880000e+01
165.425476	1.279577	city	6	1	1.070804	1.070804	0	1	0	0	CorrectCommission	0.162467	0.383590	1	0	4.865000e+01
166.704956	1.279400	city	1	1	1.070553	1.070553	0	1	0	0	CorrectCommission	0.163418	0.348068	1	0	4.850000e+01
167.984528	1.279737	city	7	1	1.337480	1.337480	0	1	0	0	CorrectCommission	0.847989	0.318359	1	0	4.835000e+01
169.264191	1.279578	city	5	1	1.070830	1.070830	0	1	0	0	CorrectCommission	0.162367	0.295118	1	0	4.820000e+01
170.543762	1.279590	city	2	1	1.124165	1.124165	0	1	0	0	CorrectCommission	0.039724	0.278941	1	0	4.805000e+01
171.823288	1.279441	city	6	1	1.136351	1.136351	0	1	0	0	CorrectCommission	0.085895	0.270381	1	0	4.790000e+01
173.102798	1.279591	city	7	1	1.070923	1.070923	0	1	0	0	CorrectCommission	0.162015	0.269980	1	0	4.775000e+01
174.382462	1.279719	city	6	1	1.106155	1.106155	0	1	0	0	CorrectCommission	0.028517	0.278233	1	0	4.760000e+01
175.662094	1.279559	city	4	1	1.036207	1.036207	0	1	0	0	CorrectCommission	0.293557	0.295531	1	0	4.745000e+01
176.941666	1.279591	city	1	1	1.177712	1.177712	0	1	0	0	CorrectCommission	0.242614	0.322015	1	0	4.730000e+01
178.221176	1.279429	city	10	1	1.086966	1.086966	0	1	0	0	CorrectCommission	0.101226	0.357482	1	0	4.715000e+01
182.526428	7.331069	break	0	0	0.000000	1.149516	0	0	0	0	ThoughtProbe	0.135780	0.401228	1	47	47
186.831696	1.279475	city	10	1	1.250220	1.250220	0	1	0	0	CorrectCommission	0.517353	0.451968	1	0	4.684783e+01
188.117935	1.293000	city	6	1	1.273935	1.273935	0	1	0	0	CorrectCommission	0.607211	0.507828	1	0	4.669565e+01
189.404221	1.279582	city	4	1	1.124964	1.124964	0	1	0	0	CorrectCommission	0.042750	0.566339	1	0	4.654348e+01
190.683823	1.279598	city	2	1	1.077991	1.077991	0	1	0	0	CorrectCommission	0.135234	0.624622	1	0	4.639130e+01
191.963364	1.279479	city	3	1	0.963427	0.963427	0	1	0	0	CorrectCommission	0.569326	0.679585	1	0	4.623913e+01
193.242935	1.279679	mountain	3	1	0.804446	0.804446	0	0	1	0	CommissionError	1.171712	0.728184	1	0	4.608696e+01
194.522552	1.279560	mountain	5	0	0.000000	0.665849	1	0	0	0	CorrectOmission	1.696867	0.767774	0	0	4.593478e+01
195.802124	1.279577	city	4	1	0.649524	0.649524	0	1	0	0	CorrectCommission	1.758724	0.796397	0	0	4.578261e+01
197.081711	1.279593	city	3	1	0.857361	0.857361	0	1	0	0	CorrectCommission	0.971215	0.812987	0	0	4.563043e+01
198.361282	1.279563	city	7	1	0.964413	0.964413	0	1	0	0	CorrectCommission	0.565588	0.817473	0	0	4.547826e+01
199.640854	1.279584	city	3	1	0.858616	0.858616	0	1	0	0	CorrectCommission	0.966461	0.810742	0	0	4.532609e+01
200.927109	1.292926	city	9	1	0.835667	0.835667	0	1	0	0	CorrectCommission	1.053416	0.794501	0	0	4.517391e+01
202.213287	1.279417	city	3	1	0.886721	0.886721	0	1	0	0	CorrectCommission	0.859967	0.771066	0	0	4.502174e+01
203.492859	1.279739	mountain	3	0	0.000000	1.004848	1	0	0	0	CorrectOmission	0.412378	0.743143	0	0	4.486957e+01
204.779190	1.292899	city	10	1	1.030698	1.030698	0	1	0	0	CorrectCommission	0.314430	0.713574	1	0	4.471739e+01
206.065414	1.279573	city	9	1	0.804923	0.804923	0	1	0	0	CorrectCommission	1.169908	0.685101	1	0	4.456522e+01
207.351654	1.292906	city	6	1	0.924857	0.924857	0	1	0	0	CorrectCommission	0.715468	0.660225	1	0	4.441304e+01
208.637894	1.279573	city	4	1	1.230914	1.230914	0	1	0	0	CorrectCommission	0.444201	0.641086	1	0	4.426087e+01
209.917480	1.279580	city	9	1	1.123755	1.123755	0	1	0	0	CorrectCommission	0.038168	0.629411	1	0	4.410870e+01
211.196976	1.279427	city	10	1	1.123875	1.123875	0	1	0	0	CorrectCommission	0.038623	0.626454	1	0	4.395652e+01
212.476578	1.279758	city	6	1	1.537656	1.537656	0	1	0	0	CorrectCommission	1.606466	0.632978	1	0	4.380435e+01
213.762909	1.292904	city	5	1	1.088898	1.088898	0	1	0	0	CorrectCommission	0.093905	0.649206	1	0	4.365217e+01
215.049072	1.279424	city	1	1	1.122771	1.122771	0	1	0	0	CorrectCommission	0.034440	0.674880	1	0	4.350000e+01
216.328629	1.279701	city	7	1	1.444187	1.444187	0	1	0	0	CorrectCommission	1.252306	0.709173	1	0	4.334783e+01
217.614868	1.292765	city	2	1	1.168018	1.168018	0	1	0	0	CorrectCommission	0.205886	0.750663	0	0	4.319565e+01
218.901047	1.279599	city	9	1	1.071028	1.071028	0	1	0	0	CorrectCommission	0.161615	0.797421	0	0	4.304348e+01
220.180695	1.279714	city	10	1	0.749032	0.749032	0	1	0	0	CorrectCommission	1.381681	0.846995	0	0	4.289130e+01
221.460358	1.279587	city	8	1	0.767229	0.767229	0	1	0	0	CorrectCommission	1.312732	0.896511	0	0	4.273913e+01
222.739929	1.279576	city	2	1	0.896110	0.896110	0	1	0	0	CorrectCommission	0.824392	0.942866	0	0	4.258696e+01
224.019424	1.279412	city	7	1	0.943462	0.943462	0	1	0	0	CorrectCommission	0.644973	0.982935	0	0	4.243478e+01
225.298935	1.279594	city	4	1	0.857672	0.857672	0	1	0	0	CorrectCommission	0.970036	1.013850	0	0	4.228261e+01
226.585190	1.292914	city	6	1	0.809043	0.809043	0	1	0	0	CorrectCommission	1.154296	1.033294	0	0	4.213043e+01
227.871460	1.279644	city	3	1	0.660787	0.660787	0	1	0	0	CorrectCommission	1.716046	1.039801	0	0	4.197826e+01
229.151062	1.279546	city	9	1	0.537345	0.537345	0	1	0	0	CorrectCommission	2.183779	1.032956	0	0	4.182609e+01
230.437332	1.293019	city	6	1	0.764436	0.764436	0	1	0	0	CorrectCommission	1.323316	1.013509	0	0	4.167391e+01
231.723648	1.279598	mountain	9	1	0.551671	0.551671	0	0	1	0	CommissionError	2.129496	0.983320	0	0	4.152174e+01
233.003235	1.279579	city	10	1	1.124346	1.124346	0	1	0	0	CorrectCommission	0.040407	0.945096	0	0	4.136957e+01
234.282806	1.279573	city	5	1	1.295892	1.295892	0	1	0	0	CorrectCommission	0.690408	0.902096	0	0	4.121739e+01
235.562378	1.279563	city	2	1	1.192213	1.192213	0	1	0	0	CorrectCommission	0.297560	0.857616	0	0	4.106522e+01
236.841949	1.279578	city	4	1	0.962094	0.962094	0	1	0	0	CorrectCommission	0.574375	0.814634	0	0	4.091304e+01
238.121490	1.279509	city	7	1	1.284040	1.284040	0	1	0	0	CorrectCommission	0.645500	0.775428	0	0	4.076087e+01
239.407669	1.292840	city	8	1	0.992010	0.992010	0	1	0	0	CorrectCommission	0.461022	0.741391	1	0	4.060870e+01
240.693878	1.279583	city	10	1	0.857730	0.857730	0	1	0	0	CorrectCommission	0.969818	0.712945	1	0	4.045652e+01
241.973541	1.279730	city	4	1	1.177488	1.177488	0	1	0	0	CorrectCommission	0.241765	0.689711	1	0	4.030435e+01
243.253204	1.279589	city	1	1	1.068342	1.068342	0	1	0	0	CorrectCommission	0.171793	0.670752	1	0	4.015217e+01
247.705078	7.624158	break	0	0	0.000000	1.307305	0	0	0	0	ThoughtProbe	0.733650	0.654822	1	40	40
252.156876	1.279462	mountain	9	1	1.550600	1.550600	0	0	1	0	CommissionError	1.655512	0.640717	1	0	4.026471e+01
253.436417	1.279600	city	5	1	1.454454	1.454454	0	1	0	0	CorrectCommission	1.291210	0.627501	1	0	4.052941e+01
254.715958	1.279494	city	7	1	1.230804	1.230804	0	1	0	0	CorrectCommission	0.443784	0.614662	1	0	4.079412e+01
255.995499	1.279590	city	3	1	1.150536	1.150536	0	1	0	0	CorrectCommission	0.139643	0.602135	1	0	4.105882e+01
257.275177	1.279746	city	10	1	1.124191	1.124191	0	1	0	0	CorrectCommission	0.039821	0.590209	1	0	4.132353e+01
258.554810	1.279558	city	2	1	1.302203	1.302203	0	1	0	0	CorrectCommission	0.714319	0.579386	1	0	4.158824e+01
259.834412	1.279599	city	3	1	1.289270	1.289270	0	1	0	0	CorrectCommission	0.665316	0.570187	1	0	4.185294e+01
261.113922	1.279451	city	9	1	1.348840	1.348840	0	1	0	0	CorrectCommission	0.891031	0.563062	1	0	4.211765e+01
262.400085	1.292885	city	2	1	1.124158	1.124158	0	1	0	0	CorrectCommission	0.039697	0.558236	1	0	4.238235e+01
263.686401	1.279714	mountain	3	0	0.000000	1.181477	1	0	0	0	CorrectOmission	0.256883	0.555756	1	0	4.264706e+01
264.965881	1.279258	city	9	1	1.230738	1.230738	0	1	0	0	CorrectCommission	0.443536	0.555522	1	0	4.291176e+01
266.245483	1.279925	city	5	1	0.981883	0.981883	0	1	0	0	CorrectCommission	0.499392	0.557398	1	0	4.317647e+01
267.525177	1.279476	city	6	1	0.861836	0.861836	0	1	0	0	CorrectCommission	0.954258	0.561371	1	0	4.344118e+01
268.804688	1.279580	city	2	1	1.405076	1.405076	0	1	0	0	CorrectCommission	1.104111	0.567592	1	0	4.370588e+01
270.084320	1.279657	city	5	1	1.337618	1.337618	0	1	0	0	CorrectCommission	0.848511	0.576430	1	0	4.397059e+01
271.363953	1.279596	city	2	1	1.175419	1.175419	0	1	0	0	CorrectCommission	0.233927	0.588389	1	0	4.423529e+01
272.643524	1.279561	city	8	1	1.017555	1.017555	0	1	0	0	CorrectCommission	0.364229	0.603951	1	0	4.450000e+01
273.923096	1.279582	city	9	1	1.175192	1.175192	0	1	0	0	CorrectCommission	0.233069	0.623374	1	0	4.476471e+01
275.202606	1.279462	city	8	1	1.103194	1.103194	0	1	0	0	CorrectCommission	0.039739	0.646497	1	0	4.502941e+01
276.482208	1.279717	city	10	1	0.920904	0.920904	0	1	0	0	CorrectCommission	0.730445	0.672589	1	0	4.529412e+01
277.761841	1.279547	city	3	1	0.922099	0.922099	0	1	0	0	CorrectCommission	0.725920	0.700309	1	0	4.555882e+01
279.041351	1.279504	city	7	1	0.856937	0.856937	0	1	0	0	CorrectCommission	0.972824	0.727781	1	0	4.582353e+01
280.320953	1.279659	city	5	1	0.910177	0.910177	0	1	0	0	CorrectCommission	0.771093	0.752785	0	0	4.608824e+01
281.600494	1.279419	city	10	1	0.931155	0.931155	0	1	0	0	CorrectCommission	0.691606	0.773071	0	0	4.635294e+01
282.880066	1.279760	city	8	1	0.928622	0.928622	0	1	0	0	CorrectCommission	0.701203	0.786695	0	0	4.661765e+01
284.159637	1.279397	city	10	1	0.869868	0.869868	0	1	0	0	CorrectCommission	0.923825	0.792360	0	0	4.688235e+01
285.439148	1.279575	city	4	1	1.708831	1.708831	0	1	0	0	CorrectCommission	2.255060	0.789704	0	0	4.714706e+01
286.725464	1.293094	city	7	0	0.000000	1.404439	0	0	0	1	OmissionError	1.101700	0.779421	0	0	4.741176e+01
288.011719	1.279406	city	6	1	0.858238	0.858238	0	1	0	0	CorrectCommission	0.967893	0.763370	0	0	4.767647e+01
289.291260	1.279662	city	5	1	0.971771	0.971771	0	1	0	0	CorrectCommission	0.537708	0.744344	0	0	4.794118e+01
290.570862	1.279543	city	6	1	0.982819	0.982819	0	1	0	0	CorrectCommission	0.495848	0.725836	1	0	4.820588e+01
291.850464	1.279697	city	1	1	1.070863	1.070863	0	1	0	0	CorrectCommission	0.162242	0.711624	1	0	4.847059e+01
293.130035	1.279405	city	3	1	1.070744	1.070744	0	1	0	0	CorrectCommission	0.162694	0.705331	1	0	4.873529e+01
296.908783	6.278096	break	0	1	0.994273	0.994273	0	0	0	0	ThoughtProbe	0.452445	0.710001	1	49	49
300.694305	1.292937	city	7	1	1.350540	1.350540	0	1	0	0	CorrectCommission	0.897472	0.727740	1	0	4.887500e+01
301.980469	1.279404	city	5	1	1.179876	1.179876	0	1	0	0	CorrectCommission	0.250816	0.759477	0	0	4.875000e+01
303.259979	1.279633	mountain	3	0	0.000000	1.276412	1	0	0	0	CorrectOmission	0.616598	0.804837	0	0	4.862500e+01
304.539551	1.279506	city	4	1	1.351835	1.351835	0	1	0	0	CorrectCommission	0.902380	0.862090	0	0	4.850000e+01
305.819183	1.279764	mountain	6	0	0.000000	1.117831	1	0	0	0	CorrectOmission	0.015722	0.928280	0	0	4.837500e+01
307.098755	1.279395	city	8	1	0.871721	0.871721	0	1	0	0	CorrectCommission	0.916804	0.999494	0	0	4.825000e+01
308.378296	1.279631	city	6	1	0.910828	0.910828	0	1	0	0	CorrectCommission	0.768625	1.071141	0	0	4.812500e+01
309.657898	1.279605	city	7	1	0.720971	0.720971	0	1	0	0	CorrectCommission	1.488005	1.138445	0	0	48
310.937469	1.279516	city	1	1	0.602453	0.602453	0	1	0	0	CorrectCommission	1.937077	1.196897	0	0	4.787500e+01
312.217102	1.279751	city	4	1	0.642949	0.642949	0	1	0	0	CorrectCommission	1.783638	1.242750	0	0	4.775000e+01
313.496765	1.279574	city	2	1	0.643639	0.643639	0	1	0	0	CorrectCommission	1.781024	1.273406	0	0	4.762500e+01
314.782990	1.292893	city	6	1	1.721327	1.721327	0	1	0	0	CorrectCommission	2.302410	1.287661	0	0	4.750000e+01
316.069244	1.279597	city	10	1	1.497590	1.497590	0	1	0	0	CorrectCommission	1.454654	1.285762	0	0	4.737500e+01
317.348816	1.279561	city	8	1	1.444035	1.444035	0	1	0	0	CorrectCommission	1.251731	1.269318	0	0	4.725000e+01
318.628296	1.279418	city	3	1	1.342818	1.342818	0	1	0	0	CorrectCommission	0.868212	1.240952	0	0	4.712500e+01
319.907867	1.279736	city	1	1	1.447556	1.447556	0	1	0	0	CorrectCommission	1.265074	1.203967	0	0	47
321.187469	1.279430	city	4	1	1.601766	1.601766	0	1	0	0	CorrectCommission	1.849385	1.161830	0	0	4.687500e+01
322.466949	1.279570	city	9	1	1.400801	1.400801	0	1	0	0	CorrectCommission	1.087915	1.117749	0	0	4.675000e+01
323.746643	1.279783	city	7	1	1.230385	1.230385	0	1	0	0	CorrectCommission	0.442196	1.074303	0	0	4.662500e+01
325.026215	1.279400	city	4	1	1.089105	1.089105	0	1	0	0	CorrectCommission	0.093124	1.033176	0	0	4.650000e+01
326.312408	1.292970	city	9	1	0.881321	0.881321	0	1	0	0	CorrectCommission	0.880428	0.995059	0	0	4.637500e+01
327.598694	1.279588	city	1	1	0.857392	0.857392	0	1	0	0	CorrectCommission	0.971098	0.959696	0	0	4.625000e+01
328.878296	1.279650	city	8	1	0.940215	0.940215	0	1	0	0	CorrectCommission	0.657276	0.926139	0	0	4.612500e+01
330.157928	1.279573	city	4	1	0.805151	0.805151	0	1	0	0	CorrectCommission	1.169044	0.893091	0	0	46
331.437439	1.279465	city	8	1	0.645273	0.645273	0	1	0	0	CorrectCommission	1.774829	0.859235	0	0	4.587500e+01
332.717010	1.279693	city	5	1	1.471439	1.471439	0	1	0	0	CorrectCommission	1.355568	0.823545	0	0	4.575000e+01
333.996613	1.279494	city	7	1	1.378733	1.378733	0	1	0	0	CorrectCommission	1.004299	0.785561	0	0	4.562500e+01
335.282867	1.293015	city	4	1	1.223562	1.223562	0	1	0	0	CorrectCommission	0.416346	0.745427	0	0	4.550000e+01
336.569183	1.279586	city	8	1	1.017718	1.017718	0	1	0	0	CorrectCommission	0.363611	0.703884	1	0	4.537500e+01
337.848724	1.279554	mountain	5	0	0.000000	1.109029	1	0	0	0	CorrectOmission	0.017628	0.662108	1	0	4.525000e+01
339.128235	1.279428	city	1	1	1.298909	1.298909	0	1	0	0	CorrectCommission	0.701841	0.621534	1	0	4.512500e+01
340.407806	1.279730	city	5	1	1.388774	1.388774	0	1	0	0	CorrectCommission	1.042342	0.583619	1	0	45
341.687378	1.279413	city	4	1	1.285499	1.285499	0	1	0	0	CorrectCommission	0.651029	0.549694	1	0	4.487500e+01
342.966949	1.279741	city	5	1	1.177568	1.177568	0	1	0	0	CorrectCommission	0.242068	0.520791	1	0	4.475000e+01
344.246552	1.279447	city	6	1	1.231395	1.231395	0	1	0	0	CorrectCommission	0.446026	0.497552	1	0	4.462500e+01
345.526123	1.279710	city	8	1	1.148982	1.148982	0	1	0	0	CorrectCommission	0.133756	0.480123	1	0	4.450000e+01
346.812408	1.292827	city	5	1	1.028524	1.028524	0	1	0	0	CorrectCommission	0.322669	0.468171	1	0	4.437500e+01
348.098633	1.279651	city	10	1	1.103200	1.103200	0	1	0	0	CorrectCommission	0.039714	0.460889	1	0	4.425000e+01
349.378265	1.279602	city	3	1	1.000167	1.000167	0	1	0	0	CorrectCommission	0.430113	0.457100	1	0	4.412500e+01
353.763489	7.490877	break	0	1	0.922413	0.922413	0	0	0	0	ThoughtProbe	0.724728	0.455386	1	44	44
358.148712	1.279559	city	6	1	1.246705	1.246705	0	1	0	0	CorrectCommission	0.504035	0.454265	1	0	4.397059e+01
359.428314	1.279602	city	5	1	1.239724	1.239724	0	1	0	0	CorrectCommission	0.477584	0.452399	1	0	4.394118e+01
360.707886	1.279556	city	10	1	1.229370	1.229370	0	1	0	0	CorrectCommission	0.438352	0.448718	1	0	4.391176e+01
361.987366	1.279444	city	5	1	1.443568	1.443568	0	1	0	0	CorrectCommission	1.249962	0.442565	1	0	4.388235e+01
363.266968	1.279731	city	1	1	1.248903	1.248903	0	1	0	0	CorrectCommission	0.512364	0.433733	1	0	4.385294e+01
364.553223	1.292775	city	5	1	1.084008	1.084008	0	1	0	0	CorrectCommission	0.112436	0.422521	1	0	4.382353e+01
365.839447	1.279694	mountain	3	0	0.000000	1.082423	1	0	0	0	CorrectOmission	0.118440	0.409580	1	0	4.379412e+01
367.119080	1.279586	city	2	1	1.177488	1.177488	0	1	0	0	CorrectCommission	0.241766	0.395839	1	0	4.376471e+01
368.398682	1.279591	city	7	1	1.302539	1.302539	0	1	0	0	CorrectCommission	0.715592	0.382362	1	0	4.373529e+01
369.678223	1.279467	city	5	1	1.283911	1.283911	0	1	0	0	CorrectCommission	0.645009	0.370233	1	0	4.370588e+01
370.957794	1.279679	city	1	1	1.141383	1.141383	0	1	0	0	CorrectCommission	0.104961	0.360428	1	0	4.367647e+01
372.237427	1.279582	city	6	1	1.068535	1.068535	0	1	0	0	CorrectCommission	0.171064	0.353742	1	0	4.364706e+01
373.523621	1.292822	city	5	1	1.124027	1.124027	0	1	0	0	CorrectCommission	0.039201	0.350733	1	0	4.361765e+01
374.809784	1.279492	city	3	1	1.015685	1.015685	0	1	0	0	CorrectCommission	0.371314	0.351735	1	0	4.358824e+01
376.089325	1.279638	city	6	1	1.146520	1.146520	0	1	0	0	CorrectCommission	0.124428	0.356955	1	0	4.355882e+01
377.369019	1.279700	city	2	1	1.088662	1.088662	0	1	0	0	CorrectCommission	0.094801	0.366590	1	0	4.352941e+01
378.648651	1.279580	city	10	1	0.973040	0.973040	0	1	0	0	CorrectCommission	0.532901	0.380874	1	0	4.350000e+01
379.928131	1.279418	mountain	10	0	0.000000	0.884923	1	0	0	0	CorrectOmission	0.866783	0.400217	1	0	4.347059e+01
381.207733	1.279733	city	2	1	0.911124	0.911124	0	1	0	0	CorrectCommission	0.767504	0.425217	1	0	4.344118e+01
382.487366	1.279537	city	1	1	1.138457	1.138457	0	1	0	0	CorrectCommission	0.093875	0.456626	1	0	4.341176e+01
383.766876	1.279499	city	8	1	1.230919	1.230919	0	1	0	0	CorrectCommission	0.444219	0.495180	1	0	4.338235e+01
385.046478	1.279711	city	6	1	1.124158	1.124158	0	1	0	0	CorrectCommission	0.039697	0.541343	1	0	4.335294e+01
386.326050	1.279423	city	9	1	1.142377	1.142377	0	1	0	0	CorrectCommission	0.108729	0.595088	1	0	4.332353e+01
387.612274	1.293051	city	1	1	1.138422	1.138422	0	1	0	0	CorrectCommission	0.093745	0.655622	1	0	4.329412e+01
388.905182	1.292767	city	4	1	1.510678	1.510678	0	1	0	0	CorrectCommission	1.504245	0.721218	1	0	4.326471e+01
390.191437	1.279733	city	1	1	1.249808	1.249808	0	1	0	0	CorrectCommission	0.515793	0.789122	0	0	4.323529e+01
391.471100	1.279562	city	3	1	1.015225	1.015225	0	1	0	0	CorrectCommission	0.373059	0.855761	0	0	4.320588e+01
392.750580	1.279426	city	10	1	1.017662	1.017662	0	1	0	0	CorrectCommission	0.363823	0.916912	0	0	4.317647e+01
394.030151	1.279730	city	2	1	0.695304	0.695304	0	1	0	0	CorrectCommission	1.585260	0.968134	0	0	4.314706e+01
395.309784	1.279515	city	9	1	1.605774	1.605774	0	1	0	0	CorrectCommission	1.864572	1.005288	0	0	4.311765e+01
396.589294	1.279520	city	3	1	1.495255	1.495255	0	1	0	0	CorrectCommission	1.445806	1.025065	0	0	4.308824e+01
397.875488	1.292868	city	6	1	1.617232	1.617232	0	1	0	0	CorrectCommission	1.907984	1.025479	0	0	4.305882e+01
399.161804	1.279743	city	1	1	1.337985	1.337985	0	1	0	0	CorrectCommission	0.849902	1.006245	0	0	4.302941e+01
403.020569	6.437769	break	0	0	0.000000	1.648843	0	0	0	0	ThoughtProbe	2.027762	0.968947	0	43	43
406.879303	1.279705	city	3	1	1.820627	1.820627	0	1	0	0	CorrectCommission	2.678665	0.916898	0	0	43
408.158936	1.279580	city	4	1	1.124161	1.124161	0	1	0	0	CorrectCommission	0.039708	0.854876	0	0	43
409.438507	1.279581	city	2	1	1.071622	1.071622	0	1	0	0	CorrectCommission	0.159367	0.788648	0	0	43
410.718048	1.279468	city	6	1	1.099379	1.099379	0	1	0	0	CorrectCommission	0.054193	0.724223	1	0	43
411.997559	1.279564	city	7	1	1.017350	1.017350	0	1	0	0	CorrectCommission	0.365008	0.667266	1	0	43
413.283783	1.292911	city	4	1	1.039033	1.039033	0	1	0	0	CorrectCommission	0.282847	0.622475	1	0	43
414.570099	1.279688	mountain	5	0	0.000000	1.113560	1	0	0	0	CorrectOmission	0.000459	0.593182	1	0	43
415.849670	1.279474	city	5	1	1.140255	1.140255	0	1	0	0	CorrectCommission	0.100688	0.581145	1	0	43
417.129211	1.279576	city	6	1	1.018440	1.018440	0	1	0	0	CorrectCommission	0.360876	0.586514	1	0	43
418.415497	1.293016	city	4	1	1.042708	1.042708	0	1	0	0	CorrectCommission	0.268925	0.607981	1	0	43
419.701721	1.279448	city	3	1	1.017371	1.017371	0	1	0	0	CorrectCommission	0.364926	0.643134	1	0	43
420.981232	1.279580	city	5	1	0.805203	0.805203	0	1	0	0	CorrectCommission	1.168844	0.688814	1	0	43
422.260803	1.279558	city	8	1	1.022018	1.022018	0	1	0	0	CorrectCommission	0.347319	0.741527	1	0	43
423.540375	1.279583	city	1	1	1.018259	1.018259	0	1	0	0	CorrectCommission	0.361561	0.797867	0	0	43
424.826630	1.292889	city	5	1	1.733996	1.733996	0	1	0	0	CorrectCommission	2.350413	0.854758	0	0	43
426.112885	1.279660	city	3	1	1.497594	1.497594	0	1	0	0	CorrectCommission	1.454669	0.909581	0	0	43
427.392487	1.279514	mountain	3	0	0.000000	1.125158	1	0	0	0	CorrectOmission	0.043485	0.960327	0	0	43
428.672058	1.279644	city	8	1	0.832034	0.832034	0	1	0	0	CorrectCommission	1.067182	1.005515	0	0	43
429.951721	1.279680	city	2	1	0.833566	0.833566	0	1	0	0	CorrectCommission	1.061376	1.044062	0	0	43
431.231354	1.279583	city	5	1	0.937214	0.937214	0	1	0	0	CorrectCommission	0.668646	1.075207	0	0	43
432.510895	1.279486	city	10	1	0.658336	0.658336	0	1	0	0	CorrectCommission	1.725334	1.098468	0	0	43
433.790466	1.279655	city	6	1	0.765181	0.765181	0	1	0	0	CorrectCommission	1.320490	1.113519	0	0	43
435.070007	1.279446	city	7	1	0.779679	0.779679	0	1	0	0	CorrectCommission	1.265557	1.120248	0	0	43
436.349609	1.279741	city	8	1	1.604797	1.604797	0	1	0	0	CorrectCommission	1.860870	1.118837	0	0	43
437.629272	1.279575	city	5	1	1.388365	1.388365	0	1	0	0	CorrectCommission	1.040792	1.109769	0	0	43
438.908813	1.279557	city	7	1	1.017560	1.017560	0	1	0	0	CorrectCommission	0.364209	1.093947	0	0	43
440.188385	1.279596	city	3	1	0.858474	0.858474	0	1	0	0	CorrectCommission	0.966998	1.072732	0	0	43
441.467896	1.279414	city	7	1	1.708117	1.708117	0	1	0	0	CorrectCommission	2.252357	1.047950	0	0	43
442.747406	1.279605	city	10	1	1.338376	1.338376	0	1	0	0	CorrectCommission	0.851383	1.021861	0	0	43
444.026978	1.279540	city	6	1	1.417110	1.417110	0	1	0	0	CorrectCommission	1.149711	0.997095	0	0	43
445.326630	1.319724	city	9	1	1.098378	1.098378	0	1	0	0	CorrectCommission	0.057985	0.976389	0	0	43
446.626190	1.279435	city	7	1	0.781955	0.781955	0	1	0	0	CorrectCommission	1.256933	0.962430	0	0	43
447.925781	1.319727	city	1	1	1.351811	1.351811	0	1	0	0	CorrectCommission	0.902287	0.957475	0	0	43
451.211365	5.251448	break	0	0	0.000000	1.403467	0	0	0	0	ThoughtProbe	1.098015	0.963089	0	43	43
454.483612	1.293070	city	6	1	1.198275	1.198275	0	1	0	0	CorrectCommission	0.320530	0.979895	0	0	4.297500e+01
455.776611	1.292914	city	8	1	0.997587	0.997587	0	1	0	0	CorrectCommission	0.439889	1.007394	0	0	4.295000e+01
457.069519	1.292904	city	4	1	1.035560	1.035560	0	1	0	0	CorrectCommission	0.296007	1.043889	0	0	4.292500e+01
458.382446	1.332933	city	7	1	0.949239	0.949239	0	1	0	0	CorrectCommission	0.623082	1.086647	0	0	4.290000e+01
459.695343	1.292847	city	9	1	0.943765	0.943765	0	1	0	0	CorrectCommission	0.643826	1.132205	0	0	4.287500e+01
460.994873	1.306238	city	6	1	0.652041	0.652041	0	1	0	0	CorrectCommission	1.749186	1.176805	0	0	4.285000e+01
462.294464	1.292935	city	8	1	0.503082	0.503082	0	1	0	0	CorrectCommission	2.313601	1.216852	0	0	4.282500e+01
463.580719	1.279563	city	7	1	1.727031	1.727031	0	1	0	0	CorrectCommission	2.324023	1.249439	0	0	4.280000e+01
464.866943	1.292919	mountain	2	1	1.739922	1.739922	0	0	1	0	CommissionError	2.372866	1.272663	0	0	4.277500e+01
466.153229	1.279614	mountain	6	0	0.000000	1.494108	1	0	0	0	CorrectOmission	1.441460	1.285783	0	0	4.275000e+01
467.446106	1.306155	city	10	1	1.194933	1.194933	0	1	0	0	CorrectCommission	0.307868	1.289236	0	0	4.272500e+01
468.752319	1.306275	city	5	1	1.047743	1.047743	0	1	0	0	CorrectCommission	0.249846	1.284440	0	0	4.270000e+01
470.071808	1.332712	city	10	1	0.811002	0.811002	0	1	0	0	CorrectCommission	1.146873	1.273512	0	0	4.267500e+01
471.377960	1.279589	city	1	1	1.678410	1.678410	0	1	0	0	CorrectCommission	2.139792	1.258977	0	0	4.265000e+01
472.664246	1.292975	city	5	1	1.486464	1.486464	0	1	0	0	CorrectCommission	1.412499	1.243454	0	0	4.262500e+01
473.977234	1.332989	city	8	1	0.852333	0.852333	0	1	0	0	CorrectCommission	0.990267	1.229398	0	0	4.260000e+01
475.316833	1.346213	mountain	8	1	0.589202	0.589202	0	0	1	0	CommissionError	1.987287	1.218872	0	0	4.257500e+01
476.643066	1.306264	city	7	1	1.488975	1.488975	0	1	0	0	CorrectCommission	1.422014	1.213260	0	0	4.255000e+01
477.949249	1.306108	city	10	1	1.093011	1.093011	0	1	0	0	CorrectCommission	0.078321	1.213178	0	0	4.252500e+01
479.242065	1.279526	city	6	1	1.284410	1.284410	0	1	0	0	CorrectCommission	0.646903	1.218297	0	0	4.250000e+01
480.541656	1.319650	city	5	1	1.042462	1.042462	0	1	0	0	CorrectCommission	0.269856	1.227306	0	0	4.247500e+01
481.841309	1.279656	city	1	1	0.646714	0.646714	0	1	0	0	CorrectCommission	1.769371	1.238072	0	0	4.245000e+01
483.140869	1.319488	city	5	1	0.833061	0.833061	0	1	0	0	CorrectCommission	1.063289	1.247862	0	0	4.242500e+01
484.460419	1.319585	city	3	1	0.850247	0.850247	0	1	0	0	CorrectCommission	0.998173	1.253814	0	0	4.240000e+01
485.773285	1.306130	city	8	1	1.713076	1.713076	0	1	0	0	CorrectCommission	2.271147	1.253357	0	0	4.237500e+01
487.092865	1.333063	city	3	1	1.623961	1.623961	0	1	0	0	CorrectCommission	1.933484	1.244656	0	0	4.235000e+01
488.412537	1.306231	city	2	1	1.725655	1.725655	0	1	0	0	CorrectCommission	2.318810	1.227019	0	0	4.232500e+01
489.718689	1.306084	city	1	1	1.707971	1.707971	0	1	0	0	CorrectCommission	2.251804	1.201017	0	0	4.230000e+01
491.024872	1.306314	city	9	1	1.256568	1.256568	0	1	0	0	CorrectCommission	0.541406	1.168482	0	0	4.227500e+01
492.331116	1.306180	city	7	1	1.093523	1.093523	0	1	0	0	CorrectCommission	0.076382	1.132302	0	0	4.225000e+01
493.623993	1.279582	city	3	1	1.017625	1.017625	0	1	0	0	CorrectCommission	0.363963	1.096002	0	0	4.222500e+01
494.916992	1.306396	city	8	1	0.939013	0.939013	0	1	0	0	CorrectCommission	0.661832	1.063324	0	0	4.220000e+01
496.216675	1.292937	city	3	1	0.697414	0.697414	0	1	0	0	CorrectCommission	1.577267	1.037794	0	0	4.217500e+01
497.510010	1.293777	city	8	1	1.524970	1.524970	0	1	0	0	CorrectCommission	1.558399	1.022327	0	0	4.215000e+01
498.802856	1.291927	city	10	1	1.384370	1.384370	0	1	0	0	CorrectCommission	1.025655	1.018934	0	0	4.212500e+01
500.115295	1.332918	city	5	1	1.288129	1.288129	0	1	0	0	CorrectCommission	0.660993	1.028460	0	0	4.210000e+01
501.454895	1.346280	city	3	1	1.088318	1.088318	0	1	0	0	CorrectCommission	0.096104	1.050498	0	0	4.207500e+01
502.781067	1.306051	city	10	1	1.088837	1.088837	0	1	0	0	CorrectCommission	0.094137	1.083361	0	0	4.205000e+01
504.080627	1.293076	city	7	1	1.030407	1.030407	0	1	0	0	CorrectCommission	0.315533	1.124170	0	0	4.202500e+01
506.866486	4.278624	break	0	0	0.805112	0.805112	0	0	0	0	ThoughtProbe	1.169192	1.169192	0	42	42
