onset	duration	trial_type	image_type	Press	ReactionTime	ReactionTime_Interpolated	CorrectOmission	CorrectCommission	CommissionError	OmissionError	response_type	nonsmoothVarianceTimeCourse	VarianceTimeCourse	In_the_Zone	ThoughtProbe	ThoughtProbe_Interpolated
0.652954	1.279455	city	1	1	1.231887	1.231887	0	1	0	0	CorrectCommission	0.425219	0.425219	1	0	77
1.932478	1.279593	city	2	1	1.183125	1.183125	0	1	0	0	CorrectCommission	0.165828	0.451427	1	0	77
3.212095	1.279640	city	9	1	1.146710	1.146710	0	1	0	0	CorrectCommission	0.027878	0.476233	1	0	77
4.498400	1.292969	city	10	1	1.097358	1.097358	0	1	0	0	CorrectCommission	0.290404	0.498333	1	0	77
5.784672	1.279576	city	8	1	1.018546	1.018546	0	1	0	0	CorrectCommission	0.709647	0.516614	1	0	77
7.064220	1.279520	city	3	1	1.025853	1.025853	0	1	0	0	CorrectCommission	0.670776	0.530252	1	0	77
8.343736	1.279511	mountain	9	1	0.875240	0.875240	0	0	1	0	CommissionError	1.471957	0.538842	1	0	77
9.636657	1.306331	city	4	1	1.274262	1.274262	0	1	0	0	CorrectCommission	0.650632	0.542490	1	0	77
10.929632	1.279620	city	5	1	0.982305	0.982305	0	1	0	0	CorrectCommission	0.902430	0.541880	1	0	77
12.209346	1.279807	city	3	1	1.070900	1.070900	0	1	0	0	CorrectCommission	0.431150	0.538176	1	0	77
13.488917	1.279335	city	10	1	1.151981	1.151981	0	1	0	0	CorrectCommission	0.000161	0.532976	1	0	77
14.768389	1.279608	city	8	1	1.095262	1.095262	0	1	0	0	CorrectCommission	0.301555	0.528139	1	0	77
16.047979	1.279572	mountain	5	0	0.000000	1.050665	1	0	0	0	CorrectOmission	0.538790	0.525541	1	0	77
17.327467	1.279403	city	5	1	1.037265	1.037265	0	1	0	0	CorrectCommission	0.610068	0.526924	1	0	77
18.607010	1.279686	mountain	7	1	1.074141	1.074141	0	0	1	0	CommissionError	0.413910	0.533677	1	0	77
19.886709	1.279713	city	3	1	1.296874	1.296874	0	1	0	0	CorrectCommission	0.770913	0.546677	1	0	77
21.166286	1.279441	city	1	1	1.201404	1.201404	0	1	0	0	CorrectCommission	0.263062	0.566173	1	0	77
22.452503	1.292994	city	7	1	1.140545	1.140545	0	1	0	0	CorrectCommission	0.060672	0.591711	1	0	77
23.738785	1.279568	city	4	1	1.177658	1.177658	0	1	0	0	CorrectCommission	0.136747	0.622132	1	0	77
25.018364	1.279590	city	6	1	0.969772	0.969772	0	1	0	0	CorrectCommission	0.969096	0.655657	1	0	77
26.297909	1.279499	city	2	1	1.042806	1.042806	0	1	0	0	CorrectCommission	0.580592	0.690035	1	0	77
27.584152	1.292991	city	4	1	1.084603	1.084603	0	1	0	0	CorrectCommission	0.358255	0.722798	1	0	77
28.870424	1.279552	city	1	1	0.965021	0.965021	0	1	0	0	CorrectCommission	0.994368	0.751536	0	0	77
30.149982	1.279565	city	10	1	1.556506	1.556506	0	1	0	0	CorrectCommission	2.152021	0.774152	0	0	77
31.429495	1.279458	city	6	1	1.390863	1.390863	0	1	0	0	CorrectCommission	1.270885	0.789055	0	0	77
32.715755	1.293068	city	4	1	1.191702	1.191702	0	1	0	0	CorrectCommission	0.211453	0.795410	0	0	77
34.001991	1.279400	mountain	3	0	0.000000	1.287873	1	0	0	0	CorrectOmission	0.723035	0.793157	0	0	77
35.281506	1.279629	city	5	1	1.395408	1.395408	0	1	0	0	CorrectCommission	1.295063	0.782993	0	0	77
36.561161	1.279684	city	4	1	1.230337	1.230337	0	1	0	0	CorrectCommission	0.416974	0.766294	0	0	77
37.840797	1.279589	city	1	1	1.035487	1.035487	0	1	0	0	CorrectCommission	0.619526	0.745052	0	0	77
39.120296	1.279408	city	9	1	0.867794	0.867794	0	1	0	0	CorrectCommission	1.511567	0.721640	1	0	77
40.399872	1.279742	city	7	1	1.046625	1.046625	0	1	0	0	CorrectCommission	0.560280	0.698659	1	0	77
41.686211	1.292933	city	4	1	1.000152	1.000152	0	1	0	0	CorrectCommission	0.807493	0.678791	1	0	77
42.972466	1.279576	city	10	1	1.132404	1.132404	0	1	0	0	CorrectCommission	0.103979	0.664510	1	0	77
44.251972	1.279442	city	9	1	1.121457	1.121457	0	1	0	0	CorrectCommission	0.162211	0.657911	1	0	77
45.531551	1.279709	city	1	1	1.260675	1.260675	0	1	0	0	CorrectCommission	0.578353	0.660478	1	0	77
46.817852	1.292898	city	9	1	1.239897	1.239897	0	1	0	0	CorrectCommission	0.467825	0.672899	1	0	77
48.117344	1.306083	city	4	1	1.204264	1.204264	0	1	0	0	CorrectCommission	0.278278	0.694970	1	0	77
49.410255	1.279742	city	1	1	1.306015	1.306015	0	1	0	0	CorrectCommission	0.819538	0.725540	0	0	77
50.689880	1.279505	city	4	1	1.309554	1.309554	0	1	0	0	CorrectCommission	0.838367	0.762523	0	0	77
51.976116	1.292966	city	9	1	1.157625	1.157625	0	1	0	0	CorrectCommission	0.030184	0.803071	0	0	77
53.262318	1.279438	city	3	1	1.352982	1.352982	0	1	0	0	CorrectCommission	1.069379	0.843766	0	0	77
54.541832	1.279588	city	1	1	1.495058	1.495058	0	1	0	0	CorrectCommission	1.825152	0.880884	0	0	77
55.828075	1.292904	city	5	1	1.142970	1.142970	0	1	0	0	CorrectCommission	0.047776	0.910805	0	0	77
57.114395	1.279735	city	4	1	1.294514	1.294514	0	1	0	0	CorrectCommission	0.758362	0.930428	0	0	77
57.754265	11.209616	break	0	0	0.000000	1.453294	0	0	0	0	ThoughtProbe	1.602985	0.937439	0	77	77
69.603607	1.279447	city	9	1	1.555550	1.555550	0	1	0	0	CorrectCommission	2.146936	0.930684	0	0	7.741176e+01
70.883133	1.279608	city	5	1	1.537526	1.537526	0	1	0	0	CorrectCommission	2.051056	0.910334	0	0	7.782353e+01
72.169434	1.292990	city	1	1	1.410060	1.410060	0	1	0	0	CorrectCommission	1.373006	0.877858	0	0	7.823529e+01
73.455688	1.279523	city	5	1	1.241290	1.241290	0	1	0	0	CorrectCommission	0.475237	0.835858	0	0	7.864706e+01
74.735275	1.279659	city	3	1	1.185898	1.185898	0	1	0	0	CorrectCommission	0.180580	0.787732	0	0	7.905882e+01
76.014900	1.279585	city	5	1	1.195086	1.195086	0	1	0	0	CorrectCommission	0.229458	0.737229	0	0	7.947059e+01
77.301155	1.292930	city	7	1	1.080847	1.080847	0	1	0	0	CorrectCommission	0.378237	0.687986	1	0	7.988235e+01
78.587372	1.279502	mountain	2	0	0.000000	1.211851	1	0	0	0	CorrectOmission	0.318634	0.643187	1	0	8.029412e+01
79.866951	1.279659	city	1	1	1.336001	1.336001	0	1	0	0	CorrectCommission	0.979051	0.605288	1	0	8.070588e+01
81.146568	1.279576	city	8	1	1.201202	1.201202	0	1	0	0	CorrectCommission	0.261992	0.575883	1	0	8.111765e+01
82.432808	1.292894	mountain	7	1	1.054403	1.054403	0	0	1	0	CommissionError	0.518904	0.555718	1	0	8.152941e+01
83.739037	1.319561	city	2	1	1.236374	1.236374	0	1	0	0	CorrectCommission	0.449085	0.544734	1	0	8.194118e+01
85.038605	1.279578	city	4	1	1.155396	1.155396	0	1	0	0	CorrectCommission	0.018325	0.542268	1	0	8.235294e+01
86.318184	1.279580	city	8	1	1.018361	1.018361	0	1	0	0	CorrectCommission	0.710630	0.547229	1	0	8.276471e+01
87.611107	1.306263	city	7	1	1.047363	1.047363	0	1	0	0	CorrectCommission	0.556351	0.558252	1	0	8.317647e+01
88.910606	1.292735	city	1	1	1.196329	1.196329	0	1	0	0	CorrectCommission	0.236066	0.573902	1	0	8.358824e+01
90.196793	1.279642	city	6	1	1.302719	1.302719	0	1	0	0	CorrectCommission	0.802005	0.592819	1	0	84
91.476448	1.279664	city	2	1	1.023544	1.023544	0	1	0	0	CorrectCommission	0.683056	0.613734	1	0	8.441176e+01
92.756027	1.279507	city	5	1	0.979653	0.979653	0	1	0	0	CorrectCommission	0.916535	0.635545	1	0	8.482353e+01
94.035622	1.279670	city	3	1	0.983150	0.983150	0	1	0	0	CorrectCommission	0.897934	0.657318	1	0	8.523529e+01
95.315239	1.279576	city	2	1	1.082261	1.082261	0	1	0	0	CorrectCommission	0.370712	0.678226	1	0	8.564706e+01
96.594810	1.279568	city	9	1	1.137166	1.137166	0	1	0	0	CorrectCommission	0.078647	0.697539	1	0	8.605882e+01
97.880974	1.292758	city	2	1	1.335659	1.335659	0	1	0	0	CorrectCommission	0.977231	0.714536	1	0	8.647059e+01
99.200539	1.346367	city	7	1	1.357075	1.357075	0	1	0	0	CorrectCommission	1.091150	0.728505	0	0	8.688235e+01
100.520187	1.292929	city	10	1	1.362908	1.362908	0	1	0	0	CorrectCommission	1.122183	0.738819	0	0	8.729412e+01
101.806358	1.279410	city	2	1	1.245934	1.245934	0	1	0	0	CorrectCommission	0.499940	0.744999	0	0	8.770588e+01
103.085938	1.279756	city	6	1	1.124933	1.124933	0	1	0	0	CorrectCommission	0.143719	0.746780	0	0	8.811765e+01
104.365593	1.279549	city	9	1	0.964812	0.964812	0	1	0	0	CorrectCommission	0.995480	0.744205	0	0	8.852941e+01
105.651794	1.292863	city	6	1	0.850146	0.850146	0	1	0	0	CorrectCommission	1.605445	0.737672	0	0	8.894118e+01
106.938049	1.279633	city	3	1	0.921390	0.921390	0	1	0	0	CorrectCommission	1.226462	0.727972	0	0	8.935294e+01
108.224236	1.292748	city	7	1	1.055315	1.055315	0	1	0	0	CorrectCommission	0.514051	0.716201	1	0	8.976471e+01
109.517067	1.292911	city	8	1	1.027791	1.027791	0	1	0	0	CorrectCommission	0.660466	0.703682	1	0	9.017647e+01
110.816727	1.306408	city	9	1	1.123390	1.123390	0	1	0	0	CorrectCommission	0.151930	0.691736	1	0	9.058824e+01
111.469933	8.890329	break	0	0	0.000000	1.074916	0	0	0	0	ThoughtProbe	0.409784	0.681535	1	91	91
121.000084	1.279657	city	9	1	1.085564	1.085564	0	1	0	0	CorrectCommission	0.353141	0.673912	1	0	9.095000e+01
122.286362	1.292887	city	2	1	1.358528	1.358528	0	1	0	0	CorrectCommission	1.098882	0.669260	1	0	9.090000e+01
123.572601	1.279603	city	4	1	1.251099	1.251099	0	1	0	0	CorrectCommission	0.527418	0.667466	1	0	9.085000e+01
124.878761	1.332718	city	6	1	1.052757	1.052757	0	1	0	0	CorrectCommission	0.527662	0.667992	1	0	9.080000e+01
126.184998	1.279753	city	4	1	1.087127	1.087127	0	1	0	0	CorrectCommission	0.344829	0.669939	1	0	9.075000e+01
127.471298	1.292845	city	8	1	1.089474	1.089474	0	1	0	0	CorrectCommission	0.332345	0.672247	1	0	9.070000e+01
128.757462	1.279466	city	9	1	1.517023	1.517023	0	1	0	0	CorrectCommission	1.941989	0.673816	1	0	9.065000e+01
130.037018	1.279664	city	5	1	1.341189	1.341189	0	1	0	0	CorrectCommission	1.006645	0.673670	1	0	9.060000e+01
131.323334	1.292977	city	8	1	1.106556	1.106556	0	1	0	0	CorrectCommission	0.241477	0.671135	1	0	9.055000e+01
132.609619	1.279583	mountain	10	0	0.000000	1.220576	1	0	0	0	CorrectOmission	0.365051	0.665833	1	0	9.050000e+01
133.889160	1.279506	city	5	1	1.357648	1.357648	0	1	0	0	CorrectCommission	1.094202	0.657710	1	0	9.045000e+01
135.168732	1.279633	city	6	1	1.192171	1.192171	0	1	0	0	CorrectCommission	0.213948	0.647044	1	0	9.040000e+01
136.448318	1.279526	city	1	1	1.199549	1.199549	0	1	0	0	CorrectCommission	0.253196	0.634448	1	0	9.035000e+01
137.734497	1.292844	mountain	4	0	0.000000	1.373062	1	0	0	0	CorrectOmission	1.176194	0.620768	1	0	9.030000e+01
139.020767	1.279687	city	1	1	1.442726	1.442726	0	1	0	0	CorrectCommission	1.546769	0.607051	1	0	9.025000e+01
140.300415	1.279623	city	7	1	1.138557	1.138557	0	1	0	0	CorrectCommission	0.071250	0.594457	1	0	9.020000e+01
141.580017	1.279586	city	9	1	1.045343	1.045343	0	1	0	0	CorrectCommission	0.567097	0.584197	1	0	9.015000e+01
142.872940	1.306245	city	5	1	1.171943	1.171943	0	1	0	0	CorrectCommission	0.106346	0.577327	1	0	9.010000e+01
144.179077	1.306040	city	2	1	1.200082	1.200082	0	1	0	0	CorrectCommission	0.256032	0.574688	1	0	9.005000e+01
145.471939	1.279664	city	7	1	1.199049	1.199049	0	1	0	0	CorrectCommission	0.250536	0.576731	1	0	90
146.751587	1.279658	city	1	1	0.977473	0.977473	0	1	0	0	CorrectCommission	0.928132	0.583453	1	0	8.995000e+01
148.031143	1.279431	city	4	1	1.326064	1.326064	0	1	0	0	CorrectCommission	0.926190	0.594334	1	0	8.990000e+01
149.317398	1.293077	city	3	1	1.191302	1.191302	0	1	0	0	CorrectCommission	0.209325	0.608398	1	0	8.985000e+01
150.610291	1.292734	city	4	1	1.125215	1.125215	0	1	0	0	CorrectCommission	0.142219	0.624268	1	0	8.980000e+01
151.903122	1.292917	city	5	1	0.986507	0.986507	0	1	0	0	CorrectCommission	0.880073	0.640323	1	0	8.975000e+01
153.189423	1.279691	mountain	4	0	0.000000	1.174109	1	0	0	0	CorrectOmission	0.117871	0.654879	1	0	8.970000e+01
154.475708	1.292876	city	1	1	1.416652	1.416652	0	1	0	0	CorrectCommission	1.408070	0.666435	1	0	8.965000e+01
155.775314	1.306326	city	6	1	1.442765	1.442765	0	1	0	0	CorrectCommission	1.546980	0.673813	1	0	8.960000e+01
157.088257	1.319555	city	7	1	1.118128	1.118128	0	1	0	0	CorrectCommission	0.179918	0.676372	1	0	8.955000e+01
158.401154	1.306247	city	4	1	1.039581	1.039581	0	1	0	0	CorrectCommission	0.597751	0.674203	1	0	8.950000e+01
159.720718	1.332895	city	5	1	0.900157	0.900157	0	1	0	0	CorrectCommission	1.339412	0.668037	1	0	8.945000e+01
161.026947	1.279557	city	7	1	0.921343	0.921343	0	1	0	0	CorrectCommission	1.226715	0.659246	1	0	8.940000e+01
162.313187	1.292920	city	3	1	1.152187	1.152187	0	1	0	0	CorrectCommission	0.001258	0.649663	1	0	8.935000e+01
163.619415	1.319549	city	7	1	1.197725	1.197725	0	1	0	0	CorrectCommission	0.243495	0.641394	1	0	8.930000e+01
164.918915	1.279442	city	5	1	1.129067	1.129067	0	1	0	0	CorrectCommission	0.121731	0.636496	1	0	8.925000e+01
166.198425	1.279578	city	10	1	0.986023	0.986023	0	1	0	0	CorrectCommission	0.882649	0.636739	1	0	8.920000e+01
167.484695	1.292947	city	9	1	1.268100	1.268100	0	1	0	0	CorrectCommission	0.617852	0.643339	1	0	8.915000e+01
168.770935	1.279533	city	7	1	1.300764	1.300764	0	1	0	0	CorrectCommission	0.791605	0.656823	1	0	8.910000e+01
170.057236	1.293069	city	10	1	1.257229	1.257229	0	1	0	0	CorrectCommission	0.560024	0.676836	1	0	8.905000e+01
170.703766	10.316615	break	0	0	0.000000	1.200127	0	0	0	0	ThoughtProbe	0.256271	0.702167	1	89	89
181.666809	1.292856	city	6	1	1.193234	1.193234	0	1	0	0	CorrectCommission	0.219604	0.730774	0	0	8.873913e+01
182.952972	1.279468	city	5	1	1.300326	1.300326	0	1	0	0	CorrectCommission	0.789277	0.759993	0	0	8.847826e+01
184.252563	1.319709	city	4	1	1.115695	1.115695	0	1	0	0	CorrectCommission	0.192861	0.786794	0	0	8.821739e+01
185.552216	1.279596	mountain	2	0	0.000000	1.313797	1	0	0	0	CorrectOmission	0.860935	0.808211	0	0	8.795652e+01
186.831802	1.279581	city	6	1	1.563573	1.563573	0	1	0	0	CorrectCommission	2.189613	0.821706	0	0	8.769565e+01
188.118042	1.292906	mountain	6	0	0.000000	1.533966	1	0	0	0	CorrectOmission	2.032121	0.825548	0	0	8.743478e+01
189.410934	1.292886	city	4	1	1.346861	1.346861	0	1	0	0	CorrectCommission	1.036820	0.819080	0	0	8.717391e+01
190.730499	1.346224	city	6	1	1.124143	1.124143	0	1	0	0	CorrectCommission	0.147926	0.802822	0	0	8.691304e+01
192.056732	1.306257	city	9	1	0.820819	0.820819	0	1	0	0	CorrectCommission	1.761447	0.778351	0	0	8.665217e+01
193.356323	1.292907	city	2	1	1.117477	1.117477	0	1	0	0	CorrectCommission	0.183385	0.748005	0	0	8.639130e+01
194.642548	1.279560	city	9	1	1.306200	1.306200	0	1	0	0	CorrectCommission	0.820526	0.714649	1	0	8.613043e+01
195.942108	1.319555	city	3	1	1.220966	1.220966	0	1	0	0	CorrectCommission	0.367124	0.681141	1	0	8.586957e+01
197.241638	1.279503	city	8	1	1.129715	1.129715	0	1	0	0	CorrectCommission	0.118284	0.650016	1	0	8.560870e+01
198.521225	1.279684	city	7	1	1.130322	1.130322	0	1	0	0	CorrectCommission	0.115053	0.623230	1	0	8.534783e+01
199.807526	1.292892	city	1	1	1.269871	1.269871	0	1	0	0	CorrectCommission	0.627275	0.602030	1	0	8.508696e+01
201.093765	1.279613	mountain	10	0	0.000000	1.305873	1	0	0	0	CorrectOmission	0.818785	0.586929	1	0	8.482609e+01
202.373215	1.279279	city	4	1	1.253357	1.253357	0	1	0	0	CorrectCommission	0.539426	0.577853	1	0	8.456522e+01
203.672760	1.319807	city	10	1	1.127353	1.127353	0	1	0	0	CorrectCommission	0.130848	0.574297	1	0	8.430435e+01
204.979141	1.292951	city	8	1	0.971851	0.971851	0	1	0	0	CorrectCommission	0.958036	0.575536	1	0	8.404348e+01
206.265411	1.279578	city	5	1	1.293869	1.293869	0	1	0	0	CorrectCommission	0.754929	0.580743	1	0	8.378261e+01
207.551590	1.292798	city	1	1	1.323237	1.323237	0	1	0	0	CorrectCommission	0.911151	0.589115	1	0	8.352174e+01
208.851166	1.306353	city	2	1	1.226818	1.226818	0	1	0	0	CorrectCommission	0.398253	0.599910	1	0	8.326087e+01
210.144135	1.279580	city	8	1	1.195248	1.195248	0	1	0	0	CorrectCommission	0.230317	0.612375	1	0	83
211.423706	1.279567	city	1	1	1.106649	1.106649	0	1	0	0	CorrectCommission	0.240980	0.625671	1	0	8.273913e+01
212.709900	1.292825	city	8	1	1.303225	1.303225	0	1	0	0	CorrectCommission	0.804699	0.638888	1	0	8.247826e+01
213.996155	1.279672	mountain	9	0	0.000000	1.302701	1	0	0	0	CorrectOmission	0.801912	0.651049	1	0	8.221739e+01
215.275772	1.279577	city	8	1	1.183158	1.183158	0	1	0	0	CorrectCommission	0.166008	0.661206	1	0	8.195652e+01
216.555344	1.279554	city	2	1	1.022678	1.022678	0	1	0	0	CorrectCommission	0.687666	0.668628	1	0	8.169565e+01
217.834839	1.279444	city	5	1	0.929691	0.929691	0	1	0	0	CorrectCommission	1.182304	0.672962	1	0	8.143478e+01
219.134415	1.319701	city	9	1	0.895240	0.895240	0	1	0	0	CorrectCommission	1.365570	0.674406	1	0	8.117391e+01
220.434052	1.279581	city	10	1	0.921018	0.921018	0	1	0	0	CorrectCommission	1.228441	0.673741	1	0	8.091304e+01
221.713562	1.279441	city	4	1	1.198704	1.198704	0	1	0	0	CorrectCommission	0.248700	0.672308	1	0	8.065217e+01
223.019806	1.333024	city	3	1	1.288929	1.288929	0	1	0	0	CorrectCommission	0.728649	0.671817	1	0	8.039130e+01
224.326111	1.279611	city	7	1	1.023504	1.023504	0	1	0	0	CorrectCommission	0.683268	0.674020	1	0	8.013043e+01
225.605713	1.279576	city	8	1	1.091229	1.091229	0	1	0	0	CorrectCommission	0.323008	0.680398	1	0	7.986957e+01
226.885284	1.279582	city	6	1	1.182080	1.182080	0	1	0	0	CorrectCommission	0.160269	0.691858	1	0	7.960870e+01
228.164810	1.279458	city	2	1	1.143487	1.143487	0	1	0	0	CorrectCommission	0.045026	0.708522	1	0	7.934783e+01
229.444366	1.279665	city	5	1	1.144206	1.144206	0	1	0	0	CorrectCommission	0.041197	0.729692	0	0	7.908696e+01
230.730576	1.292751	city	4	1	1.271000	1.271000	0	1	0	0	CorrectCommission	0.633277	0.754041	0	0	7.882609e+01
232.016800	1.279684	city	1	1	1.071234	1.071234	0	1	0	0	CorrectCommission	0.429371	0.779897	0	0	7.856522e+01
233.296463	1.279646	city	10	1	1.694487	1.694487	0	1	0	0	CorrectCommission	2.886004	0.805619	0	0	7.830435e+01
234.589401	1.306230	city	2	1	1.496175	1.496175	0	1	0	0	CorrectCommission	1.831089	0.829905	0	0	7.804348e+01
235.888977	1.292917	city	4	1	1.250306	1.250306	0	1	0	0	CorrectCommission	0.523197	0.852111	0	0	7.778261e+01
237.188553	1.306231	city	5	1	1.025382	1.025382	0	1	0	0	CorrectCommission	0.673280	0.872274	0	0	7.752174e+01
238.481400	1.279479	city	1	1	0.979127	0.979127	0	1	0	0	CorrectCommission	0.919332	0.890896	0	0	7.726087e+01
239.121140	9.383693	break	0	0	0.000000	1.072704	0	0	0	0	ThoughtProbe	0.421553	0.908719	0	77	77
249.151291	1.292893	city	10	1	1.202730	1.202730	0	1	0	0	CorrectCommission	0.270119	0.926416	0	0	77
250.444107	1.292755	city	2	1	1.265824	1.265824	0	1	0	0	CorrectCommission	0.605742	0.944324	0	0	77
251.743698	1.306417	city	6	1	0.962052	0.962052	0	1	0	0	CorrectCommission	1.010160	0.962300	0	0	77
253.036514	1.279219	city	3	1	0.914631	0.914631	0	1	0	0	CorrectCommission	1.262418	0.979714	0	0	77
254.329422	1.306611	city	4	1	1.036959	1.036959	0	1	0	0	CorrectCommission	0.611695	0.995636	0	0	77
255.622513	1.279562	city	6	1	0.884076	0.884076	0	1	0	0	CorrectCommission	1.424954	1.009086	0	0	77
256.922058	1.319546	city	5	1	0.826691	0.826691	0	1	0	0	CorrectCommission	1.730210	1.019341	0	0	77
258.221649	1.279594	city	10	1	0.878597	0.878597	0	1	0	0	CorrectCommission	1.454097	1.026142	0	0	77
259.501221	1.279587	city	6	1	0.879321	0.879321	0	1	0	0	CorrectCommission	1.450249	1.029780	0	0	77
260.780731	1.279414	mountain	5	1	0.922678	0.922678	0	0	1	0	CommissionError	1.219609	1.031052	0	0	77
262.060303	1.279725	city	6	1	1.195833	1.195833	0	1	0	0	CorrectCommission	0.233430	1.031124	0	0	77
263.339966	1.279591	mountain	2	0	0.000000	1.317378	1	0	0	0	CorrectOmission	0.879983	1.031258	0	0	77
264.619446	1.279406	city	10	1	1.295744	1.295744	0	1	0	0	CorrectCommission	0.764905	1.032508	0	0	77
265.905609	1.292928	city	8	1	1.139366	1.139366	0	1	0	0	CorrectCommission	0.066944	1.035561	0	0	77
267.198608	1.293049	city	4	1	0.999500	0.999500	0	1	0	0	CorrectCommission	0.810959	1.040618	0	0	77
268.491608	1.292917	city	3	1	0.974573	0.974573	0	1	0	0	CorrectCommission	0.943557	1.047384	0	0	77
269.791168	1.306222	city	10	1	1.693709	1.693709	0	1	0	0	CorrectCommission	2.881867	1.055150	0	0	77
271.083984	1.279435	city	5	1	1.461118	1.461118	0	1	0	0	CorrectCommission	1.644607	1.062947	0	0	77
272.376892	1.306378	city	1	1	1.257516	1.257516	0	1	0	0	CorrectCommission	0.561553	1.069741	0	0	77
273.669800	1.279425	mountain	3	0	0.000000	1.077439	1	0	0	0	CorrectOmission	0.396366	1.074478	0	0	77
274.956055	1.293088	city	9	1	0.944039	0.944039	0	1	0	0	CorrectCommission	1.105983	1.076072	0	0	77
276.255707	1.306231	city	7	1	0.880472	0.880472	0	1	0	0	CorrectCommission	1.444127	1.073468	0	0	77
277.555206	1.292749	city	8	1	1.040346	1.040346	0	1	0	0	CorrectCommission	0.593680	1.065722	0	0	77
278.841400	1.279666	city	9	1	1.025716	1.025716	0	1	0	0	CorrectCommission	0.671502	1.052105	0	0	77
280.140991	1.319505	city	8	1	1.151859	1.151859	0	1	0	0	CorrectCommission	0.000490	1.032233	0	0	77
281.447205	1.292878	city	2	1	1.745764	1.745764	0	1	0	0	CorrectCommission	3.158774	1.006279	0	0	77
282.740112	1.292985	city	1	0	0.000000	1.650202	0	0	0	1	OmissionError	2.650432	0.975062	0	0	77
284.026367	1.279497	city	6	1	1.308607	1.308607	0	1	0	0	CorrectCommission	0.833328	0.940204	0	0	77
285.312561	1.292914	city	10	1	1.164416	1.164416	0	1	0	0	CorrectCommission	0.066308	0.903992	0	0	77
286.598846	1.279657	city	1	1	1.285915	1.285915	0	1	0	0	CorrectCommission	0.712620	0.869079	0	0	77
287.905090	1.332813	city	10	1	1.218616	1.218616	0	1	0	0	CorrectCommission	0.354622	0.838111	0	0	77
289.231354	1.319729	city	6	1	1.185017	1.185017	0	1	0	0	CorrectCommission	0.175897	0.813348	0	0	77
290.530945	1.279421	city	9	1	1.040530	1.040530	0	1	0	0	CorrectCommission	0.592703	0.796279	0	0	77
291.810516	1.279733	city	3	1	1.304088	1.304088	0	1	0	0	CorrectCommission	0.809288	0.787301	0	0	77
293.090149	1.279567	city	6	1	1.248851	1.248851	0	1	0	0	CorrectCommission	0.515459	0.785687	0	0	77
294.369659	1.279423	city	9	1	1.092707	1.092707	0	1	0	0	CorrectCommission	0.315146	0.789657	0	0	77
295.649231	1.279751	city	8	1	0.973437	0.973437	0	1	0	0	CorrectCommission	0.949600	0.796644	0	0	77
296.928925	1.279587	city	5	1	1.092786	1.092786	0	1	0	0	CorrectCommission	0.314729	0.803692	0	0	77
298.215149	1.292892	city	10	1	0.772494	0.772494	0	1	0	0	CorrectCommission	2.018512	0.807936	0	0	77
298.861603	9.064787	break	0	0	0.000000	0.956455	0	0	0	0	ThoughtProbe	1.039934	0.807014	0	77	77
308.565552	1.278304	city	10	1	1.298133	1.298133	0	1	0	0	CorrectCommission	0.777611	0.799529	0	0	7.741176e+01
309.844513	1.279649	city	2	1	1.450990	1.450990	0	1	0	0	CorrectCommission	1.590731	0.785160	0	0	7.782353e+01
311.144135	1.319578	city	9	1	1.390202	1.390202	0	1	0	0	CorrectCommission	1.267371	0.764644	0	0	7.823529e+01
312.450409	1.293015	city	5	1	1.310182	1.310182	0	1	0	0	CorrectCommission	0.841705	0.739656	0	0	7.864706e+01
313.736694	1.279552	city	9	1	1.150996	1.150996	0	1	0	0	CorrectCommission	0.005082	0.712441	1	0	7.905882e+01
315.016235	1.279532	mountain	9	0	0.000000	1.097769	1	0	0	0	CorrectOmission	0.288217	0.685404	1	0	7.947059e+01
316.302460	1.292890	city	3	1	1.081198	1.081198	0	1	0	0	CorrectCommission	0.376369	0.660689	1	0	7.988235e+01
317.588654	1.279504	city	5	1	1.031976	1.031976	0	1	0	0	CorrectCommission	0.638204	0.639789	1	0	8.029412e+01
318.894928	1.333061	city	2	1	1.115267	1.115267	0	1	0	0	CorrectCommission	0.195142	0.623408	1	0	8.070588e+01
320.207886	1.292819	city	1	1	1.199696	1.199696	0	1	0	0	CorrectCommission	0.253981	0.611465	1	0	8.111765e+01
321.494049	1.279507	mountain	9	0	0.000000	1.043819	1	0	0	0	CorrectOmission	0.575203	0.603172	1	0	8.152941e+01
322.786987	1.306396	city	10	1	0.945754	0.945754	0	1	0	0	CorrectCommission	1.096862	0.597267	1	0	8.194118e+01
324.086548	1.292721	city	7	1	1.203617	1.203617	0	1	0	0	CorrectCommission	0.274836	0.592340	1	0	8.235294e+01
325.372772	1.279744	city	2	1	1.468350	1.468350	0	1	0	0	CorrectCommission	1.683079	0.587180	1	0	8.276471e+01
326.665710	1.306100	city	4	1	1.268199	1.268199	0	1	0	0	CorrectCommission	0.618380	0.580931	1	0	8.317647e+01
327.965240	1.292980	city	10	1	1.044187	1.044187	0	1	0	0	CorrectCommission	0.573248	0.573318	1	0	8.358824e+01
329.258148	1.292824	city	2	1	1.212560	1.212560	0	1	0	0	CorrectCommission	0.322408	0.564618	1	0	84
330.557587	1.306062	city	6	1	1.203149	1.203149	0	1	0	0	CorrectCommission	0.272348	0.555615	1	0	8.441176e+01
331.863922	1.306580	city	3	1	1.114484	1.114484	0	1	0	0	CorrectCommission	0.199303	0.547467	1	0	8.482353e+01
333.176941	1.319478	city	9	1	1.305701	1.305701	0	1	0	0	CorrectCommission	0.817871	0.541582	1	0	8.523529e+01
334.476440	1.279489	city	5	1	1.302841	1.302841	0	1	0	0	CorrectCommission	0.802654	0.539370	1	0	8.564706e+01
335.762634	1.292947	city	4	1	1.192426	1.192426	0	1	0	0	CorrectCommission	0.215308	0.542194	1	0	8.605882e+01
337.048920	1.279630	city	2	1	1.016101	1.016101	0	1	0	0	CorrectCommission	0.722653	0.551168	1	0	8.647059e+01
338.341888	1.306309	city	10	1	1.137674	1.137674	0	1	0	0	CorrectCommission	0.075945	0.567026	1	0	8.688235e+01
339.654846	1.319570	city	5	1	1.240773	1.240773	0	1	0	0	CorrectCommission	0.472486	0.590048	1	0	8.729412e+01
340.954407	1.279588	city	2	1	1.037300	1.037300	0	1	0	0	CorrectCommission	0.609882	0.619956	1	0	8.770588e+01
342.247345	1.306240	city	5	1	1.138374	1.138374	0	1	0	0	CorrectCommission	0.072224	0.655894	1	0	8.811765e+01
343.540222	1.279563	city	4	1	1.071511	1.071511	0	1	0	0	CorrectCommission	0.427897	0.696454	1	0	8.852941e+01
344.839813	1.319581	city	8	1	0.897076	0.897076	0	1	0	0	CorrectCommission	1.355799	0.739728	0	0	8.894118e+01
346.152649	1.306105	city	3	1	0.937856	0.937856	0	1	0	0	CorrectCommission	1.138872	0.783483	0	0	8.935294e+01
347.445557	1.279713	city	2	1	1.071840	1.071840	0	1	0	0	CorrectCommission	0.426147	0.825380	0	0	8.976471e+01
348.725128	1.279394	city	3	1	1.161620	1.161620	0	1	0	0	CorrectCommission	0.051434	0.863212	0	0	9.017647e+01
350.011322	1.293005	city	7	1	1.366038	1.366038	0	1	0	0	CorrectCommission	1.138830	0.895191	0	0	9.058824e+01
350.657806	8.530597	break	0	0	0.000000	1.491797	0	0	0	0	ThoughtProbe	1.807804	0.920178	0	91	91
359.828217	1.279587	mountain	8	0	0.000000	1.523097	1	0	0	0	CorrectOmission	1.974303	0.937911	0	0	9.017647e+01
361.107788	1.279593	city	2	1	1.444137	1.444137	0	1	0	0	CorrectCommission	1.554274	0.949057	0	0	8.935294e+01
362.387299	1.279395	city	7	1	1.239115	1.239115	0	1	0	0	CorrectCommission	0.463665	0.955181	0	0	8.852941e+01
363.666809	1.279666	city	8	1	1.016238	1.016238	0	1	0	0	CorrectCommission	0.721924	0.958470	0	0	8.770588e+01
364.946472	1.279652	city	9	1	1.339161	1.339161	0	1	0	0	CorrectCommission	0.995859	0.961367	0	0	8.688235e+01
366.226044	1.279497	city	7	1	1.124191	1.124191	0	1	0	0	CorrectCommission	0.147667	0.966200	0	0	8.605882e+01
367.505646	1.279692	city	4	1	1.401095	1.401095	0	1	0	0	CorrectCommission	1.325317	0.974810	0	0	8.523529e+01
368.785278	1.279547	city	3	1	1.182099	1.182099	0	1	0	0	CorrectCommission	0.160374	0.988178	0	0	8.441176e+01
370.064819	1.279536	city	1	1	0.913629	0.913629	0	1	0	0	CorrectCommission	1.267748	1.006287	0	0	8.358824e+01
371.344391	1.279634	city	7	1	1.026413	1.026413	0	1	0	0	CorrectCommission	0.667794	1.028113	0	0	8.276471e+01
372.623993	1.279570	city	6	1	1.389039	1.389039	0	1	0	0	CorrectCommission	1.261183	1.051830	0	0	8.194118e+01
373.903564	1.279592	city	10	0	0.000000	1.244447	0	0	0	1	OmissionError	0.492030	1.075123	0	0	8.111765e+01
375.183075	1.279413	city	7	1	0.964424	0.964424	0	1	0	0	CorrectCommission	0.997546	1.095634	0	0	8.029412e+01
376.462677	1.279751	city	8	1	0.920755	0.920755	0	1	0	0	CorrectCommission	1.229840	1.111316	0	0	7.947059e+01
377.742340	1.279580	city	3	1	1.716222	1.716222	0	1	0	0	CorrectCommission	3.001626	1.120872	0	0	7.864706e+01
379.021851	1.279445	city	4	1	0.748503	0.748503	0	1	0	0	CorrectCommission	2.146133	1.123894	0	0	7.782353e+01
380.301422	1.279710	city	7	1	1.284485	1.284485	0	1	0	0	CorrectCommission	0.705010	1.120971	0	0	77
381.581085	1.279619	city	2	1	1.023792	1.023792	0	1	0	0	CorrectCommission	0.681738	1.113497	0	0	7.617647e+01
382.860657	1.279540	city	10	1	0.964144	0.964144	0	1	0	0	CorrectCommission	0.999034	1.103275	0	0	7.535294e+01
384.140198	1.279562	city	7	1	1.180370	1.180370	0	1	0	0	CorrectCommission	0.151174	1.092161	0	0	7.452941e+01
385.419708	1.279427	city	1	1	0.982935	0.982935	0	1	0	0	CorrectCommission	0.899077	1.081658	0	0	7.370588e+01
386.699219	1.279570	mountain	4	1	0.804720	0.804720	0	0	1	0	CommissionError	1.847089	1.072592	0	0	7.288235e+01
387.978851	1.279739	city	10	1	1.231168	1.231168	0	1	0	0	CorrectCommission	0.421395	1.065002	0	0	7.205882e+01
389.258453	1.279435	city	3	1	1.143304	1.143304	0	1	0	0	CorrectCommission	0.045998	1.058237	0	0	7.123529e+01
390.538025	1.279725	city	10	0	0.000000	0.965667	0	0	0	1	OmissionError	0.990931	1.051111	0	0	7.041176e+01
391.817688	1.279600	city	8	1	0.751097	0.751097	0	1	0	0	CorrectCommission	2.132333	1.042196	0	0	6.958824e+01
393.097260	1.279553	city	9	1	0.552431	0.552431	0	1	0	0	CorrectCommission	3.189133	1.030145	0	0	6.876471e+01
394.376770	1.279438	city	1	1	1.122174	1.122174	0	1	0	0	CorrectCommission	0.158398	1.013953	0	0	6.794118e+01
395.656372	1.279775	city	7	1	1.242170	1.242170	0	1	0	0	CorrectCommission	0.479916	0.993204	0	0	6.711765e+01
396.936035	1.279541	city	5	1	1.080448	1.080448	0	1	0	0	CorrectCommission	0.380356	0.968018	0	0	6.629412e+01
398.215515	1.279416	city	2	1	0.911059	0.911059	0	1	0	0	CorrectCommission	1.281419	0.939035	0	0	6.547059e+01
399.495087	1.279730	city	5	1	1.500396	1.500396	0	1	0	0	CorrectCommission	1.853547	0.907327	0	0	6.464706e+01
400.774719	1.279577	city	3	1	1.138965	1.138965	0	1	0	0	CorrectCommission	0.069080	0.874218	0	0	6.382353e+01
401.414520	9.530132	break	0	0	0.000000	1.006209	0	0	0	0	ThoughtProbe	0.775272	0.841208	0	63	63
411.584442	1.279587	city	7	1	1.081493	1.081493	0	1	0	0	CorrectCommission	0.374797	0.809741	0	0	6.323913e+01
412.864044	1.279640	mountain	7	0	0.000000	1.344184	1	0	0	0	CorrectOmission	1.022578	0.781184	0	0	6.347826e+01
414.143646	1.279514	city	4	1	1.458831	1.458831	0	1	0	0	CorrectCommission	1.632441	0.756659	0	0	6.371739e+01
415.423187	1.279624	city	9	1	1.089986	1.089986	0	1	0	0	CorrectCommission	0.329621	0.736995	0	0	6.395652e+01
416.702820	1.279616	city	4	1	1.047619	1.047619	0	1	0	0	CorrectCommission	0.554993	0.722706	1	0	6.419565e+01
417.982422	1.279566	mountain	2	0	0.000000	1.138387	1	0	0	0	CorrectOmission	0.072154	0.713809	1	0	6.443478e+01
419.261993	1.279597	mountain	1	0	0.000000	1.253527	1	0	0	0	CorrectOmission	0.540333	0.709838	1	0	6.467391e+01
420.541565	1.279576	city	1	1	1.284277	1.284277	0	1	0	0	CorrectCommission	0.703905	0.709840	1	0	6.491304e+01
421.821167	1.279575	city	3	1	1.121872	1.121872	0	1	0	0	CorrectCommission	0.160002	0.712481	1	0	6.515217e+01
423.100677	1.279473	city	6	1	1.082608	1.082608	0	1	0	0	CorrectCommission	0.368870	0.716174	1	0	6.539130e+01
424.380249	1.279668	city	1	1	0.857830	0.857830	0	1	0	0	CorrectCommission	1.564570	0.719307	1	0	6.563043e+01
425.659882	1.279593	city	8	1	0.765901	0.765901	0	1	0	0	CorrectCommission	2.053582	0.720411	1	0	6.586957e+01
426.939453	1.279546	city	5	1	1.121974	1.121974	0	1	0	0	CorrectCommission	0.159462	0.718365	1	0	6.610870e+01
428.218994	1.279533	city	8	1	1.017778	1.017778	0	1	0	0	CorrectCommission	0.713729	0.712536	1	0	6.634783e+01
429.498566	1.279606	city	2	1	1.023326	1.023326	0	1	0	0	CorrectCommission	0.684216	0.702679	1	0	6.658696e+01
430.778198	1.279658	city	9	1	1.081362	1.081362	0	1	0	0	CorrectCommission	0.375496	0.689041	1	0	6.682609e+01
432.057709	1.279385	city	1	1	1.390926	1.390926	0	1	0	0	CorrectCommission	1.271222	0.672132	1	0	6.706522e+01
433.337189	1.279589	city	2	1	1.263139	1.263139	0	1	0	0	CorrectCommission	0.591462	0.652619	1	0	6.730435e+01
434.616791	1.279580	city	1	1	1.178472	1.178472	0	1	0	0	CorrectCommission	0.141080	0.631250	1	0	6.754348e+01
435.896423	1.279721	city	9	1	1.071554	1.071554	0	1	0	0	CorrectCommission	0.427668	0.608740	1	0	6.778261e+01
437.176086	1.279588	city	3	1	0.999267	0.999267	0	1	0	0	CorrectCommission	0.812196	0.585776	1	0	6.802174e+01
438.455688	1.279591	city	7	1	0.995500	0.995500	0	1	0	0	CorrectCommission	0.832237	0.563032	1	0	6.826087e+01
439.735260	1.279578	city	3	1	1.091737	1.091737	0	1	0	0	CorrectCommission	0.320306	0.541253	1	0	6.850000e+01
441.014832	1.279564	city	5	1	0.978759	0.978759	0	1	0	0	CorrectCommission	0.921290	0.521290	1	0	6.873913e+01
442.294403	1.279579	city	9	1	1.076265	1.076265	0	1	0	0	CorrectCommission	0.402610	0.504095	1	0	6.897826e+01
443.573944	1.279514	city	7	1	1.076471	1.076471	0	1	0	0	CorrectCommission	0.401511	0.490756	1	0	6.921739e+01
444.853455	1.279489	city	4	1	1.126389	1.126389	0	1	0	0	CorrectCommission	0.135977	0.482379	1	0	6.945652e+01
446.133087	1.279756	city	5	1	1.017990	1.017990	0	1	0	0	CorrectCommission	0.712601	0.480001	1	0	6.969565e+01
447.412750	1.279579	mountain	10	1	1.175224	1.175224	0	0	1	0	CommissionError	0.123798	0.484404	1	0	6.993478e+01
448.698975	1.292915	city	1	1	1.243622	1.243622	0	1	0	0	CorrectCommission	0.487640	0.495978	1	0	7.017391e+01
449.985229	1.279567	city	7	1	1.129583	1.129583	0	1	0	0	CorrectCommission	0.118983	0.514659	1	0	7.041304e+01
451.264801	1.279577	city	4	1	1.129750	1.129750	0	1	0	0	CorrectCommission	0.118095	0.539921	1	0	7.065217e+01
452.544373	1.279579	city	1	1	1.230810	1.230810	0	1	0	0	CorrectCommission	0.419488	0.570778	1	0	7.089130e+01
453.823944	1.279564	city	3	1	1.186305	1.186305	0	1	0	0	CorrectCommission	0.182744	0.605951	1	0	7.113043e+01
455.103516	1.279569	city	4	1	1.449814	1.449814	0	1	0	0	CorrectCommission	1.584475	0.644093	1	0	7.136957e+01
456.383087	1.279591	city	2	1	1.068812	1.068812	0	1	0	0	CorrectCommission	0.442256	0.683933	1	0	7.160870e+01
457.662659	1.279516	city	7	1	0.969332	0.969332	0	1	0	0	CorrectCommission	0.971437	0.724504	1	0	7.184783e+01
458.942230	1.279663	city	9	1	0.916407	0.916407	0	1	0	0	CorrectCommission	1.252972	0.765184	0	0	7.208696e+01
460.221863	1.279562	city	2	1	0.932219	0.932219	0	1	0	0	CorrectCommission	1.168859	0.805664	0	0	7.232609e+01
461.501434	1.279601	city	3	1	1.086246	1.086246	0	1	0	0	CorrectCommission	0.349515	0.845911	0	0	7.256522e+01
462.781036	1.279575	city	4	1	1.230836	1.230836	0	1	0	0	CorrectCommission	0.419628	0.885970	0	0	7.280435e+01
464.060547	1.279485	city	9	1	0.964778	0.964778	0	1	0	0	CorrectCommission	0.995659	0.925773	0	0	7.304348e+01
465.340118	1.279646	city	3	1	1.023131	1.023131	0	1	0	0	CorrectCommission	0.685257	0.965061	0	0	7.328261e+01
466.619720	1.279571	city	4	1	1.336427	1.336427	0	1	0	0	CorrectCommission	0.981315	1.003346	0	0	7.352174e+01
467.899323	1.279612	city	1	1	1.207031	1.207031	0	1	0	0	CorrectCommission	0.292998	1.040006	0	0	7.376087e+01
468.539124	10.289922	break	0	0	0.000000	1.381590	0	0	0	0	ThoughtProbe	1.221561	1.074438	0	74	74
479.468750	1.279425	mountain	3	0	0.000000	1.600467	1	0	0	0	CorrectOmission	2.385869	1.106191	0	0	7.407500e+01
480.748322	1.279696	city	6	1	1.604023	1.604023	0	1	0	0	CorrectCommission	2.404788	1.135133	0	0	7.415000e+01
482.027985	1.279634	city	2	1	1.132623	1.132623	0	1	0	0	CorrectCommission	0.102814	1.161536	0	0	7.422500e+01
483.307526	1.279475	city	5	1	0.964272	0.964272	0	1	0	0	CorrectCommission	0.998352	1.185965	0	0	7.430000e+01
484.587067	1.279572	mountain	10	1	0.766849	0.766849	0	0	1	0	CommissionError	2.048540	1.209003	0	0	7.437500e+01
485.866669	1.279673	city	7	1	0.967975	0.967975	0	1	0	0	CorrectCommission	0.978656	1.231018	0	0	7.445000e+01
487.146240	1.279444	city	5	1	1.023746	1.023746	0	1	0	0	CorrectCommission	0.681984	1.251922	0	0	7.452500e+01
488.425842	1.279741	city	6	1	1.134281	1.134281	0	1	0	0	CorrectCommission	0.093995	1.270932	0	0	7.460000e+01
489.705444	1.279470	city	2	1	0.969787	0.969787	0	1	0	0	CorrectCommission	0.969016	1.286569	0	0	7.467500e+01
490.984985	1.279598	city	4	1	0.932904	0.932904	0	1	0	0	CorrectCommission	1.165214	1.296800	0	0	7.475000e+01
492.264587	1.279642	city	9	1	0.706099	0.706099	0	1	0	0	CorrectCommission	2.371700	1.299410	0	0	7.482500e+01
493.544220	1.279602	city	7	1	0.818977	0.818977	0	1	0	0	CorrectCommission	1.771247	1.292415	0	0	7.490000e+01
494.823822	1.279582	city	9	1	1.708291	1.708291	0	1	0	0	CorrectCommission	2.959439	1.274538	0	0	7.497500e+01
496.103333	1.279493	city	4	1	1.495013	1.495013	0	1	0	0	CorrectCommission	1.824910	1.245451	0	0	7.505000e+01
497.382904	1.279629	city	1	1	1.022060	1.022060	0	1	0	0	CorrectCommission	0.690953	1.205992	0	0	7.512500e+01
498.662506	1.279588	city	4	1	0.857705	0.857705	0	1	0	0	CorrectCommission	1.565237	1.158022	0	0	7.520000e+01
499.942108	1.279587	city	9	1	1.122730	1.122730	0	1	0	0	CorrectCommission	0.155441	1.104140	0	0	7.527500e+01
501.221680	1.279591	mountain	2	0	0.000000	1.310539	1	0	0	0	CorrectOmission	0.843605	1.047416	0	0	7.535000e+01
502.501251	1.279541	city	10	1	1.356657	1.356657	0	1	0	0	CorrectCommission	1.088928	0.990937	0	0	7.542500e+01
503.780823	1.279598	city	8	1	1.196608	1.196608	0	1	0	0	CorrectCommission	0.237552	0.937531	0	0	7.550000e+01
505.060333	1.279430	city	2	1	1.039092	1.039092	0	1	0	0	CorrectCommission	0.600348	0.889582	0	0	7.557500e+01
506.339844	1.279576	city	3	1	1.455234	1.455234	0	1	0	0	CorrectCommission	1.613306	0.848858	0	0	7.565000e+01
507.619537	1.279790	city	4	1	1.294501	1.294501	0	1	0	0	CorrectCommission	0.758292	0.816485	0	0	7.572500e+01
508.899200	1.279537	city	10	0	0.000000	1.095939	0	0	0	1	OmissionError	0.297955	0.793017	0	0	7.580000e+01
510.178741	1.279585	city	7	1	0.967647	0.967647	0	1	0	0	CorrectCommission	0.980402	0.778454	0	0	7.587500e+01
511.458313	1.279560	city	5	1	1.017724	1.017724	0	1	0	0	CorrectCommission	0.714015	0.772163	0	0	7.595000e+01
512.737854	1.279454	city	4	1	1.017704	1.017704	0	1	0	0	CorrectCommission	0.714124	0.772886	0	0	7.602500e+01
514.017395	1.279699	city	9	1	1.071043	1.071043	0	1	0	0	CorrectCommission	0.430386	0.778750	0	0	7.610000e+01
515.297058	1.279602	city	3	1	1.137047	1.137047	0	1	0	0	CorrectCommission	0.079280	0.787281	0	0	7.617500e+01
516.576538	1.279393	city	4	1	1.284699	1.284699	0	1	0	0	CorrectCommission	0.706152	0.795520	0	0	7.625000e+01
517.856018	1.279582	city	2	1	1.130037	1.130037	0	1	0	0	CorrectCommission	0.116572	0.800166	0	0	7.632500e+01
519.135742	1.279761	city	8	1	0.962466	0.962466	0	1	0	0	CorrectCommission	1.007962	0.797971	0	0	7.640000e+01
520.415405	1.279579	city	9	1	0.753455	0.753455	0	1	0	0	CorrectCommission	2.119788	0.786009	0	0	7.647500e+01
521.694946	1.279586	city	6	1	0.642210	0.642210	0	1	0	0	CorrectCommission	2.711557	0.762090	0	0	7.655000e+01
522.974487	1.279442	city	3	1	0.962094	0.962094	0	1	0	0	CorrectCommission	1.009938	0.725005	0	0	7.662500e+01
524.254028	1.279641	city	8	1	1.177760	1.177760	0	1	0	0	CorrectCommission	0.137289	0.674733	1	0	7.670000e+01
525.533630	1.279626	city	1	1	1.071635	1.071635	0	1	0	0	CorrectCommission	0.427240	0.612401	1	0	7.677500e+01
526.813232	1.279579	city	6	1	1.105395	1.105395	0	1	0	0	CorrectCommission	0.247651	0.540093	1	0	7.685000e+01
528.092834	1.279576	city	5	1	1.093178	1.093178	0	1	0	0	CorrectCommission	0.312641	0.460698	1	0	7.692500e+01
528.732605	8.050939	break	0	0	0.000000	1.080961	0	0	0	0	ThoughtProbe	0.377631	0.377631	1	77	77
