onset	duration	trial_type	image_type	Press	ReactionTime	ReactionTime_Interpolated	CorrectOmission	CorrectCommission	CommissionError	OmissionError	response_type	nonsmoothVarianceTimeCourse	VarianceTimeCourse	In_the_Zone	ThoughtProbe	ThoughtProbe_Interpolated
0.654872	1.276246	city	6	1	1.615277	1.615277	0	1	0	0	CorrectCommission	2.059316	2.059316	0	0	82
1.939442	1.292894	city	5	1	1.299996	1.299996	0	1	0	0	CorrectCommission	0.052882	1.930235	0	0	82
3.225595	1.279414	city	4	1	1.240844	1.240844	0	1	0	0	CorrectCommission	0.323553	1.803656	0	0	82
4.511759	1.292914	city	8	1	1.050356	1.050356	0	1	0	0	CorrectCommission	1.535813	1.681661	0	0	82
5.798002	1.279572	city	7	1	0.924417	0.924417	0	1	0	0	CorrectCommission	2.337282	1.565607	0	0	82
7.104243	1.332909	city	10	1	1.025134	1.025134	0	1	0	0	CorrectCommission	1.696322	1.456032	0	0	82
8.437225	1.333057	city	6	1	1.249270	1.249270	0	1	0	0	CorrectCommission	0.269935	1.352724	0	0	82
9.743456	1.279404	city	4	1	1.230424	1.230424	0	1	0	0	CorrectCommission	0.389867	1.254956	0	0	82
11.023041	1.279765	city	10	1	0.969290	0.969290	0	1	0	0	CorrectCommission	2.051710	1.161806	0	0	82
12.322619	1.319391	city	9	1	0.963800	0.963800	0	1	0	0	CorrectCommission	2.086648	1.072528	0	0	82
13.622099	1.279569	mountain	2	0	0.000000	1.032223	1	0	0	0	CorrectOmission	1.651206	0.986866	0	0	82
14.915092	1.306418	mountain	4	0	0.000000	1.142058	1	0	0	0	CorrectOmission	0.952222	0.905190	0	0	82
16.208094	1.279586	city	9	1	1.260803	1.260803	0	1	0	0	CorrectCommission	0.196535	0.828447	0	0	82
17.487614	1.279454	city	7	1	1.355957	1.355957	0	1	0	0	CorrectCommission	0.409015	0.757976	1	0	82
18.767099	1.279518	city	3	1	1.287412	1.287412	0	1	0	0	CorrectCommission	0.027199	0.695231	1	0	82
20.053312	1.292904	city	8	1	1.300299	1.300299	0	1	0	0	CorrectCommission	0.054811	0.641475	1	0	82
21.339554	1.279580	city	5	1	1.341637	1.341637	0	1	0	0	CorrectCommission	0.317884	0.597541	1	0	82
22.632490	1.306294	city	9	1	1.208597	1.208597	0	1	0	0	CorrectCommission	0.528772	0.563723	1	0	82
23.925472	1.279671	mountain	8	0	0.000000	1.374554	1	0	0	0	CorrectOmission	0.527366	0.539754	1	0	82
25.205091	1.279567	city	4	1	1.501706	1.501706	0	1	0	0	CorrectCommission	1.336555	0.524868	1	0	82
26.484690	1.279632	city	6	1	1.252254	1.252254	0	1	0	0	CorrectCommission	0.250945	0.517944	1	0	82
27.770866	1.292719	city	1	1	1.304575	1.304575	0	1	0	0	CorrectCommission	0.082025	0.517693	1	0	82
29.063782	1.293113	city	10	1	1.267250	1.267250	0	1	0	0	CorrectCommission	0.155508	0.522767	1	0	82
30.356714	1.292753	city	5	1	1.393426	1.393426	0	1	0	0	CorrectCommission	0.647469	0.531885	1	0	82
31.649582	1.292981	city	3	1	1.457316	1.457316	0	1	0	0	CorrectCommission	1.054057	0.543878	1	0	82
32.935799	1.279456	city	8	1	1.233875	1.233875	0	1	0	0	CorrectCommission	0.367904	0.557697	1	0	82
34.215412	1.279770	city	6	1	1.289577	1.289577	0	1	0	0	CorrectCommission	0.013418	0.572480	1	0	82
35.514984	1.319375	city	5	1	1.196226	1.196226	0	1	0	0	CorrectCommission	0.607503	0.587538	1	0	82
36.814537	1.279730	city	8	1	1.135570	1.135570	0	1	0	0	CorrectCommission	0.993515	0.602363	1	0	82
38.100788	1.292769	city	2	1	1.140453	1.140453	0	1	0	0	CorrectCommission	0.962440	0.616628	1	0	82
39.386963	1.279582	city	4	1	1.391290	1.391290	0	1	0	0	CorrectCommission	0.633874	0.630142	1	0	82
40.666630	1.279754	city	8	1	1.210879	1.210879	0	1	0	0	CorrectCommission	0.514249	0.642819	1	0	82
41.946289	1.279567	mountain	8	0	0.000000	1.320088	1	0	0	0	CorrectOmission	0.180746	0.654630	1	0	82
43.239197	1.306245	city	7	1	1.473274	1.473274	0	1	0	0	CorrectCommission	1.155618	0.665533	1	0	82
44.545395	1.306147	city	6	1	1.424799	1.424799	0	1	0	0	CorrectCommission	0.847123	0.675381	1	0	82
45.851536	1.306140	city	10	1	1.212387	1.212387	0	1	0	0	CorrectCommission	0.504651	0.683909	1	0	82
47.151142	1.293066	city	2	1	1.366890	1.366890	0	1	0	0	CorrectCommission	0.478597	0.690702	1	0	82
48.470814	1.346284	city	5	1	1.364111	1.364111	0	1	0	0	CorrectCommission	0.460908	0.695209	1	0	82
49.817036	1.346160	city	1	1	1.350574	1.350574	0	1	0	0	CorrectCommission	0.374762	0.696809	1	0	82
51.129925	1.279616	city	6	1	1.505178	1.505178	0	1	0	0	CorrectCommission	1.358654	0.694958	1	0	82
52.416096	1.292723	city	5	1	1.480602	1.480602	0	1	0	0	CorrectCommission	1.202254	0.689286	1	0	82
53.742321	1.359733	city	9	1	1.209870	1.209870	0	1	0	0	CorrectCommission	0.520674	0.679701	1	0	82
55.095303	1.346228	city	1	1	1.159373	1.159373	0	1	0	0	CorrectCommission	0.842032	0.666516	1	0	82
56.428127	1.319419	city	8	1	1.061005	1.061005	0	1	0	0	CorrectCommission	1.468042	0.650408	1	0	82
57.734291	1.292908	city	7	1	1.248489	1.248489	0	1	0	0	CorrectCommission	0.274900	0.632375	1	0	82
61.499779	6.238068	break	0	0	0.000000	1.312450	0	0	0	0	ThoughtProbe	0.132141	0.613674	1	82	82
65.286026	1.334421	city	7	1	1.299382	1.299382	0	1	0	0	CorrectCommission	0.048980	0.595616	1	0	8.194118e+01
66.625504	1.344534	city	4	1	1.255783	1.255783	0	1	0	0	CorrectCommission	0.228486	0.579493	1	0	8.188235e+01
67.944221	1.292907	city	3	1	1.143467	1.143467	0	1	0	0	CorrectCommission	0.943257	0.566463	1	0	8.182353e+01
69.277214	1.373073	city	9	1	1.122633	1.122633	0	1	0	0	CorrectCommission	1.075843	0.557461	1	0	8.176471e+01
70.603439	1.279389	city	7	1	1.200892	1.200892	0	1	0	0	CorrectCommission	0.577809	0.553160	1	0	8.170588e+01
71.916298	1.346316	city	9	1	1.221913	1.221913	0	1	0	0	CorrectCommission	0.444030	0.553955	1	0	8.164706e+01
73.242615	1.306320	mountain	9	0	0.000000	1.235325	1	0	0	0	CorrectOmission	0.358677	0.559887	1	0	8.158824e+01
74.548874	1.306203	city	1	1	1.263452	1.263452	0	1	0	0	CorrectCommission	0.179678	0.570614	1	0	8.152941e+01
75.855133	1.306316	city	8	1	1.328619	1.328619	0	1	0	0	CorrectCommission	0.235037	0.585413	1	0	8.147059e+01
77.148064	1.279546	city	5	1	1.369148	1.369148	0	1	0	0	CorrectCommission	0.492967	0.603209	1	0	8.141176e+01
78.440948	1.306223	city	3	1	1.380804	1.380804	0	1	0	0	CorrectCommission	0.567139	0.622691	1	0	8.135294e+01
79.760490	1.332866	city	9	1	1.301520	1.301520	0	1	0	0	CorrectCommission	0.062582	0.642472	1	0	8.129412e+01
81.080063	1.306278	city	4	1	1.527018	1.527018	0	1	0	0	CorrectCommission	1.497643	0.661304	1	0	8.123529e+01
82.399643	1.332884	city	3	1	1.621637	1.621637	0	1	0	0	CorrectCommission	2.099788	0.678202	1	0	8.117647e+01
83.712456	1.292741	city	10	1	1.311118	1.311118	0	1	0	0	CorrectCommission	0.123666	0.692650	1	0	8.111765e+01
84.998703	1.279754	city	3	1	1.355275	1.355275	0	1	0	0	CorrectCommission	0.404677	0.704674	1	0	8.105882e+01
86.278358	1.279545	city	4	1	1.370729	1.370729	0	1	0	0	CorrectCommission	0.503024	0.714697	1	0	81
87.571251	1.306238	mountain	7	0	0.000000	1.451651	1	0	0	0	CorrectOmission	1.018008	0.723482	1	0	8.094118e+01
88.864090	1.279445	city	2	1	1.480635	1.480635	0	1	0	0	CorrectCommission	1.202464	0.731907	1	0	8.088235e+01
90.170250	1.332875	city	8	1	1.340276	1.340276	0	1	0	0	CorrectCommission	0.309226	0.740745	1	0	8.082353e+01
91.476517	1.279660	city	5	1	1.354026	1.354026	0	1	0	0	CorrectCommission	0.396729	0.750536	1	0	8.076471e+01
92.756157	1.279615	city	10	1	1.229371	1.229371	0	1	0	0	CorrectCommission	0.396567	0.761346	1	0	8.070588e+01
94.069016	1.346114	city	3	1	1.394879	1.394879	0	1	0	0	CorrectCommission	0.656713	0.772822	0	0	8.064706e+01
95.408607	1.333068	city	5	1	1.357519	1.357519	0	1	0	0	CorrectCommission	0.418959	0.784181	0	0	8.058824e+01
96.741501	1.332718	city	1	1	1.524634	1.524634	0	1	0	0	CorrectCommission	1.482470	0.794400	0	0	8.052941e+01
98.067657	1.319587	city	2	1	1.487206	1.487206	0	1	0	0	CorrectCommission	1.244278	0.802377	0	0	8.047059e+01
99.367325	1.279749	city	6	1	1.463322	1.463322	0	1	0	0	CorrectCommission	1.092284	0.807204	0	0	8.041176e+01
100.660316	1.306232	city	3	1	1.383464	1.383464	0	1	0	0	CorrectCommission	0.584073	0.808278	0	0	8.035294e+01
101.953133	1.279405	city	7	1	1.448560	1.448560	0	1	0	0	CorrectCommission	0.998337	0.805447	0	0	8.029412e+01
103.259277	1.332885	city	4	1	1.475103	1.475103	0	1	0	0	CorrectCommission	1.167256	0.798980	0	0	8.023529e+01
104.612160	1.372878	city	10	1	1.242480	1.242480	0	1	0	0	CorrectCommission	0.313142	0.789530	0	0	8.017647e+01
105.958473	1.319757	city	9	1	1.171820	1.171820	0	1	0	0	CorrectCommission	0.762820	0.778061	0	0	8.011765e+01
107.258141	1.279578	city	2	1	1.209947	1.209947	0	1	0	0	CorrectCommission	0.520184	0.765660	1	0	8.005882e+01
111.183426	6.570984	break	0	0	0.000000	1.426087	0	0	0	0	ThoughtProbe	0.855319	0.753424	1	80	80
115.142120	1.346410	city	7	1	1.531312	1.531312	0	1	0	0	CorrectCommission	1.524969	0.742341	1	0	8.002500e+01
116.475113	1.319570	city	9	1	1.236696	1.236696	0	1	0	0	CorrectCommission	0.349955	0.733172	1	0	8.005000e+01
117.774597	1.279410	city	5	1	1.312502	1.312502	0	1	0	0	CorrectCommission	0.132473	0.726523	1	0	8.007500e+01
119.094101	1.359598	city	10	1	1.236782	1.236782	0	1	0	0	CorrectCommission	0.349408	0.722745	1	0	8.010000e+01
120.433655	1.319505	city	3	1	1.207010	1.207010	0	1	0	0	CorrectCommission	0.538873	0.721962	1	0	8.012500e+01
121.753220	1.319618	city	10	1	1.012198	1.012198	0	1	0	0	CorrectCommission	1.778648	0.724167	1	0	8.015000e+01
123.052864	1.279679	mountain	2	0	0.000000	1.280653	1	0	0	0	CorrectOmission	0.070215	0.729182	1	0	8.017500e+01
124.352501	1.319589	city	10	1	1.540694	1.540694	0	1	0	0	CorrectCommission	1.584673	0.736828	1	0	8.020000e+01
125.651955	1.279323	city	9	1	1.320640	1.320640	0	1	0	0	CorrectCommission	0.184264	0.746784	1	0	8.022500e+01
126.958199	1.333161	city	10	1	1.222095	1.222095	0	1	0	0	CorrectCommission	0.442873	0.758680	1	0	8.025000e+01
128.264496	1.279443	mountain	4	0	0.000000	1.382628	1	0	0	0	CorrectOmission	0.578751	0.771998	0	0	8.027500e+01
129.550751	1.293048	city	4	1	1.493755	1.493755	0	1	0	0	CorrectCommission	1.285956	0.786100	0	0	8.030000e+01
130.863693	1.332862	city	3	1	1.246990	1.246990	0	1	0	0	CorrectCommission	0.284440	0.800188	0	0	8.032500e+01
132.183182	1.306102	city	4	1	1.470923	1.470923	0	1	0	0	CorrectCommission	1.140652	0.813427	0	0	8.035000e+01
133.496048	1.319629	city	3	1	1.173305	1.173305	0	1	0	0	CorrectCommission	0.753368	0.824954	0	0	8.037500e+01
134.822311	1.332888	city	6	1	1.277330	1.277330	0	1	0	0	CorrectCommission	0.091358	0.834047	0	0	8.040000e+01
136.141830	1.306163	city	4	1	1.072596	1.072596	0	1	0	0	CorrectCommission	1.394277	0.840214	0	0	8.042500e+01
137.441452	1.293086	city	3	1	0.934625	0.934625	0	1	0	0	CorrectCommission	2.272315	0.843220	0	0	8.045000e+01
138.727737	1.279468	mountain	5	0	0.000000	1.217609	1	0	0	0	CorrectOmission	0.471420	0.843169	0	0	8.047500e+01
140.027222	1.319502	city	5	1	1.488969	1.488969	0	1	0	0	CorrectCommission	1.255500	0.840440	0	0	8.050000e+01
141.326752	1.279574	city	2	1	1.316126	1.316126	0	1	0	0	CorrectCommission	0.155534	0.835501	0	0	8.052500e+01
142.632996	1.332891	city	9	1	1.227340	1.227340	0	1	0	0	CorrectCommission	0.409495	0.828842	0	0	8.055000e+01
143.959213	1.319564	city	8	1	1.158368	1.158368	0	1	0	0	CorrectCommission	0.848425	0.820756	0	0	8.057500e+01
145.292145	1.346291	city	4	1	1.292030	1.292030	0	1	0	0	CorrectCommission	0.002192	0.811296	0	0	8.060000e+01
146.625137	1.319683	city	10	1	0.997339	0.997339	0	1	0	0	CorrectCommission	1.873210	0.800312	0	0	8.062500e+01
147.924789	1.279642	city	5	1	1.236374	1.236374	0	1	0	0	CorrectCommission	0.352002	0.787435	0	0	8.065000e+01
149.204361	1.279481	city	10	1	1.127464	1.127464	0	1	0	0	CorrectCommission	1.045100	0.772363	0	0	8.067500e+01
150.483856	1.279512	city	7	1	1.540523	1.540523	0	1	0	0	CorrectCommission	1.583584	0.754870	1	0	8.070000e+01
151.823410	1.399612	city	10	1	1.212377	1.212377	0	1	0	0	CorrectCommission	0.504717	0.735062	1	0	8.072500e+01
153.182938	1.319431	city	2	1	1.396722	1.396722	0	1	0	0	CorrectCommission	0.668441	0.713391	1	0	8.075000e+01
154.495773	1.306234	city	7	1	1.407059	1.407059	0	1	0	0	CorrectCommission	0.734225	0.690633	1	0	8.077500e+01
155.822006	1.346253	city	8	1	1.225826	1.225826	0	1	0	0	CorrectCommission	0.419127	0.667836	1	0	8.080000e+01
157.148224	1.306184	city	5	1	1.393001	1.393001	0	1	0	0	CorrectCommission	0.644762	0.646157	1	0	8.082500e+01
158.454437	1.306244	city	4	1	1.438073	1.438073	0	1	0	0	CorrectCommission	0.931597	0.626707	1	0	8.085000e+01
159.760773	1.306410	city	2	1	1.263073	1.263073	0	1	0	0	CorrectCommission	0.182094	0.610435	1	0	8.087500e+01
161.067001	1.306065	city	4	1	1.338957	1.338957	0	1	0	0	CorrectCommission	0.300833	0.598000	1	0	8.090000e+01
162.379913	1.319752	city	10	1	1.245525	1.245525	0	1	0	0	CorrectCommission	0.293766	0.589723	1	0	8.092500e+01
163.679489	1.279408	city	2	1	1.422070	1.422070	0	1	0	0	CorrectCommission	0.829759	0.585637	1	0	8.095000e+01
164.985672	1.332948	city	1	1	1.300180	1.300180	0	1	0	0	CorrectCommission	0.054055	0.585485	1	0	8.097500e+01
165.652145	12.329235	break	0	0	0.000000	1.377675	0	0	0	0	ThoughtProbe	0.547231	0.588886	1	81	81
178.621155	1.279552	mountain	4	0	0.000000	1.500263	1	0	0	0	CorrectOmission	1.327374	0.595441	1	0	8.091176e+01
179.920792	1.319730	city	7	1	1.513651	1.513651	0	1	0	0	CorrectCommission	1.412572	0.604770	1	0	8.082353e+01
181.227127	1.292937	city	8	1	1.263545	1.263545	0	1	0	0	CorrectCommission	0.179089	0.616606	1	0	8.073529e+01
182.519974	1.292754	city	3	1	1.326387	1.326387	0	1	0	0	CorrectCommission	0.220836	0.630756	1	0	8.064706e+01
183.832855	1.332995	city	1	1	1.284707	1.284707	0	1	0	0	CorrectCommission	0.044415	0.646979	1	0	8.055882e+01
185.139069	1.279447	city	8	1	1.347081	1.347081	0	1	0	0	CorrectCommission	0.352534	0.664975	1	0	8.047059e+01
186.471893	1.386205	city	3	1	1.339220	1.339220	0	1	0	0	CorrectCommission	0.302504	0.684299	1	0	8.038235e+01
187.831497	1.332989	city	9	1	1.076121	1.076121	0	1	0	0	CorrectCommission	1.371843	0.704430	1	0	8.029412e+01
189.151138	1.306304	city	10	1	1.054440	1.054440	0	1	0	0	CorrectCommission	1.509820	0.724728	1	0	8.020588e+01
190.457336	1.306079	city	3	1	1.205293	1.205293	0	1	0	0	CorrectCommission	0.549802	0.744552	1	0	8.011765e+01
191.756927	1.293110	city	10	1	1.075300	1.075300	0	1	0	0	CorrectCommission	1.377071	0.763353	1	0	8.002941e+01
193.089905	1.372855	city	3	1	1.261629	1.261629	0	1	0	0	CorrectCommission	0.191282	0.780630	0	0	7.994118e+01
194.416046	1.279409	city	6	1	1.242043	1.242043	0	1	0	0	CorrectCommission	0.315925	0.796063	0	0	7.985294e+01
195.708954	1.306421	city	5	1	1.178058	1.178058	0	1	0	0	CorrectCommission	0.723120	0.809461	0	0	7.976471e+01
197.021896	1.319459	city	9	1	1.257934	1.257934	0	1	0	0	CorrectCommission	0.214798	0.820774	0	0	7.967647e+01
198.361435	1.359636	city	8	1	1.079293	1.079293	0	1	0	0	CorrectCommission	1.351654	0.830165	0	0	7.958824e+01
199.694321	1.306120	city	9	1	1.663832	1.663832	0	1	0	0	CorrectCommission	2.368318	0.837967	0	0	7.950000e+01
201.007141	1.319515	city	10	1	1.151303	1.151303	0	1	0	0	CorrectCommission	0.893389	0.844656	0	0	7.941176e+01
202.306686	1.279576	city	1	1	1.361836	1.361836	0	1	0	0	CorrectCommission	0.446431	0.850832	0	0	7.932353e+01
203.626328	1.359713	city	3	1	1.201387	1.201387	0	1	0	0	CorrectCommission	0.574659	0.857018	0	0	7.923529e+01
204.952591	1.292805	mountain	6	0	0.000000	1.283127	1	0	0	0	CorrectOmission	0.054467	0.863533	0	0	7.914706e+01
206.238785	1.279585	city	2	1	1.426859	1.426859	0	1	0	0	CorrectCommission	0.860237	0.870380	0	0	7.905882e+01
207.531754	1.306351	city	1	1	1.452385	1.452385	0	1	0	0	CorrectCommission	1.022682	0.877121	0	0	7.897059e+01
208.838058	1.306266	city	3	1	1.447449	1.447449	0	1	0	0	CorrectCommission	0.991264	0.882947	0	0	7.888235e+01
210.197601	1.412834	city	5	1	1.248073	1.248073	0	1	0	0	CorrectCommission	0.277551	0.886762	0	0	7.879412e+01
211.583740	1.359435	city	4	1	1.058255	1.058255	0	1	0	0	CorrectCommission	1.485544	0.887385	0	0	7.870588e+01
212.916565	1.306202	city	5	1	0.995584	0.995584	0	1	0	0	CorrectCommission	1.884378	0.883701	0	0	7.861765e+01
214.209457	1.279592	city	2	1	1.157665	1.157665	0	1	0	0	CorrectCommission	0.852904	0.874882	0	0	7.852941e+01
215.495697	1.292887	city	1	1	1.192837	1.192837	0	1	0	0	CorrectCommission	0.629066	0.860589	0	0	7.844118e+01
216.815323	1.346373	city	8	1	1.141120	1.141120	0	1	0	0	CorrectCommission	0.958191	0.841007	0	0	7.835294e+01
218.141602	1.306170	city	7	1	1.236973	1.236973	0	1	0	0	CorrectCommission	0.348193	0.816908	0	0	7.826471e+01
219.447845	1.306327	city	8	1	1.074722	1.074722	0	1	0	0	CorrectCommission	1.380748	0.789678	0	0	7.817647e+01
220.774094	1.346181	city	2	1	1.094764	1.094764	0	1	0	0	CorrectCommission	1.253203	0.761113	1	0	7.808824e+01
221.447189	10.996260	break	0	0	0.000000	1.276853	0	0	0	0	ThoughtProbe	0.094396	0.733443	1	78	78
233.089890	1.292888	city	2	1	1.371967	1.371967	0	1	0	0	CorrectCommission	0.510907	0.709137	1	0	7.807500e+01
234.402695	1.332724	city	1	1	1.131084	1.131084	0	1	0	0	CorrectCommission	1.022060	0.690720	1	0	7.815000e+01
235.708954	1.279772	city	6	1	1.232203	1.232203	0	1	0	0	CorrectCommission	0.378549	0.680629	1	0	7.822500e+01
237.002045	1.306412	mountain	5	0	0.000000	1.338322	1	0	0	0	CorrectOmission	0.296791	0.681011	1	0	7.830000e+01
238.308273	1.306047	city	7	1	1.392031	1.392031	0	1	0	0	CorrectCommission	0.638590	0.693481	1	0	7.837500e+01
239.694397	1.466195	city	4	1	1.335916	1.335916	0	1	0	0	CorrectCommission	0.281478	0.718978	1	0	7.845000e+01
241.094009	1.333039	city	3	1	1.217501	1.217501	0	1	0	0	CorrectCommission	0.472109	0.757587	1	0	7.852500e+01
242.406998	1.292931	city	4	1	1.350472	1.350472	0	1	0	0	CorrectCommission	0.374109	0.808378	0	0	7.860000e+01
243.706497	1.306085	city	9	1	1.136920	1.136920	0	1	0	0	CorrectCommission	0.984922	0.869392	0	0	7.867500e+01
245.005997	1.292902	city	7	1	1.278215	1.278215	0	1	0	0	CorrectCommission	0.085730	0.937600	0	0	7.875000e+01
246.298981	1.293076	city	8	1	1.069449	1.069449	0	1	0	0	CorrectCommission	1.414303	1.009088	0	0	7.882500e+01
247.599274	1.307505	city	9	1	1.562787	1.562787	0	1	0	0	CorrectCommission	1.725269	1.079205	0	0	7.890000e+01
248.912170	1.318273	city	3	1	1.409665	1.409665	0	1	0	0	CorrectCommission	0.750814	1.142973	0	0	7.897500e+01
250.237686	1.332759	mountain	10	0	0.000000	1.393029	1	0	0	0	CorrectOmission	0.644938	1.195482	0	0	7.905000e+01
251.557159	1.306201	city	1	1	1.493495	1.493495	0	1	0	0	CorrectCommission	1.284303	1.232323	0	0	7.912500e+01
252.890152	1.359782	city	2	1	1.691685	1.691685	0	1	0	0	CorrectCommission	2.545569	1.250108	0	0	7.920000e+01
254.249771	1.359469	city	1	1	1.832927	1.832927	0	1	0	0	CorrectCommission	3.444425	1.246816	0	0	7.927500e+01
255.589233	1.319454	city	5	1	1.496921	1.496921	0	1	0	0	CorrectCommission	1.306106	1.222059	0	0	7.935000e+01
256.902069	1.306229	city	7	1	1.534384	1.534384	0	1	0	0	CorrectCommission	1.544516	1.177260	0	0	7.942500e+01
258.194977	1.279587	city	1	1	1.360098	1.360098	0	1	0	0	CorrectCommission	0.435371	1.115441	0	0	7.950000e+01
259.507904	1.346235	city	7	1	1.490412	1.490412	0	1	0	0	CorrectCommission	1.264680	1.040978	0	0	7.957500e+01
260.834198	1.306391	mountain	8	0	0.000000	1.509253	1	0	0	0	CorrectOmission	1.384584	0.959122	0	0	7.965000e+01
262.140442	1.306061	city	2	1	1.439980	1.439980	0	1	0	0	CorrectCommission	0.943737	0.875539	0	0	7.972500e+01
263.473297	1.359646	city	1	1	1.305953	1.305953	0	1	0	0	CorrectCommission	0.090796	0.795762	0	0	7.980000e+01
264.819611	1.332963	city	10	1	1.247987	1.247987	0	1	0	0	CorrectCommission	0.278098	0.724743	1	0	7.987500e+01
266.165771	1.359393	city	9	1	1.312526	1.312526	0	1	0	0	CorrectCommission	0.132626	0.666432	1	0	7.995000e+01
267.527039	1.363118	city	1	1	1.303441	1.303441	0	1	0	0	CorrectCommission	0.074809	0.623546	1	0	8.002500e+01
268.867798	1.318405	city	4	1	1.421189	1.421189	0	1	0	0	CorrectCommission	0.824148	0.597430	1	0	8.010000e+01
270.198975	1.343964	city	3	1	1.264515	1.264515	0	1	0	0	CorrectCommission	0.172913	0.588027	1	0	8.017500e+01
271.517334	1.292744	city	4	1	1.330694	1.330694	0	1	0	0	CorrectCommission	0.248246	0.594049	1	0	8.025000e+01
272.836853	1.346302	city	10	1	1.258683	1.258683	0	1	0	0	CorrectCommission	0.210028	0.613144	1	0	8.032500e+01
274.149780	1.279542	city	9	1	1.372133	1.372133	0	1	0	0	CorrectCommission	0.511961	0.642239	1	0	8.040000e+01
275.436005	1.292936	city	7	1	1.363755	1.363755	0	1	0	0	CorrectCommission	0.458641	0.677838	1	0	8.047500e+01
276.735657	1.306345	city	6	1	1.399497	1.399497	0	1	0	0	CorrectCommission	0.686100	0.716363	1	0	8.055000e+01
278.041901	1.306121	city	3	1	1.604761	1.604761	0	1	0	0	CorrectCommission	1.992391	0.754505	1	0	8.062500e+01
279.348053	1.306208	city	4	1	1.477904	1.477904	0	1	0	0	CorrectCommission	1.185080	0.789453	0	0	8.070000e+01
280.674347	1.346357	city	9	1	1.286733	1.286733	0	1	0	0	CorrectCommission	0.031522	0.819137	0	0	8.077500e+01
282.007233	1.319456	city	5	1	1.304642	1.304642	0	1	0	0	CorrectCommission	0.082453	0.842279	0	0	8.085000e+01
283.306763	1.279578	city	3	1	1.699013	1.699013	0	1	0	0	CorrectCommission	2.592204	0.858330	0	0	8.092500e+01
287.418732	6.944366	break	0	0	0.000000	1.566908	0	0	0	0	ThoughtProbe	1.751498	0.867402	0	81	81
291.537354	1.292891	city	1	1	1.323488	1.323488	0	1	0	0	CorrectCommission	0.202385	0.870150	0	0	8.089130e+01
292.830322	1.293063	city	10	1	1.383911	1.383911	0	1	0	0	CorrectCommission	0.586913	0.867546	0	0	8.078261e+01
294.123322	1.292913	city	5	1	1.246611	1.246611	0	1	0	0	CorrectCommission	0.286854	0.860626	0	0	8.067391e+01
295.409485	1.279398	city	7	1	1.193083	1.193083	0	1	0	0	CorrectCommission	0.627505	0.850342	0	0	8.056522e+01
296.688965	1.279578	city	2	1	1.155297	1.155297	0	1	0	0	CorrectCommission	0.867970	0.837509	0	0	8.045652e+01
297.988556	1.319580	city	8	1	1.063281	1.063281	0	1	0	0	CorrectCommission	1.453559	0.822803	0	0	8.034783e+01
299.288116	1.279565	city	2	1	1.079949	1.079949	0	1	0	0	CorrectCommission	1.347480	0.806790	0	0	8.023913e+01
300.574432	1.293087	city	1	1	1.162399	1.162399	0	1	0	0	CorrectCommission	0.822777	0.790019	0	0	8.013043e+01
301.867432	1.292905	city	9	1	1.259309	1.259309	0	1	0	0	CorrectCommission	0.206045	0.773094	0	0	8.002174e+01
303.153687	1.279591	city	5	1	1.210291	1.210291	0	1	0	0	CorrectCommission	0.517996	0.756677	1	0	7.991304e+01
304.433258	1.279576	city	6	1	1.441442	1.441442	0	1	0	0	CorrectCommission	0.953037	0.741476	1	0	7.980435e+01
305.712769	1.279408	city	9	1	1.082037	1.082037	0	1	0	0	CorrectCommission	1.334192	0.728162	1	0	7.969565e+01
306.992340	1.279733	city	4	1	1.323053	1.323053	0	1	0	0	CorrectCommission	0.199618	0.717282	1	0	7.958696e+01
308.291992	1.319565	city	5	1	1.323519	1.323519	0	1	0	0	CorrectCommission	0.202583	0.709178	1	0	7.947826e+01
309.598206	1.292889	mountain	1	0	0.000000	1.391663	1	0	0	0	CorrectOmission	0.636249	0.703854	1	0	7.936957e+01
310.884460	1.279604	mountain	7	0	0.000000	1.455612	1	0	0	0	CorrectOmission	1.043219	0.700959	1	0	7.926087e+01
312.164062	1.279579	city	2	1	1.443494	1.443494	0	1	0	0	CorrectCommission	0.966098	0.699755	1	0	7.915217e+01
313.443573	1.279481	city	8	1	1.283435	1.283435	0	1	0	0	CorrectCommission	0.052510	0.699252	1	0	7.904348e+01
314.723083	1.279531	city	5	1	1.315202	1.315202	0	1	0	0	CorrectCommission	0.149655	0.698384	1	0	7.893478e+01
316.002625	1.279553	mountain	2	0	0.000000	1.385627	1	0	0	0	CorrectOmission	0.597832	0.696163	1	0	7.882609e+01
317.282288	1.279766	city	8	1	1.507789	1.507789	0	1	0	0	CorrectCommission	1.375266	0.691890	1	0	7.871739e+01
318.575317	1.306269	city	9	1	1.694770	1.694770	0	1	0	0	CorrectCommission	2.565203	0.685325	1	0	7.860870e+01
319.868164	1.279475	city	2	1	1.316633	1.316633	0	1	0	0	CorrectCommission	0.158760	0.676804	1	0	7.850000e+01
321.147644	1.279464	city	8	1	1.300305	1.300305	0	1	0	0	CorrectCommission	0.054854	0.667271	1	0	7.839130e+01
322.427155	1.279576	city	1	1	1.342601	1.342601	0	1	0	0	CorrectCommission	0.324021	0.658020	1	0	7.828261e+01
323.706757	1.279585	city	10	1	1.391006	1.391006	0	1	0	0	CorrectCommission	0.632069	0.650550	1	0	7.817391e+01
324.986420	1.279755	city	6	1	1.390268	1.390268	0	1	0	0	CorrectCommission	0.627373	0.646300	1	0	7.806522e+01
326.272736	1.292911	city	3	1	1.175279	1.175279	0	1	0	0	CorrectCommission	0.740808	0.646390	1	0	7.795652e+01
327.558990	1.279580	city	7	1	1.375839	1.375839	0	1	0	0	CorrectCommission	0.535543	0.651445	1	0	7.784783e+01
328.871796	1.346046	city	2	1	1.224500	1.224500	0	1	0	0	CorrectCommission	0.427571	0.661521	1	0	7.773913e+01
330.191376	1.293066	city	7	1	1.297061	1.297061	0	1	0	0	CorrectCommission	0.034205	0.676100	1	0	7.763043e+01
331.477692	1.279590	city	4	1	1.283876	1.283876	0	1	0	0	CorrectCommission	0.049703	0.694238	1	0	7.752174e+01
332.757294	1.279594	city	6	1	1.176983	1.176983	0	1	0	0	CorrectCommission	0.729966	0.714725	1	0	7.741304e+01
334.036804	1.279449	city	1	1	1.074143	1.074143	0	1	0	0	CorrectCommission	1.384431	0.736310	1	0	7.730435e+01
335.316376	1.279708	city	8	1	0.925941	0.925941	0	1	0	0	CorrectCommission	2.327581	0.757935	1	0	7.719565e+01
336.595947	1.279435	city	7	1	1.122309	1.122309	0	1	0	0	CorrectCommission	1.077903	0.778835	0	0	7.708696e+01
337.875458	1.279540	mountain	1	0	0.000000	1.281811	1	0	0	0	CorrectOmission	0.062841	0.798577	0	0	7.697826e+01
339.175049	1.319692	city	2	1	1.342711	1.342711	0	1	0	0	CorrectCommission	0.324719	0.816991	0	0	7.686957e+01
340.481293	1.292772	city	7	1	1.243272	1.243272	0	1	0	0	CorrectCommission	0.308107	0.833979	0	0	7.676087e+01
341.767487	1.279626	city	10	1	1.071022	1.071022	0	1	0	0	CorrectCommission	1.404294	0.849487	0	0	7.665217e+01
343.047150	1.279664	city	5	1	1.337754	1.337754	0	1	0	0	CorrectCommission	0.293177	0.863370	0	0	7.654348e+01
344.326813	1.279673	city	4	1	1.337174	1.337174	0	1	0	0	CorrectCommission	0.289482	0.875499	0	0	7.643478e+01
345.606323	1.279352	city	8	1	1.025248	1.025248	0	1	0	0	CorrectCommission	1.695596	0.885800	0	0	7.632609e+01
346.885803	1.279605	city	9	1	1.177629	1.177629	0	1	0	0	CorrectCommission	0.725849	0.894419	0	0	7.621739e+01
348.165436	1.279679	city	8	1	0.962406	0.962406	0	1	0	0	CorrectCommission	2.095519	0.901952	0	0	7.610870e+01
351.617706	5.624853	break	0	0	0.000000	1.013046	0	0	0	0	ThoughtProbe	1.773247	0.909365	0	76	76
355.069824	1.279419	city	9	1	1.178270	1.178270	0	1	0	0	CorrectCommission	0.721772	0.917949	0	0	7.605882e+01
356.349335	1.279582	mountain	4	0	0.000000	1.306798	1	0	0	0	CorrectOmission	0.096174	0.929069	0	0	7.611765e+01
357.628998	1.279736	city	3	1	1.356034	1.356034	0	1	0	0	CorrectCommission	0.409509	0.943801	0	0	7.617647e+01
358.908630	1.279507	city	10	1	1.283382	1.283382	0	1	0	0	CorrectCommission	0.052845	0.962616	0	0	7.623529e+01
360.194794	1.292855	city	5	1	1.457279	1.457279	0	1	0	0	CorrectCommission	1.053824	0.985145	0	0	7.629412e+01
361.481079	1.279697	city	4	1	1.390209	1.390209	0	1	0	0	CorrectCommission	0.626993	1.010054	0	0	7.635294e+01
362.760712	1.279588	city	1	1	1.143626	1.143626	0	1	0	0	CorrectCommission	0.942248	1.035213	0	0	7.641176e+01
364.046967	1.292931	city	5	1	1.070214	1.070214	0	1	0	0	CorrectCommission	1.409435	1.057976	0	0	7.647059e+01
365.333252	1.279584	city	3	1	1.618268	1.618268	0	1	0	0	CorrectCommission	2.078352	1.075629	0	0	7.652941e+01
366.619415	1.292741	city	10	1	1.136987	1.136987	0	1	0	0	CorrectCommission	0.984495	1.085920	0	0	7.658824e+01
367.912231	1.292923	city	9	1	0.983241	0.983241	0	1	0	0	CorrectCommission	1.962925	1.087493	0	0	7.664706e+01
369.198486	1.279610	city	7	1	1.186266	1.186266	0	1	0	0	CorrectCommission	0.670887	1.080170	0	0	7.670588e+01
370.491486	1.306354	city	8	1	1.018870	1.018870	0	1	0	0	CorrectCommission	1.736187	1.065127	0	0	7.676471e+01
371.791016	1.292721	city	9	1	1.059521	1.059521	0	1	0	0	CorrectCommission	1.477488	1.044642	0	0	7.682353e+01
373.077179	1.279600	city	10	1	1.083819	1.083819	0	1	0	0	CorrectCommission	1.322851	1.021826	0	0	7.688235e+01
374.356781	1.279604	city	5	1	1.314649	1.314649	0	1	0	0	CorrectCommission	0.146133	1.000066	0	0	7.694118e+01
375.636444	1.279698	city	9	1	1.158754	1.158754	0	1	0	0	CorrectCommission	0.845973	0.982508	0	0	77
376.922729	1.292917	city	2	1	1.350071	1.350071	0	1	0	0	CorrectCommission	0.371557	0.971390	0	0	7.705882e+01
378.215576	1.292733	mountain	3	0	0.000000	1.397742	1	0	0	0	CorrectOmission	0.674934	0.967672	0	0	7.711765e+01
379.501709	1.279580	city	3	1	1.338187	1.338187	0	1	0	0	CorrectCommission	0.295930	0.970844	0	0	7.717647e+01
380.794647	1.306271	city	8	1	1.207825	1.207825	0	1	0	0	CorrectCommission	0.533688	0.978955	0	0	7.723529e+01
382.087555	1.279544	city	7	1	1.296439	1.296439	0	1	0	0	CorrectCommission	0.030246	0.988953	0	0	7.729412e+01
383.373810	1.292971	city	6	1	1.025709	1.025709	0	1	0	0	CorrectCommission	1.692664	0.997276	0	0	7.735294e+01
384.660156	1.279734	city	4	1	0.932480	0.932480	0	1	0	0	CorrectCommission	2.285968	1.000440	0	0	7.741176e+01
385.939789	1.279522	city	8	1	0.908163	0.908163	0	1	0	0	CorrectCommission	2.440716	0.995733	0	0	7.747059e+01
387.219360	1.279595	city	10	1	1.076616	1.076616	0	1	0	0	CorrectCommission	1.368691	0.981688	0	0	7.752941e+01
388.498932	1.279573	city	1	1	1.123563	1.123563	0	1	0	0	CorrectCommission	1.069922	0.958313	0	0	7.758824e+01
389.778534	1.279597	city	8	1	1.353273	1.353273	0	1	0	0	CorrectCommission	0.391934	0.927058	0	0	7.764706e+01
391.064697	1.292774	city	10	1	1.083667	1.083667	0	1	0	0	CorrectCommission	1.323822	0.890573	0	0	7.770588e+01
392.350861	1.279543	city	1	1	1.237451	1.237451	0	1	0	0	CorrectCommission	0.345151	0.852223	0	0	7.776471e+01
393.630432	1.279619	city	6	1	1.354564	1.354564	0	1	0	0	CorrectCommission	0.400154	0.815646	0	0	7.782353e+01
394.910126	1.279740	city	4	1	1.398142	1.398142	0	1	0	0	CorrectCommission	0.677483	0.784219	0	0	7.788235e+01
396.189758	1.279552	city	1	1	1.337602	1.337602	0	1	0	0	CorrectCommission	0.292209	0.760692	1	0	7.794118e+01
399.988495	6.317885	break	0	0	0.000000	1.293306	0	0	0	0	ThoughtProbe	0.010309	0.747041	1	78	78
403.820557	1.346221	city	6	1	1.214971	1.214971	0	1	0	0	CorrectCommission	0.488208	0.744339	1	0	7.790000e+01
405.173431	1.359581	city	9	1	1.052317	1.052317	0	1	0	0	CorrectCommission	1.523330	0.752840	1	0	7.780000e+01
406.526276	1.346056	city	3	1	1.201610	1.201610	0	1	0	0	CorrectCommission	0.573235	0.772092	0	0	7.770000e+01
407.845734	1.292890	mountain	5	0	0.000000	1.401317	1	0	0	0	CorrectOmission	0.697688	0.801111	0	0	7.760000e+01
409.138641	1.292911	city	5	1	1.514881	1.514881	0	1	0	0	CorrectCommission	1.420402	0.838396	0	0	7.750000e+01
410.444946	1.319731	city	9	1	1.405746	1.405746	0	1	0	0	CorrectCommission	0.725874	0.881987	0	0	7.740000e+01
411.764526	1.319402	city	7	1	1.288726	1.288726	0	1	0	0	CorrectCommission	0.018840	0.929493	0	0	7.730000e+01
413.097351	1.346224	city	4	1	1.236925	1.236925	0	1	0	0	CorrectCommission	0.348497	0.978090	0	0	7.720000e+01
414.410339	1.279802	city	3	1	1.370705	1.370705	0	1	0	0	CorrectCommission	0.502873	1.024556	0	0	7.710000e+01
415.709991	1.319466	city	1	1	1.008408	1.008408	0	1	0	0	CorrectCommission	1.802767	1.065502	0	0	77
417.029541	1.319618	mountain	8	0	0.000000	0.962497	1	0	0	0	CorrectOmission	2.094941	1.097527	0	0	7.690000e+01
418.349091	1.319509	city	8	1	1.066558	1.066558	0	1	0	0	CorrectCommission	1.432702	1.117639	0	0	7.680000e+01
419.661957	1.306251	city	6	1	1.154176	1.154176	0	1	0	0	CorrectCommission	0.875108	1.123591	0	0	7.670000e+01
420.974823	1.319447	city	9	1	1.039264	1.039264	0	1	0	0	CorrectCommission	1.606402	1.114164	0	0	7.660000e+01
422.287659	1.306252	city	2	1	0.983747	0.983747	0	1	0	0	CorrectCommission	1.959709	1.089325	0	0	7.650000e+01
423.580658	1.279736	mountain	1	1	1.687555	1.687555	0	0	1	0	CommissionError	2.519286	1.050282	0	0	7.640000e+01
424.873566	1.306070	city	6	1	1.363443	1.363443	0	1	0	0	CorrectCommission	0.456657	0.999301	0	0	7.630000e+01
426.179718	1.306222	city	5	1	1.359963	1.359963	0	1	0	0	CorrectCommission	0.434511	0.939520	0	0	7.620000e+01
427.525970	1.386302	city	2	1	1.202798	1.202798	0	1	0	0	CorrectCommission	0.565680	0.874475	0	0	7.610000e+01
428.892303	1.346382	city	3	1	1.247446	1.247446	0	1	0	0	CorrectCommission	0.281538	0.807757	0	0	76
430.231903	1.332800	city	9	1	1.193603	1.193603	0	1	0	0	CorrectCommission	0.624193	0.742707	1	0	7.590000e+01
431.571350	1.346073	city	4	1	1.474429	1.474429	0	1	0	0	CorrectCommission	1.162968	0.682144	1	0	7.580000e+01
432.924164	1.359542	city	3	1	1.253545	1.253545	0	1	0	0	CorrectCommission	0.242724	0.628182	1	0	7.570000e+01
434.283752	1.359681	city	9	1	1.196737	1.196737	0	1	0	0	CorrectCommission	0.604249	0.582268	1	0	7.560000e+01
435.623352	1.319493	city	8	1	1.226666	1.226666	0	1	0	0	CorrectCommission	0.413781	0.545170	1	0	7.550000e+01
436.929596	1.292973	city	10	1	1.246464	1.246464	0	1	0	0	CorrectCommission	0.287792	0.517119	1	0	7.540000e+01
438.235901	1.319639	city	3	1	1.255309	1.255309	0	1	0	0	CorrectCommission	0.231502	0.497905	1	0	7.530000e+01
439.555389	1.319375	city	8	1	1.301976	1.301976	0	1	0	0	CorrectCommission	0.065484	0.487010	1	0	7.520000e+01
440.861603	1.293066	city	10	1	1.124411	1.124411	0	1	0	0	CorrectCommission	1.064531	0.483744	1	0	7.510000e+01
442.195526	1.374763	city	6	1	1.297103	1.297103	0	1	0	0	CorrectCommission	0.034475	0.487292	1	0	75
443.521759	1.277725	city	9	1	1.336014	1.336014	0	1	0	0	CorrectCommission	0.282100	0.496829	1	0	7.490000e+01
444.813721	1.306200	city	4	1	1.398942	1.398942	0	1	0	0	CorrectCommission	0.682568	0.511513	1	0	7.480000e+01
446.133209	1.332762	city	8	1	1.217369	1.217369	0	1	0	0	CorrectCommission	0.472949	0.530488	1	0	7.470000e+01
447.452789	1.306399	city	4	1	1.429441	1.429441	0	1	0	0	CorrectCommission	0.876667	0.552908	1	0	7.460000e+01
448.805756	1.399539	city	2	1	1.410062	1.410062	0	1	0	0	CorrectCommission	0.753337	0.577850	1	0	7.450000e+01
450.171997	1.332893	city	10	1	1.241687	1.241687	0	1	0	0	CorrectCommission	0.318188	0.604288	1	0	7.440000e+01
451.531433	1.386035	city	9	1	1.250568	1.250568	0	1	0	0	CorrectCommission	0.261674	0.631120	1	0	7.430000e+01
452.904327	1.359727	city	5	1	1.269400	1.269400	0	1	0	0	CorrectCommission	0.141827	0.657149	1	0	7.420000e+01
454.250549	1.332716	city	4	1	1.313577	1.313577	0	1	0	0	CorrectCommission	0.139313	0.681236	1	0	7.410000e+01
456.996246	4.158659	break	0	0	0.000000	1.535804	0	0	0	0	ThoughtProbe	1.553557	0.702431	1	74	74
459.715363	1.279610	city	7	1	1.636936	1.636936	0	1	0	0	CorrectCommission	2.197152	0.720054	1	0	7.397826e+01
461.041687	1.372998	city	1	1	1.317824	1.317824	0	1	0	0	CorrectCommission	0.166344	0.733886	1	0	7.395652e+01
462.381226	1.306072	city	5	1	1.099824	1.099824	0	1	0	0	CorrectCommission	1.221000	0.744244	1	0	7.393478e+01
463.700745	1.332979	mountain	3	0	0.000000	1.209716	1	0	0	0	CorrectOmission	0.521650	0.751814	1	0	7.391304e+01
465.006958	1.279487	city	8	1	1.398141	1.398141	0	1	0	0	CorrectCommission	0.677475	0.757627	1	0	7.389130e+01
466.306580	1.319757	city	1	1	1.415737	1.415737	0	1	0	0	CorrectCommission	0.789457	0.762793	1	0	7.386957e+01
467.606140	1.279311	city	9	1	1.267667	1.267667	0	1	0	0	CorrectCommission	0.152855	0.768332	1	0	7.384783e+01
468.892365	1.293172	city	2	1	1.211970	1.211970	0	1	0	0	CorrectCommission	0.507311	0.774994	0	0	7.382609e+01
470.205292	1.332706	city	9	1	1.115876	1.115876	0	1	0	0	CorrectCommission	1.118847	0.783133	0	0	7.380435e+01
471.538208	1.333094	mountain	1	0	0.000000	1.302484	1	0	0	0	CorrectOmission	0.068717	0.792756	0	0	7.378261e+01
472.871185	1.332854	city	7	1	1.498016	1.498016	0	1	0	0	CorrectCommission	1.313074	0.803629	0	0	7.376087e+01
474.190735	1.306270	city	3	1	1.428694	1.428694	0	1	0	0	CorrectCommission	0.871915	0.815354	0	0	7.373913e+01
475.523651	1.359548	city	4	1	1.532215	1.532215	0	1	0	0	CorrectCommission	1.530715	0.827596	0	0	7.371739e+01
476.909790	1.412708	city	9	1	1.417313	1.417313	0	1	0	0	CorrectCommission	0.799482	0.840138	0	0	7.369565e+01
478.276001	1.319722	city	5	1	1.329964	1.329964	0	1	0	0	CorrectCommission	0.243602	0.852988	0	0	7.367391e+01
479.602295	1.332892	city	9	1	1.519028	1.519028	0	1	0	0	CorrectCommission	1.446789	0.866290	0	0	7.365217e+01
480.928436	1.319388	city	7	1	1.151417	1.151417	0	1	0	0	CorrectCommission	0.892663	0.880199	0	0	7.363043e+01
482.234589	1.292910	mountain	8	0	0.000000	1.298378	1	0	0	0	CorrectOmission	0.042587	0.894786	0	0	7.360870e+01
483.520874	1.279656	city	3	1	1.516813	1.516813	0	1	0	0	CorrectCommission	1.432693	0.909829	0	0	7.358696e+01
484.827118	1.332824	city	5	1	1.363624	1.363624	0	1	0	0	CorrectCommission	0.457811	0.924670	0	0	7.356522e+01
486.159973	1.332896	city	10	1	1.388302	1.388302	0	1	0	0	CorrectCommission	0.614858	0.938242	0	0	7.354348e+01
487.472870	1.292897	city	1	1	1.485750	1.485750	0	1	0	0	CorrectCommission	1.235011	0.949048	0	0	7.352174e+01
488.772430	1.306240	city	10	1	1.483002	1.483002	0	1	0	0	CorrectCommission	1.217523	0.955330	0	0	7.350000e+01
490.085327	1.319563	mountain	5	0	0.000000	1.448487	1	0	0	0	CorrectOmission	0.997871	0.955350	0	0	7.347826e+01
491.398254	1.306261	city	5	1	1.453972	1.453972	0	1	0	0	CorrectCommission	1.032777	0.947574	0	0	7.345652e+01
492.737885	1.373009	city	4	1	1.571224	1.571224	0	1	0	0	CorrectCommission	1.778967	0.930994	0	0	7.343478e+01
494.104095	1.359428	city	9	1	1.502346	1.502346	0	1	0	0	CorrectCommission	1.340626	0.905266	0	0	7.341304e+01
495.437042	1.306429	city	4	1	1.341740	1.341740	0	1	0	0	CorrectCommission	0.318538	0.870881	0	0	7.339130e+01
496.776672	1.372825	city	10	1	1.151041	1.151041	0	1	0	0	CorrectCommission	0.895059	0.829222	0	0	7.336957e+01
498.116211	1.306271	city	5	1	1.575515	1.575515	0	1	0	0	CorrectCommission	1.806275	0.782405	0	0	7.334783e+01
499.482452	1.426193	city	7	1	1.372053	1.372053	0	1	0	0	CorrectCommission	0.511454	0.733139	1	0	7.332609e+01
500.861938	1.332820	city	8	1	1.234393	1.234393	0	1	0	0	CorrectCommission	0.364609	0.684586	1	0	7.330435e+01
502.201508	1.346297	city	1	1	1.250648	1.250648	0	1	0	0	CorrectCommission	0.261164	0.639993	1	0	7.328261e+01
503.514435	1.279554	city	6	1	1.368202	1.368202	0	1	0	0	CorrectCommission	0.486942	0.602483	1	0	7.326087e+01
504.860626	1.412837	city	8	1	1.291442	1.291442	0	1	0	0	CorrectCommission	0.001552	0.574830	1	0	7.323913e+01
506.226868	1.319619	city	3	1	1.204249	1.204249	0	1	0	0	CorrectCommission	0.556444	0.559302	1	0	7.321739e+01
507.546356	1.319397	city	4	1	1.216930	1.216930	0	1	0	0	CorrectCommission	0.475745	0.557539	1	0	7.319565e+01
508.865845	1.319556	city	2	1	1.297380	1.297380	0	1	0	0	CorrectCommission	0.036236	0.570510	1	0	7.317391e+01
510.178741	1.306264	city	6	1	1.400920	1.400920	0	1	0	0	CorrectCommission	0.695159	0.598517	1	0	7.315217e+01
511.558289	1.452824	city	9	1	1.249592	1.249592	0	1	0	0	CorrectCommission	0.267885	0.641224	1	0	7.313043e+01
512.964478	1.359550	city	6	1	1.331054	1.331054	0	1	0	0	CorrectCommission	0.250534	0.697704	1	0	7.310870e+01
514.304138	1.319810	city	1	1	1.160041	1.160041	0	1	0	0	CorrectCommission	0.837783	0.766521	1	0	7.308696e+01
515.637024	1.345916	city	3	1	1.178753	1.178753	0	1	0	0	CorrectCommission	0.718696	0.845756	0	0	7.306522e+01
516.969788	1.319672	city	7	1	1.254090	1.254090	0	1	0	0	CorrectCommission	0.239258	0.933143	0	0	7.304348e+01
518.282837	1.306380	city	3	1	1.017596	1.017596	0	1	0	0	CorrectCommission	1.744295	1.026147	0	0	7.302174e+01
518.936035	12.635804	break	0	0	1.115382	1.115382	0	0	0	0	ThoughtProbe	1.121987	1.121987	0	73	73
