onset	duration	trial_type	image_type	Press	ReactionTime	ReactionTime_Interpolated	CorrectOmission	CorrectCommission	CommissionError	OmissionError	response_type	nonsmoothVarianceTimeCourse	VarianceTimeCourse	In_the_Zone	ThoughtProbe	ThoughtProbe_Interpolated
0.653006	1.279558	city	2	1	1.749828	1.749828	0	1	0	0	CorrectCommission	0.884359	0.884359	0	0	66
1.939194	1.292819	city	5	1	1.350449	1.350449	0	1	0	0	CorrectCommission	0.675532	0.804026	0	0	66
3.225353	1.279499	mountain	6	0	0.000000	1.362107	1	0	0	0	CorrectOmission	0.629997	0.726495	0	0	66
4.504900	1.279593	city	8	1	1.478026	1.478026	0	1	0	0	CorrectCommission	0.177243	0.654371	1	0	66
5.784574	1.279756	city	5	1	1.391428	1.391428	0	1	0	0	CorrectCommission	0.515475	0.589903	1	0	66
7.066794	1.284686	city	4	1	1.514194	1.514194	0	1	0	0	CorrectCommission	0.035976	0.534814	1	0	66
8.346373	1.274470	city	5	1	1.447365	1.447365	0	1	0	0	CorrectCommission	0.296997	0.490254	1	0	66
9.623396	1.279576	city	1	1	1.342675	1.342675	0	1	0	0	CorrectCommission	0.705895	0.456719	1	0	66
10.916291	1.306215	city	9	1	1.622908	1.622908	0	1	0	0	CorrectCommission	0.388635	0.434049	1	0	66
12.215864	1.292930	city	10	1	1.528121	1.528121	0	1	0	0	CorrectCommission	0.018418	0.421499	1	0	66
13.502028	1.279399	city	5	1	1.449610	1.449610	0	1	0	0	CorrectCommission	0.288228	0.417803	1	0	66
14.781600	1.279744	city	10	1	1.498316	1.498316	0	1	0	0	CorrectCommission	0.097995	0.421263	1	0	66
16.061258	1.279571	city	4	1	1.618417	1.618417	0	1	0	0	CorrectCommission	0.371097	0.429921	1	0	66
17.340843	1.279602	city	3	1	1.497444	1.497444	0	1	0	0	CorrectCommission	0.101401	0.441709	1	0	66
18.620424	1.279558	city	1	1	1.367511	1.367511	0	1	0	0	CorrectCommission	0.608891	0.454656	1	0	66
19.906654	1.292903	city	3	1	1.247111	1.247111	0	1	0	0	CorrectCommission	1.079149	0.467038	1	0	66
21.199575	1.292937	city	2	1	1.353992	1.353992	0	1	0	0	CorrectCommission	0.661691	0.477526	1	0	66
22.492493	1.292899	city	3	1	1.404650	1.404650	0	1	0	0	CorrectCommission	0.463833	0.485287	1	0	66
23.798721	1.319558	city	9	1	1.229815	1.229815	0	1	0	0	CorrectCommission	1.146701	0.489946	1	0	66
25.098295	1.279592	city	2	1	1.654645	1.654645	0	1	0	0	CorrectCommission	0.512595	0.491498	1	0	66
26.377872	1.279561	city	4	1	1.554761	1.554761	0	1	0	0	CorrectCommission	0.122470	0.490222	1	0	66
27.657370	1.279435	mountain	4	0	0.000000	1.549095	1	0	0	0	CorrectOmission	0.100337	0.486477	1	0	66
28.936975	1.279777	city	5	1	1.573269	1.573269	0	1	0	0	CorrectCommission	0.194757	0.480594	1	0	66
30.216625	1.279522	city	7	1	1.562908	1.562908	0	1	0	0	CorrectCommission	0.154291	0.472813	1	0	66
31.496103	1.279435	city	9	1	1.340054	1.340054	0	1	0	0	CorrectCommission	0.716130	0.463295	1	0	66
32.775696	1.279745	city	6	1	1.205021	1.205021	0	1	0	0	CorrectCommission	1.243543	0.452201	1	0	66
34.055347	1.279560	city	9	1	1.714473	1.714473	0	1	0	0	CorrectCommission	0.746272	0.439772	1	0	66
35.341583	1.292908	city	2	1	1.562921	1.562921	0	1	0	0	CorrectCommission	0.154342	0.426452	1	0	66
36.627823	1.279576	city	7	1	1.387805	1.387805	0	1	0	0	CorrectCommission	0.529626	0.412913	1	0	66
37.920666	1.306106	city	4	1	1.640083	1.640083	0	1	0	0	CorrectCommission	0.455720	0.399978	1	0	66
39.213524	1.279613	city	7	1	1.565999	1.565999	0	1	0	0	CorrectCommission	0.166362	0.388580	1	0	66
40.493168	1.279674	city	6	1	1.508150	1.508150	0	1	0	0	CorrectCommission	0.059584	0.379601	1	0	66
41.779385	1.292757	city	2	1	1.431437	1.431437	0	1	0	0	CorrectCommission	0.359211	0.373711	1	0	66
42.425762	9.890241	break	0	0	0.000000	1.474970	0	0	0	0	ThoughtProbe	0.189178	0.371253	1	66	66
52.955791	1.279573	city	7	1	1.550957	1.550957	0	1	0	0	CorrectCommission	0.107610	0.372161	1	0	6.625000e+01
54.235394	1.279636	mountain	1	1	1.571604	1.571604	0	0	1	0	CommissionError	0.188252	0.375972	1	0	6.650000e+01
55.514912	1.279399	city	9	1	1.300037	1.300037	0	1	0	0	CorrectCommission	0.872430	0.381899	1	0	6.675000e+01
56.801125	1.293026	city	10	1	1.511924	1.511924	0	1	0	0	CorrectCommission	0.044842	0.388922	1	0	67
58.087387	1.279497	mountain	3	0	0.000000	1.671703	1	0	0	0	CorrectOmission	0.579221	0.396009	1	0	6.725000e+01
59.366894	1.279520	city	10	1	1.729924	1.729924	0	1	0	0	CorrectCommission	0.806619	0.402216	1	0	6.750000e+01
60.646526	1.279744	city	2	1	1.637137	1.637137	0	1	0	0	CorrectCommission	0.444214	0.406836	1	0	6.775000e+01
61.932854	1.292912	city	8	1	1.441433	1.441433	0	1	0	0	CorrectCommission	0.320165	0.409510	1	0	68
63.245663	1.332708	city	4	1	1.621005	1.621005	0	1	0	0	CorrectCommission	0.381203	0.410240	1	0	6.825000e+01
64.551834	1.279636	city	6	1	1.461730	1.461730	0	1	0	0	CorrectCommission	0.240891	0.409351	1	0	6.850000e+01
65.831512	1.279714	city	3	1	1.726104	1.726104	0	1	0	0	CorrectCommission	0.791697	0.407440	1	0	6.875000e+01
67.111069	1.279407	city	2	1	1.660266	1.660266	0	1	0	0	CorrectCommission	0.534547	0.405271	1	0	69
68.390564	1.279579	city	8	1	1.516514	1.516514	0	1	0	0	CorrectCommission	0.026916	0.403659	1	0	6.925000e+01
69.670143	1.279574	city	9	1	1.689716	1.689716	0	1	0	0	CorrectCommission	0.649573	0.403364	1	0	6.950000e+01
70.956467	1.293075	city	5	1	1.502918	1.502918	0	1	0	0	CorrectCommission	0.080020	0.404957	1	0	6.975000e+01
72.256035	1.306057	city	9	1	1.444914	1.444914	0	1	0	0	CorrectCommission	0.306572	0.408825	1	0	70
73.548851	1.279576	city	1	1	1.509051	1.509051	0	1	0	0	CorrectCommission	0.056063	0.415071	1	0	7.025000e+01
74.841835	1.306400	city	5	1	1.642285	1.642285	0	1	0	0	CorrectCommission	0.464321	0.423566	1	0	7.050000e+01
76.134834	1.279598	city	9	1	1.734058	1.734058	0	1	0	0	CorrectCommission	0.822766	0.434008	1	0	7.075000e+01
77.414429	1.279581	city	6	1	1.612168	1.612168	0	1	0	0	CorrectCommission	0.346687	0.445985	1	0	71
78.693993	1.279558	city	2	1	1.567636	1.567636	0	1	0	0	CorrectCommission	0.172754	0.459061	1	0	7.125000e+01
79.973488	1.279427	city	8	1	1.254962	1.254962	0	1	0	0	CorrectCommission	1.048484	0.472838	1	0	7.150000e+01
81.253006	1.279603	mountain	4	0	0.000000	1.406069	1	0	0	0	CorrectOmission	0.458293	0.487000	1	0	7.175000e+01
82.532578	1.279547	city	10	1	1.609200	1.609200	0	1	0	0	CorrectCommission	0.335097	0.501371	1	0	72
83.812141	1.279580	city	8	1	1.452602	1.452602	0	1	0	0	CorrectCommission	0.276542	0.515867	1	0	7.225000e+01
85.091721	1.279580	city	5	1	1.418622	1.418622	0	1	0	0	CorrectCommission	0.409264	0.530487	1	0	7.250000e+01
86.371384	1.279739	city	2	1	1.337849	1.337849	0	1	0	0	CorrectCommission	0.724746	0.545259	1	0	7.275000e+01
87.650993	1.279491	city	8	1	1.294641	1.294641	0	1	0	0	CorrectCommission	0.893504	0.560195	1	0	73
88.930489	1.279499	city	5	1	1.462612	1.462612	0	1	0	0	CorrectCommission	0.237447	0.575248	1	0	7.325000e+01
90.210114	1.279749	city	4	1	1.614494	1.614494	0	1	0	0	CorrectCommission	0.355775	0.590273	1	0	7.350000e+01
91.490166	1.280347	city	5	1	1.231618	1.231618	0	1	0	0	CorrectCommission	1.139661	0.605002	1	0	7.375000e+01
92.769661	1.278657	city	7	1	1.662094	1.662094	0	1	0	0	CorrectCommission	0.541687	0.618982	1	0	74
94.048790	1.279599	city	3	1	1.297060	1.297060	0	1	0	0	CorrectCommission	0.884057	0.631673	1	0	7.425000e+01
95.328384	1.279579	city	4	1	1.498904	1.498904	0	1	0	0	CorrectCommission	0.095697	0.642428	1	0	7.450000e+01
96.621284	1.306224	city	9	1	1.338147	1.338147	0	1	0	0	CorrectCommission	0.723578	0.650686	1	0	7.475000e+01
97.920921	1.293052	city	3	1	1.474015	1.474015	0	1	0	0	CorrectCommission	0.192909	0.656033	1	0	75
99.213898	1.292902	city	10	1	1.469610	1.469610	0	1	0	0	CorrectCommission	0.210111	0.658413	1	0	7.525000e+01
100.506737	1.292781	city	7	1	2.008956	2.008956	0	1	0	0	CorrectCommission	1.896461	0.658247	1	0	7.550000e+01
101.792984	1.279714	city	9	0	0.000000	1.996495	0	0	0	1	OmissionError	1.847787	0.656478	1	0	7.575000e+01
102.432846	8.583837	break	0	0	0.000000	1.727564	0	0	0	0	ThoughtProbe	0.797400	0.654578	1	76	76
111.656471	1.279573	city	8	1	1.497503	1.497503	0	1	0	0	CorrectCommission	0.101168	0.654364	1	0	7.570588e+01
112.936058	1.279612	city	9	1	1.601652	1.601652	0	1	0	0	CorrectCommission	0.305614	0.657703	1	0	7.541176e+01
114.215645	1.279552	city	3	1	1.494851	1.494851	0	1	0	0	CorrectCommission	0.111528	0.666129	1	0	7.511765e+01
115.495232	1.279634	city	9	1	1.451891	1.451891	0	1	0	0	CorrectCommission	0.279318	0.680507	1	0	7.482353e+01
116.774826	1.279545	city	1	1	1.511763	1.511763	0	1	0	0	CorrectCommission	0.045472	0.700826	0	0	7.452941e+01
118.054459	1.279728	city	8	1	1.570423	1.570423	0	1	0	0	CorrectCommission	0.183641	0.726101	0	0	7.423529e+01
119.334030	1.279411	mountain	4	0	0.000000	1.786640	1	0	0	0	CorrectOmission	1.028138	0.754501	0	0	7.394118e+01
120.613441	1.279418	city	2	1	1.809581	1.809581	0	1	0	0	CorrectCommission	1.117741	0.783602	0	0	7.364706e+01
121.912949	1.319585	city	7	0	0.000000	1.288413	0	0	0	1	OmissionError	0.917830	0.810830	0	0	7.335294e+01
123.212601	1.279724	city	4	1	0.913846	0.913846	0	1	0	0	CorrectCommission	2.380811	0.833805	0	0	7.305882e+01
124.505516	1.306103	city	7	1	1.376588	1.376588	0	1	0	0	CorrectCommission	0.573439	0.850694	0	0	7.276471e+01
125.805016	1.292895	city	10	1	1.249756	1.249756	0	1	0	0	CorrectCommission	1.068819	0.860500	0	0	7.247059e+01
127.091324	1.279724	city	9	1	1.471318	1.471318	0	1	0	0	CorrectCommission	0.203441	0.863001	0	0	7.217647e+01
128.370987	1.279620	mountain	2	0	0.000000	1.828965	1	0	0	0	CorrectOmission	1.193450	0.858787	0	0	7.188235e+01
129.657166	1.292707	city	1	1	1.989205	1.989205	0	1	0	0	CorrectCommission	1.819315	0.848982	0	0	7.158824e+01
130.950043	1.293066	city	8	1	1.618549	1.618549	0	1	0	0	CorrectCommission	0.371612	0.835073	0	0	7.129412e+01
132.236374	1.279590	city	6	1	1.388483	1.388483	0	1	0	0	CorrectCommission	0.526979	0.818617	0	0	71
133.515884	1.279433	city	10	1	1.403425	1.403425	0	1	0	0	CorrectCommission	0.468618	0.801025	0	0	7.070588e+01
134.795395	1.279577	city	8	1	1.497433	1.497433	0	1	0	0	CorrectCommission	0.101444	0.783444	0	0	7.041176e+01
136.075027	1.279712	city	7	1	1.337663	1.337663	0	1	0	0	CorrectCommission	0.725470	0.766734	0	0	7.011765e+01
137.354691	1.279603	city	10	1	1.070773	1.070773	0	1	0	0	CorrectCommission	1.767889	0.751465	0	0	6.982353e+01
138.634201	1.279407	city	6	1	1.850070	1.850070	0	1	0	0	CorrectCommission	1.275883	0.738033	0	0	6.952941e+01
139.913696	1.279606	city	8	1	1.581668	1.581668	0	1	0	0	CorrectCommission	0.227562	0.726756	0	0	6.923529e+01
141.193283	1.279563	city	2	1	1.777949	1.777949	0	1	0	0	CorrectCommission	0.994194	0.717903	0	0	6.894118e+01
142.479599	1.293069	city	9	1	1.511520	1.511520	0	1	0	0	CorrectCommission	0.046422	0.711650	0	0	6.864706e+01
143.765915	1.279559	city	1	0	0.000000	1.388129	0	0	0	1	OmissionError	0.528363	0.708085	0	0	6.835294e+01
145.045410	1.279416	city	10	1	1.497631	1.497631	0	1	0	0	CorrectCommission	0.100671	0.707099	0	0	6.805882e+01
146.325012	1.279799	city	4	1	1.929882	1.929882	0	1	0	0	CorrectCommission	1.587611	0.708356	0	0	6.776471e+01
147.604630	1.279446	city	6	0	0.000000	1.603536	0	0	0	1	OmissionError	0.312972	0.711207	0	0	6.747059e+01
148.884186	1.279657	city	10	1	1.291453	1.291453	0	1	0	0	CorrectCommission	0.905959	0.714794	0	0	6.717647e+01
150.163818	1.279600	city	5	1	1.766493	1.766493	0	1	0	0	CorrectCommission	0.949449	0.718024	0	0	6.688235e+01
151.443390	1.279560	city	10	1	1.601788	1.601788	0	1	0	0	CorrectCommission	0.306148	0.719684	0	0	6.658824e+01
152.722885	1.279423	city	8	1	1.445176	1.445176	0	1	0	0	CorrectCommission	0.305548	0.718626	0	0	6.629412e+01
156.868134	7.011070	break	0	0	0.000000	1.789651	0	0	0	0	ThoughtProbe	1.039900	0.713824	0	66	66
161.013443	1.279542	city	4	1	2.040490	2.040490	0	1	0	0	CorrectCommission	2.019623	0.704544	0	0	6.597059e+01
162.293076	1.279735	city	2	1	1.602967	1.602967	0	1	0	0	CorrectCommission	0.310751	0.690424	0	0	6.594118e+01
163.572723	1.279567	city	1	1	1.354715	1.354715	0	1	0	0	CorrectCommission	0.658868	0.671584	1	0	6.591176e+01
164.852234	1.279435	city	4	1	1.517665	1.517665	0	1	0	0	CorrectCommission	0.022421	0.648612	1	0	6.588235e+01
166.138443	1.292975	city	8	1	1.155429	1.155429	0	1	0	0	CorrectCommission	1.437238	0.622525	1	0	6.585294e+01
167.424683	1.279508	mountain	8	0	0.000000	1.368378	1	0	0	0	CorrectOmission	0.605504	0.594649	1	0	6.582353e+01
168.704224	1.279598	city	3	1	1.664496	1.664496	0	1	0	0	CorrectCommission	0.551070	0.566576	1	0	6.579412e+01
169.983810	1.279574	city	8	1	1.551766	1.551766	0	1	0	0	CorrectCommission	0.110772	0.539957	1	0	6.576471e+01
171.263412	1.279632	city	7	1	1.360367	1.360367	0	1	0	0	CorrectCommission	0.636794	0.516344	1	0	6.573529e+01
172.543076	1.279696	city	2	1	1.358343	1.358343	0	1	0	0	CorrectCommission	0.644698	0.497037	1	0	6.570588e+01
173.822708	1.279546	city	7	1	1.569424	1.569424	0	1	0	0	CorrectCommission	0.179737	0.482973	1	0	6.567647e+01
175.102264	1.279562	city	1	1	1.512090	1.512090	0	1	0	0	CorrectCommission	0.044196	0.474596	1	0	6.564706e+01
176.381851	1.279615	city	6	1	1.520160	1.520160	0	1	0	0	CorrectCommission	0.012674	0.471833	1	0	6.561765e+01
177.661362	1.279412	mountain	1	0	0.000000	1.376223	1	0	0	0	CorrectOmission	0.574865	0.474076	1	0	6.558824e+01
178.940857	1.279576	city	10	1	1.337688	1.337688	0	1	0	0	CorrectCommission	0.725375	0.480266	1	0	6.555882e+01
180.220444	1.279590	city	1	1	1.661967	1.661967	0	1	0	0	CorrectCommission	0.541191	0.489019	1	0	6.552941e+01
181.500107	1.279745	city	3	1	1.618897	1.618897	0	1	0	0	CorrectCommission	0.372969	0.498809	1	0	6.550000e+01
182.779755	1.279548	city	4	1	1.710708	1.710708	0	1	0	0	CorrectCommission	0.731565	0.508156	1	0	6.547059e+01
184.065918	1.292783	city	9	1	1.591783	1.591783	0	1	0	0	CorrectCommission	0.267068	0.515760	1	0	6.544118e+01
185.352097	1.279567	city	5	0	0.000000	1.364905	0	0	0	1	OmissionError	0.619069	0.520735	1	0	6.541176e+01
186.631744	1.279733	city	8	1	1.284272	1.284272	0	1	0	0	CorrectCommission	0.934005	0.522673	1	0	6.538235e+01
187.911346	1.279487	city	2	1	1.604081	1.604081	0	1	0	0	CorrectCommission	0.315102	0.521753	1	0	6.535294e+01
189.190933	1.279683	city	7	1	1.871863	1.871863	0	1	0	0	CorrectCommission	1.361002	0.518729	1	0	6.532353e+01
190.470490	1.279416	city	5	1	1.609502	1.609502	0	1	0	0	CorrectCommission	0.336277	0.514851	1	0	6.529412e+01
191.756714	1.293046	city	9	1	1.624686	1.624686	0	1	0	0	CorrectCommission	0.395580	0.511780	1	0	6.526471e+01
193.043030	1.279578	city	1	1	1.507680	1.507680	0	1	0	0	CorrectCommission	0.061421	0.511381	1	0	6.523529e+01
194.322617	1.279607	city	7	1	1.657398	1.657398	0	1	0	0	CorrectCommission	0.523348	0.515496	1	0	6.520588e+01
195.602219	1.279574	city	8	1	1.604222	1.604222	0	1	0	0	CorrectCommission	0.315651	0.525791	1	0	6.517647e+01
196.881699	1.279413	city	7	1	1.641310	1.641310	0	1	0	0	CorrectCommission	0.460509	0.543608	1	0	6.514706e+01
198.161224	1.279633	city	5	1	1.474560	1.474560	0	1	0	0	CorrectCommission	0.190780	0.569818	1	0	6.511765e+01
199.440887	1.279681	city	2	1	1.565484	1.565484	0	1	0	0	CorrectCommission	0.164348	0.604745	1	0	6.508824e+01
200.720505	1.279569	city	1	1	1.726658	1.726658	0	1	0	0	CorrectCommission	0.793862	0.648154	1	0	6.505882e+01
202.000046	1.279493	city	5	1	1.720698	1.720698	0	1	0	0	CorrectCommission	0.770585	0.699209	0	0	6.502941e+01
202.639786	8.210716	break	0	0	0.000000	1.396900	0	0	0	0	ThoughtProbe	0.494103	0.756541	0	65	65
211.490326	1.279646	city	10	1	1.208401	1.208401	0	1	0	0	CorrectCommission	1.230343	0.818260	0	0	6.482500e+01
212.769852	1.279399	city	4	1	1.608336	1.608336	0	1	0	0	CorrectCommission	0.331720	0.881975	0	0	6.465000e+01
214.049408	1.279711	city	8	1	1.068647	1.068647	0	1	0	0	CorrectCommission	1.776190	0.944890	0	0	6.447500e+01
215.329056	1.279585	city	9	1	1.604425	1.604425	0	1	0	0	CorrectCommission	0.316446	1.003877	0	0	6.430000e+01
216.608551	1.279423	city	4	1	1.719176	1.719176	0	1	0	0	CorrectCommission	0.764637	1.055775	0	0	6.412500e+01
217.888123	1.279708	city	6	0	0.000000	1.406931	0	0	0	1	OmissionError	0.454926	1.097525	0	0	6.395000e+01
219.167786	1.279609	city	3	1	1.020075	1.020075	0	1	0	0	CorrectCommission	1.965904	1.126565	0	0	6.377500e+01
220.447372	1.279572	city	7	1	0.910992	0.910992	0	1	0	0	CorrectCommission	2.391957	1.141110	0	0	6.360000e+01
221.726944	1.279563	city	3	1	1.049086	1.049086	0	1	0	0	CorrectCommission	1.852592	1.140480	0	0	6.342500e+01
223.006439	1.279439	city	10	1	1.015069	1.015069	0	1	0	0	CorrectCommission	1.985454	1.125269	0	0	6.325000e+01
224.286011	1.279719	city	1	1	1.070402	1.070402	0	1	0	0	CorrectCommission	1.769335	1.097268	0	0	6.307500e+01
225.565598	1.279440	city	5	1	1.447442	1.447442	0	1	0	0	CorrectCommission	0.296696	1.059303	0	0	6.290000e+01
226.845184	1.279740	mountain	8	1	1.458770	1.458770	0	0	1	0	CommissionError	0.252454	1.014863	0	0	6.272500e+01
228.124832	1.279549	city	9	1	1.814883	1.814883	0	1	0	0	CorrectCommission	1.138449	0.967626	0	0	6.255000e+01
229.404388	1.279552	mountain	1	0	0.000000	1.712859	1	0	0	0	CorrectOmission	0.739966	0.920971	0	0	6.237500e+01
230.683960	1.279607	mountain	10	0	0.000000	1.433868	1	0	0	0	CorrectOmission	0.349713	0.877671	0	0	6.220000e+01
231.976898	1.306256	city	6	1	1.259080	1.259080	0	1	0	0	CorrectCommission	1.032398	0.839635	0	0	6.202500e+01
233.269806	1.279565	city	10	1	1.469666	1.469666	0	1	0	0	CorrectCommission	0.209896	0.807796	0	0	6.185000e+01
234.549377	1.279579	city	4	1	1.658091	1.658091	0	1	0	0	CorrectCommission	0.526053	0.782258	0	0	6.167500e+01
235.828888	1.279434	city	7	1	1.282667	1.282667	0	1	0	0	CorrectCommission	0.940274	0.762489	0	0	6.150000e+01
237.108475	1.279738	city	10	1	1.131045	1.131045	0	1	0	0	CorrectCommission	1.532476	0.747609	0	0	6.132500e+01
238.388046	1.279430	city	7	1	1.507990	1.507990	0	1	0	0	CorrectCommission	0.060208	0.736717	0	0	6.115000e+01
239.667633	1.279732	city	8	1	1.403684	1.403684	0	1	0	0	CorrectCommission	0.467608	0.729143	0	0	6.097500e+01
240.947205	1.279396	city	9	1	1.950881	1.950881	0	1	0	0	CorrectCommission	1.669632	0.724543	0	0	6.080000e+01
242.226776	1.279764	city	6	0	0.000000	1.819764	0	0	0	1	OmissionError	1.157513	0.722903	0	0	6.062500e+01
243.506424	1.279530	city	7	1	1.494991	1.494991	0	1	0	0	CorrectCommission	0.110979	0.724507	0	0	6.045000e+01
244.785919	1.279463	city	6	1	1.461226	1.461226	0	1	0	0	CorrectCommission	0.242859	0.729676	0	0	6.027500e+01
246.065445	1.279580	city	7	1	1.657438	1.657438	0	1	0	0	CorrectCommission	0.523503	0.738527	0	0	6.010000e+01
247.345016	1.279580	city	5	1	1.391023	1.391023	0	1	0	0	CorrectCommission	0.517058	0.750744	0	0	5.992500e+01
248.624680	1.279741	city	3	1	1.763777	1.763777	0	1	0	0	CorrectCommission	0.938840	0.765458	0	0	5.975000e+01
249.904343	1.279565	city	4	1	1.708205	1.708205	0	1	0	0	CorrectCommission	0.721789	0.781197	0	0	5.957500e+01
251.183914	1.279594	city	5	1	1.604050	1.604050	0	1	0	0	CorrectCommission	0.314983	0.796034	0	0	5.940000e+01
252.463425	1.279417	city	10	1	1.763956	1.763956	0	1	0	0	CorrectCommission	0.939542	0.807778	0	0	5.922500e+01
253.742996	1.279740	city	5	1	1.708490	1.708490	0	1	0	0	CorrectCommission	0.722902	0.814290	0	0	5.905000e+01
255.022614	1.279482	city	4	0	0.000000	1.229485	0	0	0	1	OmissionError	1.147991	0.813857	0	0	5.887500e+01
256.302124	1.279531	city	8	1	0.872758	0.872758	0	1	0	0	CorrectCommission	2.541293	0.805423	0	0	5.870000e+01
257.581757	1.279724	city	6	1	1.184125	1.184125	0	1	0	0	CorrectCommission	1.325159	0.788789	0	0	5.852500e+01
258.861389	1.279580	city	9	1	1.496953	1.496953	0	1	0	0	CorrectCommission	0.103316	0.764729	0	0	5.835000e+01
260.140961	1.279557	city	6	1	1.337206	1.337206	0	1	0	0	CorrectCommission	0.727255	0.734805	0	0	5.817500e+01
260.780731	9.970078	break	0	0	0.000000	1.471027	0	0	0	0	ThoughtProbe	0.204577	0.701151	0	58	58
271.390625	1.279579	city	4	1	1.671169	1.671169	0	1	0	0	CorrectCommission	0.577135	0.666205	1	0	5.789130e+01
272.676758	1.292723	mountain	2	0	0.000000	1.710385	1	0	0	0	CorrectOmission	0.730302	0.632369	1	0	5.778261e+01
273.969666	1.293070	city	7	1	1.588127	1.588127	0	1	0	0	CorrectCommission	0.252789	0.601729	1	0	5.767391e+01
275.275909	1.319461	mountain	9	1	1.303850	1.303850	0	0	1	0	CommissionError	0.857537	0.575909	1	0	5.756522e+01
276.575500	1.279683	city	6	1	1.657233	1.657233	0	1	0	0	CorrectCommission	0.522703	0.555881	1	0	5.745652e+01
277.868439	1.306232	city	10	1	1.527770	1.527770	0	1	0	0	CorrectCommission	0.017048	0.541970	1	0	5.734783e+01
279.174622	1.306094	city	9	1	1.491657	1.491657	0	1	0	0	CorrectCommission	0.124004	0.533968	1	0	5.723913e+01
280.474152	1.292988	city	2	1	1.644118	1.644118	0	1	0	0	CorrectCommission	0.471480	0.531211	1	0	5.713043e+01
281.767151	1.292985	city	3	1	1.808864	1.808864	0	1	0	0	CorrectCommission	1.114940	0.532769	1	0	5.702174e+01
283.059998	1.292742	city	9	1	1.517291	1.517291	0	1	0	0	CorrectCommission	0.023880	0.537627	1	0	5.691304e+01
284.346161	1.279587	city	5	1	1.242310	1.242310	0	1	0	0	CorrectCommission	1.097900	0.544911	1	0	5.680435e+01
285.625885	1.279829	mountain	6	0	0.000000	1.392545	1	0	0	0	CorrectOmission	0.511113	0.553937	1	0	5.669565e+01
286.905518	1.279479	city	4	1	1.551523	1.551523	0	1	0	0	CorrectCommission	0.109822	0.564362	1	0	5.658696e+01
288.191711	1.292902	city	3	1	1.302770	1.302770	0	1	0	0	CorrectCommission	0.861754	0.576154	1	0	5.647826e+01
289.477875	1.279418	city	8	1	1.295364	1.295364	0	1	0	0	CorrectCommission	0.890683	0.589480	1	0	5.636957e+01
290.757385	1.279612	city	10	1	1.343094	1.343094	0	1	0	0	CorrectCommission	0.704257	0.604622	1	0	5.626087e+01
292.037048	1.279713	city	4	1	1.685340	1.685340	0	1	0	0	CorrectCommission	0.632483	0.621757	1	0	5.615217e+01
293.336700	1.319570	city	2	1	1.516539	1.516539	0	1	0	0	CorrectCommission	0.026819	0.640778	1	0	5.604348e+01
294.649567	1.306167	city	1	1	1.598300	1.598300	0	1	0	0	CorrectCommission	0.292524	0.661231	1	0	5.593478e+01
295.942474	1.279647	city	5	1	1.463171	1.463171	0	1	0	0	CorrectCommission	0.235264	0.682233	1	0	5.582609e+01
297.222015	1.279443	city	3	1	1.774083	1.774083	0	1	0	0	CorrectCommission	0.979092	0.702531	0	0	5.571739e+01
298.501617	1.279731	city	10	1	1.319328	1.319328	0	1	0	0	CorrectCommission	0.797082	0.720644	0	0	5.560870e+01
299.794586	1.306242	city	1	1	1.930302	1.930302	0	1	0	0	CorrectCommission	1.589253	0.735100	0	0	5.550000e+01
301.100769	1.306104	city	3	1	1.744417	1.744417	0	1	0	0	CorrectCommission	0.863226	0.744625	0	0	5.539130e+01
302.413666	1.319676	city	8	1	1.501662	1.501662	0	1	0	0	CorrectCommission	0.084925	0.748392	0	0	5.528261e+01
303.713318	1.279628	city	9	1	2.004998	2.004998	0	1	0	0	CorrectCommission	1.881001	0.746099	0	0	5.517391e+01
304.999481	1.292717	mountain	1	0	0.000000	1.735982	1	0	0	0	CorrectOmission	0.830279	0.737961	0	0	5.506522e+01
306.285706	1.279739	city	7	1	1.311388	1.311388	0	1	0	0	CorrectCommission	0.828095	0.724724	0	0	5.495652e+01
307.565277	1.279397	city	3	1	1.347992	1.347992	0	1	0	0	CorrectCommission	0.685127	0.707417	0	0	5.484783e+01
308.844849	1.279763	city	7	1	1.410970	1.410970	0	1	0	0	CorrectCommission	0.439150	0.687168	1	0	5.473913e+01
310.131195	1.292911	city	3	1	1.419290	1.419290	0	1	0	0	CorrectCommission	0.406651	0.665019	1	0	5.463043e+01
311.430756	1.306219	city	6	1	1.524672	1.524672	0	1	0	0	CorrectCommission	0.004947	0.641821	1	0	5.452174e+01
312.723663	1.279578	city	10	1	1.464778	1.464778	0	1	0	0	CorrectCommission	0.228985	0.618149	1	0	5.441304e+01
314.003204	1.279514	city	4	1	1.781421	1.781421	0	1	0	0	CorrectCommission	1.007757	0.594366	1	0	5.430435e+01
315.289368	1.292831	city	5	1	2.008048	2.008048	0	1	0	0	CorrectCommission	1.892913	0.570715	1	0	5.419565e+01
316.575653	1.279722	city	9	1	1.660986	1.660986	0	1	0	0	CorrectCommission	0.537360	0.547427	1	0	5.408696e+01
317.855316	1.279595	city	1	1	1.538211	1.538211	0	1	0	0	CorrectCommission	0.057828	0.524902	1	0	5.397826e+01
319.148224	1.306219	city	2	1	1.694373	1.694373	0	1	0	0	CorrectCommission	0.667764	0.503642	1	0	5.386957e+01
320.441132	1.279575	city	5	1	1.481130	1.481130	0	1	0	0	CorrectCommission	0.165119	0.484239	1	0	5.376087e+01
321.747375	1.332933	city	4	1	1.578543	1.578543	0	1	0	0	CorrectCommission	0.215357	0.467346	1	0	5.365217e+01
323.060211	1.292731	city	3	1	1.550916	1.550916	0	1	0	0	CorrectCommission	0.107452	0.453527	1	0	5.354348e+01
324.359772	1.306403	city	7	1	1.390609	1.390609	0	1	0	0	CorrectCommission	0.518673	0.443176	1	0	5.343478e+01
325.666046	1.306156	city	5	1	1.319569	1.319569	0	1	0	0	CorrectCommission	0.796143	0.436439	1	0	5.332609e+01
326.965607	1.292967	city	2	1	1.570083	1.570083	0	1	0	0	CorrectCommission	0.182315	0.433211	1	0	5.321739e+01
328.251892	1.279578	city	1	1	1.498749	1.498749	0	1	0	0	CorrectCommission	0.096302	0.433146	1	0	5.310870e+01
328.891663	10.169902	break	0	0	0.000000	1.648949	0	0	0	0	ThoughtProbe	0.490345	0.435728	1	53	53
339.701355	1.279590	city	9	1	1.711188	1.711188	0	1	0	0	CorrectCommission	0.733439	0.440340	1	0	5.310870e+01
340.987671	1.292984	city	1	1	1.375973	1.375973	0	1	0	0	CorrectCommission	0.575839	0.446304	1	0	5.321739e+01
342.280518	1.292747	city	2	1	1.511770	1.511770	0	1	0	0	CorrectCommission	0.045447	0.453005	1	0	5.332609e+01
343.573364	1.292933	mountain	2	0	0.000000	1.384228	1	0	0	0	CorrectOmission	0.543596	0.459964	1	0	5.343478e+01
344.859650	1.279644	city	6	1	1.311396	1.311396	0	1	0	0	CorrectCommission	0.828064	0.466806	1	0	5.354348e+01
346.159241	1.319525	city	7	1	1.611319	1.611319	0	1	0	0	CorrectCommission	0.343371	0.473324	1	0	5.365217e+01
347.458832	1.279691	mountain	9	0	0.000000	1.632214	1	0	0	0	CorrectOmission	0.424986	0.479474	1	0	5.376087e+01
348.738495	1.279599	city	1	1	1.555910	1.555910	0	1	0	0	CorrectCommission	0.126958	0.485373	1	0	5.386957e+01
350.024658	1.292722	city	4	1	1.564233	1.564233	0	1	0	0	CorrectCommission	0.159465	0.491272	1	0	5.397826e+01
351.318054	1.294062	city	3	1	1.055503	1.055503	0	1	0	0	CorrectCommission	1.827530	0.497510	1	0	5.408696e+01
352.604279	1.278424	city	9	1	1.405404	1.405404	0	1	0	0	CorrectCommission	0.460889	0.504425	1	0	5.419565e+01
353.890045	1.293075	mountain	5	0	0.000000	1.526204	1	0	0	0	CorrectOmission	0.010930	0.512424	1	0	5.430435e+01
355.176270	1.279413	city	1	1	1.559872	1.559872	0	1	0	0	CorrectCommission	0.142430	0.521795	1	0	5.441304e+01
356.462524	1.293065	city	3	1	1.648377	1.648377	0	1	0	0	CorrectCommission	0.488114	0.532647	1	0	5.452174e+01
357.768829	1.319574	city	1	1	1.601014	1.601014	0	1	0	0	CorrectCommission	0.303124	0.544887	1	0	5.463043e+01
359.108337	1.359413	city	3	1	1.303925	1.303925	0	1	0	0	CorrectCommission	0.857246	0.558189	1	0	5.473913e+01
360.427826	1.279562	city	2	1	1.732876	1.732876	0	1	0	0	CorrectCommission	0.818148	0.571992	1	0	5.484783e+01
361.727448	1.319721	city	8	0	0.000000	1.548605	0	0	0	1	OmissionError	0.098426	0.585572	1	0	5.495652e+01
363.033661	1.292673	city	4	1	1.245307	1.245307	0	1	0	0	CorrectCommission	1.086194	0.598111	1	0	5.506522e+01
364.319824	1.279664	city	3	1	1.317174	1.317174	0	1	0	0	CorrectCommission	0.805495	0.608747	1	0	5.517391e+01
365.599548	1.279762	city	5	1	1.472751	1.472751	0	1	0	0	CorrectCommission	0.197845	0.616718	1	0	5.528261e+01
366.885864	1.292896	city	2	1	1.518890	1.518890	0	1	0	0	CorrectCommission	0.017636	0.621454	1	0	5.539130e+01
368.192078	1.319544	city	6	1	1.975364	1.975364	0	1	0	0	CorrectCommission	1.765258	0.622593	1	0	5.550000e+01
369.491577	1.279441	city	2	1	1.778550	1.778550	0	1	0	0	CorrectCommission	0.996542	0.620073	1	0	5.560870e+01
370.771149	1.279719	city	10	0	0.000000	1.664943	0	0	0	1	OmissionError	0.552816	0.614181	1	0	5.571739e+01
372.057465	1.292925	city	8	1	1.547866	1.547866	0	1	0	0	CorrectCommission	0.095537	0.605536	1	0	5.582609e+01
373.357056	1.306238	city	6	1	1.340641	1.340641	0	1	0	0	CorrectCommission	0.713840	0.595036	1	0	5.593478e+01
374.669952	1.319545	city	4	1	1.706937	1.706937	0	1	0	0	CorrectCommission	0.716835	0.583834	1	0	5.604348e+01
375.982849	1.306259	city	6	0	0.000000	1.645613	0	0	0	1	OmissionError	0.477317	0.573260	1	0	5.615217e+01
377.275787	1.279580	city	10	1	1.418563	1.418563	0	1	0	0	CorrectCommission	0.409492	0.564709	1	0	5.626087e+01
378.582001	1.332848	city	8	1	1.287681	1.287681	0	1	0	0	CorrectCommission	0.920688	0.559564	1	0	5.636957e+01
379.888123	1.279449	city	7	1	1.444738	1.444738	0	1	0	0	CorrectCommission	0.307259	0.559016	1	0	5.647826e+01
381.174408	1.293091	city	10	1	1.476919	1.476919	0	1	0	0	CorrectCommission	0.181566	0.564017	1	0	5.658696e+01
382.467407	1.292902	city	2	1	1.705409	1.705409	0	1	0	0	CorrectCommission	0.710868	0.575139	1	0	5.669565e+01
383.766968	1.306213	city	3	1	1.607815	1.607815	0	1	0	0	CorrectCommission	0.329687	0.592423	1	0	5.680435e+01
385.066528	1.292929	mountain	5	0	0.000000	1.616792	1	0	0	0	CorrectOmission	0.364749	0.615385	1	0	5.691304e+01
386.359436	1.292895	city	10	1	1.671425	1.671425	0	1	0	0	CorrectCommission	0.578134	0.643013	1	0	5.702174e+01
387.685577	1.359389	city	5	1	1.710799	1.710799	0	1	0	0	CorrectCommission	0.731922	0.673840	1	0	5.713043e+01
389.005157	1.279727	city	9	1	1.459084	1.459084	0	1	0	0	CorrectCommission	0.251226	0.706109	0	0	5.723913e+01
390.284729	1.279441	city	7	1	1.577012	1.577012	0	1	0	0	CorrectCommission	0.209377	0.738045	0	0	5.734783e+01
391.584290	1.319711	city	6	1	1.983848	1.983848	0	1	0	0	CorrectCommission	1.798394	0.768146	0	0	5.745652e+01
392.890533	1.292747	city	2	0	0.000000	1.375734	0	0	0	1	OmissionError	0.576773	0.795425	0	0	5.756522e+01
394.183411	1.292999	city	1	1	0.883151	0.883151	0	1	0	0	CorrectCommission	2.500701	0.819773	0	0	5.767391e+01
395.476410	1.293001	city	5	1	1.636579	1.636579	0	1	0	0	CorrectCommission	0.442033	0.841875	0	0	5.778261e+01
396.769318	1.292796	city	10	1	1.747254	1.747254	0	1	0	0	CorrectCommission	0.874308	0.863308	0	0	5.789130e+01
397.415710	8.130676	break	0	0	0.000000	1.524711	0	0	0	0	ThoughtProbe	0.005101	0.886197	0	58	58
406.186127	1.279491	city	7	0	0.000000	1.237715	0	0	0	1	OmissionError	1.115847	0.912916	0	0	5.795000e+01
407.472412	1.293083	city	9	1	1.155030	1.155030	0	1	0	0	CorrectCommission	1.438799	0.945605	0	0	5.790000e+01
408.778717	1.319555	city	10	1	1.545421	1.545421	0	1	0	0	CorrectCommission	0.085987	0.985749	0	0	5.785000e+01
410.078247	1.279500	city	2	1	1.716436	1.716436	0	1	0	0	CorrectCommission	0.753937	1.033811	0	0	5.780000e+01
411.364441	1.292857	city	4	1	1.753946	1.753946	0	1	0	0	CorrectCommission	0.900443	1.088942	0	0	5.775000e+01
412.650726	1.279729	city	9	0	0.000000	1.435972	0	0	0	1	OmissionError	0.341497	1.148988	0	0	5.770000e+01
413.930298	1.279394	city	3	1	1.194540	1.194540	0	1	0	0	CorrectCommission	1.284480	1.210654	0	0	5.765000e+01
415.209839	1.279688	city	10	1	1.461676	1.461676	0	1	0	0	CorrectCommission	0.241102	1.269867	0	0	5.760000e+01
416.489410	1.279480	mountain	4	0	0.000000	1.183522	1	0	0	0	CorrectOmission	1.327514	1.322378	0	0	5.755000e+01
417.769043	1.279754	mountain	1	0	0.000000	0.740104	1	0	0	0	CorrectOmission	3.059410	1.364290	0	0	5.750000e+01
419.082031	1.346223	city	7	1	0.511449	0.511449	0	1	0	0	CorrectCommission	3.952490	1.392634	0	0	5.745000e+01
420.394867	1.279479	city	10	1	0.877582	0.877582	0	1	0	0	CorrectCommission	2.522449	1.405740	0	0	5.740000e+01
421.681091	1.292973	city	1	1	1.575532	1.575532	0	1	0	0	CorrectCommission	0.203595	1.403422	0	0	5.735000e+01
422.967377	1.279598	city	7	1	1.744704	1.744704	0	1	0	0	CorrectCommission	0.864348	1.386841	0	0	5.730000e+01
424.260284	1.306231	city	1	1	1.551307	1.551307	0	1	0	0	CorrectCommission	0.108980	1.358133	0	0	5.725000e+01
425.553131	1.279414	city	7	1	2.121114	2.121114	0	1	0	0	CorrectCommission	2.334523	1.320120	0	0	5.720000e+01
426.846039	1.306427	city	4	1	1.752402	1.752402	0	1	0	0	CorrectCommission	0.894415	1.275780	0	0	5.715000e+01
428.145630	1.292726	city	1	1	2.061142	2.061142	0	1	0	0	CorrectCommission	2.100288	1.228091	0	0	5.710000e+01
429.431763	1.279572	mountain	3	0	0.000000	1.945036	1	0	0	0	CorrectOmission	1.646800	1.179596	0	0	5.705000e+01
430.711395	1.279668	city	6	1	1.625632	1.625632	0	1	0	0	CorrectCommission	0.399276	1.132407	0	0	57
431.997711	1.292990	city	4	1	1.324481	1.324481	0	1	0	0	CorrectCommission	0.776956	1.088083	0	0	5.695000e+01
433.303925	1.319402	city	1	1	1.749741	1.749741	0	1	0	0	CorrectCommission	0.884020	1.047631	0	0	5.690000e+01
434.630157	1.333068	city	3	1	1.421999	1.421999	0	1	0	0	CorrectCommission	0.396074	1.011584	0	0	5.685000e+01
435.936462	1.279588	city	10	1	1.729507	1.729507	0	1	0	0	CorrectCommission	0.804990	0.980125	0	0	5.680000e+01
437.229370	1.306212	city	1	1	1.935739	1.935739	0	1	0	0	CorrectCommission	1.610489	0.953230	0	0	5.675000e+01
438.542175	1.319406	city	6	1	1.948161	1.948161	0	1	0	0	CorrectCommission	1.659007	0.930779	0	0	5.670000e+01
439.855011	1.306265	city	3	1	1.781350	1.781350	0	1	0	0	CorrectCommission	1.007480	0.912670	0	0	5.665000e+01
441.161224	1.306145	city	6	1	1.549372	1.549372	0	1	0	0	CorrectCommission	0.101421	0.898877	0	0	5.660000e+01
442.454193	1.279807	city	2	1	1.449750	1.449750	0	1	0	0	CorrectCommission	0.287681	0.889421	0	0	5.655000e+01
443.733887	1.279578	city	8	1	1.335287	1.335287	0	1	0	0	CorrectCommission	0.734750	0.884315	0	0	5.650000e+01
445.026794	1.306233	city	5	1	1.390772	1.390772	0	1	0	0	CorrectCommission	0.518039	0.883496	0	0	5.645000e+01
446.319702	1.279585	city	3	1	1.894300	1.894300	0	1	0	0	CorrectCommission	1.448638	0.886761	0	0	5.640000e+01
447.619293	1.319587	city	5	1	2.024371	2.024371	0	1	0	0	CorrectCommission	1.956667	0.893632	0	0	5.635000e+01
448.918793	1.279423	city	6	0	0.000000	1.747663	0	0	0	1	OmissionError	0.875904	0.903347	0	0	5.630000e+01
450.198303	1.279599	city	4	1	1.450012	1.450012	0	1	0	0	CorrectCommission	0.286658	0.914841	0	0	5.625000e+01
451.477905	1.279599	city	9	1	1.517254	1.517254	0	1	0	0	CorrectCommission	0.024025	0.926660	0	0	5.620000e+01
452.757446	1.279507	city	10	1	1.430472	1.430472	0	1	0	0	CorrectCommission	0.362979	0.937070	0	0	5.615000e+01
454.043671	1.292907	city	5	1	1.796808	1.796808	0	1	0	0	CorrectCommission	1.067852	0.944157	0	0	5.610000e+01
455.329926	1.279582	city	10	1	1.891662	1.891662	0	1	0	0	CorrectCommission	1.438333	0.946126	0	0	5.605000e+01
455.969696	9.157007	break	0	0	0.000000	1.959723	0	0	0	0	ThoughtProbe	1.704166	0.941617	0	56	56
465.766571	1.279751	city	6	1	1.973191	1.973191	0	1	0	0	CorrectCommission	1.756767	0.929991	0	0	5.597826e+01
467.072906	1.332885	mountain	8	0	0.000000	1.904264	1	0	0	0	CorrectOmission	1.487554	0.911556	0	0	5.595652e+01
468.379059	1.279396	city	4	1	1.726157	1.726157	0	1	0	0	CorrectCommission	0.791905	0.887635	0	0	5.593478e+01
469.658539	1.279582	city	2	1	1.412083	1.412083	0	1	0	0	CorrectCommission	0.434802	0.860445	0	0	5.591304e+01
470.938110	1.279573	city	3	1	1.289695	1.289695	0	1	0	0	CorrectCommission	0.912824	0.832797	0	0	5.589130e+01
472.217712	1.279606	mountain	5	0	0.000000	1.374066	1	0	0	0	CorrectOmission	0.583288	0.807711	0	0	5.586957e+01
473.497284	1.279565	city	7	1	1.560592	1.560592	0	1	0	0	CorrectCommission	0.145242	0.787964	0	0	5.584783e+01
474.783600	1.293083	city	4	1	1.744667	1.744667	0	1	0	0	CorrectCommission	0.864203	0.775687	0	0	5.582609e+01
476.083282	1.306238	city	1	1	1.585786	1.585786	0	1	0	0	CorrectCommission	0.243645	0.772021	0	0	5.580435e+01
477.382843	1.292893	city	6	1	1.638171	1.638171	0	1	0	0	CorrectCommission	0.448252	0.777012	0	0	5.578261e+01
478.675720	1.292877	city	3	1	1.259246	1.259246	0	1	0	0	CorrectCommission	1.031751	0.789552	0	0	5.576087e+01
479.961914	1.279511	city	1	1	1.497745	1.497745	0	1	0	0	CorrectCommission	0.100226	0.807546	0	0	5.573913e+01
481.241516	1.279673	city	6	1	1.622882	1.622882	0	1	0	0	CorrectCommission	0.388536	0.828318	0	0	5.571739e+01
482.547791	1.332899	city	2	1	1.297682	1.297682	0	1	0	0	CorrectCommission	0.881628	0.848946	0	0	5.569565e+01
483.854034	1.279569	mountain	9	0	0.000000	1.057043	1	0	0	0	CorrectOmission	1.821515	0.866699	0	0	5.567391e+01
485.133606	1.279607	city	9	0	0.000000	0.969686	0	0	0	1	OmissionError	2.162713	0.879470	0	0	5.565217e+01
486.453186	1.359551	city	6	1	1.104333	1.104333	0	1	0	0	CorrectCommission	1.636811	0.886031	0	0	5.563043e+01
487.779419	1.292880	city	1	1	1.529704	1.529704	0	1	0	0	CorrectCommission	0.024602	0.886143	0	0	5.560870e+01
489.072235	1.292761	city	10	1	1.735573	1.735573	0	1	0	0	CorrectCommission	0.828684	0.880479	0	0	5.558696e+01
490.371796	1.306386	city	2	1	1.723166	1.723166	0	1	0	0	CorrectCommission	0.780223	0.870340	0	0	5.556522e+01
491.718109	1.386237	city	5	0	0.000000	1.495800	0	0	0	1	OmissionError	0.107822	0.857439	0	0	5.554348e+01
493.070923	1.319407	city	9	0	0.000000	1.246962	0	0	0	1	OmissionError	1.079732	0.843573	0	0	5.552174e+01
494.390533	1.319766	city	2	1	1.170139	1.170139	0	1	0	0	CorrectCommission	1.379784	0.830353	0	0	5.550000e+01
495.690186	1.279537	city	4	1	1.458820	1.458820	0	1	0	0	CorrectCommission	0.252257	0.818994	0	0	5.547826e+01
496.969635	1.279388	city	6	1	1.183119	1.183119	0	1	0	0	CorrectCommission	1.329089	0.810294	0	0	5.545652e+01
498.255859	1.293070	city	5	1	1.674215	1.674215	0	1	0	0	CorrectCommission	0.589030	0.804587	0	0	5.543478e+01
499.555511	1.306247	city	2	0	0.000000	1.668177	0	0	0	1	OmissionError	0.565446	0.801920	0	0	5.541304e+01
500.848358	1.279424	city	4	1	1.459156	1.459156	0	1	0	0	CorrectCommission	0.250946	0.802252	0	0	5.539130e+01
502.134613	1.293060	city	10	1	1.341305	1.341305	0	1	0	0	CorrectCommission	0.711247	0.805814	0	0	5.536957e+01
503.440887	1.319489	city	6	1	1.780462	1.780462	0	1	0	0	CorrectCommission	1.004008	0.813467	0	0	5.534783e+01
504.747101	1.292981	city	5	1	1.397343	1.397343	0	1	0	0	CorrectCommission	0.492375	0.827165	0	0	5.532609e+01
506.053314	1.319431	city	7	0	0.000000	1.055041	0	0	0	1	OmissionError	1.829332	0.850453	0	0	5.530435e+01
507.352905	1.279736	city	3	1	1.035125	1.035125	0	1	0	0	CorrectCommission	1.907121	0.888677	0	0	5.528261e+01
508.632538	1.279557	city	8	1	1.619161	1.619161	0	1	0	0	CorrectCommission	0.374000	0.949231	0	0	5.526087e+01
509.925446	1.306259	city	6	1	1.475487	1.475487	0	1	0	0	CorrectCommission	0.187159	1.041397	0	0	5.523913e+01
511.231628	1.306069	city	2	1	1.556365	1.556365	0	1	0	0	CorrectCommission	0.128734	1.175875	0	0	5.521739e+01
512.524536	1.279727	mountain	7	0	0.000000	1.692096	1	0	0	0	CorrectOmission	0.658872	1.364080	0	0	5.519565e+01
513.804138	1.279514	city	7	1	1.702798	1.702798	0	1	0	0	CorrectCommission	0.700669	1.617149	0	0	5.517391e+01
515.103638	1.319466	city	10	1	1.408585	1.408585	0	1	0	0	CorrectCommission	0.448465	1.944783	0	0	5.515217e+01
516.423218	1.319752	city	5	1	1.809625	1.809625	0	1	0	0	CorrectCommission	1.117914	2.353991	0	0	5.513043e+01
517.722900	1.279573	city	3	0	0.000000	1.306247	0	0	0	1	OmissionError	0.848173	2.847846	0	0	5.510870e+01
519.009155	1.292937	city	9	1	0.827621	0.827621	0	1	0	0	CorrectCommission	2.717590	3.424569	0	0	5.508696e+01
520.295410	1.279550	city	5	1	1.302913	1.302913	0	1	0	0	CorrectCommission	0.861197	4.076856	0	0	5.506522e+01
521.581604	1.292902	city	9	1	1.917120	1.917120	0	1	0	0	CorrectCommission	1.537768	4.791939	0	0	5.504348e+01
522.881165	1.306134	city	1	0	0.000000	2.531327	0	0	0	1	OmissionError	3.936733	5.552054	0	0	5.502174e+01
523.534180	8.010716	break	0	0	0.000000	3.145535	0	0	0	0	ThoughtProbe	6.335698	6.335698	0	55	55
