onset	duration	trial_type	image_type	Press	ReactionTime	ReactionTime_Interpolated	CorrectOmission	CorrectCommission	CommissionError	OmissionError	response_type	nonsmoothVarianceTimeCourse	VarianceTimeCourse	In_the_Zone	ThoughtProbe	ThoughtProbe_Interpolated
0.812855	1.599337	city	8	1	1.628929	1.628929	0	1	0	0	CorrectCommission	2.168484	2.168484	0	0	90
2.259001	1.292955	city	6	1	1.071194	1.071194	0	1	0	0	CorrectCommission	0.404372	1.917794	0	0	90
3.551903	1.292850	city	9	1	0.986440	0.986440	0	1	0	0	CorrectCommission	0.795345	1.675448	0	0	90
4.838122	1.279588	mountain	3	0	0.000000	1.096309	1	0	0	0	CorrectOmission	0.288515	1.448909	0	0	90
6.124404	1.292977	city	6	1	1.193650	1.193650	0	1	0	0	CorrectCommission	0.160521	1.244125	0	0	90
7.410729	1.279674	city	8	1	1.071310	1.071310	0	1	0	0	CorrectCommission	0.403836	1.065074	0	0	90
8.690312	1.279491	city	7	1	1.028206	1.028206	0	1	0	0	CorrectCommission	0.602678	0.913625	0	0	90
9.976466	1.292817	city	8	1	0.978203	0.978203	0	1	0	0	CorrectCommission	0.833343	0.789727	0	0	90
11.269398	1.293047	city	1	1	0.968651	0.968651	0	1	0	0	CorrectCommission	0.877409	0.691792	1	0	90
12.555654	1.279464	city	8	1	1.069443	1.069443	0	1	0	0	CorrectCommission	0.412449	0.617204	1	0	90
13.835209	1.279647	city	2	1	1.127344	1.127344	0	1	0	0	CorrectCommission	0.145350	0.562826	1	0	90
15.128183	1.306302	city	9	1	1.031523	1.031523	0	1	0	0	CorrectCommission	0.587377	0.525427	1	0	90
16.421124	1.279578	city	3	1	1.091972	1.091972	0	1	0	0	CorrectCommission	0.308523	0.501963	1	0	90
17.700628	1.279435	mountain	7	0	0.000000	1.089462	1	0	0	0	CorrectOmission	0.320103	0.489785	1	0	90
18.986879	1.293065	city	10	1	1.070821	1.070821	0	1	0	0	CorrectCommission	0.406094	0.486635	1	0	90
20.273115	1.279408	city	3	1	1.082879	1.082879	0	1	0	0	CorrectCommission	0.350470	0.490598	1	0	90
21.552658	1.279679	city	5	1	1.136515	1.136515	0	1	0	0	CorrectCommission	0.103046	0.500019	1	0	90
22.838943	1.292891	city	6	1	1.384155	1.384155	0	1	0	0	CorrectCommission	1.039331	0.513394	1	0	90
24.131874	1.292971	city	5	1	1.084243	1.084243	0	1	0	0	CorrectCommission	0.344176	0.529268	1	0	90
25.424770	1.292820	city	8	1	0.986766	0.986766	0	1	0	0	CorrectCommission	0.793843	0.546265	1	0	90
26.711031	1.279704	city	2	1	1.073945	1.073945	0	1	0	0	CorrectCommission	0.391681	0.563031	1	0	90
27.990583	1.279398	city	9	1	1.079426	1.079426	0	1	0	0	CorrectCommission	0.366396	0.578347	1	0	90
29.270149	1.279737	mountain	1	1	1.194594	1.194594	0	0	1	0	CommissionError	0.164878	0.591237	1	0	90
30.549753	1.279471	city	2	1	0.931923	0.931923	0	1	0	0	CorrectCommission	1.046836	0.601082	1	0	90
31.829344	1.279709	city	3	1	0.911349	0.911349	0	1	0	0	CorrectCommission	1.141742	0.607675	1	0	90
33.115654	1.292912	city	1	1	0.913969	0.913969	0	1	0	0	CorrectCommission	1.129657	0.611313	1	0	90
34.401814	1.279403	city	6	1	1.340442	1.340442	0	1	0	0	CorrectCommission	0.837679	0.612752	1	0	90
35.694664	1.306301	city	5	1	1.256621	1.256621	0	1	0	0	CorrectCommission	0.451012	0.613059	1	0	90
36.987568	1.279503	city	6	1	1.241504	1.241504	0	1	0	0	CorrectCommission	0.381277	0.613433	1	0	90
38.267208	1.279778	city	7	1	1.132755	1.132755	0	1	0	0	CorrectCommission	0.120387	0.614939	1	0	90
39.546875	1.279561	city	5	1	1.143004	1.143004	0	1	0	0	CorrectCommission	0.073108	0.618317	1	0	90
40.826393	1.279473	city	8	1	1.071183	1.071183	0	1	0	0	CorrectCommission	0.404423	0.623797	1	0	90
42.105961	1.279662	city	5	1	1.443657	1.443657	0	1	0	0	CorrectCommission	1.313814	0.631059	1	0	90
43.392258	1.292933	city	3	1	1.307274	1.307274	0	1	0	0	CorrectCommission	0.684674	0.639235	1	0	90
44.698521	1.319590	city	4	1	1.223322	1.223322	0	1	0	0	CorrectCommission	0.297399	0.647106	1	0	90
46.004665	1.292704	city	3	1	1.300428	1.300428	0	1	0	0	CorrectCommission	0.653092	0.653278	1	0	90
47.290817	1.279598	city	8	1	1.026403	1.026403	0	1	0	0	CorrectCommission	0.610997	0.656416	1	0	90
48.590477	1.319718	city	3	1	0.918865	0.918865	0	1	0	0	CorrectCommission	1.107071	0.655503	1	0	90
49.890079	1.279492	city	1	1	0.858123	0.858123	0	1	0	0	CorrectCommission	1.387279	0.649988	1	0	90
50.529827	8.157195	break	0	0	0.000000	1.053308	0	0	0	0	ThoughtProbe	0.486881	0.639872	1	90	90
59.333580	1.293114	mountain	6	0	0.000000	1.298193	1	0	0	0	CorrectOmission	0.642782	0.625771	1	0	8.988235e+01
60.619930	1.279594	city	6	1	1.386548	1.386548	0	1	0	0	CorrectCommission	1.050370	0.608732	1	0	8.976471e+01
61.912846	1.306234	city	7	1	1.112147	1.112147	0	1	0	0	CorrectCommission	0.215455	0.590116	1	0	8.964706e+01
63.205662	1.279396	city	5	1	1.197021	1.197021	0	1	0	0	CorrectCommission	0.176075	0.571395	1	0	8.952941e+01
64.485199	1.279680	city	1	1	1.183260	1.183260	0	1	0	0	CorrectCommission	0.112591	0.553917	1	0	8.941176e+01
65.764778	1.279482	city	3	1	0.964533	0.964533	0	1	0	0	CorrectCommission	0.896403	0.538733	1	0	8.929412e+01
67.044373	1.279705	city	4	1	1.235641	1.235641	0	1	0	0	CorrectCommission	0.354229	0.526482	1	0	8.917647e+01
68.337357	1.306268	city	9	1	0.991754	0.991754	0	1	0	0	CorrectCommission	0.770833	0.517394	1	0	8.905882e+01
69.630219	1.279451	city	2	1	1.190471	1.190471	0	1	0	0	CorrectCommission	0.145859	0.511260	1	0	8.894118e+01
70.909767	1.279639	city	7	1	1.293583	1.293583	0	1	0	0	CorrectCommission	0.621519	0.507550	1	0	8.882353e+01
72.189415	1.279662	city	3	1	1.177427	1.177427	0	1	0	0	CorrectCommission	0.085685	0.505471	1	0	8.870588e+01
73.469025	1.279564	city	1	1	1.360403	1.360403	0	1	0	0	CorrectCommission	0.929760	0.504120	1	0	8.858824e+01
74.755264	1.292916	city	6	1	1.316981	1.316981	0	1	0	0	CorrectCommission	0.729451	0.502564	1	0	8.847059e+01
76.041542	1.279635	city	2	1	1.071231	1.071231	0	1	0	0	CorrectCommission	0.404202	0.499985	1	0	8.835294e+01
77.321053	1.279378	city	3	1	1.138646	1.138646	0	1	0	0	CorrectCommission	0.093213	0.495741	1	0	8.823529e+01
78.600616	1.279764	city	8	1	1.290695	1.290695	0	1	0	0	CorrectCommission	0.608195	0.489494	1	0	8.811765e+01
79.886894	1.292784	city	5	1	1.409803	1.409803	0	1	0	0	CorrectCommission	1.157644	0.481226	1	0	88
81.186363	1.306158	city	8	1	1.280596	1.280596	0	1	0	0	CorrectCommission	0.561610	0.471261	1	0	8.788235e+01
82.479240	1.279596	city	10	1	1.131124	1.131124	0	1	0	0	CorrectCommission	0.127912	0.460309	1	0	8.776471e+01
83.765602	1.293125	city	8	1	1.264955	1.264955	0	1	0	0	CorrectCommission	0.489453	0.449402	1	0	8.764706e+01
85.051880	1.279434	city	10	1	1.129702	1.129702	0	1	0	0	CorrectCommission	0.134470	0.439788	1	0	8.752941e+01
86.331421	1.279646	city	4	1	1.017337	1.017337	0	1	0	0	CorrectCommission	0.652818	0.432904	1	0	8.741176e+01
87.617714	1.292936	city	6	1	1.044338	1.044338	0	1	0	0	CorrectCommission	0.528261	0.430190	1	0	8.729412e+01
88.903961	1.279558	city	4	1	1.076360	1.076360	0	1	0	0	CorrectCommission	0.380542	0.432924	1	0	8.717647e+01
90.183540	1.279599	mountain	10	0	0.000000	1.121456	1	0	0	0	CorrectOmission	0.172510	0.442110	1	0	8.705882e+01
91.463043	1.279414	city	3	1	1.178217	1.178217	0	1	0	0	CorrectCommission	0.089329	0.458276	1	0	8.694118e+01
92.742615	1.279730	city	6	1	1.245231	1.245231	0	1	0	0	CorrectCommission	0.398469	0.481369	1	0	8.682353e+01
94.035545	1.306124	city	5	1	1.120754	1.120754	0	1	0	0	CorrectCommission	0.175751	0.510677	1	0	8.670588e+01
95.335091	1.292978	city	9	1	1.101973	1.101973	0	1	0	0	CorrectCommission	0.262388	0.544857	1	0	8.658824e+01
96.621307	1.279450	city	5	1	1.023311	1.023311	0	1	0	0	CorrectCommission	0.625259	0.582025	1	0	8.647059e+01
97.927528	1.332996	city	8	1	1.051185	1.051185	0	1	0	0	CorrectCommission	0.496676	0.619941	1	0	8.635294e+01
99.233765	1.279467	city	2	1	0.911279	0.911279	0	1	0	0	CorrectCommission	1.142066	0.656264	1	0	8.623529e+01
100.513382	1.279777	city	5	1	0.974779	0.974779	0	1	0	0	CorrectCommission	0.849140	0.688794	1	0	8.611765e+01
104.872063	7.437587	break	0	0	0.000000	1.252016	0	0	0	0	ThoughtProbe	0.429768	0.715760	1	86	86
109.230629	1.279536	city	9	1	1.499559	1.499559	0	1	0	0	CorrectCommission	1.571693	0.736032	1	0	8.504348e+01
110.510101	1.279404	mountain	3	0	0.000000	1.473975	1	0	0	0	CorrectOmission	1.453673	0.749243	1	0	8.408696e+01
111.789589	1.279576	city	9	1	1.285336	1.285336	0	1	0	0	CorrectCommission	0.583476	0.755838	0	0	8.313043e+01
113.075920	1.293093	city	8	1	1.043716	1.043716	0	1	0	0	CorrectCommission	0.531131	0.756989	0	0	8.217391e+01
114.362183	1.279420	city	10	1	0.966344	0.966344	0	1	0	0	CorrectCommission	0.888048	0.754424	1	0	8.121739e+01
115.641663	1.279554	city	5	1	1.134791	1.134791	0	1	0	0	CorrectCommission	0.110999	0.750224	1	0	8.026087e+01
116.921234	1.279586	mountain	1	0	0.000000	0.972630	1	0	0	0	CorrectOmission	0.859052	0.746630	1	0	7.930435e+01
118.207573	1.293089	city	9	1	0.851012	0.851012	0	1	0	0	CorrectCommission	1.420081	0.745730	1	0	7.834783e+01
119.500488	1.292734	city	6	1	1.141085	1.141085	0	1	0	0	CorrectCommission	0.081960	0.749306	1	0	7.739130e+01
120.793312	1.292912	city	8	1	0.977642	0.977642	0	1	0	0	CorrectCommission	0.835932	0.758650	0	0	7.643478e+01
122.079636	1.279743	mountain	1	0	0.000000	1.060468	1	0	0	0	CorrectOmission	0.453852	0.774372	0	0	7.547826e+01
123.359215	1.279416	city	2	1	1.238418	1.238418	0	1	0	0	CorrectCommission	0.367038	0.796379	0	0	7.452174e+01
124.692017	1.386191	city	8	1	1.360345	1.360345	0	1	0	0	CorrectCommission	0.929492	0.823821	0	0	7.356522e+01
126.031670	1.293103	city	6	1	1.200429	1.200429	0	1	0	0	CorrectCommission	0.191794	0.855115	0	0	7.260870e+01
127.331245	1.306056	city	3	1	0.931461	0.931461	0	1	0	0	CorrectCommission	1.048964	0.888125	0	0	7.165217e+01
128.624100	1.279658	city	10	1	1.407531	1.407531	0	1	0	0	CorrectCommission	1.147162	0.920278	0	0	7.069565e+01
129.903763	1.279655	city	1	1	1.578637	1.578637	0	1	0	0	CorrectCommission	1.936483	0.948833	0	0	6.973913e+01
131.196686	1.306209	city	9	1	1.348349	1.348349	0	1	0	0	CorrectCommission	0.874156	0.971119	0	0	6.878261e+01
132.496262	1.292946	city	10	1	1.085691	1.085691	0	1	0	0	CorrectCommission	0.337497	0.984868	0	0	6.782609e+01
133.782471	1.279451	city	1	1	1.039374	1.039374	0	1	0	0	CorrectCommission	0.551158	0.988392	0	0	6.686957e+01
135.061981	1.279567	city	4	1	0.659014	0.659014	0	1	0	0	CorrectCommission	2.305775	0.980803	0	0	6.591304e+01
136.374939	1.346370	city	3	1	0.767210	0.767210	0	1	0	0	CorrectCommission	1.806664	0.962144	0	0	6.495652e+01
137.707916	1.319561	city	6	1	0.951136	0.951136	0	1	0	0	CorrectCommission	0.958204	0.933471	0	0	64
139.007462	1.279553	city	3	1	0.876653	0.876653	0	1	0	0	CorrectCommission	1.301797	0.896726	0	0	6.304348e+01
140.287003	1.279526	city	4	1	1.019389	1.019389	0	1	0	0	CorrectCommission	0.643351	0.854561	0	0	6.208696e+01
141.566605	1.279667	city	3	1	0.978457	0.978457	0	1	0	0	CorrectCommission	0.832170	0.810094	0	0	6.113043e+01
142.846191	1.279512	city	7	1	1.235619	1.235619	0	1	0	0	CorrectCommission	0.354127	0.766508	0	0	6.017391e+01
144.125671	1.279458	city	3	1	1.036828	1.036828	0	1	0	0	CorrectCommission	0.562906	0.726771	1	0	5.921739e+01
145.405304	1.279805	city	5	1	1.145785	1.145785	0	1	0	0	CorrectCommission	0.060278	0.693344	1	0	5.826087e+01
146.684921	1.279437	city	4	1	1.143544	1.143544	0	1	0	0	CorrectCommission	0.070619	0.668064	1	0	5.730435e+01
147.977814	1.306324	city	6	1	1.004265	1.004265	0	1	0	0	CorrectCommission	0.713120	0.652127	1	0	5.634783e+01
149.270706	1.279464	city	8	1	0.924035	0.924035	0	1	0	0	CorrectCommission	1.083223	0.646081	1	0	5.539130e+01
150.556915	1.292948	city	5	1	1.155184	1.155184	0	1	0	0	CorrectCommission	0.016922	0.650029	1	0	5.443478e+01
151.849869	1.292974	city	8	1	1.408848	1.408848	0	1	0	0	CorrectCommission	1.153237	0.663797	1	0	5.347826e+01
153.142731	1.292749	city	9	1	1.363628	1.363628	0	1	0	0	CorrectCommission	0.944636	0.686906	1	0	5.252174e+01
154.462311	1.346406	city	1	1	1.183624	1.183624	0	1	0	0	CorrectCommission	0.114273	0.718746	1	0	5.156522e+01
155.775238	1.279457	mountain	4	0	0.000000	1.264271	1	0	0	0	CorrectOmission	0.486299	0.758439	0	0	5.060870e+01
157.068069	1.306203	city	3	1	1.381374	1.381374	0	1	0	0	CorrectCommission	1.026502	0.804734	0	0	4.965217e+01
158.367706	1.293069	city	4	1	1.310742	1.310742	0	1	0	0	CorrectCommission	0.700671	0.855879	0	0	4.869565e+01
159.660645	1.292814	city	6	1	1.093994	1.093994	0	1	0	0	CorrectCommission	0.299195	0.909569	0	0	4.773913e+01
160.980118	1.346126	city	8	1	0.962408	0.962408	0	1	0	0	CorrectCommission	0.906208	0.962935	0	0	4.678261e+01
162.292984	1.279599	city	6	1	1.410796	1.410796	0	1	0	0	CorrectCommission	1.162226	1.012673	0	0	4.582609e+01
163.579239	1.292919	city	10	1	1.102999	1.102999	0	1	0	0	CorrectCommission	0.257656	1.055267	0	0	4.486957e+01
164.865570	1.279758	city	2	1	1.409654	1.409654	0	1	0	0	CorrectCommission	1.156959	1.087482	0	0	4.391304e+01
166.158508	1.306118	city	3	1	1.808558	1.808558	0	1	0	0	CorrectCommission	2.997119	1.106695	0	0	4.295652e+01
170.676941	7.730724	break	0	0	0.000000	1.727968	0	0	0	0	ThoughtProbe	2.625351	1.111310	0	42	42
175.182083	1.279557	city	2	0	0.000000	1.395775	0	0	0	1	OmissionError	1.092935	1.101098	0	0	4.255882e+01
176.474976	1.306249	city	8	1	1.039874	1.039874	0	1	0	0	CorrectCommission	0.548854	1.077237	0	0	4.311765e+01
177.774551	1.292884	city	6	1	0.888155	0.888155	0	1	0	0	CorrectCommission	1.248738	1.042159	0	0	4.367647e+01
179.067535	1.293109	city	8	1	0.759952	0.759952	0	1	0	0	CorrectCommission	1.840143	0.999212	0	0	4.423529e+01
180.360504	1.292824	city	3	1	1.138704	1.138704	0	1	0	0	CorrectCommission	0.092947	0.952247	0	0	4.479412e+01
181.666656	1.319458	city	8	1	1.103012	1.103012	0	1	0	0	CorrectCommission	0.257595	0.905107	0	0	4.535294e+01
182.972839	1.292934	city	10	1	0.886180	0.886180	0	1	0	0	CorrectCommission	1.257848	0.861096	0	0	4.591176e+01
184.259186	1.279739	mountain	2	0	0.000000	1.160520	1	0	0	0	CorrectOmission	0.007692	0.822599	0	0	4.647059e+01
185.538788	1.279480	city	6	1	1.404639	1.404639	0	1	0	0	CorrectCommission	1.133822	0.790959	0	0	4.702941e+01
186.818375	1.279682	city	3	1	1.097145	1.097145	0	1	0	0	CorrectCommission	0.284660	0.766338	0	0	4.758824e+01
188.104660	1.292905	city	9	1	1.115813	1.115813	0	1	0	0	CorrectCommission	0.198543	0.747970	1	0	4.814706e+01
189.390900	1.279566	city	7	1	1.017828	1.017828	0	1	0	0	CorrectCommission	0.650553	0.734423	1	0	4.870588e+01
190.683716	1.306075	city	3	1	1.044090	1.044090	0	1	0	0	CorrectCommission	0.529404	0.723965	1	0	4.926471e+01
191.976639	1.279756	city	10	1	1.401066	1.401066	0	1	0	0	CorrectCommission	1.117340	0.714985	1	0	4.982353e+01
193.262894	1.292770	city	7	1	1.676159	1.676159	0	1	0	0	CorrectCommission	2.386355	0.706289	1	0	5.038235e+01
194.562347	1.306112	city	9	1	1.106198	1.106198	0	1	0	0	CorrectCommission	0.242897	0.697337	1	0	5.094118e+01
195.861984	1.293186	city	10	1	0.887485	0.887485	0	1	0	0	CorrectCommission	1.251828	0.688321	1	0	5.150000e+01
197.181595	1.346022	city	5	1	1.177966	1.177966	0	1	0	0	CorrectCommission	0.088173	0.679878	1	0	5.205882e+01
198.521149	1.333083	city	3	1	1.220597	1.220597	0	1	0	0	CorrectCommission	0.284830	0.673003	1	0	5.261765e+01
199.827393	1.279418	city	9	1	1.249664	1.249664	0	1	0	0	CorrectCommission	0.418916	0.668661	1	0	5.317647e+01
201.120224	1.306223	city	6	1	1.204059	1.204059	0	1	0	0	CorrectCommission	0.208540	0.667539	1	0	5.373529e+01
202.419891	1.293119	mountain	10	1	1.152483	1.152483	0	0	1	0	CommissionError	0.029382	0.669941	1	0	5.429412e+01
203.752899	1.372892	city	7	1	1.074073	1.074073	0	1	0	0	CorrectCommission	0.391089	0.675788	1	0	5.485294e+01
205.105682	1.332680	city	8	1	0.846322	0.846322	0	1	0	0	CorrectCommission	1.441716	0.684698	1	0	5.541176e+01
206.445129	1.346222	city	10	1	0.950405	0.950405	0	1	0	0	CorrectCommission	0.961575	0.696178	1	0	5.597059e+01
207.778030	1.319570	city	4	1	1.517430	1.517430	0	1	0	0	CorrectCommission	1.654131	0.709889	1	0	5.652941e+01
209.104263	1.332891	city	1	1	0.917668	0.917668	0	1	0	0	CorrectCommission	1.112592	0.725767	1	0	5.708824e+01
210.437241	1.333060	city	10	1	1.166834	1.166834	0	1	0	0	CorrectCommission	0.036821	0.744097	1	0	5.764706e+01
211.750122	1.292725	city	8	1	1.141874	1.141874	0	1	0	0	CorrectCommission	0.078323	0.765428	0	0	5.820588e+01
213.056274	1.319573	city	6	1	1.071904	1.071904	0	1	0	0	CorrectCommission	0.401096	0.790444	0	0	5.876471e+01
214.362534	1.292936	city	7	1	0.990038	0.990038	0	1	0	0	CorrectCommission	0.778747	0.819733	0	0	5.932353e+01
215.655472	1.292939	city	5	1	0.985675	0.985675	0	1	0	0	CorrectCommission	0.798877	0.853638	0	0	5.988235e+01
216.968430	1.332981	city	8	1	0.916459	0.916459	0	1	0	0	CorrectCommission	1.118173	0.892083	0	0	6.044118e+01
217.634918	8.117234	break	0	0	0.000000	1.194785	0	0	0	0	ThoughtProbe	0.165759	0.934437	0	61	61
226.411911	1.319507	mountain	2	0	0.000000	1.529603	1	0	0	0	CorrectOmission	1.710290	0.979528	0	0	5.977500e+01
227.711533	1.279754	city	7	1	1.629863	1.629863	0	1	0	0	CorrectCommission	2.172791	1.025513	0	0	5.855000e+01
229.004471	1.306115	city	3	1	1.204513	1.204513	0	1	0	0	CorrectCommission	0.210634	1.070037	0	0	5.732500e+01
230.297302	1.279537	city	9	1	1.082216	1.082216	0	1	0	0	CorrectCommission	0.353529	1.110408	0	0	5.610000e+01
231.596863	1.319579	city	2	1	1.014796	1.014796	0	1	0	0	CorrectCommission	0.664539	1.143654	0	0	5.487500e+01
232.903107	1.292933	city	8	1	0.924546	0.924546	0	1	0	0	CorrectCommission	1.080863	1.166947	0	0	5.365000e+01
234.189423	1.279706	city	7	1	1.570611	1.570611	0	1	0	0	CorrectCommission	1.899458	1.177925	0	0	5.242500e+01
235.475754	1.292929	mountain	8	0	0.000000	1.765295	1	0	0	0	CorrectOmission	2.797542	1.175112	0	0	5.120000e+01
236.775284	1.306150	city	6	1	1.532780	1.532780	0	1	0	0	CorrectCommission	1.724943	1.158274	0	0	4.997500e+01
238.081436	1.306159	city	9	1	0.897248	0.897248	0	1	0	0	CorrectCommission	1.206790	1.128650	0	0	4.875000e+01
239.374405	1.279762	city	8	1	0.813039	0.813039	0	1	0	0	CorrectCommission	1.595253	1.088895	0	0	4.752500e+01
240.654007	1.279436	city	7	1	1.458399	1.458399	0	1	0	0	CorrectCommission	1.381818	1.042820	0	0	4.630000e+01
241.933502	1.279554	city	1	1	1.293840	1.293840	0	1	0	0	CorrectCommission	0.622702	0.994987	0	0	4.507500e+01
243.239700	1.332864	city	6	1	1.230878	1.230878	0	1	0	0	CorrectCommission	0.332256	0.950087	0	0	4.385000e+01
244.552704	1.293131	city	4	1	1.245870	1.245870	0	1	0	0	CorrectCommission	0.401416	0.912278	0	0	4.262500e+01
245.852356	1.306176	city	8	1	1.097994	1.097994	0	1	0	0	CorrectCommission	0.280740	0.884632	0	0	4.140000e+01
247.151886	1.292874	city	9	1	1.064682	1.064682	0	1	0	0	CorrectCommission	0.434413	0.868709	0	0	4.017500e+01
248.444702	1.292762	city	3	1	1.037073	1.037073	0	1	0	0	CorrectCommission	0.561776	0.864358	0	0	3.895000e+01
249.737625	1.293091	city	8	1	1.146566	1.146566	0	1	0	0	CorrectCommission	0.056677	0.869815	0	0	3.772500e+01
251.023895	1.279434	city	10	1	0.930948	0.930948	0	1	0	0	CorrectCommission	1.051330	0.882049	0	0	3.650000e+01
252.303467	1.279726	city	2	1	1.192585	1.192585	0	1	0	0	CorrectCommission	0.155612	0.897241	0	0	3.527500e+01
253.589691	1.292730	mountain	6	0	0.000000	1.625375	1	0	0	0	CorrectOmission	2.152088	0.911491	0	0	3.405000e+01
254.882614	1.293097	city	4	1	1.699524	1.699524	0	1	0	0	CorrectCommission	2.494138	0.921271	0	0	3.282500e+01
256.175568	1.292814	city	10	1	0.885237	0.885237	0	1	0	0	CorrectCommission	1.262201	0.923972	0	0	3.160000e+01
257.461761	1.279563	city	5	1	0.824619	0.824619	0	1	0	0	CorrectCommission	1.541834	0.918203	0	0	3.037500e+01
258.761383	1.319671	city	3	1	1.165964	1.165964	0	1	0	0	CorrectCommission	0.032804	0.903759	0	0	2.915000e+01
260.067566	1.292718	city	9	1	1.190724	1.190724	0	1	0	0	CorrectCommission	0.147026	0.881575	0	0	2.792500e+01
261.353821	1.279764	city	10	1	0.962497	0.962497	0	1	0	0	CorrectCommission	0.905797	0.853391	0	0	2.670000e+01
262.646790	1.306215	city	2	1	1.400864	1.400864	0	1	0	0	CorrectCommission	1.116409	0.821470	0	0	2.547500e+01
263.953033	1.306273	city	4	1	1.375387	1.375387	0	1	0	0	CorrectCommission	0.998885	0.788288	0	0	2.425000e+01
265.252533	1.292708	city	8	1	0.930852	0.930852	0	1	0	0	CorrectCommission	1.051774	0.756326	0	0	2.302500e+01
266.538696	1.279647	city	5	1	1.248343	1.248343	0	1	0	0	CorrectCommission	0.412824	0.727826	1	0	2.180000e+01
267.818329	1.279609	city	9	1	1.305393	1.305393	0	1	0	0	CorrectCommission	0.675998	0.704684	1	0	2.057500e+01
269.117889	1.319517	city	4	1	1.164114	1.164114	0	1	0	0	CorrectCommission	0.024271	0.688287	1	0	1.935000e+01
270.417511	1.279726	city	6	1	1.038818	1.038818	0	1	0	0	CorrectCommission	0.553722	0.679518	1	0	1.812500e+01
271.737061	1.359379	city	8	1	0.929030	0.929030	0	1	0	0	CorrectCommission	1.060181	0.678646	1	0	1.690000e+01
273.083282	1.333057	city	6	1	1.083154	1.083154	0	1	0	0	CorrectCommission	0.349201	0.685313	1	0	1.567500e+01
274.389618	1.279583	city	2	1	1.089262	1.089262	0	1	0	0	CorrectCommission	0.321026	0.698625	1	0	1.445000e+01
275.675751	1.292725	city	8	1	1.173247	1.173247	0	1	0	0	CorrectCommission	0.066403	0.717199	1	0	1.322500e+01
276.322144	8.623896	break	0	0	0.000000	1.312024	0	0	0	0	ThoughtProbe	0.706587	0.739292	1	12	12
285.585785	1.279526	mountain	4	0	0.000000	1.441020	1	0	0	0	CorrectOmission	1.301650	0.763007	0	0	1.365217e+01
286.865417	1.279726	mountain	8	0	0.000000	1.495662	1	0	0	0	CorrectOmission	1.553715	0.786437	0	0	1.530435e+01
288.145081	1.279599	city	4	1	1.411377	1.411377	0	1	0	0	CorrectCommission	1.164907	0.807902	0	0	1.695652e+01
289.424652	1.279576	city	7	1	1.123594	1.123594	0	1	0	0	CorrectCommission	0.162649	0.826061	0	0	1.860870e+01
290.704193	1.279493	city	4	1	1.124250	1.124250	0	1	0	0	CorrectCommission	0.159622	0.840035	0	0	2.026087e+01
291.983765	1.279666	city	3	1	0.876314	0.876314	0	1	0	0	CorrectCommission	1.303360	0.849448	0	0	2.191304e+01
293.263336	1.279446	city	5	1	0.857824	0.857824	0	1	0	0	CorrectCommission	1.388658	0.854392	0	0	2.356522e+01
294.542908	1.279717	city	8	1	0.803842	0.803842	0	1	0	0	CorrectCommission	1.637677	0.855434	0	0	2.521739e+01
295.822510	1.279447	city	10	1	1.041567	1.041567	0	1	0	0	CorrectCommission	0.541045	0.853437	0	0	2.686957e+01
297.102020	1.279602	city	2	1	1.391043	1.391043	0	1	0	0	CorrectCommission	1.071106	0.849451	0	0	2.852174e+01
298.388245	1.292838	city	5	1	1.139013	1.139013	0	1	0	0	CorrectCommission	0.091522	0.844494	0	0	3.017391e+01
299.681122	1.292910	city	1	1	1.316271	1.316271	0	1	0	0	CorrectCommission	0.726179	0.839475	0	0	3.182609e+01
300.974121	1.293082	city	6	1	1.191214	1.191214	0	1	0	0	CorrectCommission	0.149286	0.835002	0	0	3.347826e+01
302.260437	1.279584	city	3	1	0.910874	0.910874	0	1	0	0	CorrectCommission	1.143933	0.831388	0	0	3.513043e+01
303.539917	1.279384	city	6	1	0.817148	0.817148	0	1	0	0	CorrectCommission	1.576297	0.828610	0	0	3.678261e+01
304.819519	1.279767	city	7	1	1.071063	1.071063	0	1	0	0	CorrectCommission	0.404975	0.826431	0	0	3.843478e+01
306.099121	1.279486	mountain	6	0	0.000000	1.369797	1	0	0	0	CorrectOmission	0.973098	0.824470	0	0	4.008696e+01
307.385376	1.292994	city	2	1	1.462511	1.462511	0	1	0	0	CorrectCommission	1.400791	0.822242	0	0	4.173913e+01
308.671600	1.279469	city	6	1	1.098366	1.098366	0	1	0	0	CorrectCommission	0.279027	0.819292	0	0	4.339130e+01
309.951111	1.279570	city	2	1	0.962835	0.962835	0	1	0	0	CorrectCommission	0.904235	0.815275	0	0	4.504348e+01
311.237335	1.292873	city	5	1	1.034855	1.034855	0	1	0	0	CorrectCommission	0.572004	0.809913	0	0	4.669565e+01
312.530243	1.292898	city	7	1	1.057685	1.057685	0	1	0	0	CorrectCommission	0.466689	0.803085	0	0	4.834783e+01
313.816528	1.279726	city	1	1	1.390904	1.390904	0	1	0	0	CorrectCommission	1.070461	0.794838	0	0	50
315.102783	1.292763	city	6	1	1.409994	1.409994	0	1	0	0	CorrectCommission	1.158528	0.785371	0	0	5.165217e+01
316.389038	1.279738	city	3	1	1.342926	1.342926	0	1	0	0	CorrectCommission	0.849138	0.775081	0	0	5.330435e+01
317.668732	1.279660	mountain	2	0	0.000000	1.387883	1	0	0	0	CorrectOmission	1.056529	0.764501	0	0	5.495652e+01
318.948334	1.279508	city	1	1	1.399204	1.399204	0	1	0	0	CorrectCommission	1.108751	0.754214	1	0	5.660870e+01
320.227814	1.279492	city	5	1	1.231224	1.231224	0	1	0	0	CorrectCommission	0.333853	0.744735	1	0	5.826087e+01
321.514008	1.292905	city	3	1	1.175864	1.175864	0	1	0	0	CorrectCommission	0.078474	0.736402	1	0	5.991304e+01
322.800293	1.279646	city	9	1	1.228412	1.228412	0	1	0	0	CorrectCommission	0.320882	0.729264	1	0	6.156522e+01
324.079926	1.279604	city	6	1	0.940901	0.940901	0	1	0	0	CorrectCommission	1.005419	0.723056	1	0	6.321739e+01
325.359467	1.279494	city	7	1	1.339296	1.339296	0	1	0	0	CorrectCommission	0.832395	0.717214	1	0	6.486957e+01
326.638947	1.279491	city	5	1	1.177319	1.177319	0	1	0	0	CorrectCommission	0.085188	0.711055	1	0	6.652174e+01
327.918518	1.279630	city	3	1	1.390615	1.390615	0	1	0	0	CorrectCommission	1.069132	0.703905	1	0	6.817391e+01
329.211517	1.306378	city	2	1	1.557649	1.557649	0	1	0	0	CorrectCommission	1.839666	0.695260	1	0	6.982609e+01
330.511139	1.292868	city	7	1	1.354746	1.354746	0	1	0	0	CorrectCommission	0.903666	0.684967	1	0	7.147826e+01
331.797302	1.279473	city	6	1	1.091303	1.091303	0	1	0	0	CorrectCommission	0.311607	0.673355	1	0	7.313043e+01
333.076904	1.279709	city	5	1	1.099549	1.099549	0	1	0	0	CorrectCommission	0.273569	0.661244	1	0	7.478261e+01
334.356537	1.279554	city	9	1	1.363036	1.363036	0	1	0	0	CorrectCommission	0.941909	0.649854	1	0	7.643478e+01
335.636047	1.279469	city	8	1	1.123615	1.123615	0	1	0	0	CorrectCommission	0.162550	0.640676	1	0	7.808696e+01
336.922302	1.293042	city	6	1	1.082128	1.082128	0	1	0	0	CorrectCommission	0.353934	0.635373	1	0	7.973913e+01
338.208618	1.279573	city	9	1	0.931419	0.931419	0	1	0	0	CorrectCommission	1.049161	0.635504	1	0	8.139130e+01
339.488129	1.279479	city	1	1	1.088861	1.088861	0	1	0	0	CorrectCommission	0.322872	0.642363	1	0	8.304348e+01
340.774261	1.292778	city	2	1	1.353454	1.353454	0	1	0	0	CorrectCommission	0.897704	0.656808	1	0	8.469565e+01
342.060486	1.279627	city	10	1	1.122130	1.122130	0	1	0	0	CorrectCommission	0.169403	0.679050	1	0	8.634783e+01
345.579346	5.758109	break	0	0	0.000000	1.266483	0	0	0	0	ThoughtProbe	0.496502	0.708610	1	88	88
349.098206	1.279600	city	6	1	1.410908	1.410908	0	1	0	0	CorrectCommission	1.162743	0.744238	1	0	8.785294e+01
350.451050	1.426131	city	9	1	1.179802	1.179802	0	1	0	0	CorrectCommission	0.096640	0.783942	0	0	8.770588e+01
351.803925	1.279619	city	5	1	1.088777	1.088777	0	1	0	0	CorrectCommission	0.323260	0.825195	0	0	8.755882e+01
353.103638	1.319758	city	4	1	1.113143	1.113143	0	1	0	0	CorrectCommission	0.210859	0.865137	0	0	8.741176e+01
354.409943	1.292861	city	6	1	0.936042	0.936042	0	1	0	0	CorrectCommission	1.027832	0.900927	0	0	8.726471e+01
355.709503	1.306306	city	4	1	1.602677	1.602677	0	1	0	0	CorrectCommission	2.047382	0.930072	0	0	8.711765e+01
357.009125	1.292885	mountain	9	0	0.000000	1.691384	1	0	0	0	CorrectOmission	2.456588	0.950726	0	0	8.697059e+01
358.315338	1.319562	city	5	1	1.515265	1.515265	0	1	0	0	CorrectCommission	1.644148	0.961892	0	0	8.682353e+01
359.634827	1.319443	city	7	1	1.387426	1.387426	0	1	0	0	CorrectCommission	1.054421	0.963458	0	0	8.667647e+01
360.961060	1.333013	city	3	1	1.008522	1.008522	0	1	0	0	CorrectCommission	0.693482	0.955998	0	0	8.652941e+01
362.273865	1.292556	city	10	1	1.090038	1.090038	0	1	0	0	CorrectCommission	0.317442	0.940518	0	0	8.638235e+01
363.566681	1.293082	city	9	1	1.204639	1.204639	0	1	0	0	CorrectCommission	0.211215	0.918165	0	0	8.623529e+01
364.859741	1.293064	city	1	1	1.229869	1.229869	0	1	0	0	CorrectCommission	0.327603	0.889983	0	0	8.608824e+01
366.166077	1.319625	city	9	1	0.969512	0.969512	0	1	0	0	CorrectCommission	0.873435	0.856800	0	0	8.594118e+01
367.465637	1.279503	city	10	1	1.473410	1.473410	0	1	0	0	CorrectCommission	1.451065	0.819217	0	0	8.579412e+01
368.751831	1.292828	mountain	7	0	0.000000	1.585382	1	0	0	0	CorrectOmission	1.967596	0.777779	0	0	8.564706e+01
370.037994	1.279515	city	2	1	1.416529	1.416529	0	1	0	0	CorrectCommission	1.188674	0.733138	1	0	8.550000e+01
371.337524	1.319566	city	6	1	1.077954	1.077954	0	1	0	0	CorrectCommission	0.373187	0.686246	1	0	8.535294e+01
372.663849	1.333055	city	7	1	1.067352	1.067352	0	1	0	0	CorrectCommission	0.422093	0.638405	1	0	8.520588e+01
373.996826	1.332898	city	2	1	0.990552	0.990552	0	1	0	0	CorrectCommission	0.776376	0.591185	1	0	8.505882e+01
375.329712	1.332926	city	3	1	1.163773	1.163773	0	1	0	0	CorrectCommission	0.022701	0.546348	1	0	8.491176e+01
376.669250	1.346112	city	1	1	1.141155	1.141155	0	1	0	0	CorrectCommission	0.081639	0.505640	1	0	8.476471e+01
377.988708	1.292829	city	2	1	1.244223	1.244223	0	1	0	0	CorrectCommission	0.393817	0.470565	1	0	8.461765e+01
379.274841	1.279414	city	9	1	1.233522	1.233522	0	1	0	0	CorrectCommission	0.344455	0.442259	1	0	8.447059e+01
380.554504	1.279924	city	10	1	1.088763	1.088763	0	1	0	0	CorrectCommission	0.323326	0.421353	1	0	8.432353e+01
381.840881	1.292854	city	1	1	1.255256	1.255256	0	1	0	0	CorrectCommission	0.444715	0.407974	1	0	8.417647e+01
383.133728	1.292792	city	8	1	1.189765	1.189765	0	1	0	0	CorrectCommission	0.142603	0.401761	1	0	8.402941e+01
384.433319	1.306410	city	7	1	1.199712	1.199712	0	1	0	0	CorrectCommission	0.188487	0.401970	1	0	8.388235e+01
385.746216	1.319380	city	3	1	1.077410	1.077410	0	1	0	0	CorrectCommission	0.375697	0.407599	1	0	8.373529e+01
387.059113	1.306422	city	1	1	0.991759	0.991759	0	1	0	0	CorrectCommission	0.770809	0.417542	1	0	8.358824e+01
388.372101	1.319568	city	9	1	1.098698	1.098698	0	1	0	0	CorrectCommission	0.277496	0.430751	1	0	8.344118e+01
389.671692	1.279588	city	1	1	1.087107	1.087107	0	1	0	0	CorrectCommission	0.330965	0.446341	1	0	8.329412e+01
390.971191	1.319429	city	5	1	1.011762	1.011762	0	1	0	0	CorrectCommission	0.678532	0.463640	1	0	8.314706e+01
391.630920	8.144008	break	0	1	1.031182	1.031182	0	0	0	0	ThoughtProbe	0.588950	0.482228	1	83	83
400.428009	1.306167	mountain	1	0	0.000000	1.133329	1	0	0	0	CorrectOmission	0.117742	0.501917	1	0	8.175000e+01
401.734192	1.306229	city	4	1	1.147823	1.147823	0	1	0	0	CorrectCommission	0.050878	0.522686	1	0	8.050000e+01
403.053802	1.332982	city	9	1	0.904286	0.904286	0	1	0	0	CorrectCommission	1.174324	0.544572	1	0	7.925000e+01
404.360046	1.279522	mountain	9	0	0.000000	0.923434	1	0	0	0	CorrectOmission	1.085997	0.567538	1	0	78
405.646271	1.292878	city	10	1	1.101723	1.101723	0	1	0	0	CorrectCommission	0.263541	0.591400	1	0	7.675000e+01
406.932556	1.279700	city	6	1	1.335613	1.335613	0	1	0	0	CorrectCommission	0.815401	0.615712	1	0	7.550000e+01
408.218872	1.292949	city	10	1	1.159218	1.159218	0	1	0	0	CorrectCommission	0.001686	0.639647	1	0	7.425000e+01
409.511749	1.292799	city	9	1	1.195136	1.195136	0	1	0	0	CorrectCommission	0.167378	0.662057	1	0	73
410.837952	1.359587	city	5	1	0.981370	0.981370	0	1	0	0	CorrectCommission	0.818732	0.681576	1	0	7.175000e+01
412.170837	1.306205	city	9	1	1.108921	1.108921	0	1	0	0	CorrectCommission	0.230334	0.696811	1	0	7.050000e+01
413.497101	1.346354	city	3	1	0.873608	0.873608	0	1	0	0	CorrectCommission	1.315843	0.706669	1	0	6.925000e+01
414.830017	1.319469	city	2	1	0.795553	0.795553	0	1	0	0	CorrectCommission	1.675916	0.710602	1	0	68
416.136261	1.293007	city	10	1	0.858418	0.858418	0	1	0	0	CorrectCommission	1.385915	0.708865	1	0	6.675000e+01
417.435852	1.306187	city	9	1	0.911708	0.911708	0	1	0	0	CorrectCommission	1.140089	0.702593	1	0	6.550000e+01
418.728699	1.279517	city	6	1	1.143865	1.143865	0	1	0	0	CorrectCommission	0.069138	0.693709	1	0	6.425000e+01
420.021637	1.306346	city	4	1	0.979493	0.979493	0	1	0	0	CorrectCommission	0.827394	0.684676	1	0	63
421.321167	1.292721	city	6	1	1.036920	1.036920	0	1	0	0	CorrectCommission	0.562481	0.678016	1	0	6.175000e+01
422.627319	1.319575	city	3	1	1.144078	1.144078	0	1	0	0	CorrectCommission	0.068157	0.675903	1	0	6.050000e+01
423.953644	1.333072	city	1	1	1.085299	1.085299	0	1	0	0	CorrectCommission	0.339304	0.679731	1	0	5.925000e+01
425.259979	1.279600	mountain	3	0	0.000000	1.103189	1	0	0	0	CorrectOmission	0.256780	0.689768	1	0	58
426.552795	1.306044	city	8	1	1.141333	1.141333	0	1	0	0	CorrectCommission	0.080816	0.705144	1	0	5.675000e+01
427.852264	1.292897	city	2	1	1.143322	1.143322	0	1	0	0	CorrectCommission	0.071643	0.724031	1	0	5.550000e+01
429.138519	1.279606	city	9	1	1.396369	1.396369	0	1	0	0	CorrectCommission	1.095674	0.743980	1	0	5.425000e+01
430.451477	1.346288	city	3	1	1.426794	1.426794	0	1	0	0	CorrectCommission	1.236024	0.762477	0	0	53
431.784393	1.319576	city	7	1	1.578896	1.578896	0	1	0	0	CorrectCommission	1.937676	0.777580	0	0	5.175000e+01
433.110687	1.332966	city	5	1	1.492368	1.492368	0	1	0	0	CorrectCommission	1.538523	0.788399	0	0	5.050000e+01
434.430206	1.306075	city	2	1	1.387903	1.387903	0	1	0	0	CorrectCommission	1.056622	0.795452	0	0	4.925000e+01
435.729767	1.293091	city	7	1	1.402014	1.402014	0	1	0	0	CorrectCommission	1.121713	0.800649	0	0	48
437.062744	1.372847	city	8	1	1.147998	1.147998	0	1	0	0	CorrectCommission	0.050073	0.807046	0	0	4.675000e+01
438.422241	1.346151	city	1	1	1.212415	1.212415	0	1	0	0	CorrectCommission	0.247085	0.818310	0	0	4.550000e+01
439.768402	1.346144	city	3	1	0.981694	0.981694	0	1	0	0	CorrectCommission	0.817240	0.837988	0	0	4.425000e+01
441.087891	1.292828	city	6	1	1.315319	1.315319	0	1	0	0	CorrectCommission	0.721786	0.868828	0	0	43
442.394196	1.319817	city	2	1	1.121601	1.121601	0	1	0	0	CorrectCommission	0.171844	0.912111	0	0	4.175000e+01
443.727203	1.346205	city	9	1	1.147378	1.147378	0	1	0	0	CorrectCommission	0.052932	0.967256	0	0	4.050000e+01
445.053375	1.306092	city	2	1	0.973017	0.973017	0	1	0	0	CorrectCommission	0.857266	1.031640	0	0	3.925000e+01
446.372925	1.333056	city	8	1	1.049159	1.049159	0	1	0	0	CorrectCommission	0.506022	1.100806	0	0	38
447.685883	1.292802	city	1	1	0.911611	0.911611	0	1	0	0	CorrectCommission	1.140536	1.169012	0	0	3.675000e+01
448.985382	1.306229	city	9	1	0.817623	0.817623	0	1	0	0	CorrectCommission	1.574105	1.229938	0	0	3.550000e+01
450.298248	1.319512	city	3	1	1.015537	1.015537	0	1	0	0	CorrectCommission	0.661121	1.277624	0	0	3.425000e+01
454.616882	7.317774	break	0	0	0.000000	1.753255	0	0	0	0	ThoughtProbe	2.742004	1.307386	0	33	33
458.928894	1.306213	city	10	1	2.249278	2.249278	0	1	0	0	CorrectCommission	5.030178	1.316387	0	0	3.263043e+01
460.241699	1.319427	city	1	1	1.722105	1.722105	0	1	0	0	CorrectCommission	2.598306	1.304068	0	0	3.226087e+01
461.561188	1.319541	city	10	1	1.272155	1.272155	0	1	0	0	CorrectCommission	0.522668	1.272244	0	0	3.189130e+01
462.920746	1.399563	city	1	1	1.070730	1.070730	0	1	0	0	CorrectCommission	0.406511	1.224583	0	0	3.152174e+01
464.280518	1.319956	mountain	5	0	0.000000	1.076923	1	0	0	0	CorrectOmission	0.377945	1.165942	0	0	3.115217e+01
465.606812	1.332654	city	8	1	1.112068	1.112068	0	1	0	0	CorrectCommission	0.215820	1.101606	0	0	3.078261e+01
466.912903	1.279506	city	6	1	0.997501	0.997501	0	1	0	0	CorrectCommission	0.744323	1.036551	0	0	3.041304e+01
468.212372	1.319478	mountain	7	1	0.834027	0.834027	0	0	1	0	CommissionError	1.498431	0.974916	0	0	3.004348e+01
469.518585	1.292900	city	5	1	1.313225	1.313225	0	1	0	0	CorrectCommission	0.712128	0.919638	0	0	2.967391e+01
470.804871	1.279666	city	6	1	1.035635	1.035635	0	1	0	0	CorrectCommission	0.568407	0.872458	0	0	2.930435e+01
472.097839	1.306304	city	5	1	0.904251	0.904251	0	1	0	0	CorrectCommission	1.174485	0.834031	0	0	2.893478e+01
473.424042	1.346117	city	2	1	1.033152	1.033152	0	1	0	0	CorrectCommission	0.579859	0.804124	0	0	2.856522e+01
474.776886	1.359541	city	8	1	0.913758	0.913758	0	1	0	0	CorrectCommission	1.130633	0.782033	0	0	2.819565e+01
476.096466	1.279617	mountain	3	0	0.000000	1.147859	1	0	0	0	CorrectOmission	0.050714	0.766805	0	0	2.782609e+01
477.382690	1.292838	city	6	1	1.330252	1.330252	0	1	0	0	CorrectCommission	0.790674	0.757604	0	0	2.745652e+01
478.695648	1.333088	city	10	1	1.055734	1.055734	0	1	0	0	CorrectCommission	0.475690	0.753765	1	0	2.708696e+01
480.021881	1.319370	city	9	1	0.993624	0.993624	0	1	0	0	CorrectCommission	0.762204	0.754985	0	0	2.671739e+01
481.334778	1.306416	city	5	1	0.933783	0.933783	0	1	0	0	CorrectCommission	1.038253	0.761344	0	0	2.634783e+01
482.627777	1.279579	city	7	1	1.473588	1.473588	0	1	0	0	CorrectCommission	1.451888	0.773191	0	0	2.597826e+01
483.940582	1.346038	city	5	1	1.248763	1.248763	0	1	0	0	CorrectCommission	0.414759	0.791042	0	0	2.560870e+01
485.260071	1.292953	city	3	1	1.156694	1.156694	0	1	0	0	CorrectCommission	0.009959	0.815406	0	0	2.523913e+01
486.559723	1.306370	city	4	1	1.395578	1.395578	0	1	0	0	CorrectCommission	1.092023	0.846490	0	0	2.486957e+01
487.906036	1.386220	city	6	1	1.083101	1.083101	0	1	0	0	CorrectCommission	0.349446	0.883942	0	0	2.450000e+01
489.238861	1.279442	city	7	1	0.861256	0.861256	0	1	0	0	CorrectCommission	1.372826	0.926812	0	0	2.413043e+01
490.545044	1.332939	city	6	1	1.242610	1.242610	0	1	0	0	CorrectCommission	0.386375	0.973350	0	0	2.376087e+01
491.851318	1.279574	city	10	1	1.162607	1.162607	0	1	0	0	CorrectCommission	0.017319	1.021102	0	0	2.339130e+01
493.130920	1.279677	city	6	1	1.570585	1.570585	0	1	0	0	CorrectCommission	1.899337	1.067005	0	0	2.302174e+01
494.450500	1.359462	city	3	1	0.971021	0.971021	0	1	0	0	CorrectCommission	0.866474	1.107629	0	0	2.265217e+01
495.776703	1.292940	city	6	1	0.759269	0.759269	0	1	0	0	CorrectCommission	1.843296	1.139598	0	0	2.228261e+01
497.082886	1.319443	city	4	1	0.592401	0.592401	0	1	0	0	CorrectCommission	2.613064	1.159826	0	0	2.191304e+01
498.415771	1.346281	mountain	8	0	0.000000	1.129190	1	0	0	0	CorrectOmission	0.136834	1.165936	0	0	2.154348e+01
499.728668	1.279565	city	9	1	1.513824	1.513824	0	1	0	0	CorrectCommission	1.637498	1.156543	0	0	2.117391e+01
501.028290	1.319654	city	5	1	0.890491	0.890491	0	1	0	0	CorrectCommission	1.237964	1.131229	0	0	2.080435e+01
502.354584	1.332943	city	3	1	0.498992	0.498992	0	1	0	0	CorrectCommission	3.043961	1.090671	0	0	2.043478e+01
503.694122	1.346120	city	4	1	1.061566	1.061566	0	1	0	0	CorrectCommission	0.448789	1.036419	0	0	2.006522e+01
505.040314	1.346239	city	9	1	1.037038	1.037038	0	1	0	0	CorrectCommission	0.561936	0.970773	0	0	1.969565e+01
506.399872	1.372925	city	8	1	0.838373	0.838373	0	1	0	0	CorrectCommission	1.478382	0.896352	0	0	1.932609e+01
507.726074	1.279448	city	7	1	1.146493	1.146493	0	1	0	0	CorrectCommission	0.057014	0.815820	0	0	1.895652e+01
509.018982	1.306406	city	10	1	0.929595	0.929595	0	1	0	0	CorrectCommission	1.057574	0.731610	1	0	1.858696e+01
510.338562	1.332719	city	1	1	1.215338	1.215338	0	1	0	0	CorrectCommission	0.260572	0.645701	1	0	1.821739e+01
511.664703	1.319570	city	2	1	1.203859	1.203859	0	1	0	0	CorrectCommission	0.207618	0.559527	1	0	1.784783e+01
512.977600	1.306239	city	7	1	1.089361	1.089361	0	1	0	0	CorrectCommission	0.320569	0.473993	1	0	1.747826e+01
514.290527	1.319609	city	5	1	1.403175	1.403175	0	1	0	0	CorrectCommission	1.127072	0.389479	1	0	1.710870e+01
515.616882	1.333087	city	10	1	1.239056	1.239056	0	1	0	0	CorrectCommission	0.369983	0.305980	1	0	1.673913e+01
516.943176	1.319467	city	1	1	1.214240	1.214240	0	1	0	0	CorrectCommission	0.255505	0.223295	1	0	1.636957e+01
517.602905	8.024055	break	0	0	0.000000	1.189424	0	0	0	0	ThoughtProbe	0.141026	0.141026	1	16	16
