onset	duration	trial_type	image_type	Press	ReactionTime	ReactionTime_Interpolated	CorrectOmission	CorrectCommission	CommissionError	OmissionError	response_type	nonsmoothVarianceTimeCourse	VarianceTimeCourse	In_the_Zone	ThoughtProbe	ThoughtProbe_Interpolated
0.653016	1.279720	mountain	7	0	0.000000	1.649063	1	0	0	0	CorrectOmission	1.937112	1.937112	0	0	40
1.932664	1.279575	city	3	1	1.342488	1.342488	0	1	0	0	CorrectCommission	0.510460	1.769440	0	0	40
3.212241	1.279579	city	1	1	1.035913	1.035913	0	1	0	0	CorrectCommission	0.916191	1.607792	0	0	40
4.498493	1.292924	city	9	1	1.068260	1.068260	0	1	0	0	CorrectCommission	0.765663	1.457464	0	0	40
5.784748	1.279586	city	10	1	1.017572	1.017572	0	1	0	0	CorrectCommission	1.001541	1.322498	0	0	40
7.070984	1.292886	city	7	1	1.255104	1.255104	0	1	0	0	CorrectCommission	0.103817	1.205273	0	0	40
8.363893	1.292931	city	3	1	1.074014	1.074014	0	1	0	0	CorrectCommission	0.738887	1.106423	0	0	40
9.650137	1.279559	city	9	1	0.972410	0.972410	0	1	0	0	CorrectCommission	1.211706	1.024917	0	0	40
10.929712	1.279590	city	6	1	0.967341	0.967341	0	1	0	0	CorrectCommission	1.235295	0.958418	0	0	40
12.222619	1.306225	city	10	1	1.021755	1.021755	0	1	0	0	CorrectCommission	0.982078	0.903754	0	0	40
13.515530	1.279597	city	9	1	1.124721	1.124721	0	1	0	0	CorrectCommission	0.502921	0.857398	0	0	40
14.795108	1.279558	mountain	2	0	0.000000	1.113623	1	0	0	0	CorrectOmission	0.554570	0.815950	0	0	40
16.074675	1.279576	city	4	1	1.035756	1.035756	0	1	0	0	CorrectCommission	0.916922	0.776523	1	0	40
17.367535	1.306144	city	8	1	0.938422	0.938422	0	1	0	0	CorrectCommission	1.369871	0.737023	1	0	40
18.660378	1.279543	city	6	1	0.985403	0.985403	0	1	0	0	CorrectCommission	1.151240	0.696269	1	0	40
19.939951	1.279603	city	1	1	1.408827	1.408827	0	1	0	0	CorrectCommission	0.819171	0.653996	1	0	40
21.226210	1.292915	city	2	1	1.301809	1.301809	0	1	0	0	CorrectCommission	0.321159	0.610723	1	0	40
22.512430	1.279525	city	9	1	1.284181	1.284181	0	1	0	0	CorrectCommission	0.239126	0.567519	1	0	40
23.811977	1.319567	city	3	1	1.380947	1.380947	0	1	0	0	CorrectCommission	0.689430	0.525799	1	0	40
25.111639	1.279757	city	6	1	1.236460	1.236460	0	1	0	0	CorrectCommission	0.017056	0.487055	1	0	40
26.391293	1.279550	mountain	7	0	0.000000	1.274265	1	0	0	0	CorrectOmission	0.192984	0.452712	1	0	40
27.670868	1.279598	city	4	1	1.289440	1.289440	0	1	0	0	CorrectCommission	0.263599	0.423952	1	0	40
28.950457	1.279581	city	9	1	1.077060	1.077060	0	1	0	0	CorrectCommission	0.724713	0.401716	1	0	40
30.230040	1.279584	city	6	1	1.125100	1.125100	0	1	0	0	CorrectCommission	0.501158	0.386654	1	0	40
31.509609	1.279556	city	10	1	1.202423	1.202423	0	1	0	0	CorrectCommission	0.141335	0.379141	1	0	40
32.795841	1.292909	city	4	1	1.189651	1.189651	0	1	0	0	CorrectCommission	0.200772	0.379264	1	0	40
34.088680	1.292773	city	5	1	1.248995	1.248995	0	1	0	0	CorrectCommission	0.075388	0.386789	1	0	40
35.388172	1.306207	city	3	1	1.205372	1.205372	0	1	0	0	CorrectCommission	0.127612	0.401171	1	0	40
36.681080	1.279611	city	2	1	1.071152	1.071152	0	1	0	0	CorrectCommission	0.752208	0.421486	1	0	40
37.967407	1.293041	city	6	1	1.129628	1.129628	0	1	0	0	CorrectCommission	0.480086	0.446403	1	0	40
39.273628	1.319403	city	5	1	1.230228	1.230228	0	1	0	0	CorrectCommission	0.011946	0.474269	1	0	40
40.586456	1.306251	city	7	1	1.279851	1.279851	0	1	0	0	CorrectCommission	0.218978	0.503168	1	0	40
41.886112	1.293062	city	4	1	1.124608	1.124608	0	1	0	0	CorrectCommission	0.503448	0.531065	1	0	40
43.179108	1.292927	city	5	1	1.071265	1.071265	0	1	0	0	CorrectCommission	0.751680	0.556061	1	0	40
44.478687	1.306234	city	2	1	1.059670	1.059670	0	1	0	0	CorrectCommission	0.805638	0.576629	1	0	40
45.771542	1.279471	city	9	1	0.964127	0.964127	0	1	0	0	CorrectCommission	1.250250	0.591854	1	0	40
47.057762	1.292971	city	1	1	1.088154	1.088154	0	1	0	0	CorrectCommission	0.673087	0.601593	1	0	40
48.364052	1.319611	city	6	1	0.989302	0.989302	0	1	0	0	CorrectCommission	1.133097	0.606579	1	0	40
49.670315	1.292913	city	9	1	1.032377	1.032377	0	1	0	0	CorrectCommission	0.932647	0.608316	1	0	40
53.449074	6.264605	break	0	0	0.000000	1.153336	0	0	0	0	ThoughtProbe	0.369764	0.608898	1	40	40
57.234528	1.306302	city	10	1	1.219557	1.219557	0	1	0	0	CorrectCommission	0.061600	0.610680	1	0	3.997059e+01
58.547417	1.319478	city	3	1	1.098422	1.098422	0	1	0	0	CorrectCommission	0.625304	0.615890	1	0	3.994118e+01
59.853622	1.292929	city	5	1	1.191846	1.191846	0	1	0	0	CorrectCommission	0.190556	0.626250	1	0	3.991176e+01
61.139885	1.279600	city	10	1	1.139794	1.139794	0	1	0	0	CorrectCommission	0.432783	0.642745	1	0	3.988235e+01
62.439415	1.319462	city	1	1	1.271039	1.271039	0	1	0	0	CorrectCommission	0.177969	0.665392	1	0	3.985294e+01
63.745617	1.292940	city	2	1	1.259244	1.259244	0	1	0	0	CorrectCommission	0.123082	0.693306	1	0	3.982353e+01
65.031883	1.279598	city	7	1	1.400582	1.400582	0	1	0	0	CorrectCommission	0.780803	0.724835	1	0	3.979412e+01
66.338135	1.332904	mountain	8	0	0.000000	1.531772	1	0	0	0	CorrectOmission	1.391296	0.757805	1	0	3.976471e+01
67.644302	1.279426	city	9	1	1.429926	1.429926	0	1	0	0	CorrectCommission	0.917354	0.789869	0	0	3.973529e+01
68.930542	1.293058	city	5	1	0.872158	0.872158	0	1	0	0	CorrectCommission	1.678232	0.818869	0	0	3.970588e+01
70.230118	1.306088	city	8	1	1.017764	1.017764	0	1	0	0	CorrectCommission	1.000647	0.843016	0	0	3.967647e+01
71.522957	1.279599	city	9	1	1.246522	1.246522	0	1	0	0	CorrectCommission	0.063881	0.861135	0	0	3.964706e+01
72.829224	1.332920	city	3	1	0.990109	0.990109	0	1	0	0	CorrectCommission	1.129343	0.872692	0	0	3.961765e+01
74.155479	1.319591	city	6	1	0.936769	0.936769	0	1	0	0	CorrectCommission	1.377563	0.877703	0	0	3.958824e+01
75.481705	1.332864	city	10	1	0.936312	0.936312	0	1	0	0	CorrectCommission	1.379690	0.876671	0	0	3.955882e+01
76.787994	1.279716	city	3	1	1.139664	1.139664	0	1	0	0	CorrectCommission	0.433384	0.870449	0	0	3.952941e+01
78.067558	1.279416	city	6	1	1.143523	1.143523	0	1	0	0	CorrectCommission	0.415428	0.860114	0	0	3.950000e+01
79.360458	1.306374	city	8	1	1.071027	1.071027	0	1	0	0	CorrectCommission	0.752789	0.846844	0	0	3.947059e+01
80.666763	1.306235	city	1	1	1.011943	1.011943	0	1	0	0	CorrectCommission	1.027737	0.831910	0	0	3.944118e+01
81.966286	1.292821	mountain	6	1	0.930210	0.930210	0	0	1	0	CommissionError	1.408083	0.816640	0	0	3.941176e+01
83.259163	1.292928	city	3	1	1.365060	1.365060	0	1	0	0	CorrectCommission	0.615497	0.802391	0	0	3.938235e+01
84.545471	1.279686	city	6	1	1.321027	1.321027	0	1	0	0	CorrectCommission	0.410591	0.790586	0	0	3.935294e+01
85.831749	1.292869	city	2	1	0.940555	0.940555	0	1	0	0	CorrectCommission	1.359944	0.782582	0	0	3.932353e+01
87.124641	1.292916	city	6	1	1.177794	1.177794	0	1	0	0	CorrectCommission	0.255946	0.779563	0	0	3.929412e+01
88.424217	1.306243	city	9	1	1.046935	1.046935	0	1	0	0	CorrectCommission	0.864900	0.782442	0	0	3.926471e+01
89.743744	1.332809	city	1	1	1.037244	1.037244	0	1	0	0	CorrectCommission	0.909999	0.791629	0	0	3.923529e+01
91.056511	1.292713	city	6	1	1.269719	1.269719	0	1	0	0	CorrectCommission	0.171828	0.806882	0	0	3.920588e+01
92.362778	1.319835	city	8	1	1.221400	1.221400	0	1	0	0	CorrectCommission	0.053023	0.827252	0	0	3.917647e+01
93.669067	1.292740	city	1	1	1.043665	1.043665	0	1	0	0	CorrectCommission	0.880117	0.851052	0	0	3.914706e+01
94.955231	1.279581	city	10	1	1.342969	1.342969	0	1	0	0	CorrectCommission	0.512698	0.875979	0	0	3.911765e+01
96.248138	1.306242	city	4	1	1.484787	1.484787	0	1	0	0	CorrectCommission	1.172650	0.899428	0	0	3.908824e+01
97.547722	1.292926	city	5	0	0.000000	1.549400	0	0	0	1	OmissionError	1.473328	0.918744	0	0	3.905882e+01
98.834068	1.279759	city	4	1	1.570242	1.570242	0	1	0	0	CorrectCommission	1.570317	0.931607	0	0	3.902941e+01
102.879471	6.811055	break	0	0	0.000000	1.580746	0	0	0	0	ThoughtProbe	1.619198	0.936311	0	39	39
106.931458	1.292904	city	2	1	1.527789	1.527789	0	1	0	0	CorrectCommission	1.372761	0.931928	0	0	4.023913e+01
108.217621	1.279427	city	1	1	1.358247	1.358247	0	1	0	0	CorrectCommission	0.583794	0.918402	0	0	4.147826e+01
109.517113	1.319564	city	3	1	1.245594	1.245594	0	1	0	0	CorrectCommission	0.059562	0.896503	0	0	4.271739e+01
110.816772	1.279758	city	2	1	0.988032	0.988032	0	1	0	0	CorrectCommission	1.139006	0.867670	0	0	4.395652e+01
112.116432	1.319562	mountain	5	1	0.882374	0.882374	0	0	1	0	CommissionError	1.630688	0.833780	0	0	4.519565e+01
113.415985	1.279530	city	10	1	1.363562	1.363562	0	1	0	0	CorrectCommission	0.608530	0.796945	0	0	4.643478e+01
114.708900	1.306315	city	6	1	1.455521	1.455521	0	1	0	0	CorrectCommission	1.036463	0.759327	1	0	4.767391e+01
116.015076	1.306030	city	8	1	1.209819	1.209819	0	1	0	0	CorrectCommission	0.106917	0.722895	1	0	4.891304e+01
117.321289	1.306394	city	9	1	1.315334	1.315334	0	1	0	0	CorrectCommission	0.384098	0.689350	1	0	5.015217e+01
118.614204	1.279443	city	10	1	1.282717	1.282717	0	1	0	0	CorrectCommission	0.232316	0.659990	1	0	5.139130e+01
119.893799	1.279740	city	6	1	1.556362	1.556362	0	1	0	0	CorrectCommission	1.505729	0.635644	1	0	5.263043e+01
121.180122	1.292907	city	5	1	1.187375	1.187375	0	1	0	0	CorrectCommission	0.211361	0.616688	1	0	5.386957e+01
122.486305	1.319458	city	1	1	1.129138	1.129138	0	1	0	0	CorrectCommission	0.482367	0.603111	1	0	5.510870e+01
123.819199	1.346330	city	2	1	1.146424	1.146424	0	1	0	0	CorrectCommission	0.401929	0.594492	1	0	5.634783e+01
125.138802	1.292886	city	4	1	1.157291	1.157291	0	1	0	0	CorrectCommission	0.351358	0.590133	1	0	5.758696e+01
126.438362	1.306234	city	1	1	1.152311	1.152311	0	1	0	0	CorrectCommission	0.374533	0.589144	1	0	5.882609e+01
127.744606	1.306243	city	8	1	1.065227	1.065227	0	1	0	0	CorrectCommission	0.779779	0.590519	1	0	6.006522e+01
129.044189	1.292935	city	3	1	0.992978	0.992978	0	1	0	0	CorrectCommission	1.115994	0.593269	1	0	6.130435e+01
130.343689	1.306069	mountain	5	0	0.000000	1.096795	1	0	0	0	CorrectOmission	0.632879	0.596489	1	0	6.254348e+01
131.644333	1.295194	mountain	7	1	1.253081	1.253081	0	0	1	0	CommissionError	0.094402	0.599470	1	0	6.378261e+01
132.937302	1.290760	city	7	1	1.338238	1.338238	0	1	0	0	CorrectCommission	0.490684	0.601718	1	0	6.502174e+01
134.249054	1.332730	city	8	1	0.991045	0.991045	0	1	0	0	CorrectCommission	1.124986	0.602972	1	0	6.626087e+01
135.568542	1.306246	city	5	1	1.114254	1.114254	0	1	0	0	CorrectCommission	0.551632	0.603205	1	0	6.750000e+01
136.888214	1.333116	city	7	1	1.008814	1.008814	0	1	0	0	CorrectCommission	1.042298	0.602599	1	0	6.873913e+01
138.194504	1.279450	mountain	6	0	0.000000	1.142563	1	0	0	0	CorrectOmission	0.419896	0.601483	1	0	6.997826e+01
139.494049	1.319633	city	8	1	1.259075	1.259075	0	1	0	0	CorrectCommission	0.122295	0.600267	1	0	7.121739e+01
140.800308	1.292908	city	1	1	1.101924	1.101924	0	1	0	0	CorrectCommission	0.609008	0.599373	1	0	7.245652e+01
142.126556	1.359568	city	3	1	1.162472	1.162472	0	1	0	0	CorrectCommission	0.327246	0.599205	1	0	7.369565e+01
143.452774	1.292888	city	7	1	0.988575	0.988575	0	1	0	0	CorrectCommission	1.136483	0.600150	1	0	7.493478e+01
144.745682	1.292931	city	1	1	1.253326	1.253326	0	1	0	0	CorrectCommission	0.095541	0.602578	1	0	7.617391e+01
146.038513	1.292722	city	5	1	1.417723	1.417723	0	1	0	0	CorrectCommission	0.860567	0.606843	1	0	7.741304e+01
147.344757	1.319754	city	7	1	1.450579	1.450579	0	1	0	0	CorrectCommission	1.013466	0.613250	1	0	7.865217e+01
148.651016	1.292769	city	5	1	1.379706	1.379706	0	1	0	0	CorrectCommission	0.683654	0.622018	1	0	7.989130e+01
149.950500	1.306197	city	9	1	1.177711	1.177711	0	1	0	0	CorrectCommission	0.256331	0.633286	1	0	8.113043e+01
151.243469	1.279734	city	8	1	1.343205	1.343205	0	1	0	0	CorrectCommission	0.513798	0.646987	1	0	8.236957e+01
152.529724	1.292786	city	3	1	1.256736	1.256736	0	1	0	0	CorrectCommission	0.111412	0.662776	1	0	8.360870e+01
153.815887	1.279544	city	6	1	1.074716	1.074716	0	1	0	0	CorrectCommission	0.735621	0.680019	1	0	8.484783e+01
155.115448	1.319584	city	4	1	1.093446	1.093446	0	1	0	0	CorrectCommission	0.648460	0.697770	1	0	8.608696e+01
156.421692	1.292885	city	7	1	1.481095	1.481095	0	1	0	0	CorrectCommission	1.155471	0.714860	1	0	8.732609e+01
157.748001	1.359735	city	10	1	1.097479	1.097479	0	1	0	0	CorrectCommission	0.629696	0.729962	1	0	8.856522e+01
159.067581	1.279420	city	6	1	1.412073	1.412073	0	1	0	0	CorrectCommission	0.834275	0.741768	1	0	8.980435e+01
160.367111	1.319655	city	7	1	1.457447	1.457447	0	1	0	0	CorrectCommission	1.045427	0.749096	1	0	9.104348e+01
161.673431	1.292976	city	6	1	1.143967	1.143967	0	1	0	0	CorrectCommission	0.413362	0.751006	1	0	9.228261e+01
162.966354	1.292888	city	8	1	0.932677	0.932677	0	1	0	0	CorrectCommission	1.396602	0.746913	1	0	9.352174e+01
164.265930	1.306239	city	3	1	0.955916	0.955916	0	1	0	0	CorrectCommission	1.288462	0.736573	1	0	9.476087e+01
167.799759	5.761439	break	0	0	0.000000	1.113057	0	0	0	0	ThoughtProbe	0.557203	0.720143	1	96	96
171.351852	1.342729	city	4	1	1.233410	1.233410	0	1	0	0	CorrectCommission	0.002865	0.698176	1	0	9.417647e+01
172.663071	1.279733	city	5	1	1.146287	1.146287	0	1	0	0	CorrectCommission	0.402566	0.671552	1	0	9.235294e+01
173.949417	1.292937	city	10	1	0.863160	0.863160	0	1	0	0	CorrectCommission	1.720103	0.641420	1	0	9.052941e+01
175.235657	1.279558	city	4	1	1.362514	1.362514	0	1	0	0	CorrectCommission	0.603654	0.609150	1	0	8.870588e+01
176.541885	1.332890	city	9	1	1.095733	1.095733	0	1	0	0	CorrectCommission	0.637819	0.576319	1	0	8.688235e+01
177.854797	1.292935	city	2	1	1.233292	1.233292	0	1	0	0	CorrectCommission	0.002316	0.544583	1	0	8.505882e+01
179.174377	1.346227	city	10	1	1.078072	1.078072	0	1	0	0	CorrectCommission	0.720007	0.515574	1	0	8.323529e+01
180.500534	1.306072	city	2	1	1.101839	1.101839	0	1	0	0	CorrectCommission	0.609406	0.490766	1	0	8.141176e+01
181.793427	1.279715	mountain	1	0	0.000000	1.184038	1	0	0	0	CorrectOmission	0.226889	0.471384	1	0	7.958824e+01
183.079742	1.292924	city	3	1	1.257008	1.257008	0	1	0	0	CorrectCommission	0.112680	0.458285	1	0	7.776471e+01
184.365875	1.279347	city	2	1	1.253087	1.253087	0	1	0	0	CorrectCommission	0.094433	0.451812	1	0	7.594118e+01
185.645447	1.279795	city	9	1	1.340707	1.340707	0	1	0	0	CorrectCommission	0.502172	0.451780	1	0	7.411765e+01
186.945129	1.319559	city	1	1	1.184897	1.184897	0	1	0	0	CorrectCommission	0.222891	0.457456	1	0	7.229412e+01
188.251373	1.292926	mountain	6	0	0.000000	1.244986	1	0	0	0	CorrectOmission	0.056731	0.467657	1	0	7.047059e+01
189.537598	1.279533	city	8	1	1.357868	1.357868	0	1	0	0	CorrectCommission	0.582030	0.480854	1	0	6.864706e+01
190.817093	1.279451	city	10	1	1.360440	1.360440	0	1	0	0	CorrectCommission	0.594002	0.495336	1	0	6.682353e+01
192.096680	1.279747	city	9	1	1.591669	1.591669	0	1	0	0	CorrectCommission	1.670029	0.509382	1	0	65
193.396317	1.319526	city	5	1	1.179334	1.179334	0	1	0	0	CorrectCommission	0.248781	0.521389	1	0	6.317647e+01
194.702560	1.292940	city	4	1	1.206017	1.206017	0	1	0	0	CorrectCommission	0.124611	0.530069	1	0	6.135294e+01
195.995483	1.292919	city	2	1	1.082261	1.082261	0	1	0	0	CorrectCommission	0.700511	0.534448	1	0	5.952941e+01
197.281738	1.279574	city	4	1	1.182748	1.182748	0	1	0	0	CorrectCommission	0.232891	0.533961	1	0	5.770588e+01
198.567978	1.292930	city	3	1	1.089813	1.089813	0	1	0	0	CorrectCommission	0.665369	0.528512	1	0	5.588235e+01
199.854187	1.279477	city	6	1	1.092332	1.092332	0	1	0	0	CorrectCommission	0.653644	0.518462	1	0	5.405882e+01
201.140427	1.292989	city	5	1	1.488067	1.488067	0	1	0	0	CorrectCommission	1.187915	0.504633	1	0	5.223529e+01
202.446609	1.319401	city	8	1	1.470298	1.470298	0	1	0	0	CorrectCommission	1.105227	0.488216	1	0	5.041176e+01
203.772766	1.332893	city	5	1	1.233016	1.233016	0	1	0	0	CorrectCommission	0.001028	0.470738	1	0	4.858824e+01
205.085754	1.293081	city	2	1	1.245673	1.245673	0	1	0	0	CorrectCommission	0.059930	0.453910	1	0	4.676471e+01
206.385361	1.306155	city	1	1	1.227883	1.227883	0	1	0	0	CorrectCommission	0.022855	0.439429	1	0	4.494118e+01
207.691544	1.306198	city	6	1	1.068423	1.068423	0	1	0	0	CorrectCommission	0.764906	0.428791	1	0	4.311765e+01
209.011108	1.332924	city	2	1	1.223491	1.223491	0	1	0	0	CorrectCommission	0.043293	0.423127	1	0	4.129412e+01
210.330643	1.306157	city	1	1	1.181047	1.181047	0	1	0	0	CorrectCommission	0.240807	0.423112	1	0	3.947059e+01
211.623581	1.279720	city	7	1	1.327816	1.327816	0	1	0	0	CorrectCommission	0.442186	0.428889	1	0	3.764706e+01
212.909912	1.292951	city	1	0	0.000000	1.265487	0	0	0	1	OmissionError	0.152135	0.440055	1	0	3.582353e+01
215.928864	4.744944	break	0	0	0.000000	1.141752	0	0	0	0	ThoughtProbe	0.423670	0.455781	1	34	34
218.954498	1.306305	city	7	1	1.104302	1.104302	0	1	0	0	CorrectCommission	0.597941	0.474934	1	0	3.415000e+01
220.254044	1.292805	city	6	1	1.300831	1.300831	0	1	0	0	CorrectCommission	0.316610	0.496260	1	0	3.430000e+01
221.540329	1.279773	city	5	1	1.421461	1.421461	0	1	0	0	CorrectCommission	0.877963	0.518563	1	0	3.445000e+01
222.833344	1.306239	city	3	1	1.315820	1.315820	0	1	0	0	CorrectCommission	0.386363	0.540916	1	0	3.460000e+01
224.139572	1.306234	city	9	1	1.166248	1.166248	0	1	0	0	CorrectCommission	0.309678	0.562805	1	0	3.475000e+01
225.439148	1.292904	city	8	1	1.486846	1.486846	0	1	0	0	CorrectCommission	1.182234	0.584237	1	0	3.490000e+01
226.738708	1.306221	city	7	1	1.374246	1.374246	0	1	0	0	CorrectCommission	0.658245	0.605714	1	0	3.505000e+01
228.058212	1.332784	city	6	1	1.420220	1.420220	0	1	0	0	CorrectCommission	0.872188	0.628158	1	0	3.520000e+01
229.364456	1.279691	city	2	1	1.094224	1.094224	0	1	0	0	CorrectCommission	0.644843	0.652722	1	0	3.535000e+01
230.643997	1.279410	mountain	9	0	0.000000	1.115487	1	0	0	0	CorrectOmission	0.545894	0.680546	1	0	3.550000e+01
231.923584	1.279751	mountain	7	0	0.000000	1.269305	1	0	0	0	CorrectOmission	0.169900	0.712466	1	0	3.565000e+01
233.203217	1.279512	city	8	1	1.340971	1.340971	0	1	0	0	CorrectCommission	0.503401	0.748744	1	0	3.580000e+01
234.522781	1.359615	city	9	1	1.115781	1.115781	0	1	0	0	CorrectCommission	0.544527	0.788885	0	0	3.595000e+01
235.842377	1.279577	city	8	1	1.132709	1.132709	0	1	0	0	CorrectCommission	0.465752	0.831578	0	0	3.610000e+01
237.128616	1.292913	city	4	1	1.048308	1.048308	0	1	0	0	CorrectCommission	0.858514	0.874749	0	0	3.625000e+01
238.414795	1.279430	city	7	1	1.355452	1.355452	0	1	0	0	CorrectCommission	0.570789	0.915761	0	0	3.640000e+01
239.714371	1.319735	city	2	1	0.795790	0.795790	0	1	0	0	CorrectCommission	2.033611	0.951764	0	0	3.655000e+01
241.027313	1.306142	city	6	1	1.047082	1.047082	0	1	0	0	CorrectCommission	0.864218	0.980020	0	0	3.670000e+01
242.333466	1.306174	city	9	1	0.892125	0.892125	0	1	0	0	CorrectCommission	1.585314	0.998341	0	0	3.685000e+01
243.639755	1.306396	city	8	1	0.840830	0.840830	0	1	0	0	CorrectCommission	1.824018	1.005293	0	0	37
244.972733	1.359554	city	10	1	0.901053	0.901053	0	1	0	0	CorrectCommission	1.543767	1.000426	0	0	3.715000e+01
246.298950	1.292881	city	2	1	1.205994	1.205994	0	1	0	0	CorrectCommission	0.124718	0.984312	0	0	3.730000e+01
247.585190	1.279605	city	6	1	0.993723	0.993723	0	1	0	0	CorrectCommission	1.112527	0.958485	0	0	3.745000e+01
248.871414	1.292848	city	2	1	1.001855	1.001855	0	1	0	0	CorrectCommission	1.074683	0.925184	0	0	3.760000e+01
250.157578	1.279468	city	10	1	0.972242	0.972242	0	1	0	0	CorrectCommission	1.212485	0.887136	0	0	3.775000e+01
251.457169	1.319735	city	9	1	0.941889	0.941889	0	1	0	0	CorrectCommission	1.353737	0.847234	0	0	3.790000e+01
252.756836	1.279576	city	1	1	1.208083	1.208083	0	1	0	0	CorrectCommission	0.114996	0.808228	0	0	3.805000e+01
254.056366	1.319485	city	8	1	1.177645	1.177645	0	1	0	0	CorrectCommission	0.256642	0.772458	1	0	3.820000e+01
255.362595	1.292976	city	7	1	1.381238	1.381238	0	1	0	0	CorrectCommission	0.690783	0.741624	1	0	3.835000e+01
256.648804	1.279423	city	8	1	1.129461	1.129461	0	1	0	0	CorrectCommission	0.480867	0.716668	1	0	3.850000e+01
257.928375	1.279754	mountain	7	0	0.000000	1.282466	1	0	0	0	CorrectOmission	0.231145	0.697744	1	0	3.865000e+01
259.214630	1.292772	city	2	1	1.486175	1.486175	0	1	0	0	CorrectCommission	1.179112	0.684320	1	0	3.880000e+01
260.520874	1.319679	city	7	1	1.386512	1.386512	0	1	0	0	CorrectCommission	0.715326	0.675304	1	0	3.895000e+01
261.860413	1.359411	city	5	1	1.301797	1.301797	0	1	0	0	CorrectCommission	0.321105	0.669323	1	0	3.910000e+01
263.186493	1.292720	city	6	1	1.254596	1.254596	0	1	0	0	CorrectCommission	0.101453	0.665006	1	0	3.925000e+01
264.486115	1.306568	city	3	1	0.982785	0.982785	0	1	0	0	CorrectCommission	1.163427	0.661221	1	0	3.940000e+01
265.792450	1.306067	city	4	1	0.964458	0.964458	0	1	0	0	CorrectCommission	1.248709	0.657312	1	0	3.955000e+01
267.092010	1.293072	city	3	1	1.017096	1.017096	0	1	0	0	CorrectCommission	1.003758	0.653280	1	0	3.970000e+01
268.391602	1.306130	city	6	1	1.049005	1.049005	0	1	0	0	CorrectCommission	0.855270	0.649761	1	0	3.985000e+01
271.117310	4.145289	break	0	0	0.000000	1.152574	0	0	0	0	ThoughtProbe	0.373310	0.647982	1	40	40
273.849823	1.319718	city	6	1	1.209765	1.209765	0	1	0	0	CorrectCommission	0.107168	0.649494	1	0	41
275.169434	1.319515	city	7	1	1.102541	1.102541	0	1	0	0	CorrectCommission	0.606137	0.655873	1	0	42
276.468933	1.279464	city	2	1	1.364095	1.364095	0	1	0	0	CorrectCommission	0.611011	0.668362	1	0	43
277.748535	1.279737	city	3	1	1.373969	1.373969	0	1	0	0	CorrectCommission	0.656956	0.687608	1	0	44
279.088165	1.399535	mountain	9	0	0.000000	1.326423	1	0	0	0	CorrectOmission	0.435704	0.713355	1	0	45
280.434296	1.292747	city	3	1	1.255084	1.255084	0	1	0	0	CorrectCommission	0.103723	0.744388	1	0	46
281.720459	1.279561	city	1	1	1.193573	1.193573	0	1	0	0	CorrectCommission	0.182517	0.778541	1	0	47
283.000061	1.279614	mountain	9	0	0.000000	1.417820	1	0	0	0	CorrectOmission	0.861022	0.812929	0	0	48
284.279694	1.279707	city	1	1	1.582696	1.582696	0	1	0	0	CorrectCommission	1.628275	0.844302	0	0	49
285.586090	1.333062	city	2	1	1.343071	1.343071	0	1	0	0	CorrectCommission	0.513175	0.869451	0	0	50
286.906128	1.307025	city	1	1	1.611843	1.611843	0	1	0	0	CorrectCommission	1.763910	0.885694	0	0	51
288.225616	1.331937	city	7	1	1.604071	1.604071	0	1	0	0	CorrectCommission	1.727743	0.891208	0	0	52
289.538055	1.292913	city	8	1	1.477108	1.477108	0	1	0	0	CorrectCommission	1.136918	0.885315	0	0	53
290.844269	1.319532	city	2	1	1.633599	1.633599	0	1	0	0	CorrectCommission	1.865151	0.868523	0	0	54
292.210449	1.412867	city	6	1	1.287890	1.287890	0	1	0	0	CorrectCommission	0.256389	0.842387	0	0	55
293.563324	1.292854	city	3	1	1.082025	1.082025	0	1	0	0	CorrectCommission	0.701611	0.809308	0	0	56
294.849609	1.279688	mountain	2	0	0.000000	1.168213	1	0	0	0	CorrectOmission	0.300532	0.772087	1	0	57
296.129150	1.279450	city	8	1	1.234462	1.234462	0	1	0	0	CorrectCommission	0.007757	0.733631	1	0	58
297.435333	1.332867	city	6	1	0.968777	0.968777	0	1	0	0	CorrectCommission	1.228610	0.696576	1	0	59
298.748230	1.292929	city	1	1	1.055220	1.055220	0	1	0	0	CorrectCommission	0.826346	0.663064	1	0	60
300.034546	1.279718	city	7	1	1.338484	1.338484	0	1	0	0	CorrectCommission	0.491830	0.634695	1	0	61
301.327515	1.306209	city	9	1	1.179933	1.179933	0	1	0	0	CorrectCommission	0.245994	0.612453	1	0	62
302.647003	1.332755	city	10	1	1.098756	1.098756	0	1	0	0	CorrectCommission	0.623753	0.596828	1	0	63
303.959900	1.293063	city	2	1	1.191566	1.191566	0	1	0	0	CorrectCommission	0.191857	0.587905	1	0	64
305.259552	1.306223	city	8	1	1.049330	1.049330	0	1	0	0	CorrectCommission	0.853758	0.585525	1	0	65
306.565735	1.306161	city	2	1	1.219591	1.219591	0	1	0	0	CorrectCommission	0.061444	0.589412	1	0	66
307.871979	1.306316	city	8	1	1.062793	1.062793	0	1	0	0	CorrectCommission	0.791108	0.599321	1	0	67
309.171570	1.292904	city	6	1	0.985565	0.985565	0	1	0	0	CorrectCommission	1.150490	0.615032	1	0	68
310.477814	1.319574	city	2	1	1.149342	1.149342	0	1	0	0	CorrectCommission	0.388350	0.636385	1	0	69
311.777374	1.279532	city	5	1	1.234316	1.234316	0	1	0	0	CorrectCommission	0.007079	0.663238	1	0	70
313.063629	1.293005	city	1	1	1.474361	1.474361	0	1	0	0	CorrectCommission	1.124136	0.695305	1	0	71
314.363251	1.306198	city	5	1	1.372992	1.372992	0	1	0	0	CorrectCommission	0.652412	0.732062	1	0	72
315.670166	1.307615	city	4	1	1.340273	1.340273	0	1	0	0	CorrectCommission	0.500155	0.772645	1	0	73
316.983032	1.318171	city	10	1	1.127069	1.127069	0	1	0	0	CorrectCommission	0.491997	0.815788	0	0	74
318.288605	1.292923	mountain	9	0	0.000000	1.121875	1	0	0	0	CorrectOmission	0.516169	0.859842	0	0	75
319.574829	1.279579	city	3	1	1.322397	1.322397	0	1	0	0	CorrectCommission	0.416965	0.902896	0	0	76
320.861084	1.292890	city	7	1	1.726341	1.726341	0	1	0	0	CorrectCommission	2.296729	0.942962	0	0	77
322.180573	1.346107	city	6	0	0.000000	1.464359	0	0	0	1	OmissionError	1.077588	0.978131	0	0	78
323.513458	1.319683	city	1	1	1.022800	1.022800	0	1	0	0	CorrectCommission	0.977213	1.006923	0	0	79
324.834167	1.321739	city	5	1	0.888017	0.888017	0	1	0	0	CorrectCommission	1.604428	1.028362	0	0	80
326.140320	1.290562	city	1	1	1.326770	1.326770	0	1	0	0	CorrectCommission	0.437317	1.042065	0	0	81
327.432159	1.293103	city	7	1	1.568984	1.568984	0	1	0	0	CorrectCommission	1.564465	1.048338	0	0	82
328.745087	1.332765	city	5	1	1.667928	1.667928	0	1	0	0	CorrectCommission	2.024902	1.047946	0	0	83
330.104645	1.386346	city	6	1	1.390882	1.390882	0	1	0	0	CorrectCommission	0.735663	1.042018	0	0	84
331.450897	1.306139	city	3	1	1.084747	1.084747	0	1	0	0	CorrectCommission	0.688942	1.031798	0	0	85
335.642761	7.077608	break	0	0	0.000000	1.029991	0	0	0	0	ThoughtProbe	0.943753	1.018398	0	86	86
339.828094	1.293045	mountain	7	1	1.143038	1.143038	0	0	1	0	CommissionError	0.417684	1.002631	0	0	8.464706e+01
341.121002	1.292762	city	2	1	1.340315	1.340315	0	1	0	0	CorrectCommission	0.500347	0.984969	0	0	8.329412e+01
342.440582	1.346389	city	4	1	1.565050	1.565050	0	1	0	0	CorrectCommission	1.546159	0.965549	0	0	8.194118e+01
343.786865	1.346204	city	3	1	1.004368	1.004368	0	1	0	0	CorrectCommission	1.062986	0.944260	0	0	8.058824e+01
345.113098	1.306261	city	2	1	0.911915	0.911915	0	1	0	0	CorrectCommission	1.493220	0.921017	0	0	7.923529e+01
346.412689	1.292914	city	5	1	1.011604	1.011604	0	1	0	0	CorrectCommission	1.029318	0.895887	0	0	7.788235e+01
347.712250	1.306208	city	3	1	1.011603	1.011603	0	1	0	0	CorrectCommission	1.029321	0.869245	0	0	7.652941e+01
349.018524	1.306320	city	9	1	1.173032	1.173032	0	1	0	0	CorrectCommission	0.278108	0.841820	0	0	7.517647e+01
350.324707	1.306072	city	2	1	0.894710	0.894710	0	1	0	0	CorrectCommission	1.573282	0.814657	0	0	7.382353e+01
351.637573	1.319665	city	6	1	1.329653	1.329653	0	1	0	0	CorrectCommission	0.450735	0.788938	0	0	7.247059e+01
352.957153	1.319494	city	10	1	1.163551	1.163551	0	1	0	0	CorrectCommission	0.322227	0.765847	1	0	7.111765e+01
354.256653	1.279470	city	6	1	1.410265	1.410265	0	1	0	0	CorrectCommission	0.825861	0.746320	1	0	6.976471e+01
355.562775	1.332822	city	5	1	1.307545	1.307545	0	1	0	0	CorrectCommission	0.347852	0.730840	1	0	6.841176e+01
356.929077	1.399777	city	9	1	1.235481	1.235481	0	1	0	0	CorrectCommission	0.012503	0.719445	1	0	6.705882e+01
358.275421	1.292908	city	10	1	0.931673	0.931673	0	1	0	0	CorrectCommission	1.401276	0.711663	1	0	6.570588e+01
359.574921	1.306076	city	4	1	1.290901	1.290901	0	1	0	0	CorrectCommission	0.270400	0.706558	1	0	6.435294e+01
360.887848	1.319748	city	6	1	0.965296	0.965296	0	1	0	0	CorrectCommission	1.244811	0.703043	1	0	63
362.194122	1.292844	city	3	1	1.142809	1.142809	0	1	0	0	CorrectCommission	0.418748	0.699928	1	0	6.164706e+01
363.493622	1.306124	mountain	9	0	0.000000	1.082325	1	0	0	0	CorrectOmission	0.700213	0.696228	1	0	6.029412e+01
364.806549	1.319713	city	5	1	0.990947	0.990947	0	1	0	0	CorrectCommission	1.125442	0.691316	1	0	5.894118e+01
366.126953	1.321127	city	10	1	1.075779	1.075779	0	1	0	0	CorrectCommission	0.730674	0.685038	1	0	5.758824e+01
367.439789	1.304545	city	5	1	0.919218	0.919218	0	1	0	0	CorrectCommission	1.459237	0.677753	1	0	5.623529e+01
368.751923	1.319714	city	3	1	1.215194	1.215194	0	1	0	0	CorrectCommission	0.081904	0.670248	1	0	5.488235e+01
370.058136	1.292728	city	7	1	1.156308	1.156308	0	1	0	0	CorrectCommission	0.355930	0.663693	1	0	5.352941e+01
371.350952	1.292910	city	1	1	1.168802	1.168802	0	1	0	0	CorrectCommission	0.297790	0.659481	1	0	5.217647e+01
372.643890	1.292936	city	2	1	1.061132	1.061132	0	1	0	0	CorrectCommission	0.798834	0.659142	1	0	5.082353e+01
373.950226	1.319762	city	6	1	1.103693	1.103693	0	1	0	0	CorrectCommission	0.600779	0.664174	1	0	4.947059e+01
375.249847	1.279459	city	5	1	1.288377	1.288377	0	1	0	0	CorrectCommission	0.258656	0.676048	1	0	4.811765e+01
376.536072	1.292989	city	6	1	1.497302	1.497302	0	1	0	0	CorrectCommission	1.230891	0.696075	1	0	4.676471e+01
377.835602	1.306058	city	4	1	1.353932	1.353932	0	1	0	0	CorrectCommission	0.563715	0.725267	1	0	4.541176e+01
379.141815	1.306392	city	10	1	1.108633	1.108633	0	1	0	0	CorrectCommission	0.577790	0.764302	1	0	4.405882e+01
380.441467	1.292885	city	2	1	1.218943	1.218943	0	1	0	0	CorrectCommission	0.064459	0.813357	0	0	4.270588e+01
381.734375	1.292964	city	8	1	0.965336	0.965336	0	1	0	0	CorrectCommission	1.244624	0.871991	0	0	4.135294e+01
384.653351	4.545004	break	0	0	0.000000	1.053914	0	0	0	0	ThoughtProbe	0.832424	0.938959	0	40	40
387.605621	1.359528	city	2	1	1.296049	1.296049	0	1	0	0	CorrectCommission	0.294354	1.012215	0	0	3.960000e+01
388.925262	1.279765	city	6	1	1.503111	1.503111	0	1	0	0	CorrectCommission	1.257924	1.088934	0	0	3.920000e+01
390.231598	1.332910	mountain	3	0	0.000000	1.366645	1	0	0	0	CorrectOmission	0.622874	1.165590	0	0	3.880000e+01
391.551178	1.306200	city	1	1	1.106450	1.106450	0	1	0	0	CorrectCommission	0.587945	1.238374	0	0	3.840000e+01
392.870636	1.332758	city	10	1	0.942329	0.942329	0	1	0	0	CorrectCommission	1.351687	1.303515	0	0	38
394.190247	1.306432	city	7	1	1.849417	1.849417	0	1	0	0	CorrectCommission	2.869466	1.357717	0	0	3.760000e+01
395.489807	1.292718	city	3	0	0.000000	1.983140	0	0	0	1	OmissionError	3.491746	1.398574	0	0	3.720000e+01
396.795959	1.319549	mountain	4	0	0.000000	1.657770	1	0	0	0	CorrectOmission	1.977631	1.424926	0	0	3.680000e+01
398.102264	1.293083	city	8	1	1.187581	1.187581	0	1	0	0	CorrectCommission	0.210403	1.437044	0	0	3.640000e+01
399.388580	1.279572	city	9	0	0.000000	0.886846	0	0	0	1	OmissionError	1.609880	1.436497	0	0	36
400.694794	1.332833	city	5	1	0.852438	0.852438	0	1	0	0	CorrectCommission	1.769997	1.425911	0	0	3.560000e+01
402.021027	1.319620	city	10	1	1.181231	1.181231	0	1	0	0	CorrectCommission	0.239953	1.408669	0	0	3.520000e+01
403.320526	1.279403	city	5	0	0.000000	1.647096	0	0	0	1	OmissionError	1.927958	1.388487	0	0	3.480000e+01
404.600098	1.279755	city	4	1	1.818164	1.818164	0	1	0	0	CorrectCommission	2.724030	1.368853	0	0	3.440000e+01
405.913086	1.346211	city	3	1	1.262569	1.262569	0	1	0	0	CorrectCommission	0.138556	1.352711	0	0	34
407.265961	1.359553	city	8	1	0.998899	0.998899	0	1	0	0	CorrectCommission	1.088437	1.342121	0	0	3.360000e+01
408.612152	1.332810	city	3	1	1.030408	1.030408	0	1	0	0	CorrectCommission	0.941809	1.337883	0	0	3.320000e+01
409.925079	1.293024	city	1	1	1.498022	1.498022	0	1	0	0	CorrectCommission	1.234239	1.339512	0	0	3.280000e+01
411.244690	1.346198	city	7	1	1.501751	1.501751	0	1	0	0	CorrectCommission	1.251593	1.345249	0	0	3.240000e+01
412.570831	1.306086	city	4	1	1.333071	1.333071	0	1	0	0	CorrectCommission	0.466638	1.352303	0	0	32
413.890381	1.333038	city	6	1	1.487510	1.487510	0	1	0	0	CorrectCommission	1.185324	1.357227	0	0	3.160000e+01
415.236694	1.359578	city	1	1	1.503730	1.503730	0	1	0	0	CorrectCommission	1.260802	1.356424	0	0	3.120000e+01
416.562836	1.292721	city	10	1	1.757116	1.757116	0	1	0	0	CorrectCommission	2.439940	1.346747	0	0	3.080000e+01
417.855743	1.293076	city	9	1	2.015841	2.015841	0	1	0	0	CorrectCommission	3.643925	1.325951	0	0	3.040000e+01
419.148651	1.292755	mountain	5	0	0.000000	1.576686	1	0	0	0	CorrectOmission	1.600308	1.293106	0	0	30
420.454834	1.319619	city	10	1	1.152473	1.152473	0	1	0	0	CorrectCommission	0.373780	1.248821	0	0	2.960000e+01
421.774414	1.319502	city	8	1	1.456022	1.456022	0	1	0	0	CorrectCommission	1.038793	1.195099	0	0	2.920000e+01
423.087372	1.306403	city	7	1	1.666798	1.666798	0	1	0	0	CorrectCommission	2.019646	1.135070	0	0	2.880000e+01
424.406921	1.332740	city	8	1	1.451419	1.451419	0	1	0	0	CorrectCommission	1.017372	1.072592	0	0	2.840000e+01
425.719818	1.293062	city	2	1	1.306240	1.306240	0	1	0	0	CorrectCommission	0.341779	1.011809	0	0	28
427.019409	1.306073	city	6	1	1.186749	1.186749	0	1	0	0	CorrectCommission	0.214274	0.956635	0	0	2.760000e+01
428.352234	1.359567	city	1	1	1.180820	1.180820	0	1	0	0	CorrectCommission	0.241867	0.910323	0	0	2.720000e+01
429.671875	1.279748	city	10	1	1.314059	1.314059	0	1	0	0	CorrectCommission	0.378166	0.875172	0	0	2.680000e+01
430.971466	1.319404	city	6	1	1.584572	1.584572	0	1	0	0	CorrectCommission	1.637002	0.852479	0	0	2.640000e+01
432.297668	1.333034	city	2	1	1.392166	1.392166	0	1	0	0	CorrectCommission	0.741637	0.842381	0	0	26
433.617310	1.306236	city	7	1	1.476217	1.476217	0	1	0	0	CorrectCommission	1.132773	0.844062	0	0	2.560000e+01
434.970184	1.399546	city	10	1	1.341175	1.341175	0	1	0	0	CorrectCommission	0.504349	0.855863	0	0	2.520000e+01
436.316345	1.292754	city	3	1	1.326032	1.326032	0	1	0	0	CorrectCommission	0.433883	0.875508	0	0	2.480000e+01
437.629272	1.333068	city	10	1	1.214234	1.214234	0	1	0	0	CorrectCommission	0.086370	0.900340	0	0	2.440000e+01
441.388092	6.184584	break	0	0	0.000000	1.302716	0	0	0	0	ThoughtProbe	0.325381	0.927632	0	24	24
445.133423	1.306114	city	7	1	1.475996	1.475996	0	1	0	0	CorrectCommission	1.131744	0.954840	0	0	2.458696e+01
446.446350	1.319736	mountain	5	0	0.000000	1.618595	1	0	0	0	CorrectOmission	1.795329	0.979921	0	0	2.517391e+01
447.746002	1.279566	mountain	9	0	0.000000	1.697562	1	0	0	0	CorrectOmission	2.162803	1.001533	0	0	2.576087e+01
449.038910	1.306246	mountain	8	0	0.000000	1.679947	1	0	0	0	CorrectOmission	2.080835	1.019115	0	0	2.634783e+01
450.331787	1.279487	city	6	1	1.532802	1.532802	0	1	0	0	CorrectCommission	1.396093	1.032783	0	0	2.693478e+01
451.651306	1.359541	city	10	1	1.223177	1.223177	0	1	0	0	CorrectCommission	0.044754	1.043121	0	0	2.752174e+01
453.004150	1.346147	city	9	1	1.136937	1.136937	0	1	0	0	CorrectCommission	0.446073	1.050894	0	0	2.810870e+01
454.337067	1.319729	city	1	1	1.101912	1.101912	0	1	0	0	CorrectCommission	0.609063	1.056656	0	0	2.869565e+01
455.656647	1.319398	city	8	1	1.276415	1.276415	0	1	0	0	CorrectCommission	0.202988	1.060548	0	0	2.928261e+01
456.962769	1.292863	city	2	1	1.157774	1.157774	0	1	0	0	CorrectCommission	0.349111	1.062265	0	0	2.986957e+01
458.262390	1.306362	city	7	1	1.650067	1.650067	0	1	0	0	CorrectCommission	1.941785	1.061221	0	0	3.045652e+01
459.582001	1.332876	city	4	1	1.542548	1.542548	0	1	0	0	CorrectCommission	1.441442	1.056839	0	0	3.104348e+01
460.901611	1.306340	city	7	1	1.923665	1.923665	0	1	0	0	CorrectCommission	3.214981	1.048932	0	0	3.163043e+01
462.207855	1.306160	city	8	0	0.000000	1.472781	0	0	0	1	OmissionError	1.116780	1.037888	0	0	3.221739e+01
463.527344	1.332807	city	3	1	0.979626	0.979626	0	1	0	0	CorrectCommission	1.178124	1.024891	0	0	3.280435e+01
464.866882	1.346260	city	7	1	1.233935	1.233935	0	1	0	0	CorrectCommission	0.005308	1.011680	0	0	3.339130e+01
466.186462	1.292923	city	9	1	1.318760	1.318760	0	1	0	0	CorrectCommission	0.400043	1.000373	0	0	3.397826e+01
467.486115	1.306350	city	1	1	1.379333	1.379333	0	1	0	0	CorrectCommission	0.681919	0.992952	0	0	3.456522e+01
468.805756	1.332915	city	8	1	0.931532	0.931532	0	1	0	0	CorrectCommission	1.401934	0.990887	0	0	3.515217e+01
470.145294	1.346220	city	1	1	1.301253	1.301253	0	1	0	0	CorrectCommission	0.318571	0.994772	0	0	3.573913e+01
471.511444	1.386059	city	2	1	1.327486	1.327486	0	1	0	0	CorrectCommission	0.440649	1.004164	0	0	3.632609e+01
472.864349	1.319723	city	10	1	0.969023	0.969023	0	1	0	0	CorrectCommission	1.227465	1.017550	0	0	3.691304e+01
474.170654	1.292901	city	9	1	1.000941	1.000941	0	1	0	0	CorrectCommission	1.078938	1.032569	0	0	3.750000e+01
475.463562	1.292895	mountain	8	0	0.000000	1.255827	1	0	0	0	CorrectOmission	0.107182	1.046440	0	0	3.808696e+01
476.763062	1.306121	city	3	1	1.567184	1.567184	0	1	0	0	CorrectCommission	1.556090	1.056395	0	0	3.867391e+01
478.075897	1.319543	city	6	1	1.768514	1.768514	0	1	0	0	CorrectCommission	2.492983	1.060114	0	0	3.926087e+01
479.402100	1.332870	city	5	1	1.709832	1.709832	0	1	0	0	CorrectCommission	2.219902	1.056147	0	0	3.984783e+01
480.715057	1.293083	city	8	1	1.470049	1.470049	0	1	0	0	CorrectCommission	1.104067	1.044148	0	0	4.043478e+01
482.041321	1.359419	city	6	1	1.382548	1.382548	0	1	0	0	CorrectCommission	0.696879	1.024868	0	0	4.102174e+01
483.427490	1.412919	city	3	1	1.165415	1.165415	0	1	0	0	CorrectCommission	0.313553	0.999949	0	0	4.160870e+01
484.793762	1.319637	city	9	1	0.941254	0.941254	0	1	0	0	CorrectCommission	1.356691	0.971691	0	0	4.219565e+01
486.126648	1.346095	city	1	1	1.034509	1.034509	0	1	0	0	CorrectCommission	0.922728	0.942672	0	0	4.278261e+01
487.459473	1.319601	city	7	1	1.358846	1.358846	0	1	0	0	CorrectCommission	0.586581	0.915461	0	0	4.336957e+01
488.805756	1.372976	city	8	1	1.258514	1.258514	0	1	0	0	CorrectCommission	0.119687	0.892419	0	0	4.395652e+01
490.145264	1.306019	city	2	1	1.162838	1.162838	0	1	0	0	CorrectCommission	0.325545	0.875576	0	0	4.454348e+01
491.464844	1.333137	city	6	1	0.929760	0.929760	0	1	0	0	CorrectCommission	1.410180	0.866674	0	0	4.513043e+01
492.784515	1.306221	city	10	1	0.947542	0.947542	0	1	0	0	CorrectCommission	1.327427	0.867192	0	0	4.571739e+01
494.090698	1.306138	city	7	1	1.452459	1.452459	0	1	0	0	CorrectCommission	1.022213	0.878478	0	0	4.630435e+01
495.396942	1.306326	city	2	1	1.494416	1.494416	0	1	0	0	CorrectCommission	1.217460	0.901697	0	0	4.689130e+01
496.709808	1.319410	city	4	1	1.160517	1.160517	0	1	0	0	CorrectCommission	0.336347	0.937728	0	0	4.747826e+01
498.036041	1.333062	city	2	1	1.219944	1.219944	0	1	0	0	CorrectCommission	0.059799	0.987025	0	0	4.806522e+01
499.375610	1.346079	city	1	1	1.165326	1.165326	0	1	0	0	CorrectCommission	0.313968	1.049397	0	0	4.865217e+01
500.701843	1.306386	city	9	1	1.559540	1.559540	0	1	0	0	CorrectCommission	1.520518	1.123845	0	0	4.923913e+01
502.034729	1.359402	city	4	1	1.148243	1.148243	0	1	0	0	CorrectCommission	0.393462	1.208424	0	0	4.982609e+01
503.360962	1.293027	city	7	1	1.021499	1.021499	0	1	0	0	CorrectCommission	0.983269	1.300362	0	0	5.041304e+01
507.733032	7.451141	break	0	0	0.932769	0.932769	0	0	0	0	ThoughtProbe	1.396175	1.396175	0	51	51
