onset	duration	trial_type	image_type	Press	ReactionTime	ReactionTime_Interpolated	CorrectOmission	CorrectCommission	CommissionError	OmissionError	response_type	nonsmoothVarianceTimeCourse	VarianceTimeCourse	In_the_Zone	ThoughtProbe	ThoughtProbe_Interpolated
0.652834	1.279579	city	10	1	1.336935	1.336935	0	1	0	0	CorrectCommission	0.329334	0.329334	1	0	89
1.932511	1.279776	city	3	1	1.660452	1.660452	0	1	0	0	CorrectCommission	1.103245	0.337529	1	0	89
3.212025	1.279251	city	5	1	1.668156	1.668156	0	1	0	0	CorrectCommission	1.137361	0.347210	1	0	89
4.491517	1.279734	city	1	1	1.442488	1.442488	0	1	0	0	CorrectCommission	0.138073	0.359787	1	0	89
5.771173	1.279578	city	6	1	1.407511	1.407511	0	1	0	0	CorrectCommission	0.016814	0.376499	1	0	89
7.050740	1.279555	mountain	9	0	0.000000	1.375368	1	0	0	0	CorrectOmission	0.159148	0.398217	1	0	89
8.336890	1.292746	city	10	1	1.371387	1.371387	0	1	0	0	CorrectCommission	0.176772	0.425343	1	0	89
9.623147	1.279768	city	8	1	1.420899	1.420899	0	1	0	0	CorrectCommission	0.042470	0.457687	1	0	89
10.902732	1.279401	mountain	7	0	0.000000	1.336151	1	0	0	0	CorrectOmission	0.332806	0.494371	1	0	89
12.182218	1.279571	city	3	1	1.287254	1.287254	0	1	0	0	CorrectCommission	0.549325	0.533857	1	0	89
13.461887	1.279768	city	4	1	1.444321	1.444321	0	1	0	0	CorrectCommission	0.146188	0.574193	1	0	89
14.741465	1.279387	city	2	1	1.233740	1.233740	0	1	0	0	CorrectCommission	0.786292	0.613260	1	0	89
16.034359	1.306401	city	5	1	1.148782	1.148782	0	1	0	0	CorrectCommission	1.162498	0.649116	1	0	89
17.327290	1.279460	city	6	1	1.569059	1.569059	0	1	0	0	CorrectCommission	0.698545	0.680376	1	0	89
18.606800	1.279563	city	4	1	1.548867	1.548867	0	1	0	0	CorrectCommission	0.609133	0.706545	1	0	89
19.893042	1.292917	city	9	1	1.889091	1.889091	0	1	0	0	CorrectCommission	2.115691	0.728112	1	0	89
21.179365	1.279730	mountain	8	0	0.000000	1.781641	1	0	0	0	CorrectOmission	1.639888	0.746493	1	0	89
22.459009	1.279559	city	6	1	1.506120	1.506120	0	1	0	0	CorrectCommission	0.419841	0.763832	1	0	89
23.738586	1.279598	city	8	1	1.342129	1.342129	0	1	0	0	CorrectCommission	0.306333	0.782562	1	0	89
25.018173	1.279573	city	4	1	1.396430	1.396430	0	1	0	0	CorrectCommission	0.065878	0.804836	1	0	89
26.297752	1.279588	city	7	1	1.445985	1.445985	0	1	0	0	CorrectCommission	0.153554	0.832048	0	0	89
27.583933	1.292773	city	8	1	1.404199	1.404199	0	1	0	0	CorrectCommission	0.031477	0.864449	0	0	89
28.870096	1.279552	city	6	1	1.311726	1.311726	0	1	0	0	CorrectCommission	0.440960	0.900998	0	0	89
30.149691	1.279638	city	10	1	1.155726	1.155726	0	1	0	0	CorrectCommission	1.131748	0.939451	0	0	89
31.429308	1.279596	city	7	1	1.186581	1.186581	0	1	0	0	CorrectCommission	0.995119	0.976729	0	0	89
32.708843	1.279473	mountain	1	0	0.000000	1.014379	1	0	0	0	CorrectOmission	1.757654	1.009468	0	0	89
33.995129	1.293098	city	4	0	0.000000	0.851652	0	0	0	1	OmissionError	2.478231	1.034525	0	0	89
35.281467	1.279578	city	8	1	0.910933	0.910933	0	1	0	0	CorrectCommission	2.215728	1.049482	0	0	89
36.561031	1.279557	city	4	1	1.404754	1.404754	0	1	0	0	CorrectCommission	0.029021	1.052996	0	0	89
37.840599	1.279579	city	5	1	1.651291	1.651291	0	1	0	0	CorrectCommission	1.062678	1.044981	0	0	89
39.126823	1.292869	city	2	1	1.598690	1.598690	0	1	0	0	CorrectCommission	0.829757	1.026452	0	0	89
40.426315	1.306115	city	7	1	1.750622	1.750622	0	1	0	0	CorrectCommission	1.502533	0.999429	0	0	89
41.752567	1.346387	city	4	1	1.535261	1.535261	0	1	0	0	CorrectCommission	0.548884	0.966620	0	0	89
43.085545	1.319565	city	1	1	1.766292	1.766292	0	1	0	0	CorrectCommission	1.571921	0.931106	0	0	89
44.385078	1.279508	city	7	1	1.647091	1.647091	0	1	0	0	CorrectCommission	1.044080	0.895949	0	0	89
45.677986	1.306305	city	4	1	1.510256	1.510256	0	1	0	0	CorrectCommission	0.438156	0.863949	0	0	89
46.984177	1.306074	city	2	1	1.394113	1.394113	0	1	0	0	CorrectCommission	0.076142	0.837355	0	0	89
48.290371	1.306314	city	5	1	1.274295	1.274295	0	1	0	0	CorrectCommission	0.606712	0.817637	0	0	89
49.583305	1.279554	city	8	1	1.143186	1.143186	0	1	0	0	CorrectCommission	1.187278	0.805385	1	0	89
50.862926	1.279691	city	1	1	1.311904	1.311904	0	1	0	0	CorrectCommission	0.440175	0.800311	1	0	89
52.149632	1.293718	city	8	1	1.262526	1.262526	0	1	0	0	CorrectCommission	0.658825	0.801300	1	0	89
53.435818	1.278655	city	7	1	1.579568	1.579568	0	1	0	0	CorrectCommission	0.745081	0.806539	1	0	89
54.734997	1.319702	city	4	1	1.499753	1.499753	0	1	0	0	CorrectCommission	0.391647	0.813779	0	0	89
56.041298	1.292902	city	2	1	1.315469	1.315469	0	1	0	0	CorrectCommission	0.424387	0.820640	0	0	89
57.334122	1.292747	city	5	1	1.669922	1.669922	0	1	0	0	CorrectCommission	1.145181	0.824920	0	0	89
60.932850	5.904711	break	0	0	0.000000	1.800699	0	0	0	0	ThoughtProbe	1.724279	0.824882	0	89	89
64.525009	1.279607	city	5	1	1.782368	1.782368	0	1	0	0	CorrectCommission	1.643106	0.819526	0	0	8.885000e+01
65.804672	1.279723	city	4	1	1.689498	1.689498	0	1	0	0	CorrectCommission	1.231864	0.808737	0	0	8.870000e+01
67.097649	1.306227	city	2	1	1.602282	1.602282	0	1	0	0	CorrectCommission	0.845660	0.793264	1	0	8.855000e+01
68.390556	1.279580	city	1	1	1.353614	1.353614	0	1	0	0	CorrectCommission	0.255475	0.774552	1	0	8.840000e+01
69.670052	1.279415	city	3	1	1.391631	1.391631	0	1	0	0	CorrectCommission	0.087133	0.754577	1	0	8.825000e+01
70.949646	1.279772	city	8	1	1.248597	1.248597	0	1	0	0	CorrectCommission	0.720506	0.735519	1	0	8.810000e+01
72.235901	1.292745	mountain	3	0	0.000000	1.456180	1	0	0	0	CorrectOmission	0.198700	0.719511	1	0	8.795000e+01
73.528755	1.292959	city	9	1	1.681532	1.681532	0	1	0	0	CorrectCommission	1.196589	0.708428	1	0	8.780000e+01
74.861641	1.372810	city	5	1	1.591805	1.591805	0	1	0	0	CorrectCommission	0.799266	0.703712	1	0	8.765000e+01
76.194496	1.292896	city	8	1	1.584112	1.584112	0	1	0	0	CorrectCommission	0.765202	0.706295	1	0	8.750000e+01
77.480827	1.279765	city	9	1	1.458052	1.458052	0	1	0	0	CorrectCommission	0.206992	0.716554	1	0	8.735000e+01
78.767151	1.292882	mountain	9	0	0.000000	1.530126	1	0	0	0	CorrectOmission	0.526142	0.734303	1	0	8.720000e+01
80.060051	1.292927	city	8	1	1.609101	1.609101	0	1	0	0	CorrectCommission	0.875858	0.758777	1	0	8.705000e+01
81.366302	1.319577	city	5	1	1.503749	1.503749	0	1	0	0	CorrectCommission	0.409344	0.788675	1	0	8.690000e+01
82.665871	1.279557	city	3	1	1.353716	1.353716	0	1	0	0	CorrectCommission	0.255024	0.822230	0	0	8.675000e+01
83.945358	1.279427	city	9	1	1.156886	1.156886	0	1	0	0	CorrectCommission	1.126613	0.857321	0	0	8.660000e+01
85.224854	1.279561	city	4	1	1.132964	1.132964	0	1	0	0	CorrectCommission	1.232545	0.891601	0	0	8.645000e+01
86.511185	1.293096	city	3	1	1.118269	1.118269	0	1	0	0	CorrectCommission	1.297614	0.922679	0	0	8.630000e+01
87.804138	1.292813	city	2	1	1.581641	1.581641	0	1	0	0	CorrectCommission	0.754258	0.948340	0	0	8.615000e+01
89.103714	1.306336	city	4	1	1.541568	1.541568	0	1	0	0	CorrectCommission	0.576809	0.966710	0	0	86
90.396652	1.279546	mountain	10	0	0.000000	1.814223	1	0	0	0	CorrectOmission	1.784164	0.976428	0	0	8.585000e+01
91.696220	1.319590	city	5	1	1.951512	1.951512	0	1	0	0	CorrectCommission	2.392100	0.976742	0	0	8.570000e+01
93.015800	1.319570	city	1	1	1.505341	1.505341	0	1	0	0	CorrectCommission	0.416393	0.967612	0	0	8.555000e+01
94.335358	1.319547	city	2	1	1.422277	1.422277	0	1	0	0	CorrectCommission	0.048572	0.949756	0	0	8.540000e+01
95.681503	1.372740	city	5	1	1.169622	1.169622	0	1	0	0	CorrectCommission	1.070218	0.924540	0	0	8.525000e+01
97.007652	1.279562	city	10	1	1.024696	1.024696	0	1	0	0	CorrectCommission	1.711967	0.893886	0	0	8.510000e+01
98.293976	1.293084	city	3	1	1.132425	1.132425	0	1	0	0	CorrectCommission	1.234931	0.860146	0	0	8.495000e+01
99.586967	1.292893	city	4	1	1.196282	1.196282	0	1	0	0	CorrectCommission	0.952163	0.825924	0	0	8.480000e+01
100.873901	1.280975	city	9	1	1.356083	1.356083	0	1	0	0	CorrectCommission	0.244541	0.793809	1	0	8.465000e+01
102.166824	1.304865	city	7	1	1.496388	1.496388	0	1	0	0	CorrectCommission	0.376749	0.766151	1	0	8.450000e+01
103.465706	1.292901	city	9	1	1.527565	1.527565	0	1	0	0	CorrectCommission	0.514805	0.744780	1	0	8.435000e+01
104.751945	1.279584	city	4	1	1.526148	1.526148	0	1	0	0	CorrectCommission	0.508528	0.730836	1	0	8.420000e+01
106.064842	1.346202	city	1	1	1.539147	1.539147	0	1	0	0	CorrectCommission	0.566092	0.724655	1	0	8.405000e+01
107.391052	1.306219	city	4	1	1.494752	1.494752	0	1	0	0	CorrectCommission	0.369504	0.725685	1	0	8.390000e+01
108.683884	1.279458	city	1	1	1.322585	1.322585	0	1	0	0	CorrectCommission	0.392874	0.732577	1	0	8.375000e+01
109.970139	1.293047	city	2	1	1.084655	1.084655	0	1	0	0	CorrectCommission	1.446461	0.743368	1	0	8.360000e+01
111.263031	1.292743	city	3	1	1.330321	1.330321	0	1	0	0	CorrectCommission	0.358621	0.755702	1	0	8.345000e+01
112.562614	1.306417	city	9	1	1.171267	1.171267	0	1	0	0	CorrectCommission	1.062934	0.767157	1	0	8.330000e+01
113.855598	1.279559	city	7	1	1.363431	1.363431	0	1	0	0	CorrectCommission	0.212003	0.775513	1	0	8.315000e+01
116.707985	4.425209	break	0	0	0.000000	1.651305	0	0	0	0	ThoughtProbe	1.062742	0.779100	1	83	83
119.560318	1.279451	city	4	1	1.837457	1.837457	0	1	0	0	CorrectCommission	1.887049	0.776961	1	0	8.267647e+01
120.846497	1.292903	city	7	1	1.724457	1.724457	0	1	0	0	CorrectCommission	1.386670	0.768987	1	0	8.235294e+01
122.132812	1.279736	city	2	1	1.567692	1.567692	0	1	0	0	CorrectCommission	0.692494	0.755917	1	0	8.202941e+01
123.412384	1.279409	city	1	1	1.500173	1.500173	0	1	0	0	CorrectCommission	0.393507	0.739191	1	0	8.170588e+01
124.711952	1.319728	city	9	1	1.274376	1.274376	0	1	0	0	CorrectCommission	0.606353	0.720751	1	0	8.138235e+01
126.018280	1.292918	mountain	3	0	0.000000	1.451200	1	0	0	0	CorrectOmission	0.176648	0.702725	1	0	8.105882e+01
127.304443	1.279418	city	4	1	1.633609	1.633609	0	1	0	0	CorrectCommission	0.984383	0.687138	1	0	8.073529e+01
128.590683	1.293063	city	1	1	1.424569	1.424569	0	1	0	0	CorrectCommission	0.058725	0.675610	1	0	8.041176e+01
129.910339	1.346233	city	6	1	1.643783	1.643783	0	1	0	0	CorrectCommission	1.029435	0.669250	1	0	8.008824e+01
131.223236	1.279577	city	1	1	1.395614	1.395614	0	1	0	0	CorrectCommission	0.069492	0.668462	1	0	7.976471e+01
132.522812	1.319556	city	6	1	1.290781	1.290781	0	1	0	0	CorrectCommission	0.533709	0.673023	1	0	7.944118e+01
133.875687	1.386192	city	8	1	1.072414	1.072414	0	1	0	0	CorrectCommission	1.500667	0.682085	1	0	7.911765e+01
135.208527	1.279513	city	1	1	1.460817	1.460817	0	1	0	0	CorrectCommission	0.219236	0.694295	1	0	7.879412e+01
136.508118	1.319648	city	4	1	1.400405	1.400405	0	1	0	0	CorrectCommission	0.048277	0.708031	1	0	7.847059e+01
137.814316	1.292771	city	9	1	1.193230	1.193230	0	1	0	0	CorrectCommission	0.965679	0.721533	1	0	7.814706e+01
139.100494	1.279569	city	10	1	1.077556	1.077556	0	1	0	0	CorrectCommission	1.477900	0.733115	1	0	7.782353e+01
140.386795	1.293042	city	4	1	1.511344	1.511344	0	1	0	0	CorrectCommission	0.442977	0.741375	1	0	7.750000e+01
141.673035	1.279428	city	8	1	1.281908	1.281908	0	1	0	0	CorrectCommission	0.572999	0.745334	1	0	7.717647e+01
142.952621	1.279751	city	7	1	1.661382	1.661382	0	1	0	0	CorrectCommission	1.107364	0.744533	1	0	7.685294e+01
144.258926	1.332873	mountain	5	0	0.000000	1.760101	1	0	0	0	CorrectOmission	1.544504	0.739062	1	0	7.652941e+01
145.565155	1.279581	city	6	1	1.633849	1.633849	0	1	0	0	CorrectCommission	0.985443	0.729509	1	0	7.620588e+01
146.844742	1.279599	city	2	1	1.338411	1.338411	0	1	0	0	CorrectCommission	0.322797	0.716854	1	0	7.588235e+01
148.130920	1.292751	city	1	1	1.326054	1.326054	0	1	0	0	CorrectCommission	0.377516	0.702300	1	0	7.555882e+01
149.443756	1.332903	city	9	1	1.298560	1.298560	0	1	0	0	CorrectCommission	0.499261	0.687094	1	0	7.523529e+01
150.763306	1.306202	city	8	1	1.275635	1.275635	0	1	0	0	CorrectCommission	0.600777	0.672381	1	0	7.491176e+01
152.056274	1.279747	city	4	1	1.577461	1.577461	0	1	0	0	CorrectCommission	0.735751	0.659136	1	0	7.458824e+01
153.342606	1.292903	city	5	1	1.328528	1.328528	0	1	0	0	CorrectCommission	0.366558	0.648106	1	0	7.426471e+01
154.662079	1.346062	city	2	1	1.251529	1.251529	0	1	0	0	CorrectCommission	0.707520	0.639864	1	0	7.394118e+01
155.974915	1.279608	city	3	1	1.528724	1.528724	0	1	0	0	CorrectCommission	0.519937	0.634823	1	0	7.361765e+01
157.261169	1.292882	city	8	1	1.269275	1.269275	0	1	0	0	CorrectCommission	0.628940	0.633407	1	0	7.329412e+01
158.547470	1.279743	city	5	1	1.088385	1.088385	0	1	0	0	CorrectCommission	1.429944	0.636016	1	0	7.297059e+01
159.833725	1.292742	city	2	1	1.272065	1.272065	0	1	0	0	CorrectCommission	0.616584	0.643082	1	0	7.264706e+01
161.126541	1.292911	city	7	1	1.426034	1.426034	0	1	0	0	CorrectCommission	0.065210	0.655038	1	0	7.232353e+01
164.345490	5.144976	break	0	0	0.000000	1.367633	0	0	0	0	ThoughtProbe	0.193399	0.672146	1	72	72
167.557816	1.279668	mountain	10	0	0.000000	1.248337	1	0	0	0	CorrectOmission	0.721656	0.694429	1	0	7.193478e+01
168.850800	1.306305	city	1	1	1.219623	1.219623	0	1	0	0	CorrectCommission	0.848806	0.721508	1	0	7.186957e+01
170.150330	1.292769	city	2	1	1.432966	1.432966	0	1	0	0	CorrectCommission	0.095906	0.752545	1	0	7.180435e+01
171.456573	1.319708	city	4	1	1.452588	1.452588	0	1	0	0	CorrectCommission	0.182796	0.786256	1	0	7.173913e+01
172.762817	1.292763	city	8	1	0.969853	0.969853	0	1	0	0	CorrectCommission	1.954823	0.820982	0	0	7.167391e+01
174.048965	1.279556	city	9	1	1.634914	1.634914	0	1	0	0	CorrectCommission	0.990159	0.854757	0	0	7.160870e+01
175.341919	1.306330	city	8	1	1.607995	1.607995	0	1	0	0	CorrectCommission	0.870957	0.885609	0	0	7.154348e+01
176.668243	1.346316	city	10	1	1.176811	1.176811	0	1	0	0	CorrectCommission	1.038384	0.911629	0	0	7.147826e+01
177.987808	1.292838	city	8	1	1.203604	1.203604	0	1	0	0	CorrectCommission	0.919739	0.931244	0	0	7.141304e+01
179.280640	1.292820	mountain	10	0	0.000000	1.465304	1	0	0	0	CorrectOmission	0.239105	0.943382	0	0	7.134783e+01
180.573578	1.293060	city	3	1	1.756958	1.756958	0	1	0	0	CorrectCommission	1.530589	0.947602	0	0	7.128261e+01
181.866577	1.292916	mountain	6	0	0.000000	1.873613	1	0	0	0	CorrectOmission	2.047153	0.944133	0	0	7.121739e+01
183.159470	1.292896	city	9	1	1.755474	1.755474	0	1	0	0	CorrectCommission	1.524017	0.933931	0	0	7.115217e+01
184.458954	1.306062	city	5	1	1.342746	1.342746	0	1	0	0	CorrectCommission	0.303599	0.918588	0	0	7.108696e+01
185.771851	1.319727	city	8	1	1.128502	1.128502	0	1	0	0	CorrectCommission	1.252304	0.900168	0	0	7.102174e+01
187.071503	1.279579	city	7	1	1.449620	1.449620	0	1	0	0	CorrectCommission	0.169653	0.880903	0	0	7.095652e+01
188.364349	1.306107	city	3	1	1.524036	1.524036	0	1	0	0	CorrectCommission	0.499177	0.863003	0	0	7.089130e+01
189.677246	1.319697	city	4	1	1.619901	1.619901	0	1	0	0	CorrectCommission	0.923678	0.848326	0	0	7.082609e+01
190.983475	1.292746	city	10	1	1.275325	1.275325	0	1	0	0	CorrectCommission	0.602150	0.838148	0	0	7.076087e+01
192.276382	1.293069	city	2	1	1.753467	1.753467	0	1	0	0	CorrectCommission	1.515129	0.833065	0	0	7.069565e+01
193.575958	1.306088	city	9	1	1.527571	1.527571	0	1	0	0	CorrectCommission	0.514830	0.832871	0	0	7.063043e+01
194.888794	1.319578	city	7	1	1.422207	1.422207	0	1	0	0	CorrectCommission	0.048263	0.836652	0	0	7.056522e+01
196.208450	1.319741	city	8	1	1.355495	1.355495	0	1	0	0	CorrectCommission	0.247146	0.842870	0	0	7.050000e+01
197.521423	1.306201	city	6	1	1.098415	1.098415	0	1	0	0	CorrectCommission	1.385530	0.849612	0	0	7.043478e+01
198.820892	1.292746	city	10	1	1.259487	1.259487	0	1	0	0	CorrectCommission	0.672284	0.854854	0	0	7.036957e+01
200.113815	1.293088	city	7	1	1.864473	1.864473	0	1	0	0	CorrectCommission	2.006677	0.856844	0	0	7.030435e+01
201.426804	1.332903	city	10	1	1.291976	1.291976	0	1	0	0	CorrectCommission	0.528416	0.854284	0	0	7.023913e+01
202.733047	1.279570	city	6	1	1.715037	1.715037	0	1	0	0	CorrectCommission	1.344957	0.846693	0	0	7.017391e+01
204.039246	1.332850	mountain	2	0	0.000000	1.742323	1	0	0	0	CorrectOmission	1.465782	0.834398	0	0	7.010870e+01
205.352112	1.292864	city	9	1	1.589992	1.589992	0	1	0	0	CorrectCommission	0.791237	0.818548	0	0	7.004348e+01
206.658356	1.319641	city	6	1	1.474201	1.474201	0	1	0	0	CorrectCommission	0.278498	0.800958	1	0	6.997826e+01
207.991211	1.346053	city	3	1	1.532861	1.532861	0	1	0	0	CorrectCommission	0.538254	0.783809	1	0	6.991304e+01
209.304123	1.279770	city	8	1	1.540275	1.540275	0	1	0	0	CorrectCommission	0.571087	0.769309	1	0	6.984783e+01
210.623764	1.359533	city	1	1	1.557703	1.557703	0	1	0	0	CorrectCommission	0.648258	0.759385	1	0	6.978261e+01
211.949982	1.292901	city	7	1	1.631349	1.631349	0	1	0	0	CorrectCommission	0.974375	0.755408	1	0	6.971739e+01
213.249481	1.306083	city	8	1	1.553042	1.553042	0	1	0	0	CorrectCommission	0.627619	0.758004	1	0	6.965217e+01
214.549057	1.293068	city	9	1	1.519167	1.519167	0	1	0	0	CorrectCommission	0.477615	0.766935	1	0	6.958696e+01
215.848724	1.306260	city	4	1	1.378867	1.378867	0	1	0	0	CorrectCommission	0.143652	0.781210	1	0	6.952174e+01
217.148300	1.292907	city	10	1	1.314228	1.314228	0	1	0	0	CorrectCommission	0.429881	0.799189	1	0	6.945652e+01
218.461197	1.332868	city	1	1	1.608069	1.608069	0	1	0	0	CorrectCommission	0.871288	0.818857	0	0	6.939130e+01
219.787415	1.319570	city	10	1	1.621182	1.621182	0	1	0	0	CorrectCommission	0.929352	0.838189	0	0	6.932609e+01
221.120300	1.346219	city	7	1	1.656002	1.656002	0	1	0	0	CorrectCommission	1.083539	0.855486	0	0	6.926087e+01
222.453217	1.319600	city	9	1	1.923767	1.923767	0	1	0	0	CorrectCommission	2.269242	0.869672	0	0	6.919565e+01
223.772705	1.319396	city	3	1	1.753935	1.753935	0	1	0	0	CorrectCommission	1.517201	0.880384	0	0	6.913043e+01
225.072266	1.279719	city	9	1	1.583471	1.583471	0	1	0	0	CorrectCommission	0.762364	0.888073	0	0	6.906522e+01
227.751389	4.078514	break	0	0	0.000000	1.514009	0	0	0	0	ThoughtProbe	0.454777	0.893725	0	69	69
230.443756	1.306220	mountain	4	1	1.449061	1.449061	0	0	1	0	CommissionError	0.167178	0.898643	0	0	6.944118e+01
231.770081	1.346435	city	10	1	1.292139	1.292139	0	1	0	0	CorrectCommission	0.527693	0.904067	0	0	6.988235e+01
233.089645	1.292702	city	2	1	1.543383	1.543383	0	1	0	0	CorrectCommission	0.584850	0.910921	0	0	7.032353e+01
234.389191	1.306389	city	9	1	1.715120	1.715120	0	1	0	0	CorrectCommission	1.345324	0.919587	0	0	7.076471e+01
235.688843	1.292914	city	10	1	1.549768	1.549768	0	1	0	0	CorrectCommission	0.613123	0.929811	0	0	7.120588e+01
237.008392	1.346197	city	5	1	1.670591	1.670591	0	1	0	0	CorrectCommission	1.148142	0.940820	0	0	7.164706e+01
238.327972	1.292947	city	6	1	1.685222	1.685222	0	1	0	0	CorrectCommission	1.212930	0.951422	0	0	7.208824e+01
239.620895	1.292895	city	2	1	1.681045	1.681045	0	1	0	0	CorrectCommission	1.194435	0.960243	0	0	7.252941e+01
240.913788	1.292907	city	9	1	1.675907	1.675907	0	1	0	0	CorrectCommission	1.171683	0.965928	0	0	7.297059e+01
242.206665	1.292839	city	10	1	1.394434	1.394434	0	1	0	0	CorrectCommission	0.074720	0.967333	0	0	7.341176e+01
243.512833	1.319496	city	4	1	1.870545	1.870545	0	1	0	0	CorrectCommission	2.033568	0.963688	0	0	7.385294e+01
244.825775	1.306373	city	2	1	1.138473	1.138473	0	1	0	0	CorrectCommission	1.208147	0.954599	0	0	7.429412e+01
246.132660	1.307422	city	8	1	1.285762	1.285762	0	1	0	0	CorrectCommission	0.555935	0.940183	0	0	7.473529e+01
247.432251	1.291741	city	7	1	1.537735	1.537735	0	1	0	0	CorrectCommission	0.559839	0.920992	0	0	7.517647e+01
248.731232	1.306219	mountain	1	0	0.000000	1.752049	1	0	0	0	CorrectOmission	1.508852	0.897926	0	0	7.561765e+01
250.030792	1.292913	city	7	1	1.762977	1.762977	0	1	0	0	CorrectCommission	1.557239	0.872147	0	0	7.605882e+01
251.323715	1.292921	city	6	1	1.404790	1.404790	0	1	0	0	CorrectCommission	0.028862	0.845003	0	0	7.650000e+01
252.616577	1.292826	city	2	1	1.114833	1.114833	0	1	0	0	CorrectCommission	1.312829	0.817932	0	0	7.694118e+01
253.902832	1.279665	city	7	1	1.391021	1.391021	0	1	0	0	CorrectCommission	0.089830	0.792245	1	0	7.738235e+01
255.195770	1.306218	city	5	1	1.533674	1.533674	0	1	0	0	CorrectCommission	0.541854	0.769160	1	0	7.782353e+01
256.501984	1.306197	city	10	1	1.248449	1.248449	0	1	0	0	CorrectCommission	0.721159	0.749621	1	0	7.826471e+01
257.794891	1.279616	city	7	1	1.636169	1.636169	0	1	0	0	CorrectCommission	0.995718	0.734283	1	0	7.870588e+01
259.094513	1.319620	city	10	1	1.171919	1.171919	0	1	0	0	CorrectCommission	1.060044	0.723428	1	0	7.914706e+01
260.394104	1.279556	city	9	1	1.531822	1.531822	0	1	0	0	CorrectCommission	0.533654	0.716955	1	0	7.958824e+01
261.680237	1.292746	city	7	1	1.450633	1.450633	0	1	0	0	CorrectCommission	0.174137	0.714375	1	0	8.002941e+01
263.033112	1.413021	city	1	1	1.327684	1.327684	0	1	0	0	CorrectCommission	0.370297	0.714827	1	0	8.047059e+01
264.399414	1.319539	city	9	1	1.171796	1.171796	0	1	0	0	CorrectCommission	1.060591	0.717177	1	0	8.091176e+01
265.732239	1.346113	city	3	1	1.275420	1.275420	0	1	0	0	CorrectCommission	0.601731	0.720115	1	0	8.135294e+01
267.045166	1.279744	city	5	1	1.315201	1.315201	0	1	0	0	CorrectCommission	0.425575	0.722370	1	0	8.179412e+01
268.351379	1.332681	city	10	1	1.218451	1.218451	0	1	0	0	CorrectCommission	0.853998	0.722919	1	0	8.223529e+01
269.684265	1.333086	city	2	1	1.173004	1.173004	0	1	0	0	CorrectCommission	1.055239	0.721190	1	0	8.267647e+01
271.003815	1.306061	city	7	1	1.142814	1.142814	0	1	0	0	CorrectCommission	1.188928	0.717243	1	0	8.311765e+01
272.330048	1.346383	city	9	1	1.076896	1.076896	0	1	0	0	CorrectCommission	1.480821	0.711761	1	0	8.355882e+01
275.069153	4.131831	break	0	0	0.000000	1.298688	0	0	0	0	ThoughtProbe	0.498694	0.706023	1	84	84
277.774933	1.279715	city	5	1	1.530939	1.530939	0	1	0	0	CorrectCommission	0.529744	0.701715	1	0	84
279.061249	1.292923	city	3	1	1.496396	1.496396	0	1	0	0	CorrectCommission	0.376781	0.700585	1	0	84
280.374176	1.332949	mountain	3	1	1.363162	1.363162	0	0	1	0	CommissionError	0.213195	0.704094	1	0	84
281.680420	1.279533	city	9	1	1.474114	1.474114	0	1	0	0	CorrectCommission	0.278117	0.713091	1	0	84
282.979919	1.319469	city	6	1	1.551438	1.551438	0	1	0	0	CorrectCommission	0.620518	0.727611	1	0	84
284.306152	1.332986	city	1	1	1.472715	1.472715	0	1	0	0	CorrectCommission	0.271920	0.746740	1	0	84
285.625671	1.306048	city	7	1	1.649874	1.649874	0	1	0	0	CorrectCommission	1.056405	0.768746	1	0	84
286.958557	1.359745	city	3	1	1.297658	1.297658	0	1	0	0	CorrectCommission	0.503255	0.791233	1	0	84
288.291473	1.306050	city	9	1	1.142840	1.142840	0	1	0	0	CorrectCommission	1.188813	0.811582	0	0	84
289.597687	1.306379	city	6	1	1.222239	1.222239	0	1	0	0	CorrectCommission	0.837224	0.827279	0	0	84
290.904022	1.306281	city	4	1	1.738201	1.738201	0	1	0	0	CorrectCommission	1.447530	0.836347	0	0	84
292.203522	1.292738	mountain	8	0	0.000000	1.841482	1	0	0	0	CorrectOmission	1.904872	0.837604	0	0	84
293.496399	1.292988	city	1	1	1.689084	1.689084	0	1	0	0	CorrectCommission	1.230034	0.830839	0	0	84
294.796051	1.306324	city	8	1	1.438011	1.438011	0	1	0	0	CorrectCommission	0.118244	0.816806	0	0	84
296.115662	1.332893	city	7	1	1.367576	1.367576	0	1	0	0	CorrectCommission	0.193649	0.797033	1	0	84
297.435120	1.306061	city	8	1	1.096010	1.096010	0	1	0	0	CorrectCommission	1.396181	0.773612	1	0	84
298.734619	1.292926	city	9	1	1.141290	1.141290	0	1	0	0	CorrectCommission	1.195675	0.748802	1	0	84
300.022064	1.281966	city	8	1	1.486301	1.486301	0	1	0	0	CorrectCommission	0.332081	0.724816	1	0	84
301.321625	1.317151	mountain	10	0	0.000000	1.465268	1	0	0	0	CorrectOmission	0.238945	0.703524	1	0	84
302.619995	1.279586	city	1	1	1.390764	1.390764	0	1	0	0	CorrectCommission	0.090971	0.686279	1	0	84
303.899658	1.279738	city	4	1	1.575359	1.575359	0	1	0	0	CorrectCommission	0.726443	0.673879	1	0	84
305.219299	1.359579	city	2	1	1.561508	1.561508	0	1	0	0	CorrectCommission	0.665109	0.666594	1	0	84
306.552216	1.306244	city	7	1	1.480632	1.480632	0	1	0	0	CorrectCommission	0.306977	0.664319	1	0	84
307.871704	1.332700	city	6	1	1.594615	1.594615	0	1	0	0	CorrectCommission	0.811708	0.666718	1	0	84
309.217896	1.359716	mountain	10	0	0.000000	1.730000	1	0	0	0	CorrectOmission	1.411213	0.673330	1	0	84
310.544220	1.292911	city	5	1	1.723425	1.723425	0	1	0	0	CorrectCommission	1.382097	0.683670	1	0	84
311.843781	1.306237	city	10	1	1.411526	1.411526	0	1	0	0	CorrectCommission	0.000966	0.697244	1	0	84
313.176697	1.359577	city	3	1	1.306024	1.306024	0	1	0	0	CorrectCommission	0.466208	0.713557	1	0	84
314.496185	1.279412	city	9	1	1.385229	1.385229	0	1	0	0	CorrectCommission	0.115478	0.731964	1	0	84
315.809082	1.346387	city	10	1	1.373113	1.373113	0	1	0	0	CorrectCommission	0.169132	0.751677	1	0	84
317.148651	1.332748	city	4	1	1.556323	1.556323	0	1	0	0	CorrectCommission	0.642147	0.771747	1	0	84
318.454895	1.279715	city	3	1	1.764409	1.764409	0	1	0	0	CorrectCommission	1.563583	0.791188	1	0	84
319.747864	1.306243	city	6	1	1.720070	1.720070	0	1	0	0	CorrectCommission	1.367241	0.809106	0	0	84
321.067413	1.332811	city	1	1	1.395542	1.395542	0	1	0	0	CorrectCommission	0.069812	0.824899	0	0	84
322.413544	1.359457	city	7	1	1.991867	1.991867	0	1	0	0	CorrectCommission	2.570796	0.838397	0	0	84
323.746460	1.306398	city	4	1	1.469741	1.469741	0	1	0	0	CorrectCommission	0.258750	0.849852	0	0	84
325.066040	1.332742	city	8	1	1.169745	1.169745	0	1	0	0	CorrectCommission	1.069673	0.860045	0	0	84
326.392181	1.319555	city	2	1	1.286563	1.286563	0	1	0	0	CorrectCommission	0.552386	0.869970	0	0	84
327.691772	1.279660	city	9	1	1.343738	1.343738	0	1	0	0	CorrectCommission	0.299208	0.880727	0	0	84
328.984741	1.306231	city	3	1	1.225262	1.225262	0	1	0	0	CorrectCommission	0.823835	0.893282	0	0	84
330.277679	1.279666	city	7	1	1.506698	1.506698	0	1	0	0	CorrectCommission	0.422404	0.908254	0	0	84
331.570557	1.306099	city	3	1	1.188841	1.188841	0	1	0	0	CorrectCommission	0.985113	0.925814	0	0	84
332.876801	1.306377	city	10	1	1.049465	1.049465	0	1	0	0	CorrectCommission	1.602290	0.945577	0	0	84
334.169708	1.279417	city	1	1	1.674509	1.674509	0	1	0	0	CorrectCommission	1.165492	0.966657	0	0	84
335.482574	1.346315	city	9	1	1.569087	1.569087	0	1	0	0	CorrectCommission	0.698670	0.987754	0	0	84
338.328308	4.345161	break	0	0	0.000000	1.357747	0	0	0	0	ThoughtProbe	0.237173	1.007262	0	84	84
341.167328	1.332875	city	8	1	1.129930	1.129930	0	1	0	0	CorrectCommission	1.245979	1.023414	0	0	84
342.493622	1.319752	city	2	1	0.975076	0.975076	0	1	0	0	CorrectCommission	1.931693	1.034436	0	0	84
343.826599	1.346202	city	10	1	1.178565	1.178565	0	1	0	0	CorrectCommission	1.030615	1.038756	0	0	84
345.152802	1.306209	city	8	1	1.249562	1.249562	0	1	0	0	CorrectCommission	0.716233	1.035171	0	0	84
346.445740	1.279613	city	9	1	1.135141	1.135141	0	1	0	0	CorrectCommission	1.222903	1.022939	0	0	84
347.738647	1.306251	city	10	1	1.031791	1.031791	0	1	0	0	CorrectCommission	1.680554	1.001871	0	0	84
349.058197	1.332807	city	8	1	1.054250	1.054250	0	1	0	0	CorrectCommission	1.581100	0.972373	0	0	84
350.364258	1.279313	city	4	1	1.315732	1.315732	0	1	0	0	CorrectCommission	0.423221	0.935442	0	0	84
351.697205	1.386579	city	1	1	1.595231	1.595231	0	1	0	0	CorrectCommission	0.814438	0.892601	0	0	84
353.050262	1.319559	mountain	3	0	0.000000	1.687855	1	0	0	0	CorrectOmission	1.224589	0.845742	0	0	84
354.349823	1.279575	city	6	1	1.638509	1.638509	0	1	0	0	CorrectCommission	1.006079	0.796938	1	0	84
355.656036	1.332866	city	10	1	1.492099	1.492099	0	1	0	0	CorrectCommission	0.357753	0.748317	1	0	84
356.988861	1.332737	mountain	9	0	0.000000	1.486217	1	0	0	0	CorrectOmission	0.331707	0.701862	1	0	84
358.295074	1.279740	city	5	1	1.535579	1.535579	0	1	0	0	CorrectCommission	0.550291	0.659233	1	0	84
359.574677	1.279450	city	7	1	1.554903	1.554903	0	1	0	0	CorrectCommission	0.635860	0.621665	1	0	84
360.880920	1.333031	city	5	1	1.500955	1.500955	0	1	0	0	CorrectCommission	0.396970	0.589896	1	0	84
362.187164	1.279441	city	3	1	1.599768	1.599768	0	1	0	0	CorrectCommission	0.834528	0.564169	1	0	84
363.500061	1.346363	city	1	1	1.476338	1.476338	0	1	0	0	CorrectCommission	0.287963	0.544239	1	0	84
364.846344	1.346220	city	7	1	1.365856	1.365856	0	1	0	0	CorrectCommission	0.201265	0.529484	1	0	84
366.179169	1.319403	city	6	1	1.395248	1.395248	0	1	0	0	CorrectCommission	0.071116	0.519005	1	0	84
367.492004	1.306248	mountain	4	0	0.000000	1.544650	1	0	0	0	CorrectOmission	0.590457	0.511797	1	0	84
368.798218	1.306224	city	4	1	1.553845	1.553845	0	1	0	0	CorrectCommission	0.631175	0.506884	1	0	84
370.117798	1.332896	city	8	1	1.162615	1.162615	0	1	0	0	CorrectCommission	1.101243	0.503494	1	0	84
371.457336	1.346227	city	2	1	1.216013	1.216013	0	1	0	0	CorrectCommission	0.864792	0.501137	1	0	84
372.776917	1.292903	city	9	1	1.297336	1.297336	0	1	0	0	CorrectCommission	0.504682	0.499696	1	0	84
374.069916	1.293071	city	10	1	1.410395	1.410395	0	1	0	0	CorrectCommission	0.004041	0.499430	1	0	84
375.382874	1.332894	city	6	1	1.424172	1.424172	0	1	0	0	CorrectCommission	0.056966	0.500885	1	0	84
376.702393	1.306132	city	4	1	1.545665	1.545665	0	1	0	0	CorrectCommission	0.594954	0.504792	1	0	84
378.008636	1.306360	city	1	1	1.460517	1.460517	0	1	0	0	CorrectCommission	0.217904	0.511969	1	0	84
379.321564	1.319478	city	5	1	1.694586	1.694586	0	1	0	0	CorrectCommission	1.254394	0.523234	1	0	84
380.647797	1.332971	city	9	1	1.424404	1.424404	0	1	0	0	CorrectCommission	0.057992	0.539243	1	0	84
381.987366	1.346174	city	10	1	1.209292	1.209292	0	1	0	0	CorrectCommission	0.894552	0.560460	1	0	84
383.300171	1.279466	city	9	1	1.324991	1.324991	0	1	0	0	CorrectCommission	0.382222	0.587004	1	0	84
384.586456	1.293066	city	1	1	1.367137	1.367137	0	1	0	0	CorrectCommission	0.195593	0.618644	1	0	84
385.886017	1.306072	city	2	1	1.457226	1.457226	0	1	0	0	CorrectCommission	0.203334	0.654739	1	0	84
387.238861	1.399600	city	5	1	1.500422	1.500422	0	1	0	0	CorrectCommission	0.394611	0.694239	1	0	84
388.618469	1.359661	city	3	1	1.227592	1.227592	0	1	0	0	CorrectCommission	0.813520	0.735733	1	0	84
389.951447	1.306264	city	10	1	1.117300	1.117300	0	1	0	0	CorrectCommission	1.301905	0.777588	1	0	84
391.257690	1.306217	city	8	1	1.177753	1.177753	0	1	0	0	CorrectCommission	1.034212	0.818050	0	0	84
394.209961	4.598327	break	0	1	1.124359	1.124359	0	0	0	0	ThoughtProbe	1.270647	0.855405	0	84	84
397.155640	1.293057	city	9	1	1.527614	1.527614	0	1	0	0	CorrectCommission	0.515021	0.888070	0	0	8.326471e+01
398.468628	1.332900	mountain	4	0	0.000000	1.660126	1	0	0	0	CorrectOmission	1.101802	0.914727	0	0	8.252941e+01
399.781494	1.292839	city	3	1	1.628243	1.628243	0	1	0	0	CorrectCommission	0.960620	0.934327	0	0	8.179412e+01
401.080994	1.306168	city	7	1	1.538314	1.538314	0	1	0	0	CorrectCommission	0.562401	0.946177	0	0	8.105882e+01
402.407196	1.346224	city	8	1	1.070410	1.070410	0	1	0	0	CorrectCommission	1.509544	0.949976	0	0	8.032353e+01
403.740173	1.319721	city	10	1	1.121928	1.121928	0	1	0	0	CorrectCommission	1.281415	0.945839	0	0	7.958824e+01
405.053101	1.306150	city	8	1	1.143872	1.143872	0	1	0	0	CorrectCommission	1.184241	0.934304	0	0	7.885294e+01
406.392578	1.372812	city	5	1	1.115849	1.115849	0	1	0	0	CorrectCommission	1.308331	0.916371	0	0	7.811765e+01
407.738770	1.319586	city	2	1	1.215032	1.215032	0	1	0	0	CorrectCommission	0.869136	0.893460	0	0	7.738235e+01
409.051697	1.306212	city	1	1	1.290464	1.290464	0	1	0	0	CorrectCommission	0.535112	0.867378	0	0	7.664706e+01
410.371277	1.332961	city	2	1	1.277706	1.277706	0	1	0	0	CorrectCommission	0.591605	0.840232	0	0	7.591176e+01
411.684265	1.293003	city	10	1	1.228430	1.228430	0	1	0	0	CorrectCommission	0.809809	0.814301	0	0	7.517647e+01
413.003845	1.346217	city	3	1	1.277396	1.277396	0	1	0	0	CorrectCommission	0.592980	0.791931	1	0	7.444118e+01
414.356659	1.359387	city	8	1	1.137149	1.137149	0	1	0	0	CorrectCommission	1.214013	0.775369	1	0	7.370588e+01
415.689545	1.306391	city	2	1	1.182509	1.182509	0	1	0	0	CorrectCommission	1.013150	0.766568	1	0	7.297059e+01
416.995880	1.306252	city	7	1	1.417396	1.417396	0	1	0	0	CorrectCommission	0.026961	0.767016	1	0	7.223529e+01
418.302032	1.306094	city	10	1	1.253464	1.253464	0	1	0	0	CorrectCommission	0.698955	0.777558	1	0	7.150000e+01
419.621552	1.332903	city	2	1	1.278025	1.278025	0	1	0	0	CorrectCommission	0.590194	0.798149	1	0	7.076471e+01
420.941101	1.306218	city	4	1	1.453401	1.453401	0	1	0	0	CorrectCommission	0.186397	0.827818	0	0	7.002941e+01
422.260742	1.333051	city	1	1	1.429461	1.429461	0	1	0	0	CorrectCommission	0.080385	0.864694	0	0	6.929412e+01
423.600372	1.346224	city	8	1	1.261054	1.261054	0	1	0	0	CorrectCommission	0.665345	0.906106	0	0	6.855882e+01
424.933197	1.319422	city	5	1	1.114890	1.114890	0	1	0	0	CorrectCommission	1.312576	0.948857	0	0	6.782353e+01
426.246094	1.306389	city	7	1	1.190444	1.190444	0	1	0	0	CorrectCommission	0.978015	0.989622	0	0	6.708824e+01
427.558990	1.319406	city	3	1	0.983126	0.983126	0	1	0	0	CorrectCommission	1.896045	1.025346	0	0	6.635294e+01
428.878540	1.319699	mountain	4	1	0.715858	0.715858	0	0	1	0	CommissionError	3.079545	1.053520	0	0	6.561765e+01
430.184845	1.292907	city	9	1	1.522824	1.522824	0	1	0	0	CorrectCommission	0.493811	1.072478	0	0	6.488235e+01
431.484467	1.306290	city	6	1	1.311522	1.311522	0	1	0	0	CorrectCommission	0.441862	1.081566	0	0	6.414706e+01
432.797363	1.319528	city	2	1	1.229292	1.229292	0	1	0	0	CorrectCommission	0.805992	1.081007	0	0	6.341176e+01
434.116913	1.319576	city	10	1	1.097779	1.097779	0	1	0	0	CorrectCommission	1.388348	1.071810	0	0	6.267647e+01
435.449799	1.346193	city	4	1	1.147086	1.147086	0	1	0	0	CorrectCommission	1.170008	1.055570	0	0	6.194118e+01
436.782684	1.319547	city	9	1	1.067079	1.067079	0	1	0	0	CorrectCommission	1.524292	1.034261	0	0	6.120588e+01
438.108826	1.332757	city	2	1	1.194463	1.194463	0	1	0	0	CorrectCommission	0.960218	1.009985	0	0	6.047059e+01
439.421753	1.293098	city	7	1	1.181878	1.181878	0	1	0	0	CorrectCommission	1.015945	0.984799	0	0	5.973529e+01
442.027649	3.918709	break	0	1	1.242641	1.242641	0	0	0	0	ThoughtProbe	0.746880	0.960484	0	59	59
444.673431	1.372859	mountain	10	0	0.000000	1.521363	1	0	0	0	CorrectOmission	0.487342	0.938445	0	0	5.912500e+01
446.006317	1.292921	city	9	1	1.706564	1.706564	0	1	0	0	CorrectCommission	1.307435	0.919566	0	0	5.925000e+01
447.299225	1.292891	city	6	1	1.486760	1.486760	0	1	0	0	CorrectCommission	0.334114	0.904143	0	0	5.937500e+01
448.645447	1.399556	city	9	1	1.357474	1.357474	0	1	0	0	CorrectCommission	0.238383	0.891946	0	0	5.950000e+01
450.024963	1.359451	city	10	1	1.013145	1.013145	0	1	0	0	CorrectCommission	1.763117	0.882260	0	0	5.962500e+01
451.351135	1.292881	city	4	1	1.234755	1.234755	0	1	0	0	CorrectCommission	0.781798	0.873958	0	0	5.975000e+01
452.637421	1.279714	city	7	1	1.293428	1.293428	0	1	0	0	CorrectCommission	0.521987	0.865768	0	0	5.987500e+01
453.943665	1.332791	city	9	1	1.205275	1.205275	0	1	0	0	CorrectCommission	0.912340	0.856431	0	0	60
455.289795	1.359470	city	1	1	1.005154	1.005154	0	1	0	0	CorrectCommission	1.798505	0.844907	0	0	6.012500e+01
456.609406	1.279744	city	4	1	1.507515	1.507515	0	1	0	0	CorrectCommission	0.426019	0.830560	0	0	6.025000e+01
457.915649	1.332736	city	6	1	1.497516	1.497516	0	1	0	0	CorrectCommission	0.381745	0.813396	0	0	6.037500e+01
459.248474	1.332897	city	3	1	1.161311	1.161311	0	1	0	0	CorrectCommission	1.107020	0.794079	1	0	6.050000e+01
460.581451	1.333086	city	2	1	1.133566	1.133566	0	1	0	0	CorrectCommission	1.229876	0.773932	1	0	6.062500e+01
461.914429	1.332859	city	1	1	1.185684	1.185684	0	1	0	0	CorrectCommission	0.999092	0.754953	1	0	6.075000e+01
463.233978	1.306253	mountain	4	0	0.000000	1.239071	1	0	0	0	CorrectOmission	0.762689	0.739492	1	0	6.087500e+01
464.526917	1.279594	city	10	1	1.294641	1.294641	0	1	0	0	CorrectCommission	0.516616	0.729980	1	0	61
465.813171	1.292896	city	7	1	1.353310	1.353310	0	1	0	0	CorrectCommission	0.256821	0.728551	1	0	6.112500e+01
467.119385	1.319569	city	8	1	1.261147	1.261147	0	1	0	0	CorrectCommission	0.664934	0.736677	1	0	6.125000e+01
468.418854	1.279368	city	9	1	1.388272	1.388272	0	1	0	0	CorrectCommission	0.102005	0.754828	1	0	6.137500e+01
469.718445	1.319778	city	10	1	1.336510	1.336510	0	1	0	0	CorrectCommission	0.331212	0.782307	1	0	6.150000e+01
471.038116	1.319565	city	4	1	1.491049	1.491049	0	1	0	0	CorrectCommission	0.353106	0.817256	0	0	6.162500e+01
472.357574	1.319403	city	5	1	1.459367	1.459367	0	1	0	0	CorrectCommission	0.212815	0.856917	0	0	6.175000e+01
473.677155	1.319728	city	10	1	1.436108	1.436108	0	1	0	0	CorrectCommission	0.109819	0.898057	0	0	6.187500e+01
474.996704	1.319382	city	7	1	2.034119	2.034119	0	1	0	0	CorrectCommission	2.757895	0.937585	0	0	62
476.329590	1.346389	city	6	1	1.900853	1.900853	0	1	0	0	CorrectCommission	2.167774	0.973207	0	0	6.212500e+01
477.682556	1.359551	city	1	1	1.704226	1.704226	0	1	0	0	CorrectCommission	1.297083	1.004160	0	0	6.225000e+01
479.062103	1.399542	mountain	8	0	0.000000	1.738268	1	0	0	0	CorrectOmission	1.447825	1.031591	0	0	6.237500e+01
480.401703	1.279620	city	5	1	1.760349	1.760349	0	1	0	0	CorrectCommission	1.545603	1.058755	0	0	6.250000e+01
481.694611	1.306196	city	1	1	1.527839	1.527839	0	1	0	0	CorrectCommission	0.516016	1.091023	0	0	6.262500e+01
482.994141	1.292901	city	4	1	1.467775	1.467775	0	1	0	0	CorrectCommission	0.250047	1.135502	0	0	6.275000e+01
484.300323	1.319428	city	1	1	1.371897	1.371897	0	1	0	0	CorrectCommission	0.174515	1.200380	0	0	6.287500e+01
485.633118	1.346209	city	3	1	1.238091	1.238091	0	1	0	0	CorrectCommission	0.767029	1.294182	0	0	63
486.952759	1.293063	city	4	1	0.762502	0.762502	0	1	0	0	CorrectCommission	2.873003	1.424810	0	0	6.312500e+01
488.272400	1.346226	city	9	1	1.544255	1.544255	0	1	0	0	CorrectCommission	0.588709	1.598570	0	0	6.325000e+01
489.618622	1.346223	city	7	1	1.365305	1.365305	0	1	0	0	CorrectCommission	0.203707	1.819373	0	0	6.337500e+01
490.991455	1.399403	city	5	1	1.329936	1.329936	0	1	0	0	CorrectCommission	0.360324	2.087850	0	0	6.350000e+01
492.370911	1.359541	city	2	1	1.235538	1.235538	0	1	0	0	CorrectCommission	0.778333	2.400900	0	0	6.362500e+01
493.690491	1.279597	city	5	1	1.746912	1.746912	0	1	0	0	CorrectCommission	1.486103	2.751639	0	0	6.375000e+01
495.003479	1.346379	city	10	1	1.181401	1.181401	0	1	0	0	CorrectCommission	1.018058	3.129727	0	0	6.387500e+01
498.195892	5.038451	break	0	0	0.000000	0.615890	0	0	0	0	ThoughtProbe	3.522220	3.522220	0	64	64
