onset	duration	trial_type	image_type	Press	ReactionTime	ReactionTime_Interpolated	CorrectOmission	CorrectCommission	CommissionError	OmissionError	response_type	nonsmoothVarianceTimeCourse	VarianceTimeCourse	In_the_Zone	ThoughtProbe	ThoughtProbe_Interpolated
0.653057	1.279475	city	5	1	1.347950	1.347950	0	1	0	0	CorrectCommission	0.402200	0.402200	1	0	19
1.932690	1.279790	city	10	1	1.287341	1.287341	0	1	0	0	CorrectCommission	0.121302	0.413700	1	0	19
3.212337	1.279505	city	1	1	1.375778	1.375778	0	1	0	0	CorrectCommission	0.531169	0.426274	1	0	19
4.505139	1.306099	city	5	1	1.340234	1.340234	0	1	0	0	CorrectCommission	0.366440	0.440774	1	0	19
5.797987	1.279596	city	8	1	1.147096	1.147096	0	1	0	0	CorrectCommission	0.528680	0.457684	1	0	19
7.077653	1.279737	mountain	8	0	0.000000	1.184723	1	0	0	0	CorrectOmission	0.354295	0.476954	1	0	19
8.363973	1.292903	city	8	1	1.264577	1.264577	0	1	0	0	CorrectCommission	0.015800	0.497956	1	0	19
9.656869	1.292890	city	4	1	1.198122	1.198122	0	1	0	0	CorrectCommission	0.292194	0.519498	1	0	19
10.943130	1.279631	city	10	1	1.088954	1.088954	0	1	0	0	CorrectCommission	0.798145	0.539919	1	0	19
12.229384	1.292879	city	5	1	1.213311	1.213311	0	1	0	0	CorrectCommission	0.221797	0.557300	1	0	19
13.515605	1.279561	city	3	1	1.021590	1.021590	0	1	0	0	CorrectCommission	1.110351	0.569767	1	0	19
14.795092	1.279412	city	4	1	1.093386	1.093386	0	1	0	0	CorrectCommission	0.777602	0.575711	1	0	19
16.074680	1.279766	city	2	1	1.023789	1.023789	0	1	0	0	CorrectCommission	1.100156	0.574129	1	0	19
17.360926	1.292726	city	10	1	1.045499	1.045499	0	1	0	0	CorrectCommission	0.999543	0.564775	1	0	19
18.647076	1.279573	city	5	1	1.163593	1.163593	0	1	0	0	CorrectCommission	0.452221	0.548305	1	0	19
19.926752	1.279784	city	2	1	1.081314	1.081314	0	1	0	0	CorrectCommission	0.833553	0.526280	1	0	19
21.206427	1.279565	city	4	1	1.124301	1.124301	0	1	0	0	CorrectCommission	0.634326	0.500971	1	0	19
22.485878	1.279335	mountain	3	0	0.000000	1.187426	1	0	0	0	CorrectOmission	0.341764	0.475197	1	0	19
23.765388	1.279688	city	8	1	1.252353	1.252353	0	1	0	0	CorrectCommission	0.040856	0.452009	1	0	19
25.044994	1.279524	city	2	1	1.300742	1.300742	0	1	0	0	CorrectCommission	0.183408	0.434321	1	0	19
26.324656	1.279797	city	3	1	1.286910	1.286910	0	1	0	0	CorrectCommission	0.119302	0.424629	1	0	19
27.604239	1.279368	city	1	1	1.229990	1.229990	0	1	0	0	CorrectCommission	0.144498	0.424741	1	0	19
28.883802	1.279758	city	2	1	1.231280	1.231280	0	1	0	0	CorrectCommission	0.138518	0.435627	1	0	19
30.170326	1.293290	city	8	1	1.142952	1.142952	0	1	0	0	CorrectCommission	0.547885	0.457319	1	0	19
31.456476	1.279010	city	1	1	1.155282	1.155282	0	1	0	0	CorrectCommission	0.490743	0.488913	1	0	19
32.742470	1.292980	city	6	1	1.302611	1.302611	0	1	0	0	CorrectCommission	0.192072	0.528688	1	0	19
34.048710	1.319496	city	8	1	1.209648	1.209648	0	1	0	0	CorrectCommission	0.238777	0.574304	1	0	19
35.355022	1.293129	city	9	1	1.191154	1.191154	0	1	0	0	CorrectCommission	0.324487	0.623016	1	0	19
36.641262	1.279357	city	8	1	1.193081	1.193081	0	1	0	0	CorrectCommission	0.315556	0.672000	1	0	19
37.927402	1.292918	city	7	1	0.975416	0.975416	0	1	0	0	CorrectCommission	1.324351	0.718638	1	0	19
39.227066	1.306412	city	3	1	0.889192	0.889192	0	1	0	0	CorrectCommission	1.723965	0.760744	1	0	19
40.520058	1.279573	city	10	1	0.971117	0.971117	0	1	0	0	CorrectCommission	1.344271	0.796793	0	0	19
41.799614	1.279533	city	8	1	0.986022	0.986022	0	1	0	0	CorrectCommission	1.275196	0.825953	0	0	19
45.338451	5.798146	break	0	0	0.000000	1.299668	0	0	0	0	ThoughtProbe	0.178430	0.848014	0	19	19
48.883980	1.292914	city	1	1	1.520781	1.520781	0	1	0	0	CorrectCommission	1.203204	0.863251	0	0	1.955882e+01
50.176830	1.292787	city	9	1	1.258088	1.258088	0	1	0	0	CorrectCommission	0.014274	0.872157	0	0	2.011765e+01
51.509731	1.373014	city	5	1	1.112738	1.112738	0	1	0	0	CorrectCommission	0.687916	0.875311	0	0	2.067647e+01
52.849304	1.306131	city	3	1	0.853110	0.853110	0	1	0	0	CorrectCommission	1.891190	0.873124	0	0	2.123529e+01
54.155525	1.306307	mountain	7	0	0.000000	1.138339	1	0	0	0	CorrectOmission	0.569265	0.865820	0	0	2.179412e+01
55.461720	1.306088	city	2	1	1.424333	1.424333	0	1	0	0	CorrectCommission	0.756207	0.853530	0	0	2.235294e+01
56.801285	1.373038	city	3	1	1.167002	1.167002	0	1	0	0	CorrectCommission	0.436425	0.836329	0	0	2.291176e+01
58.134262	1.292919	city	1	1	0.938371	0.938371	0	1	0	0	CorrectCommission	1.496036	0.814408	0	0	2.347059e+01
59.427177	1.292908	city	10	1	0.976836	0.976836	0	1	0	0	CorrectCommission	1.317767	0.788244	1	0	2.402941e+01
60.720039	1.292816	city	2	1	1.031651	1.031651	0	1	0	0	CorrectCommission	1.063721	0.758754	1	0	2.458824e+01
62.006207	1.279515	city	6	1	1.138472	1.138472	0	1	0	0	CorrectCommission	0.568650	0.727341	1	0	2.514706e+01
63.305794	1.319665	city	10	1	1.065065	1.065065	0	1	0	0	CorrectCommission	0.908859	0.695842	1	0	2.570588e+01
64.605392	1.279527	city	4	1	1.289002	1.289002	0	1	0	0	CorrectCommission	0.128999	0.666385	1	0	2.626471e+01
65.898285	1.306261	city	2	1	1.187543	1.187543	0	1	0	0	CorrectCommission	0.341223	0.641204	1	0	2.682353e+01
67.191170	1.279505	city	3	1	1.320230	1.320230	0	1	0	0	CorrectCommission	0.273729	0.622385	1	0	2.738235e+01
68.484039	1.306238	city	8	1	1.161443	1.161443	0	1	0	0	CorrectCommission	0.462188	0.611657	1	0	2.794118e+01
69.803673	1.333027	city	9	1	1.096816	1.096816	0	1	0	0	CorrectCommission	0.761706	0.610190	1	0	2.850000e+01
71.136589	1.332808	city	1	1	1.109938	1.109938	0	1	0	0	CorrectCommission	0.700890	0.618436	1	0	2.905882e+01
72.449463	1.292935	mountain	7	0	0.000000	1.187920	1	0	0	0	CorrectOmission	0.339477	0.636067	1	0	2.961765e+01
73.735748	1.279646	city	1	1	1.296464	1.296464	0	1	0	0	CorrectCommission	0.163583	0.661975	1	0	3.017647e+01
75.035362	1.319578	city	3	1	1.401275	1.401275	0	1	0	0	CorrectCommission	0.649339	0.694324	1	0	3.073529e+01
76.354843	1.319386	city	9	1	1.334123	1.334123	0	1	0	0	CorrectCommission	0.338118	0.730708	1	0	3.129412e+01
77.674416	1.319756	city	4	1	1.270915	1.270915	0	1	0	0	CorrectCommission	0.045174	0.768375	1	0	3.185294e+01
79.000732	1.332886	city	9	1	1.072510	1.072510	0	1	0	0	CorrectCommission	0.874356	0.804518	0	0	3.241176e+01
80.313637	1.292919	city	6	1	0.780753	0.780753	0	1	0	0	CorrectCommission	2.226535	0.836494	0	0	3.297059e+01
81.613190	1.306181	city	1	1	0.713124	0.713124	0	1	0	0	CorrectCommission	2.539966	0.862069	0	0	3.352941e+01
82.912750	1.292950	city	4	1	1.360264	1.360264	0	1	0	0	CorrectCommission	0.459270	0.879646	0	0	3.408824e+01
84.205605	1.292750	city	7	1	1.365633	1.365633	0	1	0	0	CorrectCommission	0.484154	0.888349	0	0	3.464706e+01
85.491852	1.279744	city	8	1	1.284984	1.284984	0	1	0	0	CorrectCommission	0.110377	0.887921	0	0	3.520588e+01
86.771515	1.279590	city	5	1	1.095820	1.095820	0	1	0	0	CorrectCommission	0.766323	0.878694	0	0	3.576471e+01
88.077667	1.332702	city	1	1	0.953391	0.953391	0	1	0	0	CorrectCommission	1.426427	0.861460	0	0	3.632353e+01
89.383873	1.279714	city	10	1	0.864840	0.864840	0	1	0	0	CorrectCommission	1.836825	0.837370	0	0	3.688235e+01
90.663452	1.279454	city	3	1	1.157204	1.157204	0	1	0	0	CorrectCommission	0.481834	0.807845	0	0	3.744118e+01
94.282150	5.957938	break	0	0	0.000000	1.363201	0	0	0	0	ThoughtProbe	0.472882	0.774502	1	38	38
97.907669	1.293091	city	7	1	1.473599	1.473599	0	1	0	0	CorrectCommission	0.984533	0.739017	1	0	3.791304e+01
99.207367	1.306306	mountain	5	0	0.000000	1.479165	1	0	0	0	CorrectOmission	1.010328	0.703028	1	0	3.782609e+01
100.506989	1.292934	city	7	1	1.417941	1.417941	0	1	0	0	CorrectCommission	0.726583	0.668003	1	0	3.773913e+01
101.799904	1.292899	city	9	1	1.327972	1.327972	0	1	0	0	CorrectCommission	0.309610	0.635145	1	0	3.765217e+01
103.106041	1.319385	mountain	5	0	0.000000	1.279615	1	0	0	0	CorrectOmission	0.085496	0.605259	1	0	3.756522e+01
104.412193	1.292909	city	5	1	1.263733	1.263733	0	1	0	0	CorrectCommission	0.011886	0.578738	1	0	3.747826e+01
105.705101	1.292911	city	7	1	1.271185	1.271185	0	1	0	0	CorrectCommission	0.046423	0.555616	1	0	3.739130e+01
106.998093	1.293075	city	8	1	1.034273	1.034273	0	1	0	0	CorrectCommission	1.051568	0.535647	1	0	3.730435e+01
108.297745	1.306233	city	6	1	0.923413	0.923413	0	1	0	0	CorrectCommission	1.565361	0.518465	1	0	3.721739e+01
109.590546	1.279364	city	4	1	1.141231	1.141231	0	1	0	0	CorrectCommission	0.555861	0.503769	1	0	3.713043e+01
110.876801	1.293150	city	3	1	1.196551	1.196551	0	1	0	0	CorrectCommission	0.299476	0.491478	1	0	3.704348e+01
112.163071	1.279393	city	8	1	1.259610	1.259610	0	1	0	0	CorrectCommission	0.007223	0.481760	1	0	3.695652e+01
113.449249	1.292966	city	5	1	1.350947	1.350947	0	1	0	0	CorrectCommission	0.416091	0.475055	1	0	3.686957e+01
114.735588	1.279702	city	1	1	1.302078	1.302078	0	1	0	0	CorrectCommission	0.189601	0.471963	1	0	3.678261e+01
116.021805	1.292729	mountain	8	0	0.000000	1.404649	1	0	0	0	CorrectOmission	0.664979	0.473198	1	0	3.669565e+01
117.314697	1.293059	city	6	1	1.465373	1.465373	0	1	0	0	CorrectCommission	0.946410	0.479333	1	0	3.660870e+01
118.614265	1.306079	city	10	1	1.290961	1.290961	0	1	0	0	CorrectCommission	0.138078	0.490658	1	0	3.652174e+01
119.927177	1.319751	city	4	1	1.281301	1.281301	0	1	0	0	CorrectCommission	0.093307	0.507061	1	0	3.643478e+01
121.233513	1.292908	city	3	1	1.307127	1.307127	0	1	0	0	CorrectCommission	0.212999	0.527892	1	0	3.634783e+01
122.539650	1.319379	city	5	1	1.229756	1.229756	0	1	0	0	CorrectCommission	0.145584	0.551974	1	0	3.626087e+01
123.892517	1.386351	city	8	1	1.021890	1.021890	0	1	0	0	CorrectCommission	1.108960	0.577702	1	0	3.617391e+01
125.238846	1.306302	city	1	1	1.272161	1.272161	0	1	0	0	CorrectCommission	0.050947	0.603201	1	0	3.608696e+01
126.538399	1.292801	city	4	1	1.515378	1.515378	0	1	0	0	CorrectCommission	1.178164	0.626632	1	0	36
127.844536	1.319477	city	9	1	1.152292	1.152292	0	1	0	0	CorrectCommission	0.504597	0.646438	1	0	3.591304e+01
129.157486	1.306415	city	8	1	1.056437	1.056437	0	1	0	0	CorrectCommission	0.948848	0.661647	1	0	3.582609e+01
130.463806	1.306239	city	10	1	0.898453	0.898453	0	1	0	0	CorrectCommission	1.681043	0.672040	1	0	3.573913e+01
131.769958	1.306048	city	3	1	1.115787	1.115787	0	1	0	0	CorrectCommission	0.673783	0.678228	1	0	3.565217e+01
133.082855	1.319746	city	8	1	1.043725	1.043725	0	1	0	0	CorrectCommission	1.007762	0.681615	1	0	3.556522e+01
134.395844	1.306244	mountain	1	0	0.000000	1.127213	1	0	0	0	CorrectOmission	0.620829	0.684122	1	0	3.547826e+01
135.708817	1.319694	city	7	1	1.244126	1.244126	0	1	0	0	CorrectCommission	0.078982	0.687874	1	0	3.539130e+01
137.028381	1.319436	city	2	1	1.272341	1.272341	0	1	0	0	CorrectCommission	0.051780	0.694845	1	0	3.530435e+01
138.327866	1.279550	city	4	1	1.417634	1.417634	0	1	0	0	CorrectCommission	0.725159	0.706494	1	0	3.521739e+01
139.634109	1.332922	city	5	1	1.298025	1.298025	0	1	0	0	CorrectCommission	0.170819	0.723490	1	0	3.513043e+01
140.940353	1.279559	city	10	1	1.018233	1.018233	0	1	0	0	CorrectCommission	1.125909	0.745625	1	0	3.504348e+01
142.219925	1.279602	city	6	1	1.132614	1.132614	0	1	0	0	CorrectCommission	0.595796	0.771756	1	0	3.495652e+01
143.506088	1.292731	city	5	1	1.307098	1.307098	0	1	0	0	CorrectCommission	0.212867	0.800040	0	0	3.486957e+01
144.818985	1.333054	city	2	1	1.528478	1.528478	0	1	0	0	CorrectCommission	1.238875	0.828170	0	0	3.478261e+01
146.158630	1.346237	city	3	1	1.529466	1.529466	0	1	0	0	CorrectCommission	1.243455	0.853660	0	0	3.469565e+01
147.471542	1.279587	city	4	1	1.584916	1.584916	0	1	0	0	CorrectCommission	1.500441	0.874258	0	0	3.460870e+01
148.757782	1.292882	city	8	1	1.377146	1.377146	0	1	0	0	CorrectCommission	0.537511	0.888174	0	0	3.452174e+01
150.090652	1.372879	city	5	1	1.108232	1.108232	0	1	0	0	CorrectCommission	0.708800	0.894353	0	0	3.443478e+01
151.423569	1.292934	city	3	1	1.491402	1.491402	0	1	0	0	CorrectCommission	1.067042	0.892499	0	0	3.434783e+01
152.729736	1.319409	city	8	1	1.826198	1.826198	0	1	0	0	CorrectCommission	2.618692	0.883070	0	0	3.426087e+01
154.055878	1.332870	city	7	1	1.449597	1.449597	0	1	0	0	CorrectCommission	0.873293	0.867154	0	0	3.417391e+01
155.362167	1.279710	city	3	1	1.305695	1.305695	0	1	0	0	CorrectCommission	0.206366	0.846272	0	0	3.408696e+01
159.574799	7.145557	break	0	0	0.000000	1.208101	0	0	0	0	ThoughtProbe	0.245945	0.822079	0	34	34
163.793350	1.291537	city	9	1	1.143573	1.143573	0	1	0	0	CorrectCommission	0.545007	0.796108	1	0	3.402941e+01
165.078979	1.279737	mountain	1	0	0.000000	1.098871	1	0	0	0	CorrectOmission	0.752182	0.769628	1	0	3.405882e+01
166.365265	1.292842	city	4	1	1.191080	1.191080	0	1	0	0	CorrectCommission	0.324829	0.743565	1	0	3.408824e+01
167.658188	1.292996	city	10	1	1.537286	1.537286	0	1	0	0	CorrectCommission	1.279697	0.718532	1	0	3.411765e+01
168.997803	1.386218	city	3	1	1.449691	1.449691	0	1	0	0	CorrectCommission	0.873730	0.694941	1	0	3.414706e+01
170.344025	1.306231	city	9	1	1.435778	1.435778	0	1	0	0	CorrectCommission	0.809248	0.673190	1	0	3.417647e+01
171.650162	1.306056	city	10	1	1.445965	1.445965	0	1	0	0	CorrectCommission	0.856460	0.653771	1	0	3.420588e+01
172.949722	1.293062	city	8	1	1.379289	1.379289	0	1	0	0	CorrectCommission	0.547441	0.637333	1	0	3.423529e+01
174.255920	1.319337	city	4	1	1.213725	1.213725	0	1	0	0	CorrectCommission	0.219879	0.624727	1	0	3.426471e+01
175.582169	1.333151	city	6	1	1.413665	1.413665	0	1	0	0	CorrectCommission	0.706763	0.616845	1	0	3.429412e+01
176.895126	1.292751	city	9	1	1.331258	1.331258	0	1	0	0	CorrectCommission	0.324840	0.614511	1	0	3.432353e+01
178.188034	1.293090	city	10	1	1.116151	1.116151	0	1	0	0	CorrectCommission	0.672098	0.618323	1	0	3.435294e+01
179.474335	1.279513	city	2	1	1.257392	1.257392	0	1	0	0	CorrectCommission	0.017500	0.628439	1	0	3.438235e+01
180.780487	1.332767	city	3	1	1.502894	1.502894	0	1	0	0	CorrectCommission	1.120305	0.644521	1	0	3.441176e+01
182.106674	1.319624	city	9	1	1.267575	1.267575	0	1	0	0	CorrectCommission	0.029693	0.665634	1	0	3.444118e+01
183.412903	1.292831	city	5	1	1.167953	1.167953	0	1	0	0	CorrectCommission	0.432017	0.690382	1	0	3.447059e+01
184.719177	1.319726	city	6	1	1.445803	1.445803	0	1	0	0	CorrectCommission	0.855708	0.716935	1	0	3.450000e+01
186.032166	1.306240	city	7	1	1.114850	1.114850	0	1	0	0	CorrectCommission	0.678125	0.743297	1	0	3.452941e+01
187.351669	1.332756	city	9	1	1.073856	1.073856	0	1	0	0	CorrectCommission	0.868119	0.767547	1	0	3.455882e+01
188.671234	1.306376	city	8	1	1.093463	1.093463	0	1	0	0	CorrectCommission	0.777246	0.788052	1	0	3.458824e+01
189.977554	1.306262	city	1	1	0.716960	0.716960	0	1	0	0	CorrectCommission	2.522190	0.803719	0	0	3.461765e+01
191.303787	1.346226	mountain	9	1	1.032458	1.032458	0	0	1	0	CommissionError	1.059981	0.814038	0	0	3.464706e+01
192.616608	1.279404	city	9	1	1.253059	1.253059	0	1	0	0	CorrectCommission	0.037581	0.819249	0	0	3.467647e+01
193.942795	1.372955	city	6	1	1.161723	1.161723	0	1	0	0	CorrectCommission	0.460887	0.820193	0	0	3.470588e+01
195.269028	1.279518	city	10	1	1.125016	1.125016	0	1	0	0	CorrectCommission	0.631010	0.818211	0	0	3.473529e+01
196.555222	1.292880	city	9	1	1.128891	1.128891	0	1	0	0	CorrectCommission	0.613052	0.815000	0	0	3.476471e+01
197.848160	1.292989	city	10	1	1.084620	1.084620	0	1	0	0	CorrectCommission	0.818230	0.812444	0	0	3.479412e+01
199.141159	1.293000	city	7	1	1.655437	1.655437	0	1	0	0	CorrectCommission	1.827280	0.812414	0	0	3.482353e+01
200.454102	1.332886	city	1	1	1.116571	1.116571	0	1	0	0	CorrectCommission	0.670151	0.816556	0	0	3.485294e+01
201.780258	1.319439	city	10	1	1.065631	1.065631	0	1	0	0	CorrectCommission	0.906236	0.826133	0	0	3.488235e+01
203.079834	1.279704	city	1	1	1.403742	1.403742	0	1	0	0	CorrectCommission	0.660774	0.841756	0	0	3.491176e+01
204.379410	1.319448	city	9	1	1.276575	1.276575	0	1	0	0	CorrectCommission	0.071406	0.863239	0	0	3.494118e+01
205.678909	1.279560	city	2	1	1.247067	1.247067	0	1	0	0	CorrectCommission	0.065355	0.889498	0	0	3.497059e+01
209.958145	7.278919	break	0	0	0.000000	1.401981	0	0	0	0	ThoughtProbe	0.652614	0.918615	0	35	35
214.250061	1.304908	city	7	1	1.470012	1.470012	0	1	0	0	CorrectCommission	0.967908	0.948063	0	0	3.597500e+01
215.568954	1.332885	city	4	1	1.179849	1.179849	0	1	0	0	CorrectCommission	0.376882	0.975095	0	0	3.695000e+01
216.908508	1.346225	city	9	1	0.905778	0.905778	0	1	0	0	CorrectCommission	1.647093	0.997238	0	0	3.792500e+01
218.221497	1.279742	mountain	9	1	0.503950	0.503950	0	0	1	0	CommissionError	3.509407	1.012697	0	0	3.890000e+01
219.501160	1.279580	mountain	3	0	0.000000	1.026643	1	0	0	0	CorrectOmission	1.086931	1.020700	0	0	3.987500e+01
220.787415	1.292924	city	4	1	1.564302	1.564302	0	1	0	0	CorrectCommission	1.404905	1.021716	0	0	4.085000e+01
222.093567	1.319386	city	8	1	1.207371	1.207371	0	1	0	0	CorrectCommission	0.249329	1.017207	0	0	4.182500e+01
223.413055	1.319593	city	7	1	0.979231	0.979231	0	1	0	0	CorrectCommission	1.306669	1.009374	0	0	4.280000e+01
224.726059	1.306420	city	2	1	1.157783	1.157783	0	1	0	0	CorrectCommission	0.479147	1.000561	0	0	4.377500e+01
226.019043	1.279538	city	4	1	1.133601	1.133601	0	1	0	0	CorrectCommission	0.591224	0.992821	0	0	4.475000e+01
227.338501	1.359384	city	5	1	1.087161	1.087161	0	1	0	0	CorrectCommission	0.806455	0.987401	0	0	4.572500e+01
228.678055	1.319736	city	3	1	1.193253	1.193253	0	1	0	0	CorrectCommission	0.314761	0.984475	0	0	4.670000e+01
229.991058	1.306244	city	8	1	1.175398	1.175398	0	1	0	0	CorrectCommission	0.397511	0.983132	0	0	4.767500e+01
231.290634	1.292915	city	3	1	1.099735	1.099735	0	1	0	0	CorrectCommission	0.748180	0.981599	0	0	4.865000e+01
232.590195	1.306219	city	6	1	0.972396	0.972396	0	1	0	0	CorrectCommission	1.338343	0.977717	0	0	4.962500e+01
233.903107	1.319591	city	9	1	0.806637	0.806637	0	1	0	0	CorrectCommission	2.106574	0.969430	0	0	5.060000e+01
235.216003	1.306210	city	4	1	0.686869	0.686869	0	1	0	0	CorrectCommission	2.661652	0.955391	0	0	5.157500e+01
236.535477	1.332730	city	2	1	1.069923	1.069923	0	1	0	0	CorrectCommission	0.886345	0.935335	0	0	5.255000e+01
237.841705	1.279741	city	5	1	1.086114	1.086114	0	1	0	0	CorrectCommission	0.811306	0.910302	0	0	5.352500e+01
239.134659	1.306169	city	8	1	1.220315	1.220315	0	1	0	0	CorrectCommission	0.189340	0.882488	0	0	5.450000e+01
240.440826	1.306166	city	7	1	1.442868	1.442868	0	1	0	0	CorrectCommission	0.842105	0.854974	0	0	5.547500e+01
241.740448	1.293068	city	3	1	1.305126	1.305126	0	1	0	0	CorrectCommission	0.203728	0.831260	0	0	5.645000e+01
243.046753	1.319546	city	2	1	1.487033	1.487033	0	1	0	0	CorrectCommission	1.046795	0.814697	0	0	5.742500e+01
244.372971	1.332891	city	8	1	1.505933	1.505933	0	1	0	0	CorrectCommission	1.134388	0.808009	0	0	5.840000e+01
245.685883	1.292930	city	4	1	1.270286	1.270286	0	1	0	0	CorrectCommission	0.042260	0.812878	0	0	5.937500e+01
247.005447	1.346205	city	9	1	1.250725	1.250725	0	1	0	0	CorrectCommission	0.048401	0.829684	0	0	6.035000e+01
248.345001	1.332893	city	8	1	1.270985	1.270985	0	1	0	0	CorrectCommission	0.045498	0.857495	0	0	6.132500e+01
249.671234	1.319567	city	5	1	1.084799	1.084799	0	1	0	0	CorrectCommission	0.817401	0.894149	0	0	6.230000e+01
250.977386	1.292754	city	10	1	1.094506	1.094506	0	1	0	0	CorrectCommission	0.772411	0.936587	0	0	6.327500e+01
252.283630	1.319729	city	5	1	1.524221	1.524221	0	1	0	0	CorrectCommission	1.219146	0.981247	0	0	6.425000e+01
253.616547	1.346104	mountain	2	0	0.000000	1.682313	1	0	0	0	CorrectOmission	1.951841	1.024529	0	0	6.522500e+01
254.949371	1.319542	city	2	1	1.658129	1.658129	0	1	0	0	CorrectCommission	1.839756	1.063167	0	0	6.620000e+01
256.282257	1.346227	city	9	1	1.541013	1.541013	0	1	0	0	CorrectCommission	1.296972	1.094522	0	0	6.717500e+01
257.615204	1.319685	city	4	1	1.703098	1.703098	0	1	0	0	CorrectCommission	2.048168	1.116720	0	0	6.815000e+01
258.914764	1.279425	city	2	1	1.305178	1.305178	0	1	0	0	CorrectCommission	0.203968	1.128622	0	0	6.912500e+01
260.234344	1.359723	city	9	1	1.179319	1.179319	0	1	0	0	CorrectCommission	0.379338	1.129812	0	0	7.010000e+01
261.567230	1.306070	city	4	1	1.041749	1.041749	0	1	0	0	CorrectCommission	1.016919	1.120392	0	0	7.107500e+01
262.886780	1.333011	city	10	1	0.967542	0.967542	0	1	0	0	CorrectCommission	1.360843	1.100964	0	0	7.205000e+01
264.219757	1.332940	city	5	1	0.897510	0.897510	0	1	0	0	CorrectCommission	1.685412	1.072543	0	0	7.302500e+01
267.965149	6.157830	break	0	0	0.000000	1.504372	0	0	0	0	ThoughtProbe	1.127152	1.036606	0	74	74
271.697266	1.306390	city	4	1	1.911737	1.911737	0	1	0	0	CorrectCommission	3.015131	0.995078	0	0	7.445000e+01
273.030151	1.359388	city	1	1	1.243218	1.243218	0	1	0	0	CorrectCommission	0.083191	0.950184	0	0	7.490000e+01
274.369720	1.319768	city	6	1	1.407198	1.407198	0	1	0	0	CorrectCommission	0.676790	0.904457	0	0	7.535000e+01
275.702637	1.346041	city	9	1	1.384340	1.384340	0	1	0	0	CorrectCommission	0.570854	0.860371	0	0	7.580000e+01
277.035553	1.319805	city	5	1	1.281948	1.281948	0	1	0	0	CorrectCommission	0.096306	0.820140	0	0	7.625000e+01
278.341858	1.292823	city	2	1	1.071114	1.071114	0	1	0	0	CorrectCommission	0.880825	0.785473	1	0	7.670000e+01
279.627960	1.279401	city	5	1	1.298163	1.298163	0	1	0	0	CorrectCommission	0.171457	0.757372	1	0	7.715000e+01
280.914185	1.293042	mountain	3	1	1.169378	1.169378	0	0	1	0	CommissionError	0.425411	0.736093	1	0	7.760000e+01
282.200531	1.279640	mountain	10	0	0.000000	1.328644	1	0	0	0	CorrectOmission	0.312725	0.721174	1	0	7.805000e+01
283.486816	1.292896	city	1	1	1.540648	1.540648	0	1	0	0	CorrectCommission	1.295277	0.711586	1	0	7.850000e+01
284.793030	1.319571	city	3	1	1.570074	1.570074	0	1	0	0	CorrectCommission	1.431656	0.705967	1	0	7.895000e+01
286.125916	1.346197	city	8	1	1.487822	1.487822	0	1	0	0	CorrectCommission	1.050449	0.702876	1	0	7.940000e+01
287.472137	1.346225	city	3	1	1.238970	1.238970	0	1	0	0	CorrectCommission	0.102880	0.701014	1	0	7.985000e+01
288.838379	1.386274	city	8	1	1.180944	1.180944	0	1	0	0	CorrectCommission	0.371809	0.699364	1	0	8.030000e+01
290.184540	1.306055	city	1	1	1.154475	1.154475	0	1	0	0	CorrectCommission	0.494482	0.697288	1	0	8.075000e+01
291.477356	1.279556	city	2	1	1.320234	1.320234	0	1	0	0	CorrectCommission	0.273746	0.694563	1	0	8.120000e+01
292.757019	1.279759	city	3	1	1.708565	1.708565	0	1	0	0	CorrectCommission	2.073510	0.691402	1	0	8.165000e+01
294.069916	1.346070	city	6	1	1.425841	1.425841	0	1	0	0	CorrectCommission	0.763194	0.688282	1	0	8.210000e+01
295.402802	1.319698	city	1	1	1.183701	1.183701	0	1	0	0	CorrectCommission	0.359029	0.685947	1	0	8.255000e+01
296.709106	1.292887	city	7	1	1.488027	1.488027	0	1	0	0	CorrectCommission	1.051400	0.685218	1	0	83
298.001984	1.292907	city	2	1	1.253650	1.253650	0	1	0	0	CorrectCommission	0.034842	0.686822	1	0	8.345000e+01
299.288177	1.279483	city	4	1	1.312214	1.312214	0	1	0	0	CorrectCommission	0.236579	0.691331	1	0	8.390000e+01
300.587769	1.319682	city	8	1	1.169726	1.169726	0	1	0	0	CorrectCommission	0.423799	0.699014	1	0	8.435000e+01
301.907379	1.319554	city	9	1	1.152717	1.152717	0	1	0	0	CorrectCommission	0.502628	0.709851	1	0	8.480000e+01
303.220276	1.306232	city	7	1	1.030902	1.030902	0	1	0	0	CorrectCommission	1.067195	0.723535	1	0	8.525000e+01
304.519867	1.292936	city	3	1	1.017732	1.017732	0	1	0	0	CorrectCommission	1.128230	0.739536	1	0	8.570000e+01
305.826111	1.319539	city	10	1	1.065065	1.065065	0	1	0	0	CorrectCommission	0.908862	0.757216	1	0	8.615000e+01
307.125671	1.279596	city	6	1	1.517696	1.517696	0	1	0	0	CorrectCommission	1.188906	0.775855	1	0	8.660000e+01
308.425171	1.319382	city	1	1	1.213726	1.213726	0	1	0	0	CorrectCommission	0.219877	0.794676	1	0	8.705000e+01
309.758057	1.346388	city	3	1	1.125629	1.125629	0	1	0	0	CorrectCommission	0.628172	0.812882	0	0	8.750000e+01
311.077728	1.292954	mountain	10	0	0.000000	1.366871	1	0	0	0	CorrectOmission	0.489891	0.829606	0	0	8.795000e+01
312.363983	1.279559	city	9	1	1.556779	1.556779	0	1	0	0	CorrectCommission	1.370041	0.843950	0	0	8.840000e+01
313.683533	1.359550	city	8	1	1.314680	1.314680	0	1	0	0	CorrectCommission	0.248005	0.855026	0	0	8.885000e+01
315.029724	1.332870	city	4	1	1.073128	1.073128	0	1	0	0	CorrectCommission	0.871490	0.862124	0	0	8.930000e+01
316.342560	1.292762	city	2	1	0.930165	0.930165	0	1	0	0	CorrectCommission	1.534067	0.864773	0	0	8.975000e+01
317.655396	1.332893	city	10	1	0.804632	0.804632	0	1	0	0	CorrectCommission	2.115866	0.862894	0	0	9.020000e+01
318.981689	1.319741	city	1	1	1.167075	1.167075	0	1	0	0	CorrectCommission	0.436087	0.856889	0	0	9.065000e+01
320.314697	1.346262	city	2	1	1.285772	1.285772	0	1	0	0	CorrectCommission	0.114028	0.847745	0	0	9.110000e+01
321.634277	1.292865	city	4	1	1.503028	1.503028	0	1	0	0	CorrectCommission	1.120925	0.836812	0	0	9.155000e+01
325.499603	6.437838	break	0	0	0.000000	1.500703	0	0	0	0	ThoughtProbe	1.110148	0.825779	0	92	92
329.371582	1.306099	city	3	1	1.273419	1.273419	0	1	0	0	CorrectCommission	0.056778	0.816437	0	0	9.060870e+01
330.677826	1.306401	city	8	1	0.815800	0.815800	0	1	0	0	CorrectCommission	2.064105	0.810497	0	0	8.921739e+01
332.004089	1.346082	city	9	1	1.210891	1.210891	0	1	0	0	CorrectCommission	0.233015	0.809275	0	0	8.782609e+01
333.330261	1.306270	city	8	1	1.258052	1.258052	0	1	0	0	CorrectCommission	0.014441	0.813636	0	0	8.643478e+01
334.643188	1.319604	city	6	1	1.218888	1.218888	0	1	0	0	CorrectCommission	0.195952	0.823782	0	0	8.504348e+01
335.942749	1.279501	mountain	6	0	0.000000	1.412860	1	0	0	0	CorrectOmission	0.703032	0.839296	0	0	8.365217e+01
337.222290	1.279614	city	7	1	1.555973	1.555973	0	1	0	0	CorrectCommission	1.366306	0.859213	0	0	8.226087e+01
338.535187	1.346175	city	10	1	1.364233	1.364233	0	1	0	0	CorrectCommission	0.477665	0.882252	0	0	8.086957e+01
339.874725	1.332896	city	7	1	1.508369	1.508369	0	1	0	0	CorrectCommission	1.145677	0.907062	0	0	7.947826e+01
341.194305	1.306232	mountain	3	0	0.000000	1.549002	1	0	0	0	CorrectOmission	1.333996	0.932394	0	0	7.808696e+01
342.500610	1.306407	city	10	1	1.544736	1.544736	0	1	0	0	CorrectCommission	1.314225	0.957298	0	0	7.669565e+01
343.820221	1.332833	city	1	1	1.554173	1.554173	0	1	0	0	CorrectCommission	1.357964	0.981173	0	0	7.530435e+01
345.166382	1.359473	city	9	1	1.517670	1.517670	0	1	0	0	CorrectCommission	1.188783	1.003719	0	0	7.391304e+01
346.512634	1.333029	city	4	1	1.178186	1.178186	0	1	0	0	CorrectCommission	0.384588	1.024747	0	0	7.252174e+01
347.825531	1.292752	mountain	4	0	0.000000	1.177427	1	0	0	0	CorrectOmission	0.388107	1.044058	0	0	7.113043e+01
349.125092	1.306404	city	5	1	1.402740	1.402740	0	1	0	0	CorrectCommission	0.656132	1.061197	0	0	6.973913e+01
350.444763	1.332887	city	7	1	1.741475	1.741475	0	1	0	0	CorrectCommission	2.226033	1.075383	0	0	6.834783e+01
351.770905	1.319402	city	9	1	1.195857	1.195857	0	1	0	0	CorrectCommission	0.302689	1.085477	0	0	6.695652e+01
353.097076	1.332988	city	1	1	0.860906	0.860906	0	1	0	0	CorrectCommission	1.855058	1.090248	0	0	6.556522e+01
354.423401	1.319645	city	4	1	1.239151	1.239151	0	1	0	0	CorrectCommission	0.102043	1.088431	0	0	6.417391e+01
355.729675	1.292897	city	10	1	0.853451	0.853451	0	1	0	0	CorrectCommission	1.889610	1.079097	0	0	6.278261e+01
357.042603	1.332956	city	5	1	0.840169	0.840169	0	1	0	0	CorrectCommission	1.951167	1.061815	0	0	6.139130e+01
358.375458	1.332741	city	6	1	0.914921	0.914921	0	1	0	0	CorrectCommission	1.604721	1.036944	0	0	60
359.681671	1.279676	city	7	1	1.020296	1.020296	0	1	0	0	CorrectCommission	1.116348	1.005615	0	0	5.860870e+01
360.974548	1.306071	city	2	1	1.050219	1.050219	0	1	0	0	CorrectCommission	0.977664	0.969750	0	0	5.721739e+01
362.307343	1.359561	city	3	1	1.234788	1.234788	0	1	0	0	CorrectCommission	0.122260	0.931823	0	0	5.582609e+01
363.640320	1.306348	city	8	1	1.055078	1.055078	0	1	0	0	CorrectCommission	0.955145	0.894655	0	0	5.443478e+01
364.953369	1.319750	city	1	1	1.112172	1.112172	0	1	0	0	CorrectCommission	0.690540	0.861105	0	0	5.304348e+01
366.266266	1.306094	city	7	1	1.462397	1.462397	0	1	0	0	CorrectCommission	0.932614	0.833830	0	0	5.165217e+01
367.578949	1.319221	city	4	1	1.277822	1.277822	0	1	0	0	CorrectCommission	0.077184	0.815095	0	0	5.026087e+01
368.931732	1.386400	city	8	1	1.174362	1.174362	0	1	0	0	CorrectCommission	0.402311	0.806584	0	0	4.886957e+01
370.304718	1.359559	city	1	1	0.983176	0.983176	0	1	0	0	CorrectCommission	1.288385	0.809304	0	0	4.747826e+01
371.624390	1.279753	city	3	1	1.372471	1.372471	0	1	0	0	CorrectCommission	0.515847	0.823524	0	0	4.608696e+01
372.950653	1.372769	city	4	1	1.473395	1.473395	0	1	0	0	CorrectCommission	0.983588	0.848784	0	0	4.469565e+01
374.303436	1.332837	city	10	1	1.374338	1.374338	0	1	0	0	CorrectCommission	0.524500	0.883815	0	0	4.330435e+01
375.616333	1.292964	city	1	1	1.422713	1.422713	0	1	0	0	CorrectCommission	0.748696	0.926632	0	0	4.191304e+01
376.935944	1.346264	mountain	1	0	0.000000	1.148264	1	0	0	0	CorrectOmission	0.523268	0.974535	0	0	4.052174e+01
378.248901	1.279630	city	10	1	1.015764	1.015764	0	1	0	0	CorrectCommission	1.137351	1.024270	0	0	3.913043e+01
379.562073	1.346721	city	1	1	1.489987	1.489987	0	1	0	0	CorrectCommission	1.060486	1.072178	0	0	3.773913e+01
380.908325	1.345748	city	10	1	1.227962	1.227962	0	1	0	0	CorrectCommission	0.153896	1.114594	0	0	3.634783e+01
382.220886	1.279393	city	2	1	1.609782	1.609782	0	1	0	0	CorrectCommission	1.615690	1.148146	0	0	3.495652e+01
383.533783	1.346432	city	6	0	0.000000	1.725926	0	0	0	1	OmissionError	2.153969	1.170131	0	0	3.356522e+01
384.846710	1.279391	city	2	1	1.755438	1.755438	0	1	0	0	CorrectCommission	2.290745	1.178819	0	0	3.217391e+01
386.159515	1.346208	city	5	1	1.877363	1.877363	0	1	0	0	CorrectCommission	2.855820	1.173647	0	0	3.078261e+01
387.492493	1.319754	city	9	1	1.493540	1.493540	0	1	0	0	CorrectCommission	1.076952	1.155185	0	0	2.939130e+01
391.091400	5.878083	break	0	0	0.000000	1.192825	0	0	0	0	ThoughtProbe	0.316741	1.125026	0	28	28
394.716827	1.372724	city	5	1	1.098174	1.098174	0	1	0	0	CorrectCommission	0.755412	1.085338	0	0	2.950000e+01
396.063019	1.319700	mountain	8	0	0.000000	1.332542	1	0	0	0	CorrectOmission	0.330788	1.038547	0	0	31
397.376007	1.306247	city	9	1	1.533918	1.533918	0	1	0	0	CorrectCommission	1.264088	0.986988	0	0	3.250000e+01
398.688904	1.319554	city	4	1	1.340293	1.340293	0	1	0	0	CorrectCommission	0.366713	0.932646	0	0	34
400.008453	1.319567	city	9	1	1.513604	1.513604	0	1	0	0	CorrectCommission	1.169940	0.877121	0	0	3.550000e+01
401.321259	1.306050	city	6	1	1.579442	1.579442	0	1	0	0	CorrectCommission	1.475072	0.821696	0	0	37
402.620819	1.293064	city	7	1	1.512488	1.512488	0	1	0	0	CorrectCommission	1.164768	0.767468	1	0	3.850000e+01
403.960480	1.386225	city	10	1	1.191742	1.191742	0	1	0	0	CorrectCommission	0.321761	0.715530	1	0	40
405.319977	1.332784	city	6	1	1.131878	1.131878	0	1	0	0	CorrectCommission	0.599211	0.667181	1	0	4.150000e+01
406.632874	1.293010	city	9	1	1.408039	1.408039	0	1	0	0	CorrectCommission	0.680690	0.623928	1	0	43
407.959167	1.359572	city	10	1	1.141235	1.141235	0	1	0	0	CorrectCommission	0.555843	0.587500	1	0	4.450000e+01
409.285309	1.292735	mountain	10	0	0.000000	1.195304	1	0	0	0	CorrectOmission	0.305253	0.559728	1	0	46
410.571564	1.279737	city	2	1	1.302629	1.302629	0	1	0	0	CorrectCommission	0.192156	0.542345	1	0	4.750000e+01
411.884460	1.346061	city	8	1	1.195592	1.195592	0	1	0	0	CorrectCommission	0.303920	0.536757	1	0	49
413.224030	1.333082	city	1	1	1.322065	1.322065	0	1	0	0	CorrectCommission	0.282234	0.543781	1	0	5.050000e+01
414.550262	1.319382	city	6	1	1.274133	1.274133	0	1	0	0	CorrectCommission	0.060088	0.563501	1	0	52
415.869720	1.319574	city	10	1	1.221274	1.221274	0	1	0	0	CorrectCommission	0.184895	0.595121	1	0	5.350000e+01
417.176056	1.293072	city	1	1	1.211562	1.211562	0	1	0	0	CorrectCommission	0.229906	0.636932	1	0	55
418.489044	1.332907	city	4	1	1.602254	1.602254	0	1	0	0	CorrectCommission	1.580796	0.686443	1	0	5.650000e+01
419.828522	1.346042	city	10	1	1.238008	1.238008	0	1	0	0	CorrectCommission	0.107338	0.740466	1	0	58
421.148041	1.292989	mountain	1	0	0.000000	1.035443	1	0	0	0	CorrectOmission	1.046147	0.795505	1	0	5.950000e+01
422.447601	1.306151	city	9	1	1.002471	1.002471	0	1	0	0	CorrectCommission	1.198958	0.847982	0	0	61
423.780457	1.359569	city	6	1	1.147006	1.147006	0	1	0	0	CorrectCommission	0.529097	0.894630	0	0	6.250000e+01
425.146667	1.372859	city	5	1	1.260076	1.260076	0	1	0	0	CorrectCommission	0.005061	0.932853	0	0	64
426.472931	1.279644	city	3	1	1.831262	1.831262	0	1	0	0	CorrectCommission	2.642162	0.960982	0	0	6.550000e+01
427.792511	1.359520	city	1	1	1.709611	1.709611	0	1	0	0	CorrectCommission	2.078356	0.978503	0	0	67
429.145416	1.346293	city	10	1	1.453430	1.453430	0	1	0	0	CorrectCommission	0.891058	0.986223	0	0	6.850000e+01
430.485046	1.332988	city	1	1	1.575933	1.575933	0	1	0	0	CorrectCommission	1.458809	0.986136	0	0	70
431.817993	1.332880	city	2	1	1.495863	1.495863	0	1	0	0	CorrectCommission	1.087719	0.981116	0	0	7.150000e+01
433.137451	1.306063	city	6	1	1.391333	1.391333	0	1	0	0	CorrectCommission	0.603262	0.974575	0	0	73
434.456940	1.332907	city	9	1	1.144615	1.144615	0	1	0	0	CorrectCommission	0.540178	0.969892	0	0	7.450000e+01
435.789856	1.332882	city	5	1	1.211905	1.211905	0	1	0	0	CorrectCommission	0.228314	0.969884	0	0	76
437.102814	1.293071	city	9	1	1.511417	1.511417	0	1	0	0	CorrectCommission	1.159805	0.976383	0	0	7.750000e+01
438.409149	1.319588	city	10	1	1.291284	1.291284	0	1	0	0	CorrectCommission	0.139577	0.989889	0	0	79
439.721954	1.306047	city	9	1	1.169560	1.169560	0	1	0	0	CorrectCommission	0.424567	1.009535	0	0	8.050000e+01
441.048126	1.346254	city	6	1	0.975774	0.975774	0	1	0	0	CorrectCommission	1.322690	1.033157	0	0	82
442.374390	1.306282	city	1	1	1.452899	1.452899	0	1	0	0	CorrectCommission	0.888595	1.057614	0	0	8.350000e+01
443.694031	1.333006	city	9	1	1.786767	1.786767	0	1	0	0	CorrectCommission	2.435946	1.079284	0	0	85
445.020264	1.319453	city	8	1	1.047315	1.047315	0	1	0	0	CorrectCommission	0.991126	1.094506	0	0	8.650000e+01
448.745667	6.131378	break	0	0	0.000000	1.200259	0	0	0	0	ThoughtProbe	0.282292	1.100181	0	88	88
452.484436	1.346155	city	6	1	1.654373	1.654373	0	1	0	0	CorrectCommission	1.822352	1.094079	0	0	8.771739e+01
453.837341	1.359664	mountain	8	0	0.000000	1.818435	1	0	0	0	CorrectOmission	2.582711	1.075164	0	0	8.743478e+01
455.170319	1.306260	city	6	1	1.696319	1.696319	0	1	0	0	CorrectCommission	2.016753	1.043655	0	0	8.715217e+01
456.503174	1.359473	city	1	1	1.291903	1.291903	0	1	0	0	CorrectCommission	0.142445	1.000991	0	0	8.686957e+01
457.835999	1.306146	city	5	1	1.402741	1.402741	0	1	0	0	CorrectCommission	0.656136	0.949608	0	0	8.658696e+01
459.148926	1.319721	city	3	1	1.459946	1.459946	0	1	0	0	CorrectCommission	0.921256	0.892566	0	0	8.630435e+01
460.488464	1.359375	city	6	1	1.443608	1.443608	0	1	0	0	CorrectCommission	0.845535	0.833178	0	0	8.602174e+01
461.841278	1.346219	city	2	1	1.318115	1.318115	0	1	0	0	CorrectCommission	0.263926	0.774700	1	0	8.573913e+01
463.167603	1.306427	city	8	1	1.051329	1.051329	0	1	0	0	CorrectCommission	0.972521	0.720060	1	0	8.545652e+01
464.480499	1.319394	city	2	1	1.201598	1.201598	0	1	0	0	CorrectCommission	0.276083	0.671589	1	0	8.517391e+01
465.793396	1.306404	city	5	1	1.316495	1.316495	0	1	0	0	CorrectCommission	0.256419	0.630980	1	0	8.489130e+01
467.119629	1.346041	city	8	1	1.058921	1.058921	0	1	0	0	CorrectCommission	0.937337	0.599234	1	0	8.460870e+01
468.452515	1.319758	mountain	2	0	0.000000	1.101278	1	0	0	0	CorrectOmission	0.741029	0.576638	1	0	8.432609e+01
469.752106	1.279438	city	3	1	1.234061	1.234061	0	1	0	0	CorrectCommission	0.125632	0.562907	1	0	8.404348e+01
471.038269	1.292870	mountain	5	0	0.000000	1.247764	1	0	0	0	CorrectOmission	0.062122	0.557243	1	0	8.376087e+01
472.351135	1.332880	city	8	1	1.207298	1.207298	0	1	0	0	CorrectCommission	0.249669	0.558475	1	0	8.347826e+01
473.690796	1.346412	city	7	1	1.177570	1.177570	0	1	0	0	CorrectCommission	0.387444	0.565209	1	0	8.319565e+01
475.030426	1.332840	city	8	1	1.093421	1.093421	0	1	0	0	CorrectCommission	0.777444	0.575968	1	0	8.291304e+01
476.356659	1.319608	city	4	1	1.097310	1.097310	0	1	0	0	CorrectCommission	0.759417	0.589375	1	0	8.263043e+01
477.696228	1.359559	city	1	1	1.173702	1.173702	0	1	0	0	CorrectCommission	0.405373	0.604237	1	0	8.234783e+01
479.062439	1.372863	city	8	1	0.822801	0.822801	0	1	0	0	CorrectCommission	2.031661	0.619655	1	0	8.206522e+01
480.428650	1.359550	city	9	1	1.377947	1.377947	0	1	0	0	CorrectCommission	0.541224	0.634965	1	0	8.178261e+01
481.781464	1.346084	city	1	1	1.294460	1.294460	0	1	0	0	CorrectCommission	0.154295	0.649737	1	0	8.150000e+01
483.127533	1.346081	city	7	1	1.269657	1.269657	0	1	0	0	CorrectCommission	0.039343	0.663578	1	0	8.121739e+01
484.500427	1.399678	city	2	1	1.169170	1.169170	0	1	0	0	CorrectCommission	0.426375	0.676058	1	0	8.093478e+01
485.866791	1.333067	city	1	1	1.083444	1.083444	0	1	0	0	CorrectCommission	0.823683	0.686646	1	0	8.065217e+01
487.186401	1.306137	city	2	1	1.394505	1.394505	0	1	0	0	CorrectCommission	0.617965	0.694685	1	0	8.036957e+01
488.505951	1.332987	city	5	1	1.450321	1.450321	0	1	0	0	CorrectCommission	0.876651	0.699476	1	0	8.008696e+01
489.852234	1.359557	mountain	3	0	0.000000	1.456880	1	0	0	0	CorrectOmission	0.907047	0.700376	1	0	7.980435e+01
491.171814	1.279575	city	3	1	1.505432	1.505432	0	1	0	0	CorrectCommission	1.132067	0.696946	1	0	7.952174e+01
492.471375	1.319552	city	4	1	1.687229	1.687229	0	1	0	0	CorrectCommission	1.974624	0.688996	1	0	7.923913e+01
493.804199	1.346115	city	5	1	1.269690	1.269690	0	1	0	0	CorrectCommission	0.039496	0.676631	1	0	7.895652e+01
495.143677	1.332866	city	3	1	1.299390	1.299390	0	1	0	0	CorrectCommission	0.177143	0.660251	1	0	7.867391e+01
496.516632	1.413046	city	2	1	1.342725	1.342725	0	1	0	0	CorrectCommission	0.377984	0.640343	1	0	7.839130e+01
497.882843	1.319359	city	3	1	1.327513	1.327513	0	1	0	0	CorrectCommission	0.307481	0.617398	1	0	7.810870e+01
499.182404	1.279765	city	2	1	1.488825	1.488825	0	1	0	0	CorrectCommission	1.055098	0.591821	1	0	7.782609e+01
500.528625	1.412699	city	6	1	1.422465	1.422465	0	1	0	0	CorrectCommission	0.747545	0.563819	1	0	7.754348e+01
501.901520	1.333064	city	4	1	1.423162	1.423162	0	1	0	0	CorrectCommission	0.750779	0.533437	1	0	7.726087e+01
503.234497	1.332875	city	5	1	1.339032	1.339032	0	1	0	0	CorrectCommission	0.360868	0.500553	1	0	7.697826e+01
504.587402	1.372920	city	9	1	1.307373	1.307373	0	1	0	0	CorrectCommission	0.214142	0.464980	1	0	7.669565e+01
505.993591	1.439507	city	10	1	1.342084	1.342084	0	1	0	0	CorrectCommission	0.375014	0.426552	1	0	7.641304e+01
507.359711	1.292723	city	6	1	1.457394	1.457394	0	1	0	0	CorrectCommission	0.909431	0.385205	1	0	7.613043e+01
508.665863	1.319589	city	1	1	1.350904	1.350904	0	1	0	0	CorrectCommission	0.415888	0.341056	1	0	7.584783e+01
509.998779	1.346200	city	9	1	1.355728	1.355728	0	1	0	0	CorrectCommission	0.438249	0.294506	1	0	7.556522e+01
511.331665	1.319570	city	10	1	1.287203	1.287203	0	1	0	0	CorrectCommission	0.120660	0.246184	1	0	7.528261e+01
514.777283	5.571686	break	0	0	0.000000	1.218677	0	0	0	0	ThoughtProbe	0.196929	0.196929	1	75	75
