onset	duration	trial_type	image_type	Press	ReactionTime	ReactionTime_Interpolated	CorrectOmission	CorrectCommission	CommissionError	OmissionError	response_type	nonsmoothVarianceTimeCourse	VarianceTimeCourse	In_the_Zone	ThoughtProbe	ThoughtProbe_Interpolated
0.659652	1.292918	city	2	1	1.057296	1.057296	0	1	0	0	CorrectCommission	0.738200	0.738200	0	0	83
1.945888	1.279553	city	8	1	1.154117	1.154117	0	1	0	0	CorrectCommission	0.147516	0.688277	1	0	83
3.225327	1.279326	city	7	1	1.181332	1.181332	0	1	0	0	CorrectCommission	0.018516	0.640118	1	0	83
4.504903	1.279826	city	3	1	1.092170	1.092170	0	1	0	0	CorrectCommission	0.525438	0.595295	1	0	83
5.784652	1.279673	city	4	1	1.261125	1.261125	0	1	0	0	CorrectCommission	0.505315	0.555065	1	0	83
7.064244	1.279511	mountain	2	0	0.000000	1.297223	1	0	0	0	CorrectOmission	0.725540	0.520275	1	0	83
8.343778	1.279557	city	6	1	1.265612	1.265612	0	1	0	0	CorrectCommission	0.532691	0.491335	1	0	83
9.623278	1.279442	city	7	1	1.231440	1.231440	0	1	0	0	CorrectCommission	0.324218	0.468243	1	0	83
10.902858	1.279718	city	8	1	1.177754	1.177754	0	1	0	0	CorrectCommission	0.003309	0.450669	1	0	83
12.182515	1.279597	city	7	1	1.145085	1.145085	0	1	0	0	CorrectCommission	0.202618	0.438053	1	0	83
13.462027	1.279427	city	2	1	1.074055	1.074055	0	1	0	0	CorrectCommission	0.635955	0.429742	1	0	83
14.741611	1.279741	mountain	7	1	1.177275	1.177275	0	0	1	0	CommissionError	0.006232	0.425056	1	0	83
16.021179	1.279398	city	6	1	1.391574	1.391574	0	1	0	0	CorrectCommission	1.301156	0.423460	1	0	83
17.300743	1.279726	city	5	1	1.235777	1.235777	0	1	0	0	CorrectCommission	0.350674	0.424544	1	0	83
18.580328	1.279445	city	3	1	1.281682	1.281682	0	1	0	0	CorrectCommission	0.630728	0.428109	1	0	83
19.859921	1.279739	city	9	1	1.178395	1.178395	0	1	0	0	CorrectCommission	0.000601	0.434092	1	0	83
21.139578	1.279577	city	3	1	1.140844	1.140844	0	1	0	0	CorrectCommission	0.228494	0.442538	1	0	83
22.419146	1.279560	city	8	1	1.143288	1.143288	0	1	0	0	CorrectCommission	0.213581	0.453461	1	0	83
23.698727	1.279602	city	6	1	1.230487	1.230487	0	1	0	0	CorrectCommission	0.318403	0.466825	1	0	83
24.984972	1.292890	city	3	1	1.247765	1.247765	0	1	0	0	CorrectCommission	0.423808	0.482484	1	0	83
26.277866	1.292898	city	7	1	1.049973	1.049973	0	1	0	0	CorrectCommission	0.782873	0.500160	1	0	83
27.564119	1.279608	city	8	1	1.035766	1.035766	0	1	0	0	CorrectCommission	0.869550	0.519453	1	0	83
28.850372	1.292896	city	6	1	1.136918	1.136918	0	1	0	0	CorrectCommission	0.252444	0.539885	1	0	83
30.136604	1.279566	city	1	1	1.025378	1.025378	0	1	0	0	CorrectCommission	0.932925	0.560937	1	0	83
31.416189	1.279606	city	3	1	1.127793	1.127793	0	1	0	0	CorrectCommission	0.308114	0.582029	1	0	83
32.695713	1.279440	city	1	1	1.125238	1.125238	0	1	0	0	CorrectCommission	0.323703	0.602565	1	0	83
33.975281	1.279694	mountain	2	0	0.000000	1.091243	1	0	0	0	CorrectOmission	0.531098	0.621945	1	0	83
35.254871	1.279488	city	10	1	1.130148	1.130148	0	1	0	0	CorrectCommission	0.293744	0.639638	1	0	83
36.534435	1.279643	city	8	1	1.346294	1.346294	0	1	0	0	CorrectCommission	1.024914	0.655277	1	0	83
37.820736	1.292957	city	7	1	1.414565	1.414565	0	1	0	0	CorrectCommission	1.441419	0.668692	1	0	83
39.106918	1.279406	city	3	1	1.293500	1.293500	0	1	0	0	CorrectCommission	0.702827	0.679983	1	0	83
40.386490	1.279743	city	7	1	1.295144	1.295144	0	1	0	0	CorrectCommission	0.712861	0.689523	1	0	83
41.666100	1.279474	city	8	1	1.047987	1.047987	0	1	0	0	CorrectCommission	0.794994	0.697866	1	0	83
42.945686	1.279697	city	7	1	1.199451	1.199451	0	1	0	0	CorrectCommission	0.129058	0.705672	1	0	83
44.231991	1.292912	city	10	1	1.080865	1.080865	0	1	0	0	CorrectCommission	0.594411	0.713513	0	0	83
45.518181	1.279471	city	7	1	1.394941	1.394941	0	1	0	0	CorrectCommission	1.321695	0.721727	0	0	83
46.797745	1.279657	city	6	1	1.177838	1.177838	0	1	0	0	CorrectCommission	0.002800	0.730294	0	0	83
48.077377	1.279602	city	7	1	1.032296	1.032296	0	1	0	0	CorrectCommission	0.890718	0.738834	0	0	83
49.356968	1.279581	city	6	1	1.023234	1.023234	0	1	0	0	CorrectCommission	0.946006	0.746546	0	0	83
53.642212	7.290912	break	0	0	0.000000	1.088929	0	0	0	0	ThoughtProbe	0.545216	0.752375	0	83	83
57.927448	1.279557	city	7	1	1.138484	1.138484	0	1	0	0	CorrectCommission	0.242887	0.755188	0	0	8.285294e+01
59.207027	1.279606	city	4	1	1.081005	1.081005	0	1	0	0	CorrectCommission	0.593557	0.754011	0	0	8.270588e+01
60.486629	1.279595	city	3	1	0.934321	0.934321	0	1	0	0	CorrectCommission	1.488442	0.748252	0	0	8.255882e+01
61.766167	1.279483	city	4	1	0.822091	0.822091	0	1	0	0	CorrectCommission	2.173133	0.737894	0	0	8.241176e+01
63.045734	1.279649	city	1	1	0.979936	0.979936	0	1	0	0	CorrectCommission	1.210155	0.723567	0	0	8.226471e+01
64.325348	1.279582	city	10	1	1.201118	1.201118	0	1	0	0	CorrectCommission	0.139227	0.706509	1	0	8.211765e+01
65.604942	1.279600	city	9	1	1.177642	1.177642	0	1	0	0	CorrectCommission	0.003995	0.688399	1	0	8.197059e+01
66.884521	1.279554	city	6	1	1.085099	1.085099	0	1	0	0	CorrectCommission	0.568582	0.671039	1	0	8.182353e+01
68.164085	1.279586	mountain	8	0	0.000000	1.087391	1	0	0	0	CorrectOmission	0.554594	0.656097	1	0	8.167647e+01
69.443672	1.279579	city	8	1	1.135032	1.135032	0	1	0	0	CorrectCommission	0.263952	0.644870	1	0	8.152941e+01
70.723167	1.279411	city	1	1	1.178530	1.178530	0	1	0	0	CorrectCommission	0.001423	0.638102	1	0	8.138235e+01
72.002754	1.279765	city	3	1	1.082788	1.082788	0	1	0	0	CorrectCommission	0.582681	0.635943	1	0	8.123529e+01
73.289009	1.292744	city	4	1	0.940502	0.940502	0	1	0	0	CorrectCommission	1.450734	0.638011	1	0	8.108824e+01
74.575241	1.279721	city	6	1	1.027535	1.027535	0	1	0	0	CorrectCommission	0.919764	0.643538	1	0	8.094118e+01
75.854897	1.279597	city	4	1	1.136194	1.136194	0	1	0	0	CorrectCommission	0.256862	0.651544	1	0	8.079412e+01
77.134407	1.279416	city	10	1	1.086006	1.086006	0	1	0	0	CorrectCommission	0.563047	0.661002	1	0	8.064706e+01
78.413895	1.279560	city	9	1	1.092127	1.092127	0	1	0	0	CorrectCommission	0.525703	0.670951	1	0	8.050000e+01
79.693558	1.279771	city	5	1	0.973815	0.973815	0	1	0	0	CorrectCommission	1.247498	0.680607	1	0	8.035294e+01
80.986473	1.306062	city	6	1	1.316241	1.316241	0	1	0	0	CorrectCommission	0.841570	0.689418	1	0	8.020588e+01
82.286041	1.293074	city	8	1	1.203981	1.203981	0	1	0	0	CorrectCommission	0.156693	0.697085	1	0	8.005882e+01
83.572365	1.279561	city	6	1	1.137168	1.137168	0	1	0	0	CorrectCommission	0.250917	0.703544	1	0	7.991176e+01
84.851875	1.279465	city	8	1	1.090653	1.090653	0	1	0	0	CorrectCommission	0.534698	0.708941	1	0	7.976471e+01
86.131462	1.279717	city	2	1	0.872408	0.872408	0	1	0	0	CorrectCommission	1.866161	0.713593	0	0	7.961765e+01
87.411102	1.279560	city	8	1	1.004268	1.004268	0	1	0	0	CorrectCommission	1.061712	0.717913	0	0	7.947059e+01
88.690506	1.279240	mountain	3	0	0.000000	1.224455	1	0	0	0	CorrectOmission	0.281598	0.722364	0	0	7.932353e+01
89.970085	1.279924	city	9	1	1.348074	1.348074	0	1	0	0	CorrectCommission	1.035775	0.727309	0	0	7.917647e+01
91.249832	1.279566	city	3	1	1.190234	1.190234	0	1	0	0	CorrectCommission	0.072825	0.732866	0	0	7.902941e+01
92.529350	1.279478	city	2	1	1.296613	1.296613	0	1	0	0	CorrectCommission	0.721823	0.738857	0	0	7.888235e+01
93.808945	1.279703	city	10	1	1.090261	1.090261	0	1	0	0	CorrectCommission	0.537089	0.744659	0	0	7.873529e+01
95.095230	1.292865	city	2	1	1.148048	1.148048	0	1	0	0	CorrectCommission	0.184540	0.749291	0	0	7.858824e+01
96.381462	1.279605	city	6	1	1.087183	1.087183	0	1	0	0	CorrectCommission	0.555864	0.751515	0	0	7.844118e+01
97.674309	1.306088	city	8	1	0.990504	0.990504	0	1	0	0	CorrectCommission	1.145685	0.750018	0	0	7.829412e+01
98.973808	1.292907	city	4	1	1.524261	1.524261	0	1	0	0	CorrectCommission	2.110648	0.743671	0	0	7.814706e+01
103.419083	7.597651	break	0	0	0.000000	1.410284	0	0	0	0	ThoughtProbe	1.415305	0.731738	0	78	78
107.857697	1.279579	city	8	1	1.146305	1.146305	0	1	0	0	CorrectCommission	0.195173	0.714061	0	0	7.836957e+01
109.157280	1.319584	city	5	1	1.230053	1.230053	0	1	0	0	CorrectCommission	0.315753	0.691151	1	0	7.873913e+01
110.456825	1.279502	city	4	1	1.292873	1.292873	0	1	0	0	CorrectCommission	0.699002	0.664125	1	0	7.910870e+01
111.736328	1.279502	city	9	1	1.076501	1.076501	0	1	0	0	CorrectCommission	0.621033	0.634562	1	0	7.947826e+01
113.022614	1.293065	city	5	1	1.033563	1.033563	0	1	0	0	CorrectCommission	0.882992	0.604390	1	0	7.984783e+01
114.315590	1.292900	city	6	1	1.088115	1.088115	0	1	0	0	CorrectCommission	0.550182	0.575610	1	0	8.021739e+01
115.601753	1.279414	city	9	1	1.088817	1.088817	0	1	0	0	CorrectCommission	0.545898	0.550132	1	0	8.058696e+01
116.881248	1.279575	mountain	9	0	0.000000	1.153307	1	0	0	0	CorrectOmission	0.152457	0.529571	1	0	8.095652e+01
118.160904	1.279738	city	4	1	1.200855	1.200855	0	1	0	0	CorrectCommission	0.137622	0.515116	1	0	8.132609e+01
119.460548	1.319555	city	2	1	1.150730	1.150730	0	1	0	0	CorrectCommission	0.168179	0.507426	1	0	8.169565e+01
120.760040	1.279434	city	4	1	1.250010	1.250010	0	1	0	0	CorrectCommission	0.437505	0.506590	1	0	8.206522e+01
122.046211	1.292902	mountain	5	0	0.000000	1.301461	1	0	0	0	CorrectOmission	0.751395	0.512180	1	0	8.243478e+01
123.332542	1.279754	city	7	1	1.284418	1.284418	0	1	0	0	CorrectCommission	0.647423	0.523330	1	0	8.280435e+01
124.612190	1.279541	city	6	1	1.178218	1.178218	0	1	0	0	CorrectCommission	0.000479	0.538831	1	0	8.317391e+01
125.891762	1.279614	city	5	1	1.076441	1.076441	0	1	0	0	CorrectCommission	0.621400	0.557279	1	0	8.354348e+01
127.184608	1.306069	city	8	1	1.046554	1.046554	0	1	0	0	CorrectCommission	0.803736	0.577131	1	0	8.391304e+01
128.477509	1.279723	city	1	1	1.084179	1.084179	0	1	0	0	CorrectCommission	0.574194	0.596882	1	0	8.428261e+01
129.757080	1.279431	city	4	1	1.298734	1.298734	0	1	0	0	CorrectCommission	0.734757	0.615190	1	0	8.465217e+01
131.036667	1.279748	mountain	5	0	0.000000	1.310788	1	0	0	0	CorrectOmission	0.808302	0.630929	1	0	8.502174e+01
132.316299	1.279502	city	3	1	1.196551	1.196551	0	1	0	0	CorrectCommission	0.111362	0.643299	1	0	8.539130e+01
133.595871	1.279662	city	9	1	1.032227	1.032227	0	1	0	0	CorrectCommission	0.891139	0.651891	1	0	8.576087e+01
134.882172	1.292914	city	5	1	0.930989	0.930989	0	1	0	0	CorrectCommission	1.508770	0.656690	1	0	8.613043e+01
136.175079	1.292900	city	8	1	1.204179	1.204179	0	1	0	0	CorrectCommission	0.157900	0.658108	1	0	8.650000e+01
137.467911	1.292777	city	7	1	1.348770	1.348770	0	1	0	0	CorrectCommission	1.040018	0.656923	1	0	8.686957e+01
138.780807	1.333006	city	2	1	1.305641	1.305641	0	1	0	0	CorrectCommission	0.776901	0.654090	1	0	8.723913e+01
140.093765	1.292904	city	5	1	1.082766	1.082766	0	1	0	0	CorrectCommission	0.582815	0.650647	1	0	8.760870e+01
141.386658	1.292910	city	2	1	1.253698	1.253698	0	1	0	0	CorrectCommission	0.460009	0.647523	1	0	8.797826e+01
142.672913	1.279577	city	8	1	1.089592	1.089592	0	1	0	0	CorrectCommission	0.541168	0.645397	1	0	8.834783e+01
143.952499	1.279603	city	9	1	1.254200	1.254200	0	1	0	0	CorrectCommission	0.463071	0.644582	1	0	8.871739e+01
145.232086	1.279574	mountain	10	0	0.000000	1.196876	1	0	0	0	CorrectOmission	0.113348	0.645018	1	0	8.908696e+01
146.511658	1.279558	city	7	1	1.138766	1.138766	0	1	0	0	CorrectCommission	0.241166	0.646336	1	0	8.945652e+01
147.791229	1.279596	city	1	1	1.301019	1.301019	0	1	0	0	CorrectCommission	0.748700	0.648005	1	0	8.982609e+01
149.070816	1.279572	city	2	1	1.417639	1.417639	0	1	0	0	CorrectCommission	1.460171	0.649523	1	0	9.019565e+01
150.350388	1.279574	city	5	1	1.412953	1.412953	0	1	0	0	CorrectCommission	1.431587	0.650594	1	0	9.056522e+01
151.629974	1.279600	city	4	1	1.284884	1.284884	0	1	0	0	CorrectCommission	0.650264	0.651286	1	0	9.093478e+01
152.922806	1.306048	city	10	1	1.140462	1.140462	0	1	0	0	CorrectCommission	0.230824	0.652067	1	0	9.130435e+01
154.215622	1.279607	city	7	1	1.352530	1.352530	0	1	0	0	CorrectCommission	1.062958	0.653714	1	0	9.167391e+01
155.501953	1.293060	city	9	1	1.138945	1.138945	0	1	0	0	CorrectCommission	0.240074	0.657166	1	0	9.204348e+01
156.794952	1.292913	city	3	1	1.206093	1.206093	0	1	0	0	CorrectCommission	0.169577	0.663415	1	0	9.241304e+01
158.081192	1.279569	city	9	1	1.145313	1.145313	0	1	0	0	CorrectCommission	0.201229	0.673219	1	0	9.278261e+01
159.380676	1.319402	city	10	1	1.141617	1.141617	0	1	0	0	CorrectCommission	0.223776	0.687066	1	0	9.315217e+01
160.680237	1.279733	city	8	1	1.358954	1.358954	0	1	0	0	CorrectCommission	1.102147	0.705146	1	0	9.352174e+01
161.959900	1.279584	city	5	1	1.354640	1.354640	0	1	0	0	CorrectCommission	1.075829	0.727347	0	0	9.389130e+01
163.239487	1.279598	city	3	1	1.409667	1.409667	0	1	0	0	CorrectCommission	1.411539	0.753346	0	0	9.426087e+01
164.519073	1.279558	city	4	1	1.245028	1.245028	0	1	0	0	CorrectCommission	0.407110	0.782680	0	0	9.463043e+01
169.084229	7.850752	break	0	0	0.000000	1.088533	0	0	0	0	ThoughtProbe	0.547630	0.814780	0	95	95
173.669312	1.319430	city	2	1	1.067226	1.067226	0	1	0	0	CorrectCommission	0.677617	0.848926	0	0	9.428261e+01
174.968811	1.279569	city	4	1	1.308151	1.308151	0	1	0	0	CorrectCommission	0.792213	0.884221	0	0	9.356522e+01
176.255096	1.292987	city	8	1	1.044423	1.044423	0	1	0	0	CorrectCommission	0.816735	0.919526	0	0	9.284783e+01
177.541351	1.279534	city	5	1	1.046768	1.046768	0	1	0	0	CorrectCommission	0.802425	0.953429	0	0	9.213043e+01
178.834213	1.306182	city	4	1	1.000304	1.000304	0	1	0	0	CorrectCommission	1.085896	0.984267	0	0	9.141304e+01
180.173813	1.373016	city	8	1	0.908973	0.908973	0	1	0	0	CorrectCommission	1.643085	1.010211	0	0	9.069565e+01
181.500122	1.279609	city	6	1	0.996125	0.996125	0	1	0	0	CorrectCommission	1.111390	1.029425	0	0	8.997826e+01
182.786377	1.292906	city	7	1	1.036097	1.036097	0	1	0	0	CorrectCommission	0.867530	1.040294	0	0	8.926087e+01
184.079269	1.292870	city	10	1	1.089606	1.089606	0	1	0	0	CorrectCommission	0.541085	1.041630	0	0	8.854348e+01
185.372177	1.292951	city	3	1	1.024721	1.024721	0	1	0	0	CorrectCommission	0.936930	1.032936	0	0	8.782609e+01
186.665115	1.292930	city	4	1	0.827512	0.827512	0	1	0	0	CorrectCommission	2.140062	1.014574	0	0	8.710870e+01
187.958023	1.292883	city	9	1	0.611972	0.611972	0	1	0	0	CorrectCommission	3.455024	0.987800	0	0	8.639130e+01
189.244217	1.279509	city	10	1	1.199905	1.199905	0	1	0	0	CorrectCommission	0.131824	0.954697	0	0	8.567391e+01
190.530457	1.292957	city	7	1	1.221377	1.221377	0	1	0	0	CorrectCommission	0.262823	0.918044	0	0	8.495652e+01
191.836639	1.319422	city	1	1	1.093423	1.093423	0	1	0	0	CorrectCommission	0.517799	0.880808	0	0	8.423913e+01
193.136154	1.279603	mountain	3	1	1.076692	1.076692	0	0	1	0	CommissionError	0.619871	0.845814	0	0	8.352174e+01
194.415741	1.279583	city	9	1	1.132317	1.132317	0	1	0	0	CorrectCommission	0.280512	0.815348	0	0	8.280435e+01
195.695328	1.279568	city	7	1	1.178453	1.178453	0	1	0	0	CorrectCommission	0.000955	0.790912	0	0	8.208696e+01
196.974976	1.279730	mountain	5	0	0.000000	1.267900	1	0	0	0	CorrectOmission	0.546652	0.773109	0	0	8.136957e+01
198.254639	1.279595	mountain	4	0	0.000000	1.357303	1	0	0	0	CorrectOmission	1.092080	0.761689	0	0	8.065217e+01
199.534210	1.279556	city	1	1	1.403308	1.403308	0	1	0	0	CorrectCommission	1.372743	0.755821	0	0	7.993478e+01
200.820374	1.292771	mountain	4	0	0.000000	1.362559	1	0	0	0	CorrectOmission	1.124142	0.754377	0	0	7.921739e+01
202.106491	1.279452	city	6	1	1.255906	1.255906	0	1	0	0	CorrectCommission	0.473475	0.756266	0	0	7.850000e+01
203.392807	1.293201	city	5	1	1.104198	1.104198	0	1	0	0	CorrectCommission	0.452062	0.760702	0	0	7.778261e+01
204.685776	1.292739	city	9	1	1.109318	1.109318	0	1	0	0	CorrectCommission	0.420824	0.767348	0	0	7.706522e+01
205.985352	1.306405	city	10	1	0.984038	0.984038	0	1	0	0	CorrectCommission	1.185128	0.776373	0	0	7.634783e+01
207.278351	1.279576	city	9	1	1.350023	1.350023	0	1	0	0	CorrectCommission	1.047662	0.788342	0	0	7.563043e+01
208.557785	1.279303	city	1	1	1.295159	1.295159	0	1	0	0	CorrectCommission	0.712947	0.804042	0	0	7.491304e+01
209.844009	1.293156	city	5	1	1.036197	1.036197	0	1	0	0	CorrectCommission	0.866917	0.824204	0	0	7.419565e+01
211.130386	1.279583	city	9	1	0.969636	0.969636	0	1	0	0	CorrectCommission	1.272997	0.849172	0	0	7.347826e+01
212.409973	1.279600	city	3	1	1.178083	1.178083	0	1	0	0	CorrectCommission	0.001302	0.878634	0	0	7.276087e+01
213.689529	1.279518	city	10	1	1.231726	1.231726	0	1	0	0	CorrectCommission	0.325959	0.911534	0	0	7.204348e+01
214.975769	1.292951	city	5	1	1.194995	1.194995	0	1	0	0	CorrectCommission	0.101872	0.946044	0	0	7.132609e+01
216.275375	1.306257	city	9	1	1.076436	1.076436	0	1	0	0	CorrectCommission	0.621430	0.979816	0	0	7.060870e+01
217.574951	1.292892	city	2	1	0.929453	0.929453	0	1	0	0	CorrectCommission	1.518141	1.010449	0	0	6.989130e+01
218.861115	1.279437	city	8	1	0.967389	0.967389	0	1	0	0	CorrectCommission	1.286700	1.035903	0	0	6.917391e+01
220.160599	1.319545	city	5	1	0.757757	0.757757	0	1	0	0	CorrectCommission	2.565622	1.055074	0	0	6.845652e+01
221.460175	1.279597	city	4	1	0.804581	0.804581	0	1	0	0	CorrectCommission	2.279956	1.068080	0	0	6.773913e+01
222.746460	1.292984	city	3	1	0.941169	0.941169	0	1	0	0	CorrectCommission	1.446664	1.076404	0	0	6.702174e+01
224.039444	1.292990	city	7	1	0.969724	0.969724	0	1	0	0	CorrectCommission	1.272459	1.082675	0	0	6.630435e+01
225.359039	1.346204	city	4	1	1.101206	1.101206	0	1	0	0	CorrectCommission	0.470316	1.090117	0	0	6.558696e+01
226.685272	1.306245	city	10	1	1.214591	1.214591	0	1	0	0	CorrectCommission	0.221424	1.101903	0	0	6.486957e+01
227.998169	1.319557	city	4	1	1.182221	1.182221	0	1	0	0	CorrectCommission	0.023939	1.120463	0	0	6.415217e+01
229.297745	1.279583	city	2	1	1.187970	1.187970	0	1	0	0	CorrectCommission	0.059016	1.146962	0	0	6.343478e+01
230.603912	1.332759	city	5	1	1.234552	1.234552	0	1	0	0	CorrectCommission	0.343201	1.180972	0	0	6.271739e+01
231.270294	8.637293	break	0	0	0.000000	1.366334	0	0	0	0	ThoughtProbe	1.147170	1.220543	0	62	62
240.554047	1.292931	mountain	4	0	0.000000	1.518485	1	0	0	0	CorrectOmission	2.075412	1.262528	0	0	6.235000e+01
241.840317	1.279594	city	8	1	1.626176	1.626176	0	1	0	0	CorrectCommission	2.732414	1.303116	0	0	6.270000e+01
243.119888	1.279562	city	9	1	1.624579	1.624579	0	1	0	0	CorrectCommission	2.722666	1.338445	0	0	6.305000e+01
244.406113	1.292893	city	3	1	1.319355	1.319355	0	1	0	0	CorrectCommission	0.860562	1.365156	0	0	6.340000e+01
245.699020	1.292899	city	5	1	1.080355	1.080355	0	1	0	0	CorrectCommission	0.597519	1.380803	0	0	6.375000e+01
246.985199	1.279462	city	4	1	0.918572	0.918572	0	1	0	0	CorrectCommission	1.584524	1.383927	0	0	6.410000e+01
248.278122	1.306379	city	7	1	0.838438	0.838438	0	1	0	0	CorrectCommission	2.073401	1.374108	0	0	6.445000e+01
249.571045	1.279487	city	6	1	1.612857	1.612857	0	1	0	0	CorrectCommission	2.651153	1.351792	0	0	6.480000e+01
250.857285	1.292983	city	10	1	1.197080	1.197080	0	1	0	0	CorrectCommission	0.114591	1.318100	0	0	6.515000e+01
252.170227	1.332901	city	5	1	1.072317	1.072317	0	1	0	0	CorrectCommission	0.646557	1.274646	0	0	6.550000e+01
253.496460	1.319560	city	7	1	0.942659	0.942659	0	1	0	0	CorrectCommission	1.437575	1.223241	0	0	6.585000e+01
254.802612	1.292743	city	3	1	0.921927	0.921927	0	1	0	0	CorrectCommission	1.564054	1.165864	0	0	6.620000e+01
256.088776	1.279608	city	1	1	0.815762	0.815762	0	1	0	0	CorrectCommission	2.211747	1.104599	0	0	6.655000e+01
257.368378	1.279561	mountain	4	0	0.000000	1.000717	1	0	0	0	CorrectOmission	1.083374	1.041581	0	0	6.690000e+01
258.647980	1.279641	city	7	1	1.197120	1.197120	0	1	0	0	CorrectCommission	0.114833	0.979054	0	0	6.725000e+01
259.927643	1.279689	city	4	1	1.125294	1.125294	0	1	0	0	CorrectCommission	0.323357	0.919242	0	0	6.760000e+01
261.220612	1.306272	city	3	1	0.835502	0.835502	0	1	0	0	CorrectCommission	2.091314	0.864248	0	0	6.795000e+01
262.513519	1.279539	city	8	1	1.144855	1.144855	0	1	0	0	CorrectCommission	0.204019	0.815915	0	0	6.830000e+01
263.793060	1.279560	city	7	1	1.259605	1.259605	0	1	0	0	CorrectCommission	0.496045	0.775726	0	0	6.865000e+01
265.072571	1.279424	city	9	1	1.144922	1.144922	0	1	0	0	CorrectCommission	0.203615	0.744568	0	0	69
266.352142	1.279753	city	7	1	1.242211	1.242211	0	1	0	0	CorrectCommission	0.389924	0.722661	0	0	6.935000e+01
267.631714	1.279402	city	1	1	1.135109	1.135109	0	1	0	0	CorrectCommission	0.263482	0.709569	1	0	6.970000e+01
268.911224	1.279600	city	9	1	1.087771	1.087771	0	1	0	0	CorrectCommission	0.552276	0.704231	1	0	7.005000e+01
270.197540	1.293049	city	8	1	1.428905	1.428905	0	1	0	0	CorrectCommission	1.528903	0.705141	1	0	7.040000e+01
271.490540	1.292932	city	3	1	1.265547	1.265547	0	1	0	0	CorrectCommission	0.532296	0.710573	1	0	7.075000e+01
272.796783	1.319563	city	1	1	1.051640	1.051640	0	1	0	0	CorrectCommission	0.772708	0.718912	0	0	7.110000e+01
274.096313	1.279489	city	8	1	1.197560	1.197560	0	1	0	0	CorrectCommission	0.117520	0.728826	0	0	7.145000e+01
275.375824	1.279515	city	10	1	1.372951	1.372951	0	1	0	0	CorrectCommission	1.187541	0.739446	0	0	7.180000e+01
276.655457	1.279737	city	8	1	1.366043	1.366043	0	1	0	0	CorrectCommission	1.145398	0.750429	0	0	7.215000e+01
277.948273	1.305940	mountain	4	0	0.000000	1.319661	1	0	0	0	CorrectOmission	0.862432	0.761962	0	0	7.250000e+01
279.241028	1.279554	city	7	1	1.301106	1.301106	0	1	0	0	CorrectCommission	0.749230	0.774692	0	0	7.285000e+01
280.527374	1.293103	city	5	1	1.377677	1.377677	0	1	0	0	CorrectCommission	1.216376	0.789389	0	0	7.320000e+01
281.840424	1.333020	city	2	1	1.196507	1.196507	0	1	0	0	CorrectCommission	0.111093	0.806738	0	0	7.355000e+01
283.146667	1.279487	city	9	1	1.299080	1.299080	0	1	0	0	CorrectCommission	0.736868	0.827134	0	0	7.390000e+01
284.432861	1.292918	city	3	1	1.245241	1.245241	0	1	0	0	CorrectCommission	0.408411	0.850390	0	0	7.425000e+01
285.759155	1.359624	city	4	1	1.160181	1.160181	0	1	0	0	CorrectCommission	0.110524	0.875763	0	0	7.460000e+01
287.078766	1.279590	city	5	1	0.979320	0.979320	0	1	0	0	CorrectCommission	1.213915	0.902016	0	0	7.495000e+01
288.364990	1.292908	city	3	1	1.094855	1.094855	0	1	0	0	CorrectCommission	0.509061	0.927589	0	0	7.530000e+01
289.651245	1.279567	city	10	1	0.934313	0.934313	0	1	0	0	CorrectCommission	1.488494	0.950887	0	0	7.565000e+01
293.143341	5.704629	break	0	0	0.000000	1.344995	0	0	0	0	ThoughtProbe	1.016986	0.970620	0	76	76
296.635529	1.279724	city	4	1	1.706308	1.706308	0	1	0	0	CorrectCommission	3.221277	0.986025	0	0	7.632353e+01
297.921753	1.292741	city	1	1	1.397658	1.397658	0	1	0	0	CorrectCommission	1.338276	0.996915	0	0	7.664706e+01
299.227997	1.319743	city	8	1	1.120454	1.120454	0	1	0	0	CorrectCommission	0.352885	1.003758	0	0	7.697059e+01
300.540985	1.306247	city	4	1	1.158280	1.158280	0	1	0	0	CorrectCommission	0.122120	1.007331	0	0	7.729412e+01
301.833893	1.279598	city	7	1	1.145382	1.145382	0	1	0	0	CorrectCommission	0.200807	1.008504	0	0	7.761765e+01
303.113495	1.279564	city	10	1	0.985620	0.985620	0	1	0	0	CorrectCommission	1.175477	1.007959	0	0	7.794118e+01
304.393036	1.279557	city	5	1	1.039963	1.039963	0	1	0	0	CorrectCommission	0.843941	1.006034	0	0	7.826471e+01
305.672546	1.279430	city	1	1	1.053252	1.053252	0	1	0	0	CorrectCommission	0.762870	1.002677	0	0	7.858824e+01
306.952118	1.279730	mountain	7	1	0.969554	0.969554	0	0	1	0	CommissionError	1.273495	0.997516	0	0	7.891176e+01
308.238434	1.292897	city	8	1	1.627901	1.627901	0	1	0	0	CorrectCommission	2.742933	0.989993	0	0	7.923529e+01
309.558014	1.346250	city	4	1	1.226160	1.226160	0	1	0	0	CorrectCommission	0.292005	0.979531	0	0	7.955882e+01
310.897552	1.332819	city	2	1	1.006148	1.006148	0	1	0	0	CorrectCommission	1.050242	0.965795	0	0	7.988235e+01
312.210449	1.292971	city	4	1	1.426283	1.426283	0	1	0	0	CorrectCommission	1.512906	0.948609	0	0	8.020588e+01
313.509979	1.306094	city	6	1	1.215416	1.215416	0	1	0	0	CorrectCommission	0.226455	0.928051	0	0	8.052941e+01
314.816223	1.306391	city	4	1	1.158220	1.158220	0	1	0	0	CorrectCommission	0.122486	0.904433	0	0	8.085294e+01
316.109192	1.279564	city	5	1	0.985590	0.985590	0	1	0	0	CorrectCommission	1.175664	0.878162	0	0	8.117647e+01
317.388733	1.279508	city	2	1	0.863186	0.863186	0	1	0	0	CorrectCommission	1.922419	0.849718	0	0	8.150000e+01
318.681610	1.306237	city	9	1	1.158964	1.158964	0	1	0	0	CorrectCommission	0.117947	0.819636	0	0	8.182353e+01
320.001221	1.332984	city	10	1	1.003865	1.003865	0	1	0	0	CorrectCommission	1.064168	0.788541	0	0	8.214706e+01
321.340759	1.346094	city	7	1	1.212166	1.212166	0	1	0	0	CorrectCommission	0.206629	0.757091	0	0	8.247059e+01
322.653564	1.279558	city	10	1	1.310422	1.310422	0	1	0	0	CorrectCommission	0.806065	0.726056	0	0	8.279412e+01
323.933228	1.279729	city	4	1	1.529985	1.529985	0	1	0	0	CorrectCommission	2.145572	0.696289	1	0	8.311765e+01
325.232849	1.319539	city	3	1	1.183848	1.183848	0	1	0	0	CorrectCommission	0.033866	0.668616	1	0	8.344118e+01
326.532410	1.279604	mountain	5	0	0.000000	1.184712	1	0	0	0	CorrectOmission	0.039137	0.643916	1	0	8.376471e+01
327.831940	1.319434	city	7	1	1.239573	1.239573	0	1	0	0	CorrectCommission	0.373832	0.622877	1	0	8.408824e+01
329.144836	1.306370	city	1	1	1.055426	1.055426	0	1	0	0	CorrectCommission	0.749605	0.605934	1	0	8.441176e+01
330.464447	1.332815	city	6	1	1.122016	1.122016	0	1	0	0	CorrectCommission	0.343355	0.593225	1	0	8.473529e+01
331.777374	1.293029	city	5	1	1.142817	1.142817	0	1	0	0	CorrectCommission	0.216453	0.584537	1	0	8.505882e+01
333.063568	1.279398	city	3	1	1.307727	1.307727	0	1	0	0	CorrectCommission	0.789627	0.579398	1	0	8.538235e+01
334.343048	1.279546	city	4	1	1.261376	1.261376	0	1	0	0	CorrectCommission	0.506846	0.577201	1	0	8.570588e+01
335.629333	1.293061	city	2	1	1.041544	1.041544	0	1	0	0	CorrectCommission	0.834296	0.577374	1	0	8.602941e+01
336.922333	1.292908	city	10	1	1.214597	1.214597	0	1	0	0	CorrectCommission	0.221462	0.579492	1	0	8.635294e+01
338.215240	1.292923	city	8	1	0.969503	0.969503	0	1	0	0	CorrectCommission	1.273806	0.583501	1	0	8.667647e+01
338.861725	8.743803	break	0	0	0.000000	1.072182	0	0	0	0	ThoughtProbe	0.647386	0.589706	1	87	87
348.245300	1.279573	city	3	1	1.192517	1.192517	0	1	0	0	CorrectCommission	0.086753	0.598774	1	0	8.714706e+01
349.524872	1.279575	city	6	1	1.000392	1.000392	0	1	0	0	CorrectCommission	1.085355	0.611600	1	0	8.729412e+01
350.804443	1.279585	mountain	8	0	0.000000	1.133597	1	0	0	0	CorrectOmission	0.272703	0.629076	1	0	8.744118e+01
352.084045	1.279617	city	5	1	1.284210	1.284210	0	1	0	0	CorrectCommission	0.646154	0.651880	1	0	8.758824e+01
353.363525	1.279353	city	3	1	1.144311	1.144311	0	1	0	0	CorrectCommission	0.207342	0.680164	1	0	8.773529e+01
354.643005	1.279586	city	5	1	1.124803	1.124803	0	1	0	0	CorrectCommission	0.326354	0.713444	0	0	8.788235e+01
355.922699	1.279762	city	3	1	1.071777	1.071777	0	1	0	0	CorrectCommission	0.649853	0.750417	0	0	8.802941e+01
357.202271	1.279391	city	8	1	1.121710	1.121710	0	1	0	0	CorrectCommission	0.345226	0.789062	0	0	8.817647e+01
358.481842	1.279786	city	7	1	1.021135	1.021135	0	1	0	0	CorrectCommission	0.958808	0.826806	0	0	8.832353e+01
359.761505	1.279556	city	10	1	1.017574	1.017574	0	1	0	0	CorrectCommission	0.980536	0.860755	0	0	8.847059e+01
361.041077	1.279558	city	8	1	0.979302	0.979302	0	1	0	0	CorrectCommission	1.214022	0.888145	0	0	8.861765e+01
362.320587	1.279439	city	5	1	0.770456	0.770456	0	1	0	0	CorrectCommission	2.488148	0.906664	0	0	8.876471e+01
363.600159	1.279720	city	7	1	1.071271	1.071271	0	1	0	0	CorrectCommission	0.652940	0.914745	0	0	8.891176e+01
364.879730	1.279444	city	3	1	1.124311	1.124311	0	1	0	0	CorrectCommission	0.329353	0.911848	0	0	8.905882e+01
366.159332	1.279738	city	5	1	1.475240	1.475240	0	1	0	0	CorrectCommission	1.811586	0.898450	0	0	8.920588e+01
367.438965	1.279556	city	6	1	1.390888	1.390888	0	1	0	0	CorrectCommission	1.296973	0.875962	0	0	8.935294e+01
368.718536	1.279559	city	2	1	1.037897	1.037897	0	1	0	0	CorrectCommission	0.856546	0.846581	0	0	8.950000e+01
369.998108	1.279618	city	5	1	1.177779	1.177779	0	1	0	0	CorrectCommission	0.003157	0.812969	0	0	8.964706e+01
371.277710	1.279582	city	7	1	0.964202	0.964202	0	1	0	0	CorrectCommission	1.306144	0.777907	0	0	8.979412e+01
372.557220	1.279415	city	1	1	1.030949	1.030949	0	1	0	0	CorrectCommission	0.898939	0.743938	0	0	8.994118e+01
373.836700	1.279573	city	9	1	1.178164	1.178164	0	1	0	0	CorrectCommission	0.000808	0.713130	0	0	9.008824e+01
375.116364	1.279752	city	4	1	1.143324	1.143324	0	1	0	0	CorrectCommission	0.213362	0.686918	1	0	9.023529e+01
376.396027	1.279558	mountain	5	0	0.000000	1.100670	1	0	0	0	CorrectOmission	0.473585	0.666006	1	0	9.038235e+01
377.675598	1.279595	city	8	1	1.070174	1.070174	0	1	0	0	CorrectCommission	0.659635	0.650398	1	0	9.052941e+01
378.955170	1.279562	city	6	1	1.071808	1.071808	0	1	0	0	CorrectCommission	0.649667	0.639615	1	0	9.067647e+01
380.234741	1.279568	city	3	1	1.238319	1.238319	0	1	0	0	CorrectCommission	0.366185	0.632871	1	0	9.082353e+01
381.514313	1.279543	city	5	1	1.345674	1.345674	0	1	0	0	CorrectCommission	1.021133	0.629330	1	0	9.097059e+01
382.793884	1.279628	city	10	1	1.391061	1.391061	0	1	0	0	CorrectCommission	1.298025	0.628259	1	0	9.111765e+01
384.073517	1.279598	city	9	1	1.290059	1.290059	0	1	0	0	CorrectCommission	0.681837	0.629163	1	0	9.126471e+01
385.353119	1.279612	city	6	1	1.242798	1.242798	0	1	0	0	CorrectCommission	0.393508	0.631815	1	0	9.141176e+01
386.632660	1.279517	city	9	1	1.124289	1.124289	0	1	0	0	CorrectCommission	0.329487	0.636144	1	0	9.155882e+01
387.912140	1.279430	city	2	1	1.088682	1.088682	0	1	0	0	CorrectCommission	0.546720	0.642107	1	0	9.170588e+01
389.191711	1.279696	city	5	1	1.231194	1.231194	0	1	0	0	CorrectCommission	0.322713	0.649563	1	0	9.185294e+01
393.137146	6.611185	break	0	0	0.000000	1.124028	0	0	0	0	ThoughtProbe	0.331080	0.658159	1	92	92
397.109192	1.332905	city	9	1	1.057123	1.057123	0	1	0	0	CorrectCommission	0.739256	0.667313	1	0	9.167500e+01
398.415375	1.279433	city	1	1	1.320415	1.320415	0	1	0	0	CorrectCommission	0.867029	0.676251	1	0	9.135000e+01
399.694855	1.279569	mountain	1	0	0.000000	1.375017	1	0	0	0	CorrectOmission	1.200145	0.684084	1	0	9.102500e+01
400.974518	1.279758	city	2	1	1.323422	1.323422	0	1	0	0	CorrectCommission	0.885374	0.689986	1	0	9.070000e+01
402.300842	1.372884	city	3	1	1.268122	1.268122	0	1	0	0	CorrectCommission	0.548001	0.693318	1	0	9.037500e+01
403.633759	1.292902	city	6	1	1.154699	1.154699	0	1	0	0	CorrectCommission	0.143963	0.693760	1	0	9.005000e+01
404.946655	1.332898	city	2	1	1.002240	1.002240	0	1	0	0	CorrectCommission	1.074085	0.691330	1	0	8.972500e+01
406.259552	1.292891	city	10	1	0.947118	0.947118	0	1	0	0	CorrectCommission	1.410373	0.686370	1	0	8.940000e+01
407.552429	1.292888	city	1	1	1.245171	1.245171	0	1	0	0	CorrectCommission	0.407985	0.679511	1	0	8.907500e+01
408.845337	1.292936	mountain	9	0	0.000000	1.324338	1	0	0	0	CorrectOmission	0.890962	0.671578	1	0	8.875000e+01
410.131592	1.279590	city	7	1	1.261191	1.261191	0	1	0	0	CorrectCommission	0.505719	0.663392	1	0	8.842500e+01
411.444427	1.346060	city	1	1	1.132306	1.132306	0	1	0	0	CorrectCommission	0.280580	0.655692	1	0	8.810000e+01
412.763947	1.292976	city	2	1	1.148861	1.148861	0	1	0	0	CorrectCommission	0.179584	0.649019	1	0	8.777500e+01
414.070160	1.319468	city	7	1	1.267532	1.267532	0	1	0	0	CorrectCommission	0.544402	0.643686	1	0	8.745000e+01
415.383026	1.306244	city	3	1	1.066491	1.066491	0	1	0	0	CorrectCommission	0.682102	0.639788	1	0	8.712500e+01
416.675995	1.279676	city	2	1	1.359715	1.359715	0	1	0	0	CorrectCommission	1.106791	0.637310	1	0	8.680000e+01
417.982208	1.332790	city	6	1	1.278405	1.278405	0	1	0	0	CorrectCommission	0.610736	0.636216	1	0	8.647500e+01
419.288422	1.279595	city	2	1	1.303754	1.303754	0	1	0	0	CorrectCommission	0.765388	0.636575	1	0	8.615000e+01
420.568024	1.279639	city	10	1	1.391262	1.391262	0	1	0	0	CorrectCommission	1.299251	0.638588	1	0	8.582500e+01
421.847687	1.279683	city	8	1	1.216744	1.216744	0	1	0	0	CorrectCommission	0.234555	0.642578	1	0	8.550000e+01
423.133972	1.292902	city	5	1	1.229056	1.229056	0	1	0	0	CorrectCommission	0.309668	0.648962	1	0	8.517500e+01
424.433563	1.306252	city	1	1	1.171524	1.171524	0	1	0	0	CorrectCommission	0.041319	0.658086	1	0	8.485000e+01
425.733063	1.292739	city	2	1	1.051535	1.051535	0	1	0	0	CorrectCommission	0.773343	0.670165	1	0	8.452500e+01
427.032593	1.306351	city	4	1	1.212283	1.212283	0	1	0	0	CorrectCommission	0.207342	0.685142	1	0	8.420000e+01
428.332214	1.292898	city	2	1	1.342893	1.342893	0	1	0	0	CorrectCommission	1.004165	0.702727	1	0	8.387500e+01
429.625061	1.292804	mountain	4	0	0.000000	1.407731	1	0	0	0	CorrectOmission	1.399727	0.722319	0	0	8.355000e+01
430.924683	1.306406	city	5	1	1.362053	1.362053	0	1	0	0	CorrectCommission	1.121055	0.743179	0	0	8.322500e+01
432.230957	1.306155	city	10	1	1.161114	1.161114	0	1	0	0	CorrectCommission	0.104828	0.764463	0	0	8.290000e+01
433.523773	1.279471	city	2	1	1.265255	1.265255	0	1	0	0	CorrectCommission	0.530513	0.785377	0	0	8.257500e+01
434.803406	1.279774	city	5	1	1.247101	1.247101	0	1	0	0	CorrectCommission	0.419759	0.805343	0	0	8.225000e+01
436.083069	1.279578	city	6	1	1.342539	1.342539	0	1	0	0	CorrectCommission	1.002007	0.824171	0	0	8.192500e+01
437.369293	1.292892	city	8	1	1.351192	1.351192	0	1	0	0	CorrectCommission	1.054796	0.842190	0	0	8.160000e+01
438.662201	1.292903	city	1	1	1.374268	1.374268	0	1	0	0	CorrectCommission	1.195580	0.860392	0	0	8.127500e+01
439.948425	1.279568	city	4	1	1.374268	1.374268	0	1	0	0	CorrectCommission	1.195579	0.880437	0	0	8.095000e+01
441.248016	1.319566	city	5	1	1.457654	1.457654	0	1	0	0	CorrectCommission	1.704297	0.904501	0	0	8.062500e+01
442.547485	1.279419	city	2	1	1.318898	1.318898	0	1	0	0	CorrectCommission	0.857777	0.934987	0	0	8.030000e+01
443.840332	1.306244	city	8	1	1.194876	1.194876	0	1	0	0	CorrectCommission	0.101145	0.974132	0	0	7.997500e+01
445.133148	1.279407	city	5	1	1.236214	1.236214	0	1	0	0	CorrectCommission	0.353341	1.023489	0	0	7.965000e+01
446.412811	1.279898	city	10	1	1.094722	1.094722	0	1	0	0	CorrectCommission	0.509872	1.083450	0	0	7.932500e+01
450.751556	7.397580	break	0	0	0.000000	1.111172	0	0	0	0	ThoughtProbe	0.409513	1.152908	0	79	79
455.110138	1.319606	city	5	1	1.100293	1.100293	0	1	0	0	CorrectCommission	0.475885	1.229100	0	0	7.921739e+01
456.416382	1.292883	city	8	1	0.876812	0.876812	0	1	0	0	CorrectCommission	1.839294	1.307743	0	0	7.943478e+01
457.709259	1.292890	mountain	10	1	0.978798	0.978798	0	0	1	0	CommissionError	1.217097	1.383374	0	0	7.965217e+01
458.995514	1.279580	city	4	1	1.567164	1.567164	0	1	0	0	CorrectCommission	2.372394	1.449981	0	0	7.986957e+01
460.275085	1.279602	city	6	1	1.364314	1.364314	0	1	0	0	CorrectCommission	1.134849	1.501620	0	0	8.008696e+01
461.561340	1.292874	city	10	1	1.767747	1.767747	0	1	0	0	CorrectCommission	3.596107	1.533259	0	0	8.030435e+01
462.860870	1.306203	city	1	1	1.489872	1.489872	0	1	0	0	CorrectCommission	1.900850	1.541208	0	0	8.052174e+01
464.153809	1.279641	city	4	1	1.399627	1.399627	0	1	0	0	CorrectCommission	1.350288	1.523751	0	0	8.073913e+01
465.433411	1.279569	city	3	1	1.721851	1.721851	0	1	0	0	CorrectCommission	3.316107	1.481215	0	0	8.095652e+01
466.726227	1.306096	city	6	1	1.480506	1.480506	0	1	0	0	CorrectCommission	1.843708	1.415878	0	0	8.117391e+01
468.032410	1.306246	city	4	1	1.337504	1.337504	0	1	0	0	CorrectCommission	0.971290	1.331804	0	0	8.139130e+01
469.331970	1.292894	city	7	1	1.046471	1.046471	0	1	0	0	CorrectCommission	0.804238	1.234284	0	0	8.160870e+01
470.651611	1.346376	city	1	1	0.952720	0.952720	0	1	0	0	CorrectCommission	1.376194	1.129258	0	0	8.182609e+01
471.964539	1.279451	city	6	1	1.317256	1.317256	0	1	0	0	CorrectCommission	0.847758	1.022746	0	0	8.204348e+01
473.250763	1.293024	city	7	1	1.045350	1.045350	0	1	0	0	CorrectCommission	0.811077	0.920377	0	0	8.226087e+01
474.556976	1.319399	city	4	1	1.189560	1.189560	0	1	0	0	CorrectCommission	0.068717	0.826943	0	0	8.247826e+01
475.863220	1.293094	mountain	6	0	0.000000	1.233162	1	0	0	0	CorrectOmission	0.334718	0.746142	0	0	8.269565e+01
477.162872	1.306232	city	10	1	1.236426	1.236426	0	1	0	0	CorrectCommission	0.354631	0.680447	1	0	8.291304e+01
478.469025	1.306054	city	5	1	1.259624	1.259624	0	1	0	0	CorrectCommission	0.496161	0.631100	1	0	8.313043e+01
479.761871	1.279657	city	1	1	1.234460	1.234460	0	1	0	0	CorrectCommission	0.342636	0.598166	1	0	8.334783e+01
481.041565	1.279679	mountain	7	1	1.150886	1.150886	0	0	1	0	CommissionError	0.167227	0.580695	1	0	8.356522e+01
482.327759	1.292729	city	5	1	1.352561	1.352561	0	1	0	0	CorrectCommission	1.063144	0.576896	1	0	8.378261e+01
483.640656	1.333078	city	9	1	1.190622	1.190622	0	1	0	0	CorrectCommission	0.075195	0.584279	1	0	84
484.960266	1.306155	city	1	1	1.150735	1.150735	0	1	0	0	CorrectCommission	0.168147	0.599902	1	0	8.421739e+01
486.266510	1.306320	city	4	1	1.361719	1.361719	0	1	0	0	CorrectCommission	1.119017	0.620535	1	0	8.443478e+01
487.586121	1.332877	city	8	1	1.192727	1.192727	0	1	0	0	CorrectCommission	0.088036	0.642839	1	0	8.465217e+01
488.892303	1.279481	city	2	1	1.034638	1.034638	0	1	0	0	CorrectCommission	0.876429	0.663707	1	0	8.486957e+01
490.171875	1.279679	city	7	1	1.034562	1.034562	0	1	0	0	CorrectCommission	0.876892	0.680362	1	0	8.508696e+01
491.464844	1.306248	city	5	1	1.185179	1.185179	0	1	0	0	CorrectCommission	0.041988	0.690716	1	0	8.530435e+01
492.757751	1.279568	city	2	1	1.472407	1.472407	0	1	0	0	CorrectCommission	1.794300	0.693544	1	0	8.552174e+01
494.050659	1.306251	city	9	1	1.511981	1.511981	0	1	0	0	CorrectCommission	2.035733	0.688486	1	0	8.573913e+01
495.363556	1.319548	mountain	2	0	0.000000	1.363417	1	0	0	0	CorrectOmission	1.129376	0.676139	1	0	8.595652e+01
496.676392	1.306155	city	3	1	1.204028	1.204028	0	1	0	0	CorrectCommission	0.156982	0.657896	1	0	8.617391e+01
497.989227	1.319485	city	8	1	1.211129	1.211129	0	1	0	0	CorrectCommission	0.200304	0.635645	1	0	8.639130e+01
499.302185	1.306425	city	7	1	1.195805	1.195805	0	1	0	0	CorrectCommission	0.106816	0.611405	1	0	8.660870e+01
500.615082	1.319414	city	6	1	1.169253	1.169253	0	1	0	0	CorrectCommission	0.055173	0.587027	1	0	8.682609e+01
501.927917	1.306224	city	3	1	1.022926	1.022926	0	1	0	0	CorrectCommission	0.947885	0.563938	1	0	8.704348e+01
503.240875	1.319699	city	5	1	1.090786	1.090786	0	1	0	0	CorrectCommission	0.533887	0.542959	1	0	8.726087e+01
504.560516	1.319597	city	9	1	1.222441	1.222441	0	1	0	0	CorrectCommission	0.269314	0.524323	1	0	8.747826e+01
505.880035	1.319402	city	5	1	1.238185	1.238185	0	1	0	0	CorrectCommission	0.365364	0.507757	1	0	8.769565e+01
507.192841	1.306237	city	4	1	1.335263	1.335263	0	1	0	0	CorrectCommission	0.957619	0.492650	1	0	8.791304e+01
508.485748	1.279552	city	6	1	1.130933	1.130933	0	1	0	0	CorrectCommission	0.288958	0.478263	1	0	8.813043e+01
509.772064	1.293099	city	1	1	1.045961	1.045961	0	1	0	0	CorrectCommission	0.807354	0.463982	1	0	8.834783e+01
511.071655	1.306084	city	10	1	1.092230	1.092230	0	1	0	0	CorrectCommission	0.525073	0.449399	1	0	8.856522e+01
512.377869	1.306367	city	4	1	1.100913	1.100913	0	1	0	0	CorrectCommission	0.472101	0.434403	1	0	8.878261e+01
513.031067	16.687949	break	0	0	0.000000	1.109596	0	0	0	0	ThoughtProbe	0.419130	0.419130	1	89	89
