onset	duration	trial_type	image_type	Press	ReactionTime	ReactionTime_Interpolated	CorrectOmission	CorrectCommission	CommissionError	OmissionError	response_type	nonsmoothVarianceTimeCourse	VarianceTimeCourse	In_the_Zone	ThoughtProbe	ThoughtProbe_Interpolated
0.652724	1.279629	city	5	1	1.283947	1.283947	0	1	0	0	CorrectCommission	0.425356	0.425356	1	0	41
1.932340	1.279603	city	7	1	1.232305	1.232305	0	1	0	0	CorrectCommission	0.193236	0.484570	1	0	41
3.212009	1.279736	city	1	1	0.977615	0.977615	0	1	0	0	CorrectCommission	0.951544	0.541992	1	0	41
4.491671	1.279586	mountain	8	0	0.000000	1.214108	1	0	0	0	CorrectOmission	0.111444	0.595824	1	0	41
5.771241	1.279554	city	3	1	1.393683	1.393683	0	1	0	0	CorrectCommission	0.918601	0.644385	1	0	41
7.050808	1.279581	city	2	1	0.968243	0.968243	0	1	0	0	CorrectCommission	0.993671	0.686086	1	0	41
8.330229	1.279261	city	1	1	1.022297	1.022297	0	1	0	0	CorrectCommission	0.750708	0.719631	1	0	41
9.616471	1.293224	city	9	1	1.146550	1.146550	0	1	0	0	CorrectCommission	0.192216	0.744076	1	0	41
10.902875	1.279583	city	8	1	1.506443	1.506443	0	1	0	0	CorrectCommission	1.425436	0.758988	1	0	41
12.189130	1.292927	mountain	9	0	0.000000	1.625127	1	0	0	0	CorrectOmission	1.958896	0.764486	0	0	41
13.475383	1.279578	city	7	1	1.500196	1.500196	0	1	0	0	CorrectCommission	1.397353	0.761278	0	0	41
14.754951	1.279558	city	10	1	1.129243	1.129243	0	1	0	0	CorrectCommission	0.270007	0.750618	1	0	41
16.034517	1.279573	city	8	1	1.189907	1.189907	0	1	0	0	CorrectCommission	0.002665	0.734183	1	0	41
17.314106	1.279605	city	6	1	1.027166	1.027166	0	1	0	0	CorrectCommission	0.728824	0.713857	1	0	41
18.593719	1.279620	city	9	1	1.020981	1.020981	0	1	0	0	CorrectCommission	0.756624	0.691530	1	0	41
19.873276	1.279494	city	2	1	1.071316	1.071316	0	1	0	0	CorrectCommission	0.530378	0.668916	1	0	41
21.152832	1.279619	city	10	1	0.964630	0.964630	0	1	0	0	CorrectCommission	1.009909	0.647474	1	0	41
22.432425	1.279566	city	5	1	1.151612	1.151612	0	1	0	0	CorrectCommission	0.169462	0.628336	1	0	41
23.711926	1.279434	city	6	1	1.335228	1.335228	0	1	0	0	CorrectCommission	0.655856	0.612317	1	0	41
24.991512	1.279740	city	4	1	1.342121	1.342121	0	1	0	0	CorrectCommission	0.686839	0.599907	1	0	41
26.271158	1.279554	city	3	1	1.234227	1.234227	0	1	0	0	CorrectCommission	0.201875	0.591408	1	0	41
27.550726	1.279578	city	2	1	0.932110	0.932110	0	1	0	0	CorrectCommission	1.156079	0.586964	1	0	41
28.830233	1.279435	city	6	1	1.182296	1.182296	0	1	0	0	CorrectCommission	0.031544	0.586572	1	0	41
30.116480	1.293060	city	1	1	1.048261	1.048261	0	1	0	0	CorrectCommission	0.634003	0.590202	1	0	41
31.402729	1.279437	mountain	7	0	0.000000	1.272439	1	0	0	0	CorrectOmission	0.373632	0.597694	1	0	41
32.682320	1.279744	city	9	1	1.444546	1.444546	0	1	0	0	CorrectCommission	1.147220	0.608841	1	0	41
33.961967	1.279557	city	5	1	1.154299	1.154299	0	1	0	0	CorrectCommission	0.157383	0.623287	1	0	41
35.241535	1.279575	city	3	1	1.086856	1.086856	0	1	0	0	CorrectCommission	0.460527	0.640540	1	0	41
36.521111	1.279579	city	10	1	0.983318	0.983318	0	1	0	0	CorrectCommission	0.925913	0.659938	1	0	41
37.800610	1.279416	city	9	1	1.283824	1.283824	0	1	0	0	CorrectCommission	0.424805	0.680674	1	0	41
39.080128	1.279623	city	5	1	1.251788	1.251788	0	1	0	0	CorrectCommission	0.280807	0.701826	1	0	41
40.359779	1.279677	city	4	1	1.348877	1.348877	0	1	0	0	CorrectCommission	0.717205	0.722442	1	0	41
41.652748	1.306262	city	7	1	1.482244	1.482244	0	1	0	0	CorrectCommission	1.316665	0.741632	1	0	41
42.952335	1.292908	city	1	1	1.563528	1.563528	0	1	0	0	CorrectCommission	1.682021	0.758698	1	0	41
44.245159	1.292740	city	9	1	1.123693	1.123693	0	1	0	0	CorrectCommission	0.294954	0.773229	0	0	41
45.544712	1.306368	city	8	1	1.214095	1.214095	0	1	0	0	CorrectCommission	0.111386	0.785131	0	0	41
46.844322	1.292857	city	2	1	0.866437	0.866437	0	1	0	0	CorrectCommission	1.451269	0.794662	0	0	41
48.137196	1.292884	city	9	1	1.052779	1.052779	0	1	0	0	CorrectCommission	0.613696	0.802409	0	0	41
49.436821	1.306373	city	5	1	1.053209	1.053209	0	1	0	0	CorrectCommission	0.611766	0.809324	0	0	41
53.428818	6.677616	break	0	1	0.940064	0.940064	0	0	0	0	ThoughtProbe	1.120330	0.816596	0	41	41
57.407497	1.279743	city	7	1	1.484983	1.484983	0	1	0	0	CorrectCommission	1.328975	0.825551	0	0	4.108824e+01
58.713821	1.332907	city	10	1	1.298850	1.298850	0	1	0	0	CorrectCommission	0.492342	0.837514	0	0	4.117647e+01
60.020065	1.279583	city	1	1	1.285096	1.285096	0	1	0	0	CorrectCommission	0.430523	0.853660	0	0	4.126471e+01
61.312969	1.306218	city	8	1	1.096423	1.096423	0	1	0	0	CorrectCommission	0.417528	0.874774	0	0	4.135294e+01
62.605865	1.279579	city	2	1	0.964315	0.964315	0	1	0	0	CorrectCommission	1.011328	0.901128	0	0	4.144118e+01
63.885456	1.279603	city	10	1	0.875190	0.875190	0	1	0	0	CorrectCommission	1.411924	0.932249	0	0	4.152941e+01
65.165031	1.279552	city	7	1	1.201657	1.201657	0	1	0	0	CorrectCommission	0.055478	0.966941	0	0	4.161765e+01
66.444572	1.279522	mountain	8	0	0.000000	1.459382	1	0	0	0	CorrectOmission	1.213905	1.003278	0	0	4.170588e+01
67.724152	1.279637	city	10	1	1.483061	1.483061	0	1	0	0	CorrectCommission	1.320338	1.038711	0	0	4.179412e+01
69.017029	1.306116	city	2	1	1.107387	1.107387	0	1	0	0	CorrectCommission	0.368245	1.070373	0	0	4.188235e+01
70.309906	1.279635	city	6	1	1.019177	1.019177	0	1	0	0	CorrectCommission	0.764731	1.095426	0	0	4.197059e+01
71.589546	1.279644	city	10	1	0.927361	0.927361	0	1	0	0	CorrectCommission	1.177427	1.111495	0	0	4.205882e+01
72.869095	1.279464	city	4	1	1.668112	1.668112	0	1	0	0	CorrectCommission	2.152105	1.116995	0	0	4.214706e+01
74.148682	1.279713	city	6	1	1.949190	1.949190	0	1	0	0	CorrectCommission	3.415495	1.111471	0	0	4.223529e+01
75.434998	1.292910	city	1	0	0.000000	1.428176	0	0	0	1	OmissionError	1.073639	1.095719	0	0	4.232353e+01
76.721252	1.279603	city	10	1	0.933535	0.933535	0	1	0	0	CorrectCommission	1.149677	1.071777	0	0	4.241176e+01
78.000801	1.279495	mountain	10	1	1.293731	1.293731	0	0	1	0	CommissionError	0.469332	1.042550	0	0	4.250000e+01
79.280289	1.279481	city	2	1	1.017724	1.017724	0	1	0	0	CorrectCommission	0.771263	1.011408	0	0	4.258824e+01
80.566559	1.293049	city	6	1	1.148559	1.148559	0	1	0	0	CorrectCommission	0.183186	0.981630	0	0	4.267647e+01
81.852875	1.279585	city	2	1	1.284543	1.284543	0	1	0	0	CorrectCommission	0.428037	0.956017	0	0	4.276471e+01
83.139114	1.292895	city	10	1	1.056336	1.056336	0	1	0	0	CorrectCommission	0.597710	0.936508	0	0	4.285294e+01
84.432022	1.292928	city	9	1	1.269472	1.269472	0	1	0	0	CorrectCommission	0.360295	0.924042	0	0	4.294118e+01
85.718277	1.279586	city	1	1	1.484323	1.484323	0	1	0	0	CorrectCommission	1.326007	0.918571	0	0	4.302941e+01
87.017845	1.319549	city	7	1	1.698164	1.698164	0	1	0	0	CorrectCommission	2.287181	0.919217	0	0	4.311765e+01
88.324074	1.292896	city	10	1	1.230174	1.230174	0	1	0	0	CorrectCommission	0.183657	0.924480	0	0	4.320588e+01
89.610321	1.279609	city	2	1	1.497955	1.497955	0	1	0	0	CorrectCommission	1.387282	0.932543	0	0	4.329412e+01
90.896500	1.292747	city	10	1	1.325497	1.325497	0	1	0	0	CorrectCommission	0.612118	0.941365	0	0	4.338235e+01
92.182648	1.279540	city	8	1	1.294347	1.294347	0	1	0	0	CorrectCommission	0.472103	0.948945	0	0	4.347059e+01
93.468895	1.292958	city	4	1	1.309813	1.309813	0	1	0	0	CorrectCommission	0.541621	0.953455	0	0	4.355882e+01
94.755173	1.279601	city	9	1	1.296456	1.296456	0	1	0	0	CorrectCommission	0.481583	0.953352	0	0	4.364706e+01
96.034813	1.279683	city	7	1	1.896724	1.896724	0	1	0	0	CorrectCommission	3.179670	0.947499	0	0	4.373529e+01
97.314445	1.279573	city	2	1	1.325454	1.325454	0	1	0	0	CorrectCommission	0.611923	0.935235	0	0	4.382353e+01
98.613945	1.319431	city	9	1	1.340447	1.340447	0	1	0	0	CorrectCommission	0.679315	0.916597	0	0	4.391176e+01
103.272362	7.997401	break	0	0	0.000000	1.411283	0	0	0	0	ThoughtProbe	0.997707	0.892200	0	44	44
107.910858	1.279591	city	5	1	1.483136	1.483136	0	1	0	0	CorrectCommission	1.320673	0.863194	0	0	4.482609e+01
109.210495	1.319681	city	6	1	1.501183	1.501183	0	1	0	0	CorrectCommission	1.401791	0.831141	0	0	4.565217e+01
110.510048	1.279423	city	1	1	1.298877	1.298877	0	1	0	0	CorrectCommission	0.492466	0.797872	0	0	4.647826e+01
111.789612	1.279715	mountain	7	0	0.000000	1.224297	1	0	0	0	CorrectOmission	0.157242	0.765248	0	0	4.730435e+01
113.069252	1.279566	city	5	1	1.235148	1.235148	0	1	0	0	CorrectCommission	0.206016	0.734945	1	0	4.813043e+01
114.362175	1.306275	city	10	1	1.289137	1.289137	0	1	0	0	CorrectCommission	0.448686	0.708282	1	0	4.895652e+01
115.655098	1.279571	city	2	1	1.362934	1.362934	0	1	0	0	CorrectCommission	0.780387	0.686176	1	0	4.978261e+01
116.934677	1.279586	city	8	1	1.085260	1.085260	0	1	0	0	CorrectCommission	0.467702	0.669153	1	0	5.060870e+01
118.227501	1.306060	city	10	1	0.885233	0.885233	0	1	0	0	CorrectCommission	1.366786	0.657431	1	0	5.143478e+01
119.533730	1.306390	city	4	1	1.056272	1.056272	0	1	0	0	CorrectCommission	0.597997	0.650997	1	0	5.226087e+01
120.826714	1.279581	mountain	5	0	0.000000	1.250530	1	0	0	0	CorrectOmission	0.275153	0.649786	1	0	5.308696e+01
122.106224	1.279441	city	10	1	1.365115	1.365115	0	1	0	0	CorrectCommission	0.790193	0.653672	1	0	5.391304e+01
123.385811	1.279734	mountain	7	0	0.000000	1.297139	1	0	0	0	CorrectOmission	0.484652	0.662505	1	0	5.473913e+01
124.672127	1.292893	city	5	1	1.257835	1.257835	0	1	0	0	CorrectCommission	0.307990	0.676090	1	0	5.556522e+01
125.958359	1.279577	city	2	1	1.458440	1.458440	0	1	0	0	CorrectCommission	1.209668	0.694097	1	0	5.639130e+01
127.251198	1.306102	city	1	1	1.268550	1.268550	0	1	0	0	CorrectCommission	0.356152	0.715994	1	0	5.721739e+01
128.544098	1.279711	city	8	1	1.193980	1.193980	0	1	0	0	CorrectCommission	0.020973	0.741000	1	0	5.804348e+01
129.823685	1.279443	city	5	1	1.345287	1.345287	0	1	0	0	CorrectCommission	0.701068	0.768084	0	0	5.886957e+01
131.123169	1.319541	city	7	1	1.602860	1.602860	0	1	0	0	CorrectCommission	1.858809	0.795931	0	0	5.969565e+01
132.422729	1.279572	city	9	1	1.287985	1.287985	0	1	0	0	CorrectCommission	0.443506	0.823113	0	0	6.052174e+01
133.708969	1.292919	city	7	1	1.319477	1.319477	0	1	0	0	CorrectCommission	0.585058	0.848245	0	0	6.134783e+01
134.995316	1.279758	city	5	1	1.088292	1.088292	0	1	0	0	CorrectCommission	0.454073	0.870029	0	0	6.217391e+01
136.274902	1.279419	city	4	1	1.524198	1.524198	0	1	0	0	CorrectCommission	1.505240	0.887434	0	0	63
137.567719	1.306219	mountain	2	0	0.000000	1.601212	1	0	0	0	CorrectOmission	1.851403	0.899746	0	0	6.382609e+01
138.867371	1.293067	city	1	1	1.480120	1.480120	0	1	0	0	CorrectCommission	1.307115	0.906613	0	0	6.465217e+01
140.160355	1.292927	city	5	1	1.321705	1.321705	0	1	0	0	CorrectCommission	0.595073	0.908012	0	0	6.547826e+01
141.459946	1.306231	city	6	1	1.365350	1.365350	0	1	0	0	CorrectCommission	0.791250	0.904126	0	0	6.630435e+01
142.766159	1.306218	city	1	1	1.114429	1.114429	0	1	0	0	CorrectCommission	0.336594	0.895213	0	0	6.713043e+01
144.059067	1.279599	city	5	1	1.204794	1.204794	0	1	0	0	CorrectCommission	0.069582	0.881558	0	0	6.795652e+01
145.338623	1.279500	city	8	1	1.565236	1.565236	0	1	0	0	CorrectCommission	1.689696	0.863451	0	0	6.878261e+01
146.631439	1.306141	city	3	1	1.605007	1.605007	0	1	0	0	CorrectCommission	1.868458	0.841143	0	0	6.960870e+01
147.931046	1.293066	city	7	1	1.214556	1.214556	0	1	0	0	CorrectCommission	0.113458	0.815035	0	0	7.043478e+01
149.230713	1.306259	city	1	1	0.934706	0.934706	0	1	0	0	CorrectCommission	1.144414	0.785765	0	0	7.126087e+01
150.523544	1.279404	city	8	1	1.299721	1.299721	0	1	0	0	CorrectCommission	0.496259	0.754199	1	0	7.208696e+01
151.809692	1.292913	city	4	1	1.569755	1.569755	0	1	0	0	CorrectCommission	1.710008	0.721576	1	0	7.291304e+01
153.109283	1.306247	city	2	1	1.164298	1.164298	0	1	0	0	CorrectCommission	0.112442	0.689387	1	0	7.373913e+01
154.402252	1.279694	city	5	1	1.069874	1.069874	0	1	0	0	CorrectCommission	0.536861	0.659321	1	0	7.456522e+01
155.681824	1.279464	city	10	1	1.022506	1.022506	0	1	0	0	CorrectCommission	0.749770	0.633043	1	0	7.539130e+01
156.974670	1.306214	city	9	1	1.146909	1.146909	0	1	0	0	CorrectCommission	0.190602	0.612031	1	0	7.621739e+01
158.274231	1.292922	city	5	1	1.101519	1.101519	0	1	0	0	CorrectCommission	0.394619	0.597410	1	0	7.704348e+01
159.567139	1.292894	city	10	1	1.171852	1.171852	0	1	0	0	CorrectCommission	0.078489	0.589781	1	0	7.786957e+01
160.853378	1.279585	city	4	1	1.140492	1.140492	0	1	0	0	CorrectCommission	0.219446	0.589224	1	0	7.869565e+01
162.133041	1.279732	city	5	1	0.981828	0.981828	0	1	0	0	CorrectCommission	0.932607	0.595285	1	0	7.952174e+01
163.412704	1.279586	city	2	1	1.088981	1.088981	0	1	0	0	CorrectCommission	0.450974	0.607079	1	0	8.034783e+01
164.692291	1.279601	city	6	1	0.979164	0.979164	0	1	0	0	CorrectCommission	0.944581	0.623439	1	0	8.117391e+01
168.897598	7.131026	break	0	0	0.000000	0.992852	0	0	0	0	ThoughtProbe	0.883056	0.643030	1	82	82
173.102875	1.279516	mountain	1	0	0.000000	1.094410	1	0	0	0	CorrectOmission	0.426576	0.664525	1	0	8.115000e+01
174.389099	1.292938	city	10	1	1.248200	1.248200	0	1	0	0	CorrectCommission	0.264683	0.686686	1	0	8.030000e+01
175.682007	1.292875	city	4	1	1.418589	1.418589	0	1	0	0	CorrectCommission	1.030547	0.708389	1	0	7.945000e+01
176.974869	1.292841	city	6	1	1.032107	1.032107	0	1	0	0	CorrectCommission	0.706616	0.728632	1	0	7.860000e+01
178.261047	1.279508	city	10	1	0.911495	0.911495	0	1	0	0	CorrectCommission	1.248741	0.746562	1	0	7.775000e+01
179.573944	1.346293	city	8	1	1.097889	1.097889	0	1	0	0	CorrectCommission	0.410939	0.761379	0	0	7.690000e+01
180.886917	1.279646	mountain	7	0	0.000000	1.071836	1	0	0	0	CorrectOmission	0.528040	0.772379	0	0	7.605000e+01
182.206512	1.359554	city	3	1	0.965691	0.965691	0	1	0	0	CorrectCommission	1.005141	0.778932	0	0	7.520000e+01
183.526093	1.279605	city	1	1	0.911808	0.911808	0	1	0	0	CorrectCommission	1.247335	0.780457	0	0	7.435000e+01
184.812256	1.292724	city	5	1	1.040992	1.040992	0	1	0	0	CorrectCommission	0.666677	0.776519	0	0	7.350000e+01
186.118500	1.319749	city	6	1	1.017271	1.017271	0	1	0	0	CorrectCommission	0.773299	0.766839	0	0	7.265000e+01
187.424820	1.292886	city	7	1	1.041383	1.041383	0	1	0	0	CorrectCommission	0.664921	0.751397	1	0	7.180000e+01
188.717712	1.292902	city	9	1	0.947163	0.947163	0	1	0	0	CorrectCommission	1.088420	0.730462	1	0	7.095000e+01
190.003952	1.279570	city	2	1	0.924966	0.924966	0	1	0	0	CorrectCommission	1.188192	0.704628	1	0	7.010000e+01
191.296860	1.306247	city	5	1	1.053918	1.053918	0	1	0	0	CorrectCommission	0.608578	0.674831	1	0	6.925000e+01
192.589783	1.279601	city	9	1	1.088419	1.088419	0	1	0	0	CorrectCommission	0.453502	0.642358	1	0	6.840000e+01
193.876038	1.292911	city	3	1	1.043312	1.043312	0	1	0	0	CorrectCommission	0.656248	0.608695	1	0	6.755000e+01
195.162262	1.279555	city	6	1	1.093080	1.093080	0	1	0	0	CorrectCommission	0.432550	0.575469	1	0	6.670000e+01
196.455078	1.306074	city	10	1	1.278667	1.278667	0	1	0	0	CorrectCommission	0.401624	0.544318	1	0	6.585000e+01
197.747986	1.279747	city	7	1	1.352863	1.352863	0	1	0	0	CorrectCommission	0.735123	0.516775	1	0	65
199.040985	1.306237	city	5	1	1.106170	1.106170	0	1	0	0	CorrectCommission	0.373716	0.494119	1	0	6.415000e+01
200.340546	1.292901	city	9	1	1.115069	1.115069	0	1	0	0	CorrectCommission	0.333718	0.477301	1	0	6.330000e+01
201.626724	1.279457	city	7	0	0.000000	1.151781	0	0	0	1	OmissionError	0.168702	0.466876	1	0	6.245000e+01
202.906235	1.279547	city	6	1	1.199591	1.199591	0	1	0	0	CorrectCommission	0.046195	0.462929	1	0	6.160000e+01
204.185867	1.279733	mountain	8	0	0.000000	1.241782	1	0	0	0	CorrectOmission	0.235835	0.465100	1	0	6.075000e+01
205.465454	1.279417	city	9	1	1.293031	1.293031	0	1	0	0	CorrectCommission	0.466186	0.472664	1	0	5.990000e+01
206.751694	1.293066	city	8	1	1.368013	1.368013	0	1	0	0	CorrectCommission	0.803216	0.484642	1	0	5.905000e+01
208.064590	1.332740	city	2	1	1.297524	1.297524	0	1	0	0	CorrectCommission	0.486385	0.499948	1	0	5.820000e+01
209.370834	1.279750	city	7	1	1.377988	1.377988	0	1	0	0	CorrectCommission	0.848056	0.517500	1	0	5.735000e+01
210.670456	1.319488	city	6	1	1.112381	1.112381	0	1	0	0	CorrectCommission	0.345797	0.536330	1	0	5.650000e+01
211.976685	1.292972	city	3	1	1.087902	1.087902	0	1	0	0	CorrectCommission	0.455827	0.555691	1	0	5.565000e+01
213.276291	1.306243	city	4	1	1.111017	1.111017	0	1	0	0	CorrectCommission	0.351927	0.575084	1	0	5.480000e+01
214.595871	1.332914	city	3	1	1.078328	1.078328	0	1	0	0	CorrectCommission	0.498861	0.594255	1	0	5.395000e+01
215.915436	1.306212	city	7	1	1.126504	1.126504	0	1	0	0	CorrectCommission	0.282317	0.613168	1	0	5.310000e+01
217.221588	1.306077	city	6	1	1.698217	1.698217	0	1	0	0	CorrectCommission	2.287421	0.631937	1	0	5.225000e+01
218.514496	1.279747	city	3	1	1.298170	1.298170	0	1	0	0	CorrectCommission	0.489289	0.650684	1	0	5.140000e+01
219.827484	1.346228	city	7	1	1.137077	1.137077	0	1	0	0	CorrectCommission	0.234796	0.669523	1	0	5.055000e+01
221.147049	1.292908	city	6	1	1.146820	1.146820	0	1	0	0	CorrectCommission	0.191002	0.688368	1	0	4.970000e+01
222.433243	1.279486	city	1	1	1.146599	1.146599	0	1	0	0	CorrectCommission	0.191993	0.706889	1	0	4.885000e+01
226.478546	6.811101	break	0	0	0.000000	1.224649	0	0	0	0	ThoughtProbe	0.158825	0.724535	1	48	48
230.523911	1.279633	city	10	1	1.409309	1.409309	0	1	0	0	CorrectCommission	0.988834	0.740607	1	0	4.891176e+01
231.830109	1.332762	city	7	1	1.728918	1.728918	0	1	0	0	CorrectCommission	2.425414	0.754361	1	0	4.982353e+01
233.136353	1.279747	city	5	1	1.410477	1.410477	0	1	0	0	CorrectCommission	0.994084	0.765196	0	0	5.073529e+01
234.422623	1.292784	city	10	1	1.249562	1.249562	0	1	0	0	CorrectCommission	0.270806	0.772874	0	0	5.164706e+01
235.715454	1.292866	city	1	1	1.155709	1.155709	0	1	0	0	CorrectCommission	0.151048	0.777536	0	0	5.255882e+01
237.015091	1.306410	city	9	1	0.941048	0.941048	0	1	0	0	CorrectCommission	1.115908	0.779712	0	0	5.347059e+01
238.308075	1.279573	city	8	1	0.833437	0.833437	0	1	0	0	CorrectCommission	1.599596	0.780243	0	0	5.438235e+01
239.587662	1.279590	city	4	1	1.092109	1.092109	0	1	0	0	CorrectCommission	0.436915	0.780176	0	0	5.529412e+01
240.867233	1.279551	mountain	9	1	1.088073	1.088073	0	0	1	0	CommissionError	0.455057	0.780581	0	0	5.620588e+01
242.146790	1.279580	city	3	1	1.354453	1.354453	0	1	0	0	CorrectCommission	0.742268	0.782363	0	0	5.711765e+01
243.439713	1.306250	city	9	1	0.990894	0.990894	0	1	0	0	CorrectCommission	0.891857	0.786060	0	0	5.802941e+01
244.732559	1.279461	city	1	1	1.143493	1.143493	0	1	0	0	CorrectCommission	0.205956	0.791787	0	0	5.894118e+01
246.025467	1.306348	city	2	1	1.080473	1.080473	0	1	0	0	CorrectCommission	0.489218	0.799240	0	0	5.985294e+01
247.318405	1.279508	mountain	4	0	0.000000	1.338030	1	0	0	0	CorrectOmission	0.668450	0.807711	0	0	6.076471e+01
248.597977	1.279648	city	2	1	1.554525	1.554525	0	1	0	0	CorrectCommission	1.641552	0.816262	0	0	6.167647e+01
249.877594	1.279574	city	4	1	1.368319	1.368319	0	1	0	0	CorrectCommission	0.804591	0.823894	0	0	6.258824e+01
251.177155	1.319567	city	8	1	1.006034	1.006034	0	1	0	0	CorrectCommission	0.823807	0.829715	0	0	6.350000e+01
252.483353	1.292820	city	3	1	0.988445	0.988445	0	1	0	0	CorrectCommission	0.902865	0.833092	0	0	6.441176e+01
253.796249	1.332983	city	1	1	0.887063	0.887063	0	1	0	0	CorrectCommission	1.358557	0.833686	0	0	6.532353e+01
255.109161	1.292835	city	10	1	0.945143	0.945143	0	1	0	0	CorrectCommission	1.097501	0.831418	0	0	6.623529e+01
256.395264	1.279351	city	3	1	1.125338	1.125338	0	1	0	0	CorrectCommission	0.287560	0.826412	0	0	6.714706e+01
257.674866	1.279895	city	6	1	1.145451	1.145451	0	1	0	0	CorrectCommission	0.197154	0.818866	0	0	6.805882e+01
258.987946	1.346216	city	10	1	0.912696	0.912696	0	1	0	0	CorrectCommission	1.243345	0.808906	0	0	6.897059e+01
260.307495	1.292905	city	2	1	1.478702	1.478702	0	1	0	0	CorrectCommission	1.300742	0.796480	0	0	6.988235e+01
261.600403	1.292928	city	8	1	1.317172	1.317172	0	1	0	0	CorrectCommission	0.574699	0.781421	0	0	7.079412e+01
262.893311	1.292873	city	7	1	1.194211	1.194211	0	1	0	0	CorrectCommission	0.022011	0.763501	0	0	7.170588e+01
264.192780	1.306088	city	10	1	1.380094	1.380094	0	1	0	0	CorrectCommission	0.857519	0.742544	1	0	7.261765e+01
265.485718	1.279762	city	4	1	1.298862	1.298862	0	1	0	0	CorrectCommission	0.492399	0.718581	1	0	7.352941e+01
266.765320	1.279463	city	5	1	1.711339	1.711339	0	1	0	0	CorrectCommission	2.346401	0.692028	1	0	7.444118e+01
268.051483	1.292859	city	3	1	1.425086	1.425086	0	1	0	0	CorrectCommission	1.059748	0.663745	1	0	7.535294e+01
269.344421	1.293032	city	8	1	1.204781	1.204781	0	1	0	0	CorrectCommission	0.069524	0.635100	1	0	7.626471e+01
270.657410	1.332930	city	10	1	1.042116	1.042116	0	1	0	0	CorrectCommission	0.661626	0.607757	1	0	7.717647e+01
271.963654	1.279563	city	3	1	1.187429	1.187429	0	1	0	0	CorrectCommission	0.008474	0.583441	1	0	7.808824e+01
275.935608	6.664332	break	0	0	0.000000	1.271794	0	0	0	0	ThoughtProbe	0.370732	0.563685	1	79	79
279.934296	1.333056	mountain	6	1	1.284773	1.284773	0	0	1	0	CommissionError	0.429069	0.549505	1	0	78
281.240601	1.279522	city	10	1	1.215925	1.215925	0	1	0	0	CorrectCommission	0.119611	0.541202	1	0	77
282.533478	1.306269	city	8	1	1.108384	1.108384	0	1	0	0	CorrectCommission	0.363763	0.538274	1	0	76
283.826416	1.279584	city	2	1	1.100156	1.100156	0	1	0	0	CorrectCommission	0.400746	0.539454	1	0	75
285.119293	1.306176	city	4	1	1.168230	1.168230	0	1	0	0	CorrectCommission	0.094769	0.542944	1	0	74
286.418793	1.292832	city	8	1	1.017190	1.017190	0	1	0	0	CorrectCommission	0.773665	0.546718	1	0	73
287.705017	1.279588	city	4	1	0.965017	0.965017	0	1	0	0	CorrectCommission	1.008170	0.548852	1	0	72
288.991333	1.293036	city	9	1	0.923632	0.923632	0	1	0	0	CorrectCommission	1.194189	0.547897	1	0	71
290.290955	1.306259	city	10	1	0.927696	0.927696	0	1	0	0	CorrectCommission	1.175921	0.543112	1	0	70
291.583862	1.279552	mountain	1	0	0.000000	1.026508	1	0	0	0	CorrectOmission	0.731780	0.534546	1	0	69
292.863434	1.279596	city	10	1	1.145037	1.145037	0	1	0	0	CorrectCommission	0.199016	0.522990	1	0	68
294.143005	1.279499	city	4	1	1.208252	1.208252	0	1	0	0	CorrectCommission	0.085125	0.509741	1	0	67
295.429230	1.292951	city	10	1	1.035100	1.035100	0	1	0	0	CorrectCommission	0.693161	0.496318	1	0	66
296.735413	1.319451	city	5	1	1.212231	1.212231	0	1	0	0	CorrectCommission	0.103010	0.484150	1	0	65
298.041626	1.292977	city	4	1	1.208372	1.208372	0	1	0	0	CorrectCommission	0.085664	0.474317	1	0	64
299.327881	1.279485	city	7	1	1.252996	1.252996	0	1	0	0	CorrectCommission	0.286237	0.467401	1	0	63
300.620728	1.306256	city	2	1	1.154956	1.154956	0	1	0	0	CorrectCommission	0.154433	0.463406	1	0	62
301.920410	1.293077	city	5	1	0.986424	0.986424	0	1	0	0	CorrectCommission	0.911952	0.461912	1	0	61
303.213379	1.292904	city	8	1	1.088824	1.088824	0	1	0	0	CorrectCommission	0.451681	0.462224	1	0	60
304.506287	1.292888	city	5	1	1.036765	1.036765	0	1	0	0	CorrectCommission	0.685679	0.463610	1	0	59
305.792542	1.279606	city	10	1	1.075735	1.075735	0	1	0	0	CorrectCommission	0.510513	0.465488	1	0	58
307.072113	1.279552	city	6	1	1.431095	1.431095	0	1	0	0	CorrectCommission	1.086760	0.467563	1	0	57
308.371613	1.319447	city	3	1	1.218825	1.218825	0	1	0	0	CorrectCommission	0.132646	0.469874	1	0	56
309.684448	1.306195	city	1	1	1.059813	1.059813	0	1	0	0	CorrectCommission	0.582079	0.472802	1	0	55
311.050720	1.426359	city	5	1	1.154670	1.154670	0	1	0	0	CorrectCommission	0.155719	0.476882	1	0	54
312.416992	1.306225	city	9	1	1.217605	1.217605	0	1	0	0	CorrectCommission	0.127161	0.482697	1	0	53
313.743103	1.345997	city	7	1	1.245163	1.245163	0	1	0	0	CorrectCommission	0.251031	0.490741	1	0	52
315.056030	1.279825	city	3	1	1.311831	1.311831	0	1	0	0	CorrectCommission	0.550693	0.501304	1	0	51
316.382324	1.372767	city	6	1	1.217499	1.217499	0	1	0	0	CorrectCommission	0.126689	0.514444	1	0	50
317.715240	1.293039	city	5	1	1.551735	1.551735	0	1	0	0	CorrectCommission	1.629015	0.529995	1	0	49
319.014771	1.306049	city	1	1	1.316531	1.316531	0	1	0	0	CorrectCommission	0.571817	0.547594	1	0	48
320.327667	1.319729	city	9	1	1.170300	1.170300	0	1	0	0	CorrectCommission	0.085464	0.566874	1	0	47
321.640656	1.306262	city	7	1	1.217489	1.217489	0	1	0	0	CorrectCommission	0.126642	0.587443	1	0	46
325.139435	5.691297	break	0	0	0.000000	1.305072	0	0	0	0	ThoughtProbe	0.520309	0.609009	1	45	45
328.631561	1.292982	mountain	4	0	0.000000	1.388658	1	0	0	0	CorrectOmission	0.896013	0.631445	1	0	4.477500e+01
329.917816	1.279502	city	3	1	1.423857	1.423857	0	1	0	0	CorrectCommission	1.054228	0.654849	1	0	4.455000e+01
331.197937	1.280738	city	8	1	1.366280	1.366280	0	1	0	0	CorrectCommission	0.795430	0.679509	1	0	4.432500e+01
332.504181	1.331725	city	1	1	1.309158	1.309158	0	1	0	0	CorrectCommission	0.538678	0.705866	1	0	4.410000e+01
333.809906	1.279749	mountain	9	0	0.000000	1.359724	1	0	0	0	CorrectOmission	0.765960	0.734417	1	0	4.387500e+01
335.089508	1.279475	city	1	1	1.361120	1.361120	0	1	0	0	CorrectCommission	0.772235	0.765523	0	0	4.365000e+01
336.389008	1.319493	city	9	1	1.156489	1.156489	0	1	0	0	CorrectCommission	0.147542	0.799288	0	0	4.342500e+01
337.708618	1.319751	city	3	1	1.028741	1.028741	0	1	0	0	CorrectCommission	0.721744	0.835409	0	0	4.320000e+01
339.014954	1.292889	city	2	1	0.937288	0.937288	0	1	0	0	CorrectCommission	1.132808	0.873059	0	0	4.297500e+01
340.307831	1.292909	city	5	1	0.934129	0.934129	0	1	0	0	CorrectCommission	1.147005	0.910876	0	0	4.275000e+01
341.600677	1.292740	city	9	1	1.141885	1.141885	0	1	0	0	CorrectCommission	0.213183	0.947080	0	0	4.252500e+01
342.893585	1.293115	city	8	1	0.990910	0.990910	0	1	0	0	CorrectCommission	0.891787	0.979648	0	0	4.230000e+01
344.186584	1.292864	city	5	1	0.910979	0.910979	0	1	0	0	CorrectCommission	1.251059	1.006528	0	0	4.207500e+01
345.486084	1.306121	city	8	1	0.787383	0.787383	0	1	0	0	CorrectCommission	1.806601	1.026022	0	0	4.185000e+01
346.778931	1.279556	city	4	1	0.982866	0.982866	0	1	0	0	CorrectCommission	0.927945	1.037029	0	0	4.162500e+01
348.065216	1.293043	mountain	8	0	0.000000	1.498980	1	0	0	0	CorrectOmission	1.391888	1.039316	0	0	4.140000e+01
349.371643	1.319788	city	7	1	1.788657	1.788657	0	1	0	0	CorrectCommission	2.693929	1.033581	0	0	4.117500e+01
350.704498	1.345956	city	2	1	1.304827	1.304827	0	1	0	0	CorrectCommission	0.519210	1.021362	0	0	4.095000e+01
352.017303	1.279627	city	6	1	1.231690	1.231690	0	1	0	0	CorrectCommission	0.190474	1.004952	0	0	4.072500e+01
353.310181	1.306123	city	8	1	0.945853	0.945853	0	1	0	0	CorrectCommission	1.094310	0.986939	0	0	4.050000e+01
354.609650	1.292857	city	1	1	0.877247	0.877247	0	1	0	0	CorrectCommission	1.402682	0.969807	0	0	4.027500e+01
355.909210	1.306238	city	9	1	1.273582	1.273582	0	1	0	0	CorrectCommission	0.378768	0.955581	0	0	4.005000e+01
357.222168	1.319688	city	4	1	1.253826	1.253826	0	1	0	0	CorrectCommission	0.289968	0.945528	0	0	3.982500e+01
358.535126	1.306203	city	8	1	0.987813	0.987813	0	1	0	0	CorrectCommission	0.905706	0.939924	0	0	3.960000e+01
359.847961	1.319487	city	3	1	1.067625	1.067625	0	1	0	0	CorrectCommission	0.546966	0.938083	0	0	3.937500e+01
361.154236	1.293061	city	6	1	1.077039	1.077039	0	1	0	0	CorrectCommission	0.504656	0.938581	0	0	3.915000e+01
362.453888	1.306234	city	1	1	0.964716	0.964716	0	1	0	0	CorrectCommission	1.009523	0.939568	0	0	3.892500e+01
363.793427	1.372884	city	3	1	0.847746	0.847746	0	1	0	0	CorrectCommission	1.535281	0.939182	0	0	3.870000e+01
365.139679	1.319595	city	1	1	0.801723	0.801723	0	1	0	0	CorrectCommission	1.742147	0.935981	0	0	3.847500e+01
366.439240	1.279550	city	5	1	0.811327	0.811327	0	1	0	0	CorrectCommission	1.698975	0.929253	0	0	3.825000e+01
367.732147	1.306242	city	10	1	0.894455	0.894455	0	1	0	0	CorrectCommission	1.325332	0.919171	0	0	3.802500e+01
369.024963	1.279413	city	2	1	1.181867	1.181867	0	1	0	0	CorrectCommission	0.033473	0.906774	0	0	3.780000e+01
370.317871	1.306384	city	5	1	1.434674	1.434674	0	1	0	0	CorrectCommission	1.102846	0.893766	0	0	3.757500e+01
371.624207	1.306275	city	10	1	1.258291	1.258291	0	1	0	0	CorrectCommission	0.310038	0.882104	0	0	3.735000e+01
372.930450	1.306213	city	9	1	1.098897	1.098897	0	1	0	0	CorrectCommission	0.406408	0.873734	0	0	3.712500e+01
374.223358	1.279601	city	4	1	1.020730	1.020730	0	1	0	0	CorrectCommission	0.757753	0.870153	0	0	3.690000e+01
375.516266	1.306214	city	2	1	0.995298	0.995298	0	1	0	0	CorrectCommission	0.872064	0.872233	0	0	3.667500e+01
376.815826	1.292908	city	3	1	0.979856	0.979856	0	1	0	0	CorrectCommission	0.941472	0.880094	0	0	3.645000e+01
378.102020	1.279512	city	6	1	1.350729	1.350729	0	1	0	0	CorrectCommission	0.725531	0.893101	0	0	3.622500e+01
378.741791	9.796740	break	0	1	1.231853	1.231853	0	0	0	0	ThoughtProbe	0.191207	0.910063	0	36	36
389.184967	1.292875	mountain	5	0	0.000000	1.408614	1	0	0	0	CorrectOmission	0.985713	0.929426	0	0	3.680435e+01
390.484497	1.306216	city	6	1	1.592117	1.592117	0	1	0	0	CorrectCommission	1.810521	0.949479	0	0	3.760870e+01
391.784180	1.293094	city	5	1	1.493467	1.493467	0	1	0	0	CorrectCommission	1.367107	0.968611	0	0	3.841304e+01
393.083740	1.306073	city	7	1	1.397461	1.397461	0	1	0	0	CorrectCommission	0.935582	0.985524	0	0	3.921739e+01
394.389984	1.306371	city	1	1	0.989534	0.989534	0	1	0	0	CorrectCommission	0.897972	0.999292	0	0	4.002174e+01
395.702881	1.319437	city	3	1	0.969008	0.969008	0	1	0	0	CorrectCommission	0.990233	1.009339	0	0	4.082609e+01
397.002472	1.279733	city	9	1	0.941535	0.941535	0	1	0	0	CorrectCommission	1.113716	1.015393	0	0	4.163043e+01
398.295410	1.306135	city	6	1	1.021691	1.021691	0	1	0	0	CorrectCommission	0.753431	1.017391	0	0	4.243478e+01
399.601624	1.306315	city	7	1	0.985155	0.985155	0	1	0	0	CorrectCommission	0.917653	1.015354	0	0	4.323913e+01
400.901154	1.292775	city	6	1	0.987397	0.987397	0	1	0	0	CorrectCommission	0.907577	1.009280	0	0	4.404348e+01
402.194061	1.293025	city	9	1	0.765758	0.765758	0	1	0	0	CorrectCommission	1.903803	0.999110	0	0	4.484783e+01
403.493683	1.306187	city	10	1	0.941186	0.941186	0	1	0	0	CorrectCommission	1.115287	0.984664	0	0	4.565217e+01
404.799835	1.306146	city	8	1	1.053399	1.053399	0	1	0	0	CorrectCommission	0.610912	0.965715	0	0	4.645652e+01
406.119446	1.333078	city	7	1	0.896794	0.896794	0	1	0	0	CorrectCommission	1.314821	0.942032	0	0	4.726087e+01
407.439026	1.306072	city	3	1	1.143114	1.143114	0	1	0	0	CorrectCommission	0.207658	0.913359	0	0	4.806522e+01
408.731934	1.279717	mountain	8	0	0.000000	1.346360	1	0	0	0	CorrectOmission	0.705893	0.879625	0	0	4.886957e+01
410.025635	1.307731	city	4	1	1.473743	1.473743	0	1	0	0	CorrectCommission	1.278452	0.840975	0	0	4.967391e+01
411.318573	1.278105	mountain	5	0	0.000000	1.492473	1	0	0	0	CorrectOmission	1.362642	0.797902	0	0	5.047826e+01
412.597412	1.279562	city	10	1	1.449505	1.449505	0	1	0	0	CorrectCommission	1.169509	0.751338	1	0	5.128261e+01
413.890289	1.306218	city	1	1	1.391791	1.391791	0	1	0	0	CorrectCommission	0.910096	0.702645	1	0	5.208696e+01
415.189850	1.292916	city	6	1	1.301589	1.301589	0	1	0	0	CorrectCommission	0.504655	0.653588	1	0	5.289130e+01
416.502777	1.332903	city	9	1	1.117000	1.117000	0	1	0	0	CorrectCommission	0.325037	0.606164	1	0	5.369565e+01
417.808960	1.279502	mountain	7	0	0.000000	1.172584	1	0	0	0	CorrectOmission	0.075196	0.562448	1	0	5.450000e+01
419.088501	1.279590	city	9	1	1.284681	1.284681	0	1	0	0	CorrectCommission	0.428658	0.524382	1	0	5.530435e+01
420.374786	1.292985	city	1	1	1.269630	1.269630	0	1	0	0	CorrectCommission	0.361003	0.493601	1	0	5.610870e+01
421.687744	1.332907	city	2	1	1.196270	1.196270	0	1	0	0	CorrectCommission	0.031268	0.471324	1	0	5.691304e+01
423.000580	1.292741	city	4	1	1.328763	1.328763	0	1	0	0	CorrectCommission	0.626795	0.458253	1	0	5.771739e+01
424.293335	1.292800	city	9	1	1.257533	1.257533	0	1	0	0	CorrectCommission	0.306632	0.454559	1	0	5.852174e+01
425.606323	1.333171	city	1	1	1.149194	1.149194	0	1	0	0	CorrectCommission	0.180330	0.459927	1	0	5.932609e+01
426.912628	1.279417	city	7	1	1.310066	1.310066	0	1	0	0	CorrectCommission	0.542756	0.473639	1	0	6.013043e+01
428.225464	1.346283	city	2	1	1.138860	1.138860	0	1	0	0	CorrectCommission	0.226778	0.494595	1	0	6.093478e+01
429.558350	1.319493	city	7	1	1.152270	1.152270	0	1	0	0	CorrectCommission	0.166506	0.521440	1	0	6.173913e+01
430.857971	1.279754	city	2	1	1.506585	1.506585	0	1	0	0	CorrectCommission	1.426071	0.552588	1	0	6.254348e+01
432.150879	1.306075	city	1	1	1.271754	1.271754	0	1	0	0	CorrectCommission	0.370554	0.586284	1	0	6.334783e+01
433.463715	1.319544	city	4	1	1.155181	1.155181	0	1	0	0	CorrectCommission	0.153422	0.620713	1	0	6.415217e+01
434.796600	1.346224	city	1	1	1.106954	1.106954	0	1	0	0	CorrectCommission	0.370193	0.653982	1	0	6.495652e+01
436.109528	1.279663	city	3	1	1.023216	1.023216	0	1	0	0	CorrectCommission	0.746577	0.684266	1	0	6.576087e+01
437.395874	1.293014	city	9	1	0.925716	0.925716	0	1	0	0	CorrectCommission	1.184821	0.709888	1	0	6.656522e+01
438.695496	1.306241	city	7	1	1.386650	1.386650	0	1	0	0	CorrectCommission	0.886987	0.729431	1	0	6.736957e+01
439.995056	1.292897	city	6	1	1.601792	1.601792	0	1	0	0	CorrectCommission	1.854007	0.741888	1	0	6.817391e+01
441.314636	1.346223	city	5	1	1.195327	1.195327	0	1	0	0	CorrectCommission	0.027028	0.746717	1	0	6.897826e+01
442.634186	1.292895	city	4	1	1.027476	1.027476	0	1	0	0	CorrectCommission	0.727432	0.744007	1	0	6.978261e+01
443.933746	1.306233	city	5	1	0.998164	0.998164	0	1	0	0	CorrectCommission	0.859180	0.734361	1	0	7.058696e+01
445.226593	1.279463	city	4	1	0.967242	0.967242	0	1	0	0	CorrectCommission	0.998168	0.718929	1	0	7.139130e+01
446.512726	1.292826	city	6	1	0.885728	0.885728	0	1	0	0	CorrectCommission	1.364557	0.699311	1	0	7.219565e+01
447.159149	8.770478	break	0	0	0.000000	1.125650	0	0	0	0	ThoughtProbe	0.286156	0.677433	1	73	73
456.576080	1.292912	city	7	1	1.340163	1.340163	0	1	0	0	CorrectCommission	0.678037	0.655401	1	0	7.358696e+01
457.889008	1.332899	city	6	1	1.182422	1.182422	0	1	0	0	CorrectCommission	0.030977	0.635314	1	0	7.417391e+01
459.235321	1.359761	city	2	1	0.951426	0.951426	0	1	0	0	CorrectCommission	1.069262	0.619131	1	0	7.476087e+01
460.561615	1.292817	city	8	1	1.207374	1.207374	0	1	0	0	CorrectCommission	0.081176	0.608477	1	0	7.534783e+01
461.854431	1.292797	city	3	1	1.188920	1.188920	0	1	0	0	CorrectCommission	0.001770	0.604641	1	0	7.593478e+01
463.160736	1.319808	city	2	1	1.325140	1.325140	0	1	0	0	CorrectCommission	0.610511	0.608405	1	0	7.652174e+01
464.467041	1.292837	city	8	1	1.438592	1.438592	0	1	0	0	CorrectCommission	1.120457	0.620060	1	0	7.710870e+01
465.786560	1.346206	mountain	5	0	0.000000	1.361792	1	0	0	0	CorrectOmission	0.775256	0.639431	1	0	7.769565e+01
467.132751	1.346168	city	9	1	1.196166	1.196166	0	1	0	0	CorrectCommission	0.030797	0.665910	1	0	7.828261e+01
468.445648	1.279651	city	5	1	1.043138	1.043138	0	1	0	0	CorrectCommission	0.657034	0.698520	1	0	7.886957e+01
469.725281	1.279609	city	1	1	1.015603	1.015603	0	1	0	0	CorrectCommission	0.780795	0.736019	1	0	7.945652e+01
471.011536	1.292875	city	5	1	1.270259	1.270259	0	1	0	0	CorrectCommission	0.363835	0.777064	0	0	8.004348e+01
472.297760	1.279584	mountain	10	0	0.000000	1.110663	1	0	0	0	CorrectOmission	0.353520	0.820388	0	0	8.063043e+01
473.610657	1.346207	city	2	1	1.060569	1.060569	0	1	0	0	CorrectCommission	0.578685	0.864974	0	0	8.121739e+01
474.930206	1.292903	city	10	1	1.643730	1.643730	0	1	0	0	CorrectCommission	2.042512	0.910235	0	0	8.180435e+01
476.249786	1.346227	city	6	1	1.538528	1.538528	0	1	0	0	CorrectCommission	1.569649	0.956114	0	0	8.239130e+01
477.582672	1.319584	mountain	2	0	0.000000	1.446787	1	0	0	0	CorrectOmission	1.157289	1.003168	0	0	8.297826e+01
478.882263	1.279577	city	10	1	1.415329	1.415329	0	1	0	0	CorrectCommission	1.015894	1.052341	0	0	8.356522e+01
480.175110	1.306082	city	8	1	1.490978	1.490978	0	1	0	0	CorrectCommission	1.355923	1.104719	0	0	8.415217e+01
481.481323	1.306398	city	10	1	1.116974	1.116974	0	1	0	0	CorrectCommission	0.325153	1.161155	0	0	8.473913e+01
482.774231	1.279396	city	6	1	1.286226	1.286226	0	1	0	0	CorrectCommission	0.435603	1.221873	0	0	8.532609e+01
484.053802	1.279762	city	9	1	0.991201	0.991201	0	1	0	0	CorrectCommission	0.890479	1.286162	0	0	8.591304e+01
485.340057	1.292732	city	4	1	1.100846	1.100846	0	1	0	0	CorrectCommission	0.397648	1.352248	0	0	8.650000e+01
486.659546	1.346256	city	7	1	0.703760	0.703760	0	1	0	0	CorrectCommission	2.182471	1.417436	0	0	8.708696e+01
487.985870	1.306372	city	1	1	0.822474	0.822474	0	1	0	0	CorrectCommission	1.648874	1.478278	0	0	8.767391e+01
489.285522	1.292916	city	9	1	0.765267	0.765267	0	1	0	0	CorrectCommission	1.906010	1.531165	0	0	8.826087e+01
490.598419	1.332892	city	4	1	0.643031	0.643031	0	1	0	0	CorrectCommission	2.455433	1.572761	0	0	8.884783e+01
491.931305	1.332871	city	10	1	0.581919	0.581919	0	1	0	0	CorrectCommission	2.730121	1.600502	0	0	8.943478e+01
493.264191	1.332927	city	7	1	1.037142	1.037142	0	1	0	0	CorrectCommission	0.683981	1.612988	0	0	9.002174e+01
494.623688	1.386050	city	1	1	0.782922	0.782922	0	1	0	0	CorrectCommission	1.826654	1.610224	0	0	9.060870e+01
495.976532	1.319677	city	9	1	0.615618	0.615618	0	1	0	0	CorrectCommission	2.578652	1.593554	0	0	9.119565e+01
497.316162	1.359575	city	4	1	0.590232	0.590232	0	1	0	0	CorrectCommission	2.692754	1.565505	0	0	9.178261e+01
498.635773	1.279599	city	1	1	0.751093	0.751093	0	1	0	0	CorrectCommission	1.969719	1.529422	0	0	9.236957e+01
499.928680	1.306263	city	3	1	1.220569	1.220569	0	1	0	0	CorrectCommission	0.140484	1.489037	0	0	9.295652e+01
501.241577	1.319541	city	8	1	1.075130	1.075130	0	1	0	0	CorrectCommission	0.513235	1.448068	0	0	9.354348e+01
502.547729	1.292743	city	5	1	1.045342	1.045342	0	1	0	0	CorrectCommission	0.647126	1.409795	0	0	9.413043e+01
503.833984	1.279743	mountain	6	0	0.000000	1.289002	1	0	0	0	CorrectOmission	0.448079	1.376835	0	0	9.471739e+01
505.113617	1.279560	city	7	1	1.640529	1.640529	0	1	0	0	CorrectCommission	2.028122	1.351100	0	0	9.530435e+01
506.413177	1.319564	city	1	1	1.934340	1.934340	0	1	0	0	CorrectCommission	3.348746	1.333779	0	0	9.589130e+01
507.752716	1.359472	city	6	1	1.543421	1.543421	0	1	0	0	CorrectCommission	1.591643	1.325426	0	0	9.647826e+01
509.132233	1.399550	city	1	1	1.150368	1.150368	0	1	0	0	CorrectCommission	0.175052	1.326108	0	0	9.706522e+01
510.485077	1.306143	city	6	1	1.092140	1.092140	0	1	0	0	CorrectCommission	0.436776	1.335420	0	0	9.765217e+01
511.791351	1.306420	city	1	1	0.885876	0.885876	0	1	0	0	CorrectCommission	1.363893	1.352465	0	0	9.823913e+01
513.084351	1.279556	city	9	1	1.016178	1.016178	0	1	0	0	CorrectCommission	0.778212	1.375874	0	0	9.882609e+01
514.383850	1.319428	city	10	1	0.943207	0.943207	0	1	0	0	CorrectCommission	1.106204	1.403848	0	0	9.941304e+01
517.936096	5.785105	break	0	0	0.000000	0.870235	0	0	0	0	ThoughtProbe	1.434197	1.434197	0	100	100
