onset	duration	trial_type	image_type	Press	ReactionTime	ReactionTime_Interpolated	CorrectOmission	CorrectCommission	CommissionError	OmissionError	response_type	nonsmoothVarianceTimeCourse	VarianceTimeCourse	In_the_Zone	ThoughtProbe	ThoughtProbe_Interpolated
0.664992	1.306617	city	10	1	1.106579	1.106579	0	1	0	0	CorrectCommission	1.925773	1.925773	0	0	99
1.971323	1.306046	city	7	1	1.448248	1.448248	0	1	0	0	CorrectCommission	0.018181	1.812793	0	0	99
3.264139	1.279586	city	5	1	1.237543	1.237543	0	1	0	0	CorrectCommission	1.180641	1.703170	0	0	99
4.543734	1.279604	city	8	1	1.287629	1.287629	0	1	0	0	CorrectCommission	0.895674	1.599800	0	0	99
5.823316	1.279561	mountain	7	0	0.000000	1.244312	1	0	0	0	CorrectOmission	1.142128	1.504785	0	0	99
7.102879	1.279566	city	8	1	1.196129	1.196129	0	1	0	0	CorrectCommission	1.416269	1.419253	0	0	99
8.382465	1.279608	city	9	1	1.231616	1.231616	0	1	0	0	CorrectCommission	1.214363	1.343403	0	0	99
9.668790	1.293040	city	1	1	1.248767	1.248767	0	1	0	0	CorrectCommission	1.116782	1.276669	0	0	99
10.955019	1.279418	city	9	1	1.070968	1.070968	0	1	0	0	CorrectCommission	2.128383	1.218003	0	0	99
12.234524	1.279592	city	3	1	1.230673	1.230673	0	1	0	0	CorrectCommission	1.219727	1.166157	0	0	99
13.514196	1.279752	city	6	1	1.289211	1.289211	0	1	0	0	CorrectCommission	0.886672	1.119925	0	0	99
14.807108	1.306073	city	2	1	1.215405	1.215405	0	1	0	0	CorrectCommission	1.306597	1.078345	0	0	99
16.099855	1.279420	mountain	3	0	0.000000	1.481982	1	0	0	0	CorrectOmission	0.210114	1.040668	0	0	99
17.380108	1.281086	city	5	1	1.637600	1.637600	0	1	0	0	CorrectCommission	1.095518	1.006402	0	0	99
18.659800	1.278298	city	8	1	1.230919	1.230919	0	1	0	0	CorrectCommission	1.218329	0.975194	0	0	99
19.938694	1.279491	city	9	1	1.342200	1.342200	0	1	0	0	CorrectCommission	0.585184	0.946760	0	0	99
21.224987	1.293095	city	10	1	1.259064	1.259064	0	1	0	0	CorrectCommission	1.058194	0.920865	0	0	99
22.517988	1.292907	mountain	9	1	1.461656	1.461656	0	0	1	0	CommissionError	0.094470	0.897283	0	0	99
23.804220	1.279557	city	3	0	0.000000	1.290775	0	0	0	1	OmissionError	0.877773	0.875858	0	0	99
25.097036	1.306076	city	8	1	1.097789	1.097789	0	1	0	0	CorrectCommission	1.975782	0.856499	0	0	99
26.389866	1.279585	city	1	1	1.234067	1.234067	0	1	0	0	CorrectCommission	1.200417	0.839259	0	0	99
27.676189	1.293062	city	4	1	1.480192	1.480192	0	1	0	0	CorrectCommission	0.199930	0.824312	0	0	99
28.962509	1.279575	city	9	1	1.176918	1.176918	0	1	0	0	CorrectCommission	1.525572	0.811916	0	0	99
30.242016	1.279440	city	4	1	1.446269	1.446269	0	1	0	0	CorrectCommission	0.006923	0.802270	0	0	99
31.528265	1.293058	mountain	10	0	0.000000	1.481310	1	0	0	0	CorrectOmission	0.206292	0.795457	0	0	99
32.814594	1.279601	city	3	1	1.394612	1.394612	0	1	0	0	CorrectCommission	0.286986	0.791293	0	0	99
34.094090	1.279393	city	2	1	1.298744	1.298744	0	1	0	0	CorrectCommission	0.832432	0.789365	1	0	99
35.373657	1.279737	city	1	1	1.625844	1.625844	0	1	0	0	CorrectCommission	1.028630	0.789055	1	0	99
36.653316	1.279580	city	7	1	1.729434	1.729434	0	1	0	0	CorrectCommission	1.618013	0.789732	1	0	99
37.932819	1.279428	city	4	1	1.407805	1.407805	0	1	0	0	CorrectCommission	0.211923	0.790844	1	0	99
39.225735	1.306407	city	8	1	1.140278	1.140278	0	1	0	0	CorrectCommission	1.734042	0.792103	0	0	99
40.525383	1.292890	city	3	1	1.576067	1.576067	0	1	0	0	CorrectCommission	0.745422	0.793489	0	0	99
41.831551	1.319444	city	6	1	1.391399	1.391399	0	1	0	0	CorrectCommission	0.305265	0.795337	0	0	99
43.137798	1.293051	city	1	1	1.322418	1.322418	0	1	0	0	CorrectCommission	0.697737	0.798181	0	0	99
44.430779	1.292904	city	6	1	1.525724	1.525724	0	1	0	0	CorrectCommission	0.458992	0.802639	0	0	99
45.716942	1.279427	city	8	1	1.298965	1.298965	0	1	0	0	CorrectCommission	0.831178	0.809242	0	0	99
47.029755	1.346195	city	10	1	1.235236	1.235236	0	1	0	0	CorrectCommission	1.193766	0.818256	0	0	99
48.342690	1.279678	city	1	1	1.547323	1.547323	0	1	0	0	CorrectCommission	0.581877	0.829583	0	0	99
49.642475	1.319894	city	9	1	1.351293	1.351293	0	1	0	0	CorrectCommission	0.533453	0.842675	0	0	99
50.982067	1.359288	city	3	1	1.613046	1.613046	0	1	0	0	CorrectCommission	0.955819	0.856535	0	0	99
52.308105	1.292788	city	7	1	1.558378	1.558378	0	1	0	0	CorrectCommission	0.644776	0.869768	0	0	99
53.600945	1.292895	city	2	1	1.320332	1.320332	0	1	0	0	CorrectCommission	0.709608	0.880723	0	0	99
54.900505	1.306220	city	6	1	1.202242	1.202242	0	1	0	0	CorrectCommission	1.381493	0.887667	0	0	99
56.193439	1.279655	city	10	1	1.181056	1.181056	0	1	0	0	CorrectCommission	1.502030	0.889014	0	0	99
57.486439	1.306342	city	4	1	1.583003	1.583003	0	1	0	0	CorrectCommission	0.784886	0.883513	0	0	99
62.004993	7.730763	break	0	0	0.000000	1.616972	0	0	0	0	ThoughtProbe	0.978154	0.870492	0	99	99
66.516747	1.292739	city	4	1	1.408795	1.408795	0	1	0	0	CorrectCommission	0.206285	0.849935	0	0	9.902500e+01
67.816315	1.306401	city	8	1	1.084307	1.084307	0	1	0	0	CorrectCommission	2.052492	0.822595	0	0	9.905000e+01
69.122551	1.306077	city	7	1	1.271577	1.271577	0	1	0	0	CorrectCommission	0.987002	0.789869	1	0	9.907500e+01
70.435371	1.319560	city	2	1	1.301408	1.301408	0	1	0	0	CorrectCommission	0.817278	0.753778	1	0	9.910000e+01
71.734985	1.279666	city	6	1	1.322643	1.322643	0	1	0	0	CorrectCommission	0.696460	0.716658	1	0	9.912500e+01
73.047943	1.346256	city	2	1	1.385407	1.385407	0	1	0	0	CorrectCommission	0.339355	0.680928	1	0	9.915000e+01
74.380882	1.319613	city	3	1	1.511901	1.511901	0	1	0	0	CorrectCommission	0.380344	0.648725	1	0	9.917500e+01
75.693726	1.306074	city	10	1	1.381176	1.381176	0	1	0	0	CorrectCommission	0.363428	0.621634	1	0	9.920000e+01
76.986557	1.279596	mountain	10	0	0.000000	1.375135	1	0	0	0	CorrectOmission	0.397802	0.600495	1	0	9.922500e+01
78.266228	1.279749	city	4	1	1.405401	1.405401	0	1	0	0	CorrectCommission	0.225601	0.585257	1	0	9.925000e+01
79.545799	1.279394	city	2	1	1.383599	1.383599	0	1	0	0	CorrectCommission	0.349646	0.575059	1	0	9.927500e+01
80.838707	1.306418	city	6	1	1.474869	1.474869	0	1	0	0	CorrectCommission	0.169643	0.568392	1	0	9.930000e+01
82.131630	1.279430	city	10	1	1.354181	1.354181	0	1	0	0	CorrectCommission	0.517019	0.563420	1	0	9.932500e+01
83.431122	1.319546	city	4	1	1.654558	1.654558	0	1	0	0	CorrectCommission	1.192004	0.558356	1	0	9.935000e+01
84.730705	1.279631	mountain	9	0	0.000000	1.697733	1	0	0	0	CorrectOmission	1.437651	0.551813	1	0	9.937500e+01
86.010361	1.279677	city	7	1	1.563106	1.563106	0	1	0	0	CorrectCommission	0.671679	0.543077	1	0	9.940000e+01
87.289925	1.279446	city	10	1	1.330078	1.330078	0	1	0	0	CorrectCommission	0.654155	0.532308	1	0	9.942500e+01
88.596161	1.333033	city	5	1	1.557411	1.557411	0	1	0	0	CorrectCommission	0.639273	0.520482	1	0	9.945000e+01
89.909134	1.292905	city	4	1	1.439959	1.439959	0	1	0	0	CorrectCommission	0.028980	0.509219	1	0	9.947500e+01
91.202049	1.292930	mountain	3	0	0.000000	1.471714	1	0	0	0	CorrectOmission	0.151696	0.500536	1	0	9.950000e+01
92.488220	1.279406	city	4	1	1.539463	1.539463	0	1	0	0	CorrectCommission	0.537159	0.496500	1	0	9.952500e+01
93.787743	1.319640	city	2	1	1.529991	1.529991	0	1	0	0	CorrectCommission	0.483270	0.498877	1	0	9.955000e+01
95.100662	1.306197	city	1	1	1.459755	1.459755	0	1	0	0	CorrectCommission	0.083652	0.508890	1	0	9.957500e+01
96.406929	1.306343	city	3	1	1.473746	1.473746	0	1	0	0	CorrectCommission	0.163258	0.527011	1	0	9.960000e+01
97.739799	1.359396	city	2	1	1.495202	1.495202	0	1	0	0	CorrectCommission	0.285329	0.552949	1	0	9.962500e+01
99.065964	1.292935	city	3	1	1.371543	1.371543	0	1	0	0	CorrectCommission	0.418236	0.585695	1	0	9.965000e+01
100.365616	1.306375	city	9	1	1.432140	1.432140	0	1	0	0	CorrectCommission	0.073464	0.623679	1	0	9.967500e+01
101.671844	1.306073	city	1	1	1.196162	1.196162	0	1	0	0	CorrectCommission	1.416083	0.665006	1	0	9.970000e+01
102.978058	1.306352	city	9	1	1.256649	1.256649	0	1	0	0	CorrectCommission	1.071936	0.707637	1	0	9.972500e+01
104.297623	1.332781	city	6	1	1.236911	1.236911	0	1	0	0	CorrectCommission	1.184238	0.749617	1	0	9.975000e+01
105.603867	1.279713	city	5	1	1.318623	1.318623	0	1	0	0	CorrectCommission	0.719329	0.789198	1	0	9.977500e+01
106.903450	1.319454	city	8	1	1.340584	1.340584	0	1	0	0	CorrectCommission	0.594381	0.824883	0	0	9.980000e+01
108.229706	1.333046	city	4	1	1.276960	1.276960	0	1	0	0	CorrectCommission	0.956375	0.855450	0	0	9.982500e+01
109.535965	1.279474	city	1	1	1.301605	1.301605	0	1	0	0	CorrectCommission	0.816157	0.879904	0	0	9.985000e+01
110.862144	1.372890	city	7	1	1.481247	1.481247	0	1	0	0	CorrectCommission	0.205937	0.897486	0	0	9.987500e+01
112.208344	1.319513	city	2	1	1.226876	1.226876	0	1	0	0	CorrectCommission	1.241331	0.907720	0	0	9.990000e+01
113.507973	1.279737	city	6	1	1.124890	1.124890	0	1	0	0	CorrectCommission	1.821592	0.910461	0	0	9.992500e+01
114.787537	1.279397	city	8	1	1.284265	1.284265	0	1	0	0	CorrectCommission	0.914812	0.905972	0	0	9.995000e+01
116.120438	1.386399	city	10	1	1.233711	1.233711	0	1	0	0	CorrectCommission	1.202443	0.895036	0	0	9.997500e+01
120.085800	6.544333	break	0	0	0.000000	1.193293	0	0	0	0	ThoughtProbe	1.432404	0.878904	0	100	100
124.004494	1.293055	city	6	1	1.249134	1.249134	0	1	0	0	CorrectCommission	1.114697	0.859231	0	0	100
125.304131	1.306212	city	1	1	1.487354	1.487354	0	1	0	0	CorrectCommission	0.240679	0.837923	0	0	100
126.603706	1.292940	city	3	1	1.412571	1.412571	0	1	0	0	CorrectCommission	0.184804	0.816918	0	0	100
127.936630	1.372909	city	10	1	1.318143	1.318143	0	1	0	0	CorrectCommission	0.722061	0.797912	0	0	100
129.269531	1.292888	city	3	1	1.583008	1.583008	0	1	0	0	CorrectCommission	0.784911	0.782155	1	0	100
130.562439	1.292927	city	2	1	1.545143	1.545143	0	1	0	0	CorrectCommission	0.569476	0.770313	1	0	100
131.868637	1.319475	city	8	1	1.334285	1.334285	0	1	0	0	CorrectCommission	0.630220	0.762409	1	0	100
133.168198	1.279648	city	3	1	1.231538	1.231538	0	1	0	0	CorrectCommission	1.214808	0.757845	1	0	100
134.474472	1.332911	mountain	2	0	0.000000	1.461061	1	0	0	0	CorrectOmission	0.091083	0.755499	1	0	100
135.787369	1.292882	city	1	1	1.638849	1.638849	0	1	0	0	CorrectCommission	1.102627	0.753978	1	0	100
137.073608	1.279576	city	9	1	1.380900	1.380900	0	1	0	0	CorrectCommission	0.365000	0.751736	1	0	100
138.379761	1.332740	city	7	1	1.178028	1.178028	0	1	0	0	CorrectCommission	1.519256	0.747414	1	0	100
139.685913	1.279576	mountain	4	0	0.000000	1.261424	1	0	0	0	CorrectOmission	1.044766	0.739957	1	0	100
140.978836	1.306250	city	10	1	1.444470	1.444470	0	1	0	0	CorrectCommission	0.003312	0.728872	1	0	100
142.291809	1.319714	city	5	1	1.540547	1.540547	0	1	0	0	CorrectCommission	0.543326	0.714295	1	0	100
143.591461	1.279582	city	4	1	1.875416	1.875416	0	1	0	0	CorrectCommission	2.448596	0.696957	1	0	100
144.877716	1.292912	city	2	1	1.476623	1.476623	0	1	0	0	CorrectCommission	0.179626	0.678129	1	0	100
146.170624	1.292907	city	9	1	1.402234	1.402234	0	1	0	0	CorrectCommission	0.243618	0.659527	1	0	100
147.476822	1.319500	city	1	1	1.290385	1.290385	0	1	0	0	CorrectCommission	0.879995	0.642967	1	0	100
148.776413	1.279669	city	2	1	1.406749	1.406749	0	1	0	0	CorrectCommission	0.217930	0.630133	1	0	100
150.062698	1.292900	city	5	1	1.411789	1.411789	0	1	0	0	CorrectCommission	0.189256	0.622338	1	0	100
151.355530	1.292779	city	8	1	1.342925	1.342925	0	1	0	0	CorrectCommission	0.581063	0.620281	1	0	100
152.648438	1.293042	city	5	1	1.546496	1.546496	0	1	0	0	CorrectCommission	0.577175	0.623899	1	0	100
153.961411	1.332899	mountain	9	0	0.000000	1.467348	1	0	0	0	CorrectOmission	0.126856	0.632403	1	0	100
155.267654	1.279574	city	5	1	1.392276	1.392276	0	1	0	0	CorrectCommission	0.300275	0.644367	1	0	100
156.560547	1.306216	city	3	1	1.608074	1.608074	0	1	0	0	CorrectCommission	0.927525	0.657891	1	0	100
157.873383	1.319451	city	6	1	1.689001	1.689001	0	1	0	0	CorrectCommission	1.387968	0.670910	1	0	100
159.192856	1.319516	city	10	1	1.431452	1.431452	0	1	0	0	CorrectCommission	0.077377	0.681493	1	0	100
160.499069	1.292909	city	3	1	1.752980	1.752980	0	1	0	0	CorrectCommission	1.751983	0.688168	1	0	100
161.812027	1.333003	city	6	1	1.525070	1.525070	0	1	0	0	CorrectCommission	0.455267	0.689992	1	0	100
163.125031	1.292988	city	3	1	1.247660	1.247660	0	1	0	0	CorrectCommission	1.123078	0.686830	1	0	100
164.431213	1.319388	city	1	1	1.510976	1.510976	0	1	0	0	CorrectCommission	0.375082	0.679235	1	0	100
165.797485	1.413172	city	5	1	1.596589	1.596589	0	1	0	0	CorrectCommission	0.862181	0.668418	1	0	100
167.163788	1.319419	city	7	1	1.632722	1.632722	0	1	0	0	CorrectCommission	1.067766	0.656002	1	0	100
168.483200	1.319406	city	8	1	1.499972	1.499972	0	1	0	0	CorrectCommission	0.312474	0.643838	1	0	100
169.782700	1.279588	city	3	1	1.391797	1.391797	0	1	0	0	CorrectCommission	0.303002	0.633762	1	0	100
171.062271	1.279563	city	1	1	1.463342	1.463342	0	1	0	0	CorrectCommission	0.104060	0.627358	1	0	100
172.348511	1.292905	city	8	1	1.301986	1.301986	0	1	0	0	CorrectCommission	0.813988	0.625747	1	0	100
173.641418	1.292909	city	6	1	1.486623	1.486623	0	1	0	0	CorrectCommission	0.236521	0.629542	1	0	100
177.346954	6.118163	break	0	0	0.000000	1.353285	0	0	0	0	ThoughtProbe	0.522117	0.638809	1	100	100
181.065826	1.319601	city	10	1	1.218567	1.218567	0	1	0	0	CorrectCommission	1.288607	0.653033	1	0	100
182.365402	1.279528	city	5	1	1.399064	1.399064	0	1	0	0	CorrectCommission	0.261651	0.671195	1	0	100
183.651627	1.292934	mountain	8	0	0.000000	1.564782	1	0	0	0	CorrectOmission	0.681212	0.691891	1	0	100
184.937881	1.279582	city	3	1	1.621760	1.621760	0	1	0	0	CorrectCommission	1.005394	0.713348	1	0	100
186.230667	1.305983	city	9	1	1.476040	1.476040	0	1	0	0	CorrectCommission	0.176308	0.733581	1	0	100
187.536880	1.306443	city	5	1	1.341620	1.341620	0	1	0	0	CorrectCommission	0.588487	0.750534	1	0	100
188.863281	1.346357	city	8	1	1.310496	1.310496	0	1	0	0	CorrectCommission	0.765571	0.762196	1	0	100
190.196106	1.319296	city	6	1	1.133962	1.133962	0	1	0	0	CorrectCommission	1.769977	0.766784	1	0	100
191.502228	1.292931	city	4	1	1.568079	1.568079	0	1	0	0	CorrectCommission	0.699972	0.762920	1	0	100
192.801788	1.306208	city	7	1	1.315543	1.315543	0	1	0	0	CorrectCommission	0.736854	0.749895	1	0	100
194.114685	1.319570	city	10	1	1.161224	1.161224	0	1	0	0	CorrectCommission	1.614867	0.727652	1	0	100
195.414337	1.279740	city	6	1	1.551616	1.551616	0	1	0	0	CorrectCommission	0.606305	0.696933	1	0	100
196.713913	1.319400	city	7	1	1.327663	1.327663	0	1	0	0	CorrectCommission	0.667897	0.659227	1	0	100
198.033417	1.319607	city	8	1	1.262609	1.262609	0	1	0	0	CorrectCommission	1.038026	0.616653	1	0	100
199.359680	1.332923	mountain	2	0	0.000000	1.423872	1	0	0	0	CorrectOmission	0.120505	0.571767	1	0	100
200.672562	1.292839	city	5	1	1.574505	1.574505	0	1	0	0	CorrectCommission	0.736531	0.527351	1	0	100
201.958862	1.279764	city	4	1	1.477558	1.477558	0	1	0	0	CorrectCommission	0.184946	0.486095	1	0	100
203.271835	1.346202	city	5	1	1.423782	1.423782	0	1	0	0	CorrectCommission	0.121018	0.450463	1	0	100
204.584732	1.279587	city	6	1	1.474936	1.474936	0	1	0	0	CorrectCommission	0.170029	0.422406	1	0	100
205.864319	1.279572	city	7	1	1.391528	1.391528	0	1	0	0	CorrectCommission	0.304528	0.403251	1	0	100
207.170563	1.332930	city	2	1	1.436844	1.436844	0	1	0	0	CorrectCommission	0.046699	0.393685	1	0	100
208.490082	1.306111	city	1	1	1.405478	1.405478	0	1	0	0	CorrectCommission	0.225163	0.393783	1	0	100
209.809555	1.332834	city	8	1	1.465878	1.465878	0	1	0	0	CorrectCommission	0.118488	0.403114	1	0	100
211.129166	1.306391	city	9	1	1.578207	1.578207	0	1	0	0	CorrectCommission	0.757597	0.420868	1	0	100
212.435486	1.306237	city	2	1	1.501169	1.501169	0	1	0	0	CorrectCommission	0.319281	0.445999	1	0	100
213.755051	1.332901	city	9	1	1.556472	1.556472	0	1	0	0	CorrectCommission	0.633931	0.477410	1	0	100
215.074615	1.306228	city	10	1	1.451902	1.451902	0	1	0	0	CorrectCommission	0.038974	0.514046	1	0	100
216.374100	1.292746	city	3	1	1.383525	1.383525	0	1	0	0	CorrectCommission	0.350063	0.554960	1	0	100
217.680267	1.319565	city	5	1	1.658661	1.658661	0	1	0	0	CorrectCommission	1.215345	0.599308	1	0	100
218.986496	1.292910	city	6	1	1.350908	1.350908	0	1	0	0	CorrectCommission	0.535640	0.646289	1	0	100
220.272827	1.279757	city	7	1	1.630608	1.630608	0	1	0	0	CorrectCommission	1.055737	0.695114	1	0	100
221.599167	1.372900	city	8	1	1.450137	1.450137	0	1	0	0	CorrectCommission	0.028932	0.744845	1	0	100
222.951920	1.332632	city	3	1	1.368789	1.368789	0	1	0	0	CorrectCommission	0.433903	0.794350	0	0	100
226.883881	6.531269	break	0	0	0.000000	1.256109	0	0	0	0	ThoughtProbe	1.075010	0.842228	0	100	100
230.809387	1.319743	city	9	1	1.244422	1.244422	0	1	0	0	CorrectCommission	1.141504	0.886825	0	0	100
232.109024	1.279549	city	10	1	1.466055	1.466055	0	1	0	0	CorrectCommission	0.119498	0.926301	0	0	100
233.395187	1.292780	city	5	1	1.899092	1.899092	0	1	0	0	CorrectCommission	2.583299	0.958822	0	0	100
234.688019	1.292870	city	2	1	1.652627	1.652627	0	1	0	0	CorrectCommission	1.181016	0.982613	0	0	100
235.994324	1.319729	city	1	1	1.377960	1.377960	0	1	0	0	CorrectCommission	0.381727	0.996310	0	0	100
237.307220	1.306093	city	3	1	1.327402	1.327402	0	1	0	0	CorrectCommission	0.669381	0.999070	0	0	100
238.620087	1.319631	city	10	1	1.248576	1.248576	0	1	0	0	CorrectCommission	1.117871	0.990730	0	0	100
239.919739	1.279667	city	4	1	1.983076	1.983076	0	1	0	0	CorrectCommission	3.061136	0.971914	0	0	100
241.212601	1.306065	city	5	1	1.635443	1.635443	0	1	0	0	CorrectCommission	1.083247	0.944009	0	0	100
242.512100	1.292915	city	1	1	1.365398	1.365398	0	1	0	0	CorrectCommission	0.453197	0.909189	0	0	100
243.811722	1.306330	city	3	1	1.534117	1.534117	0	1	0	0	CorrectCommission	0.506742	0.870162	0	0	100
245.111343	1.292935	city	2	1	1.309897	1.309897	0	1	0	0	CorrectCommission	0.768977	0.829913	0	0	100
246.404251	1.292881	mountain	2	0	0.000000	1.379620	1	0	0	0	CorrectOmission	0.372283	0.791471	0	0	100
247.703857	1.306326	mountain	3	0	0.000000	1.558176	1	0	0	0	CorrectOmission	0.643628	0.757650	1	0	100
249.003464	1.292884	city	7	1	1.660456	1.660456	0	1	0	0	CorrectCommission	1.225558	0.730802	1	0	100
250.316360	1.332910	city	9	1	1.501350	1.501350	0	1	0	0	CorrectCommission	0.320312	0.712662	1	0	100
251.649216	1.332810	city	3	1	1.421076	1.421076	0	1	0	0	CorrectCommission	0.136417	0.704266	1	0	100
252.982071	1.332900	city	2	1	1.396104	1.396104	0	1	0	0	CorrectCommission	0.278498	0.705919	1	0	100
254.301682	1.306319	mountain	9	0	0.000000	1.314691	1	0	0	0	CorrectOmission	0.741699	0.717220	1	0	100
255.594543	1.279406	city	8	1	1.305362	1.305362	0	1	0	0	CorrectCommission	0.794777	0.737177	1	0	100
256.874054	1.279577	city	4	1	1.496639	1.496639	0	1	0	0	CorrectCommission	0.293511	0.764316	1	0	100
258.187042	1.346416	city	5	1	1.284428	1.284428	0	1	0	0	CorrectCommission	0.913885	0.796828	0	0	100
259.520050	1.319627	city	3	1	1.680090	1.680090	0	1	0	0	CorrectCommission	1.337270	0.832654	0	0	100
260.839600	1.319474	city	5	1	1.584977	1.584977	0	1	0	0	CorrectCommission	0.796113	0.869663	0	0	100
262.172485	1.346263	mountain	1	1	1.301135	1.301135	0	0	1	0	CommissionError	0.818829	0.905689	0	0	100
263.498627	1.306048	city	1	1	1.282750	1.282750	0	1	0	0	CorrectCommission	0.923433	0.938656	0	0	100
264.798187	1.293069	city	6	1	1.227025	1.227025	0	1	0	0	CorrectCommission	1.240485	0.966639	0	0	100
266.091095	1.292749	city	2	1	1.334111	1.334111	0	1	0	0	CorrectCommission	0.631209	0.987948	0	0	100
267.390594	1.306222	city	4	1	1.310754	1.310754	0	1	0	0	CorrectCommission	0.764101	1.001284	0	0	100
268.710144	1.332920	city	8	1	1.114530	1.114530	0	1	0	0	CorrectCommission	1.880537	1.005783	0	0	100
270.016479	1.279749	city	4	1	1.198329	1.198329	0	1	0	0	CorrectCommission	1.403754	1.001170	0	0	100
271.316162	1.319565	city	6	1	1.249709	1.249709	0	1	0	0	CorrectCommission	1.111425	0.987866	0	0	100
272.635712	1.319552	city	10	1	1.216282	1.216282	0	1	0	0	CorrectCommission	1.301607	0.966935	0	0	100
273.941925	1.292902	city	3	1	1.624188	1.624188	0	1	0	0	CorrectCommission	1.019212	0.940000	0	0	100
275.254822	1.332849	city	5	1	1.671679	1.671679	0	1	0	0	CorrectCommission	1.289415	0.909064	0	0	100
276.581055	1.319613	city	8	1	1.590716	1.590716	0	1	0	0	CorrectCommission	0.828768	0.876249	0	0	100
277.880646	1.279580	city	3	1	1.503255	1.503255	0	1	0	0	CorrectCommission	0.331153	0.843528	0	0	100
279.166840	1.292836	city	9	1	1.419263	1.419263	0	1	0	0	CorrectCommission	0.146730	0.812486	0	0	100
280.459747	1.292975	city	2	1	1.502583	1.502583	0	1	0	0	CorrectCommission	0.327327	0.784160	1	0	100
281.766022	1.319552	city	3	1	1.521737	1.521737	0	1	0	0	CorrectCommission	0.436307	0.759000	1	0	100
283.092194	1.332809	city	1	1	1.639257	1.639257	0	1	0	0	CorrectCommission	1.104949	0.736947	1	0	100
284.445068	1.372953	city	4	1	1.660743	1.660743	0	1	0	0	CorrectCommission	1.227190	0.717602	1	0	100
285.791351	1.319602	city	2	1	1.613058	1.613058	0	1	0	0	CorrectCommission	0.955884	0.700485	1	0	100
287.097595	1.292891	city	10	1	1.592058	1.592058	0	1	0	0	CorrectCommission	0.836403	0.685219	1	0	100
288.390442	1.292792	city	6	1	1.607002	1.607002	0	1	0	0	CorrectCommission	0.921431	0.671637	1	0	100
292.569000	7.064319	break	0	0	0.000000	1.488598	0	0	0	0	ThoughtProbe	0.247759	0.659852	1	100	100
296.740936	1.279550	city	5	1	1.420264	1.420264	0	1	0	0	CorrectCommission	0.141034	0.650261	1	0	100
298.053833	1.346259	city	6	1	1.585419	1.585419	0	1	0	0	CorrectCommission	0.798629	0.643416	1	0	100
299.366821	1.279726	city	8	1	1.298203	1.298203	0	1	0	0	CorrectCommission	0.835512	0.639910	1	0	100
300.659729	1.306082	city	2	1	1.432555	1.432555	0	1	0	0	CorrectCommission	0.071106	0.640309	1	0	100
301.965973	1.306377	city	1	1	1.386787	1.386787	0	1	0	0	CorrectCommission	0.331505	0.645087	1	0	100
303.258850	1.279408	city	10	1	1.534950	1.534950	0	1	0	0	CorrectCommission	0.511483	0.654507	1	0	100
304.551666	1.306241	city	3	1	1.674525	1.674525	0	1	0	0	CorrectCommission	1.305604	0.668664	1	0	100
305.864655	1.319727	city	6	1	1.569031	1.569031	0	1	0	0	CorrectCommission	0.705388	0.687422	1	0	100
307.190979	1.332913	mountain	5	0	0.000000	1.601055	1	0	0	0	CorrectOmission	0.887594	0.710425	1	0	100
308.497284	1.279679	city	6	1	1.604629	1.604629	0	1	0	0	CorrectCommission	0.907928	0.736999	1	0	100
309.783508	1.292807	city	7	1	1.413783	1.413783	0	1	0	0	CorrectCommission	0.177908	0.766124	1	0	100
311.076294	1.292730	mountain	10	0	0.000000	1.492978	1	0	0	0	CorrectOmission	0.272681	0.796414	0	0	100
312.369202	1.293067	city	3	1	1.574746	1.574746	0	1	0	0	CorrectCommission	0.737903	0.826134	0	0	100
313.655426	1.279424	city	4	1	1.391615	1.391615	0	1	0	0	CorrectCommission	0.304033	0.853308	0	0	100
314.948273	1.306237	city	7	1	1.342365	1.342365	0	1	0	0	CorrectCommission	0.584245	0.875962	0	0	100
316.274567	1.346365	city	9	1	1.133354	1.133354	0	1	0	0	CorrectCommission	1.773434	0.892355	0	0	100
317.600830	1.306178	city	2	1	0.992522	0.992522	0	1	0	0	CorrectCommission	2.574710	0.901228	0	0	100
318.920319	1.332810	city	3	1	1.124466	1.124466	0	1	0	0	CorrectCommission	1.824002	0.902048	0	0	100
320.226624	1.279745	city	4	1	1.529715	1.529715	0	1	0	0	CorrectCommission	0.481698	0.895042	0	0	100
321.512939	1.292928	city	3	1	1.318411	1.318411	0	1	0	0	CorrectCommission	0.720536	0.881141	0	0	100
322.832520	1.346221	city	5	1	1.405211	1.405211	0	1	0	0	CorrectCommission	0.226679	0.861768	0	0	100
324.158722	1.306209	city	9	1	1.513476	1.513476	0	1	0	0	CorrectCommission	0.389305	0.838658	0	0	100
325.464966	1.306243	city	1	1	1.398190	1.398190	0	1	0	0	CorrectCommission	0.266629	0.813589	0	0	100
326.777802	1.319430	city	10	1	1.233686	1.233686	0	1	0	0	CorrectCommission	1.202586	0.788274	1	0	100
328.090607	1.306211	city	9	1	1.281041	1.281041	0	1	0	0	CorrectCommission	0.933158	0.764275	1	0	100
329.390259	1.293090	city	4	1	1.204113	1.204113	0	1	0	0	CorrectCommission	1.370844	0.743082	1	0	100
330.676514	1.279420	city	2	1	1.319835	1.319835	0	1	0	0	CorrectCommission	0.712434	0.726103	1	0	100
331.956024	1.279605	city	8	1	1.307107	1.307107	0	1	0	0	CorrectCommission	0.784849	0.714722	1	0	100
333.262360	1.333033	city	6	1	1.424183	1.424183	0	1	0	0	CorrectCommission	0.118736	0.710204	1	0	100
334.581909	1.306049	city	10	1	1.332222	1.332222	0	1	0	0	CorrectCommission	0.641958	0.713627	1	0	100
335.881470	1.293075	city	8	1	1.360465	1.360465	0	1	0	0	CorrectCommission	0.481269	0.725654	1	0	100
337.174377	1.292780	city	3	1	1.328459	1.328459	0	1	0	0	CorrectCommission	0.663370	0.746373	1	0	100
338.467224	1.292885	city	8	1	1.483905	1.483905	0	1	0	0	CorrectCommission	0.221055	0.775158	1	0	100
342.932495	7.637649	break	0	0	0.000000	1.513635	0	0	0	0	ThoughtProbe	0.390206	0.810579	0	100	100
347.411041	1.319477	city	1	1	1.514388	1.514388	0	1	0	0	CorrectCommission	0.394490	0.850454	0	0	100
348.750580	1.359600	city	10	1	1.582902	1.582902	0	1	0	0	CorrectCommission	0.784311	0.892041	0	0	100
350.090149	1.319526	city	3	1	1.892907	1.892907	0	1	0	0	CorrectCommission	2.548112	0.932366	0	0	100
351.403015	1.306212	city	9	1	1.545877	1.545877	0	1	0	0	CorrectCommission	0.573654	0.968526	0	0	100
352.709229	1.306175	city	5	1	1.369678	1.369678	0	1	0	0	CorrectCommission	0.428846	0.998177	0	0	100
354.015411	1.306224	city	7	1	1.738004	1.738004	0	1	0	0	CorrectCommission	1.666774	1.019759	0	0	100
355.334961	1.332895	city	6	1	1.857197	1.857197	0	1	0	0	CorrectCommission	2.344937	1.032690	0	0	100
356.667938	1.333063	city	4	1	1.651863	1.651863	0	1	0	0	CorrectCommission	1.176668	1.037396	0	0	100
358.020935	1.372878	mountain	2	0	0.000000	1.627662	1	0	0	0	CorrectOmission	1.038973	1.035171	0	0	100
359.353821	1.292902	city	5	1	1.584855	1.584855	0	1	0	0	CorrectCommission	0.795419	1.027832	0	0	100
360.659973	1.319446	city	8	1	1.323703	1.323703	0	1	0	0	CorrectCommission	0.690427	1.017320	0	0	100
361.986176	1.332957	city	5	1	1.268706	1.268706	0	1	0	0	CorrectCommission	1.003336	1.005324	0	0	100
363.292480	1.279640	city	1	1	1.336457	1.336457	0	1	0	0	CorrectCommission	0.617864	0.992910	0	0	100
364.598755	1.332898	city	6	1	1.557555	1.557555	0	1	0	0	CorrectCommission	0.640098	0.980379	0	0	100
365.931641	1.332872	city	5	1	1.527968	1.527968	0	1	0	0	CorrectCommission	0.471759	0.967259	0	0	100
367.251190	1.306199	city	3	1	1.591487	1.591487	0	1	0	0	CorrectCommission	0.833151	0.952499	0	0	100
368.570679	1.332810	city	10	1	1.601386	1.601386	0	1	0	0	CorrectCommission	0.889475	0.934817	0	0	100
369.910187	1.346204	city	1	1	1.873802	1.873802	0	1	0	0	CorrectCommission	2.439408	0.913094	0	0	100
371.269775	1.372940	city	5	1	1.703395	1.703395	0	1	0	0	CorrectCommission	1.469864	0.886707	0	0	100
372.616058	1.319681	city	3	1	1.731778	1.731778	0	1	0	0	CorrectCommission	1.631352	0.855828	0	0	100
373.942352	1.332887	city	6	1	1.444602	1.444602	0	1	0	0	CorrectCommission	0.002560	0.821419	0	0	100
375.288574	1.359572	city	2	1	1.276743	1.276743	0	1	0	0	CorrectCommission	0.957610	0.785127	1	0	100
376.608154	1.279559	city	3	1	1.366168	1.366168	0	1	0	0	CorrectCommission	0.448816	0.748902	1	0	100
377.914368	1.332895	mountain	6	0	0.000000	1.468901	1	0	0	0	CorrectOmission	0.135690	0.714744	1	0	100
379.247375	1.333126	city	2	1	1.496812	1.496812	0	1	0	0	CorrectCommission	0.294495	0.684250	1	0	100
380.613525	1.399161	city	9	1	1.361775	1.361775	0	1	0	0	CorrectCommission	0.473814	0.658439	1	0	100
381.979645	1.333043	city	3	1	1.576611	1.576611	0	1	0	0	CorrectCommission	0.748514	0.637625	1	0	100
383.332611	1.372904	city	8	1	1.437443	1.437443	0	1	0	0	CorrectCommission	0.043291	0.621477	1	0	100
384.685486	1.332885	city	6	1	1.273873	1.273873	0	1	0	0	CorrectCommission	0.973939	0.609250	1	0	100
385.991638	1.279422	city	2	1	1.462955	1.462955	0	1	0	0	CorrectCommission	0.101861	0.599996	1	0	100
387.291229	1.319738	city	3	1	1.789192	1.789192	0	1	0	0	CorrectCommission	1.958014	0.592919	1	0	100
388.590881	1.279552	city	9	1	1.549322	1.549322	0	1	0	0	CorrectCommission	0.593254	0.587485	1	0	100
389.890350	1.319402	city	2	1	1.593138	1.593138	0	1	0	0	CorrectCommission	0.842550	0.583633	1	0	100
393.749023	6.397911	break	0	0	0.000000	1.538037	0	0	0	0	ThoughtProbe	0.529044	0.581641	1	100	100
397.587830	1.279726	city	7	1	1.458638	1.458638	0	1	0	0	CorrectCommission	0.077300	0.582039	1	0	100
398.880829	1.306257	mountain	10	0	0.000000	1.429564	1	0	0	0	CorrectOmission	0.088121	0.585378	1	0	100
400.173737	1.279559	city	7	1	1.419108	1.419108	0	1	0	0	CorrectCommission	0.147609	0.592034	1	0	100
401.473297	1.319587	city	4	1	1.395566	1.395566	0	1	0	0	CorrectCommission	0.281553	0.602091	1	0	100
402.786133	1.306081	mountain	2	0	0.000000	1.524084	1	0	0	0	CorrectOmission	0.449659	0.615316	1	0	100
404.085632	1.292933	city	6	1	1.662744	1.662744	0	1	0	0	CorrectCommission	1.238576	0.631233	1	0	100
405.405212	1.346223	city	7	1	1.669629	1.669629	0	1	0	0	CorrectCommission	1.277747	0.649298	1	0	100
406.731476	1.306301	city	8	1	1.374587	1.374587	0	1	0	0	CorrectCommission	0.400916	0.669038	1	0	100
408.037781	1.306307	city	7	1	1.694270	1.694270	0	1	0	0	CorrectCommission	1.417946	0.690220	1	0	100
409.364044	1.346223	city	10	1	1.510703	1.510703	0	1	0	0	CorrectCommission	0.373529	0.712798	1	0	100
410.710236	1.346135	city	5	1	1.403921	1.403921	0	1	0	0	CorrectCommission	0.234018	0.736970	1	0	100
412.056366	1.346148	city	1	1	1.449459	1.449459	0	1	0	0	CorrectCommission	0.025073	0.763017	1	0	100
413.409210	1.359534	city	10	1	1.590888	1.590888	0	1	0	0	CorrectCommission	0.829744	0.791155	1	0	100
414.735535	1.293083	city	4	1	1.779701	1.779701	0	1	0	0	CorrectCommission	1.904012	0.821363	0	0	100
416.055145	1.346143	city	7	1	1.536670	1.536670	0	1	0	0	CorrectCommission	0.521266	0.853257	0	0	100
417.428009	1.399616	city	9	1	1.345746	1.345746	0	1	0	0	CorrectCommission	0.565009	0.886106	0	0	100
418.774200	1.292757	city	8	1	1.323618	1.323618	0	1	0	0	CorrectCommission	0.690910	0.918668	0	0	100
420.073700	1.306240	city	5	1	1.345932	1.345932	0	1	0	0	CorrectCommission	0.563955	0.949337	0	0	100
421.400024	1.346389	city	8	1	1.254650	1.254650	0	1	0	0	CorrectCommission	1.083310	0.976242	0	0	100
422.746307	1.346218	city	6	1	1.127571	1.127571	0	1	0	0	CorrectCommission	1.806337	0.997471	0	0	100
424.079102	1.319378	city	9	1	1.203771	1.203771	0	1	0	0	CorrectCommission	1.372791	1.011257	0	0	100
425.392029	1.306434	city	3	1	1.256789	1.256789	0	1	0	0	CorrectCommission	1.071138	1.016242	0	0	100
426.724945	1.359408	city	8	1	1.225155	1.225155	0	1	0	0	CorrectCommission	1.251126	1.011668	0	0	100
428.057831	1.306365	city	9	1	1.532778	1.532778	0	1	0	0	CorrectCommission	0.499125	0.997527	0	0	100
429.384125	1.346215	city	8	1	1.668463	1.668463	0	1	0	0	CorrectCommission	1.271114	0.974659	0	0	100
430.710266	1.306073	city	2	1	1.777002	1.777002	0	1	0	0	CorrectCommission	1.888659	0.944660	0	0	100
432.023071	1.319564	city	3	1	1.635201	1.635201	0	1	0	0	CorrectCommission	1.081869	0.909825	0	0	100
433.336029	1.306304	city	5	1	1.619623	1.619623	0	1	0	0	CorrectCommission	0.993234	0.872908	0	0	100
434.642242	1.306134	mountain	9	0	0.000000	1.543980	1	0	0	0	CorrectOmission	0.562857	0.836811	0	0	100
435.941772	1.292964	city	2	1	1.492633	1.492633	0	1	0	0	CorrectCommission	0.270713	0.804300	0	0	100
437.241455	1.306378	city	4	1	1.549942	1.549942	0	1	0	0	CorrectCommission	0.596778	0.777630	1	0	100
438.567749	1.346225	city	1	1	1.413784	1.413784	0	1	0	0	CorrectCommission	0.177901	0.758312	1	0	100
439.887238	1.292759	city	3	1	1.462894	1.462894	0	1	0	0	CorrectCommission	0.101514	0.746988	1	0	100
441.213409	1.359535	city	2	1	1.504857	1.504857	0	1	0	0	CorrectCommission	0.340266	0.743393	1	0	100
442.572968	1.359578	city	1	1	1.771900	1.771900	0	1	0	0	CorrectCommission	1.859630	0.746478	1	0	100
443.899261	1.293047	city	9	1	1.327205	1.327205	0	1	0	0	CorrectCommission	0.670499	0.754581	1	0	100
445.225494	1.359418	city	3	1	1.457671	1.457671	0	1	0	0	CorrectCommission	0.071799	0.765877	1	0	100
446.611694	1.412987	city	1	1	1.263771	1.263771	0	1	0	0	CorrectCommission	1.031415	0.778556	1	0	100
447.958008	1.279615	city	10	1	1.744860	1.744860	0	1	0	0	CorrectCommission	1.705785	0.791040	1	0	100
452.209869	7.224126	break	0	0	0.000000	1.635252	0	0	0	0	ThoughtProbe	1.082158	0.802260	0	100	100
456.495117	1.346353	city	8	1	1.395301	1.395301	0	1	0	0	CorrectCommission	0.283065	0.811731	0	0	100
457.821381	1.306187	city	4	1	1.485362	1.485362	0	1	0	0	CorrectCommission	0.229347	0.819556	0	0	100
459.147614	1.346300	city	5	1	1.273456	1.273456	0	1	0	0	CorrectCommission	0.976310	0.826330	0	0	100
460.467224	1.292913	city	2	1	1.699179	1.699179	0	1	0	0	CorrectCommission	1.445876	0.833015	0	0	100
461.780090	1.332828	city	9	1	1.548790	1.548790	0	1	0	0	CorrectCommission	0.590227	0.840729	0	0	100
463.099579	1.306131	city	7	1	1.676754	1.676754	0	1	0	0	CorrectCommission	1.318291	0.850589	0	0	100
464.419189	1.333070	city	3	1	1.341015	1.341015	0	1	0	0	CorrectCommission	0.591927	0.863359	0	0	100
465.745422	1.319382	city	10	1	1.379673	1.379673	0	1	0	0	CorrectCommission	0.371980	0.879363	0	0	100
467.071564	1.332950	city	6	1	1.595817	1.595817	0	1	0	0	CorrectCommission	0.857791	0.898292	0	0	100
468.397888	1.319701	mountain	3	0	0.000000	1.571533	1	0	0	0	CorrectOmission	0.719623	0.919152	0	0	100
469.697449	1.279400	city	6	1	1.511808	1.511808	0	1	0	0	CorrectCommission	0.379813	0.940400	0	0	100
470.990356	1.306411	mountain	2	0	0.000000	1.621630	1	0	0	0	CorrectOmission	1.004658	0.960186	0	0	100
472.283356	1.279576	city	4	1	1.606841	1.606841	0	1	0	0	CorrectCommission	0.920514	0.976675	0	0	100
473.589508	1.332715	city	6	1	1.173282	1.173282	0	1	0	0	CorrectCommission	1.546262	0.988528	0	0	100
474.902374	1.293065	city	4	1	1.312041	1.312041	0	1	0	0	CorrectCommission	0.756779	0.995257	0	0	100
476.222046	1.346232	city	9	1	0.969796	0.969796	0	1	0	0	CorrectCommission	2.704012	0.997508	0	0	100
477.568268	1.346221	city	10	1	1.008939	1.008939	0	1	0	0	CorrectCommission	2.481306	0.996972	0	0	100
478.887848	1.292967	city	2	1	1.472749	1.472749	0	1	0	0	CorrectCommission	0.157586	0.996322	0	0	100
480.207428	1.346184	mountain	2	0	0.000000	1.532713	1	0	0	0	CorrectOmission	0.498753	0.998726	0	0	100
481.526917	1.292805	city	9	1	1.416274	1.416274	0	1	0	0	CorrectCommission	0.163738	1.007159	0	0	100
482.873016	1.399387	city	8	1	1.350876	1.350876	0	1	0	0	CorrectCommission	0.535822	1.023777	0	0	100
484.219208	1.292979	city	9	1	1.459958	1.459958	0	1	0	0	CorrectCommission	0.084809	1.049410	0	0	100
485.578857	1.426334	city	6	1	1.343168	1.343168	0	1	0	0	CorrectCommission	0.579679	1.083322	0	0	100
486.945099	1.306129	city	4	1	1.376491	1.376491	0	1	0	0	CorrectCommission	0.390087	1.123160	0	0	100
488.311310	1.426328	city	10	1	1.167458	1.167458	0	1	0	0	CorrectCommission	1.579396	1.165343	0	0	100
489.677612	1.306262	mountain	7	0	0.000000	1.557897	1	0	0	0	CorrectOmission	0.642041	1.205597	0	0	100
490.977203	1.292908	city	5	1	2.003062	2.003062	0	1	0	0	CorrectCommission	3.174849	1.239743	0	0	100
492.276764	1.306242	city	3	1	1.958209	1.958209	0	1	0	0	CorrectCommission	2.919651	1.264197	0	0	100
493.609680	1.359539	city	7	1	1.830671	1.830671	0	1	0	0	CorrectCommission	2.194012	1.276567	0	0	100
494.989227	1.399556	city	1	1	1.629614	1.629614	0	1	0	0	CorrectCommission	1.050079	1.275787	0	0	100
496.362030	1.346102	city	8	1	1.592358	1.592358	0	1	0	0	CorrectCommission	0.838111	1.261999	0	0	100
497.688171	1.306186	city	3	1	1.426743	1.426743	0	1	0	0	CorrectCommission	0.104173	1.236256	0	0	100
499.014465	1.346371	city	4	1	1.611487	1.611487	0	1	0	0	CorrectCommission	0.946945	1.200091	0	0	100
500.354706	1.334130	city	2	1	1.767625	1.767625	0	1	0	0	CorrectCommission	1.835306	1.154993	0	0	100
501.700867	1.358155	city	8	1	1.724552	1.724552	0	1	0	0	CorrectCommission	1.590237	1.102166	0	0	100
503.026489	1.293088	city	5	1	1.525381	1.525381	0	1	0	0	CorrectCommission	0.457036	1.042299	0	0	100
504.339478	1.332901	city	9	1	1.645614	1.645614	0	1	0	0	CorrectCommission	1.141113	0.975606	0	0	100
505.665710	1.319562	city	8	1	1.581216	1.581216	0	1	0	0	CorrectCommission	0.774716	0.901820	0	0	100
507.031952	1.412938	city	9	1	1.859688	1.859688	0	1	0	0	CorrectCommission	2.359105	0.820488	0	0	100
508.404755	1.332641	city	5	1	1.396231	1.396231	0	1	0	0	CorrectCommission	0.277770	0.731185	1	0	100
509.744263	1.346379	city	8	1	1.441095	1.441095	0	1	0	0	CorrectCommission	0.022517	0.633794	1	0	100
511.097198	1.359510	city	4	1	1.697340	1.697340	0	1	0	0	CorrectCommission	1.435417	0.528559	1	0	100
512.443359	1.332784	city	1	1	1.360219	1.360219	0	1	0	0	CorrectCommission	0.482667	0.416187	1	0	100
513.789612	1.359689	city	8	1	1.506388	1.506388	0	1	0	0	CorrectCommission	0.348973	0.297934	1	0	100
515.122559	1.306225	city	2	1	1.471254	1.471254	0	1	0	0	CorrectCommission	0.149077	0.175475	1	0	100
519.274475	6.997641	break	0	0	0.000000	1.436120	0	0	0	0	ThoughtProbe	0.050819	0.050819	1	100	100
