onset	duration	trial_type	image_type	Press	ReactionTime	ReactionTime_Interpolated	CorrectOmission	CorrectCommission	CommissionError	OmissionError	response_type	nonsmoothVarianceTimeCourse	VarianceTimeCourse	In_the_Zone	ThoughtProbe	ThoughtProbe_Interpolated
0.652774	1.279411	city	2	1	1.014733	1.014733	0	1	0	0	CorrectCommission	1.478891	1.478891	0	0	39
1.938985	1.293012	city	8	1	1.255464	1.255464	0	1	0	0	CorrectCommission	0.395448	1.355668	0	0	39
3.231974	1.292965	city	3	1	1.137556	1.137556	0	1	0	0	CorrectCommission	0.926109	1.236999	0	0	39
4.518237	1.279561	city	7	1	1.124244	1.124244	0	1	0	0	CorrectCommission	0.986024	1.127070	0	0	39
5.797737	1.279439	city	5	1	1.021002	1.021002	0	1	0	0	CorrectCommission	1.450677	1.029432	0	0	39
7.083991	1.293069	city	10	1	1.297793	1.297793	0	1	0	0	CorrectCommission	0.204942	0.946680	0	0	39
8.376977	1.292902	city	7	1	1.348835	1.348835	0	1	0	0	CorrectCommission	0.024781	0.880343	0	0	39
9.663151	1.279445	city	8	1	1.249289	1.249289	0	1	0	0	CorrectCommission	0.423239	0.830774	0	0	39
10.942651	1.279554	city	3	1	1.182102	1.182102	0	1	0	0	CorrectCommission	0.725627	0.797149	0	0	39
12.222217	1.279578	city	6	1	1.209816	1.209816	0	1	0	0	CorrectCommission	0.600895	0.777594	0	0	39
13.501863	1.279714	city	5	1	1.174840	1.174840	0	1	0	0	CorrectCommission	0.758310	0.769402	0	0	39
14.781455	1.279470	city	10	1	1.179266	1.179266	0	1	0	0	CorrectCommission	0.738391	0.769314	0	0	39
16.060953	1.279526	city	9	1	1.284756	1.284756	0	1	0	0	CorrectCommission	0.263618	0.773838	0	0	39
17.340599	1.279766	mountain	4	0	0.000000	1.511999	1	0	0	0	CorrectOmission	0.759120	0.779573	0	0	39
18.620260	1.279556	mountain	8	0	0.000000	1.707436	1	0	0	0	CorrectOmission	1.638711	0.783505	0	0	39
19.899792	1.279508	city	7	1	1.717509	1.717509	0	1	0	0	CorrectCommission	1.684046	0.783239	0	0	39
21.179373	1.279651	city	4	1	1.388659	1.388659	0	1	0	0	CorrectCommission	0.204015	0.777170	0	0	39
22.465576	1.292757	city	6	1	1.212346	1.212346	0	1	0	0	CorrectCommission	0.589510	0.764570	0	0	39
23.751820	1.279731	city	2	1	1.034941	1.034941	0	1	0	0	CorrectCommission	1.387943	0.745512	0	0	39
25.031420	1.279470	city	7	1	1.079653	1.079653	0	1	0	0	CorrectCommission	1.186713	0.720752	0	0	39
26.310997	1.279684	city	6	1	1.284531	1.284531	0	1	0	0	CorrectCommission	0.264631	0.691607	1	0	39
27.597265	1.292853	city	9	1	1.235791	1.235791	0	1	0	0	CorrectCommission	0.483992	0.659752	1	0	39
28.883511	1.279638	mountain	10	0	0.000000	1.423405	1	0	0	0	CorrectOmission	0.360392	0.626996	1	0	39
30.163118	1.279577	city	7	1	1.554453	1.554453	0	1	0	0	CorrectCommission	0.950191	0.595146	1	0	39
31.442699	1.279585	city	4	1	1.336014	1.336014	0	1	0	0	CorrectCommission	0.032921	0.565844	1	0	39
32.728943	1.292906	city	3	1	1.246322	1.246322	0	1	0	0	CorrectCommission	0.436594	0.540509	1	0	39
34.015186	1.279574	city	8	1	1.136326	1.136326	0	1	0	0	CorrectCommission	0.931646	0.520221	1	0	39
35.294773	1.279600	city	2	1	1.178112	1.178112	0	1	0	0	CorrectCommission	0.743581	0.505719	1	0	39
36.574352	1.279561	city	9	1	1.401528	1.401528	0	1	0	0	CorrectCommission	0.261930	0.497339	1	0	39
37.853935	1.279605	city	2	1	1.348949	1.348949	0	1	0	0	CorrectCommission	0.025292	0.494988	1	0	39
39.140205	1.292937	city	9	1	1.365699	1.365699	0	1	0	0	CorrectCommission	0.100677	0.498127	1	0	39
40.426353	1.279359	city	10	1	1.318213	1.318213	0	1	0	0	CorrectCommission	0.113040	0.505837	1	0	39
41.712490	1.292910	city	9	1	1.308112	1.308112	0	1	0	0	CorrectCommission	0.158499	0.516915	1	0	39
42.998814	1.279737	city	6	1	1.095266	1.095266	0	1	0	0	CorrectCommission	1.116443	0.530006	1	0	39
44.291801	1.306243	city	1	1	1.085528	1.085528	0	1	0	0	CorrectCommission	1.160269	0.543784	1	0	39
45.591320	1.292792	city	8	1	1.203361	1.203361	0	1	0	0	CorrectCommission	0.629945	0.557111	1	0	39
46.877506	1.279575	city	7	1	1.177619	1.177619	0	1	0	0	CorrectCommission	0.745803	0.569157	1	0	39
48.157078	1.279570	city	1	1	1.234710	1.234710	0	1	0	0	CorrectCommission	0.488854	0.579417	1	0	39
49.436630	1.279537	city	3	1	1.405121	1.405121	0	1	0	0	CorrectCommission	0.278104	0.587740	1	0	39
50.076397	11.143134	break	0	0	0.000000	1.258597	0	0	0	0	ThoughtProbe	0.381348	0.594198	1	39	39
61.859257	1.279449	city	4	1	1.083255	1.083255	0	1	0	0	CorrectCommission	1.170501	0.598947	1	0	3.947826e+01
63.138771	1.279582	mountain	3	0	0.000000	1.167211	1	0	0	0	CorrectOmission	0.792643	0.602097	1	0	3.995652e+01
64.418289	1.279456	city	1	1	1.295662	1.295662	0	1	0	0	CorrectCommission	0.214534	0.603638	1	0	4.043478e+01
65.697876	1.279715	city	10	1	1.253802	1.253802	0	1	0	0	CorrectCommission	0.402931	0.603370	1	0	4.091304e+01
66.977516	1.279570	city	7	1	1.342652	1.342652	0	1	0	0	CorrectCommission	0.003048	0.600898	1	0	4.139130e+01
68.257141	1.279673	city	8	1	1.487988	1.487988	0	1	0	0	CorrectCommission	0.651056	0.595742	1	0	4.186957e+01
69.550056	1.306158	city	9	1	1.683927	1.683927	0	1	0	0	CorrectCommission	1.532907	0.587464	1	0	4.234783e+01
70.849663	1.293056	city	10	1	1.567195	1.567195	0	1	0	0	CorrectCommission	1.007539	0.575804	1	0	4.282609e+01
72.135979	1.279574	city	1	1	1.508244	1.508244	0	1	0	0	CorrectCommission	0.742221	0.560819	1	0	4.330435e+01
73.415550	1.279572	city	8	1	1.292881	1.292881	0	1	0	0	CorrectCommission	0.227049	0.542997	1	0	4.378261e+01
74.701805	1.292941	city	6	1	1.255785	1.255785	0	1	0	0	CorrectCommission	0.394003	0.523229	1	0	4.426087e+01
75.994720	1.292885	city	9	1	1.191628	1.191628	0	1	0	0	CorrectCommission	0.682750	0.502737	1	0	4.473913e+01
77.280960	1.279587	mountain	3	0	0.000000	1.376091	1	0	0	0	CorrectOmission	0.147450	0.482998	1	0	4.521739e+01
78.560463	1.279420	city	5	1	1.526337	1.526337	0	1	0	0	CorrectCommission	0.823652	0.465602	1	0	4.569565e+01
79.853333	1.306319	city	1	1	1.359530	1.359530	0	1	0	0	CorrectCommission	0.072913	0.452104	1	0	4.617391e+01
81.179611	1.346245	city	9	1	1.261394	1.261394	0	1	0	0	CorrectCommission	0.368763	0.443907	1	0	4.665217e+01
82.492569	1.279663	mountain	5	0	0.000000	1.341643	1	0	0	0	CorrectOmission	0.007589	0.442129	1	0	4.713043e+01
83.772163	1.279536	city	4	1	1.391631	1.391631	0	1	0	0	CorrectCommission	0.217389	0.447571	1	0	4.760870e+01
85.071640	1.319407	city	10	1	1.202711	1.202711	0	1	0	0	CorrectCommission	0.632871	0.460605	1	0	4.808696e+01
86.371223	1.279767	city	2	1	1.461404	1.461404	0	1	0	0	CorrectCommission	0.531410	0.481158	1	0	4.856522e+01
87.650894	1.279575	city	9	1	1.502669	1.502669	0	1	0	0	CorrectCommission	0.717131	0.508658	1	0	4.904348e+01
88.930511	1.279656	city	1	1	1.297262	1.297262	0	1	0	0	CorrectCommission	0.207330	0.542031	1	0	4.952174e+01
90.223404	1.306123	city	8	1	1.249561	1.249561	0	1	0	0	CorrectCommission	0.422016	0.579651	1	0	50
91.516258	1.279599	city	7	1	1.355564	1.355564	0	1	0	0	CorrectCommission	0.055065	0.619404	1	0	5.047826e+01
92.795860	1.279593	city	2	1	1.243288	1.243288	0	1	0	0	CorrectCommission	0.450248	0.658812	1	0	5.095652e+01
94.075439	1.279567	city	10	1	1.137069	1.137069	0	1	0	0	CorrectCommission	0.928304	0.695177	1	0	5.143478e+01
95.355003	1.279573	mountain	5	0	0.000000	1.125092	1	0	0	0	CorrectOmission	0.982205	0.725852	0	0	5.191304e+01
96.634499	1.279407	city	1	1	1.351287	1.351287	0	1	0	0	CorrectCommission	0.035813	0.748538	0	0	5.239130e+01
97.920738	1.293079	city	5	1	1.959580	1.959580	0	1	0	0	CorrectCommission	2.773518	0.761563	0	0	5.286957e+01
99.207069	1.279579	city	7	1	1.727822	1.727822	0	1	0	0	CorrectCommission	1.730464	0.764013	0	0	5.334783e+01
100.486649	1.279582	city	10	1	1.456556	1.456556	0	1	0	0	CorrectCommission	0.509594	0.755957	0	0	5.382609e+01
101.766235	1.279595	city	6	1	1.471639	1.471639	0	1	0	0	CorrectCommission	0.577474	0.738337	0	0	5.430435e+01
103.059174	1.306272	city	10	1	1.366082	1.366082	0	1	0	0	CorrectCommission	0.102401	0.712771	0	0	5.478261e+01
104.392059	1.359503	city	6	1	1.562836	1.562836	0	1	0	0	CorrectCommission	0.987918	0.681353	1	0	5.526087e+01
105.718185	1.292754	city	4	1	1.479829	1.479829	0	1	0	0	CorrectCommission	0.614334	0.646329	1	0	5.573913e+01
107.004440	1.279748	city	2	1	1.241907	1.241907	0	1	0	0	CorrectCommission	0.456466	0.609874	1	0	5.621739e+01
108.284096	1.279561	city	1	1	1.193672	1.193672	0	1	0	0	CorrectCommission	0.673555	0.573898	1	0	5.669565e+01
109.563583	1.279415	city	6	1	1.347485	1.347485	0	1	0	0	CorrectCommission	0.018704	0.539906	1	0	5.717391e+01
110.869827	1.333079	city	10	1	1.176857	1.176857	0	1	0	0	CorrectCommission	0.749233	0.509011	1	0	5.765217e+01
112.176155	1.279579	city	1	1	1.349140	1.349140	0	1	0	0	CorrectCommission	0.026150	0.481910	1	0	5.813043e+01
113.455727	1.279560	city	10	1	1.657266	1.657266	0	1	0	0	CorrectCommission	1.412916	0.459017	1	0	5.860870e+01
114.741928	1.292837	city	7	1	1.360343	1.360343	0	1	0	0	CorrectCommission	0.076575	0.440484	1	0	5.908696e+01
116.034828	1.292977	city	1	1	1.375240	1.375240	0	1	0	0	CorrectCommission	0.143619	0.426398	1	0	5.956522e+01
117.327805	1.292963	city	8	1	1.311281	1.311281	0	1	0	0	CorrectCommission	0.144239	0.416802	1	0	6.004348e+01
118.614082	1.279604	city	1	1	1.234644	1.234644	0	1	0	0	CorrectCommission	0.489152	0.411749	1	0	6.052174e+01
122.546082	6.584391	break	0	0	0.000000	1.332185	0	0	0	0	ThoughtProbe	0.050158	0.411395	1	61	61
126.478096	1.279641	city	1	1	1.458647	1.458647	0	1	0	0	CorrectCommission	0.519004	0.416008	1	0	6.047500e+01
127.757622	1.279407	city	10	1	1.468777	1.468777	0	1	0	0	CorrectCommission	0.564593	0.425937	1	0	5.995000e+01
129.057190	1.319723	mountain	5	0	0.000000	1.475861	1	0	0	0	CorrectOmission	0.596477	0.441591	1	0	5.942500e+01
130.356827	1.279564	city	4	1	1.454360	1.454360	0	1	0	0	CorrectCommission	0.499708	0.463360	1	0	5.890000e+01
131.649673	1.306124	city	3	1	1.378733	1.378733	0	1	0	0	CorrectCommission	0.159339	0.491418	1	0	5.837500e+01
132.942505	1.279527	city	7	1	1.296749	1.296749	0	1	0	0	CorrectCommission	0.209642	0.525688	1	0	5.785000e+01
134.235352	1.306162	city	4	1	1.168621	1.168621	0	1	0	0	CorrectCommission	0.786298	0.565588	1	0	5.732500e+01
135.528351	1.279841	mountain	10	1	1.284343	1.284343	0	0	1	0	CommissionError	0.265478	0.610018	1	0	5.680000e+01
136.808044	1.279557	city	4	1	1.337274	1.337274	0	1	0	0	CorrectCommission	0.027252	0.657364	1	0	5.627500e+01
138.087570	1.279497	city	8	1	1.240819	1.240819	0	1	0	0	CorrectCommission	0.461363	0.705602	0	0	5.575000e+01
139.373810	1.292990	city	4	1	1.199428	1.199428	0	1	0	0	CorrectCommission	0.647648	0.752516	0	0	5.522500e+01
140.666763	1.292912	city	5	1	1.031888	1.031888	0	1	0	0	CorrectCommission	1.401685	0.796037	0	0	5.470000e+01
141.952927	1.279415	city	2	1	1.027186	1.027186	0	1	0	0	CorrectCommission	1.422846	0.834523	0	0	5.417500e+01
143.245834	1.306401	city	5	1	0.993630	0.993630	0	1	0	0	CorrectCommission	1.573868	0.867086	0	0	5.365000e+01
144.538834	1.279593	city	4	1	1.140490	1.140490	0	1	0	0	CorrectCommission	0.912906	0.893667	0	0	5.312500e+01
145.838425	1.319588	city	7	1	1.056623	1.056623	0	1	0	0	CorrectCommission	1.290362	0.915060	0	0	5.260000e+01
147.137924	1.279418	city	6	1	0.988625	0.988625	0	1	0	0	CorrectCommission	1.596395	0.932629	0	0	5.207500e+01
148.417419	1.279570	city	4	1	1.366303	1.366303	0	1	0	0	CorrectCommission	0.103398	0.948026	0	0	5.155000e+01
149.703735	1.293044	city	6	1	1.476257	1.476257	0	1	0	0	CorrectCommission	0.598259	0.962803	0	0	5.102500e+01
150.990036	1.279587	city	10	1	1.310963	1.310963	0	1	0	0	CorrectCommission	0.145669	0.977976	0	0	5.050000e+01
152.276199	1.292717	city	9	1	1.196154	1.196154	0	1	0	0	CorrectCommission	0.662383	0.993905	0	0	4.997500e+01
153.562439	1.279758	city	8	1	1.139289	1.139289	0	1	0	0	CorrectCommission	0.918312	1.010183	0	0	4.945000e+01
154.842102	1.279581	city	6	1	1.570537	1.570537	0	1	0	0	CorrectCommission	1.022578	1.025880	0	0	4.892500e+01
156.128342	1.292901	city	5	1	1.520550	1.520550	0	1	0	0	CorrectCommission	0.797607	1.039842	0	0	4.840000e+01
157.414536	1.279491	mountain	1	1	0.537701	0.537701	0	0	1	0	CommissionError	3.625840	1.051152	0	0	4.787500e+01
158.707413	1.306251	city	1	1	1.369054	1.369054	0	1	0	0	CorrectCommission	0.115779	1.059381	0	0	4.735000e+01
160.007034	1.292985	city	4	1	1.695278	1.695278	0	1	0	0	CorrectCommission	1.583991	1.065019	0	0	4.682500e+01
161.293320	1.279587	city	10	1	1.566487	1.566487	0	1	0	0	CorrectCommission	1.004353	1.069270	0	0	4.630000e+01
162.579559	1.292896	city	6	1	1.678310	1.678310	0	1	0	0	CorrectCommission	1.507626	1.073995	0	0	4.577500e+01
163.872467	1.292913	city	2	1	1.478665	1.478665	0	1	0	0	CorrectCommission	0.609099	1.081288	0	0	4.525000e+01
165.158707	1.279582	city	6	1	1.514151	1.514151	0	1	0	0	CorrectCommission	0.768805	1.093036	0	0	4.472500e+01
166.444946	1.292908	city	1	1	1.367626	1.367626	0	1	0	0	CorrectCommission	0.109350	1.110430	0	0	4.420000e+01
167.737869	1.292926	city	10	1	1.513570	1.513570	0	1	0	0	CorrectCommission	0.766190	1.133639	0	0	4.367500e+01
169.024048	1.279437	city	3	1	1.509931	1.509931	0	1	0	0	CorrectCommission	0.749814	1.161636	0	0	4.315000e+01
170.303589	1.279643	city	6	1	1.567332	1.567332	0	1	0	0	CorrectCommission	1.008153	1.192322	0	0	4.262500e+01
171.589905	1.292986	city	7	1	1.666849	1.666849	0	1	0	0	CorrectCommission	1.456047	1.222799	0	0	4.210000e+01
172.889511	1.306218	city	10	1	1.751603	1.751603	0	1	0	0	CorrectCommission	1.837493	1.249821	0	0	4.157500e+01
174.182404	1.279576	city	4	1	1.777373	1.777373	0	1	0	0	CorrectCommission	1.953474	1.270287	0	0	4.105000e+01
175.461929	1.279472	city	10	1	1.620647	1.620647	0	1	0	0	CorrectCommission	1.248107	1.281657	0	0	4.052500e+01
178.940811	5.678280	break	0	1	0.657747	0.657747	0	0	0	0	ThoughtProbe	3.085555	1.282302	0	40	40
182.426392	1.292892	city	6	1	1.159549	1.159549	0	1	0	0	CorrectCommission	0.827126	1.271508	0	0	3.964706e+01
183.712601	1.279522	city	3	1	1.022869	1.022869	0	1	0	0	CorrectCommission	1.442274	1.249563	0	0	3.929412e+01
184.992096	1.279460	mountain	2	0	0.000000	1.369750	1	0	0	0	CorrectOmission	0.118908	1.217381	0	0	3.894118e+01
186.271622	1.279605	city	3	1	1.716574	1.716574	0	1	0	0	CorrectCommission	1.679840	1.176342	0	0	3.858824e+01
187.551270	1.279702	city	1	1	1.579727	1.579727	0	1	0	0	CorrectCommission	1.063942	1.127944	0	0	3.823529e+01
188.830917	1.279580	city	4	1	1.550991	1.550991	0	1	0	0	CorrectCommission	0.934608	1.073754	0	0	3.788235e+01
190.130417	1.319429	city	9	1	1.494286	1.494286	0	1	0	0	CorrectCommission	0.679399	1.015225	0	0	3.752941e+01
191.443344	1.306401	city	1	1	1.613446	1.613446	0	1	0	0	CorrectCommission	1.215697	0.953891	0	0	3.717647e+01
192.742889	1.292718	city	9	1	1.705662	1.705662	0	1	0	0	CorrectCommission	1.630726	0.891353	0	0	3.682353e+01
194.049118	1.319731	city	8	1	1.567151	1.567151	0	1	0	0	CorrectCommission	1.007340	0.829460	0	0	3.647059e+01
195.362091	1.306211	city	6	1	1.635060	1.635060	0	1	0	0	CorrectCommission	1.312974	0.770314	0	0	3.611765e+01
196.654999	1.279598	city	8	1	1.400228	1.400228	0	1	0	0	CorrectCommission	0.256079	0.716193	0	0	3.576471e+01
197.941254	1.292912	city	5	1	1.304919	1.304919	0	1	0	0	CorrectCommission	0.172871	0.669383	1	0	3.541176e+01
199.240784	1.306161	city	10	1	1.322322	1.322322	0	1	0	0	CorrectCommission	0.094548	0.631883	1	0	3.505882e+01
200.533646	1.279553	city	2	1	1.282090	1.282090	0	1	0	0	CorrectCommission	0.275617	0.605124	1	0	3.470588e+01
201.819855	1.292872	city	10	1	1.326354	1.326354	0	1	0	0	CorrectCommission	0.076401	0.589727	1	0	3.435294e+01
203.132812	1.333033	city	3	1	1.186338	1.186338	0	1	0	0	CorrectCommission	0.706562	0.585371	1	0	34
204.439117	1.279582	city	6	1	1.397931	1.397931	0	1	0	0	CorrectCommission	0.245743	0.590754	1	0	3.364706e+01
205.732025	1.306237	city	5	1	1.316399	1.316399	0	1	0	0	CorrectCommission	0.121204	0.603775	1	0	3.329412e+01
207.044891	1.319490	city	4	1	1.256928	1.256928	0	1	0	0	CorrectCommission	0.388862	0.621775	1	0	3.294118e+01
208.351120	1.292982	city	6	1	1.089807	1.089807	0	1	0	0	CorrectCommission	1.141011	0.641914	1	0	3.258824e+01
209.664078	1.332919	city	1	1	1.108496	1.108496	0	1	0	0	CorrectCommission	1.056898	0.661484	1	0	3.223529e+01
210.970276	1.279480	city	10	1	1.621454	1.621454	0	1	0	0	CorrectCommission	1.251736	0.678309	1	0	3.188235e+01
212.249802	1.279560	city	7	1	1.620235	1.620235	0	1	0	0	CorrectCommission	1.246250	0.690874	1	0	3.152941e+01
213.529327	1.279504	mountain	3	0	0.000000	1.539329	1	0	0	0	CorrectOmission	0.882123	0.698449	1	0	3.117647e+01
214.808884	1.279612	city	3	1	1.408167	1.408167	0	1	0	0	CorrectCommission	0.291813	0.700940	0	0	3.082353e+01
216.088455	1.279513	city	10	1	1.256181	1.256181	0	1	0	0	CorrectCommission	0.392225	0.698780	0	0	3.047059e+01
217.388031	1.319644	city	4	1	1.322585	1.322585	0	1	0	0	CorrectCommission	0.093361	0.692666	1	0	3.011765e+01
218.687637	1.279562	city	8	1	1.128216	1.128216	0	1	0	0	CorrectCommission	0.968147	0.683367	1	0	2.976471e+01
219.967194	1.279557	city	4	1	1.129573	1.129573	0	1	0	0	CorrectCommission	0.962039	0.671549	1	0	2.941176e+01
221.246765	1.279581	city	8	1	1.125024	1.125024	0	1	0	0	CorrectCommission	0.982514	0.657718	1	0	2.905882e+01
222.526337	1.279575	city	5	1	1.178179	1.178179	0	1	0	0	CorrectCommission	0.743283	0.642229	1	0	2.870588e+01
223.819244	1.306238	city	10	1	1.278060	1.278060	0	1	0	0	CorrectCommission	0.293753	0.625315	1	0	2.835294e+01
224.472366	8.463909	break	0	0	0.000000	1.270298	0	0	0	0	ThoughtProbe	0.328689	0.607208	1	28	28
233.576050	1.279570	mountain	9	0	0.000000	1.206570	1	0	0	0	CorrectOmission	0.615503	0.588184	1	0	2.877500e+01
234.855637	1.279580	city	7	0	0.000000	1.138556	0	0	0	1	OmissionError	0.921608	0.568650	1	0	2.955000e+01
236.155273	1.319712	city	6	1	1.117935	1.117935	0	1	0	0	CorrectCommission	1.014415	0.549162	1	0	3.032500e+01
237.461517	1.292764	city	8	1	1.196386	1.196386	0	1	0	0	CorrectCommission	0.661337	0.530390	1	0	3.110000e+01
238.747757	1.279725	city	2	1	1.302886	1.302886	0	1	0	0	CorrectCommission	0.182020	0.513067	1	0	3.187500e+01
240.034119	1.292989	city	5	1	1.367152	1.367152	0	1	0	0	CorrectCommission	0.107217	0.497884	1	0	3.265000e+01
241.320297	1.279378	city	7	1	1.282301	1.282301	0	1	0	0	CorrectCommission	0.274665	0.485381	1	0	3.342500e+01
242.600388	1.280803	city	3	1	1.316283	1.316283	0	1	0	0	CorrectCommission	0.121727	0.475896	1	0	3.420000e+01
243.899948	1.318311	city	5	1	1.263593	1.263593	0	1	0	0	CorrectCommission	0.358863	0.469550	1	0	3.497500e+01
245.198975	1.279748	city	9	1	1.095712	1.095712	0	1	0	0	CorrectCommission	1.114434	0.466297	1	0	3.575000e+01
246.478546	1.279400	city	1	1	1.313591	1.313591	0	1	0	0	CorrectCommission	0.133840	0.465999	1	0	3.652500e+01
247.771408	1.306300	mountain	3	0	0.000000	1.480869	1	0	0	0	CorrectOmission	0.619018	0.468576	1	0	3.730000e+01
249.064392	1.279673	city	7	1	1.511957	1.511957	0	1	0	0	CorrectCommission	0.758933	0.474023	1	0	3.807500e+01
250.350616	1.292781	city	8	1	1.321265	1.321265	0	1	0	0	CorrectCommission	0.099303	0.482461	1	0	3.885000e+01
251.636856	1.279713	city	4	1	1.232040	1.232040	0	1	0	0	CorrectCommission	0.500873	0.494111	1	0	3.962500e+01
252.916504	1.279574	city	8	1	1.210864	1.210864	0	1	0	0	CorrectCommission	0.596178	0.509201	1	0	4.040000e+01
254.202698	1.292826	city	2	1	1.224944	1.224944	0	1	0	0	CorrectCommission	0.532810	0.527837	1	0	4.117500e+01
255.495575	1.292911	city	5	1	1.244832	1.244832	0	1	0	0	CorrectCommission	0.443299	0.549838	1	0	4.195000e+01
256.781799	1.279532	city	9	1	1.269711	1.269711	0	1	0	0	CorrectCommission	0.331329	0.574740	1	0	4.272500e+01
258.061340	1.279590	city	7	1	1.337853	1.337853	0	1	0	0	CorrectCommission	0.024648	0.601774	1	0	4.350000e+01
259.354248	1.306195	city	10	1	1.444202	1.444202	0	1	0	0	CorrectCommission	0.453992	0.630002	1	0	4.427500e+01
260.653809	1.292955	city	6	1	1.539244	1.539244	0	1	0	0	CorrectCommission	0.881740	0.658507	1	0	4.505000e+01
261.953400	1.306186	city	10	1	1.438691	1.438691	0	1	0	0	CorrectCommission	0.429189	0.686658	1	0	4.582500e+01
263.266296	1.319593	city	7	1	1.662915	1.662915	0	1	0	0	CorrectCommission	1.438338	0.714384	0	0	4.660000e+01
264.579193	1.306227	city	6	1	1.655908	1.655908	0	1	0	0	CorrectCommission	1.406802	0.742318	0	0	4.737500e+01
265.878754	1.292916	city	4	1	1.595415	1.595415	0	1	0	0	CorrectCommission	1.134545	0.771871	0	0	4.815000e+01
267.211670	1.372871	mountain	5	0	0.000000	1.563845	1	0	0	0	CorrectOmission	0.992461	0.805058	0	0	4.892500e+01
268.537994	1.279775	city	3	1	1.511935	1.511935	0	1	0	0	CorrectCommission	0.758835	0.844110	0	0	4.970000e+01
269.830963	1.306183	city	1	1	1.390424	1.390424	0	1	0	0	CorrectCommission	0.211955	0.890943	0	0	5.047500e+01
271.137177	1.306244	city	9	1	1.372984	1.372984	0	1	0	0	CorrectCommission	0.133464	0.946627	0	0	5.125000e+01
272.429993	1.279418	city	5	1	1.337691	1.337691	0	1	0	0	CorrectCommission	0.025375	1.010913	0	0	5.202500e+01
273.716248	1.293092	city	4	1	1.483009	1.483009	0	1	0	0	CorrectCommission	0.628648	1.081945	0	0	5.280000e+01
275.035858	1.346086	city	1	1	1.379294	1.379294	0	1	0	0	CorrectCommission	0.161863	1.156325	0	0	5.357500e+01
276.348755	1.279707	city	7	1	1.528570	1.528570	0	1	0	0	CorrectCommission	0.833701	1.229438	0	0	5.435000e+01
277.655029	1.332892	city	5	1	0.593613	0.593613	0	1	0	0	CorrectCommission	3.374198	1.295974	0	0	5.512500e+01
278.967865	1.292752	city	8	1	0.513327	0.513327	0	1	0	0	CorrectCommission	3.735537	1.350630	0	0	5.590000e+01
280.267426	1.306399	city	1	1	1.235515	1.235515	0	1	0	0	CorrectCommission	0.485234	1.388866	0	0	5.667500e+01
281.560394	1.279486	city	5	1	1.660439	1.660439	0	1	0	0	CorrectCommission	1.427194	1.407524	0	0	5.745000e+01
282.853302	1.306339	city	6	1	1.704638	1.704638	0	1	0	0	CorrectCommission	1.626117	1.405041	0	0	5.822500e+01
286.911926	6.810927	break	0	0	0.000000	1.830282	0	0	0	0	ThoughtProbe	2.191596	1.381652	0	59	59
290.957184	1.279553	city	6	1	1.904415	1.904415	0	1	0	0	CorrectCommission	2.525243	1.339213	0	0	5.902941e+01
292.256836	1.319751	city	1	1	1.794081	1.794081	0	1	0	0	CorrectCommission	2.028670	1.280858	0	0	5.905882e+01
293.576385	1.319384	city	10	1	1.453402	1.453402	0	1	0	0	CorrectCommission	0.495396	1.210522	0	0	5.908824e+01
294.889282	1.306410	city	8	1	1.333185	1.333185	0	1	0	0	CorrectCommission	0.045657	1.132418	0	0	5.911765e+01
296.182281	1.279569	city	7	1	1.364314	1.364314	0	1	0	0	CorrectCommission	0.094443	1.050575	0	0	5.914706e+01
297.481720	1.319348	mountain	2	0	0.000000	1.594340	1	0	0	0	CorrectOmission	1.129709	0.968503	0	0	5.917647e+01
298.781311	1.279811	city	9	1	1.737144	1.737144	0	1	0	0	CorrectCommission	1.772417	0.889025	0	0	5.920588e+01
300.061005	1.279559	city	8	1	1.506604	1.506604	0	1	0	0	CorrectCommission	0.734840	0.814320	0	0	5.923529e+01
301.353821	1.306092	city	1	1	1.445773	1.445773	0	1	0	0	CorrectCommission	0.461063	0.746038	0	0	5.926471e+01
302.659973	1.306223	city	7	1	1.570268	1.570268	0	1	0	0	CorrectCommission	1.021371	0.685434	1	0	5.929412e+01
303.986298	1.346402	city	9	1	1.406395	1.406395	0	1	0	0	CorrectCommission	0.283836	0.633527	1	0	5.932353e+01
305.312531	1.306059	city	4	1	1.262258	1.262258	0	1	0	0	CorrectCommission	0.364874	0.591241	1	0	5.935294e+01
306.605438	1.279767	city	1	1	1.208717	1.208717	0	1	0	0	CorrectCommission	0.605839	0.559412	1	0	5.938235e+01
307.891693	1.292733	city	4	1	1.326755	1.326755	0	1	0	0	CorrectCommission	0.074595	0.538715	1	0	5.941176e+01
309.177887	1.279651	city	3	1	1.374295	1.374295	0	1	0	0	CorrectCommission	0.139367	0.529632	1	0	5.944118e+01
310.484192	1.332969	city	10	1	1.392920	1.392920	0	1	0	0	CorrectCommission	0.223190	0.532298	1	0	5.947059e+01
311.823792	1.346229	mountain	10	1	1.190930	1.190930	0	0	1	0	CommissionError	0.685892	0.546417	1	0	5.950000e+01
313.136597	1.279411	city	2	1	1.459419	1.459419	0	1	0	0	CorrectCommission	0.522479	0.571203	1	0	5.952941e+01
314.429474	1.306297	city	7	1	1.276173	1.276173	0	1	0	0	CorrectCommission	0.302244	0.605436	1	0	5.955882e+01
315.729034	1.292851	city	10	1	1.274675	1.274675	0	1	0	0	CorrectCommission	0.308987	0.647409	1	0	5.958824e+01
317.048645	1.346396	city	7	1	1.227630	1.227630	0	1	0	0	CorrectCommission	0.520721	0.695052	1	0	5.961765e+01
318.368225	1.292737	city	4	1	1.138371	1.138371	0	1	0	0	CorrectCommission	0.922442	0.746100	0	0	5.964706e+01
319.654480	1.279785	city	1	1	1.149945	1.149945	0	1	0	0	CorrectCommission	0.870353	0.798203	0	0	5.967647e+01
320.934143	1.279536	city	9	1	1.124400	1.124400	0	1	0	0	CorrectCommission	0.985323	0.849138	0	0	5.970588e+01
322.213715	1.279603	city	3	1	1.070817	1.070817	0	1	0	0	CorrectCommission	1.226478	0.896962	0	0	5.973529e+01
323.539948	1.372858	city	5	1	1.179950	1.179950	0	1	0	0	CorrectCommission	0.735312	0.940128	0	0	5.976471e+01
324.892822	1.332896	city	2	1	0.992731	0.992731	0	1	0	0	CorrectCommission	1.577914	0.977536	0	0	5.979412e+01
326.199005	1.279438	city	1	1	1.106697	1.106697	0	1	0	0	CorrectCommission	1.064995	1.008504	0	0	5.982353e+01
327.511810	1.346207	city	2	1	1.097550	1.097550	0	1	0	0	CorrectCommission	1.106163	1.032742	0	0	5.985294e+01
328.824799	1.279757	city	1	1	1.152794	1.152794	0	1	0	0	CorrectCommission	0.857532	1.050252	0	0	5.988235e+01
330.117798	1.306228	city	3	1	1.145692	1.145692	0	1	0	0	CorrectCommission	0.889495	1.061202	0	0	5.991176e+01
331.410706	1.279585	city	6	1	0.942057	0.942057	0	1	0	0	CorrectCommission	1.805979	1.065773	0	0	5.994118e+01
332.696838	1.292726	city	4	1	1.084171	1.084171	0	1	0	0	CorrectCommission	1.166376	1.064086	0	0	5.997059e+01
333.343201	8.690525	break	0	0	0.000000	1.150562	0	0	0	0	ThoughtProbe	0.867577	1.056161	0	60	60
342.686951	1.306424	city	3	1	1.278301	1.278301	0	1	0	0	CorrectCommission	0.292669	1.041891	0	0	5.954348e+01
343.979919	1.279505	city	6	1	1.604461	1.604461	0	1	0	0	CorrectCommission	1.175261	1.021141	0	0	5.908696e+01
345.266052	1.292752	mountain	7	0	0.000000	1.761410	1	0	0	0	CorrectOmission	1.881628	0.993805	0	0	5.863043e+01
346.558960	1.293066	city	9	1	1.709846	1.709846	0	1	0	0	CorrectCommission	1.649557	0.959977	0	0	5.817391e+01
347.858612	1.306238	mountain	2	0	0.000000	1.410469	1	0	0	0	CorrectOmission	0.302173	0.920086	0	0	5.771739e+01
349.151428	1.279439	city	5	1	1.313995	1.313995	0	1	0	0	CorrectCommission	0.132021	0.875064	0	0	5.726087e+01
350.444305	1.306292	city	7	1	1.871139	1.871139	0	1	0	0	CorrectCommission	2.375478	0.826290	0	0	5.680435e+01
351.750610	1.306318	city	8	1	1.564381	1.564381	0	1	0	0	CorrectCommission	0.994873	0.775551	0	0	5.634783e+01
353.063477	1.319409	city	4	1	1.278841	1.278841	0	1	0	0	CorrectCommission	0.290240	0.725062	0	0	5.589130e+01
354.369629	1.292927	city	6	1	1.316210	1.316210	0	1	0	0	CorrectCommission	0.122055	0.677208	1	0	5.543478e+01
355.675903	1.319582	city	3	1	1.165364	1.165364	0	1	0	0	CorrectCommission	0.800959	0.634378	1	0	5.497826e+01
356.982208	1.293029	city	8	1	1.297562	1.297562	0	1	0	0	CorrectCommission	0.205980	0.598672	1	0	5.452174e+01
358.281891	1.306337	city	2	1	1.262981	1.262981	0	1	0	0	CorrectCommission	0.361619	0.571833	1	0	5.406522e+01
359.574829	1.279552	city	7	1	1.321771	1.321771	0	1	0	0	CorrectCommission	0.097025	0.555022	1	0	5.360870e+01
360.867706	1.306182	city	1	1	1.258834	1.258834	0	1	0	0	CorrectCommission	0.380284	0.548799	1	0	5.315217e+01
362.167175	1.292780	city	8	1	1.246737	1.246737	0	1	0	0	CorrectCommission	0.434728	0.553108	1	0	5.269565e+01
363.480072	1.333005	city	10	1	1.238505	1.238505	0	1	0	0	CorrectCommission	0.471775	0.567344	1	0	5.223913e+01
364.799622	1.306096	mountain	8	1	1.100880	1.100880	0	0	1	0	CommissionError	1.091175	0.590468	1	0	5.178261e+01
366.105835	1.306306	city	1	1	1.427008	1.427008	0	1	0	0	CorrectCommission	0.376607	0.621089	1	0	5.132609e+01
367.398773	1.279625	city	10	1	1.315844	1.315844	0	1	0	0	CorrectCommission	0.123699	0.657606	1	0	5.086957e+01
368.691650	1.306122	city	3	1	1.492313	1.492313	0	1	0	0	CorrectCommission	0.670521	0.698258	1	0	5.041304e+01
369.997925	1.306377	city	4	1	1.489527	1.489527	0	1	0	0	CorrectCommission	0.657981	0.741210	0	0	4.995652e+01
371.304138	1.306073	city	7	1	1.495494	1.495494	0	1	0	0	CorrectCommission	0.684836	0.784666	0	0	4.950000e+01
372.597046	1.279762	city	6	1	1.392024	1.392024	0	1	0	0	CorrectCommission	0.219155	0.826875	0	0	4.904348e+01
373.883392	1.292915	city	9	1	2.011016	2.011016	0	1	0	0	CorrectCommission	3.005017	0.866227	0	0	4.858696e+01
375.189545	1.319391	city	1	1	1.057497	1.057497	0	1	0	0	CorrectCommission	1.286428	0.901221	0	0	4.813043e+01
376.502350	1.306219	city	5	1	1.354368	1.354368	0	1	0	0	CorrectCommission	0.049684	0.930615	0	0	4.767391e+01
377.808594	1.306270	city	2	1	1.347884	1.347884	0	1	0	0	CorrectCommission	0.020501	0.953380	0	0	4.721739e+01
379.141571	1.359684	city	10	1	1.463074	1.463074	0	1	0	0	CorrectCommission	0.538929	0.968727	0	0	4.676087e+01
380.481140	1.319440	city	6	1	1.906017	1.906017	0	1	0	0	CorrectCommission	2.532455	0.976237	0	0	4.630435e+01
381.807373	1.333026	city	9	0	0.000000	1.399561	0	0	0	1	OmissionError	0.253077	0.975941	0	0	4.584783e+01
383.126953	1.306169	city	3	1	0.833506	0.833506	0	1	0	0	CorrectCommission	2.294529	0.968523	0	0	4.539130e+01
384.433197	1.306324	mountain	2	1	1.097656	1.097656	0	0	1	0	CommissionError	1.105684	0.955150	0	0	4.493478e+01
385.732819	1.292889	city	3	1	1.658546	1.658546	0	1	0	0	CorrectCommission	1.418675	0.937591	0	0	4.447826e+01
387.038971	1.319412	city	4	1	1.537819	1.537819	0	1	0	0	CorrectCommission	0.875328	0.917919	0	0	4.402174e+01
388.358459	1.319582	city	1	1	1.352548	1.352548	0	1	0	0	CorrectCommission	0.041490	0.898294	0	0	4.356522e+01
389.658112	1.279705	city	10	1	1.235470	1.235470	0	1	0	0	CorrectCommission	0.485433	0.880605	0	0	4.310870e+01
390.937683	1.279450	city	8	1	1.464427	1.464427	0	1	0	0	CorrectCommission	0.545018	0.866141	0	0	4.265217e+01
392.230591	1.306375	city	4	1	1.661244	1.661244	0	1	0	0	CorrectCommission	1.430821	0.855369	0	0	4.219565e+01
393.536896	1.306240	city	2	1	1.404164	1.404164	0	1	0	0	CorrectCommission	0.273793	0.847806	0	0	4.173913e+01
394.883148	1.386221	city	5	1	1.284685	1.284685	0	1	0	0	CorrectCommission	0.263938	0.842163	0	0	4.128261e+01
396.229370	1.306245	city	9	1	1.162719	1.162719	0	1	0	0	CorrectCommission	0.812861	0.836519	0	0	4.082609e+01
397.528900	1.292796	city	7	1	1.416265	1.416265	0	1	0	0	CorrectCommission	0.328256	0.828711	0	0	4.036957e+01
398.821808	1.293021	city	8	1	1.691913	1.691913	0	1	0	0	CorrectCommission	1.568850	0.816790	0	0	3.991304e+01
400.121429	1.306223	city	5	1	0.724301	0.724301	0	1	0	0	CorrectCommission	2.786020	0.799357	0	0	3.945652e+01
400.774536	8.743761	break	0	1	1.070653	1.070653	0	0	0	0	ThoughtProbe	1.227216	0.775896	0	39	39
410.158142	1.279674	city	4	1	1.311159	1.311159	0	1	0	0	CorrectCommission	0.144789	0.746872	0	0	3.905882e+01
411.450958	1.306004	city	5	1	1.173428	1.173428	0	1	0	0	CorrectCommission	0.764665	0.713654	0	0	3.911765e+01
412.743835	1.279761	city	9	1	1.363824	1.363824	0	1	0	0	CorrectCommission	0.092241	0.678199	1	0	3.917647e+01
414.030151	1.292830	city	3	1	1.381834	1.381834	0	1	0	0	CorrectCommission	0.173295	0.642747	1	0	3.923529e+01
415.356323	1.359542	city	2	1	1.552851	1.552851	0	1	0	0	CorrectCommission	0.942981	0.609393	1	0	3.929412e+01
416.682526	1.292825	city	5	1	1.429020	1.429020	0	1	0	0	CorrectCommission	0.385665	0.579714	1	0	3.935294e+01
417.995453	1.333063	city	9	1	1.418809	1.418809	0	1	0	0	CorrectCommission	0.339705	0.554687	1	0	3.941176e+01
419.355103	1.386212	city	10	1	1.293264	1.293264	0	1	0	0	CorrectCommission	0.225327	0.534484	1	0	3.947059e+01
420.694550	1.292722	mountain	6	0	0.000000	1.314122	1	0	0	0	CorrectOmission	0.131453	0.518645	1	0	3.952941e+01
421.980804	1.279766	city	4	1	1.303626	1.303626	0	1	0	0	CorrectCommission	0.178689	0.506253	1	0	3.958824e+01
423.267059	1.292723	city	5	1	1.084021	1.084021	0	1	0	0	CorrectCommission	1.167053	0.496236	1	0	3.964706e+01
424.559967	1.293092	city	6	1	1.115171	1.115171	0	1	0	0	CorrectCommission	1.026856	0.487663	1	0	3.970588e+01
425.859558	1.306122	city	7	1	1.123437	1.123437	0	1	0	0	CorrectCommission	0.989656	0.479976	1	0	3.976471e+01
427.192413	1.359558	city	2	1	1.264337	1.264337	0	1	0	0	CorrectCommission	0.355517	0.473183	1	0	3.982353e+01
428.512024	1.279696	city	5	1	1.351723	1.351723	0	1	0	0	CorrectCommission	0.037779	0.467907	1	0	3.988235e+01
429.791656	1.279551	city	4	1	1.409108	1.409108	0	1	0	0	CorrectCommission	0.296045	0.465346	1	0	3.994118e+01
431.077881	1.292894	city	7	1	1.460347	1.460347	0	1	0	0	CorrectCommission	0.526656	0.467084	1	0	40
432.390717	1.332801	city	8	1	1.349588	1.349588	0	1	0	0	CorrectCommission	0.028169	0.474889	1	0	4.005882e+01
433.716980	1.319697	city	3	1	1.339166	1.339166	0	1	0	0	CorrectCommission	0.018738	0.490476	1	0	4.011765e+01
435.029938	1.306235	mountain	4	0	0.000000	1.480771	1	0	0	0	CorrectOmission	0.618574	0.515239	1	0	4.017647e+01
436.322845	1.279558	city	9	1	1.579153	1.579153	0	1	0	0	CorrectCommission	1.061357	0.549958	1	0	4.023529e+01
437.615723	1.306241	city	7	1	1.439063	1.439063	0	1	0	0	CorrectCommission	0.430863	0.594683	1	0	4.029412e+01
438.941895	1.346066	city	10	1	1.394036	1.394036	0	1	0	0	CorrectCommission	0.228214	0.648600	1	0	4.035294e+01
440.288116	1.346400	city	9	1	1.404668	1.404668	0	1	0	0	CorrectCommission	0.276064	0.709935	0	0	4.041176e+01
441.601044	1.279411	city	2	1	1.380079	1.380079	0	1	0	0	CorrectCommission	0.165395	0.776038	0	0	4.047059e+01
442.893921	1.306386	city	5	1	1.525223	1.525223	0	1	0	0	CorrectCommission	0.818638	0.843580	0	0	4.052941e+01
444.186829	1.279410	city	3	1	1.447534	1.447534	0	1	0	0	CorrectCommission	0.468986	0.908860	0	0	4.058824e+01
445.466400	1.279748	city	2	1	1.497288	1.497288	0	1	0	0	CorrectCommission	0.692912	0.968299	0	0	4.064706e+01
446.745972	1.279414	city	10	1	1.710795	1.710795	0	1	0	0	CorrectCommission	1.653831	1.018855	0	0	4.070588e+01
448.025574	1.279739	city	8	1	0.754124	0.754124	0	1	0	0	CorrectCommission	2.651796	1.058416	0	0	4.076471e+01
449.305237	1.279578	city	4	1	0.552320	0.552320	0	1	0	0	CorrectCommission	3.560046	1.086038	0	0	4.082353e+01
450.584808	1.279611	city	5	1	1.070809	1.070809	0	1	0	0	CorrectCommission	1.226513	1.101936	0	0	4.088235e+01
451.864319	1.279405	city	9	1	1.281439	1.281439	0	1	0	0	CorrectCommission	0.278545	1.107277	0	0	4.094118e+01
452.504028	8.730605	break	0	0	0.000000	1.314202	0	0	0	0	ThoughtProbe	0.131091	1.103700	0	41	41
461.874359	1.279428	mountain	1	0	0.000000	1.291360	1	0	0	0	CorrectOmission	0.233896	1.092828	0	0	4.134783e+01
463.153931	1.279735	city	2	1	1.335174	1.335174	0	1	0	0	CorrectCommission	0.036704	1.075892	0	0	4.169565e+01
464.433594	1.279574	city	1	1	1.567907	1.567907	0	1	0	0	CorrectCommission	1.010741	1.053590	0	0	4.204348e+01
465.713165	1.279598	city	7	1	1.672273	1.672273	0	1	0	0	CorrectCommission	1.480458	1.026051	0	0	4.239130e+01
466.992767	1.279606	city	4	1	0.697760	0.697760	0	1	0	0	CorrectCommission	2.905472	0.993146	0	0	4.273913e+01
468.272339	1.279534	city	6	1	1.657270	1.657270	0	1	0	0	CorrectCommission	1.412935	0.954845	0	0	4.308696e+01
469.551819	1.279446	city	5	1	1.579586	1.579586	0	1	0	0	CorrectCommission	1.063306	0.911698	0	0	4.343478e+01
470.831329	1.279574	city	6	1	1.466329	1.466329	0	1	0	0	CorrectCommission	0.553577	0.865029	0	0	4.378261e+01
472.110962	1.279702	city	4	1	1.550029	1.550029	0	1	0	0	CorrectCommission	0.930283	0.817049	0	0	4.413043e+01
473.390564	1.279481	city	6	1	1.497641	1.497641	0	1	0	0	CorrectCommission	0.694500	0.770725	0	0	4.447826e+01
474.670166	1.279691	city	1	1	1.390215	1.390215	0	1	0	0	CorrectCommission	0.211016	0.729495	0	0	4.482609e+01
475.949707	1.279421	city	10	1	1.292974	1.292974	0	1	0	0	CorrectCommission	0.226631	0.696811	1	0	4.517391e+01
477.229218	1.279582	mountain	4	1	1.177561	1.177561	0	0	1	0	CommissionError	0.746063	0.675631	1	0	4.552174e+01
478.508881	1.279735	city	1	1	1.461456	1.461456	0	1	0	0	CorrectCommission	0.531646	0.667918	1	0	4.586957e+01
479.788452	1.279446	city	8	1	1.390739	1.390739	0	1	0	0	CorrectCommission	0.213372	0.674293	1	0	4.621739e+01
481.067963	1.279557	city	9	1	1.337610	1.337610	0	1	0	0	CorrectCommission	0.025742	0.693794	1	0	4.656522e+01
482.347626	1.279751	city	8	1	1.316212	1.316212	0	1	0	0	CorrectCommission	0.122045	0.723833	0	0	4.691304e+01
483.627258	1.279562	mountain	3	0	0.000000	1.436295	1	0	0	0	CorrectOmission	0.418404	0.760399	0	0	4.726087e+01
484.906769	1.279421	city	8	1	1.550558	1.550558	0	1	0	0	CorrectCommission	0.932661	0.798467	0	0	4.760870e+01
486.186279	1.279596	city	3	1	1.511701	1.511701	0	1	0	0	CorrectCommission	0.757780	0.832636	0	0	4.795652e+01
487.465942	1.279723	city	7	1	1.449658	1.449658	0	1	0	0	CorrectCommission	0.478547	0.857798	0	0	4.830435e+01
488.745514	1.279424	city	5	1	1.976644	1.976644	0	1	0	0	CorrectCommission	2.850321	0.869802	0	0	4.865217e+01
490.025024	1.279590	city	8	1	1.926336	1.926336	0	1	0	0	CorrectCommission	2.623899	0.865913	0	0	49
491.304657	1.279719	city	4	1	0.979187	0.979187	0	1	0	0	CorrectCommission	1.638872	0.845228	0	0	4.934783e+01
492.590973	1.292911	city	5	1	1.243955	1.243955	0	1	0	0	CorrectCommission	0.447248	0.808661	0	0	4.969565e+01
493.877228	1.279594	city	8	1	1.284061	1.284061	0	1	0	0	CorrectCommission	0.266744	0.758694	0	0	5.004348e+01
495.156769	1.279472	city	3	1	1.186933	1.186933	0	1	0	0	CorrectCommission	0.703884	0.698902	0	0	5.039130e+01
496.436340	1.279692	city	8	1	1.413424	1.413424	0	1	0	0	CorrectCommission	0.315469	0.633449	1	0	5.073913e+01
497.715973	1.279578	city	1	1	1.349938	1.349938	0	1	0	0	CorrectCommission	0.029745	0.566550	1	0	5.108696e+01
498.995575	1.279582	city	2	1	1.300235	1.300235	0	1	0	0	CorrectCommission	0.193952	0.502029	1	0	5.143478e+01
500.275146	1.279553	city	8	1	1.232953	1.232953	0	1	0	0	CorrectCommission	0.496761	0.442992	1	0	5.178261e+01
501.554626	1.279445	city	5	1	1.207207	1.207207	0	1	0	0	CorrectCommission	0.612638	0.391712	1	0	5.213043e+01
502.834137	1.279581	mountain	2	0	0.000000	1.268112	1	0	0	0	CorrectOmission	0.338526	0.349648	1	0	5.247826e+01
504.113800	1.279709	city	4	1	1.337617	1.337617	0	1	0	0	CorrectCommission	0.025710	0.317527	1	0	5.282609e+01
505.393433	1.279581	city	8	1	1.337668	1.337668	0	1	0	0	CorrectCommission	0.025478	0.295473	1	0	5.317391e+01
506.673004	1.279561	city	5	1	1.294546	1.294546	0	1	0	0	CorrectCommission	0.219557	0.283163	1	0	5.352174e+01
507.952576	1.279602	city	6	1	1.338101	1.338101	0	1	0	0	CorrectCommission	0.023530	0.279947	1	0	5.386957e+01
509.232086	1.279425	city	2	1	1.390848	1.390848	0	1	0	0	CorrectCommission	0.213864	0.284979	1	0	5.421739e+01
510.511627	1.279617	city	1	1	1.394390	1.394390	0	1	0	0	CorrectCommission	0.229804	0.297272	1	0	5.456522e+01
511.797943	1.293021	city	8	1	1.350032	1.350032	0	1	0	0	CorrectCommission	0.030168	0.315772	1	0	5.491304e+01
513.084229	1.279582	city	4	1	1.228254	1.228254	0	1	0	0	CorrectCommission	0.517914	0.339405	1	0	5.526087e+01
514.363831	1.279593	city	2	1	1.283975	1.283975	0	1	0	0	CorrectCommission	0.267132	0.367118	1	0	5.560870e+01
515.643311	1.279403	city	10	1	1.284586	1.284586	0	1	0	0	CorrectCommission	0.264382	0.397955	1	0	5.595652e+01
516.922852	1.279656	city	9	1	1.175027	1.175027	0	1	0	0	CorrectCommission	0.757467	0.431011	1	0	5.630435e+01
518.203003	1.280687	city	10	1	1.230228	1.230228	0	1	0	0	CorrectCommission	0.509028	0.465465	1	0	5.665217e+01
522.628357	7.570013	break	0	0	1.232103	1.232103	0	0	0	0	ThoughtProbe	0.500591	0.500591	1	57	57
