onset	duration	trial_type	image_type	Press	ReactionTime	ReactionTime_Interpolated	CorrectOmission	CorrectCommission	CommissionError	OmissionError	response_type	nonsmoothVarianceTimeCourse	VarianceTimeCourse	In_the_Zone	ThoughtProbe	ThoughtProbe_Interpolated
0.652910	1.279725	city	8	1	1.128160	1.128160	0	1	0	0	CorrectCommission	2.286652	2.286652	0	0	100
1.932548	1.279551	city	10	1	1.182257	1.182257	0	1	0	0	CorrectCommission	1.721886	2.073203	0	0	100
3.212053	1.279459	city	1	1	1.286451	1.286451	0	1	0	0	CorrectCommission	0.634121	1.867670	0	0	100
4.491642	1.279720	city	9	1	1.393759	1.393759	0	1	0	0	CorrectCommission	0.486165	1.677200	0	0	100
5.771220	1.279435	mountain	8	0	0.000000	1.443963	1	0	0	0	CorrectOmission	1.010291	1.507441	0	0	100
7.050817	1.279758	city	9	1	1.443664	1.443664	0	1	0	0	CorrectCommission	1.007166	1.362095	0	0	100
8.330423	1.279455	city	3	1	1.399462	1.399462	0	1	0	0	CorrectCommission	0.545698	1.242777	0	0	100
9.609933	1.279565	city	8	1	1.443625	1.443625	0	1	0	0	CorrectCommission	1.006759	1.149144	0	0	100
10.889503	1.279573	city	9	1	1.391383	1.391383	0	1	0	0	CorrectCommission	0.461358	1.079224	0	0	100
12.169144	1.279710	city	10	1	1.320599	1.320599	0	1	0	0	CorrectCommission	0.277623	1.029967	0	0	100
13.455453	1.292908	city	8	1	1.209945	1.209945	0	1	0	0	CorrectCommission	1.432833	0.997832	0	0	100
14.741686	1.279558	city	6	1	1.181937	1.181937	0	1	0	0	CorrectCommission	1.725233	0.979266	0	0	100
16.021265	1.279599	city	2	1	1.209006	1.209006	0	1	0	0	CorrectCommission	1.442632	0.971152	0	0	100
17.300846	1.279564	mountain	4	0	0.000000	1.292206	1	0	0	0	CorrectOmission	0.574041	0.970995	0	0	100
18.580372	1.279489	mountain	2	0	0.000000	1.391301	1	0	0	0	CorrectOmission	0.460501	0.976949	0	0	100
19.859959	1.279683	city	9	1	1.466058	1.466058	0	1	0	0	CorrectCommission	1.240950	0.987648	0	0	100
21.146248	1.292897	city	7	1	1.476241	1.476241	0	1	0	0	CorrectCommission	1.347268	1.001879	0	0	100
22.432480	1.279566	city	9	1	1.283444	1.283444	0	1	0	0	CorrectCommission	0.665508	1.018318	0	0	100
23.711996	1.279468	city	2	1	1.309049	1.309049	0	1	0	0	CorrectCommission	0.398201	1.035295	0	0	100
24.991528	1.279597	city	9	1	1.296997	1.296997	0	1	0	0	CorrectCommission	0.524018	1.050675	0	0	100
26.271084	1.279514	city	7	1	1.322667	1.322667	0	1	0	0	CorrectCommission	0.256026	1.061964	0	0	100
27.550692	1.279702	mountain	3	0	0.000000	1.467378	1	0	0	0	CorrectOmission	1.254732	1.066600	0	0	100
28.830338	1.279589	city	1	1	1.603498	1.603498	0	1	0	0	CorrectCommission	2.675814	1.062304	0	0	100
30.109949	1.279636	city	5	1	1.603399	1.603399	0	1	0	0	CorrectCommission	2.674775	1.047497	0	0	100
31.389534	1.279532	city	7	1	1.497636	1.497636	0	1	0	0	CorrectCommission	1.570622	1.021660	0	0	100
32.669018	1.279435	city	1	1	1.299173	1.299173	0	1	0	0	CorrectCommission	0.501302	0.985479	0	0	100
33.948559	1.279650	city	10	1	1.293648	1.293648	0	1	0	0	CorrectCommission	0.558983	0.940756	0	0	100
35.228153	1.279538	city	7	1	1.455513	1.455513	0	1	0	0	CorrectCommission	1.130871	0.890125	0	0	100
36.507710	1.279570	city	10	1	1.302267	1.302267	0	1	0	0	CorrectCommission	0.469000	0.836716	0	0	100
37.787365	1.279744	city	8	1	1.429922	1.429922	0	1	0	0	CorrectCommission	0.863700	0.783675	1	0	100
39.073681	1.292887	city	6	1	1.363500	1.363500	0	1	0	0	CorrectCommission	0.170263	0.733758	1	0	100
40.359856	1.279461	city	4	1	1.380062	1.380062	0	1	0	0	CorrectCommission	0.343164	0.689066	1	0	100
41.666103	1.333034	city	1	1	1.368825	1.368825	0	1	0	0	CorrectCommission	0.225856	0.650873	1	0	100
42.979061	1.292882	city	4	1	1.373172	1.373172	0	1	0	0	CorrectCommission	0.271241	0.619665	1	0	100
44.271946	1.292893	city	10	1	1.214427	1.214427	0	1	0	0	CorrectCommission	1.386043	0.595266	1	0	100
45.558136	1.279481	city	3	1	1.250878	1.250878	0	1	0	0	CorrectCommission	1.005501	0.577055	1	0	100
46.837711	1.279670	city	9	1	1.357205	1.357205	0	1	0	0	CorrectCommission	0.104540	0.564241	1	0	100
48.124012	1.292935	city	4	1	1.364455	1.364455	0	1	0	0	CorrectCommission	0.180228	0.556044	1	0	100
49.410267	1.279572	city	1	1	1.303743	1.303743	0	1	0	0	CorrectCommission	0.453595	0.551788	1	0	100
50.703049	1.305996	city	5	1	1.240452	1.240452	0	1	0	0	CorrectCommission	1.114345	0.550996	1	0	100
51.995903	1.279706	city	8	1	1.291741	1.291741	0	1	0	0	CorrectCommission	0.578894	0.553326	1	0	100
53.275528	1.279549	city	2	1	1.300854	1.300854	0	1	0	0	CorrectCommission	0.483749	0.558493	1	0	100
54.555168	1.279726	city	3	1	1.365142	1.365142	0	1	0	0	CorrectCommission	0.187402	0.566132	1	0	100
55.834831	1.279603	city	8	1	1.354642	1.354642	0	1	0	0	CorrectCommission	0.077782	0.575664	1	0	100
57.114407	1.279548	city	10	1	1.294145	1.294145	0	1	0	0	CorrectCommission	0.553796	0.586239	1	0	100
60.499832	5.491300	break	0	0	0.000000	1.267772	0	0	0	0	ThoughtProbe	0.829127	0.596726	1	100	100
63.892014	1.293066	city	3	1	1.320050	1.320050	0	1	0	0	CorrectCommission	0.283345	0.605825	1	0	100
65.178291	1.279487	city	7	1	1.495509	1.495509	0	1	0	0	CorrectCommission	1.548420	0.612221	1	0	100
66.457840	1.279615	city	8	1	1.407867	1.407867	0	1	0	0	CorrectCommission	0.633444	0.614701	1	0	100
67.744179	1.293059	mountain	10	0	0.000000	1.399624	1	0	0	0	CorrectOmission	0.547392	0.612418	1	0	100
69.030418	1.279421	city	1	1	1.373120	1.373120	0	1	0	0	CorrectCommission	0.270691	0.605018	1	0	100
70.309937	1.279608	city	7	1	1.230692	1.230692	0	1	0	0	CorrectCommission	1.216236	0.592797	1	0	100
71.589523	1.279576	city	8	1	1.244918	1.244918	0	1	0	0	CorrectCommission	1.067720	0.576736	1	0	100
72.869087	1.279552	city	4	1	1.315179	1.315179	0	1	0	0	CorrectCommission	0.334204	0.558507	1	0	100
74.148720	1.279709	city	2	1	1.366508	1.366508	0	1	0	0	CorrectCommission	0.201666	0.540323	1	0	100
75.428375	1.279604	city	9	1	1.395034	1.395034	0	1	0	0	CorrectCommission	0.499478	0.524764	1	0	100
76.707932	1.279508	city	4	1	1.447074	1.447074	0	1	0	0	CorrectCommission	1.042764	0.514494	1	0	100
77.987427	1.279487	city	2	1	1.337178	1.337178	0	1	0	0	CorrectCommission	0.104538	0.511980	1	0	100
79.266953	1.279562	city	8	1	1.335315	1.335315	0	1	0	0	CorrectCommission	0.123987	0.519206	1	0	100
80.586525	1.359575	city	3	1	1.336766	1.336766	0	1	0	0	CorrectCommission	0.108837	0.537331	1	0	100
81.906120	1.279612	city	1	1	1.355878	1.355878	0	1	0	0	CorrectCommission	0.090691	0.566506	1	0	100
83.192421	1.292998	city	5	1	1.382883	1.382883	0	1	0	0	CorrectCommission	0.372614	0.605759	1	0	100
84.491966	1.306091	city	4	1	1.352399	1.352399	0	1	0	0	CorrectCommission	0.054374	0.653070	1	0	100
85.811531	1.333045	city	5	1	1.286367	1.286367	0	1	0	0	CorrectCommission	0.634999	0.705599	1	0	100
87.144394	1.332672	city	4	1	1.284412	1.284412	0	1	0	0	CorrectCommission	0.655401	0.759966	1	0	100
88.457314	1.293170	city	9	1	1.212859	1.212859	0	1	0	0	CorrectCommission	1.402413	0.812714	0	0	100
89.743660	1.279530	city	5	1	1.180673	1.180673	0	1	0	0	CorrectCommission	1.738423	0.860675	0	0	100
91.023170	1.279489	city	7	1	1.192381	1.192381	0	1	0	0	CorrectCommission	1.616194	0.901341	0	0	100
92.302773	1.279705	city	8	1	1.248774	1.248774	0	1	0	0	CorrectCommission	1.027465	0.933117	0	0	100
93.582359	1.279469	city	7	1	1.337992	1.337992	0	1	0	0	CorrectCommission	0.096041	0.955347	0	0	100
94.875267	1.306357	mountain	5	0	0.000000	1.445722	1	0	0	0	CorrectOmission	1.028647	0.968286	0	0	100
96.168159	1.279424	city	5	1	1.527631	1.527631	0	1	0	0	CorrectCommission	1.883773	0.972812	0	0	100
97.454391	1.293042	city	6	1	1.539388	1.539388	0	1	0	0	CorrectCommission	2.006511	0.970179	0	0	100
98.754059	1.306288	city	5	1	1.364110	1.364110	0	1	0	0	CorrectCommission	0.176627	0.961693	0	0	100
100.060242	1.306076	city	9	1	1.339422	1.339422	0	1	0	0	CorrectCommission	0.081104	0.948468	0	0	100
101.353035	1.279521	city	5	1	1.308396	1.308396	0	1	0	0	CorrectCommission	0.405020	0.931192	0	0	100
102.632660	1.279726	city	9	1	1.234276	1.234276	0	1	0	0	CorrectCommission	1.178824	0.910086	0	0	100
103.912315	1.279578	city	5	1	1.249904	1.249904	0	1	0	0	CorrectCommission	1.015669	0.884998	0	0	100
105.191856	1.279507	city	3	1	1.460732	1.460732	0	1	0	0	CorrectCommission	1.185348	0.855630	0	0	100
108.490761	5.318301	break	0	0	0.000000	1.493183	0	0	0	0	ThoughtProbe	1.524141	0.821776	0	100	100
111.789726	1.279638	mountain	7	0	0.000000	1.442342	1	0	0	0	CorrectOmission	0.993362	0.783579	1	0	9.994118e+01
113.069344	1.279587	city	8	1	1.403290	1.403290	0	1	0	0	CorrectCommission	0.585665	0.741732	1	0	9.988235e+01
114.348900	1.279525	city	3	1	1.471110	1.471110	0	1	0	0	CorrectCommission	1.293699	0.697546	1	0	9.982353e+01
115.628395	1.279461	city	2	1	1.317843	1.317843	0	1	0	0	CorrectCommission	0.306392	0.652845	1	0	9.976471e+01
116.907913	1.279586	city	3	1	1.405710	1.405710	0	1	0	0	CorrectCommission	0.610931	0.609813	1	0	9.970588e+01
118.194221	1.293026	city	1	1	1.366922	1.366922	0	1	0	0	CorrectCommission	0.205988	0.570704	1	0	9.964706e+01
119.507111	1.332759	city	5	1	1.351657	1.351657	0	1	0	0	CorrectCommission	0.046626	0.537590	1	0	9.958824e+01
120.813370	1.279753	city	4	1	1.382209	1.382209	0	1	0	0	CorrectCommission	0.365583	0.512106	1	0	9.952941e+01
122.113037	1.319587	city	3	1	1.342680	1.342680	0	1	0	0	CorrectCommission	0.047090	0.495317	1	0	9.947059e+01
123.432541	1.319409	city	2	1	1.287451	1.287451	0	1	0	0	CorrectCommission	0.623680	0.487636	1	0	9.941176e+01
124.738708	1.292925	city	9	1	1.319123	1.319123	0	1	0	0	CorrectCommission	0.293026	0.488875	1	0	9.935294e+01
126.031601	1.292869	city	4	1	1.378973	1.378973	0	1	0	0	CorrectCommission	0.331803	0.498373	1	0	9.929412e+01
127.337807	1.319541	city	9	1	1.301150	1.301150	0	1	0	0	CorrectCommission	0.480664	0.515125	1	0	9.923529e+01
128.637390	1.279640	city	2	1	1.284540	1.284540	0	1	0	0	CorrectCommission	0.654075	0.537931	1	0	9.917647e+01
129.930389	1.306349	city	10	1	1.264145	1.264145	0	1	0	0	CorrectCommission	0.866987	0.565549	1	0	9.911765e+01
131.223343	1.279559	city	4	1	1.384802	1.384802	0	1	0	0	CorrectCommission	0.392656	0.596804	1	0	9.905882e+01
132.529587	1.332927	city	5	1	1.405354	1.405354	0	1	0	0	CorrectCommission	0.607214	0.630605	1	0	99
133.842499	1.292886	city	7	1	1.447138	1.447138	0	1	0	0	CorrectCommission	1.043432	0.665949	1	0	9.894118e+01
135.135391	1.292920	city	1	1	1.365982	1.365982	0	1	0	0	CorrectCommission	0.196180	0.701888	1	0	9.888235e+01
136.421600	1.279478	city	2	1	1.337664	1.337664	0	1	0	0	CorrectCommission	0.099466	0.737581	1	0	9.882353e+01
137.707764	1.292863	city	1	1	1.367674	1.367674	0	1	0	0	CorrectCommission	0.213836	0.772279	1	0	9.876471e+01
139.000656	1.292917	mountain	6	0	0.000000	1.498359	1	0	0	0	CorrectOmission	1.578175	0.805412	0	0	9.870588e+01
140.286972	1.279724	city	1	1	1.567212	1.567212	0	1	0	0	CorrectCommission	2.296987	0.836583	0	0	9.864706e+01
141.566574	1.279465	city	3	1	1.411723	1.411723	0	1	0	0	CorrectCommission	0.673704	0.865692	0	0	9.858824e+01
142.859482	1.306350	city	2	1	1.446559	1.446559	0	1	0	0	CorrectCommission	1.037388	0.892900	0	0	9.852941e+01
144.159119	1.292913	city	6	1	1.382059	1.382059	0	1	0	0	CorrectCommission	0.364018	0.918531	0	0	9.847059e+01
145.451981	1.292817	city	5	1	1.379412	1.379412	0	1	0	0	CorrectCommission	0.336381	0.942982	0	0	9.841176e+01
146.758209	1.319636	city	2	1	1.199480	1.199480	0	1	0	0	CorrectCommission	1.542085	0.966559	0	0	9.835294e+01
148.064407	1.292765	city	8	1	1.313604	1.313604	0	1	0	0	CorrectCommission	0.350650	0.989323	0	0	9.829412e+01
149.350479	1.279393	city	3	1	1.243809	1.243809	0	1	0	0	CorrectCommission	1.079298	1.011108	0	0	9.823529e+01
150.630051	1.279739	city	9	1	1.257780	1.257780	0	1	0	0	CorrectCommission	0.933445	1.031470	0	0	9.817647e+01
151.909790	1.279753	city	8	1	1.193672	1.193672	0	1	0	0	CorrectCommission	1.602722	1.049763	0	0	9.811765e+01
153.189468	1.279583	city	7	1	1.230496	1.230496	0	1	0	0	CorrectCommission	1.218279	1.065285	0	0	9.805882e+01
156.481644	5.304772	break	0	0	0.000000	1.214309	0	0	0	0	ThoughtProbe	1.387268	1.077420	0	98	98
159.773804	1.279552	city	10	1	1.236377	1.236377	0	1	0	0	CorrectCommission	1.156883	1.085762	0	0	9.804348e+01
161.060043	1.292936	city	9	1	1.387965	1.387965	0	1	0	0	CorrectCommission	0.425679	1.090192	0	0	9.808696e+01
162.353043	1.293043	city	7	1	1.493814	1.493814	0	1	0	0	CorrectCommission	1.530728	1.090958	0	0	9.813043e+01
163.639328	1.279527	city	3	1	1.459441	1.459441	0	1	0	0	CorrectCommission	1.171873	1.088609	0	0	9.817391e+01
164.925598	1.293036	mountain	5	0	0.000000	1.436497	1	0	0	0	CorrectOmission	0.932347	1.084061	0	0	9.821739e+01
166.211838	1.279419	city	5	1	1.460470	1.460470	0	1	0	0	CorrectCommission	1.182613	1.078434	0	0	9.826087e+01
167.491364	1.279647	city	4	1	1.566843	1.566843	0	1	0	0	CorrectCommission	2.293138	1.072979	0	0	9.830435e+01
168.784256	1.306138	city	9	1	1.327062	1.327062	0	1	0	0	CorrectCommission	0.210148	1.068890	0	0	9.834783e+01
170.103836	1.333035	city	1	1	1.274624	1.274624	0	1	0	0	CorrectCommission	0.757591	1.067250	0	0	9.839130e+01
171.410187	1.279660	city	4	1	1.354703	1.354703	0	1	0	0	CorrectCommission	0.078420	1.068749	0	0	9.843478e+01
172.689682	1.279315	city	8	1	1.259600	1.259600	0	1	0	0	CorrectCommission	0.914442	1.073672	0	0	9.847826e+01
173.975876	1.293095	city	6	1	1.191489	1.191489	0	1	0	0	CorrectCommission	1.625505	1.081832	0	0	9.852174e+01
175.268860	1.292873	city	3	1	1.166453	1.166453	0	1	0	0	CorrectCommission	1.886882	1.092561	0	0	9.856522e+01
176.561691	1.292762	mountain	6	0	0.000000	1.288960	1	0	0	0	CorrectOmission	0.607926	1.104808	0	0	9.860870e+01
177.847961	1.279778	mountain	7	0	0.000000	1.442329	1	0	0	0	CorrectOmission	0.993223	1.117240	0	0	9.865217e+01
179.127609	1.279535	city	6	1	1.509877	1.509877	0	1	0	0	CorrectCommission	1.698422	1.128270	0	0	9.869565e+01
180.413818	1.292893	city	3	1	1.374924	1.374924	0	1	0	0	CorrectCommission	0.289530	1.136304	0	0	9.873913e+01
181.699982	1.279430	city	10	1	1.244624	1.244624	0	1	0	0	CorrectCommission	1.070789	1.139904	0	0	9.878261e+01
182.986221	1.293053	city	8	1	1.273901	1.273901	0	1	0	0	CorrectCommission	0.765134	1.137925	0	0	9.882609e+01
184.272491	1.279480	city	10	1	1.140701	1.140701	0	1	0	0	CorrectCommission	2.155726	1.129764	0	0	9.886957e+01
185.552078	1.279690	city	4	1	1.186513	1.186513	0	1	0	0	CorrectCommission	1.677463	1.115421	0	0	9.891304e+01
186.831726	1.279588	city	1	1	1.147307	1.147307	0	1	0	0	CorrectCommission	2.086764	1.095639	0	0	9.895652e+01
188.111252	1.279494	city	7	1	1.304292	1.304292	0	1	0	0	CorrectCommission	0.447860	1.071806	0	0	99
189.404099	1.306194	city	3	1	1.206741	1.206741	0	1	0	0	CorrectCommission	1.466283	1.045848	0	0	9.904348e+01
190.697067	1.279728	city	10	1	1.301160	1.301160	0	1	0	0	CorrectCommission	0.480556	1.019875	0	0	9.908696e+01
191.976624	1.279395	city	8	1	1.284444	1.284444	0	1	0	0	CorrectCommission	0.655068	0.995985	0	0	9.913043e+01
193.262878	1.293100	city	10	1	1.379767	1.379767	0	1	0	0	CorrectCommission	0.340089	0.975913	0	0	9.917391e+01
194.555832	1.292813	city	7	1	1.422105	1.422105	0	1	0	0	CorrectCommission	0.782095	0.960858	0	0	9.921739e+01
195.875305	1.346142	city	10	1	1.397518	1.397518	0	1	0	0	CorrectCommission	0.525407	0.951324	0	0	9.926087e+01
197.208237	1.319716	mountain	5	0	0.000000	1.435561	1	0	0	0	CorrectOmission	0.922573	0.947211	0	0	9.930435e+01
198.507858	1.279536	city	5	1	1.474443	1.474443	0	1	0	0	CorrectCommission	1.328489	0.947839	0	0	9.934783e+01
199.787445	1.279619	city	2	1	1.452370	1.452370	0	1	0	0	CorrectCommission	1.098053	0.952127	0	0	9.939130e+01
201.073700	1.292910	city	9	1	1.529690	1.529690	0	1	0	0	CorrectCommission	1.905269	0.958726	0	0	9.943478e+01
202.359955	1.279589	city	3	1	1.475533	1.475533	0	1	0	0	CorrectCommission	1.339870	0.966091	0	0	9.947826e+01
203.652847	1.306206	city	8	1	1.342499	1.342499	0	1	0	0	CorrectCommission	0.048988	0.972592	0	0	9.952174e+01
204.959015	1.306120	city	5	1	1.380857	1.380857	0	1	0	0	CorrectCommission	0.351469	0.976560	0	0	9.956522e+01
206.251907	1.279678	city	8	1	1.367190	1.367190	0	1	0	0	CorrectCommission	0.208790	0.976326	0	0	9.960870e+01
207.544907	1.306311	city	10	1	1.394447	1.394447	0	1	0	0	CorrectCommission	0.493350	0.970386	0	0	9.965217e+01
208.857910	1.319699	city	8	1	1.597762	1.597762	0	1	0	0	CorrectCommission	2.615924	0.957654	0	0	9.969565e+01
210.164093	1.292666	city	5	1	1.500611	1.500611	0	1	0	0	CorrectCommission	1.601686	0.937638	0	0	9.973913e+01
211.483582	1.346320	city	9	1	1.507165	1.507165	0	1	0	0	CorrectCommission	1.670112	0.910764	0	0	9.978261e+01
212.803207	1.292907	city	7	1	1.488899	1.488899	0	1	0	0	CorrectCommission	1.479409	0.878324	0	0	9.982609e+01
214.089355	1.279394	city	2	1	1.314909	1.314909	0	1	0	0	CorrectCommission	0.337025	0.842523	0	0	9.986957e+01
215.388916	1.319750	city	7	1	1.295858	1.295858	0	1	0	0	CorrectCommission	0.535915	0.806243	0	0	9.991304e+01
216.715195	1.332784	city	6	1	1.313393	1.313393	0	1	0	0	CorrectCommission	0.352847	0.772663	1	0	9.995652e+01
220.553925	6.344693	break	0	0	0.000000	1.363631	0	0	0	0	ThoughtProbe	0.171633	0.744828	1	100	100
224.366058	1.279556	city	3	1	1.408149	1.408149	0	1	0	0	CorrectCommission	0.636391	0.725239	1	0	100
225.645584	1.279509	city	2	1	1.408522	1.408522	0	1	0	0	CorrectCommission	0.640291	0.715483	1	0	100
226.931854	1.293025	city	9	1	1.318652	1.318652	0	1	0	0	CorrectCommission	0.297939	0.716066	1	0	100
228.224655	1.292594	city	6	1	1.327919	1.327919	0	1	0	0	CorrectCommission	0.201202	0.726347	1	0	100
229.524216	1.306510	city	3	1	1.330076	1.330076	0	1	0	0	CorrectCommission	0.178679	0.744719	1	0	100
230.823837	1.292741	city	7	1	1.279033	1.279033	0	1	0	0	CorrectCommission	0.711562	0.768862	1	0	100
232.116745	1.293087	city	6	1	1.215625	1.215625	0	1	0	0	CorrectCommission	1.373534	0.796121	0	0	100
233.409668	1.292743	city	2	1	1.136844	1.136844	0	1	0	0	CorrectCommission	2.195996	0.823891	0	0	100
234.702560	1.293044	mountain	8	0	0.000000	1.257868	1	0	0	0	CorrectOmission	0.932522	0.849950	0	0	100
235.988907	1.279641	city	1	1	1.390838	1.390838	0	1	0	0	CorrectCommission	0.455667	0.872758	0	0	100
237.268494	1.279540	city	7	1	1.347895	1.347895	0	1	0	0	CorrectCommission	0.007350	0.891553	0	0	100
238.567993	1.319450	city	6	1	1.412119	1.412119	0	1	0	0	CorrectCommission	0.677834	0.906321	0	0	100
239.874222	1.293010	mountain	10	0	0.000000	1.539834	1	0	0	0	CorrectOmission	2.011172	0.917646	0	0	100
241.160538	1.279617	city	6	1	1.575796	1.575796	0	1	0	0	CorrectCommission	2.386605	0.926540	0	0	100
242.440048	1.279406	city	2	1	1.364756	1.364756	0	1	0	0	CorrectCommission	0.183377	0.934132	0	0	100
243.739532	1.319578	city	10	1	1.341256	1.341256	0	1	0	0	CorrectCommission	0.061963	0.941504	0	0	100
245.039124	1.279609	city	7	1	1.420450	1.420450	0	1	0	0	CorrectCommission	0.764815	0.949329	0	0	100
246.332016	1.306170	city	9	1	1.388955	1.388955	0	1	0	0	CorrectCommission	0.436011	0.957752	0	0	100
247.638229	1.306254	city	6	1	1.246677	1.246677	0	1	0	0	CorrectCommission	1.049355	0.966398	0	0	100
248.944565	1.306409	city	5	1	1.260172	1.260172	0	1	0	0	CorrectCommission	0.908466	0.974366	0	0	100
250.237549	1.279566	city	1	1	1.228463	1.228463	0	1	0	0	CorrectCommission	1.239507	0.980468	0	0	100
251.523727	1.292784	city	8	1	1.197445	1.197445	0	1	0	0	CorrectCommission	1.563334	0.983478	0	0	100
252.809937	1.279634	city	9	1	1.267534	1.267534	0	1	0	0	CorrectCommission	0.831612	0.982344	0	0	100
254.116180	1.332873	city	3	1	1.201666	1.201666	0	1	0	0	CorrectCommission	1.519264	0.976449	0	0	100
255.435715	1.306181	city	1	1	1.217249	1.217249	0	1	0	0	CorrectCommission	1.356579	0.965695	0	0	100
256.728638	1.279693	city	2	1	1.198507	1.198507	0	1	0	0	CorrectCommission	1.552247	0.950509	0	0	100
258.008301	1.279610	city	3	1	1.380367	1.380367	0	1	0	0	CorrectCommission	0.346355	0.931745	0	0	100
259.294556	1.292916	city	9	1	1.364060	1.364060	0	1	0	0	CorrectCommission	0.176107	0.910531	0	0	100
260.587402	1.292781	city	2	1	1.363434	1.363434	0	1	0	0	CorrectCommission	0.169578	0.888062	0	0	100
261.906952	1.346285	city	6	1	1.223822	1.223822	0	1	0	0	CorrectCommission	1.287953	0.865463	0	0	100
263.233246	1.306296	city	1	1	1.196792	1.196792	0	1	0	0	CorrectCommission	1.570143	0.843705	0	0	100
264.532776	1.292779	city	2	1	1.391772	1.391772	0	1	0	0	CorrectCommission	0.465415	0.823568	0	0	100
265.832367	1.306374	city	7	1	1.480719	1.480719	0	1	0	0	CorrectCommission	1.394010	0.805665	0	0	100
269.271271	5.571489	break	0	0	0.000000	1.393377	0	0	0	0	ThoughtProbe	0.482175	0.790361	0	100	100
272.696808	1.279549	city	8	1	1.283707	1.283707	0	1	0	0	CorrectCommission	0.662761	0.777856	1	0	100
273.976379	1.279612	city	5	1	1.305670	1.305670	0	1	0	0	CorrectCommission	0.433471	0.768143	1	0	100
275.255951	1.279537	mountain	9	0	0.000000	1.387829	1	0	0	0	CorrectOmission	0.424259	0.761047	1	0	100
276.535461	1.279445	city	9	1	1.444110	1.444110	0	1	0	0	CorrectCommission	1.011824	0.756210	1	0	100
277.815063	1.279764	city	4	1	1.388438	1.388438	0	1	0	0	CorrectCommission	0.430617	0.753091	1	0	100
279.094666	1.279462	city	5	1	1.390200	1.390200	0	1	0	0	CorrectCommission	0.449003	0.751103	1	0	100
280.374237	1.279672	city	6	1	1.548615	1.548615	0	1	0	0	CorrectCommission	2.102840	0.749640	1	0	100
281.653870	1.279599	city	8	1	1.388287	1.388287	0	1	0	0	CorrectCommission	0.429041	0.748178	1	0	100
282.933441	1.279559	city	6	1	1.335218	1.335218	0	1	0	0	CorrectCommission	0.124999	0.746449	1	0	100
284.213013	1.279544	city	1	1	1.234457	1.234457	0	1	0	0	CorrectCommission	1.176932	0.744407	1	0	100
285.492584	1.279619	city	9	1	1.293570	1.293570	0	1	0	0	CorrectCommission	0.559795	0.742278	1	0	100
286.772095	1.279426	city	1	1	1.243462	1.243462	0	1	0	0	CorrectCommission	1.082920	0.740546	1	0	100
288.051666	1.279708	city	7	1	1.283822	1.283822	0	1	0	0	CorrectCommission	0.661564	0.739872	1	0	100
289.331329	1.279613	city	8	1	1.310458	1.310458	0	1	0	0	CorrectCommission	0.383488	0.741005	1	0	100
290.610870	1.279494	mountain	9	0	0.000000	1.416592	1	0	0	0	CorrectOmission	0.724536	0.744643	1	0	100
291.890381	1.279487	city	6	1	1.456496	1.456496	0	1	0	0	CorrectCommission	1.141134	0.751312	1	0	100
293.170013	1.279775	city	7	1	1.284444	1.284444	0	1	0	0	CorrectCommission	0.655067	0.761224	1	0	100
294.449585	1.279406	city	2	1	1.281384	1.281384	0	1	0	0	CorrectCommission	0.687020	0.774208	1	0	100
295.729095	1.279570	city	3	1	1.354855	1.354855	0	1	0	0	CorrectCommission	0.080010	0.789652	0	0	100
297.008728	1.279726	city	7	1	1.337443	1.337443	0	1	0	0	CorrectCommission	0.101767	0.806627	0	0	100
298.288300	1.279419	city	6	1	1.230867	1.230867	0	1	0	0	CorrectCommission	1.214404	0.823935	0	0	100
299.567810	1.279577	city	3	1	1.241022	1.241022	0	1	0	0	CorrectCommission	1.108396	0.840325	0	0	100
300.847473	1.279763	city	10	1	1.194213	1.194213	0	1	0	0	CorrectCommission	1.597070	0.854701	0	0	100
302.127136	1.279543	city	1	1	1.230137	1.230137	0	1	0	0	CorrectCommission	1.222027	0.866248	0	0	100
303.406708	1.279607	city	8	1	1.235191	1.235191	0	1	0	0	CorrectCommission	1.169265	0.874542	0	0	100
304.686279	1.279574	city	10	1	1.283815	1.283815	0	1	0	0	CorrectCommission	0.661642	0.879496	0	0	100
305.965851	1.279571	mountain	10	0	0.000000	1.292974	1	0	0	0	CorrectOmission	0.566016	0.881287	0	0	100
307.245392	1.279464	city	10	1	1.284873	1.284873	0	1	0	0	CorrectCommission	0.650590	0.880184	0	0	100
308.524902	1.279601	city	3	1	1.281715	1.281715	0	1	0	0	CorrectCommission	0.683566	0.876332	0	0	100
309.804565	1.279694	city	2	1	1.230978	1.230978	0	1	0	0	CorrectCommission	1.213252	0.869724	0	0	100
311.084198	1.279554	city	5	1	1.293461	1.293461	0	1	0	0	CorrectCommission	0.560935	0.860149	0	0	100
312.363739	1.279554	city	7	1	1.245944	1.245944	0	1	0	0	CorrectCommission	1.057007	0.847248	0	0	100
313.643311	1.279601	city	3	1	1.247663	1.247663	0	1	0	0	CorrectCommission	1.039061	0.830663	0	0	100
314.922913	1.279599	city	4	1	1.336631	1.336631	0	1	0	0	CorrectCommission	0.110241	0.810229	0	0	100
316.202423	1.279420	city	9	1	1.177932	1.177932	0	1	0	0	CorrectCommission	1.767039	0.786163	1	0	100
317.481995	1.279723	city	5	1	1.230100	1.230100	0	1	0	0	CorrectCommission	1.222420	0.759103	1	0	100
318.761566	1.279420	city	9	1	1.231982	1.231982	0	1	0	0	CorrectCommission	1.202767	0.730176	1	0	100
320.042206	1.281870	city	10	1	1.388310	1.388310	0	1	0	0	CorrectCommission	0.429276	0.700865	1	0	100
321.321899	1.277468	city	5	1	1.402995	1.402995	0	1	0	0	CorrectCommission	0.582584	0.672784	1	0	100
324.713013	5.504771	break	0	0	0.000000	1.369713	0	0	0	0	ThoughtProbe	0.235128	0.647383	1	100	100
328.105194	1.279618	city	5	1	1.336906	1.336906	0	1	0	0	CorrectCommission	0.107379	0.625721	1	0	100
329.384766	1.279540	city	3	1	1.353013	1.353013	0	1	0	0	CorrectCommission	0.060776	0.608274	1	0	100
330.664337	1.279568	city	1	1	1.336794	1.336794	0	1	0	0	CorrectCommission	0.108545	0.594860	1	0	100
331.943878	1.279514	mountain	9	0	0.000000	1.379934	1	0	0	0	CorrectOmission	0.341836	0.584787	1	0	100
333.223511	1.279742	mountain	4	0	0.000000	1.445577	1	0	0	0	CorrectOmission	1.027139	0.577059	1	0	100
334.503113	1.279478	city	1	1	1.496866	1.496866	0	1	0	0	CorrectCommission	1.562585	0.570696	1	0	100
335.782684	1.279671	city	3	1	1.496943	1.496943	0	1	0	0	CorrectCommission	1.563394	0.564981	1	0	100
337.062317	1.279592	city	2	1	1.360705	1.360705	0	1	0	0	CorrectCommission	0.141082	0.559676	1	0	100
338.341827	1.279459	city	4	1	1.336814	1.336814	0	1	0	0	CorrectCommission	0.108340	0.555053	1	0	100
339.621429	1.279687	city	5	1	1.283901	1.283901	0	1	0	0	CorrectCommission	0.660737	0.551744	1	0	100
340.900970	1.279454	city	8	1	1.337580	1.337580	0	1	0	0	CorrectCommission	0.100338	0.550537	1	0	100
342.180511	1.279609	city	9	1	1.355151	1.355151	0	1	0	0	CorrectCommission	0.083105	0.552137	1	0	100
343.460144	1.279658	city	4	1	1.390725	1.390725	0	1	0	0	CorrectCommission	0.454493	0.556902	1	0	100
344.739777	1.279610	city	3	1	1.294408	1.294408	0	1	0	0	CorrectCommission	0.551045	0.564684	1	0	100
346.019287	1.279412	city	6	1	1.286727	1.286727	0	1	0	0	CorrectCommission	0.631242	0.574772	1	0	100
347.298859	1.279721	city	7	1	1.339821	1.339821	0	1	0	0	CorrectCommission	0.076940	0.586003	1	0	100
348.578430	1.279442	city	8	1	1.495121	1.495121	0	1	0	0	CorrectCommission	1.544365	0.596894	1	0	100
349.858032	1.279736	city	5	1	1.295991	1.295991	0	1	0	0	CorrectCommission	0.534520	0.605833	1	0	100
351.137695	1.279565	city	6	1	1.296461	1.296461	0	1	0	0	CorrectCommission	0.529619	0.611432	1	0	100
352.417175	1.279424	city	1	1	1.283805	1.283805	0	1	0	0	CorrectCommission	0.661743	0.612665	1	0	100
353.696747	1.279712	city	7	1	1.240480	1.240480	0	1	0	0	CorrectCommission	1.114050	0.609067	1	0	100
354.976410	1.279618	city	8	1	1.291155	1.291155	0	1	0	0	CorrectCommission	0.585014	0.600839	1	0	100
356.255920	1.279411	city	3	1	1.281615	1.281615	0	1	0	0	CorrectCommission	0.684610	0.588885	1	0	100
357.535431	1.279620	city	2	1	1.394701	1.394701	0	1	0	0	CorrectCommission	0.496002	0.574709	1	0	100
358.815094	1.279710	city	1	1	1.441821	1.441821	0	1	0	0	CorrectCommission	0.987921	0.560264	1	0	100
360.094727	1.279554	city	7	1	1.370797	1.370797	0	1	0	0	CorrectCommission	0.246439	0.547699	1	0	100
361.374329	1.279606	city	3	1	1.390492	1.390492	0	1	0	0	CorrectCommission	0.452055	0.539111	1	0	100
362.653900	1.279545	city	8	1	1.362697	1.362697	0	1	0	0	CorrectCommission	0.161879	0.536215	1	0	100
363.933441	1.279585	mountain	6	0	0.000000	1.368008	1	0	0	0	CorrectOmission	0.217326	0.540088	1	0	100
365.213043	1.279577	city	3	1	1.388001	1.388001	0	1	0	0	CorrectCommission	0.426050	0.550993	1	0	100
366.492615	1.279562	city	4	1	1.404251	1.404251	0	1	0	0	CorrectCommission	0.595703	0.568269	1	0	100
367.772125	1.279488	city	8	1	1.337104	1.337104	0	1	0	0	CorrectCommission	0.105310	0.590326	1	0	100
369.051697	1.279658	city	7	1	1.410158	1.410158	0	1	0	0	CorrectCommission	0.657362	0.614882	1	0	100
370.331360	1.279638	city	1	1	1.342460	1.342460	0	1	0	0	CorrectCommission	0.049391	0.639199	1	0	100
371.610962	1.279570	city	8	1	1.288756	1.288756	0	1	0	0	CorrectCommission	0.610057	0.660564	1	0	100
372.890533	1.279586	city	3	1	1.496846	1.496846	0	1	0	0	CorrectCommission	1.562382	0.676665	1	0	100
374.170013	1.279383	city	10	1	1.444030	1.444030	0	1	0	0	CorrectCommission	1.010986	0.685998	1	0	100
375.449585	1.279748	city	1	1	1.548313	1.548313	0	1	0	0	CorrectCommission	2.099683	0.688221	1	0	100
376.729218	1.279507	city	4	1	1.443572	1.443572	0	1	0	0	CorrectCommission	1.006208	0.684142	1	0	100
380.081360	5.424808	break	0	0	0.000000	1.400922	0	0	0	0	ThoughtProbe	0.560943	0.675708	1	100	100
383.440247	1.292943	city	3	1	1.380966	1.380966	0	1	0	0	CorrectCommission	0.352608	0.665614	1	0	9.997826e+01
384.733246	1.293041	mountain	6	0	0.000000	1.344310	1	0	0	0	CorrectOmission	0.030079	0.656861	1	0	9.995652e+01
386.026123	1.292727	city	9	1	1.326631	1.326631	0	1	0	0	CorrectCommission	0.214641	0.652227	1	0	9.993478e+01
387.325684	1.306425	city	4	1	1.363609	1.363609	0	1	0	0	CorrectCommission	0.171396	0.653782	1	0	9.991304e+01
388.625275	1.292734	city	6	1	1.321564	1.321564	0	1	0	0	CorrectCommission	0.267547	0.662574	1	0	9.989130e+01
389.911438	1.279577	city	3	1	1.308254	1.308254	0	1	0	0	CorrectCommission	0.406502	0.678479	1	0	9.986957e+01
391.191010	1.279557	city	8	1	1.250430	1.250430	0	1	0	0	CorrectCommission	1.010179	0.700232	1	0	9.984783e+01
392.470581	1.279590	city	1	1	1.310371	1.310371	0	1	0	0	CorrectCommission	0.384393	0.725692	1	0	9.982609e+01
393.770233	1.319718	city	9	1	1.243300	1.243300	0	1	0	0	CorrectCommission	1.084611	0.752178	1	0	9.980435e+01
395.069824	1.279453	city	2	1	1.186394	1.186394	0	1	0	0	CorrectCommission	1.678696	0.776820	1	0	9.978261e+01
396.349396	1.279707	city	5	1	1.284349	1.284349	0	1	0	0	CorrectCommission	0.656062	0.796962	0	0	9.976087e+01
397.635712	1.292908	city	2	1	1.262842	1.262842	0	1	0	0	CorrectCommission	0.880597	0.810504	0	0	9.973913e+01
398.921967	1.279602	city	10	1	1.367840	1.367840	0	1	0	0	CorrectCommission	0.215576	0.816067	0	0	9.971739e+01
400.221466	1.319430	city	4	1	1.509760	1.509760	0	1	0	0	CorrectCommission	1.697202	0.813119	0	0	9.969565e+01
401.527649	1.292923	city	3	1	1.488432	1.488432	0	1	0	0	CorrectCommission	1.474534	0.801921	0	0	9.967391e+01
402.813965	1.279701	city	1	1	1.409067	1.409067	0	1	0	0	CorrectCommission	0.645978	0.783546	1	0	9.965217e+01
404.093597	1.279557	mountain	3	0	0.000000	1.420841	1	0	0	0	CorrectOmission	0.768895	0.759676	1	0	9.963043e+01
405.373108	1.279471	city	1	1	1.433669	1.433669	0	1	0	0	CorrectCommission	0.902818	0.732365	1	0	9.960870e+01
406.705902	1.386155	city	10	1	1.357467	1.357467	0	1	0	0	CorrectCommission	0.107275	0.703886	1	0	9.958696e+01
408.038879	1.279750	city	5	1	1.371666	1.371666	0	1	0	0	CorrectCommission	0.255518	0.676549	1	0	9.956522e+01
409.325195	1.292884	mountain	2	0	0.000000	1.437429	1	0	0	0	CorrectOmission	0.942073	0.652543	1	0	9.954348e+01
410.611450	1.279617	city	4	1	1.462710	1.462710	0	1	0	0	CorrectCommission	1.205999	0.633783	1	0	9.952174e+01
411.904297	1.306076	city	1	1	1.355463	1.355463	0	1	0	0	CorrectCommission	0.086357	0.621836	1	0	9.950000e+01
413.237091	1.359539	city	6	1	1.332097	1.332097	0	1	0	0	CorrectCommission	0.157579	0.617870	1	0	9.947826e+01
414.556671	1.279612	city	3	1	1.300540	1.300540	0	1	0	0	CorrectCommission	0.487032	0.622521	1	0	9.945652e+01
415.849609	1.306246	mountain	1	0	0.000000	1.369094	1	0	0	0	CorrectOmission	0.228660	0.635859	1	0	9.943478e+01
417.142517	1.279608	city	8	1	1.444357	1.444357	0	1	0	0	CorrectCommission	1.014401	0.657341	1	0	9.941304e+01
418.422119	1.279575	city	3	1	1.432929	1.432929	0	1	0	0	CorrectCommission	0.895092	0.685747	1	0	9.939130e+01
419.708374	1.292953	city	8	1	1.327360	1.327360	0	1	0	0	CorrectCommission	0.207031	0.719214	1	0	9.936957e+01
421.001282	1.292848	city	7	1	1.359889	1.359889	0	1	0	0	CorrectCommission	0.132565	0.755325	1	0	9.934783e+01
422.300842	1.306264	city	9	1	1.421617	1.421617	0	1	0	0	CorrectCommission	0.777001	0.791182	0	0	9.932609e+01
423.613800	1.319658	city	4	1	1.514453	1.514453	0	1	0	0	CorrectCommission	1.746198	0.823654	0	0	9.930435e+01
424.926666	1.306107	city	6	1	1.330500	1.330500	0	1	0	0	CorrectCommission	0.174254	0.849692	0	0	9.928261e+01
426.252808	1.346127	city	7	1	1.292095	1.292095	0	1	0	0	CorrectCommission	0.575194	0.866734	0	0	9.926087e+01
427.572418	1.293107	city	9	1	1.159020	1.159020	0	1	0	0	CorrectCommission	1.964480	0.872969	0	0	9.923913e+01
428.865356	1.292783	city	4	1	1.136846	1.136846	0	1	0	0	CorrectCommission	2.195972	0.867615	0	0	9.921739e+01
430.151520	1.279558	city	8	1	1.200181	1.200181	0	1	0	0	CorrectCommission	1.534769	0.851175	0	0	9.919565e+01
431.444519	1.306421	city	5	1	1.332811	1.332811	0	1	0	0	CorrectCommission	0.150126	0.825407	0	0	9.917391e+01
432.744141	1.292821	city	8	1	1.408024	1.408024	0	1	0	0	CorrectCommission	0.635085	0.793172	0	0	9.915217e+01
434.043701	1.306289	city	4	1	1.465092	1.465092	0	1	0	0	CorrectCommission	1.230866	0.758024	1	0	9.913043e+01
435.363281	1.332905	city	9	1	1.394977	1.394977	0	1	0	0	CorrectCommission	0.498875	0.723824	1	0	9.910870e+01
436.676178	1.292865	city	1	1	1.351300	1.351300	0	1	0	0	CorrectCommission	0.042901	0.694256	1	0	9.908696e+01
437.975769	1.306318	city	7	1	1.381601	1.381601	0	1	0	0	CorrectCommission	0.359234	0.672329	1	0	9.906522e+01
439.275269	1.292709	city	1	1	1.317755	1.317755	0	1	0	0	CorrectCommission	0.307305	0.659995	1	0	9.904348e+01
440.561493	1.279716	city	4	1	1.366817	1.366817	0	1	0	0	CorrectCommission	0.204891	0.657989	1	0	9.902174e+01
444.100342	5.797999	break	0	0	0.000000	1.380380	0	0	0	0	ThoughtProbe	0.346486	0.665754	1	99	99
447.639191	1.279682	mountain	1	0	0.000000	1.387069	1	0	0	0	CorrectOmission	0.416320	0.681554	1	0	9.887500e+01
448.918793	1.279498	city	5	1	1.415509	1.415509	0	1	0	0	CorrectCommission	0.713233	0.702817	1	0	9.875000e+01
450.211609	1.306144	city	9	1	1.494326	1.494326	0	1	0	0	CorrectCommission	1.536066	0.726454	1	0	9.862500e+01
451.504486	1.279605	city	5	1	1.295897	1.295897	0	1	0	0	CorrectCommission	0.535505	0.749346	1	0	9.850000e+01
452.790833	1.293084	city	7	1	1.439381	1.439381	0	1	0	0	CorrectCommission	0.962446	0.768790	1	0	9.837500e+01
454.137115	1.399475	city	10	1	1.286577	1.286577	0	1	0	0	CorrectCommission	0.632807	0.782816	1	0	9.825000e+01
455.496643	1.319620	city	9	1	1.187551	1.187551	0	1	0	0	CorrectCommission	1.666627	0.790431	0	0	9.812500e+01
456.822845	1.332744	city	3	1	1.231410	1.231410	0	1	0	0	CorrectCommission	1.208740	0.791719	0	0	98
458.135712	1.293042	mountain	6	0	0.000000	1.388865	1	0	0	0	CorrectOmission	0.435072	0.787822	1	0	9.787500e+01
459.421997	1.279475	city	10	1	1.478672	1.478672	0	1	0	0	CorrectCommission	1.372642	0.780728	1	0	9.775000e+01
460.714844	1.306217	city	8	1	1.319585	1.319585	0	1	0	0	CorrectCommission	0.288200	0.772943	1	0	9.762500e+01
462.014465	1.293056	city	4	1	1.425885	1.425885	0	1	0	0	CorrectCommission	0.821554	0.767197	1	0	9.750000e+01
463.314026	1.306053	city	3	1	1.392467	1.392467	0	1	0	0	CorrectCommission	0.472673	0.766003	1	0	9.737500e+01
464.606873	1.279654	city	4	1	1.372675	1.372675	0	1	0	0	CorrectCommission	0.266049	0.771406	1	0	9.725000e+01
465.893188	1.292999	city	3	1	1.387207	1.387207	0	1	0	0	CorrectCommission	0.417765	0.784657	1	0	9.712500e+01
467.206055	1.332735	city	7	1	1.390750	1.390750	0	1	0	0	CorrectCommission	0.454754	0.806129	0	0	97
468.512299	1.279738	city	1	1	1.298066	1.298066	0	1	0	0	CorrectCommission	0.512863	0.835317	0	0	9.687500e+01
469.798645	1.292930	city	10	1	1.447184	1.447184	0	1	0	0	CorrectCommission	1.043914	0.870938	0	0	9.675000e+01
471.098206	1.306226	city	5	1	1.477109	1.477109	0	1	0	0	CorrectCommission	1.356328	0.911142	0	0	9.662500e+01
472.397736	1.292787	city	1	1	1.404137	1.404137	0	1	0	0	CorrectCommission	0.594510	0.953733	0	0	9.650000e+01
473.697235	1.306225	city	7	1	1.533724	1.533724	0	1	0	0	CorrectCommission	1.947379	0.996421	0	0	9.637500e+01
474.996826	1.292993	city	10	1	1.307765	1.307765	0	1	0	0	CorrectCommission	0.411600	1.036942	0	0	9.625000e+01
476.309753	1.332826	city	8	1	1.216186	1.216186	0	1	0	0	CorrectCommission	1.367676	1.073279	0	0	9.612500e+01
477.629242	1.306187	city	5	1	1.274303	1.274303	0	1	0	0	CorrectCommission	0.760940	1.103658	0	0	96
478.935547	1.306392	city	4	1	1.206133	1.206133	0	1	0	0	CorrectCommission	1.472624	1.126592	0	0	9.587500e+01
480.228455	1.279432	mountain	6	0	0.000000	1.417914	1	0	0	0	CorrectOmission	0.738335	1.140873	0	0	9.575000e+01
481.514709	1.293077	city	9	1	1.600903	1.600903	0	1	0	0	CorrectCommission	2.648720	1.145577	0	0	9.562500e+01
482.814331	1.306178	city	6	1	1.446360	1.446360	0	1	0	0	CorrectCommission	1.035313	1.139925	0	0	9.550000e+01
484.127228	1.319602	city	2	1	1.286570	1.286570	0	1	0	0	CorrectCommission	0.632876	1.123372	0	0	9.537500e+01
485.440063	1.306071	city	6	1	1.218290	1.218290	0	1	0	0	CorrectCommission	1.345716	1.095476	0	0	9.525000e+01
486.732971	1.279727	city	4	1	1.207891	1.207891	0	1	0	0	CorrectCommission	1.454278	1.055909	0	0	9.512500e+01
488.019226	1.292796	city	7	1	1.260133	1.260133	0	1	0	0	CorrectCommission	0.908873	1.004472	0	0	95
489.305481	1.279706	city	10	1	1.198797	1.198797	0	1	0	0	CorrectCommission	1.549218	0.941152	0	0	9.487500e+01
490.591766	1.292866	city	3	1	1.327083	1.327083	0	1	0	0	CorrectCommission	0.209930	0.866103	0	0	9.475000e+01
491.917999	1.359597	city	8	1	1.212425	1.212425	0	1	0	0	CorrectCommission	1.406939	0.779856	1	0	9.462500e+01
493.257507	1.319427	city	2	1	1.211965	1.211965	0	1	0	0	CorrectCommission	1.411747	0.683256	1	0	9.450000e+01
494.557098	1.279735	city	6	1	1.342012	1.342012	0	1	0	0	CorrectCommission	0.054069	0.577618	1	0	9.437500e+01
495.856720	1.319550	city	3	1	1.443084	1.443084	0	1	0	0	CorrectCommission	1.001107	0.464716	1	0	9.425000e+01
497.169647	1.306284	city	1	1	1.405964	1.405964	0	1	0	0	CorrectCommission	0.613578	0.346706	1	0	9.412500e+01
500.655151	5.664719	break	0	0	0.000000	1.368844	0	0	0	0	ThoughtProbe	0.226050	0.226050	1	94	94
