onset	duration	trial_type	image_type	Press	ReactionTime	ReactionTime_Interpolated	CorrectOmission	CorrectCommission	CommissionError	OmissionError	response_type	nonsmoothVarianceTimeCourse	VarianceTimeCourse	In_the_Zone	ThoughtProbe	ThoughtProbe_Interpolated
0.653294	1.279603	city	9	1	2.083290	2.083290	0	1	0	0	CorrectCommission	2.851606	2.851606	0	0	89
1.932904	1.279617	city	6	1	1.390849	1.390849	0	1	0	0	CorrectCommission	0.061387	2.508159	0	0	89
3.212408	1.279391	city	9	1	1.283914	1.283914	0	1	0	0	CorrectCommission	0.369515	2.175975	0	0	89
4.491902	1.279596	city	4	1	1.496996	1.496996	0	1	0	0	CorrectCommission	0.489110	1.865148	0	0	89
5.778237	1.293074	city	5	1	1.005034	1.005034	0	1	0	0	CorrectCommission	1.493272	1.583722	0	0	89
7.064570	1.279592	mountain	3	0	0.000000	1.125141	1	0	0	0	CorrectOmission	1.009296	1.337032	0	0	89
8.344069	1.279406	city	8	1	1.391215	1.391215	0	1	0	0	CorrectCommission	0.062860	1.127522	0	0	89
9.623627	1.279710	city	7	1	1.337152	1.337152	0	1	0	0	CorrectCommission	0.154987	0.954873	0	0	89
10.903277	1.279591	mountain	3	0	0.000000	1.421439	1	0	0	0	CorrectOmission	0.184650	0.816465	0	0	89
12.182875	1.279604	city	5	1	1.443717	1.443717	0	1	0	0	CorrectCommission	0.274419	0.708075	1	0	89
13.469047	1.292740	city	8	1	1.203626	1.203626	0	1	0	0	CorrectCommission	0.693035	0.624654	1	0	89
14.755275	1.279716	city	6	1	1.125903	1.125903	0	1	0	0	CorrectCommission	1.006224	0.561041	1	0	89
16.034929	1.279591	city	1	1	1.020669	1.020669	0	1	0	0	CorrectCommission	1.430271	0.512585	1	0	89
17.314461	1.279474	city	7	1	1.457018	1.457018	0	1	0	0	CorrectCommission	0.328017	0.475502	1	0	89
18.594049	1.279702	city	3	1	1.340839	1.340839	0	1	0	0	CorrectCommission	0.140133	0.447104	1	0	89
19.873676	1.279550	city	1	1	1.352245	1.352245	0	1	0	0	CorrectCommission	0.094169	0.425725	1	0	89
21.153267	1.279634	city	4	1	1.354970	1.354970	0	1	0	0	CorrectCommission	0.083191	0.410547	1	0	89
22.432774	1.279377	mountain	6	0	0.000000	1.375756	1	0	0	0	CorrectOmission	0.000569	0.401335	1	0	89
23.712250	1.279574	city	1	1	1.341147	1.341147	0	1	0	0	CorrectCommission	0.138891	0.398196	1	0	89
24.991909	1.279748	city	10	1	1.177684	1.177684	0	1	0	0	CorrectCommission	0.797572	0.401322	1	0	89
26.271574	1.279581	city	4	1	1.548722	1.548722	0	1	0	0	CorrectCommission	0.697543	0.410853	1	0	89
27.551085	1.279441	city	6	1	1.340968	1.340968	0	1	0	0	CorrectCommission	0.139610	0.426752	1	0	89
28.830616	1.279620	city	2	1	1.341212	1.341212	0	1	0	0	CorrectCommission	0.138628	0.448788	1	0	89
30.110249	1.279646	city	4	1	1.554776	1.554776	0	1	0	0	CorrectCommission	0.721938	0.476458	1	0	89
31.389879	1.279616	mountain	4	0	0.000000	1.484051	1	0	0	0	CorrectOmission	0.436948	0.508918	1	0	89
32.669395	1.279414	city	8	1	1.341149	1.341149	0	1	0	0	CorrectCommission	0.138882	0.544970	1	0	89
33.948929	1.279653	city	4	1	1.338183	1.338183	0	1	0	0	CorrectCommission	0.150833	0.583059	1	0	89
35.228580	1.279649	city	1	1	1.186442	1.186442	0	1	0	0	CorrectCommission	0.762280	0.621321	1	0	89
36.508118	1.279428	city	8	1	1.101279	1.101279	0	1	0	0	CorrectCommission	1.105449	0.657705	1	0	89
37.787624	1.279585	city	7	1	1.240319	1.240319	0	1	0	0	CorrectCommission	0.545182	0.690090	1	0	89
39.067303	1.279770	city	4	1	1.199209	1.199209	0	1	0	0	CorrectCommission	0.710837	0.716521	1	0	89
40.346893	1.279414	city	10	1	1.026642	1.026642	0	1	0	0	CorrectCommission	1.406201	0.735380	1	0	89
41.639774	1.306345	city	7	1	1.536159	1.536159	0	1	0	0	CorrectCommission	0.646918	0.745581	1	0	89
42.932751	1.279611	city	4	1	1.204758	1.204758	0	1	0	0	CorrectCommission	0.688476	0.746733	1	0	89
44.219006	1.292899	city	10	1	0.995002	0.995002	0	1	0	0	CorrectCommission	1.533697	0.739203	1	0	89
45.505180	1.279451	city	1	1	1.786735	1.786735	0	1	0	0	CorrectCommission	1.656626	0.724060	1	0	89
46.784714	1.279616	city	10	1	1.481976	1.481976	0	1	0	0	CorrectCommission	0.428586	0.703002	1	0	89
48.070938	1.292830	city	5	1	1.403896	1.403896	0	1	0	0	CorrectCommission	0.113959	0.678149	1	0	89
49.357162	1.279625	city	6	1	1.448011	1.448011	0	1	0	0	CorrectCommission	0.291722	0.651777	1	0	89
50.636749	1.279544	city	10	1	1.192966	1.192966	0	1	0	0	CorrectCommission	0.735993	0.626086	1	0	89
51.916393	1.279746	city	1	1	1.391205	1.391205	0	1	0	0	CorrectCommission	0.062822	0.603016	1	0	89
53.195984	1.279431	city	10	1	1.251728	1.251728	0	1	0	0	CorrectCommission	0.499210	0.584121	1	0	89
54.475494	1.279592	city	9	1	1.514233	1.514233	0	1	0	0	CorrectCommission	0.558569	0.570526	1	0	89
55.755062	1.279541	city	8	1	1.021976	1.021976	0	1	0	0	CorrectCommission	1.425005	0.562947	1	0	89
57.034718	1.279774	city	1	1	1.337867	1.337867	0	1	0	0	CorrectCommission	0.152106	0.561695	1	0	89
60.333660	5.318111	break	0	0	0.000000	1.426115	0	0	0	0	ThoughtProbe	0.203493	0.566792	1	89	89
63.632545	1.279654	city	2	1	1.340382	1.340382	0	1	0	0	CorrectCommission	0.141972	0.577949	1	0	8.776087e+01
64.932167	1.319595	city	1	1	1.134331	1.134331	0	1	0	0	CorrectCommission	0.972262	0.594626	1	0	8.652174e+01
66.231758	1.279583	city	5	1	1.344939	1.344939	0	1	0	0	CorrectCommission	0.123611	0.616001	1	0	8.528261e+01
67.511345	1.279591	mountain	8	0	0.000000	1.503356	1	0	0	0	CorrectOmission	0.514738	0.641048	1	0	8.404348e+01
68.790833	1.279392	city	5	1	1.603523	1.603523	0	1	0	0	CorrectCommission	0.918366	0.668505	1	0	8.280435e+01
70.070396	1.279730	city	4	1	1.639380	1.639380	0	1	0	0	CorrectCommission	1.062853	0.696946	1	0	8.156522e+01
71.356651	1.292779	city	6	1	1.357866	1.357866	0	1	0	0	CorrectCommission	0.071520	0.724868	1	0	8.032609e+01
72.642921	1.279769	city	7	1	1.717914	1.717914	0	1	0	0	CorrectCommission	1.379311	0.750809	1	0	7.908696e+01
73.922585	1.279548	city	9	0	0.000000	1.479368	0	0	0	1	OmissionError	0.418078	0.773403	1	0	7.784783e+01
75.202148	1.279589	city	1	1	1.134881	1.134881	0	1	0	0	CorrectCommission	0.970048	0.791577	0	0	7.660870e+01
76.481758	1.279616	city	8	1	1.177107	1.177107	0	1	0	0	CorrectCommission	0.799896	0.804591	0	0	7.536957e+01
77.761330	1.279532	city	5	1	1.076688	1.076688	0	1	0	0	CorrectCommission	1.204541	0.812133	0	0	7.413043e+01
79.040871	1.279546	city	6	1	1.070980	1.070980	0	1	0	0	CorrectCommission	1.227540	0.814362	0	0	7.289130e+01
80.320396	1.279513	city	10	1	1.081232	1.081232	0	1	0	0	CorrectCommission	1.186228	0.811868	0	0	7.165217e+01
81.599907	1.279510	city	4	1	1.399086	1.399086	0	1	0	0	CorrectCommission	0.094576	0.805576	0	0	7.041304e+01
82.879539	1.279753	city	8	1	1.071278	1.071278	0	1	0	0	CorrectCommission	1.226339	0.796612	0	0	6.917391e+01
84.159172	1.279513	city	3	1	1.085461	1.085461	0	1	0	0	CorrectCommission	1.169188	0.786054	0	0	6.793478e+01
85.438736	1.279615	city	1	1	1.400312	1.400312	0	1	0	0	CorrectCommission	0.099516	0.774826	1	0	6.669565e+01
86.718338	1.279587	city	2	1	1.305384	1.305384	0	1	0	0	CorrectCommission	0.283000	0.763563	1	0	6.545652e+01
88.011200	1.306136	mountain	2	0	0.000000	1.465382	1	0	0	0	CorrectOmission	0.361720	0.752491	1	0	6.421739e+01
89.310776	1.293013	mountain	4	0	0.000000	1.635607	1	0	0	0	CorrectOmission	1.047648	0.741513	1	0	6.297826e+01
90.603745	1.292925	city	9	1	1.571358	1.571358	0	1	0	0	CorrectCommission	0.788754	0.730253	1	0	6.173913e+01
91.889900	1.279395	city	2	1	1.027935	1.027935	0	1	0	0	CorrectCommission	1.400991	0.718254	1	0	6.050000e+01
93.169403	1.279612	city	10	1	1.051445	1.051445	0	1	0	0	CorrectCommission	1.306258	0.705077	1	0	5.926087e+01
94.449043	1.279668	city	2	1	1.454227	1.454227	0	1	0	0	CorrectCommission	0.316770	0.690466	1	0	5.802174e+01
95.728691	1.279622	city	6	1	1.395659	1.395659	0	1	0	0	CorrectCommission	0.080769	0.674453	1	0	5.678261e+01
97.008301	1.279600	city	9	1	1.190546	1.190546	0	1	0	0	CorrectCommission	0.745743	0.657337	1	0	5.554348e+01
98.287804	1.279409	city	8	1	1.192273	1.192273	0	1	0	0	CorrectCommission	0.738785	0.639726	1	0	5.430435e+01
99.567390	1.279751	city	1	1	1.238820	1.238820	0	1	0	0	CorrectCommission	0.551220	0.622532	1	0	5.306522e+01
100.847046	1.279573	city	3	1	1.679489	1.679489	0	1	0	0	CorrectCommission	1.224473	0.606888	1	0	5.182609e+01
102.126564	1.279457	city	4	1	1.415229	1.415229	0	1	0	0	CorrectCommission	0.159629	0.594097	1	0	5.058696e+01
103.406090	1.279594	city	7	1	1.295656	1.295656	0	1	0	0	CorrectCommission	0.322198	0.585565	1	0	4.934783e+01
104.685730	1.279690	city	10	1	1.297231	1.297231	0	1	0	0	CorrectCommission	0.315853	0.582663	1	0	4.810870e+01
105.965378	1.279607	mountain	8	0	0.000000	1.531473	1	0	0	0	CorrectOmission	0.628036	0.586557	1	0	4.686957e+01
107.244965	1.279557	city	8	1	1.677343	1.677343	0	1	0	0	CorrectCommission	1.215827	0.598043	1	0	4.563043e+01
108.531120	1.292756	city	2	1	1.413802	1.413802	0	1	0	0	CorrectCommission	0.153877	0.617351	1	0	4.439130e+01
109.817299	1.279612	city	1	1	1.337380	1.337380	0	1	0	0	CorrectCommission	0.154071	0.644046	1	0	4.315217e+01
111.103569	1.292927	city	3	1	1.456598	1.456598	0	1	0	0	CorrectCommission	0.326323	0.676815	1	0	4.191304e+01
112.403152	1.306231	city	8	1	1.272237	1.272237	0	1	0	0	CorrectCommission	0.416564	0.713523	1	0	4.067391e+01
113.696091	1.279651	city	7	1	1.190673	1.190673	0	1	0	0	CorrectCommission	0.745231	0.751315	1	0	3.943478e+01
114.975632	1.279430	city	4	1	1.352246	1.352246	0	1	0	0	CorrectCommission	0.094166	0.786875	0	0	3.819565e+01
116.255157	1.279619	city	9	0	0.000000	1.123028	0	0	0	1	OmissionError	1.017809	0.816823	0	0	3.695652e+01
117.541489	1.293041	city	4	1	0.884169	0.884169	0	1	0	0	CorrectCommission	1.980302	0.838100	0	0	3.571739e+01
118.827797	1.279578	city	2	1	1.016818	1.016818	0	1	0	0	CorrectCommission	1.445789	0.848452	0	0	3.447826e+01
120.107307	1.279442	city	10	1	0.878228	0.878228	0	1	0	0	CorrectCommission	2.004240	0.846771	0	0	3.323913e+01
120.747025	9.236937	break	0	1	1.193329	1.193329	0	0	0	0	ThoughtProbe	0.734529	0.833222	0	32	32
130.637085	1.306248	city	8	1	1.040427	1.040427	0	1	0	0	CorrectCommission	1.350653	0.809268	0	0	3.252500e+01
131.930008	1.279583	mountain	5	0	0.000000	1.237361	1	0	0	0	CorrectOmission	0.557102	0.777365	1	0	3.305000e+01
133.209656	1.279731	city	3	1	1.457218	1.457218	0	1	0	0	CorrectCommission	0.328824	0.740620	1	0	3.357500e+01
134.489319	1.279575	mountain	1	0	0.000000	1.373089	1	0	0	0	CorrectOmission	0.010176	0.702368	1	0	3.410000e+01
135.768890	1.279583	city	3	1	1.342059	1.342059	0	1	0	0	CorrectCommission	0.135214	0.665804	1	0	3.462500e+01
137.048386	1.279415	city	4	1	1.721213	1.721213	0	1	0	0	CorrectCommission	1.392603	0.633642	1	0	3.515000e+01
138.327957	1.279724	city	1	1	1.473951	1.473951	0	1	0	0	CorrectCommission	0.396249	0.607978	1	0	3.567500e+01
139.627609	1.319577	city	6	1	1.396782	1.396782	0	1	0	0	CorrectCommission	0.085292	0.590331	1	0	3.620000e+01
140.940521	1.306238	city	2	1	1.432312	1.432312	0	1	0	0	CorrectCommission	0.228465	0.581666	1	0	3.672500e+01
142.233337	1.279403	city	3	1	1.550605	1.550605	0	1	0	0	CorrectCommission	0.705129	0.582537	1	0	3.725000e+01
143.512833	1.279579	city	10	1	1.294200	1.294200	0	1	0	0	CorrectCommission	0.328064	0.593195	1	0	3.777500e+01
144.792465	1.279704	city	1	1	1.723519	1.723519	0	1	0	0	CorrectCommission	1.401895	0.613699	1	0	3.830000e+01
146.072052	1.279468	city	2	1	1.500576	1.500576	0	1	0	0	CorrectCommission	0.503538	0.643840	1	0	3.882500e+01
147.358322	1.293057	city	5	1	1.199608	1.199608	0	1	0	0	CorrectCommission	0.709226	0.683053	1	0	3.935000e+01
148.644562	1.279413	city	7	1	1.283681	1.283681	0	1	0	0	CorrectCommission	0.370452	0.730194	1	0	3.987500e+01
149.924118	1.279725	city	1	1	1.379201	1.379201	0	1	0	0	CorrectCommission	0.014448	0.783429	0	0	4.040000e+01
151.223724	1.319467	city	8	1	1.389374	1.389374	0	1	0	0	CorrectCommission	0.055443	0.840164	0	0	4.092500e+01
152.523224	1.279531	city	7	1	1.301599	1.301599	0	1	0	0	CorrectCommission	0.298249	0.897108	0	0	4.145000e+01
153.802811	1.279637	city	6	1	1.098136	1.098136	0	1	0	0	CorrectCommission	1.118114	0.950521	0	0	4.197500e+01
155.089142	1.293031	city	5	1	0.969415	0.969415	0	1	0	0	CorrectCommission	1.636799	0.996681	0	0	4.250000e+01
156.382111	1.292908	city	10	1	0.769033	0.769033	0	1	0	0	CorrectCommission	2.444248	1.032339	0	0	4.302500e+01
157.675201	1.293271	city	6	1	1.045434	1.045434	0	1	0	0	CorrectCommission	1.330478	1.055261	0	0	4.355000e+01
158.968094	1.292523	city	5	1	0.934353	0.934353	0	1	0	0	CorrectCommission	1.778086	1.064544	0	0	4.407500e+01
160.260727	1.292759	city	9	1	0.822509	0.822509	0	1	0	0	CorrectCommission	2.228762	1.060731	0	0	4.460000e+01
161.560318	1.306412	city	8	1	1.061434	1.061434	0	1	0	0	CorrectCommission	1.266004	1.045678	0	0	4.512500e+01
162.859985	1.292921	city	6	1	1.408765	1.408765	0	1	0	0	CorrectCommission	0.133579	1.022228	0	0	4.565000e+01
164.152908	1.292910	city	8	1	1.256553	1.256553	0	1	0	0	CorrectCommission	0.479765	0.993739	0	0	4.617500e+01
165.445801	1.292891	city	6	1	1.457553	1.457553	0	1	0	0	CorrectCommission	0.330171	0.963489	0	0	4.670000e+01
166.732025	1.279564	city	8	1	1.479145	1.479145	0	1	0	0	CorrectCommission	0.417177	0.934358	0	0	4.722500e+01
168.031601	1.319581	mountain	5	0	0.000000	1.512505	1	0	0	0	CorrectOmission	0.551604	0.908513	0	0	4.775000e+01
169.331100	1.279414	city	1	1	1.629270	1.629270	0	1	0	0	CorrectCommission	1.022116	0.887354	0	0	4.827500e+01
170.617264	1.292909	city	7	1	1.901078	1.901078	0	1	0	0	CorrectCommission	2.117377	0.871534	0	0	4.880000e+01
171.903549	1.279671	city	8	0	0.000000	1.679342	0	0	0	1	OmissionError	1.223883	0.861155	0	0	4.932500e+01
173.183121	1.279478	city	1	1	1.403430	1.403430	0	1	0	0	CorrectCommission	0.112082	0.855951	0	0	4.985000e+01
174.462769	1.279801	city	3	1	1.512708	1.512708	0	1	0	0	CorrectCommission	0.552422	0.855432	0	0	5.037500e+01
175.742371	1.279413	city	8	1	1.195484	1.195484	0	1	0	0	CorrectCommission	0.725847	0.858891	0	0	5.090000e+01
177.021927	1.279696	city	7	1	1.634605	1.634605	0	1	0	0	CorrectCommission	1.043613	0.865447	0	0	5.142500e+01
178.314880	1.306206	city	9	1	1.481814	1.481814	0	1	0	0	CorrectCommission	0.427933	0.874016	0	0	5.195000e+01
179.607788	1.279609	city	6	1	1.673901	1.673901	0	1	0	0	CorrectCommission	1.201956	0.883306	0	0	5.247500e+01
183.493103	6.491033	break	0	0	0.000000	1.358546	0	0	0	0	ThoughtProbe	0.068781	0.891769	0	53	53
187.385071	1.292889	city	4	1	1.030089	1.030089	0	1	0	0	CorrectCommission	1.392312	0.897749	0	0	5.258824e+01
188.678055	1.293086	city	9	1	1.182870	1.182870	0	1	0	0	CorrectCommission	0.776674	0.899578	0	0	5.217647e+01
189.971054	1.292923	city	7	1	1.834705	1.834705	0	1	0	0	CorrectCommission	1.849924	0.895824	0	0	5.176471e+01
191.257294	1.279533	city	8	0	0.000000	1.682144	0	0	0	1	OmissionError	1.235173	0.885488	0	0	5.135294e+01
192.543457	1.292805	city	1	1	1.253606	1.253606	0	1	0	0	CorrectCommission	0.491639	0.868179	0	0	5.094118e+01
193.829651	1.279580	city	8	1	1.077509	1.077509	0	1	0	0	CorrectCommission	1.201229	0.844227	0	0	5.052941e+01
195.109222	1.279576	city	6	1	1.200979	1.200979	0	1	0	0	CorrectCommission	0.703701	0.814672	0	0	5.011765e+01
196.408859	1.319701	city	10	1	1.107921	1.107921	0	1	0	0	CorrectCommission	1.078686	0.781240	1	0	4.970588e+01
197.708496	1.279560	mountain	7	1	1.230868	1.230868	0	0	1	0	CommissionError	0.583264	0.746091	1	0	4.929412e+01
198.988098	1.279636	city	4	1	1.729624	1.729624	0	1	0	0	CorrectCommission	1.426493	0.711590	1	0	4.888235e+01
200.287582	1.319346	city	1	1	1.435843	1.435843	0	1	0	0	CorrectCommission	0.242692	0.679978	1	0	4.847059e+01
201.593735	1.292939	city	10	1	1.314674	1.314674	0	1	0	0	CorrectCommission	0.245563	0.653111	1	0	4.805882e+01
202.880035	1.279687	mountain	3	0	0.000000	1.326067	1	0	0	0	CorrectOmission	0.199657	0.632145	1	0	4.764706e+01
204.166290	1.292810	city	5	0	0.000000	1.390857	0	0	0	1	OmissionError	0.061418	0.617451	1	0	4.723529e+01
205.459229	1.293059	city	7	1	1.429882	1.429882	0	1	0	0	CorrectCommission	0.218673	0.608632	1	0	4.682353e+01
206.758850	1.306201	city	4	1	1.363980	1.363980	0	1	0	0	CorrectCommission	0.046885	0.604677	1	0	4.641176e+01
208.051697	1.279480	city	1	1	1.140543	1.140543	0	1	0	0	CorrectCommission	0.947232	0.604231	1	0	46
209.331268	1.279675	city	7	1	1.884437	1.884437	0	1	0	0	CorrectCommission	2.050319	0.605936	1	0	4.558824e+01
210.610916	1.279606	city	1	1	1.657402	1.657402	0	1	0	0	CorrectCommission	1.135472	0.608766	1	0	4.517647e+01
211.890427	1.279435	city	4	0	0.000000	1.380727	0	0	0	1	OmissionError	0.020598	0.612321	1	0	4.476471e+01
213.169922	1.279550	city	10	1	1.236312	1.236312	0	1	0	0	CorrectCommission	0.561327	0.616863	1	0	4.435294e+01
214.449585	1.279766	city	4	1	1.406059	1.406059	0	1	0	0	CorrectCommission	0.122675	0.623231	1	0	4.394118e+01
215.735870	1.292794	city	8	1	1.043577	1.043577	0	1	0	0	CorrectCommission	1.337959	0.632675	1	0	4.352941e+01
217.022095	1.279662	city	6	1	1.407296	1.407296	0	1	0	0	CorrectCommission	0.127659	0.646489	1	0	4.311765e+01
218.301620	1.279394	city	3	1	1.252912	1.252912	0	1	0	0	CorrectCommission	0.494437	0.665737	1	0	4.270588e+01
219.601212	1.319777	city	2	1	1.273056	1.273056	0	1	0	0	CorrectCommission	0.413267	0.690899	1	0	4.229412e+01
220.900787	1.279393	city	6	1	1.284712	1.284712	0	1	0	0	CorrectCommission	0.366296	0.721698	1	0	4.188235e+01
222.180283	1.279594	city	7	1	1.512687	1.512687	0	1	0	0	CorrectCommission	0.552338	0.757024	1	0	4.147059e+01
223.459869	1.279590	city	2	1	1.442449	1.442449	0	1	0	0	CorrectCommission	0.269311	0.794995	0	0	4.105882e+01
224.739517	1.279706	city	4	1	1.674676	1.674676	0	1	0	0	CorrectCommission	1.205080	0.833217	0	0	4.064706e+01
226.025848	1.292932	city	7	1	1.700515	1.700515	0	1	0	0	CorrectCommission	1.309198	0.869103	0	0	4.023529e+01
227.318741	1.292871	city	9	0	0.000000	1.326959	0	0	0	1	OmissionError	0.196059	0.900286	0	0	3.982353e+01
228.604919	1.279471	city	1	1	0.914360	0.914360	0	1	0	0	CorrectCommission	1.858646	0.925021	0	0	3.941176e+01
232.363602	6.237913	break	0	0	0.000000	0.823066	0	0	0	0	ThoughtProbe	2.226518	0.942345	0	39	39
236.142349	1.319579	city	1	1	0.965293	0.965293	0	1	0	0	CorrectCommission	1.653410	0.952253	0	0	3.956522e+01
237.455307	1.306325	city	3	1	1.253254	1.253254	0	1	0	0	CorrectCommission	0.493058	0.955607	0	0	4.013043e+01
238.748245	1.279565	mountain	10	0	0.000000	1.475194	1	0	0	0	CorrectOmission	0.401256	0.953867	0	0	4.069565e+01
240.027893	1.279713	city	7	1	1.500524	1.500524	0	1	0	0	CorrectCommission	0.503328	0.948714	0	0	4.126087e+01
241.314087	1.292695	city	9	1	1.198660	1.198660	0	1	0	0	CorrectCommission	0.713048	0.941694	0	0	4.182609e+01
242.606903	1.292927	mountain	9	0	0.000000	1.110079	1	0	0	0	CorrectOmission	1.069988	0.933886	0	0	4.239130e+01
243.893158	1.279572	city	10	1	1.296784	1.296784	0	1	0	0	CorrectCommission	0.317654	0.925717	0	0	4.295652e+01
245.186081	1.306288	city	2	1	1.820774	1.820774	0	1	0	0	CorrectCommission	1.793788	0.916949	0	0	4.352174e+01
246.485733	1.293021	city	7	1	1.538315	1.538315	0	1	0	0	CorrectCommission	0.655608	0.906710	0	0	4.408696e+01
247.798691	1.332885	mountain	9	0	0.000000	1.534177	1	0	0	0	CorrectOmission	0.638932	0.893846	0	0	4.465217e+01
249.104858	1.279442	city	5	1	1.618571	1.618571	0	1	0	0	CorrectCommission	0.979001	0.877136	0	0	4.521739e+01
250.384338	1.279529	city	1	1	1.601709	1.601709	0	1	0	0	CorrectCommission	0.911056	0.855651	0	0	4.578261e+01
251.677307	1.306413	city	7	1	1.924570	1.924570	0	1	0	0	CorrectCommission	2.212039	0.829031	0	0	4.634783e+01
252.983551	1.306082	city	3	1	1.213816	1.213816	0	1	0	0	CorrectCommission	0.651974	0.797599	0	0	4.691304e+01
254.276474	1.279742	city	4	1	1.194716	1.194716	0	1	0	0	CorrectCommission	0.728941	0.762527	1	0	4.747826e+01
255.556046	1.279409	city	6	1	1.243337	1.243337	0	1	0	0	CorrectCommission	0.533021	0.725604	1	0	4.804348e+01
256.848907	1.306300	city	10	1	1.206716	1.206716	0	1	0	0	CorrectCommission	0.680587	0.689115	1	0	4.860870e+01
258.141815	1.279552	city	7	1	1.567549	1.567549	0	1	0	0	CorrectCommission	0.773406	0.655478	1	0	4.917391e+01
259.421417	1.279621	city	3	1	1.448685	1.448685	0	1	0	0	CorrectCommission	0.294440	0.626946	1	0	4.973913e+01
260.714325	1.306219	city	9	1	1.342665	1.342665	0	1	0	0	CorrectCommission	0.132775	0.605323	1	0	5.030435e+01
262.020538	1.306209	city	1	1	1.276474	1.276474	0	1	0	0	CorrectCommission	0.399491	0.591667	1	0	5.086957e+01
263.313446	1.279570	city	5	1	1.404620	1.404620	0	1	0	0	CorrectCommission	0.116879	0.586182	1	0	5.143478e+01
264.606384	1.306300	city	8	1	1.379148	1.379148	0	1	0	0	CorrectCommission	0.014236	0.588278	1	0	52
265.899384	1.279712	city	7	1	1.538143	1.538143	0	1	0	0	CorrectCommission	0.654914	0.596632	1	0	5.256522e+01
267.185608	1.292773	city	2	1	1.739818	1.739818	0	1	0	0	CorrectCommission	1.467573	0.609430	1	0	5.313043e+01
268.471802	1.279573	city	8	1	1.567303	1.567303	0	1	0	0	CorrectCommission	0.772415	0.624606	1	0	5.369565e+01
269.751373	1.279561	city	7	1	1.462274	1.462274	0	1	0	0	CorrectCommission	0.349198	0.640162	1	0	5.426087e+01
271.050903	1.319505	city	8	1	1.218413	1.218413	0	1	0	0	CorrectCommission	0.633451	0.654371	1	0	5.482609e+01
272.350525	1.279767	city	9	1	1.512299	1.512299	0	1	0	0	CorrectCommission	0.550776	0.665982	1	0	5.539130e+01
273.630127	1.279423	mountain	10	0	0.000000	1.671096	1	0	0	0	CorrectOmission	1.190654	0.674302	1	0	5.595652e+01
274.909698	1.279728	city	9	1	1.581403	1.581403	0	1	0	0	CorrectCommission	0.829232	0.679263	1	0	5.652174e+01
276.242676	1.386209	city	1	1	1.129820	1.129820	0	1	0	0	CorrectCommission	0.990440	0.681384	1	0	5.708696e+01
277.575531	1.279512	city	2	1	1.407553	1.407553	0	1	0	0	CorrectCommission	0.128696	0.681626	1	0	5.765217e+01
278.855103	1.279619	city	7	1	1.671336	1.671336	0	1	0	0	CorrectCommission	1.191622	0.681281	1	0	5.821739e+01
280.134613	1.279449	city	6	0	0.000000	1.407337	0	0	0	1	OmissionError	0.127825	0.681691	1	0	5.878261e+01
281.427551	1.306375	city	10	1	1.155656	1.155656	0	1	0	0	CorrectCommission	0.886336	0.684169	1	0	5.934783e+01
282.720428	1.279420	city	5	1	1.456393	1.456393	0	1	0	0	CorrectCommission	0.325500	0.689697	1	0	5.991304e+01
284.000031	1.279745	city	6	1	1.577239	1.577239	0	1	0	0	CorrectCommission	0.812453	0.698838	1	0	6.047826e+01
285.293030	1.306260	city	5	1	1.559462	1.559462	0	1	0	0	CorrectCommission	0.740818	0.711588	1	0	6.104348e+01
286.592529	1.292737	city	7	1	1.465667	1.465667	0	1	0	0	CorrectCommission	0.362868	0.727425	1	0	6.160870e+01
287.878693	1.279593	city	6	1	1.401334	1.401334	0	1	0	0	CorrectCommission	0.103636	0.745360	1	0	6.217391e+01
289.171600	1.306222	city	8	1	0.997322	0.997322	0	1	0	0	CorrectCommission	1.524347	0.764129	1	0	6.273913e+01
290.464569	1.279751	city	7	1	1.354762	1.354762	0	1	0	0	CorrectCommission	0.084029	0.782360	0	0	6.330435e+01
291.744171	1.279458	city	9	1	1.034006	1.034006	0	1	0	0	CorrectCommission	1.376526	0.798926	0	0	6.386957e+01
293.023773	1.279693	city	8	1	1.139204	1.139204	0	1	0	0	CorrectCommission	0.952626	0.813080	0	0	6.443478e+01
296.202759	5.078335	break	0	0	0.000000	1.095632	0	0	0	0	ThoughtProbe	1.128205	0.824690	0	65	65
299.381653	1.279431	city	1	1	1.032391	1.032391	0	1	0	0	CorrectCommission	1.383035	0.834236	0	0	6.414706e+01
300.667908	1.293063	city	10	1	1.078587	1.078587	0	1	0	0	CorrectCommission	1.196887	0.842759	0	0	6.329412e+01
301.954193	1.279541	city	9	1	1.515387	1.515387	0	1	0	0	CorrectCommission	0.563218	0.851642	0	0	6.244118e+01
303.247101	1.306259	mountain	10	0	0.000000	1.578171	1	0	0	0	CorrectOmission	0.816208	0.862286	0	0	6.158824e+01
304.539948	1.279414	city	4	1	1.468330	1.468330	0	1	0	0	CorrectCommission	0.373599	0.875779	0	0	6.073529e+01
305.832794	1.306272	city	2	1	1.387255	1.387255	0	1	0	0	CorrectCommission	0.046904	0.892600	0	0	5.988235e+01
307.125702	1.279553	city	8	1	1.354617	1.354617	0	1	0	0	CorrectCommission	0.084610	0.912503	0	0	5.902941e+01
308.411987	1.293022	city	2	0	0.000000	1.211675	0	0	0	1	OmissionError	0.660604	0.934476	0	0	5.817647e+01
309.698242	1.279477	city	7	1	1.018154	1.018154	0	1	0	0	CorrectCommission	1.440406	0.956931	0	0	5.732353e+01
310.977844	1.279735	city	1	1	0.833781	0.833781	0	1	0	0	CorrectCommission	2.183343	0.977978	0	0	5.647059e+01
312.264160	1.292903	city	2	1	0.930308	0.930308	0	1	0	0	CorrectCommission	1.794385	0.995800	0	0	5.561765e+01
313.563721	1.306239	city	4	1	1.604006	1.604006	0	1	0	0	CorrectCommission	0.920314	1.008880	0	0	5.476471e+01
314.856567	1.279453	city	1	1	1.046570	1.046570	0	1	0	0	CorrectCommission	1.325902	1.016242	0	0	5.391176e+01
316.136169	1.279705	city	7	1	1.449973	1.449973	0	1	0	0	CorrectCommission	0.299629	1.017461	0	0	5.305882e+01
317.415710	1.279391	city	1	1	1.133115	1.133115	0	1	0	0	CorrectCommission	0.977165	1.012711	0	0	5.220588e+01
318.695190	1.279606	city	7	1	1.594729	1.594729	0	1	0	0	CorrectCommission	0.882929	1.002600	0	0	5.135294e+01
320.001495	1.332970	city	10	1	1.580893	1.580893	0	1	0	0	CorrectCommission	0.827175	0.988105	0	0	5.050000e+01
321.307800	1.279670	city	7	1	1.690106	1.690106	0	1	0	0	CorrectCommission	1.267257	0.970397	0	0	4.964706e+01
322.600708	1.306101	city	5	0	0.000000	1.701011	0	0	0	1	OmissionError	1.311196	0.950815	0	0	4.879412e+01
323.900269	1.293038	city	6	1	1.669154	1.669154	0	1	0	0	CorrectCommission	1.182827	0.930743	0	0	4.794118e+01
325.199890	1.306204	mountain	8	0	0.000000	1.650084	1	0	0	0	CorrectOmission	1.105985	0.911523	0	0	4.708824e+01
326.492706	1.279435	city	2	1	1.551884	1.551884	0	1	0	0	CorrectCommission	0.710284	0.894341	0	0	4.623529e+01
327.778961	1.293082	city	3	0	0.000000	1.282636	0	0	0	1	OmissionError	0.374662	0.880115	0	0	4.538235e+01
329.071869	1.292762	city	8	1	1.132800	1.132800	0	1	0	0	CorrectCommission	0.978432	0.869378	0	0	4.452941e+01
330.371368	1.306203	city	2	1	1.392836	1.392836	0	1	0	0	CorrectCommission	0.069392	0.862181	0	0	4.367647e+01
331.664276	1.279625	city	3	1	1.622381	1.622381	0	1	0	0	CorrectCommission	0.994356	0.858106	0	0	4.282353e+01
332.943939	1.279708	city	8	1	1.564447	1.564447	0	1	0	0	CorrectCommission	0.760908	0.856302	0	0	4.197059e+01
334.223602	1.279610	city	4	1	1.391429	1.391429	0	1	0	0	CorrectCommission	0.063725	0.855704	0	0	4.111765e+01
335.503143	1.279453	city	7	1	1.666146	1.666146	0	1	0	0	CorrectCommission	1.170706	0.855217	0	0	4.026471e+01
336.789276	1.292837	city	3	1	0.695522	0.695522	0	1	0	0	CorrectCommission	2.740465	0.853892	0	0	3.941176e+01
338.082184	1.292939	city	9	1	1.152099	1.152099	0	1	0	0	CorrectCommission	0.900669	0.851135	0	0	3.855882e+01
339.368500	1.279725	city	6	1	1.515823	1.515823	0	1	0	0	CorrectCommission	0.564973	0.846868	0	0	3.770588e+01
340.674805	1.332909	city	7	0	0.000000	1.433438	0	0	0	1	OmissionError	0.233001	0.841398	0	0	3.685294e+01
345.059967	7.437380	break	0	1	1.201750	1.201750	0	0	0	0	ThoughtProbe	0.700597	0.835373	0	36	36
349.438446	1.319569	city	1	0	0.000000	1.117562	0	0	0	1	OmissionError	1.039835	0.829535	0	0	3.680000e+01
350.744659	1.292879	city	4	1	1.179953	1.179953	0	1	0	0	CorrectCommission	0.788428	0.824556	0	0	3.760000e+01
352.037659	1.293087	mountain	4	0	0.000000	1.388001	1	0	0	0	CorrectOmission	0.049910	0.820865	0	0	3.840000e+01
353.323975	1.279583	city	2	1	1.624875	1.624875	0	1	0	0	CorrectCommission	1.004403	0.818542	0	0	3.920000e+01
354.610138	1.292742	city	6	1	1.773743	1.773743	0	1	0	0	CorrectCommission	1.604276	0.817220	0	0	40
355.916382	1.319731	city	10	0	0.000000	1.544892	0	0	0	1	OmissionError	0.682109	0.816164	0	0	4.080000e+01
357.215942	1.279409	city	9	1	1.327842	1.327842	0	1	0	0	CorrectCommission	0.192501	0.814413	0	0	4.160000e+01
358.508789	1.306278	city	4	1	1.512117	1.512117	0	1	0	0	CorrectCommission	0.550040	0.810900	0	0	4.240000e+01
359.815094	1.306347	mountain	6	0	0.000000	1.702649	1	0	0	0	CorrectOmission	1.317799	0.804643	0	0	4.320000e+01
361.108063	1.279584	city	7	1	1.673494	1.673494	0	1	0	0	CorrectCommission	1.200318	0.794913	0	0	44
362.401001	1.306275	city	2	1	1.198706	1.198706	0	1	0	0	CorrectCommission	0.712861	0.781449	0	0	4.480000e+01
363.693848	1.279446	city	3	1	1.625813	1.625813	0	1	0	0	CorrectCommission	1.008184	0.764480	1	0	4.560000e+01
364.980011	1.292851	city	7	1	1.704654	1.704654	0	1	0	0	CorrectCommission	1.325878	0.744755	1	0	4.640000e+01
366.286285	1.319676	city	9	0	0.000000	1.570156	0	0	0	1	OmissionError	0.783912	0.723450	1	0	4.720000e+01
367.585938	1.279640	city	4	1	1.376511	1.376511	0	1	0	0	CorrectCommission	0.003613	0.702033	1	0	48
368.885437	1.319384	city	10	1	1.277913	1.277913	0	1	0	0	CorrectCommission	0.393694	0.682082	1	0	4.880000e+01
370.184937	1.279599	city	2	1	1.621055	1.621055	0	1	0	0	CorrectCommission	0.989013	0.664997	1	0	4.960000e+01
371.471191	1.292901	city	1	0	0.000000	1.411270	0	0	0	1	OmissionError	0.143675	0.651819	1	0	5.040000e+01
372.764160	1.293059	city	9	1	1.190064	1.190064	0	1	0	0	CorrectCommission	0.747685	0.643186	1	0	5.120000e+01
374.057068	1.292766	city	4	1	1.498943	1.498943	0	1	0	0	CorrectCommission	0.496955	0.639198	1	0	52
375.356659	1.306396	city	1	1	1.373046	1.373046	0	1	0	0	CorrectCommission	0.010353	0.639510	1	0	5.280000e+01
376.656250	1.292778	city	5	1	1.527193	1.527193	0	1	0	0	CorrectCommission	0.610791	0.643394	1	0	5.360000e+01
377.949127	1.293013	city	7	1	1.775442	1.775442	0	1	0	0	CorrectCommission	1.611120	0.649880	1	0	5.440000e+01
379.235443	1.279600	city	9	0	0.000000	1.572992	0	0	0	1	OmissionError	0.795340	0.657949	1	0	5.520000e+01
380.515045	1.279585	city	7	1	1.290840	1.290840	0	1	0	0	CorrectCommission	0.341603	0.666740	1	0	56
381.807892	1.306107	mountain	4	0	0.000000	1.299983	1	0	0	0	CorrectOmission	0.304764	0.675645	1	0	5.680000e+01
383.100739	1.279612	city	10	1	1.477537	1.477537	0	1	0	0	CorrectCommission	0.410698	0.684407	1	0	5.760000e+01
384.387054	1.293003	city	2	1	1.700620	1.700620	0	1	0	0	CorrectCommission	1.309624	0.693177	1	0	5.840000e+01
385.686615	1.306100	city	4	1	1.490719	1.490719	0	1	0	0	CorrectCommission	0.463816	0.702463	1	0	5.920000e+01
386.986176	1.293069	city	3	1	1.788800	1.788800	0	1	0	0	CorrectCommission	1.664946	0.713038	1	0	60
388.272491	1.279533	city	4	1	1.518095	1.518095	0	1	0	0	CorrectCommission	0.574130	0.725687	1	0	6.080000e+01
389.558655	1.292784	city	5	1	1.326218	1.326218	0	1	0	0	CorrectCommission	0.199046	0.741093	1	0	6.160000e+01
390.851471	1.292895	city	3	1	1.243745	1.243745	0	1	0	0	CorrectCommission	0.531377	0.759556	1	0	6.240000e+01
392.137787	1.279703	city	6	1	1.354198	1.354198	0	1	0	0	CorrectCommission	0.086300	0.780750	1	0	6.320000e+01
393.430756	1.306233	city	2	1	1.046040	1.046040	0	1	0	0	CorrectCommission	1.328038	0.803700	0	0	64
394.743652	1.319579	city	5	1	1.235231	1.235231	0	1	0	0	CorrectCommission	0.565683	0.826768	0	0	6.480000e+01
396.043243	1.279595	city	1	1	1.467470	1.467470	0	1	0	0	CorrectCommission	0.370135	0.847886	0	0	6.560000e+01
397.329437	1.292784	city	4	1	1.510512	1.510512	0	1	0	0	CorrectCommission	0.543575	0.864838	0	0	6.640000e+01
398.628937	1.306210	city	5	1	1.087437	1.087437	0	1	0	0	CorrectCommission	1.161227	0.875632	0	0	6.720000e+01
401.221405	3.878727	break	0	0	0.000000	0.812818	0	0	0	0	ThoughtProbe	2.267813	0.878921	0	68	68
403.807281	1.293018	city	9	1	0.938994	0.938994	0	1	0	0	CorrectCommission	1.759383	0.874258	0	0	68
405.093567	1.279588	city	2	1	1.718299	1.718299	0	1	0	0	CorrectCommission	1.380860	0.862275	0	0	68
406.386444	1.306138	mountain	9	0	0.000000	1.671270	1	0	0	0	CorrectOmission	1.191355	0.844575	0	0	68
407.699371	1.319703	city	8	1	1.377341	1.377341	0	1	0	0	CorrectCommission	0.006953	0.823419	0	0	68
409.018982	1.319541	city	3	1	1.415944	1.415944	0	1	0	0	CorrectCommission	0.162509	0.801338	0	0	68
410.338531	1.319553	city	6	1	1.424930	1.424930	0	1	0	0	CorrectCommission	0.198716	0.780620	1	0	68
411.651337	1.306078	city	9	1	1.274576	1.274576	0	1	0	0	CorrectCommission	0.407140	0.762923	1	0	68
412.944275	1.279762	city	6	1	1.143591	1.143591	0	1	0	0	CorrectCommission	0.934952	0.749012	1	0	68
414.243774	1.319274	city	2	1	1.265387	1.265387	0	1	0	0	CorrectCommission	0.444168	0.738691	1	0	68
415.543335	1.279863	city	8	1	1.413357	1.413357	0	1	0	0	CorrectCommission	0.152084	0.730951	1	0	68
416.836334	1.306131	city	9	0	0.000000	1.051414	0	0	0	1	OmissionError	1.306383	0.724270	1	0	68
418.129242	1.279672	city	4	1	0.829960	0.829960	0	1	0	0	CorrectCommission	2.198740	0.716929	1	0	68
419.415466	1.292764	city	5	1	1.399400	1.399400	0	1	0	0	CorrectCommission	0.095843	0.707451	1	0	68
420.721680	1.319653	city	6	1	1.499053	1.499053	0	1	0	0	CorrectCommission	0.497398	0.694954	1	0	68
422.021240	1.279512	city	3	1	1.696183	1.696183	0	1	0	0	CorrectCommission	1.291743	0.679214	1	0	68
423.314148	1.306271	city	8	1	1.448399	1.448399	0	1	0	0	CorrectCommission	0.293286	0.660780	1	0	68
424.620453	1.306367	city	3	1	1.601998	1.601998	0	1	0	0	CorrectCommission	0.912219	0.640898	1	0	68
425.920013	1.292744	city	5	1	1.561696	1.561696	0	1	0	0	CorrectCommission	0.749822	0.621283	1	0	68
427.206177	1.279576	city	7	1	1.528633	1.528633	0	1	0	0	CorrectCommission	0.616594	0.603968	1	0	68
428.492401	1.292879	city	2	1	1.419116	1.419116	0	1	0	0	CorrectCommission	0.175291	0.591037	1	0	68
429.792084	1.306490	city	5	1	1.365194	1.365194	0	1	0	0	CorrectCommission	0.041990	0.584396	1	0	68
431.085083	1.279516	city	2	1	1.465709	1.465709	0	1	0	0	CorrectCommission	0.363039	0.585633	1	0	68
432.384583	1.319473	city	1	1	1.396980	1.396980	0	1	0	0	CorrectCommission	0.086092	0.595970	1	0	68
433.697510	1.306344	city	7	1	1.635593	1.635593	0	1	0	0	CorrectCommission	1.047594	0.616244	1	0	68
434.990448	1.279579	mountain	5	0	0.000000	1.557741	1	0	0	0	CorrectOmission	0.733885	0.646851	1	0	68
436.270020	1.279545	city	6	1	1.449548	1.449548	0	1	0	0	CorrectCommission	0.297917	0.687845	1	0	68
437.556274	1.292930	city	4	1	1.597139	1.597139	0	1	0	0	CorrectCommission	0.892642	0.738859	1	0	68
438.862518	1.319562	city	8	1	1.134533	1.134533	0	1	0	0	CorrectCommission	0.971450	0.799024	0	0	68
440.175415	1.306261	city	5	1	1.162157	1.162157	0	1	0	0	CorrectCommission	0.860136	0.866881	0	0	68
441.468262	1.279404	city	9	1	1.312453	1.312453	0	1	0	0	CorrectCommission	0.254514	0.940297	0	0	68
442.767731	1.319581	city	1	1	1.395400	1.395400	0	1	0	0	CorrectCommission	0.079725	1.016435	0	0	68
444.067322	1.279580	city	10	1	1.478379	1.478379	0	1	0	0	CorrectCommission	0.414094	1.091789	0	0	68
445.353638	1.293043	city	6	1	1.738711	1.738711	0	1	0	0	CorrectCommission	1.463111	1.162414	0	0	68
447.772919	3.545518	break	0	0	0.000000	1.929690	0	0	0	0	ThoughtProbe	2.232669	1.224227	0	68	68
450.192108	1.292858	city	4	0	0.000000	1.999805	0	0	0	1	OmissionError	2.515202	1.273536	0	0	6.710000e+01
451.478271	1.279447	mountain	10	0	0.000000	1.897547	1	0	0	0	CorrectOmission	2.103146	1.307400	0	0	6.620000e+01
452.757782	1.279584	city	2	1	1.571403	1.571403	0	1	0	0	CorrectCommission	0.788935	1.323986	0	0	6.530000e+01
454.050781	1.306403	city	4	0	0.000000	0.969863	0	0	0	1	OmissionError	1.634995	1.322863	0	0	6.440000e+01
455.370392	1.332852	city	10	1	0.751007	0.751007	0	1	0	0	CorrectCommission	2.516886	1.304969	0	0	6.350000e+01
456.676575	1.279504	city	2	1	1.572913	1.572913	0	1	0	0	CorrectCommission	0.795022	1.272539	0	0	6.260000e+01
457.962830	1.293031	city	6	1	1.540952	1.540952	0	1	0	0	CorrectCommission	0.666233	1.228906	0	0	6.170000e+01
459.249146	1.279570	city	10	1	1.850321	1.850321	0	1	0	0	CorrectCommission	1.912849	1.178053	0	0	6.080000e+01
460.541962	1.306062	city	7	1	0.883675	0.883675	0	1	0	0	CorrectCommission	1.982294	1.124167	0	0	5.990000e+01
461.834778	1.279604	city	3	1	1.253081	1.253081	0	1	0	0	CorrectCommission	0.493755	1.071204	0	0	59
463.121033	1.292891	mountain	7	1	1.261775	1.261775	0	0	1	0	CommissionError	0.458725	1.022515	0	0	5.810000e+01
464.420685	1.306405	city	9	1	1.417416	1.417416	0	1	0	0	CorrectCommission	0.168440	0.980416	0	0	5.720000e+01
465.713654	1.279557	city	6	1	1.284202	1.284202	0	1	0	0	CorrectCommission	0.368350	0.946076	0	0	5.630000e+01
466.993256	1.279603	city	9	1	1.365942	1.365942	0	1	0	0	CorrectCommission	0.038976	0.919495	0	0	5.540000e+01
468.272766	1.279419	city	10	0	0.000000	1.014896	0	0	0	1	OmissionError	1.453534	0.899649	0	0	5.450000e+01
469.552307	1.279699	city	6	1	0.855630	0.855630	0	1	0	0	CorrectCommission	2.095302	0.884793	0	0	5.360000e+01
470.831970	1.279615	city	5	1	1.512714	1.512714	0	1	0	0	CorrectCommission	0.552446	0.872843	0	0	5.270000e+01
472.111481	1.279413	city	9	1	1.605380	1.605380	0	1	0	0	CorrectCommission	0.925850	0.861818	0	0	5.180000e+01
473.390991	1.279607	city	8	1	1.337076	1.337076	0	1	0	0	CorrectCommission	0.155294	0.850116	0	0	5.090000e+01
474.670624	1.279627	city	3	1	1.816897	1.816897	0	1	0	0	CorrectCommission	1.778165	0.836808	0	0	50
475.950195	1.279525	city	4	0	0.000000	1.692186	0	0	0	1	OmissionError	1.275635	0.821743	0	0	4.910000e+01
477.229828	1.279740	city	8	1	1.449700	1.449700	0	1	0	0	CorrectCommission	0.298529	0.805680	0	0	4.820000e+01
478.509399	1.279389	city	7	0	0.000000	1.576198	0	0	0	1	OmissionError	0.808257	0.790196	0	0	4.730000e+01
479.788879	1.279572	city	5	1	1.671913	1.671913	0	1	0	0	CorrectCommission	1.193947	0.777597	1	0	4.640000e+01
481.068542	1.279762	city	3	1	1.337081	1.337081	0	1	0	0	CorrectCommission	0.155274	0.770863	1	0	4.550000e+01
482.348145	1.279449	city	8	1	1.284112	1.284112	0	1	0	0	CorrectCommission	0.368715	0.773584	1	0	4.460000e+01
483.627655	1.279552	city	6	1	1.571365	1.571365	0	1	0	0	CorrectCommission	0.788784	0.789888	0	0	4.370000e+01
484.907288	1.279754	city	4	1	1.157204	1.157204	0	1	0	0	CorrectCommission	0.880095	0.824449	0	0	4.280000e+01
486.186890	1.279452	mountain	2	0	0.000000	1.335419	1	0	0	0	CorrectOmission	0.161973	0.882458	0	0	4.190000e+01
487.466370	1.279513	city	8	1	1.603555	1.603555	0	1	0	0	CorrectCommission	0.918495	0.969506	0	0	41
488.745972	1.279694	city	7	1	1.459161	1.459161	0	1	0	0	CorrectCommission	0.336652	1.091338	0	0	4.010000e+01
490.032288	1.292904	city	10	1	1.203855	1.203855	0	1	0	0	CorrectCommission	0.692112	1.253606	0	0	3.920000e+01
491.318481	1.279507	city	8	1	1.068145	1.068145	0	1	0	0	CorrectCommission	1.238961	1.461263	0	0	3.830000e+01
492.598083	1.279713	city	9	1	1.230610	1.230610	0	1	0	0	CorrectCommission	0.584304	1.717965	0	0	3.740000e+01
493.877747	1.279586	city	5	1	1.869847	1.869847	0	1	0	0	CorrectCommission	1.991529	2.025376	0	0	3.650000e+01
495.157318	1.279578	city	9	1	1.670261	1.670261	0	1	0	0	CorrectCommission	1.187288	2.382453	0	0	3.560000e+01
496.436920	1.279584	city	2	0	0.000000	1.225334	0	0	0	1	OmissionError	0.605563	2.784997	0	0	3.470000e+01
497.716431	1.279447	city	9	1	1.070489	1.070489	0	1	0	0	CorrectCommission	1.229518	3.225469	0	0	3.380000e+01
498.996002	1.279711	city	4	1	1.741147	1.741147	0	1	0	0	CorrectCommission	1.472927	3.693259	0	0	3.290000e+01
502.594940	5.918170	break	0	0	0.000000	2.411805	0	0	0	0	ThoughtProbe	4.175372	4.175372	0	32	32
