onset	duration	trial_type	image_type	Press	ReactionTime	ReactionTime_Interpolated	CorrectOmission	CorrectCommission	CommissionError	OmissionError	response_type	nonsmoothVarianceTimeCourse	VarianceTimeCourse	In_the_Zone	ThoughtProbe	ThoughtProbe_Interpolated
0.652867	1.279573	city	4	1	1.396129	1.396129	0	1	0	0	CorrectCommission	1.234668	1.234668	0	0	61
1.932366	1.279424	city	7	1	1.074259	1.074259	0	1	0	0	CorrectCommission	0.223695	1.143470	0	0	61
3.211863	1.279569	city	8	1	0.931598	0.931598	0	1	0	0	CorrectCommission	0.870079	1.054179	0	0	61
4.491436	1.279580	city	5	1	0.823251	0.823251	0	1	0	0	CorrectCommission	1.360986	0.968715	0	0	61
5.771040	1.279627	city	7	1	0.877840	0.877840	0	1	0	0	CorrectCommission	1.113652	0.888955	0	0	61
7.050693	1.279678	city	1	1	0.926046	0.926046	0	1	0	0	CorrectCommission	0.895236	0.816720	0	0	61
8.330330	1.279597	city	2	1	1.134456	1.134456	0	1	0	0	CorrectCommission	0.049054	0.753719	1	0	61
9.609914	1.279571	city	3	1	1.017536	1.017536	0	1	0	0	CorrectCommission	0.480703	0.701481	1	0	61
10.889480	1.279562	mountain	5	0	0.000000	1.080914	1	0	0	0	CorrectOmission	0.193543	0.661220	1	0	61
12.168983	1.279446	mountain	7	0	0.000000	1.213380	1	0	0	0	CorrectOmission	0.406648	0.633748	1	0	61
13.448457	1.279501	city	9	1	1.303723	1.303723	0	1	0	0	CorrectCommission	0.815984	0.619351	1	0	61
14.727945	1.279476	city	4	1	1.240732	1.240732	0	1	0	0	CorrectCommission	0.530579	0.617673	1	0	61
16.007629	1.279892	city	5	1	1.231673	1.231673	0	1	0	0	CorrectCommission	0.489534	0.627646	1	0	61
17.294035	1.292918	city	3	1	1.071798	1.071798	0	1	0	0	CorrectCommission	0.234846	0.647420	1	0	61
18.580278	1.279568	city	10	1	1.028233	1.028233	0	1	0	0	CorrectCommission	0.432236	0.674408	1	0	61
19.859863	1.279602	city	4	1	1.177623	1.177623	0	1	0	0	CorrectCommission	0.244638	0.705418	1	0	61
21.139442	1.279557	city	10	1	1.017552	1.017552	0	1	0	0	CorrectCommission	0.480629	0.736873	1	0	61
22.420107	1.281771	city	4	1	1.178637	1.178637	0	1	0	0	CorrectCommission	0.249234	0.765155	0	0	61
23.699690	1.277396	mountain	8	0	0.000000	1.548829	1	0	0	0	CorrectOmission	1.926536	0.786994	0	0	61
24.978176	1.279576	city	5	1	1.708014	1.708014	0	1	0	0	CorrectCommission	2.647787	0.799797	0	0	61
26.257753	1.279578	city	8	1	1.236079	1.236079	0	1	0	0	CorrectCommission	0.509497	0.802011	0	0	61
27.537331	1.279578	city	5	1	1.019252	1.019252	0	1	0	0	CorrectCommission	0.472926	0.793325	0	0	61
28.816910	1.279581	city	9	1	0.756445	0.756445	0	1	0	0	CorrectCommission	1.663680	0.774590	0	0	61
30.096498	1.279596	city	1	1	0.921211	0.921211	0	1	0	0	CorrectCommission	0.917140	0.747691	1	0	61
31.382742	1.292890	city	10	1	0.984475	0.984475	0	1	0	0	CorrectCommission	0.630496	0.715263	1	0	61
32.668976	1.279576	city	9	1	1.175066	1.175066	0	1	0	0	CorrectCommission	0.233053	0.680276	1	0	61
33.948502	1.279475	city	8	1	1.071628	1.071628	0	1	0	0	CorrectCommission	0.235615	0.645656	1	0	61
35.228081	1.279684	city	2	1	1.089915	1.089915	0	1	0	0	CorrectCommission	0.152758	0.613951	1	0	61
36.507725	1.279603	city	9	1	1.134338	1.134338	0	1	0	0	CorrectCommission	0.048517	0.587130	1	0	61
37.787315	1.279579	city	6	1	0.974788	0.974788	0	1	0	0	CorrectCommission	0.674387	0.566454	1	0	61
39.073547	1.292890	city	1	1	0.871781	0.871781	0	1	0	0	CorrectCommission	1.141104	0.552490	1	0	61
40.359749	1.279507	city	2	1	0.921893	0.921893	0	1	0	0	CorrectCommission	0.914050	0.545206	1	0	61
41.639324	1.279644	city	10	1	1.035167	1.035167	0	1	0	0	CorrectCommission	0.400817	0.544088	1	0	61
42.918922	1.279552	city	2	1	1.149203	1.149203	0	1	0	0	CorrectCommission	0.115870	0.548264	1	0	61
44.211754	1.306114	city	5	1	1.068066	1.068066	0	1	0	0	CorrectCommission	0.251756	0.556600	1	0	61
45.504620	1.279620	city	6	1	1.141471	1.141471	0	1	0	0	CorrectCommission	0.080838	0.567777	1	0	61
46.784302	1.279745	city	1	1	1.030182	1.030182	0	1	0	0	CorrectCommission	0.423402	0.580414	1	0	61
48.063938	1.279525	city	10	1	1.336729	1.336729	0	1	0	0	CorrectCommission	0.965533	0.593162	1	0	61
49.350079	1.292754	city	4	1	1.325162	1.325162	0	1	0	0	CorrectCommission	0.913121	0.604795	1	0	61
52.782291	5.571677	break	0	0	0.000000	1.369940	0	0	0	0	ThoughtProbe	1.116006	0.614348	1	61	61
56.207924	1.279582	city	6	1	1.359535	1.359535	0	1	0	0	CorrectCommission	1.068866	0.621147	1	0	6.126471e+01
57.487492	1.279559	city	10	1	1.182421	1.182421	0	1	0	0	CorrectCommission	0.266378	0.624838	1	0	6.152941e+01
58.767048	1.279549	city	8	1	1.245785	1.245785	0	1	0	0	CorrectCommission	0.553475	0.625424	1	0	6.179412e+01
60.046623	1.279606	city	10	1	1.085569	1.085569	0	1	0	0	CorrectCommission	0.172452	0.623142	1	0	6.205882e+01
61.326229	1.279604	city	1	1	1.289322	1.289322	0	1	0	0	CorrectCommission	0.750736	0.618410	1	0	6.232353e+01
62.605797	1.279530	city	6	1	1.262250	1.262250	0	1	0	0	CorrectCommission	0.628074	0.611796	1	0	6.258824e+01
63.885284	1.279450	mountain	3	0	0.000000	1.316860	1	0	0	0	CorrectOmission	0.875508	0.603986	1	0	6.285294e+01
65.164803	1.279580	city	1	1	1.332799	1.332799	0	1	0	0	CorrectCommission	0.947727	0.595750	1	0	6.311765e+01
66.464462	1.319734	city	3	1	1.189713	1.189713	0	1	0	0	CorrectCommission	0.299415	0.587932	1	0	6.338235e+01
67.770729	1.292803	city	2	1	1.046178	1.046178	0	1	0	0	CorrectCommission	0.350925	0.581441	1	0	6.364706e+01
69.056961	1.279670	city	6	1	1.017230	1.017230	0	1	0	0	CorrectCommission	0.482086	0.577166	1	0	6.391176e+01
70.349922	1.306254	city	9	1	1.001781	1.001781	0	1	0	0	CorrectCommission	0.552084	0.575918	1	0	6.417647e+01
71.642830	1.279562	city	1	1	0.926045	0.926045	0	1	0	0	CorrectCommission	0.895240	0.578313	1	0	6.444118e+01
72.935661	1.306099	city	5	1	1.322695	1.322695	0	1	0	0	CorrectCommission	0.901945	0.584663	1	0	6.470588e+01
74.228584	1.279739	city	2	1	1.137074	1.137074	0	1	0	0	CorrectCommission	0.060914	0.594871	1	0	6.497059e+01
75.528152	1.319394	city	5	1	1.110601	1.110601	0	1	0	0	CorrectCommission	0.059031	0.608385	1	0	6.523529e+01
76.827728	1.279757	city	6	1	1.245625	1.245625	0	1	0	0	CorrectCommission	0.552751	0.624155	1	0	6.550000e+01
78.107384	1.279563	city	2	1	1.078968	1.078968	0	1	0	0	CorrectCommission	0.202360	0.640738	1	0	6.576471e+01
79.386948	1.279563	mountain	3	0	0.000000	1.202200	1	0	0	0	CorrectOmission	0.355996	0.656514	1	0	6.602941e+01
80.666519	1.279577	city	5	1	1.391693	1.391693	0	1	0	0	CorrectCommission	1.214570	0.669962	1	0	6.629412e+01
81.946030	1.279450	city	1	1	1.423816	1.423816	0	1	0	0	CorrectCommission	1.360114	0.679970	1	0	6.655882e+01
83.232216	1.292923	city	2	1	1.480775	1.480775	0	1	0	0	CorrectCommission	1.618189	0.686117	1	0	6.682353e+01
84.518524	1.279695	city	4	1	1.358206	1.358206	0	1	0	0	CorrectCommission	1.062841	0.688837	1	0	6.708824e+01
85.798164	1.279583	city	9	1	1.138663	1.138663	0	1	0	0	CorrectCommission	0.068113	0.689474	1	0	6.735294e+01
87.077744	1.279573	city	8	1	0.965097	0.965097	0	1	0	0	CorrectCommission	0.718298	0.690096	1	0	6.761765e+01
88.357323	1.279580	city	7	1	1.025368	1.025368	0	1	0	0	CorrectCommission	0.445215	0.693182	1	0	6.788235e+01
89.636902	1.279579	city	2	1	1.186464	1.186464	0	1	0	0	CorrectCommission	0.284697	0.701286	1	0	6.814706e+01
90.916481	1.279579	city	1	1	1.017550	1.017550	0	1	0	0	CorrectCommission	0.480637	0.716630	1	0	6.841176e+01
92.202728	1.292917	city	7	1	1.271964	1.271964	0	1	0	0	CorrectCommission	0.672088	0.740721	1	0	6.867647e+01
93.495636	1.292899	city	5	1	1.207426	1.207426	0	1	0	0	CorrectCommission	0.379674	0.774069	0	0	6.894118e+01
94.781876	1.279579	city	10	1	0.982353	0.982353	0	1	0	0	CorrectCommission	0.640112	0.816102	0	0	6.920588e+01
96.074745	1.306162	city	7	1	1.017704	1.017704	0	1	0	0	CorrectCommission	0.479938	0.865124	0	0	6.947059e+01
97.367661	1.279667	city	10	1	0.996287	0.996287	0	1	0	0	CorrectCommission	0.576980	0.918530	0	0	6.973529e+01
101.179779	6.344576	break	0	1	0.977335	0.977335	0	0	0	0	ThoughtProbe	0.662848	0.973039	0	70	70
104.991867	1.279592	city	6	1	1.505457	1.505457	0	1	0	0	CorrectCommission	1.730021	1.025108	0	0	6.982500e+01
106.271408	1.279490	mountain	4	0	0.000000	1.605713	1	0	0	0	CorrectOmission	2.184273	1.071301	0	0	6.965000e+01
107.557640	1.292978	city	8	1	1.458146	1.458146	0	1	0	0	CorrectCommission	1.515662	1.108704	0	0	6.947500e+01
108.850502	1.292746	city	9	1	1.242798	1.242798	0	1	0	0	CorrectCommission	0.539938	1.135237	0	0	6.930000e+01
110.136673	1.279592	city	4	1	0.866259	0.866259	0	1	0	0	CorrectCommission	1.166123	1.149797	0	0	6.912500e+01
111.416328	1.279722	city	10	1	0.717098	0.717098	0	1	0	0	CorrectCommission	1.841956	1.152295	0	0	6.895000e+01
112.695946	1.279508	city	6	1	0.823431	0.823431	0	1	0	0	CorrectCommission	1.360173	1.143619	0	0	6.877500e+01
113.975533	1.279670	city	2	1	0.827715	0.827715	0	1	0	0	CorrectCommission	1.340760	1.125463	0	0	6.860000e+01
115.255142	1.279555	mountain	3	1	0.717152	0.717152	0	0	1	0	CommissionError	1.841711	1.100050	0	0	6.842500e+01
116.534721	1.279596	city	8	1	1.355915	1.355915	0	1	0	0	CorrectCommission	1.052463	1.069805	0	0	6.825000e+01
117.820976	1.292918	city	5	1	1.153273	1.153273	0	1	0	0	CorrectCommission	0.134310	1.037069	0	0	6.807500e+01
119.107216	1.279558	city	4	1	1.185461	1.185461	0	1	0	0	CorrectCommission	0.280152	1.003814	0	0	6.790000e+01
120.386795	1.279595	city	7	1	0.911769	0.911769	0	1	0	0	CorrectCommission	0.959921	0.971442	0	0	6.772500e+01
121.679710	1.306240	city	8	1	0.827369	0.827369	0	1	0	0	CorrectCommission	1.342332	0.940685	0	0	6.755000e+01
122.972618	1.279578	city	9	1	1.038189	1.038189	0	1	0	0	CorrectCommission	0.387125	0.911697	0	0	6.737500e+01
124.252144	1.279468	city	7	1	0.876432	0.876432	0	1	0	0	CorrectCommission	1.120031	0.884220	0	0	6.720000e+01
125.531715	1.279672	city	10	1	0.892022	0.892022	0	1	0	0	CorrectCommission	1.049392	0.857742	0	0	6.702500e+01
126.824638	1.306182	city	2	1	0.674079	0.674079	0	1	0	0	CorrectCommission	2.036873	0.831775	0	0	6.685000e+01
128.117554	1.279661	city	4	1	1.148730	1.148730	0	1	0	0	CorrectCommission	0.113727	0.806002	0	0	6.667500e+01
129.397141	1.279483	city	10	1	1.032495	1.032495	0	1	0	0	CorrectCommission	0.412921	0.780465	0	0	6.650000e+01
130.676666	1.279593	city	5	1	1.036592	1.036592	0	1	0	0	CorrectCommission	0.394361	0.755494	1	0	6.632500e+01
131.962952	1.292961	city	6	1	0.996482	0.996482	0	1	0	0	CorrectCommission	0.576096	0.731762	1	0	6.615000e+01
133.249207	1.279548	city	8	1	0.772591	0.772591	0	1	0	0	CorrectCommission	1.590521	0.710113	1	0	6.597500e+01
134.542053	1.306154	city	10	1	0.881125	0.881125	0	1	0	0	CorrectCommission	1.098767	0.691424	1	0	6.580000e+01
135.834915	1.279556	city	4	1	1.036054	1.036054	0	1	0	0	CorrectCommission	0.396798	0.676494	1	0	6.562500e+01
137.114548	1.279722	mountain	1	0	0.000000	1.129554	1	0	0	0	CorrectOmission	0.026840	0.665881	1	0	6.545000e+01
138.394211	1.279595	city	4	1	1.128245	1.128245	0	1	0	0	CorrectCommission	0.020909	0.659708	1	0	6.527500e+01
139.673798	1.279579	city	3	1	0.998748	0.998748	0	1	0	0	CorrectCommission	0.565826	0.657648	1	0	6.510000e+01
140.953323	1.279488	city	7	1	1.291830	1.291830	0	1	0	0	CorrectCommission	0.762101	0.658968	1	0	6.492500e+01
142.239563	1.292975	city	2	1	1.202357	1.202357	0	1	0	0	CorrectCommission	0.356704	0.662639	1	0	6.475000e+01
143.525833	1.279589	city	6	1	1.177866	1.177866	0	1	0	0	CorrectCommission	0.245740	0.667535	1	0	6.457500e+01
144.805374	1.279494	city	3	1	1.633529	1.633529	0	1	0	0	CorrectCommission	2.310304	0.672628	1	0	6.440000e+01
146.104950	1.319641	city	7	1	1.335006	1.335006	0	1	0	0	CorrectCommission	0.957724	0.677116	1	0	6.422500e+01
147.451202	1.372879	city	4	1	1.268992	1.268992	0	1	0	0	CorrectCommission	0.658624	0.680603	1	0	6.405000e+01
148.790695	1.306107	city	5	1	1.049561	1.049561	0	1	0	0	CorrectCommission	0.335599	0.682988	1	0	6.387500e+01
150.083618	1.279732	city	4	1	1.198698	1.198698	0	1	0	0	CorrectCommission	0.340128	0.684375	1	0	6.370000e+01
151.363266	1.279575	city	5	1	1.022758	1.022758	0	1	0	0	CorrectCommission	0.457040	0.684934	1	0	6.352500e+01
152.642853	1.279590	city	8	1	0.964852	0.964852	0	1	0	0	CorrectCommission	0.719405	0.684708	1	0	6.335000e+01
153.929108	1.292907	city	10	1	0.979998	0.979998	0	1	0	0	CorrectCommission	0.650783	0.683496	1	0	6.317500e+01
157.594543	6.037973	break	0	1	1.154702	1.154702	0	0	0	0	ThoughtProbe	0.140784	0.680812	1	63	63
161.266663	1.306278	city	6	1	1.489247	1.489247	0	1	0	0	CorrectCommission	1.656579	0.675981	1	0	6.294118e+01
162.573044	1.306475	city	9	1	1.266352	1.266352	0	1	0	0	CorrectCommission	0.646660	0.668202	1	0	6.288235e+01
163.872574	1.292577	city	4	1	1.031177	1.031177	0	1	0	0	CorrectCommission	0.418896	0.656823	1	0	6.282353e+01
165.158615	1.279511	mountain	4	0	0.000000	1.261437	1	0	0	0	CorrectOmission	0.624389	0.641484	1	0	6.276471e+01
166.438187	1.279623	city	6	1	1.466831	1.466831	0	1	0	0	CorrectCommission	1.555014	0.622336	1	0	6.270588e+01
167.731171	1.306352	city	5	1	1.157062	1.157062	0	1	0	0	CorrectCommission	0.151477	0.600209	1	0	6.264706e+01
169.030716	1.292729	city	8	1	0.977105	0.977105	0	1	0	0	CorrectCommission	0.663892	0.576720	1	0	6.258824e+01
170.323624	1.293088	city	10	1	0.902480	0.902480	0	1	0	0	CorrectCommission	1.002011	0.554166	1	0	6.252941e+01
171.609940	1.279557	city	4	1	1.184010	1.184010	0	1	0	0	CorrectCommission	0.273576	0.535420	1	0	6.247059e+01
172.896179	1.292908	city	8	1	1.031156	1.031156	0	1	0	0	CorrectCommission	0.418989	0.523662	1	0	6.241176e+01
174.189026	1.292795	city	10	1	1.051460	1.051460	0	1	0	0	CorrectCommission	0.326996	0.521990	1	0	6.235294e+01
175.481949	1.293045	city	3	1	1.145031	1.145031	0	1	0	0	CorrectCommission	0.096966	0.533056	1	0	6.229412e+01
176.774918	1.292890	city	2	1	1.088086	1.088086	0	1	0	0	CorrectCommission	0.161047	0.558648	1	0	6.223529e+01
178.094467	1.346222	city	1	1	1.061305	1.061305	0	1	0	0	CorrectCommission	0.282390	0.599282	1	0	6.217647e+01
179.420715	1.306258	city	5	1	1.120634	1.120634	0	1	0	0	CorrectCommission	0.013573	0.654026	1	0	6.211765e+01
180.726959	1.306238	city	8	1	1.207314	1.207314	0	1	0	0	CorrectCommission	0.379166	0.720409	1	0	6.205882e+01
182.019775	1.279405	city	4	1	0.980804	0.980804	0	1	0	0	CorrectCommission	0.647131	0.794508	0	0	62
183.299347	1.279732	city	9	1	1.104736	1.104736	0	1	0	0	CorrectCommission	0.085604	0.871289	0	0	6.194118e+01
184.598999	1.319562	city	5	1	0.938563	0.938563	0	1	0	0	CorrectCommission	0.838520	0.945164	0	0	6.188235e+01
185.911896	1.306253	city	1	1	0.781771	0.781771	0	1	0	0	CorrectCommission	1.548931	1.010586	0	0	6.182353e+01
187.204895	1.279723	city	2	1	1.742992	1.742992	0	1	0	0	CorrectCommission	2.806273	1.062734	0	0	6.176471e+01
188.497803	1.306089	mountain	3	0	0.000000	1.702582	1	0	0	0	CorrectOmission	2.623179	1.098087	0	0	6.170588e+01
189.790634	1.279595	city	4	1	1.347633	1.347633	0	1	0	0	CorrectCommission	1.014937	1.114885	0	0	6.164706e+01
191.076813	1.292743	city	7	1	1.365236	1.365236	0	1	0	0	CorrectCommission	1.094693	1.113373	0	0	6.158824e+01
192.369705	1.293046	city	1	1	1.457727	1.457727	0	1	0	0	CorrectCommission	1.513765	1.095665	0	0	6.152941e+01
193.655945	1.279429	city	2	1	1.338377	1.338377	0	1	0	0	CorrectCommission	0.973001	1.065478	0	0	6.147059e+01
194.935486	1.279656	city	10	1	1.289482	1.289482	0	1	0	0	CorrectCommission	0.751459	1.027656	0	0	6.141176e+01
196.215134	1.279650	city	4	1	1.427349	1.427349	0	1	0	0	CorrectCommission	1.376124	0.987597	0	0	6.135294e+01
197.501419	1.292910	city	7	1	1.307704	1.307704	0	1	0	0	CorrectCommission	0.834024	0.950570	0	0	6.129412e+01
198.794342	1.292931	city	4	1	1.191688	1.191688	0	1	0	0	CorrectCommission	0.308364	0.921140	0	0	6.123529e+01
200.080582	1.279576	city	3	1	1.022960	1.022960	0	1	0	0	CorrectCommission	0.456128	0.902675	0	0	6.117647e+01
201.366837	1.292906	city	9	1	1.051393	1.051393	0	1	0	0	CorrectCommission	0.327299	0.896932	0	0	6.111765e+01
202.666397	1.306242	city	5	1	1.205141	1.205141	0	1	0	0	CorrectCommission	0.369321	0.903928	0	0	6.105882e+01
206.278473	5.917898	break	0	1	1.262930	1.262930	0	0	0	0	ThoughtProbe	0.631157	0.921959	0	61	61
209.877289	1.279719	city	7	1	1.399192	1.399192	0	1	0	0	CorrectCommission	1.248547	0.947840	0	0	61
211.163513	1.292738	city	6	1	1.261490	1.261490	0	1	0	0	CorrectCommission	0.624631	0.977323	0	0	61
212.456421	1.293069	city	4	1	1.120570	1.120570	0	1	0	0	CorrectCommission	0.013865	1.005722	0	0	61
213.742691	1.279488	mountain	9	0	0.000000	0.795522	1	0	0	0	CorrectOmission	1.486627	1.028485	0	0	61
215.022263	1.279667	mountain	10	0	0.000000	0.510455	1	0	0	0	CorrectOmission	2.778236	1.041768	0	0	61
216.301895	1.279581	city	7	1	0.489481	0.489481	0	1	0	0	CorrectCommission	2.873268	1.042949	0	0	61
217.601425	1.319490	mountain	9	1	0.956709	0.956709	0	0	1	0	CommissionError	0.756303	1.030882	0	0	61
218.901749	1.281158	city	5	1	1.287162	1.287162	0	1	0	0	CorrectCommission	0.740948	1.005998	0	0	61
220.187943	1.291227	city	7	1	1.372174	1.372174	0	1	0	0	CorrectCommission	1.126130	0.970002	0	0	61
221.480026	1.292929	city	1	1	1.315650	1.315650	0	1	0	0	CorrectCommission	0.870027	0.925583	0	0	61
222.772949	1.292936	city	7	1	1.262913	1.262913	0	1	0	0	CorrectCommission	0.631080	0.876011	0	0	61
224.079285	1.319715	city	2	1	1.111554	1.111554	0	1	0	0	CorrectCommission	0.054715	0.824696	0	0	61
225.378876	1.279467	city	8	1	0.978481	0.978481	0	1	0	0	CorrectCommission	0.657656	0.774792	0	0	61
226.678452	1.319684	city	6	1	0.908836	0.908836	0	1	0	0	CorrectCommission	0.973212	0.728984	1	0	61
227.978058	1.279551	city	9	1	0.983289	0.983289	0	1	0	0	CorrectCommission	0.635869	0.689398	1	0	61
229.264328	1.292973	city	6	1	0.872142	0.872142	0	1	0	0	CorrectCommission	1.139467	0.657570	1	0	61
230.570572	1.319521	city	5	1	1.104628	1.104628	0	1	0	0	CorrectCommission	0.086095	0.634459	1	0	61
231.870117	1.279563	city	9	1	1.039136	1.039136	0	1	0	0	CorrectCommission	0.382835	0.620569	1	0	61
233.156296	1.292796	city	7	1	1.005716	1.005716	0	1	0	0	CorrectCommission	0.534255	0.615926	1	0	61
234.442535	1.279683	city	9	1	1.036175	1.036175	0	1	0	0	CorrectCommission	0.396248	0.620194	1	0	61
235.728806	1.292847	city	2	1	1.071575	1.071575	0	1	0	0	CorrectCommission	0.235854	0.632668	1	0	61
237.041718	1.332980	city	8	1	1.280042	1.280042	0	1	0	0	CorrectCommission	0.708688	0.652351	1	0	61
238.354660	1.292917	city	6	1	1.039206	1.039206	0	1	0	0	CorrectCommission	0.382517	0.677945	1	0	61
239.640839	1.279422	city	2	1	0.935395	0.935395	0	1	0	0	CorrectCommission	0.852875	0.707980	1	0	61
240.920334	1.279598	city	5	1	0.935640	0.935640	0	1	0	0	CorrectCommission	0.851764	0.740874	1	0	61
242.206589	1.292887	city	8	1	1.036875	1.036875	0	1	0	0	CorrectCommission	0.393077	0.775011	0	0	61
243.499557	1.293068	city	6	1	0.818553	0.818553	0	1	0	0	CorrectCommission	1.382276	0.808826	0	0	61
244.785812	1.279422	city	8	1	0.876866	0.876866	0	1	0	0	CorrectCommission	1.118066	0.840867	0	0	61
246.065369	1.279703	city	3	1	0.932824	0.932824	0	1	0	0	CorrectCommission	0.864525	0.869918	0	0	61
247.351639	1.292828	city	4	1	0.991678	0.991678	0	1	0	0	CorrectCommission	0.597862	0.894970	0	0	61
248.644562	1.293023	city	3	1	0.769735	0.769735	0	1	0	0	CorrectCommission	1.603463	0.915262	0	0	61
249.937439	1.292747	city	8	1	1.065076	1.065076	0	1	0	0	CorrectCommission	0.265300	0.930318	0	0	61
251.237015	1.306392	city	1	1	1.048473	1.048473	0	1	0	0	CorrectCommission	0.340530	0.940070	0	0	61
252.529984	1.279556	city	7	1	1.462839	1.462839	0	1	0	0	CorrectCommission	1.536924	0.944845	0	0	61
253.816162	1.292780	mountain	2	0	0.000000	1.521921	1	0	0	0	CorrectOmission	1.804621	0.945397	0	0	61
255.102341	1.279594	city	10	1	1.412390	1.412390	0	1	0	0	CorrectCommission	1.308347	0.942908	0	0	61
256.381989	1.279698	city	3	1	1.320916	1.320916	0	1	0	0	CorrectCommission	0.893885	0.938915	0	0	61
257.674927	1.306155	city	1	1	1.226252	1.226252	0	1	0	0	CorrectCommission	0.464972	0.935076	0	0	61
258.967834	1.279702	city	6	1	1.459244	1.459244	0	1	0	0	CorrectCommission	1.520635	0.932950	0	0	61
260.260803	1.306217	city	2	1	1.156552	1.156552	0	1	0	0	CorrectCommission	0.149169	0.933629	0	0	61
261.566986	1.306177	city	8	1	1.372960	1.372960	0	1	0	0	CorrectCommission	1.129694	0.937547	0	0	61
262.886536	1.332918	city	10	1	1.111113	1.111113	0	1	0	0	CorrectCommission	0.056715	0.944234	0	0	61
264.199463	1.292909	city	1	1	1.094316	1.094316	0	1	0	0	CorrectCommission	0.132819	0.952405	0	0	61
265.485718	1.279600	city	3	1	0.917493	0.917493	0	1	0	0	CorrectCommission	0.933989	0.960097	0	0	61
266.771973	1.292916	city	4	1	0.867750	0.867750	0	1	0	0	CorrectCommission	1.159367	0.965034	0	0	61
270.630615	6.424382	break	0	1	0.872069	0.872069	0	0	0	0	ThoughtProbe	1.139800	0.965108	0	61	61
274.482666	1.279734	city	4	1	1.643080	1.643080	0	1	0	0	CorrectCommission	2.353578	0.958835	0	0	6.095652e+01
275.782318	1.319567	mountain	10	0	0.000000	1.688520	1	0	0	0	CorrectOmission	2.559463	0.945671	0	0	6.091304e+01
277.081848	1.279442	city	1	1	1.408713	1.408713	0	1	0	0	CorrectCommission	1.291684	0.926157	0	0	6.086957e+01
278.361420	1.279738	city	3	1	1.203982	1.203982	0	1	0	0	CorrectCommission	0.364067	0.901817	0	0	6.082609e+01
279.654388	1.306217	city	1	1	1.122646	1.122646	0	1	0	0	CorrectCommission	0.004458	0.874815	0	0	6.078261e+01
280.960632	1.306232	city	3	1	1.186973	1.186973	0	1	0	0	CorrectCommission	0.287003	0.847475	0	0	6.073913e+01
282.266876	1.306248	city	6	1	1.045089	1.045089	0	1	0	0	CorrectCommission	0.355859	0.821788	0	0	6.069565e+01
283.559753	1.279517	city	8	1	0.965051	0.965051	0	1	0	0	CorrectCommission	0.718507	0.799126	0	0	6.065217e+01
284.845978	1.292965	city	9	1	1.178393	1.178393	0	1	0	0	CorrectCommission	0.248127	0.780027	0	0	6.060870e+01
286.145538	1.306136	city	1	1	1.018751	1.018751	0	1	0	0	CorrectCommission	0.475196	0.764281	0	0	6.056522e+01
287.438446	1.279680	city	4	1	1.347640	1.347640	0	1	0	0	CorrectCommission	1.014967	0.751141	1	0	6.052174e+01
288.724731	1.292858	mountain	3	0	0.000000	1.514021	1	0	0	0	CorrectOmission	1.768824	0.739667	1	0	6.047826e+01
290.010956	1.279643	city	4	1	1.497706	1.497706	0	1	0	0	CorrectCommission	1.694903	0.729108	1	0	6.043478e+01
291.303925	1.306243	city	2	1	1.278506	1.278506	0	1	0	0	CorrectCommission	0.701731	0.719161	1	0	6.039130e+01
292.596771	1.279454	city	6	1	1.089190	1.089190	0	1	0	0	CorrectCommission	0.156045	0.710053	1	0	6.034783e+01
293.882996	1.293006	city	1	1	1.158943	1.158943	0	1	0	0	CorrectCommission	0.159999	0.702519	1	0	6.030435e+01
295.169220	1.279427	city	9	1	1.325329	1.325329	0	1	0	0	CorrectCommission	0.913878	0.697587	1	0	6.026087e+01
296.482117	1.346376	city	1	1	1.034557	1.034557	0	1	0	0	CorrectCommission	0.403582	0.696305	1	0	6.021739e+01
297.801758	1.292907	city	9	1	1.079611	1.079611	0	1	0	0	CorrectCommission	0.199446	0.699521	1	0	6.017391e+01
299.087982	1.279579	city	4	1	1.199823	1.199823	0	1	0	0	CorrectCommission	0.345222	0.707628	1	0	6.013043e+01
300.374237	1.292930	mountain	3	0	0.000000	1.323249	1	0	0	0	CorrectOmission	0.904453	0.720431	1	0	6.008696e+01
301.667145	1.292886	city	3	1	1.365267	1.365267	0	1	0	0	CorrectCommission	1.094835	0.737141	1	0	6.004348e+01
302.986725	1.346246	city	1	1	1.241257	1.241257	0	1	0	0	CorrectCommission	0.532957	0.756447	0	0	60
304.306213	1.292757	city	7	1	1.427646	1.427646	0	1	0	0	CorrectCommission	1.377469	0.776650	0	0	5.995652e+01
305.612457	1.319717	city	2	1	1.245393	1.245393	0	1	0	0	CorrectCommission	0.551697	0.795840	0	0	5.991304e+01
306.925385	1.306138	city	5	1	1.138414	1.138414	0	1	0	0	CorrectCommission	0.066986	0.812141	0	0	5.986957e+01
308.218292	1.279655	city	6	1	1.347204	1.347204	0	1	0	0	CorrectCommission	1.012993	0.823856	0	0	5.982609e+01
309.511139	1.306081	city	10	1	1.328093	1.328093	0	1	0	0	CorrectCommission	0.926402	0.829651	0	0	5.978261e+01
310.810730	1.293055	mountain	8	0	0.000000	1.491273	1	0	0	0	CorrectOmission	1.665755	0.828729	0	0	5.973913e+01
312.097046	1.279590	city	4	1	1.521623	1.521623	0	1	0	0	CorrectCommission	1.803270	0.820882	0	0	5.969565e+01
313.389862	1.306072	city	1	1	1.104023	1.104023	0	1	0	0	CorrectCommission	0.088837	0.806530	0	0	5.965217e+01
314.682770	1.279744	city	7	1	1.396638	1.396638	0	1	0	0	CorrectCommission	1.236976	0.786654	0	0	5.960870e+01
315.969055	1.292818	city	2	1	1.279392	1.279392	0	1	0	0	CorrectCommission	0.705745	0.762555	0	0	5.956522e+01
317.268646	1.306323	city	1	1	1.040151	1.040151	0	1	0	0	CorrectCommission	0.378234	0.735740	1	0	5.952174e+01
318.561584	1.279598	city	10	1	1.092560	1.092560	0	1	0	0	CorrectCommission	0.140775	0.707681	1	0	5.947826e+01
319.841187	1.279584	city	4	1	1.426597	1.426597	0	1	0	0	CorrectCommission	1.372715	0.679644	1	0	5.943478e+01
321.127380	1.292820	city	8	1	1.084377	1.084377	0	1	0	0	CorrectCommission	0.177853	0.652538	1	0	5.939130e+01
322.413635	1.279666	city	9	1	1.190532	1.190532	0	1	0	0	CorrectCommission	0.303125	0.626921	1	0	5.934783e+01
323.699890	1.292850	city	6	1	0.874946	0.874946	0	1	0	0	CorrectCommission	1.126761	0.602973	1	0	5.930435e+01
324.986115	1.279626	city	7	1	1.017530	1.017530	0	1	0	0	CorrectCommission	0.480729	0.580593	1	0	5.926087e+01
326.265656	1.279438	city	2	1	1.041366	1.041366	0	1	0	0	CorrectCommission	0.372730	0.559551	1	0	5.921739e+01
327.545227	1.279714	city	10	1	0.934784	0.934784	0	1	0	0	CorrectCommission	0.855643	0.539599	1	0	5.917391e+01
328.838226	1.306255	city	8	1	1.159237	1.159237	0	1	0	0	CorrectCommission	0.161335	0.520598	1	0	5.913043e+01
330.144440	1.306215	city	3	1	0.969770	0.969770	0	1	0	0	CorrectCommission	0.697123	0.502614	1	0	5.908696e+01
331.437317	1.279519	city	6	1	0.925426	0.925426	0	1	0	0	CorrectCommission	0.898042	0.485978	1	0	5.904348e+01
334.796204	5.438265	break	0	0	0.000000	1.109889	0	0	0	0	ThoughtProbe	0.062261	0.471271	1	59	59
338.168396	1.306081	city	3	1	1.254163	1.254163	0	1	0	0	CorrectCommission	0.591435	0.459325	1	0	5.905882e+01
339.467957	1.293092	city	4	1	1.089257	1.089257	0	1	0	0	CorrectCommission	0.155738	0.451094	1	0	5.911765e+01
340.774292	1.319547	city	2	1	1.228980	1.228980	0	1	0	0	CorrectCommission	0.477333	0.447565	1	0	5.917647e+01
342.073853	1.279600	mountain	1	0	0.000000	1.232818	1	0	0	0	CorrectOmission	0.494719	0.449630	1	0	5.923529e+01
343.373383	1.319430	city	7	1	1.171214	1.171214	0	1	0	0	CorrectCommission	0.215601	0.457962	1	0	5.929412e+01
344.686279	1.306365	city	6	1	1.114616	1.114616	0	1	0	0	CorrectCommission	0.040842	0.472923	1	0	5.935294e+01
345.985870	1.292820	city	10	1	1.202313	1.202313	0	1	0	0	CorrectCommission	0.356507	0.494521	1	0	5.941176e+01
347.278778	1.293006	city	4	1	1.244298	1.244298	0	1	0	0	CorrectCommission	0.546737	0.522340	1	0	5.947059e+01
348.571747	1.292902	city	9	1	1.013640	1.013640	0	1	0	0	CorrectCommission	0.498356	0.555570	1	0	5.952941e+01
349.864624	1.292900	city	4	1	0.942058	0.942058	0	1	0	0	CorrectCommission	0.822686	0.593076	1	0	5.958824e+01
351.150848	1.279543	mountain	3	0	0.000000	1.137071	1	0	0	0	CorrectOmission	0.060903	0.633454	1	0	5.964706e+01
352.430450	1.279629	city	2	1	1.349950	1.349950	0	1	0	0	CorrectCommission	1.025434	0.675100	1	0	5.970588e+01
353.730042	1.319577	city	9	1	1.331962	1.331962	0	1	0	0	CorrectCommission	0.943933	0.716349	1	0	5.976471e+01
355.036224	1.292795	city	6	1	1.076748	1.076748	0	1	0	0	CorrectCommission	0.212415	0.755621	1	0	5.982353e+01
356.335724	1.306199	city	3	1	0.949334	0.949334	0	1	0	0	CorrectCommission	0.789720	0.791546	0	0	5.988235e+01
357.628662	1.279692	city	8	1	0.714159	0.714159	0	1	0	0	CorrectCommission	1.855273	0.823014	0	0	5.994118e+01
358.921631	1.306238	city	2	1	1.003146	1.003146	0	1	0	0	CorrectCommission	0.545899	0.849357	0	0	60
360.221222	1.292910	city	9	1	0.867625	0.867625	0	1	0	0	CorrectCommission	1.159936	0.870415	0	0	6.005882e+01
361.527466	1.319567	city	4	1	0.895037	0.895037	0	1	0	0	CorrectCommission	1.035731	0.886511	0	0	6.011765e+01
362.833618	1.292774	city	3	1	0.983180	0.983180	0	1	0	0	CorrectCommission	0.636366	0.898457	0	0	6.017647e+01
364.139862	1.319716	city	7	1	0.900090	0.900090	0	1	0	0	CorrectCommission	1.012838	0.907465	0	0	6.023529e+01
365.466095	1.332728	city	3	1	0.923343	0.923343	0	1	0	0	CorrectCommission	0.907479	0.914999	0	0	6.029412e+01
366.785645	1.306387	city	9	1	0.847415	0.847415	0	1	0	0	CorrectCommission	1.251502	0.922550	0	0	6.035294e+01
368.091980	1.306260	city	6	1	0.894555	0.894555	0	1	0	0	CorrectCommission	1.037915	0.931449	0	0	6.041176e+01
369.398193	1.306204	city	3	1	0.978562	0.978562	0	1	0	0	CorrectCommission	0.657288	0.942665	0	0	6.047059e+01
370.691040	1.279436	city	5	1	1.041456	1.041456	0	1	0	0	CorrectCommission	0.372320	0.956579	0	0	6.052941e+01
371.983948	1.306399	city	7	1	0.928070	0.928070	0	1	0	0	CorrectCommission	0.886062	0.972894	0	0	6.058824e+01
373.303589	1.332889	city	2	1	1.061183	1.061183	0	1	0	0	CorrectCommission	0.282940	0.990589	0	0	6.064706e+01
374.629822	1.319566	city	9	1	0.782978	0.782978	0	1	0	0	CorrectCommission	1.543460	1.008036	0	0	6.070588e+01
375.935974	1.292782	city	2	1	0.769582	0.769582	0	1	0	0	CorrectCommission	1.604155	1.023124	0	0	6.076471e+01
377.222229	1.279711	city	8	1	1.095953	1.095953	0	1	0	0	CorrectCommission	0.125400	1.033632	0	0	6.082353e+01
378.528534	1.332887	city	5	1	0.870492	0.870492	0	1	0	0	CorrectCommission	1.146943	1.037526	0	0	6.088235e+01
379.834778	1.279576	city	2	1	0.703205	0.703205	0	1	0	0	CorrectCommission	1.904904	1.033229	0	0	6.094118e+01
384.033356	7.117627	break	0	1	0.484894	0.484894	0	0	0	0	ThoughtProbe	2.894053	1.019869	0	61	61
388.271942	1.359515	city	8	1	1.160738	1.160738	0	1	0	0	CorrectCommission	0.168133	0.997405	0	0	61
389.591522	1.279647	city	7	1	1.416592	1.416592	0	1	0	0	CorrectCommission	1.327385	0.966691	0	0	61
390.884460	1.306264	mountain	1	0	0.000000	1.265267	1	0	0	0	CorrectOmission	0.641746	0.929211	0	0	61
392.190643	1.306072	city	5	1	1.070541	1.070541	0	1	0	0	CorrectCommission	0.240543	0.886956	0	0	61
393.483551	1.279739	city	4	1	1.196189	1.196189	0	1	0	0	CorrectCommission	0.328760	0.842199	0	0	61
394.763214	1.279579	mountain	8	0	0.000000	1.427309	1	0	0	0	CorrectOmission	1.375942	0.797234	0	0	61
396.049438	1.292905	city	4	1	1.496096	1.496096	0	1	0	0	CorrectCommission	1.687610	0.754151	1	0	61
397.355682	1.319537	city	1	1	1.134747	1.134747	0	1	0	0	CorrectCommission	0.050373	0.714767	1	0	61
398.655273	1.279647	city	3	1	1.096850	1.096850	0	1	0	0	CorrectCommission	0.121335	0.680509	1	0	61
399.934845	1.279521	city	2	1	0.895471	0.895471	0	1	0	0	CorrectCommission	1.033767	0.652306	1	0	61
401.221069	1.292906	city	7	1	1.099621	1.099621	0	1	0	0	CorrectCommission	0.108782	0.630585	1	0	61
402.527283	1.319567	city	1	1	1.215750	1.215750	0	1	0	0	CorrectCommission	0.417387	0.615285	1	0	61
403.840210	1.306259	city	10	1	0.992042	0.992042	0	1	0	0	CorrectCommission	0.596214	0.605856	1	0	61
405.133118	1.279581	city	1	1	0.964950	0.964950	0	1	0	0	CorrectCommission	0.718963	0.601356	1	0	61
406.426025	1.306218	city	6	1	1.121118	1.121118	0	1	0	0	CorrectCommission	0.011379	0.600553	1	0	61
407.732208	1.306167	city	3	1	0.948283	0.948283	0	1	0	0	CorrectCommission	0.794481	0.602096	1	0	61
409.051697	1.332815	city	9	1	0.971329	0.971329	0	1	0	0	CorrectCommission	0.690059	0.604607	1	0	61
410.364563	1.292917	city	5	1	0.934300	0.934300	0	1	0	0	CorrectCommission	0.857837	0.606915	1	0	61
411.657562	1.293029	city	10	1	0.916149	0.916149	0	1	0	0	CorrectCommission	0.940077	0.608177	1	0	61
412.950531	1.292923	city	6	1	0.911535	0.911535	0	1	0	0	CorrectCommission	0.960983	0.607930	1	0	61
414.236603	1.279252	mountain	4	0	0.000000	1.134316	1	0	0	0	CorrectOmission	0.048419	0.606131	1	0	61
415.516205	1.279945	city	2	1	1.285032	1.285032	0	1	0	0	CorrectCommission	0.731298	0.603122	1	0	61
416.815887	1.319395	city	1	1	1.064221	1.064221	0	1	0	0	CorrectCommission	0.269176	0.599543	1	0	61
418.115448	1.279711	city	2	1	1.294193	1.294193	0	1	0	0	CorrectCommission	0.772807	0.596180	1	0	61
419.401642	1.292708	city	5	1	1.408938	1.408938	0	1	0	0	CorrectCommission	1.292705	0.593803	1	0	61
420.741119	1.386254	city	10	1	1.124403	1.124403	0	1	0	0	CorrectCommission	0.003503	0.593043	1	0	61
422.080811	1.293089	city	2	1	1.241299	1.241299	0	1	0	0	CorrectCommission	0.533148	0.594294	1	0	61
423.380371	1.306085	city	5	1	1.146982	1.146982	0	1	0	0	CorrectCommission	0.105808	0.597550	1	0	61
424.699860	1.332860	city	1	1	1.184544	1.184544	0	1	0	0	CorrectCommission	0.275994	0.602479	1	0	61
426.006165	1.279770	city	10	1	1.429644	1.429644	0	1	0	0	CorrectCommission	1.386519	0.608501	1	0	61
427.305786	1.319447	city	7	1	1.156456	1.156456	0	1	0	0	CorrectCommission	0.148733	0.614871	1	0	61
428.605286	1.279535	city	3	1	1.018300	1.018300	0	1	0	0	CorrectCommission	0.477238	0.620934	1	0	61
429.911560	1.333050	city	9	1	0.951418	0.951418	0	1	0	0	CorrectCommission	0.780277	0.626255	1	0	61
431.237854	1.319550	city	10	1	0.792033	0.792033	0	1	0	0	CorrectCommission	1.502436	0.630731	1	0	61
432.537384	1.279481	city	2	1	1.317776	1.317776	0	1	0	0	CorrectCommission	0.879656	0.634711	1	0	61
433.850281	1.346339	city	10	1	1.188523	1.188523	0	1	0	0	CorrectCommission	0.294025	0.638985	1	0	61
435.183136	1.319386	city	7	1	1.277268	1.277268	0	1	0	0	CorrectCommission	0.696119	0.644677	1	0	61
436.502716	1.319767	city	4	1	1.247672	1.247672	0	1	0	0	CorrectCommission	0.562022	0.653041	1	0	61
437.822296	1.319381	city	6	1	1.072326	1.072326	0	1	0	0	CorrectCommission	0.232454	0.665292	1	0	61
441.914185	6.864386	break	0	0	0.000000	1.142548	0	0	0	0	ThoughtProbe	0.085716	0.682404	1	61	61
446.006165	1.319567	city	2	1	1.269670	1.269670	0	1	0	0	CorrectCommission	0.661696	0.705007	1	0	6.086957e+01
447.312469	1.293078	city	1	1	1.265026	1.265026	0	1	0	0	CorrectCommission	0.640651	0.733300	1	0	6.073913e+01
448.605499	1.292923	mountain	10	0	0.000000	1.239588	1	0	0	0	CorrectOmission	0.525397	0.767143	0	0	6.060870e+01
449.891724	1.279579	city	1	1	1.294331	1.294331	0	1	0	0	CorrectCommission	0.773431	0.806049	0	0	6.047826e+01
451.197968	1.332882	city	5	1	1.530226	1.530226	0	1	0	0	CorrectCommission	1.842250	0.849294	0	0	6.034783e+01
452.517487	1.306176	city	4	1	1.456429	1.456429	0	1	0	0	CorrectCommission	1.507882	0.895922	0	0	6.021739e+01
453.843719	1.346295	city	2	1	1.192992	1.192992	0	1	0	0	CorrectCommission	0.314275	0.944739	0	0	6.008696e+01
455.169891	1.306057	city	6	1	1.096428	1.096428	0	1	0	0	CorrectCommission	0.123251	0.994325	0	0	5.995652e+01
456.489471	1.333077	city	2	1	0.953945	0.953945	0	1	0	0	CorrectCommission	0.768824	1.042903	0	0	5.982609e+01
457.810944	1.309872	mountain	3	0	0.000000	1.198870	1	0	0	0	CorrectOmission	0.340904	1.088376	0	0	5.969565e+01
459.103851	1.275924	city	1	1	1.557623	1.557623	0	1	0	0	CorrectCommission	1.966380	1.128435	0	0	5.956522e+01
460.394928	1.306256	city	7	1	1.756627	1.756627	0	1	0	0	CorrectCommission	2.868052	1.160635	0	0	5.943478e+01
461.714508	1.332875	city	3	1	1.177187	1.177187	0	1	0	0	CorrectCommission	0.242661	1.182723	0	0	5.930435e+01
463.040680	1.319511	city	6	1	0.849165	0.849165	0	1	0	0	CorrectCommission	1.243575	1.192922	0	0	5.917391e+01
464.360260	1.319614	city	3	1	0.836437	0.836437	0	1	0	0	CorrectCommission	1.301242	1.190130	0	0	5.904348e+01
465.673187	1.306239	city	9	1	0.773711	0.773711	0	1	0	0	CorrectCommission	1.585447	1.174153	0	0	5.891304e+01
466.992676	1.332755	city	6	1	0.587373	0.587373	0	1	0	0	CorrectCommission	2.429728	1.145861	0	0	5.878261e+01
468.318909	1.319730	city	5	1	0.675547	0.675547	0	1	0	0	CorrectCommission	2.030220	1.107123	0	0	5.865217e+01
469.625244	1.292892	mountain	5	0	0.000000	1.046192	1	0	0	0	CorrectOmission	0.350862	1.060657	0	0	5.852174e+01
470.918121	1.292902	city	10	1	1.318613	1.318613	0	1	0	0	CorrectCommission	0.883450	1.009788	0	0	5.839130e+01
472.231018	1.332898	city	9	1	1.112114	1.112114	0	1	0	0	CorrectCommission	0.052178	0.958029	0	0	5.826087e+01
473.557220	1.319471	city	10	1	0.911641	0.911641	0	1	0	0	CorrectCommission	0.960501	0.908792	0	0	5.813043e+01
474.870117	1.306356	city	2	1	1.089434	1.089434	0	1	0	0	CorrectCommission	0.154937	0.865016	0	0	58
476.163086	1.279554	mountain	3	0	0.000000	1.338348	1	0	0	0	CorrectOmission	0.972867	0.829023	0	0	5.786957e+01
477.455963	1.306233	city	1	1	1.440335	1.440335	0	1	0	0	CorrectCommission	1.434962	0.802404	0	0	5.773913e+01
478.775543	1.332899	city	5	1	1.177349	1.177349	0	1	0	0	CorrectCommission	0.243397	0.786006	0	0	5.760870e+01
480.128448	1.372882	city	8	1	0.969140	0.969140	0	1	0	0	CorrectCommission	0.699980	0.780041	0	0	5.747826e+01
481.467987	1.306237	city	2	1	1.103920	1.103920	0	1	0	0	CorrectCommission	0.089305	0.784159	0	0	5.734783e+01
482.767548	1.292899	city	3	1	1.018586	1.018586	0	1	0	0	CorrectCommission	0.475942	0.797634	0	0	5.721739e+01
484.067139	1.306269	city	5	1	0.901392	0.901392	0	1	0	0	CorrectCommission	1.006939	0.819474	0	0	5.708696e+01
485.366730	1.292886	city	3	1	0.862567	0.862567	0	1	0	0	CorrectCommission	1.182853	0.848449	0	0	5.695652e+01
486.686218	1.346098	city	4	1	1.418184	1.418184	0	1	0	0	CorrectCommission	1.334599	0.883162	0	0	5.682609e+01
488.025787	1.333032	city	9	1	1.123131	1.123131	0	1	0	0	CorrectCommission	0.002262	0.921979	0	0	5.669565e+01
489.345428	1.306278	city	10	1	0.773825	0.773825	0	1	0	0	CorrectCommission	1.584932	0.963010	0	0	5.656522e+01
490.645020	1.292876	city	9	1	1.096529	1.096529	0	1	0	0	CorrectCommission	0.122792	1.004028	0	0	5.643478e+01
491.951233	1.319544	city	1	1	0.823549	0.823549	0	1	0	0	CorrectCommission	1.359637	1.042473	0	0	5.630435e+01
493.270752	1.319495	city	5	1	0.847824	0.847824	0	1	0	0	CorrectCommission	1.249649	1.075418	0	0	5.617391e+01
494.583649	1.306305	city	3	1	1.006730	1.006730	0	1	0	0	CorrectCommission	0.529660	1.099821	0	0	5.604348e+01
495.883240	1.292919	city	7	1	0.797179	0.797179	0	1	0	0	CorrectCommission	1.479118	1.112702	0	0	5.591304e+01
497.176178	1.292906	city	6	1	0.660679	0.660679	0	1	0	0	CorrectCommission	2.097589	1.111502	0	0	5.578261e+01
498.475739	1.306210	city	9	1	0.789166	0.789166	0	1	0	0	CorrectCommission	1.515422	1.094461	0	0	5.565217e+01
499.795288	1.332913	city	8	1	0.871827	0.871827	0	1	0	0	CorrectCommission	1.140893	1.060968	0	0	5.552174e+01
501.134827	1.346166	city	4	1	0.985515	0.985515	0	1	0	0	CorrectCommission	0.625783	1.011803	0	0	5.539130e+01
502.494385	1.372944	city	3	1	1.750896	1.750896	0	1	0	0	CorrectCommission	2.842082	0.949207	0	0	5.526087e+01
503.827301	1.292907	city	2	1	1.525443	1.525443	0	1	0	0	CorrectCommission	1.820576	0.876746	0	0	5.513043e+01
507.126282	5.305071	break	0	0	0.000000	1.299989	0	0	0	0	ThoughtProbe	0.799069	0.799069	0	55	55
