onset	duration	trial_type	image_type	Press	ReactionTime	ReactionTime_Interpolated	CorrectOmission	CorrectCommission	CommissionError	OmissionError	response_type	nonsmoothVarianceTimeCourse	VarianceTimeCourse	In_the_Zone	ThoughtProbe	ThoughtProbe_Interpolated
0.652768	1.279337	city	10	1	1.233894	1.233894	0	1	0	0	CorrectCommission	0.365825	0.365825	1	0	82
1.932219	1.279565	city	9	1	0.924958	0.924958	0	1	0	0	CorrectCommission	1.255389	0.392685	1	0	82
3.211796	1.279589	city	3	1	1.017943	1.017943	0	1	0	0	CorrectCommission	0.767429	0.418579	1	0	82
4.491431	1.279680	mountain	10	1	1.021401	1.021401	0	0	1	0	CommissionError	0.749279	0.442615	1	0	82
5.771081	1.279620	city	6	1	1.181135	1.181135	0	1	0	0	CorrectCommission	0.088962	0.464013	1	0	82
7.050598	1.279412	city	2	1	1.075974	1.075974	0	1	0	0	CorrectCommission	0.462895	0.482126	1	0	82
8.330173	1.279737	mountain	2	0	0.000000	1.209968	1	0	0	0	CorrectOmission	0.240267	0.496428	1	0	82
9.609832	1.279582	city	9	1	1.289695	1.289695	0	1	0	0	CorrectCommission	0.658652	0.506541	1	0	82
10.889424	1.279604	city	5	1	1.021734	1.021734	0	1	0	0	CorrectCommission	0.747535	0.512248	1	0	82
12.169015	1.279576	city	1	1	1.178987	1.178987	0	1	0	0	CorrectCommission	0.077690	0.513495	1	0	82
13.608542	1.599479	city	2	0	0.000000	1.008146	0	0	0	1	OmissionError	0.818841	0.510502	1	0	82
15.048058	1.279552	city	1	1	0.913447	0.913447	0	1	0	0	CorrectCommission	1.315795	0.503717	1	0	82
16.327635	1.279604	city	5	1	1.299130	1.299130	0	1	0	0	CorrectCommission	0.708164	0.493874	1	0	82
17.607214	1.279554	city	10	1	1.178917	1.178917	0	1	0	0	CorrectCommission	0.077320	0.481984	1	0	82
18.886795	1.279608	city	6	1	1.234483	1.234483	0	1	0	0	CorrectCommission	0.368913	0.469298	1	0	82
20.166380	1.279561	city	9	1	1.135235	1.135235	0	1	0	0	CorrectCommission	0.151911	0.457205	1	0	82
21.452608	1.292898	city	1	1	1.089665	1.089665	0	1	0	0	CorrectCommission	0.391052	0.447141	1	0	82
22.738781	1.279447	mountain	6	0	0.000000	1.056528	1	0	0	0	CorrectOmission	0.564942	0.440491	1	0	82
24.019131	1.281253	city	1	1	1.072922	1.072922	0	1	0	0	CorrectCommission	0.478914	0.438477	1	0	82
25.298695	1.277873	city	9	1	1.175940	1.175940	0	1	0	0	CorrectCommission	0.061700	0.442069	1	0	82
26.604166	1.333071	city	1	1	1.075452	1.075452	0	1	0	0	CorrectCommission	0.465638	0.451904	1	0	82
27.917070	1.292739	city	2	1	1.081720	1.081720	0	1	0	0	CorrectCommission	0.432745	0.468199	1	0	82
29.203310	1.279741	city	8	1	1.128331	1.128331	0	1	0	0	CorrectCommission	0.188144	0.490719	1	0	82
30.482904	1.279448	city	3	1	1.316808	1.316808	0	1	0	0	CorrectCommission	0.800933	0.518738	1	0	82
31.775732	1.306205	city	5	1	1.212416	1.212416	0	1	0	0	CorrectCommission	0.253113	0.551059	1	0	82
33.068634	1.279599	city	4	1	1.127250	1.127250	0	1	0	0	CorrectCommission	0.193813	0.586115	1	0	82
34.348289	1.279717	city	7	1	1.195654	1.195654	0	1	0	0	CorrectCommission	0.165150	0.622105	1	0	82
35.634605	1.292911	city	3	1	0.978838	0.978838	0	1	0	0	CorrectCommission	0.972638	0.657193	1	0	82
36.920849	1.279579	mountain	6	0	0.000000	1.254133	1	0	0	0	CorrectOmission	0.472033	0.689746	1	0	82
38.200397	1.279513	city	1	1	1.555157	1.555157	0	1	0	0	CorrectCommission	2.051725	0.718581	1	0	82
39.479900	1.279497	city	2	1	1.415529	1.415529	0	1	0	0	CorrectCommission	1.318998	0.743063	0	0	82
40.779507	1.319712	city	10	1	1.008959	1.008959	0	1	0	0	CorrectCommission	0.814571	0.763253	0	0	82
42.079071	1.279421	city	2	1	1.124602	1.124602	0	1	0	0	CorrectCommission	0.207711	0.779780	0	0	82
43.378586	1.319605	city	9	1	1.059123	1.059123	0	1	0	0	CorrectCommission	0.551328	0.793651	0	0	82
44.678246	1.279716	city	2	1	0.978947	0.978947	0	1	0	0	CorrectCommission	0.972068	0.805981	0	0	82
45.964550	1.292893	city	1	1	1.045672	1.045672	0	1	0	0	CorrectCommission	0.621916	0.817714	0	0	82
47.257378	1.292761	city	8	1	0.982974	0.982974	0	1	0	0	CorrectCommission	0.950936	0.829369	0	0	82
48.543621	1.279727	city	7	1	0.963302	0.963302	0	1	0	0	CorrectCommission	1.054169	0.840811	0	0	82
49.823193	1.279413	city	1	1	1.124389	1.124389	0	1	0	0	CorrectCommission	0.208828	0.851227	0	0	82
51.109447	1.293096	city	2	1	1.103190	1.103190	0	1	0	0	CorrectCommission	0.320075	0.859226	0	0	82
52.422348	1.332707	city	4	1	1.077033	1.077033	0	1	0	0	CorrectCommission	0.457337	0.863047	0	0	82
53.728584	1.279768	city	1	1	0.872330	0.872330	0	1	0	0	CorrectCommission	1.531564	0.860898	0	0	82
55.008247	1.279556	city	3	1	0.803479	0.803479	0	1	0	0	CorrectCommission	1.892877	0.851316	0	0	82
56.294479	1.292905	city	9	1	0.835452	0.835452	0	1	0	0	CorrectCommission	1.725089	0.833527	0	0	82
57.594032	1.306202	city	3	1	0.946075	0.946075	0	1	0	0	CorrectCommission	1.144571	0.807668	0	0	82
61.792656	7.091044	break	0	1	1.021489	1.021489	0	0	0	0	ThoughtProbe	0.748822	0.774863	0	82	82
65.977890	1.279421	city	6	1	1.243375	1.243375	0	1	0	0	CorrectCommission	0.415578	0.737130	1	0	8.161765e+01
67.257477	1.279763	mountain	6	0	0.000000	1.262619	1	0	0	0	CorrectOmission	0.516564	0.697119	1	0	8.123529e+01
68.550377	1.306040	city	3	1	1.213968	1.213968	0	1	0	0	CorrectCommission	0.261260	0.657789	1	0	8.085294e+01
69.843300	1.279797	city	1	1	1.232172	1.232172	0	1	0	0	CorrectCommission	0.356788	0.622081	1	0	8.047059e+01
71.122978	1.279564	city	3	1	1.231773	1.231773	0	1	0	0	CorrectCommission	0.354695	0.592623	1	0	8.008824e+01
72.402466	1.279403	city	2	1	1.315274	1.315274	0	1	0	0	CorrectCommission	0.792884	0.571471	1	0	7.970588e+01
73.682030	1.279737	city	10	1	1.083721	1.083721	0	1	0	0	CorrectCommission	0.422245	0.560016	1	0	7.932353e+01
74.961716	1.279623	city	2	1	1.178874	1.178874	0	1	0	0	CorrectCommission	0.077095	0.558941	1	0	7.894118e+01
76.241272	1.279500	city	4	1	1.179766	1.179766	0	1	0	0	CorrectCommission	0.081775	0.568206	1	0	7.855882e+01
77.534065	1.306085	city	8	1	0.944207	0.944207	0	1	0	0	CorrectCommission	1.154375	0.587112	1	0	7.817647e+01
78.840309	1.306401	city	7	1	1.228627	1.228627	0	1	0	0	CorrectCommission	0.338183	0.614342	1	0	7.779412e+01
80.133308	1.279601	city	1	1	1.083780	1.083780	0	1	0	0	CorrectCommission	0.421935	0.648132	1	0	7.741176e+01
81.412849	1.279473	mountain	5	0	0.000000	1.250479	1	0	0	0	CorrectOmission	0.452860	0.686351	1	0	7.702941e+01
82.705673	1.306184	city	3	1	1.374553	1.374553	0	1	0	0	CorrectCommission	1.103964	0.726624	1	0	7.664706e+01
84.005287	1.293044	city	7	1	1.101826	1.101826	0	1	0	0	CorrectCommission	0.327231	0.766523	0	0	7.626471e+01
85.291534	1.279449	city	4	1	0.967356	0.967356	0	1	0	0	CorrectCommission	1.032894	0.803780	0	0	7.588235e+01
86.577782	1.293043	city	3	1	0.995291	0.995291	0	1	0	0	CorrectCommission	0.886300	0.836453	0	0	7.550000e+01
87.864014	1.279425	city	9	1	1.071400	1.071400	0	1	0	0	CorrectCommission	0.486900	0.863152	0	0	7.511765e+01
89.156921	1.306388	city	7	1	0.874620	0.874620	0	1	0	0	CorrectCommission	1.519550	0.883204	0	0	7.473529e+01
90.449921	1.279610	city	6	1	0.716331	0.716331	0	1	0	0	CorrectCommission	2.350204	0.896677	0	0	7.435294e+01
91.736176	1.292897	city	1	1	0.921206	0.921206	0	1	0	0	CorrectCommission	1.275074	0.904348	0	0	7.397059e+01
93.022400	1.279557	city	4	1	1.241355	1.241355	0	1	0	0	CorrectCommission	0.404977	0.907542	0	0	7.358824e+01
94.328629	1.332895	city	8	1	1.042687	1.042687	0	1	0	0	CorrectCommission	0.637579	0.907818	0	0	7.320588e+01
95.641563	1.292972	city	9	1	1.280841	1.280841	0	1	0	0	CorrectCommission	0.612189	0.906584	0	0	7.282353e+01
96.927826	1.279554	city	3	1	1.180740	1.180740	0	1	0	0	CorrectCommission	0.086889	0.904834	0	0	7.244118e+01
98.207375	1.279543	city	10	1	1.298890	1.298890	0	1	0	0	CorrectCommission	0.706906	0.902934	0	0	7.205882e+01
99.493607	1.292926	city	3	1	1.370025	1.370025	0	1	0	0	CorrectCommission	1.080205	0.900533	0	0	7.167647e+01
100.779770	1.279396	city	10	1	1.293168	1.293168	0	1	0	0	CorrectCommission	0.676879	0.896699	0	0	7.129412e+01
102.079277	1.319619	city	1	1	1.432309	1.432309	0	1	0	0	CorrectCommission	1.407054	0.890162	0	0	7.091176e+01
103.378944	1.279712	city	6	1	1.391890	1.391890	0	1	0	0	CorrectCommission	1.194945	0.879597	0	0	7.052941e+01
104.658508	1.279420	city	1	1	1.345419	1.345419	0	1	0	0	CorrectCommission	0.951078	0.863997	0	0	7.014706e+01
105.944748	1.293061	city	10	1	1.534895	1.534895	0	1	0	0	CorrectCommission	1.945396	0.842842	0	0	6.976471e+01
107.230988	1.279413	city	5	1	1.350150	1.350150	0	1	0	0	CorrectCommission	0.975905	0.816231	0	0	6.938235e+01
111.549553	7.357718	break	0	0	0.000000	1.285682	0	0	0	0	ThoughtProbe	0.637596	0.784892	0	69	69
115.868126	1.279426	city	8	1	1.238810	1.238810	0	1	0	0	CorrectCommission	0.391623	0.749990	0	0	6.795000e+01
117.154289	1.292907	city	2	1	1.106851	1.106851	0	1	0	0	CorrectCommission	0.300864	0.712930	1	0	6.690000e+01
118.440498	1.279516	city	6	1	1.182085	1.182085	0	1	0	0	CorrectCommission	0.093948	0.675139	1	0	6.585000e+01
119.720169	1.279823	city	2	1	1.030651	1.030651	0	1	0	0	CorrectCommission	0.700742	0.637931	1	0	6.480000e+01
120.999825	1.279484	city	3	1	0.965724	0.965724	0	1	0	0	CorrectCommission	1.041458	0.602429	1	0	6.375000e+01
122.292717	1.306302	city	5	1	1.066111	1.066111	0	1	0	0	CorrectCommission	0.514657	0.569590	1	0	6.270000e+01
123.592308	1.292876	mountain	4	0	0.000000	1.271824	1	0	0	0	CorrectOmission	0.564869	0.540300	1	0	6.165000e+01
124.885147	1.292807	city	7	1	1.357178	1.357178	0	1	0	0	CorrectCommission	1.012784	0.515415	1	0	6.060000e+01
126.178093	1.293080	city	10	1	1.096488	1.096488	0	1	0	0	CorrectCommission	0.355247	0.495827	1	0	5.955000e+01
127.471008	1.292757	city	2	1	1.153252	1.153252	0	1	0	0	CorrectCommission	0.057361	0.482488	1	0	5.850000e+01
128.757172	1.279553	city	10	1	1.129442	1.129442	0	1	0	0	CorrectCommission	0.182309	0.476272	1	0	5.745000e+01
130.050064	1.306235	mountain	9	1	1.191111	1.191111	0	0	1	0	CommissionError	0.141313	0.477833	1	0	5.640000e+01
131.349731	1.293111	city	4	1	1.332442	1.332442	0	1	0	0	CorrectCommission	0.882980	0.487441	1	0	5.535000e+01
132.642715	1.292857	city	7	1	1.203758	1.203758	0	1	0	0	CorrectCommission	0.207678	0.504811	1	0	5.430000e+01
133.935593	1.292908	city	4	1	1.162992	1.162992	0	1	0	0	CorrectCommission	0.006250	0.529063	1	0	5.325000e+01
135.235184	1.306258	city	5	1	1.057397	1.057397	0	1	0	0	CorrectCommission	0.560384	0.558659	1	0	5.220000e+01
136.534760	1.292891	city	6	1	1.140605	1.140605	0	1	0	0	CorrectCommission	0.123732	0.591512	1	0	5.115000e+01
137.834335	1.306252	city	7	1	1.096624	1.096624	0	1	0	0	CorrectCommission	0.354529	0.625228	1	0	5.010000e+01
139.133865	1.292821	city	6	1	0.978315	0.978315	0	1	0	0	CorrectCommission	0.975383	0.657363	1	0	4.905000e+01
140.426773	1.292995	city	8	1	0.943842	0.943842	0	1	0	0	CorrectCommission	1.156288	0.685749	1	0	48
141.726379	1.306219	city	5	1	0.786931	0.786931	0	1	0	0	CorrectCommission	1.979717	0.708796	1	0	4.695000e+01
143.019272	1.279573	city	6	1	1.085873	1.085873	0	1	0	0	CorrectCommission	0.410948	0.725677	1	0	4.590000e+01
144.305511	1.292905	city	2	1	0.981107	0.981107	0	1	0	0	CorrectCommission	0.960731	0.736445	1	0	4.485000e+01
145.605087	1.306250	mountain	4	1	0.934907	0.934907	0	0	1	0	CommissionError	1.203179	0.741849	0	0	4.380000e+01
146.904709	1.292984	city	1	1	1.200331	1.200331	0	1	0	0	CorrectCommission	0.189693	0.743188	0	0	4.275000e+01
148.210983	1.319557	city	5	1	1.271678	1.271678	0	1	0	0	CorrectCommission	0.564107	0.742049	0	0	4.170000e+01
149.530396	1.319266	city	6	1	1.280282	1.280282	0	1	0	0	CorrectCommission	0.609258	0.739937	0	0	4.065000e+01
150.829849	1.279646	city	7	1	1.127947	1.127947	0	1	0	0	CorrectCommission	0.190154	0.738046	0	0	3.960000e+01
152.116211	1.293093	city	3	1	1.047773	1.047773	0	1	0	0	CorrectCommission	0.610889	0.737146	1	0	3.855000e+01
153.415863	1.306203	city	2	1	0.945495	0.945495	0	1	0	0	CorrectCommission	1.147616	0.737504	1	0	3.750000e+01
154.722046	1.306157	city	10	1	0.936614	0.936614	0	1	0	0	CorrectCommission	1.194222	0.738979	0	0	3.645000e+01
156.041473	1.332706	city	9	1	1.128570	1.128570	0	1	0	0	CorrectCommission	0.186885	0.741198	0	0	3.540000e+01
157.380997	1.346344	city	3	1	1.082668	1.082668	0	1	0	0	CorrectCommission	0.427771	0.743761	0	0	3.435000e+01
158.694061	1.279765	city	1	1	0.859674	0.859674	0	1	0	0	CorrectCommission	1.597980	0.746386	0	0	3.330000e+01
159.980301	1.292737	city	7	1	1.034974	1.034974	0	1	0	0	CorrectCommission	0.678052	0.749022	0	0	3.225000e+01
161.266541	1.279734	city	2	1	0.983367	0.983367	0	1	0	0	CorrectCommission	0.948875	0.751994	0	0	3.120000e+01
162.546158	1.279492	city	7	1	1.034264	1.034264	0	1	0	0	CorrectCommission	0.681778	0.755910	0	0	3.015000e+01
163.832397	1.292984	city	10	1	1.115251	1.115251	0	1	0	0	CorrectCommission	0.256780	0.761522	0	0	2.910000e+01
165.118668	1.279578	city	8	1	0.918713	0.918713	0	1	0	0	CorrectCommission	1.288161	0.769599	0	0	2.805000e+01
169.550552	7.584192	break	0	1	1.083048	1.083048	0	0	0	0	ThoughtProbe	0.425777	0.780658	0	27	27
173.982361	1.279400	city	2	1	1.312130	1.312130	0	1	0	0	CorrectCommission	0.776386	0.794863	0	0	2.814706e+01
175.275177	1.306250	mountain	5	0	0.000000	1.254521	1	0	0	0	CorrectOmission	0.474072	0.811851	0	0	2.929412e+01
176.568176	1.279748	city	2	1	1.136779	1.136779	0	1	0	0	CorrectCommission	0.143806	0.830716	0	0	3.044118e+01
177.847763	1.279411	city	6	1	1.185462	1.185462	0	1	0	0	CorrectCommission	0.111668	0.850120	0	0	3.158824e+01
179.127258	1.279579	city	7	1	1.551815	1.551815	0	1	0	0	CorrectCommission	2.034187	0.868405	0	0	3.273529e+01
180.413574	1.293073	city	6	1	1.571853	1.571853	0	1	0	0	CorrectCommission	2.139341	0.883774	0	0	3.388235e+01
181.733139	1.346041	city	9	1	1.217869	1.217869	0	1	0	0	CorrectCommission	0.281728	0.894605	0	0	3.502941e+01
183.052689	1.293053	city	4	1	0.981623	0.981623	0	1	0	0	CorrectCommission	0.958024	0.899657	0	0	3.617647e+01
184.345673	1.292927	city	10	1	0.882058	0.882058	0	1	0	0	CorrectCommission	1.480514	0.898087	0	0	3.732353e+01
185.638596	1.292923	city	5	1	1.050403	1.050403	0	1	0	0	CorrectCommission	0.597086	0.889593	0	0	3.847059e+01
186.938171	1.306215	city	3	1	1.009304	1.009304	0	1	0	0	CorrectCommission	0.812763	0.874440	0	0	3.961765e+01
188.231079	1.279609	city	9	1	0.985466	0.985466	0	1	0	0	CorrectCommission	0.937857	0.853377	0	0	4.076471e+01
189.517258	1.292734	city	6	1	0.984538	0.984538	0	1	0	0	CorrectCommission	0.942729	0.827606	0	0	4.191176e+01
190.836777	1.346318	city	10	1	1.060827	1.060827	0	1	0	0	CorrectCommission	0.542384	0.798741	0	0	4.305882e+01
192.149750	1.279635	city	5	1	1.025130	1.025130	0	1	0	0	CorrectCommission	0.729713	0.768696	0	0	4.420588e+01
193.429367	1.279599	city	3	1	1.520884	1.520884	0	1	0	0	CorrectCommission	1.871868	0.739551	0	0	4.535294e+01
194.728958	1.319568	city	10	1	1.083102	1.083102	0	1	0	0	CorrectCommission	0.425493	0.713376	1	0	4.650000e+01
196.028519	1.279565	city	5	1	1.037228	1.037228	0	1	0	0	CorrectCommission	0.666223	0.692084	1	0	4.764706e+01
197.321411	1.306229	city	10	1	1.160837	1.160837	0	1	0	0	CorrectCommission	0.017557	0.677114	1	0	4.879412e+01
198.620941	1.292825	city	9	1	1.156849	1.156849	0	1	0	0	CorrectCommission	0.038487	0.669264	1	0	4.994118e+01
200.047073	1.559440	city	8	1	1.052313	1.052313	0	1	0	0	CorrectCommission	0.587064	0.668484	1	0	5.108824e+01
201.466629	1.279670	mountain	8	0	0.000000	1.204194	1	0	0	0	CorrectOmission	0.209966	0.673857	1	0	5.223529e+01
202.746246	1.279548	city	4	1	1.301294	1.301294	0	1	0	0	CorrectCommission	0.719522	0.683666	1	0	5.338235e+01
204.039124	1.306224	city	6	1	1.032416	1.032416	0	1	0	0	CorrectCommission	0.691477	0.695592	1	0	5.452941e+01
205.332077	1.279681	city	9	1	1.074270	1.074270	0	1	0	0	CorrectCommission	0.471836	0.707090	1	0	5.567647e+01
206.645035	1.346232	city	3	1	1.248165	1.248165	0	1	0	0	CorrectCommission	0.440715	0.715744	1	0	5.682353e+01
207.957886	1.279469	city	1	1	1.628853	1.628853	0	1	0	0	CorrectCommission	2.438465	0.719633	1	0	5.797059e+01
209.244049	1.292854	city	10	1	1.457311	1.457311	0	1	0	0	CorrectCommission	1.538258	0.717554	1	0	5.911765e+01
210.543610	1.306274	city	9	1	1.327546	1.327546	0	1	0	0	CorrectCommission	0.857284	0.709306	1	0	6.026471e+01
211.849915	1.306343	city	5	1	1.082471	1.082471	0	1	0	0	CorrectCommission	0.428804	0.695539	1	0	6.141176e+01
213.156204	1.306232	city	3	1	1.108925	1.108925	0	1	0	0	CorrectCommission	0.289981	0.677563	1	0	6.255882e+01
214.462402	1.306144	city	5	1	1.156658	1.156658	0	1	0	0	CorrectCommission	0.039487	0.657133	1	0	6.370588e+01
215.755219	1.279516	city	1	1	1.246443	1.246443	0	1	0	0	CorrectCommission	0.431678	0.636131	1	0	6.485294e+01
219.414001	6.038035	break	0	1	1.228664	1.228664	0	0	0	0	ThoughtProbe	0.338380	0.616295	1	66	66
223.079453	1.292877	city	6	1	1.435047	1.435047	0	1	0	0	CorrectCommission	1.421421	0.599056	1	0	6.657500e+01
224.374084	1.296386	city	5	1	1.244483	1.244483	0	1	0	0	CorrectCommission	0.421395	0.585433	1	0	6.715000e+01
225.673706	1.302836	city	2	1	1.276884	1.276884	0	1	0	0	CorrectCommission	0.591422	0.576054	1	0	6.772500e+01
226.978287	1.306327	city	8	1	1.096511	1.096511	0	1	0	0	CorrectCommission	0.355122	0.571132	1	0	6.830000e+01
228.271240	1.279598	mountain	9	0	0.000000	1.153226	1	0	0	0	CorrectOmission	0.057498	0.570567	1	0	6.887500e+01
229.550873	1.279662	city	3	1	1.298858	1.298858	0	1	0	0	CorrectCommission	0.706737	0.573974	1	0	6.945000e+01
230.837097	1.292799	city	4	1	1.385236	1.385236	0	1	0	0	CorrectCommission	1.160025	0.580717	1	0	7.002500e+01
232.136658	1.306304	city	2	1	1.226210	1.226210	0	1	0	0	CorrectCommission	0.325501	0.589960	1	0	7.060000e+01
233.429489	1.279355	city	8	1	1.142771	1.142771	0	1	0	0	CorrectCommission	0.112364	0.600711	1	0	7.117500e+01
234.728958	1.319596	city	7	1	0.996665	0.996665	0	1	0	0	CorrectCommission	0.879087	0.611863	1	0	7.175000e+01
236.035278	1.293037	mountain	3	0	0.000000	1.157462	1	0	0	0	CorrectOmission	0.035270	0.622258	1	0	7.232500e+01
237.321503	1.279422	city	2	1	1.345908	1.345908	0	1	0	0	CorrectCommission	0.953643	0.630799	1	0	7.290000e+01
238.614334	1.306239	city	4	1	1.282750	1.282750	0	1	0	0	CorrectCommission	0.622207	0.636587	1	0	7.347500e+01
239.913849	1.292771	city	8	1	1.409081	1.409081	0	1	0	0	CorrectCommission	1.285157	0.639069	1	0	7.405000e+01
241.213425	1.306380	city	9	1	1.443484	1.443484	0	1	0	0	CorrectCommission	1.465698	0.638090	1	0	7.462500e+01
242.539810	1.346396	city	4	1	1.168195	1.168195	0	1	0	0	CorrectCommission	0.021055	0.634005	1	0	7.520000e+01
243.852798	1.279584	city	6	1	1.046963	1.046963	0	1	0	0	CorrectCommission	0.615138	0.627708	1	0	7.577500e+01
245.132370	1.279556	city	5	1	1.298539	1.298539	0	1	0	0	CorrectCommission	0.705066	0.620480	1	0	7.635000e+01
246.431870	1.319464	city	9	1	1.080606	1.080606	0	1	0	0	CorrectCommission	0.438587	0.613908	1	0	7.692500e+01
247.764679	1.346148	city	1	1	1.140965	1.140965	0	1	0	0	CorrectCommission	0.121840	0.609701	1	0	7.750000e+01
249.077560	1.279597	city	7	1	1.330575	1.330575	0	1	0	0	CorrectCommission	0.873180	0.609463	1	0	7.807500e+01
250.377197	1.319686	city	8	1	1.115766	1.115766	0	1	0	0	CorrectCommission	0.254077	0.614532	1	0	7.865000e+01
251.676788	1.279500	city	2	1	1.396446	1.396446	0	1	0	0	CorrectCommission	1.218852	0.625828	1	0	7.922500e+01
252.963074	1.293063	city	1	1	1.259381	1.259381	0	1	0	0	CorrectCommission	0.499576	0.643677	1	0	7.980000e+01
254.262634	1.306075	city	5	1	1.207568	1.207568	0	1	0	0	CorrectCommission	0.227673	0.667807	1	0	8.037500e+01
255.568832	1.306308	city	6	1	1.196125	1.196125	0	1	0	0	CorrectCommission	0.167623	0.697289	1	0	8.095000e+01
256.861786	1.279630	city	3	1	1.210332	1.210332	0	1	0	0	CorrectCommission	0.242176	0.730624	1	0	8.152500e+01
258.148071	1.292911	mountain	3	1	1.083793	1.083793	0	0	1	0	CommissionError	0.421864	0.765906	0	0	8.210000e+01
259.440979	1.292919	city	7	1	1.372144	1.372144	0	1	0	0	CorrectCommission	1.091321	0.801020	0	0	8.267500e+01
260.727264	1.279640	city	6	1	1.584303	1.584303	0	1	0	0	CorrectCommission	2.204677	0.833929	0	0	8.325000e+01
262.020172	1.306188	city	8	0	0.000000	1.196287	0	0	0	1	OmissionError	0.168473	0.862877	0	0	8.382500e+01
263.319733	1.292907	city	6	1	0.785753	0.785753	0	1	0	0	CorrectCommission	1.985897	0.886619	0	0	8.440000e+01
264.605957	1.279558	city	8	1	0.930360	0.930360	0	1	0	0	CorrectCommission	1.227038	0.904382	0	0	8.497500e+01
265.892212	1.292931	city	2	1	0.923641	0.923641	0	1	0	0	CorrectCommission	1.262296	0.915892	0	0	8.555000e+01
267.185028	1.292718	city	7	1	1.175684	1.175684	0	1	0	0	CorrectCommission	0.060353	0.921221	0	0	8.612500e+01
268.511200	1.359607	city	2	1	1.185707	1.185707	0	1	0	0	CorrectCommission	0.112951	0.920654	0	0	8.670000e+01
269.837463	1.292953	city	6	1	1.052126	1.052126	0	1	0	0	CorrectCommission	0.588042	0.914541	0	0	8.727500e+01
271.130432	1.292989	city	8	1	0.871048	0.871048	0	1	0	0	CorrectCommission	1.538294	0.903310	0	0	8.785000e+01
272.416748	1.279599	city	2	1	0.828315	0.828315	0	1	0	0	CorrectCommission	1.762542	0.887467	0	0	8.842500e+01
276.528625	6.944204	break	0	0	0.000000	1.074044	0	0	0	0	ThoughtProbe	0.473027	0.867701	0	89	89
280.647278	1.293072	city	6	1	1.377336	1.377336	0	1	0	0	CorrectCommission	1.118569	0.845039	0	0	8.891304e+01
281.933594	1.279560	city	1	1	1.507296	1.507296	0	1	0	0	CorrectCommission	1.800564	0.820820	0	0	8.882609e+01
283.239807	1.332900	city	3	1	1.235099	1.235099	0	1	0	0	CorrectCommission	0.372146	0.796690	0	0	8.873913e+01
284.585999	1.359459	city	4	1	1.288423	1.288423	0	1	0	0	CorrectCommission	0.651978	0.774543	0	0	8.865217e+01
285.912231	1.293023	city	8	1	1.099240	1.099240	0	1	0	0	CorrectCommission	0.340801	0.756217	0	0	8.856522e+01
287.205200	1.292880	city	9	1	1.204950	1.204950	0	1	0	0	CorrectCommission	0.213935	0.743312	0	0	8.847826e+01
288.511414	1.319565	city	3	1	1.004880	1.004880	0	1	0	0	CorrectCommission	0.835980	0.736947	1	0	8.839130e+01
289.817657	1.292906	mountain	8	0	0.000000	1.152016	1	0	0	0	CorrectOmission	0.063850	0.737577	1	0	8.830435e+01
291.110413	1.292653	city	9	1	1.297746	1.297746	0	1	0	0	CorrectCommission	0.700902	0.744952	0	0	8.821739e+01
292.396667	1.279837	city	2	1	1.093458	1.093458	0	1	0	0	CorrectCommission	0.371147	0.758121	0	0	8.813043e+01
293.676300	1.279421	city	5	1	1.308698	1.308698	0	1	0	0	CorrectCommission	0.758378	0.775606	0	0	8.804348e+01
294.962555	1.293063	city	8	1	1.494593	1.494593	0	1	0	0	CorrectCommission	1.733902	0.795540	0	0	8.795652e+01
296.275513	1.332897	city	7	1	1.391001	1.391001	0	1	0	0	CorrectCommission	1.190280	0.815930	0	0	8.786957e+01
297.588440	1.292910	city	4	1	1.364298	1.364298	0	1	0	0	CorrectCommission	1.050152	0.834807	0	0	8.778261e+01
298.894592	1.319403	city	8	1	1.130825	1.130825	0	1	0	0	CorrectCommission	0.175053	0.850394	0	0	8.769565e+01
300.200745	1.292945	mountain	6	0	0.000000	1.201938	1	0	0	0	CorrectOmission	0.198130	0.861222	0	0	8.760870e+01
301.487061	1.279668	mountain	3	0	0.000000	1.383404	1	0	0	0	CorrectOmission	1.150413	0.866182	0	0	8.752174e+01
302.766724	1.279634	city	3	1	1.480988	1.480988	0	1	0	0	CorrectCommission	1.662507	0.864579	0	0	8.743478e+01
304.046326	1.279561	city	10	1	1.300456	1.300456	0	1	0	0	CorrectCommission	0.715124	0.856218	0	0	8.734783e+01
305.332489	1.292769	city	9	1	1.425112	1.425112	0	1	0	0	CorrectCommission	1.369285	0.841446	0	0	8.726087e+01
306.618713	1.279713	city	10	1	1.388277	1.388277	0	1	0	0	CorrectCommission	1.175983	0.821081	0	0	8.717391e+01
307.924957	1.332739	city	1	1	1.335636	1.335636	0	1	0	0	CorrectCommission	0.899742	0.796452	0	0	8.708696e+01
309.237823	1.293008	city	10	1	1.245139	1.245139	0	1	0	0	CorrectCommission	0.424834	0.769256	0	0	87
310.550781	1.332911	city	2	1	1.027542	1.027542	0	1	0	0	CorrectCommission	0.717053	0.741399	0	0	8.691304e+01
311.876953	1.319445	city	3	1	1.224731	1.224731	0	1	0	0	CorrectCommission	0.317739	0.714837	1	0	8.682609e+01
313.183136	1.292916	city	10	1	1.301770	1.301770	0	1	0	0	CorrectCommission	0.722018	0.691390	1	0	8.673913e+01
314.476044	1.292920	city	6	1	1.335327	1.335327	0	1	0	0	CorrectCommission	0.898115	0.672545	1	0	8.665217e+01
315.788971	1.332889	city	7	1	1.188817	1.188817	0	1	0	0	CorrectCommission	0.129275	0.659345	1	0	8.656522e+01
317.101929	1.293069	city	3	1	1.228418	1.228418	0	1	0	0	CorrectCommission	0.337088	0.652298	1	0	8.647826e+01
318.394836	1.292748	city	9	1	1.038651	1.038651	0	1	0	0	CorrectCommission	0.658756	0.651317	1	0	8.639130e+01
319.701050	1.319634	mountain	10	1	1.030946	1.030946	0	0	1	0	CommissionError	0.699194	0.655728	1	0	8.630435e+01
321.007355	1.293004	city	9	1	1.320429	1.320429	0	1	0	0	CorrectCommission	0.819939	0.664347	1	0	8.621739e+01
322.320221	1.332730	city	1	1	1.218116	1.218116	0	1	0	0	CorrectCommission	0.283026	0.675549	1	0	8.613043e+01
323.646454	1.319714	city	6	1	1.279807	1.279807	0	1	0	0	CorrectCommission	0.606765	0.687417	1	0	8.604348e+01
324.952667	1.292755	city	8	1	0.927667	0.927667	0	1	0	0	CorrectCommission	1.241172	0.697862	1	0	8.595652e+01
326.252167	1.306252	city	6	1	1.071779	1.071779	0	1	0	0	CorrectCommission	0.484909	0.704836	1	0	8.586957e+01
327.565094	1.319569	city	1	1	1.116568	1.116568	0	1	0	0	CorrectCommission	0.249869	0.706554	1	0	8.578261e+01
328.871338	1.292935	city	3	1	1.384033	1.384033	0	1	0	0	CorrectCommission	1.153716	0.701660	1	0	8.569565e+01
330.157654	1.279710	city	1	1	1.468547	1.468547	0	1	0	0	CorrectCommission	1.597220	0.689381	1	0	8.560870e+01
331.463837	1.332623	city	9	1	1.311387	1.311387	0	1	0	0	CorrectCommission	0.772489	0.669667	1	0	8.552174e+01
332.770020	1.279771	city	3	1	1.306572	1.306572	0	1	0	0	CorrectCommission	0.747218	0.643319	1	0	8.543478e+01
334.056396	1.292988	city	5	1	1.311725	1.311725	0	1	0	0	CorrectCommission	0.774261	0.611869	1	0	8.534783e+01
335.362732	1.319629	city	1	1	1.291811	1.291811	0	1	0	0	CorrectCommission	0.669755	0.577491	1	0	8.526087e+01
336.662201	1.279333	city	8	1	1.204047	1.204047	0	1	0	0	CorrectCommission	0.209198	0.542793	1	0	8.517391e+01
337.955078	1.306402	city	4	1	1.060708	1.060708	0	1	0	0	CorrectCommission	0.543007	0.510536	1	0	8.508696e+01
341.454010	5.691480	break	0	0	0.000000	1.137980	0	0	0	0	ThoughtProbe	0.137505	0.483291	1	85	85
344.939514	1.279553	city	9	1	1.228300	1.228300	0	1	0	0	CorrectCommission	0.336469	0.463182	1	0	8.311765e+01
346.219025	1.279471	city	4	1	1.124104	1.124104	0	1	0	0	CorrectCommission	0.210324	0.451589	1	0	8.123529e+01
347.498627	1.279691	mountain	3	0	0.000000	1.160455	1	0	0	0	CorrectOmission	0.019562	0.449014	1	0	7.935294e+01
348.778259	1.279581	city	9	1	1.191383	1.191383	0	1	0	0	CorrectCommission	0.142739	0.455089	1	0	7.747059e+01
350.057831	1.279577	city	1	1	1.070917	1.070917	0	1	0	0	CorrectCommission	0.489435	0.468513	1	0	7.558824e+01
351.337402	1.279581	city	2	1	1.134324	1.134324	0	1	0	0	CorrectCommission	0.156690	0.487323	1	0	7.370588e+01
352.617004	1.279580	city	9	1	0.984082	0.984082	0	1	0	0	CorrectCommission	0.945122	0.509234	1	0	7.182353e+01
353.896576	1.279597	city	8	1	1.156283	1.156283	0	1	0	0	CorrectCommission	0.041456	0.531987	1	0	6.994118e+01
355.176178	1.279585	city	5	1	1.017356	1.017356	0	1	0	0	CorrectCommission	0.770507	0.553798	1	0	6.805882e+01
356.455688	1.279457	city	4	1	0.993432	0.993432	0	1	0	0	CorrectCommission	0.896056	0.573646	1	0	6.617647e+01
357.735260	1.279699	city	3	1	0.910944	0.910944	0	1	0	0	CorrectCommission	1.328929	0.591560	1	0	6.429412e+01
359.014832	1.279416	city	10	1	0.910965	0.910965	0	1	0	0	CorrectCommission	1.328821	0.608605	1	0	6.241176e+01
360.294312	1.279565	city	4	1	1.231025	1.231025	0	1	0	0	CorrectCommission	0.350767	0.626738	1	0	6.052941e+01
361.573975	1.279749	city	3	1	1.262474	1.262474	0	1	0	0	CorrectCommission	0.515806	0.648436	1	0	5.864706e+01
362.853699	1.279698	city	1	1	1.124217	1.124217	0	1	0	0	CorrectCommission	0.209732	0.676106	1	0	5.676471e+01
364.133209	1.279305	city	3	1	1.228920	1.228920	0	1	0	0	CorrectCommission	0.339723	0.711560	1	0	5.488235e+01
365.412659	1.279607	city	9	1	1.071070	1.071070	0	1	0	0	CorrectCommission	0.488634	0.755432	0	0	53
366.692322	1.279711	city	7	1	1.124165	1.124165	0	1	0	0	CorrectCommission	0.210005	0.806803	0	0	5.111765e+01
367.971954	1.279581	mountain	8	0	0.000000	1.155578	1	0	0	0	CorrectOmission	0.045154	0.863100	0	0	4.923529e+01
369.258118	1.292718	city	9	1	1.162578	1.162578	0	1	0	0	CorrectCommission	0.008420	0.920301	0	0	4.735294e+01
370.544342	1.279765	city	10	1	1.142432	1.142432	0	1	0	0	CorrectCommission	0.114142	0.973446	0	0	4.547059e+01
371.823944	1.279445	city	4	1	1.456458	1.456458	0	1	0	0	CorrectCommission	1.533782	1.017370	0	0	4.358824e+01
373.103546	1.279708	city	10	1	2.244020	2.244020	0	1	0	0	CorrectCommission	5.666692	1.047478	0	0	4.170588e+01
374.383087	1.279412	city	6	1	1.497273	1.497273	0	1	0	0	CorrectCommission	1.747968	1.060436	0	0	3.982353e+01
375.662659	1.279733	city	9	1	1.026199	1.026199	0	1	0	0	CorrectCommission	0.724103	1.054887	0	0	3.794118e+01
376.942322	1.279597	city	1	1	0.995235	0.995235	0	1	0	0	CorrectCommission	0.886592	1.031415	0	0	3.605882e+01
378.221893	1.279559	city	3	1	0.916223	0.916223	0	1	0	0	CorrectCommission	1.301227	0.992405	0	0	3.417647e+01
379.508087	1.292772	city	6	1	1.137302	1.137302	0	1	0	0	CorrectCommission	0.141062	0.941717	0	0	3.229412e+01
380.794342	1.279737	city	3	1	1.183011	1.183011	0	1	0	0	CorrectCommission	0.098804	0.884104	0	0	3.041176e+01
382.073914	1.279421	city	9	1	1.498011	1.498011	0	1	0	0	CorrectCommission	1.751841	0.824582	0	0	2.852941e+01
383.353485	1.279714	city	3	1	1.289988	1.289988	0	1	0	0	CorrectCommission	0.660189	0.767864	0	0	2.664706e+01
384.633118	1.279602	city	8	1	1.178408	1.178408	0	1	0	0	CorrectCommission	0.074652	0.718043	1	0	2.476471e+01
385.912720	1.279586	city	5	1	1.017599	1.017599	0	1	0	0	CorrectCommission	0.769234	0.678247	1	0	2.288235e+01
390.217896	7.330736	break	0	1	1.182662	1.182662	0	0	0	0	ThoughtProbe	0.096974	0.650511	1	21	21
394.523132	1.279739	mountain	10	0	0.000000	1.252609	1	0	0	0	CorrectOmission	0.464036	0.635800	1	0	2.117391e+01
395.816040	1.306094	city	7	1	1.262331	1.262331	0	1	0	0	CorrectCommission	0.515054	0.633999	1	0	2.134783e+01
397.115662	1.293125	city	4	1	1.246720	1.246720	0	1	0	0	CorrectCommission	0.433132	0.644062	1	0	2.152174e+01
398.415253	1.306067	city	8	1	1.124595	1.124595	0	1	0	0	CorrectCommission	0.207745	0.664156	1	0	2.169565e+01
399.708130	1.279700	mountain	7	0	0.000000	1.230555	1	0	0	0	CorrectOmission	0.348301	0.691817	1	0	2.186957e+01
401.001099	1.306232	city	2	1	1.374356	1.374356	0	1	0	0	CorrectCommission	1.102929	0.724155	1	0	2.204348e+01
402.333984	1.359522	city	7	1	1.365755	1.365755	0	1	0	0	CorrectCommission	1.057795	0.758037	0	0	2.221739e+01
403.680115	1.332739	city	5	1	1.306675	1.306675	0	1	0	0	CorrectCommission	0.747757	0.790332	0	0	2.239130e+01
404.993011	1.293094	city	9	1	1.041507	1.041507	0	1	0	0	CorrectCommission	0.643771	0.818097	0	0	2.256522e+01
406.292633	1.306132	city	7	1	0.930382	0.930382	0	1	0	0	CorrectCommission	1.226923	0.838792	0	0	2.273913e+01
407.605438	1.319487	city	1	1	0.861837	0.861837	0	1	0	0	CorrectCommission	1.586632	0.850390	0	0	2.291304e+01
408.911652	1.292910	city	6	1	1.159085	1.159085	0	1	0	0	CorrectCommission	0.026754	0.851661	0	0	2.308696e+01
410.197906	1.279651	mountain	2	0	0.000000	1.416702	1	0	0	0	CorrectOmission	1.325153	0.842292	0	0	2.326087e+01
411.477600	1.279709	city	8	1	1.515956	1.515956	0	1	0	0	CorrectCommission	1.846008	0.822823	0	0	2.343478e+01
412.770569	1.306218	city	6	1	1.338111	1.338111	0	1	0	0	CorrectCommission	0.912728	0.794687	0	0	2.360870e+01
414.076752	1.306145	city	4	1	1.343336	1.343336	0	1	0	0	CorrectCommission	0.940148	0.760115	0	0	2.378261e+01
415.382996	1.306329	city	9	1	1.014972	1.014972	0	1	0	0	CorrectCommission	0.783019	0.721916	1	0	2.395652e+01
416.682495	1.292718	city	2	1	1.155677	1.155677	0	1	0	0	CorrectCommission	0.044636	0.683202	1	0	2.413043e+01
417.968719	1.279731	city	8	1	1.289996	1.289996	0	1	0	0	CorrectCommission	0.660234	0.647150	1	0	2.430435e+01
419.274963	1.332745	city	3	1	1.218436	1.218436	0	1	0	0	CorrectCommission	0.284704	0.616698	1	0	2.447826e+01
420.594513	1.306360	city	2	1	1.141982	1.141982	0	1	0	0	CorrectCommission	0.116502	0.594342	1	0	2.465217e+01
421.927521	1.359614	city	3	1	1.118655	1.118655	0	1	0	0	CorrectCommission	0.238918	0.581940	1	0	2.482609e+01
423.253784	1.292912	city	10	1	0.986450	0.986450	0	1	0	0	CorrectCommission	0.932695	0.580609	1	0	25
424.553345	1.306210	city	2	1	1.215494	1.215494	0	1	0	0	CorrectCommission	0.269266	0.590653	1	0	2.517391e+01
425.846161	1.279418	city	5	1	1.261259	1.261259	0	1	0	0	CorrectCommission	0.509430	0.611589	1	0	2.534783e+01
427.152313	1.332896	city	6	1	1.256506	1.256506	0	1	0	0	CorrectCommission	0.484488	0.642143	1	0	2.552174e+01
428.491882	1.346276	city	10	1	1.029343	1.029343	0	1	0	0	CorrectCommission	0.707606	0.680341	1	0	2.569565e+01
429.818085	1.306122	city	9	1	1.092129	1.092129	0	1	0	0	CorrectCommission	0.378119	0.723544	1	0	2.586957e+01
431.117706	1.293133	city	6	1	1.076701	1.076701	0	1	0	0	CorrectCommission	0.459082	0.768647	0	0	2.604348e+01
432.417419	1.306252	city	7	1	1.337939	1.337939	0	1	0	0	CorrectCommission	0.911822	0.812285	0	0	2.621739e+01
433.750275	1.359451	city	4	1	1.229079	1.229079	0	1	0	0	CorrectCommission	0.340555	0.851121	0	0	2.639130e+01
435.089752	1.319514	city	10	1	0.906783	0.906783	0	1	0	0	CorrectCommission	1.350764	0.882189	0	0	2.656522e+01
436.389374	1.279751	city	6	1	1.524659	1.524659	0	1	0	0	CorrectCommission	1.891681	0.903154	0	0	2.673913e+01
437.689026	1.319532	mountain	4	0	0.000000	1.519705	1	0	0	0	CorrectOmission	1.865684	0.912683	0	0	2.691304e+01
439.001831	1.306075	city	5	1	1.336224	1.336224	0	1	0	0	CorrectCommission	0.902826	0.910538	0	0	2.708696e+01
440.308044	1.306401	city	3	1	1.418520	1.418520	0	1	0	0	CorrectCommission	1.334693	0.897615	0	0	2.726087e+01
441.601044	1.279597	city	6	1	1.404536	1.404536	0	1	0	0	CorrectCommission	1.261308	0.875776	0	0	2.743478e+01
442.887299	1.292894	city	8	1	1.105787	1.105787	0	1	0	0	CorrectCommission	0.306447	0.847613	0	0	2.760870e+01
444.186798	1.306095	city	5	1	1.125796	1.125796	0	1	0	0	CorrectCommission	0.201444	0.816082	0	0	2.778261e+01
445.486298	1.292877	city	6	1	1.364943	1.364943	0	1	0	0	CorrectCommission	1.053533	0.784167	0	0	2.795652e+01
446.792603	1.319758	city	1	1	1.222427	1.222427	0	1	0	0	CorrectCommission	0.305651	0.754546	0	0	2.813043e+01
448.112183	1.319379	city	3	1	1.031892	1.031892	0	1	0	0	CorrectCommission	0.694226	0.729538	1	0	2.830435e+01
449.425018	1.306332	city	1	1	1.242417	1.242417	0	1	0	0	CorrectCommission	0.410549	0.710959	1	0	2.847826e+01
450.737976	1.319582	city	8	1	1.188029	1.188029	0	1	0	0	CorrectCommission	0.125138	0.700275	1	0	2.865217e+01
452.050934	1.306307	city	6	1	1.046501	1.046501	0	1	0	0	CorrectCommission	0.617562	0.698675	1	0	2.882609e+01
456.542725	7.677311	break	0	1	0.752457	0.752457	0	0	0	0	ThoughtProbe	2.160624	0.707214	1	29	29
461.021271	1.279740	city	3	1	1.285173	1.285173	0	1	0	0	CorrectCommission	0.634922	0.726834	1	0	2.882500e+01
462.320892	1.319547	city	10	1	1.141132	1.141132	0	1	0	0	CorrectCommission	0.120965	0.758410	0	0	2.865000e+01
463.620453	1.279578	mountain	6	0	0.000000	1.191163	1	0	0	0	CorrectOmission	0.141584	0.802500	0	0	2.847500e+01
464.906738	1.292984	mountain	8	0	0.000000	1.298546	1	0	0	0	CorrectOmission	0.705102	0.859098	0	0	2.830000e+01
466.192963	1.279452	city	9	1	1.326562	1.326562	0	1	0	0	CorrectCommission	0.852121	0.927419	0	0	2.812500e+01
467.492523	1.319645	city	2	1	1.138490	1.138490	0	1	0	0	CorrectCommission	0.134828	1.005676	0	0	2.795000e+01
468.825439	1.346200	city	9	1	1.003214	1.003214	0	1	0	0	CorrectCommission	0.844720	1.091030	0	0	2.777500e+01
470.138245	1.279411	city	5	1	1.021298	1.021298	0	1	0	0	CorrectCommission	0.749821	1.179687	0	0	2.760000e+01
471.444397	1.332894	city	9	1	0.949697	0.949697	0	1	0	0	CorrectCommission	1.125563	1.267275	0	0	2.742500e+01
472.770691	1.319689	city	2	1	0.884087	0.884087	0	1	0	0	CorrectCommission	1.469868	1.349287	0	0	2.725000e+01
474.070251	1.279457	city	5	1	0.627974	0.627974	0	1	0	0	CorrectCommission	2.813878	1.421662	0	0	2.707500e+01
475.356537	1.293087	city	8	1	0.718583	0.718583	0	1	0	0	CorrectCommission	2.338388	1.481241	0	0	2.690000e+01
476.649536	1.292899	city	7	1	0.711726	0.711726	0	1	0	0	CorrectCommission	2.374370	1.526143	0	0	2.672500e+01
477.955688	1.319399	city	2	1	0.890914	0.890914	0	1	0	0	CorrectCommission	1.434040	1.555891	0	0	2.655000e+01
479.275238	1.319748	city	1	1	0.688780	0.688780	0	1	0	0	CorrectCommission	2.494785	1.571302	0	0	2.637500e+01
480.588226	1.306192	city	10	1	0.978307	0.978307	0	1	0	0	CorrectCommission	0.975427	1.574062	0	0	2.620000e+01
481.881042	1.279442	city	5	1	0.830590	0.830590	0	1	0	0	CorrectCommission	1.750605	1.566388	0	0	2.602500e+01
483.173950	1.306402	city	1	1	0.931269	0.931269	0	1	0	0	CorrectCommission	1.222270	1.550360	0	0	2.585000e+01
484.480194	1.306076	city	5	1	0.990393	0.990393	0	1	0	0	CorrectCommission	0.912000	1.527590	0	0	2.567500e+01
485.806427	1.346396	city	3	1	1.039633	1.039633	0	1	0	0	CorrectCommission	0.653603	1.498971	0	0	2.550000e+01
487.152740	1.346213	city	7	1	0.919641	0.919641	0	1	0	0	CorrectCommission	1.283290	1.464711	0	0	2.532500e+01
488.498871	1.346082	city	2	1	0.766028	0.766028	0	1	0	0	CorrectCommission	2.089407	1.424553	0	0	2.515000e+01
489.831696	1.319542	city	6	1	0.901497	0.901497	0	1	0	0	CorrectCommission	1.378506	1.378238	0	0	2.497500e+01
491.144653	1.306402	city	4	1	1.782951	1.782951	0	1	0	0	CorrectCommission	3.247126	1.325988	0	0	2.480000e+01
492.477631	1.359548	city	3	1	1.747592	1.747592	0	1	0	0	CorrectCommission	3.061573	1.268827	0	0	2.462500e+01
493.830536	1.346253	city	9	1	1.103616	1.103616	0	1	0	0	CorrectCommission	0.317840	1.208930	0	0	2.445000e+01
495.150116	1.292904	city	3	1	1.145494	1.145494	0	1	0	0	CorrectCommission	0.098074	1.149651	0	0	2.427500e+01
496.462982	1.332802	city	1	1	1.107178	1.107178	0	1	0	0	CorrectCommission	0.299148	1.095305	0	0	2.410000e+01
497.769226	1.279671	mountain	2	0	0.000000	1.216882	1	0	0	0	CorrectOmission	0.276551	1.050868	0	0	2.392500e+01
499.062073	1.306075	city	8	1	1.389417	1.389417	0	1	0	0	CorrectCommission	1.181965	1.021585	0	0	2.375000e+01
500.361664	1.293065	city	3	1	1.539591	1.539591	0	1	0	0	CorrectCommission	1.970037	1.012540	0	0	2.357500e+01
501.674530	1.332715	city	5	1	1.231665	1.231665	0	1	0	0	CorrectCommission	0.354129	1.028249	0	0	2.340000e+01
502.980774	1.279743	city	4	0	0.000000	1.196295	0	0	0	1	OmissionError	0.168513	1.072285	0	0	2.322500e+01
504.280426	1.319554	city	5	1	1.233438	1.233438	0	1	0	0	CorrectCommission	0.363434	1.146893	0	0	2.305000e+01
505.599915	1.319424	city	3	1	1.143057	1.143057	0	1	0	0	CorrectCommission	0.110863	1.252716	0	0	2.287500e+01
506.906158	1.293081	city	5	1	0.869775	0.869775	0	1	0	0	CorrectCommission	1.544972	1.388585	0	0	2.270000e+01
508.212402	1.319410	city	1	1	0.938332	0.938332	0	1	0	0	CorrectCommission	1.185202	1.551397	0	0	2.252500e+01
509.525299	1.306375	city	2	1	1.049853	1.049853	0	1	0	0	CorrectCommission	0.599974	1.736332	0	0	2.235000e+01
510.831604	1.306254	city	3	1	1.311467	1.311467	0	1	0	0	CorrectCommission	0.772907	1.936978	0	0	2.217500e+01
511.484741	8.357161	break	0	0	0.000000	1.573082	0	0	0	0	ThoughtProbe	2.145789	2.145789	0	22	22
