onset	duration	trial_type	image_type	Press	ReactionTime	ReactionTime_Interpolated	CorrectOmission	CorrectCommission	CommissionError	OmissionError	response_type	nonsmoothVarianceTimeCourse	VarianceTimeCourse	In_the_Zone	ThoughtProbe	ThoughtProbe_Interpolated
0.653100	1.279553	city	7	1	1.766233	1.766233	0	1	0	0	CorrectCommission	1.821813	1.821813	0	0	88
1.932676	1.279598	city	3	1	1.298666	1.298666	0	1	0	0	CorrectCommission	0.540494	1.728770	0	0	88
3.212265	1.279581	city	6	1	1.255005	1.255005	0	1	0	0	CorrectCommission	0.761082	1.642582	0	0	88
4.491831	1.279551	mountain	2	0	0.000000	1.338856	1	0	0	0	CorrectOmission	0.337442	1.569204	0	0	88
5.771959	1.280705	city	3	1	1.390817	1.390817	0	1	0	0	CorrectCommission	0.074916	1.512979	0	0	88
7.051517	1.278410	city	1	1	1.251490	1.251490	0	1	0	0	CorrectCommission	0.778843	1.476139	0	0	88
8.330552	1.279661	city	10	1	0.963978	0.963978	0	1	0	0	CorrectCommission	2.231449	1.458714	0	0	88
9.610153	1.279540	city	5	1	1.127379	1.127379	0	1	0	0	CorrectCommission	1.405896	1.458670	0	0	88
10.889712	1.279578	city	2	1	1.015749	1.015749	0	1	0	0	CorrectCommission	1.969886	1.472457	0	0	88
12.169302	1.279601	city	5	1	1.187578	1.187578	0	1	0	0	CorrectCommission	1.101749	1.495451	0	0	88
13.448895	1.279584	city	4	1	1.177475	1.177475	0	1	0	0	CorrectCommission	1.152791	1.522623	0	0	88
14.728475	1.279577	city	9	1	1.134984	1.134984	0	1	0	0	CorrectCommission	1.367472	1.549008	0	0	88
16.014715	1.292902	mountain	1	0	0.000000	0.969018	1	0	0	0	CorrectOmission	2.205985	1.570176	0	0	88
17.300928	1.279524	city	10	1	0.854934	0.854934	0	1	0	0	CorrectCommission	2.782379	1.582540	0	0	88
18.580509	1.279638	city	3	1	0.968085	0.968085	0	1	0	0	CorrectCommission	2.210702	1.583568	0	0	88
19.860111	1.279568	city	4	1	1.287579	1.287579	0	1	0	0	CorrectCommission	0.596508	1.571834	0	0	88
21.146358	1.292927	city	7	1	1.085175	1.085175	0	1	0	0	CorrectCommission	1.619124	1.546992	0	0	88
22.432596	1.279550	city	6	1	1.125019	1.125019	0	1	0	0	CorrectCommission	1.417816	1.509616	0	0	88
23.712160	1.279578	city	1	1	0.974447	0.974447	0	1	0	0	CorrectCommission	2.178556	1.461141	0	0	88
24.991739	1.279581	mountain	10	1	0.983211	0.983211	0	0	1	0	CommissionError	2.134278	1.403653	0	0	88
26.271334	1.279606	city	2	1	1.128316	1.128316	0	1	0	0	CorrectCommission	1.401159	1.339742	0	0	88
27.550920	1.279567	city	4	1	1.237903	1.237903	0	1	0	0	CorrectCommission	0.847488	1.272254	0	0	88
28.837080	1.292753	city	9	1	1.104947	1.104947	0	1	0	0	CorrectCommission	1.519228	1.204033	0	0	88
30.123247	1.279581	city	10	1	1.125035	1.125035	0	1	0	0	CorrectCommission	1.417735	1.137649	0	0	88
31.409571	1.293066	city	7	1	1.438782	1.438782	0	1	0	0	CorrectCommission	0.167419	1.075164	0	0	88
32.702477	1.292748	city	5	1	1.355484	1.355484	0	1	0	0	CorrectCommission	0.253430	1.017964	0	0	88
33.995373	1.293038	city	7	1	1.421333	1.421333	0	1	0	0	CorrectCommission	0.079260	0.966639	0	0	88
35.281620	1.279457	city	4	1	1.138504	1.138504	0	1	0	0	CorrectCommission	1.349688	0.921046	0	0	88
36.561214	1.279732	city	6	1	1.194498	1.194498	0	1	0	0	CorrectCommission	1.066786	0.880417	0	0	88
37.840866	1.279571	city	5	1	1.791247	1.791247	0	1	0	0	CorrectCommission	1.948191	0.843688	0	0	88
39.127094	1.292891	city	9	1	1.583866	1.583866	0	1	0	0	CorrectCommission	0.900434	0.809655	0	0	88
40.420010	1.292937	city	8	1	1.409748	1.409748	0	1	0	0	CorrectCommission	0.020728	0.777318	0	0	88
41.712894	1.292830	city	7	1	1.476421	1.476421	0	1	0	0	CorrectCommission	0.357583	0.745942	1	0	88
43.012371	1.306126	city	2	1	1.596788	1.596788	0	1	0	0	CorrectCommission	0.965722	0.715150	1	0	88
44.331898	1.332925	city	9	1	1.737864	1.737864	0	1	0	0	CorrectCommission	1.678484	0.684932	1	0	88
45.664898	1.333075	city	2	1	1.419358	1.419358	0	1	0	0	CorrectCommission	0.069281	0.655562	1	0	88
46.977791	1.292712	city	7	1	1.458329	1.458329	0	1	0	0	CorrectCommission	0.266177	0.627552	1	0	88
48.270687	1.293078	city	8	1	1.260432	1.260432	0	1	0	0	CorrectCommission	0.733666	0.601491	1	0	88
49.557003	1.279557	city	9	1	1.338335	1.338335	0	1	0	0	CorrectCommission	0.340071	0.577905	1	0	88
53.102432	5.811304	break	0	0	0.000000	1.295597	0	0	0	0	ThoughtProbe	0.556001	0.557254	1	88	88
56.687912	1.359652	city	7	1	1.283679	1.283679	0	1	0	0	CorrectCommission	0.616212	0.539834	1	0	8.788235e+01
58.007542	1.279610	city	3	1	1.454046	1.454046	0	1	0	0	CorrectCommission	0.244538	0.525805	1	0	8.776471e+01
59.293732	1.292766	city	10	1	1.477079	1.477079	0	1	0	0	CorrectCommission	0.360910	0.515234	1	0	8.764706e+01
60.593307	1.306384	city	7	1	1.558672	1.558672	0	1	0	0	CorrectCommission	0.773144	0.508082	1	0	8.752941e+01
61.886292	1.279589	mountain	5	0	0.000000	1.557787	1	0	0	0	CorrectOmission	0.768673	0.504236	1	0	8.741176e+01
63.165874	1.279572	city	4	1	1.512361	1.512361	0	1	0	0	CorrectCommission	0.539164	0.503506	1	0	8.729412e+01
64.445442	1.279559	city	6	1	1.460330	1.460330	0	1	0	0	CorrectCommission	0.276285	0.505634	1	0	8.717647e+01
65.725006	1.279577	city	2	1	1.409933	1.409933	0	1	0	0	CorrectCommission	0.021665	0.510233	1	0	8.705882e+01
67.011261	1.292934	city	1	1	1.319935	1.319935	0	1	0	0	CorrectCommission	0.433033	0.516776	1	0	8.694118e+01
68.304825	1.294189	city	6	1	1.434182	1.434182	0	1	0	0	CorrectCommission	0.144178	0.524572	1	0	8.682353e+01
69.597717	1.291595	city	4	1	1.713554	1.713554	0	1	0	0	CorrectCommission	1.555661	0.532834	1	0	8.670588e+01
70.896561	1.306096	city	3	1	1.446525	1.446525	0	1	0	0	CorrectCommission	0.206537	0.540704	1	0	8.658824e+01
72.196144	1.293072	city	4	1	1.378348	1.378348	0	1	0	0	CorrectCommission	0.137914	0.547444	1	0	8.647059e+01
73.489128	1.292893	city	3	1	1.207572	1.207572	0	1	0	0	CorrectCommission	1.000731	0.552478	1	0	8.635294e+01
74.788712	1.306269	city	8	1	1.264630	1.264630	0	1	0	0	CorrectCommission	0.712454	0.555456	1	0	8.623529e+01
76.081505	1.279314	mountain	8	0	0.000000	1.518220	1	0	0	0	CorrectOmission	0.568768	0.556333	1	0	8.611765e+01
77.374313	1.306306	city	9	1	1.658824	1.658824	0	1	0	0	CorrectCommission	1.279145	0.555351	1	0	86
78.680634	1.306344	city	1	1	1.376923	1.376923	0	1	0	0	CorrectCommission	0.145111	0.553001	1	0	8.588235e+01
79.980286	1.292952	city	8	1	1.331201	1.331201	0	1	0	0	CorrectCommission	0.376115	0.549933	1	0	8.576471e+01
81.279892	1.306264	city	3	1	1.393338	1.393338	0	1	0	0	CorrectCommission	0.062178	0.546831	1	0	8.564706e+01
82.592751	1.319450	city	5	1	1.462048	1.462048	0	1	0	0	CorrectCommission	0.284966	0.544340	1	0	8.552941e+01
83.898918	1.292885	city	7	1	1.658266	1.658266	0	1	0	0	CorrectCommission	1.276327	0.542988	1	0	8.541176e+01
85.191841	1.292966	city	1	1	1.462543	1.462543	0	1	0	0	CorrectCommission	0.287468	0.543150	1	0	8.529412e+01
86.484810	1.292965	city	10	1	1.249986	1.249986	0	1	0	0	CorrectCommission	0.786440	0.545120	1	0	8.517647e+01
87.784332	1.306081	city	2	1	1.450049	1.450049	0	1	0	0	CorrectCommission	0.224342	0.549068	1	0	8.505882e+01
89.117233	1.359716	city	5	1	1.477017	1.477017	0	1	0	0	CorrectCommission	0.360598	0.555144	1	0	8.494118e+01
90.443558	1.292936	city	10	1	1.250554	1.250554	0	1	0	0	CorrectCommission	0.783573	0.563504	1	0	8.482353e+01
91.729721	1.279401	city	9	1	1.318700	1.318700	0	1	0	0	CorrectCommission	0.439277	0.574358	1	0	8.470588e+01
93.009224	1.279606	city	6	1	1.633501	1.633501	0	1	0	0	CorrectCommission	1.151208	0.587963	1	0	8.458824e+01
94.302208	1.306349	city	2	1	1.410869	1.410869	0	1	0	0	CorrectCommission	0.026392	0.604628	1	0	8.447059e+01
95.608444	1.306131	city	1	1	1.503479	1.503479	0	1	0	0	CorrectCommission	0.494292	0.624697	1	0	8.435294e+01
96.914696	1.306376	city	9	1	1.329446	1.329446	0	1	0	0	CorrectCommission	0.384982	0.648444	1	0	8.423529e+01
98.227661	1.319541	city	4	1	1.609777	1.609777	0	1	0	0	CorrectCommission	1.031342	0.676027	1	0	8.411765e+01
101.199989	4.625118	break	0	0	0.000000	1.583378	0	0	0	0	ThoughtProbe	0.897965	0.707418	1	84	84
104.158936	1.292772	city	6	1	1.412139	1.412139	0	1	0	0	CorrectCommission	0.032812	0.742340	1	0	8.397826e+01
105.465195	1.319757	city	9	1	1.257952	1.257952	0	1	0	0	CorrectCommission	0.746195	0.780189	0	0	8.395652e+01
106.764786	1.279415	city	7	1	1.671251	1.671251	0	1	0	0	CorrectCommission	1.341932	0.819956	0	0	8.393478e+01
108.051025	1.293061	city	10	1	1.424327	1.424327	0	1	0	0	CorrectCommission	0.094390	0.860251	0	0	8.391304e+01
109.337334	1.279564	city	3	1	1.686134	1.686134	0	1	0	0	CorrectCommission	1.417126	0.899364	0	0	8.389130e+01
110.623550	1.292870	city	2	1	1.264044	1.264044	0	1	0	0	CorrectCommission	0.715416	0.935270	0	0	8.386957e+01
111.923149	1.306319	city	3	1	1.195234	1.195234	0	1	0	0	CorrectCommission	1.063070	0.965828	0	0	8.384783e+01
113.216087	1.279558	city	6	1	1.183151	1.183151	0	1	0	0	CorrectCommission	1.124117	0.988933	0	0	8.382609e+01
114.495651	1.279574	city	4	1	1.127538	1.127538	0	1	0	0	CorrectCommission	1.405090	1.002758	0	0	8.380435e+01
115.775215	1.279562	mountain	3	0	0.000000	1.190098	1	0	0	0	CorrectOmission	1.089015	1.005975	0	0	8.378261e+01
117.061348	1.292690	city	10	1	1.224620	1.224620	0	1	0	0	CorrectCommission	0.914599	0.998006	0	0	8.376087e+01
118.367584	1.319785	city	9	1	1.084892	1.084892	0	1	0	0	CorrectCommission	1.620551	0.979156	0	0	8.373913e+01
119.673943	1.292931	city	1	1	0.978600	0.978600	0	1	0	0	CorrectCommission	2.157577	0.950639	0	0	8.371739e+01
120.960182	1.279556	mountain	1	1	1.390044	1.390044	0	0	1	0	CommissionError	0.078821	0.914545	0	0	8.369565e+01
122.239746	1.279572	city	7	1	1.124100	1.124100	0	1	0	0	CorrectCommission	1.422461	0.873682	0	0	8.367391e+01
123.532623	1.306174	mountain	10	0	0.000000	1.201368	1	0	0	0	CorrectOmission	1.032076	0.831174	0	0	8.365217e+01
124.825554	1.279688	city	5	1	1.354006	1.354006	0	1	0	0	CorrectCommission	0.260900	0.790137	0	0	8.363043e+01
126.105095	1.279403	city	8	1	1.314169	1.314169	0	1	0	0	CorrectCommission	0.462165	0.753331	0	0	8.360870e+01
127.404648	1.319696	city	4	1	1.398816	1.398816	0	1	0	0	CorrectCommission	0.034501	0.722756	1	0	8.358696e+01
128.704300	1.279619	city	3	1	1.461443	1.461443	0	1	0	0	CorrectCommission	0.281910	0.699490	1	0	8.356522e+01
129.983887	1.279552	city	10	1	1.337224	1.337224	0	1	0	0	CorrectCommission	0.345685	0.683633	1	0	8.354348e+01
131.270035	1.292748	city	6	1	1.457830	1.457830	0	1	0	0	CorrectCommission	0.263657	0.674449	1	0	8.352174e+01
132.562866	1.292910	city	2	1	1.297476	1.297476	0	1	0	0	CorrectCommission	0.546504	0.670636	1	0	8.350000e+01
133.849182	1.279726	city	10	1	1.036963	1.036963	0	1	0	0	CorrectCommission	1.862708	0.670630	1	0	8.347826e+01
135.135513	1.292923	city	8	1	1.090509	1.090509	0	1	0	0	CorrectCommission	1.592173	0.672916	1	0	8.345652e+01
136.428436	1.292914	mountain	2	0	0.000000	1.293113	1	0	0	0	CorrectOmission	0.568550	0.676372	1	0	8.343478e+01
137.721252	1.292722	city	5	1	1.465051	1.465051	0	1	0	0	CorrectCommission	0.300142	0.680335	1	0	8.341304e+01
139.014160	1.293104	city	3	1	1.426602	1.426602	0	1	0	0	CorrectCommission	0.105882	0.684603	1	0	8.339130e+01
140.327164	1.332914	city	10	1	1.296095	1.296095	0	1	0	0	CorrectCommission	0.553485	0.689321	1	0	8.336957e+01
141.633347	1.279430	city	8	1	1.307116	1.307116	0	1	0	0	CorrectCommission	0.497803	0.694794	1	0	8.334783e+01
142.919556	1.293013	city	2	1	1.663104	1.663104	0	1	0	0	CorrectCommission	1.300773	0.701312	1	0	8.332609e+01
144.225769	1.319399	city	1	1	1.478924	1.478924	0	1	0	0	CorrectCommission	0.370231	0.708939	1	0	8.330435e+01
145.552002	1.333057	city	4	1	1.526929	1.526929	0	1	0	0	CorrectCommission	0.612768	0.717477	1	0	8.328261e+01
146.871674	1.306303	city	9	1	1.267411	1.267411	0	1	0	0	CorrectCommission	0.698406	0.726350	1	0	8.326087e+01
148.171173	1.292679	city	10	1	1.145242	1.145242	0	1	0	0	CorrectCommission	1.315642	0.734637	1	0	8.323913e+01
149.477295	1.319582	city	1	1	1.435971	1.435971	0	1	0	0	CorrectCommission	0.153219	0.741207	1	0	8.321739e+01
150.776962	1.279749	city	6	1	1.612079	1.612079	0	1	0	0	CorrectCommission	1.042975	0.744837	1	0	8.319565e+01
152.063202	1.292723	city	8	1	1.260481	1.260481	0	1	0	0	CorrectCommission	0.733419	0.744342	1	0	8.317391e+01
153.349365	1.279604	city	7	1	1.399566	1.399566	0	1	0	0	CorrectCommission	0.030715	0.738824	1	0	8.315217e+01
154.649033	1.319729	city	9	1	1.637701	1.637701	0	1	0	0	CorrectCommission	1.172427	0.727834	1	0	8.313043e+01
155.955322	1.292870	city	3	1	1.724483	1.724483	0	1	0	0	CorrectCommission	1.610877	0.711500	1	0	8.310870e+01
157.241562	1.279592	city	2	1	1.706673	1.706673	0	1	0	0	CorrectCommission	1.520896	0.690638	1	0	8.308696e+01
158.534409	1.306107	city	9	1	1.549433	1.549433	0	1	0	0	CorrectCommission	0.726464	0.666711	1	0	8.306522e+01
159.847244	1.319565	city	3	1	1.449110	1.449110	0	1	0	0	CorrectCommission	0.219599	0.641690	1	0	8.304348e+01
161.166885	1.319717	city	4	1	1.461367	1.461367	0	1	0	0	CorrectCommission	0.281526	0.617880	1	0	8.302174e+01
164.285843	4.918204	break	0	0	0.000000	1.450433	0	0	0	0	ThoughtProbe	0.226284	0.597642	1	83	83
167.384735	1.279573	city	6	1	1.420535	1.420535	0	1	0	0	CorrectCommission	0.075230	0.583176	1	0	8.280000e+01
168.697647	1.346259	mountain	7	0	0.000000	1.375900	1	0	0	0	CorrectOmission	0.150282	0.576338	1	0	8.260000e+01
170.010559	1.279571	city	8	1	1.301187	1.301187	0	1	0	0	CorrectCommission	0.527756	0.578491	1	0	8.240000e+01
171.290222	1.279738	city	6	1	1.181057	1.181057	0	1	0	0	CorrectCommission	1.134696	0.590402	1	0	8.220000e+01
172.583191	1.306216	city	4	1	1.316198	1.316198	0	1	0	0	CorrectCommission	0.451914	0.612190	1	0	82
173.889343	1.306080	city	7	1	1.275654	1.275654	0	1	0	0	CorrectCommission	0.656757	0.643378	1	0	8.180000e+01
175.182281	1.279780	city	3	1	1.244873	1.244873	0	1	0	0	CorrectCommission	0.812274	0.682751	1	0	8.160000e+01
176.475204	1.306075	city	1	1	1.408025	1.408025	0	1	0	0	CorrectCommission	0.012024	0.728434	1	0	8.140000e+01
177.801407	1.346345	city	6	1	1.475514	1.475514	0	1	0	0	CorrectCommission	0.353001	0.777902	0	0	8.120000e+01
179.114319	1.279468	city	2	1	1.248684	1.248684	0	1	0	0	CorrectCommission	0.793019	0.828097	0	0	81
180.400482	1.292852	city	1	1	1.219343	1.219343	0	1	0	0	CorrectCommission	0.941261	0.875599	0	0	8.080000e+01
181.706650	1.319492	city	2	1	1.309872	1.309872	0	1	0	0	CorrectCommission	0.483877	0.917039	0	0	8.060000e+01
183.012894	1.292991	city	9	1	1.536453	1.536453	0	1	0	0	CorrectCommission	0.660886	0.949465	0	0	8.040000e+01
184.312500	1.306237	mountain	8	0	0.000000	1.807010	1	0	0	0	CorrectOmission	2.027834	0.970768	0	0	8.020000e+01
185.605484	1.279731	city	5	1	1.982906	1.982906	0	1	0	0	CorrectCommission	2.916521	0.980028	0	0	80
186.938461	1.386213	city	3	1	1.925503	1.925503	0	1	0	0	CorrectCommission	2.626501	0.977690	0	0	7.980000e+01
188.284607	1.306070	city	10	1	1.395176	1.395176	0	1	0	0	CorrectCommission	0.052895	0.965509	0	0	7.960000e+01
189.590790	1.306286	city	8	1	1.485530	1.485530	0	1	0	0	CorrectCommission	0.403608	0.946292	0	0	7.940000e+01
190.890442	1.293041	city	7	1	1.552451	1.552451	0	1	0	0	CorrectCommission	0.741716	0.923295	0	0	7.920000e+01
192.196747	1.319569	city	8	1	1.431668	1.431668	0	1	0	0	CorrectCommission	0.131477	0.899723	0	0	79
193.496307	1.279559	city	7	1	1.449570	1.449570	0	1	0	0	CorrectCommission	0.221922	0.878186	0	0	7.880000e+01
194.795883	1.319588	city	9	1	1.594671	1.594671	0	1	0	0	CorrectCommission	0.955024	0.860266	0	0	7.860000e+01
196.122116	1.332872	city	10	1	1.526509	1.526509	0	1	0	0	CorrectCommission	0.610647	0.846348	0	0	7.840000e+01
197.441605	1.306090	city	1	1	1.449372	1.449372	0	1	0	0	CorrectCommission	0.220922	0.835720	0	0	7.820000e+01
198.767853	1.346410	city	7	1	1.807593	1.807593	0	1	0	0	CorrectCommission	2.030775	0.826841	0	0	78
200.100739	1.319383	city	9	0	0.000000	1.537539	0	0	0	1	OmissionError	0.666371	0.817740	0	0	7.780000e+01
201.460190	1.399513	city	2	1	1.244469	1.244469	0	1	0	0	CorrectCommission	0.814316	0.806567	0	0	7.760000e+01
202.806412	1.292932	mountain	4	0	0.000000	1.533643	1	0	0	0	CorrectOmission	0.646688	0.791997	0	0	7.740000e+01
204.099335	1.292906	city	7	1	1.824036	1.824036	0	1	0	0	CorrectCommission	2.113855	0.773517	0	0	7.720000e+01
205.412308	1.333042	city	5	1	1.534627	1.534627	0	1	0	0	CorrectCommission	0.651659	0.751603	0	0	77
206.738602	1.319534	city	3	1	1.614157	1.614157	0	1	0	0	CorrectCommission	1.053473	0.727692	1	0	7.680000e+01
208.051498	1.306271	city	9	1	1.495705	1.495705	0	1	0	0	CorrectCommission	0.455016	0.703891	1	0	7.660000e+01
209.357758	1.306255	city	5	1	1.371438	1.371438	0	1	0	0	CorrectCommission	0.172823	0.682670	1	0	7.640000e+01
210.657349	1.292907	city	9	1	1.463615	1.463615	0	1	0	0	CorrectCommission	0.292887	0.666438	1	0	7.620000e+01
211.976868	1.346143	city	3	1	1.302925	1.302925	0	1	0	0	CorrectCommission	0.518975	0.657137	1	0	76
213.323090	1.346316	city	9	1	1.439957	1.439957	0	1	0	0	CorrectCommission	0.173356	0.655919	1	0	7.580000e+01
214.649368	1.306231	city	10	1	1.320554	1.320554	0	1	0	0	CorrectCommission	0.429909	0.662998	1	0	7.560000e+01
215.955521	1.306069	city	1	1	1.409190	1.409190	0	1	0	0	CorrectCommission	0.017909	0.677616	1	0	7.540000e+01
217.275070	1.333044	city	5	1	1.580295	1.580295	0	1	0	0	CorrectCommission	0.882392	0.698244	1	0	7.520000e+01
219.987503	4.091823	break	0	0	0.000000	1.685672	0	0	0	0	ThoughtProbe	1.414791	0.722709	1	75	75
222.686630	1.306424	city	7	1	1.611239	1.611239	0	1	0	0	CorrectCommission	1.038732	0.748514	0	0	7.508824e+01
224.046204	1.412701	city	1	1	1.242916	1.242916	0	1	0	0	CorrectCommission	0.822160	0.773150	0	0	7.517647e+01
225.392426	1.279753	city	7	1	1.311487	1.311487	0	1	0	0	CorrectCommission	0.475717	0.794335	0	0	7.526471e+01
226.712067	1.359547	city	4	1	1.308698	1.308698	0	1	0	0	CorrectCommission	0.489809	0.810211	0	0	7.535294e+01
228.039413	1.295149	city	8	1	1.037807	1.037807	0	1	0	0	CorrectCommission	1.858442	0.819513	0	0	7.544118e+01
229.332336	1.290676	mountain	6	0	0.000000	1.409563	1	0	0	0	CorrectOmission	0.019798	0.821611	0	0	7.552941e+01
230.637451	1.319554	city	5	1	1.778070	1.778070	0	1	0	0	CorrectCommission	1.881619	0.816599	0	0	7.561765e+01
231.950378	1.306297	city	1	1	1.497430	1.497430	0	1	0	0	CorrectCommission	0.463730	0.805172	0	0	7.570588e+01
233.269943	1.332834	city	4	1	1.754215	1.754215	0	1	0	0	CorrectCommission	1.761096	0.788649	0	0	7.579412e+01
234.596039	1.319377	city	6	1	1.327024	1.327024	0	1	0	0	CorrectCommission	0.397220	0.768696	0	0	7.588235e+01
235.895538	1.279607	city	5	1	1.312946	1.312946	0	1	0	0	CorrectCommission	0.468345	0.747229	0	0	7.597059e+01
237.221680	1.372674	city	7	1	1.310115	1.310115	0	1	0	0	CorrectCommission	0.482649	0.726144	1	0	7.605882e+01
238.574631	1.333244	city	9	1	1.260810	1.260810	0	1	0	0	CorrectCommission	0.731754	0.707118	1	0	7.614706e+01
239.887711	1.292909	city	5	1	1.219842	1.219842	0	1	0	0	CorrectCommission	0.938738	0.691443	1	0	7.623529e+01
241.173981	1.279618	city	8	1	1.391344	1.391344	0	1	0	0	CorrectCommission	0.072252	0.679900	1	0	7.632353e+01
242.486893	1.346206	city	4	1	1.418168	1.418168	0	1	0	0	CorrectCommission	0.063269	0.672751	1	0	7.641176e+01
243.813034	1.306081	city	10	1	1.350697	1.350697	0	1	0	0	CorrectCommission	0.277617	0.669724	1	0	7.650000e+01
245.132523	1.332887	city	4	1	1.689141	1.689141	0	1	0	0	CorrectCommission	1.432318	0.670125	1	0	7.658824e+01
246.452164	1.306399	city	1	1	1.648371	1.648371	0	1	0	0	CorrectCommission	1.226335	0.672950	1	0	7.667647e+01
247.751724	1.292725	mountain	1	0	0.000000	1.563087	1	0	0	0	CorrectOmission	0.795450	0.677062	1	0	7.676471e+01
249.037903	1.279651	city	4	1	1.488030	1.488030	0	1	0	0	CorrectCommission	0.416235	0.681242	1	0	7.685294e+01
250.330826	1.306186	city	2	1	1.477941	1.477941	0	1	0	0	CorrectCommission	0.365263	0.684292	1	0	7.694118e+01
251.637115	1.306384	city	4	1	1.315917	1.315917	0	1	0	0	CorrectCommission	0.453337	0.685092	1	0	7.702941e+01
252.943344	1.306063	city	9	1	1.147870	1.147870	0	1	0	0	CorrectCommission	1.302368	0.682680	1	0	7.711765e+01
254.236160	1.279586	city	4	1	1.317136	1.317136	0	1	0	0	CorrectCommission	0.447175	0.676292	1	0	7.720588e+01
255.562485	1.373076	city	2	1	1.347367	1.347367	0	1	0	0	CorrectCommission	0.294438	0.665499	1	0	7.729412e+01
256.888824	1.279564	city	5	1	1.557120	1.557120	0	1	0	0	CorrectCommission	0.765302	0.650260	1	0	7.738235e+01
258.194946	1.332711	city	9	1	1.717589	1.717589	0	1	0	0	CorrectCommission	1.576048	0.631091	1	0	7.747059e+01
259.534515	1.346405	city	2	1	1.564277	1.564277	0	1	0	0	CorrectCommission	0.801463	0.609059	1	0	7.755882e+01
260.847473	1.279558	city	4	1	1.634358	1.634358	0	1	0	0	CorrectCommission	1.155534	0.585895	1	0	7.764706e+01
262.127075	1.279587	city	5	1	1.391257	1.391257	0	1	0	0	CorrectCommission	0.072692	0.563750	1	0	7.773529e+01
263.413330	1.292924	city	6	1	1.429322	1.429322	0	1	0	0	CorrectCommission	0.119625	0.545129	1	0	7.782353e+01
264.706238	1.292911	city	3	1	1.476124	1.476124	0	1	0	0	CorrectCommission	0.356082	0.532480	1	0	7.791176e+01
267.958405	5.211432	break	0	0	0.000000	1.405272	0	0	0	0	ThoughtProbe	0.001885	0.527928	1	78	78
271.210663	1.293069	city	7	1	1.320187	1.320187	0	1	0	0	CorrectCommission	0.431762	0.533002	1	0	7.767647e+01
272.530212	1.346062	city	10	1	1.324290	1.324290	0	1	0	0	CorrectCommission	0.411033	0.548319	1	0	7.735294e+01
273.843048	1.279577	mountain	10	0	0.000000	1.424867	1	0	0	0	CorrectOmission	0.097114	0.573527	1	0	7.702941e+01
275.136047	1.306425	city	9	1	1.539591	1.539591	0	1	0	0	CorrectCommission	0.676743	0.607265	1	0	7.670588e+01
276.469025	1.359524	city	6	1	1.586139	1.586139	0	1	0	0	CorrectCommission	0.911919	0.647251	1	0	7.638235e+01
277.815216	1.332889	city	1	1	1.408986	1.408986	0	1	0	0	CorrectCommission	0.016878	0.690513	1	0	7.605882e+01
279.141479	1.319605	city	9	1	1.445312	1.445312	0	1	0	0	CorrectCommission	0.200412	0.733806	1	0	7.573529e+01
280.454376	1.306234	city	10	1	1.499442	1.499442	0	1	0	0	CorrectCommission	0.473893	0.773988	0	0	7.541176e+01
281.760559	1.306086	city	9	1	1.808568	1.808568	0	1	0	0	CorrectCommission	2.035704	0.808463	0	0	7.508824e+01
283.073364	1.319528	city	7	1	1.858337	1.858337	0	1	0	0	CorrectCommission	2.287152	0.835507	0	0	7.476471e+01
284.379669	1.293071	city	9	1	1.665041	1.665041	0	1	0	0	CorrectCommission	1.310558	0.854522	0	0	7.444118e+01
285.679321	1.306241	mountain	6	0	0.000000	1.588957	1	0	0	0	CorrectOmission	0.926154	0.866053	0	0	7.411765e+01
286.972229	1.279588	city	6	1	1.532975	1.532975	0	1	0	0	CorrectCommission	0.643317	0.871598	0	0	7.379412e+01
288.265137	1.306246	city	4	1	1.399988	1.399988	0	1	0	0	CorrectCommission	0.028579	0.873277	0	0	7.347059e+01
289.578033	1.319544	city	10	1	1.210960	1.210960	0	1	0	0	CorrectCommission	0.983614	0.873379	0	0	7.314706e+01
290.890900	1.306166	city	4	1	1.436300	1.436300	0	1	0	0	CorrectCommission	0.154880	0.873894	0	0	7.282353e+01
292.217133	1.346295	city	3	1	1.808050	1.808050	0	1	0	0	CorrectCommission	2.033087	0.876239	0	0	7.250000e+01
293.543396	1.306237	city	8	1	1.371057	1.371057	0	1	0	0	CorrectCommission	0.174748	0.880938	0	0	7.217647e+01
294.836304	1.279581	city	4	1	1.429157	1.429157	0	1	0	0	CorrectCommission	0.118791	0.887732	0	0	7.185294e+01
296.135864	1.319564	city	9	1	1.620493	1.620493	0	1	0	0	CorrectCommission	1.085485	0.895603	0	0	7.152941e+01
297.468689	1.346077	city	6	1	1.405083	1.405083	0	1	0	0	CorrectCommission	0.002841	0.903084	0	0	7.120588e+01
298.794922	1.306405	city	1	1	1.157499	1.157499	0	1	0	0	CorrectCommission	1.253716	0.908705	0	0	7.088235e+01
300.107910	1.319545	city	6	1	0.934172	0.934172	0	1	0	0	CorrectCommission	2.382040	0.911243	0	0	7.055882e+01
301.420807	1.306237	city	3	1	0.914461	0.914461	0	1	0	0	CorrectCommission	2.481629	0.910061	0	0	7.023529e+01
302.746979	1.346117	city	6	1	1.293418	1.293418	0	1	0	0	CorrectCommission	0.567008	0.905246	0	0	6.991176e+01
304.093109	1.346170	city	1	1	1.351031	1.351031	0	1	0	0	CorrectCommission	0.275927	0.897544	0	0	6.958824e+01
305.439423	1.346413	city	6	1	1.287545	1.287545	0	1	0	0	CorrectCommission	0.596681	0.888070	0	0	6.926471e+01
306.759003	1.292754	city	7	1	1.321462	1.321462	0	1	0	0	CorrectCommission	0.425322	0.878062	0	0	6.894118e+01
308.105225	1.399691	city	10	1	1.296040	1.296040	0	1	0	0	CorrectCommission	0.553759	0.868538	0	0	6.861765e+01
309.458191	1.306246	city	6	1	1.418343	1.418343	0	1	0	0	CorrectCommission	0.064156	0.860066	0	0	6.829412e+01
310.764313	1.306042	city	3	1	1.208946	1.208946	0	1	0	0	CorrectCommission	0.993791	0.852704	0	0	6.797059e+01
312.063904	1.293100	city	5	1	1.158873	1.158873	0	1	0	0	CorrectCommission	1.246774	0.846003	0	0	6.764706e+01
313.363556	1.306201	city	9	1	1.000744	1.000744	0	1	0	0	CorrectCommission	2.045694	0.839257	0	0	6.732353e+01
316.202576	4.371842	break	0	1	1.256971	1.256971	0	0	0	0	ThoughtProbe	0.751152	0.831699	0	67	67
319.028229	1.279499	city	8	1	1.282436	1.282436	0	1	0	0	CorrectCommission	0.622493	0.822777	0	0	6.752500e+01
320.314514	1.293062	city	3	1	1.340855	1.340855	0	1	0	0	CorrectCommission	0.327338	0.812293	0	0	6.805000e+01
321.620758	1.319391	city	1	1	1.618486	1.618486	0	1	0	0	CorrectCommission	1.075347	0.800427	0	0	6.857500e+01
322.933655	1.306397	city	5	1	1.583142	1.583142	0	1	0	0	CorrectCommission	0.896776	0.787799	0	0	6.910000e+01
324.233215	1.292770	city	3	1	1.558399	1.558399	0	1	0	0	CorrectCommission	0.771768	0.775325	0	0	6.962500e+01
325.552734	1.346233	city	5	1	1.543872	1.543872	0	1	0	0	CorrectCommission	0.698370	0.764127	0	0	7.015000e+01
326.878937	1.306202	city	8	1	1.212631	1.212631	0	1	0	0	CorrectCommission	0.975172	0.755306	0	0	7.067500e+01
328.178497	1.292926	city	3	1	1.323801	1.323801	0	1	0	0	CorrectCommission	0.413504	0.749752	0	0	7.120000e+01
329.491486	1.333049	mountain	1	0	0.000000	1.305008	1	0	0	0	CorrectOmission	0.508452	0.748004	0	0	7.172500e+01
330.817749	1.319458	city	9	1	1.262487	1.262487	0	1	0	0	CorrectCommission	0.723281	0.750073	0	0	7.225000e+01
332.143890	1.332833	city	2	1	1.302473	1.302473	0	1	0	0	CorrectCommission	0.521257	0.755402	0	0	7.277500e+01
333.456848	1.293066	city	9	1	1.398520	1.398520	0	1	0	0	CorrectCommission	0.035997	0.762907	0	0	7.330000e+01
334.796478	1.386212	city	2	1	1.124501	1.124501	0	1	0	0	CorrectCommission	1.420432	0.771106	0	0	7.382500e+01
336.162628	1.346087	mountain	1	0	0.000000	1.212175	1	0	0	0	CorrectOmission	0.977478	0.778228	0	0	7.435000e+01
337.488770	1.306210	city	8	1	1.311441	1.311441	0	1	0	0	CorrectCommission	0.475950	0.782519	0	0	7.487500e+01
338.815002	1.346258	city	4	1	1.072202	1.072202	0	1	0	0	CorrectCommission	1.684666	0.782405	0	0	7.540000e+01
340.154572	1.332863	city	3	1	1.226230	1.226230	0	1	0	0	CorrectCommission	0.906466	0.776693	0	0	7.592500e+01
341.460815	1.279605	city	8	1	1.338480	1.338480	0	1	0	0	CorrectCommission	0.339340	0.764764	0	0	7.645000e+01
342.760468	1.319708	city	7	1	1.258844	1.258844	0	1	0	0	CorrectCommission	0.741690	0.746628	0	0	7.697500e+01
344.066681	1.292744	mountain	8	0	0.000000	1.589176	1	0	0	0	CorrectOmission	0.927263	0.722916	1	0	7.750000e+01
345.359619	1.293087	city	3	1	1.808660	1.808660	0	1	0	0	CorrectCommission	2.036168	0.694827	1	0	7.802500e+01
346.652527	1.292727	city	8	1	1.396476	1.396476	0	1	0	0	CorrectCommission	0.046326	0.663981	1	0	7.855000e+01
347.958740	1.319724	city	5	1	1.512029	1.512029	0	1	0	0	CorrectCommission	0.537490	0.632298	1	0	7.907500e+01
349.285095	1.332963	city	6	1	1.419620	1.419620	0	1	0	0	CorrectCommission	0.070607	0.601681	1	0	7.960000e+01
350.611328	1.319526	city	9	1	1.476821	1.476821	0	1	0	0	CorrectCommission	0.359606	0.573858	1	0	8.012500e+01
351.930878	1.319559	city	1	1	1.392492	1.392492	0	1	0	0	CorrectCommission	0.066451	0.550176	1	0	8.065000e+01
353.270325	1.359372	city	2	1	1.640826	1.640826	0	1	0	0	CorrectCommission	1.188213	0.531504	1	0	8.117500e+01
354.596527	1.293001	city	7	1	1.497875	1.497875	0	1	0	0	CorrectCommission	0.465976	0.518127	1	0	8.170000e+01
355.902771	1.319478	city	8	1	1.442734	1.442734	0	1	0	0	CorrectCommission	0.187387	0.509801	1	0	8.222500e+01
357.215698	1.306398	city	7	1	1.478220	1.478220	0	1	0	0	CorrectCommission	0.366674	0.505778	1	0	8.275000e+01
358.508698	1.279578	city	6	1	1.514981	1.514981	0	1	0	0	CorrectCommission	0.552402	0.504918	1	0	8.327500e+01
359.801605	1.306236	city	8	1	1.352961	1.352961	0	1	0	0	CorrectCommission	0.266179	0.505841	1	0	8.380000e+01
361.127838	1.346231	city	6	1	1.383295	1.383295	0	1	0	0	CorrectCommission	0.112922	0.507104	1	0	8.432500e+01
362.494049	1.386223	city	8	1	1.167688	1.167688	0	1	0	0	CorrectCommission	1.202239	0.507391	1	0	8.485000e+01
363.833618	1.292886	city	10	1	1.463216	1.463216	0	1	0	0	CorrectCommission	0.290870	0.505654	1	0	8.537500e+01
365.139862	1.319605	city	8	1	1.700641	1.700641	0	1	0	0	CorrectCommission	1.490418	0.501343	1	0	8.590000e+01
366.472687	1.346047	city	1	1	1.380929	1.380929	0	1	0	0	CorrectCommission	0.124873	0.494424	1	0	8.642500e+01
367.838837	1.386259	city	5	1	1.285726	1.285726	0	1	0	0	CorrectCommission	0.605873	0.485469	1	0	8.695000e+01
369.171814	1.279705	city	1	1	1.507636	1.507636	0	1	0	0	CorrectCommission	0.515295	0.475514	1	0	8.747500e+01
372.270752	4.918191	break	0	0	0.000000	1.512618	0	0	0	0	ThoughtProbe	0.540462	0.465961	1	88	88
375.369659	1.279587	city	1	1	1.423155	1.423155	0	1	0	0	CorrectCommission	0.088467	0.458345	1	0	8.784783e+01
376.675903	1.332892	city	7	1	1.361734	1.361734	0	1	0	0	CorrectCommission	0.221851	0.454148	1	0	8.769565e+01
378.022095	1.359541	city	4	1	1.320665	1.320665	0	1	0	0	CorrectCommission	0.429349	0.454557	1	0	8.754348e+01
379.355072	1.306399	city	6	1	1.506422	1.506422	0	1	0	0	CorrectCommission	0.509159	0.460376	1	0	8.739130e+01
380.681396	1.346247	city	10	1	1.435152	1.435152	0	1	0	0	CorrectCommission	0.149082	0.471887	1	0	8.723913e+01
382.007629	1.306233	city	7	1	1.329870	1.329870	0	1	0	0	CorrectCommission	0.382839	0.488852	1	0	8.708696e+01
383.313782	1.306075	city	8	1	1.362197	1.362197	0	1	0	0	CorrectCommission	0.219516	0.510534	1	0	8.693478e+01
384.646606	1.359551	city	6	1	1.471542	1.471542	0	1	0	0	CorrectCommission	0.332934	0.535857	1	0	8.678261e+01
385.972961	1.293139	city	1	1	1.448115	1.448115	0	1	0	0	CorrectCommission	0.214575	0.563514	1	0	8.663043e+01
387.279175	1.319318	mountain	1	0	0.000000	1.610206	1	0	0	0	CorrectOmission	1.033513	0.592190	1	0	8.647826e+01
388.585297	1.292940	city	8	1	1.740337	1.740337	0	1	0	0	CorrectCommission	1.690976	0.620663	1	0	8.632609e+01
389.884979	1.306391	city	9	1	1.621029	1.621029	0	1	0	0	CorrectCommission	1.088192	0.647946	1	0	8.617391e+01
391.197937	1.319545	city	6	1	1.464092	1.464092	0	1	0	0	CorrectCommission	0.295296	0.673338	1	0	8.602174e+01
392.517426	1.319430	city	10	1	1.341875	1.341875	0	1	0	0	CorrectCommission	0.322187	0.696452	1	0	8.586957e+01
393.850311	1.346354	city	5	1	1.405182	1.405182	0	1	0	0	CorrectCommission	0.002338	0.717188	1	0	8.571739e+01
395.169861	1.292744	city	1	1	1.383845	1.383845	0	1	0	0	CorrectCommission	0.110142	0.735729	1	0	8.556522e+01
396.462708	1.292906	city	3	1	1.642229	1.642229	0	1	0	0	CorrectCommission	1.195305	0.752634	0	0	8.541304e+01
397.755676	1.293073	mountain	1	0	0.000000	1.736071	1	0	0	0	CorrectOmission	1.669423	0.768807	0	0	8.526087e+01
399.061951	1.319481	mountain	2	0	0.000000	1.710036	1	0	0	0	CorrectOmission	1.537888	0.785587	0	0	8.510870e+01
400.368195	1.292995	city	4	1	1.608794	1.608794	0	1	0	0	CorrectCommission	1.026380	0.804648	0	0	8.495652e+01
401.681152	1.332895	city	3	1	1.477013	1.477013	0	1	0	0	CorrectCommission	0.360577	0.827818	0	0	8.480435e+01
403.007385	1.319583	city	10	1	1.338371	1.338371	0	1	0	0	CorrectCommission	0.339892	0.856792	0	0	8.465217e+01
404.333618	1.332896	city	1	1	1.526351	1.526351	0	1	0	0	CorrectCommission	0.609846	0.892713	0	0	8.450000e+01
405.660583	1.321032	mountain	5	0	0.000000	1.545655	1	0	0	0	CorrectOmission	0.707380	0.935830	0	0	8.434783e+01
406.966827	1.291442	city	8	1	1.488532	1.488532	0	1	0	0	CorrectCommission	0.418772	0.985219	0	0	8.419565e+01
408.265656	1.306218	city	5	1	1.447226	1.447226	0	1	0	0	CorrectCommission	0.210084	1.038652	0	0	8.404348e+01
409.605133	1.372750	city	3	1	1.209585	1.209585	0	1	0	0	CorrectCommission	0.990559	1.092717	0	0	8.389130e+01
410.977936	1.372861	city	9	1	1.168692	1.168692	0	1	0	0	CorrectCommission	1.197167	1.143155	0	0	8.373913e+01
412.317566	1.306392	city	4	1	1.039657	1.039657	0	1	0	0	CorrectCommission	1.849097	1.185412	0	0	8.358696e+01
413.650543	1.359540	city	3	1	1.083269	1.083269	0	1	0	0	CorrectCommission	1.628755	1.215245	0	0	8.343478e+01
414.996765	1.332912	city	10	1	0.961657	0.961657	0	1	0	0	CorrectCommission	2.243178	1.229388	0	0	8.328261e+01
416.309692	1.292945	city	5	1	1.761227	1.761227	0	1	0	0	CorrectCommission	1.796523	1.226000	0	0	8.313043e+01
417.595856	1.279398	city	3	1	1.898614	1.898614	0	1	0	0	CorrectCommission	2.490646	1.204961	0	0	8.297826e+01
418.908752	1.346359	city	1	1	1.811750	1.811750	0	1	0	0	CorrectCommission	2.051781	1.167829	0	0	8.282609e+01
420.248383	1.332896	city	6	1	1.489018	1.489018	0	1	0	0	CorrectCommission	0.421229	1.117608	0	0	8.267391e+01
421.587860	1.346096	city	10	1	1.298333	1.298333	0	1	0	0	CorrectCommission	0.542177	1.058256	0	0	8.252174e+01
422.907349	1.292867	city	5	1	1.351342	1.351342	0	1	0	0	CorrectCommission	0.274356	0.994072	0	0	8.236957e+01
424.200226	1.292912	city	6	1	1.504703	1.504703	0	1	0	0	CorrectCommission	0.500474	0.929145	0	0	8.221739e+01
425.506531	1.319654	city	8	1	1.264238	1.264238	0	1	0	0	CorrectCommission	0.714437	0.866911	0	0	8.206522e+01
426.839508	1.346298	city	1	1	1.261707	1.261707	0	1	0	0	CorrectCommission	0.727222	0.809920	0	0	8.191304e+01
428.179108	1.332931	city	4	1	1.700605	1.700605	0	1	0	0	CorrectCommission	1.490239	0.759761	0	0	8.176087e+01
429.511993	1.332858	city	2	1	1.415018	1.415018	0	1	0	0	CorrectCommission	0.047355	0.717141	1	0	8.160870e+01
430.851562	1.346248	city	4	1	1.480248	1.480248	0	1	0	0	CorrectCommission	0.376921	0.682162	1	0	8.145652e+01
432.177795	1.306239	city	6	1	1.663667	1.663667	0	1	0	0	CorrectCommission	1.303614	0.654519	1	0	8.130435e+01
433.477356	1.292887	city	8	1	1.311832	1.311832	0	1	0	0	CorrectCommission	0.473976	0.633748	1	0	8.115217e+01
436.589661	4.931686	break	0	0	0.000000	1.386429	0	0	0	0	ThoughtProbe	0.097086	0.619465	1	81	81
439.715302	1.319613	city	2	1	1.567389	1.567389	0	1	0	0	CorrectCommission	0.817188	0.611437	1	0	8.065217e+01
441.054779	1.359364	mountain	7	0	0.000000	1.534645	1	0	0	0	CorrectOmission	0.651750	0.609563	1	0	8.030435e+01
442.394348	1.319751	city	8	1	1.449629	1.449629	0	1	0	0	CorrectCommission	0.222222	0.613863	1	0	7.995652e+01
443.713959	1.319444	city	6	1	1.473777	1.473777	0	1	0	0	CorrectCommission	0.344228	0.624366	1	0	7.960870e+01
445.040070	1.332834	city	3	1	1.226281	1.226281	0	1	0	0	CorrectCommission	0.906206	0.640943	1	0	7.926087e+01
446.366364	1.319730	city	8	1	1.232927	1.232927	0	1	0	0	CorrectCommission	0.872630	0.663186	1	0	7.891304e+01
447.699341	1.346225	city	7	1	1.286252	1.286252	0	1	0	0	CorrectCommission	0.603216	0.690282	1	0	7.856522e+01
449.019592	1.294270	mountain	3	0	0.000000	1.377713	1	0	0	0	CorrectOmission	0.141123	0.720992	1	0	7.821739e+01
450.312500	1.291570	city	10	1	1.489136	1.489136	0	1	0	0	CorrectCommission	0.421824	0.753647	0	0	7.786957e+01
451.638062	1.359540	city	4	1	1.602345	1.602345	0	1	0	0	CorrectCommission	0.993798	0.786248	0	0	7.752174e+01
453.004272	1.372871	city	5	1	1.434174	1.434174	0	1	0	0	CorrectCommission	0.144137	0.816687	0	0	7.717391e+01
454.357147	1.332906	city	7	1	1.283103	1.283103	0	1	0	0	CorrectCommission	0.619121	0.842988	0	0	7.682609e+01
455.696716	1.346207	city	2	1	0.951264	0.951264	0	1	0	0	CorrectCommission	2.295686	0.863509	0	0	7.647826e+01
457.042938	1.346250	mountain	8	1	0.941795	0.941795	0	0	1	0	CommissionError	2.343526	0.877165	0	0	7.613043e+01
458.369110	1.306055	city	2	1	1.644107	1.644107	0	1	0	0	CorrectCommission	1.204792	0.883523	0	0	7.578261e+01
459.675323	1.306387	city	3	1	1.418630	1.418630	0	1	0	0	CorrectCommission	0.065605	0.882808	0	0	7.543478e+01
460.994934	1.332872	city	5	1	1.515950	1.515950	0	1	0	0	CorrectCommission	0.557300	0.875696	0	0	7.508696e+01
462.321106	1.319461	city	2	1	1.497878	1.497878	0	1	0	0	CorrectCommission	0.465991	0.863154	0	0	7.473913e+01
463.653961	1.346210	city	3	1	1.564457	1.564457	0	1	0	0	CorrectCommission	0.802374	0.846254	0	0	7.439130e+01
464.973602	1.293114	city	2	1	1.642635	1.642635	0	1	0	0	CorrectCommission	1.197354	0.825984	0	0	7.404348e+01
466.279846	1.319367	city	5	1	1.463372	1.463372	0	1	0	0	CorrectCommission	0.291655	0.803244	0	0	7.369565e+01
467.586060	1.293068	mountain	8	0	0.000000	1.533238	1	0	0	0	CorrectOmission	0.644643	0.778920	0	0	7.334783e+01
468.879059	1.292888	city	3	1	1.669253	1.669253	0	1	0	0	CorrectCommission	1.331837	0.753886	0	0	73
470.205200	1.359393	city	4	1	1.688436	1.688436	0	1	0	0	CorrectCommission	1.428755	0.729134	1	0	7.265217e+01
471.551331	1.332918	city	6	1	1.677327	1.677327	0	1	0	0	CorrectCommission	1.372632	0.705855	1	0	7.230435e+01
472.884338	1.333057	city	2	1	1.395478	1.395478	0	1	0	0	CorrectCommission	0.051367	0.685351	1	0	7.195652e+01
474.190552	1.279412	city	3	1	1.372256	1.372256	0	1	0	0	CorrectCommission	0.168692	0.668971	1	0	7.160870e+01
475.496796	1.333059	city	1	1	1.340918	1.340918	0	1	0	0	CorrectCommission	0.327021	0.657895	1	0	7.126087e+01
476.829773	1.332894	city	3	1	1.347295	1.347295	0	1	0	0	CorrectCommission	0.294801	0.652970	1	0	7.091304e+01
478.189331	1.386204	city	10	1	1.315636	1.315636	0	1	0	0	CorrectCommission	0.454758	0.654658	1	0	7.056522e+01
479.528809	1.292759	city	8	1	1.394018	1.394018	0	1	0	0	CorrectCommission	0.058744	0.663004	1	0	7.021739e+01
480.828369	1.306392	city	9	1	1.418792	1.418792	0	1	0	0	CorrectCommission	0.066423	0.677785	1	0	6.986957e+01
482.128021	1.292887	city	8	1	1.805327	1.805327	0	1	0	0	CorrectCommission	2.019328	0.698772	1	0	6.952174e+01
483.460846	1.372735	city	1	1	1.607433	1.607433	0	1	0	0	CorrectCommission	1.019501	0.725930	1	0	6.917391e+01
484.826996	1.359589	city	3	1	1.664710	1.664710	0	1	0	0	CorrectCommission	1.308882	0.759722	0	0	6.882609e+01
486.166626	1.319677	city	10	1	1.378073	1.378073	0	1	0	0	CorrectCommission	0.139301	0.801180	0	0	6.847826e+01
487.479523	1.306086	city	9	1	1.282122	1.282122	0	1	0	0	CorrectCommission	0.624078	0.851963	0	0	6.813043e+01
488.785767	1.306398	city	2	1	1.243694	1.243694	0	1	0	0	CorrectCommission	0.818231	0.914109	0	0	6.778261e+01
490.078735	1.279567	city	3	1	1.345706	1.345706	0	1	0	0	CorrectCommission	0.302832	0.989776	0	0	6.743478e+01
491.411591	1.386125	city	9	1	1.303909	1.303909	0	1	0	0	CorrectCommission	0.514006	1.080861	0	0	6.708696e+01
492.757721	1.306157	city	8	1	1.055946	1.055946	0	1	0	0	CorrectCommission	1.766798	1.188618	0	0	6.673913e+01
494.077332	1.333065	city	2	1	1.185575	1.185575	0	1	0	0	CorrectCommission	1.111866	1.313247	0	0	6.639130e+01
495.390320	1.292903	city	1	1	1.339156	1.339156	0	1	0	0	CorrectCommission	0.335927	1.453726	0	0	6.604348e+01
496.736542	1.399519	city	10	1	1.171364	1.171364	0	1	0	0	CorrectCommission	1.183665	1.607676	0	0	6.569565e+01
498.116089	1.359570	city	5	1	1.480529	1.480529	0	1	0	0	CorrectCommission	0.378341	1.771420	0	0	6.534783e+01
500.955261	4.318798	break	0	0	0.000000	1.789694	0	0	0	0	ThoughtProbe	1.940347	1.940347	0	65	65
