onset	duration	trial_type	image_type	Press	ReactionTime	ReactionTime_Interpolated	CorrectOmission	CorrectCommission	CommissionError	OmissionError	response_type	nonsmoothVarianceTimeCourse	VarianceTimeCourse	In_the_Zone	ThoughtProbe	ThoughtProbe_Interpolated
0.652910	1.279562	city	10	1	1.922201	1.922201	0	1	0	0	CorrectCommission	3.723011	3.723011	0	0	85
1.932408	1.279435	city	4	1	1.310588	1.310588	0	1	0	0	CorrectCommission	0.518118	3.271252	0	0	85
3.211992	1.279733	city	9	1	1.137058	1.137058	0	1	0	0	CorrectCommission	0.391189	2.833514	0	0	85
4.491636	1.279555	city	7	1	1.122903	1.122903	0	1	0	0	CorrectCommission	0.465362	2.422475	0	0	85
5.771184	1.279541	city	3	1	0.910578	0.910578	0	1	0	0	CorrectCommission	1.577959	2.048433	0	0	85
7.050769	1.279628	city	6	1	0.909588	0.909588	0	1	0	0	CorrectCommission	1.583145	1.718567	0	0	85
8.330299	1.279432	city	10	1	1.068571	1.068571	0	1	0	0	CorrectCommission	0.750066	1.436661	0	0	85
9.609889	1.279748	city	4	1	1.307331	1.307331	0	1	0	0	CorrectCommission	0.501054	1.203243	0	0	85
10.889462	1.279395	city	6	1	1.176827	1.176827	0	1	0	0	CorrectCommission	0.182796	1.015991	0	0	85
12.168949	1.279581	city	9	1	1.253617	1.253617	0	1	0	0	CorrectCommission	0.219589	0.870464	0	0	85
13.448620	1.279760	city	10	1	1.176955	1.176955	0	1	0	0	CorrectCommission	0.182126	0.760830	1	0	85
14.728204	1.279407	city	7	1	1.284748	1.284748	0	1	0	0	CorrectCommission	0.382718	0.680660	1	0	85
16.007774	1.279736	city	1	1	1.100165	1.100165	0	1	0	0	CorrectCommission	0.584510	0.623606	1	0	85
17.294098	1.292911	mountain	10	1	1.512805	1.512805	0	0	1	0	CommissionError	1.577752	0.583935	1	0	85
18.580341	1.279576	city	3	1	1.246936	1.246936	0	1	0	0	CorrectCommission	0.184580	0.556872	1	0	85
19.859840	1.279423	city	9	1	1.034033	1.034033	0	1	0	0	CorrectCommission	0.931048	0.538812	1	0	85
21.139418	1.279729	city	7	1	1.123174	1.123174	0	1	0	0	CorrectCommission	0.463944	0.527172	1	0	85
22.419083	1.279603	mountain	6	0	0.000000	1.183023	1	0	0	0	CorrectOmission	0.150332	0.520318	1	0	85
23.698668	1.279567	city	8	1	1.177554	1.177554	0	1	0	0	CorrectCommission	0.178986	0.517266	1	0	85
24.978249	1.279593	city	5	1	1.070743	1.070743	0	1	0	0	CorrectCommission	0.738686	0.517366	1	0	85
26.257833	1.279577	mountain	2	0	0.000000	1.213152	1	0	0	0	CorrectOmission	0.007547	0.520105	1	0	85
27.537327	1.279411	city	8	1	1.337175	1.337175	0	1	0	0	CorrectCommission	0.657436	0.524994	1	0	85
28.816879	1.279695	city	1	1	1.175205	1.175205	0	1	0	0	CorrectCommission	0.191295	0.531516	1	0	85
30.096474	1.279491	city	2	1	1.076458	1.076458	0	1	0	0	CorrectCommission	0.708739	0.539206	1	0	85
31.375998	1.279560	city	3	1	1.444317	1.444317	0	1	0	0	CorrectCommission	1.218868	0.547645	1	0	85
32.655621	1.279687	city	6	1	1.315688	1.315688	0	1	0	0	CorrectCommission	0.544841	0.556598	1	0	85
33.935200	1.279468	city	5	1	1.142609	1.142609	0	1	0	0	CorrectCommission	0.362103	0.566054	1	0	85
35.214794	1.279723	city	4	1	1.336561	1.336561	0	1	0	0	CorrectCommission	0.654220	0.576241	1	0	85
36.494457	1.279599	city	6	1	1.093868	1.093868	0	1	0	0	CorrectCommission	0.617507	0.587532	1	0	85
37.774036	1.279564	city	4	1	1.339301	1.339301	0	1	0	0	CorrectCommission	0.668577	0.600341	1	0	85
39.053608	1.279578	city	3	1	1.128154	1.128154	0	1	0	0	CorrectCommission	0.437844	0.614985	1	0	85
40.333107	1.279418	city	10	1	1.304569	1.304569	0	1	0	0	CorrectCommission	0.486577	0.631543	1	0	85
41.612694	1.279756	city	5	1	1.228348	1.228348	0	1	0	0	CorrectCommission	0.087176	0.649771	1	0	85
42.892365	1.279583	mountain	7	0	0.000000	1.321872	1	0	0	0	CorrectOmission	0.577249	0.669083	1	0	85
44.171898	1.279483	city	9	1	1.388363	1.388363	0	1	0	0	CorrectCommission	0.925664	0.688614	1	0	85
45.451397	1.279515	city	4	1	1.231041	1.231041	0	1	0	0	CorrectCommission	0.101287	0.707333	1	0	85
46.731010	1.279719	city	9	1	0.964424	0.964424	0	1	0	0	CorrectCommission	1.295802	0.724281	1	0	85
48.010670	1.279595	city	1	1	0.804951	0.804951	0	1	0	0	CorrectCommission	2.131451	0.738625	1	0	85
49.290253	1.279576	city	5	1	1.035677	1.035677	0	1	0	0	CorrectCommission	0.922432	0.749846	1	0	85
50.569824	1.279565	city	1	1	1.177370	1.177370	0	1	0	0	CorrectCommission	0.179954	0.757805	1	0	85
51.849331	1.279451	city	8	1	1.231027	1.231027	0	1	0	0	CorrectCommission	0.101212	0.762635	1	0	85
53.128857	1.279603	city	5	1	1.027840	1.027840	0	1	0	0	CorrectCommission	0.963496	0.764668	0	0	85
54.408501	1.279680	city	9	1	1.379352	1.379352	0	1	0	0	CorrectCommission	0.878447	0.764322	0	0	85
55.694756	1.292830	city	5	1	1.137036	1.137036	0	1	0	0	CorrectCommission	0.391302	0.761999	1	0	85
56.980927	1.279516	city	2	1	1.018115	1.018115	0	1	0	0	CorrectCommission	1.014457	0.758054	1	0	85
57.620686	8.663934	break	0	0	0.000000	1.299292	0	0	0	0	ThoughtProbe	0.458925	0.752723	1	85	85
66.931091	1.292948	city	8	1	1.562387	1.562387	0	1	0	0	CorrectCommission	1.837560	0.746170	1	0	8.519565e+01
68.217293	1.279458	city	4	1	1.389221	1.389221	0	1	0	0	CorrectCommission	0.930163	0.738486	1	0	8.539130e+01
69.496788	1.279528	city	10	1	1.179972	1.179972	0	1	0	0	CorrectCommission	0.166319	0.729755	1	0	8.558696e+01
70.776421	1.279737	mountain	6	0	0.000000	1.147073	1	0	0	0	CorrectOmission	0.338709	0.720050	1	0	8.578261e+01
72.056084	1.279590	city	7	1	1.143206	1.143206	0	1	0	0	CorrectCommission	0.358973	0.709408	1	0	8.597826e+01
73.335678	1.279593	city	5	1	1.021051	1.021051	0	1	0	0	CorrectCommission	0.999075	0.697897	1	0	8.617391e+01
74.615189	1.279429	city	6	1	1.074357	1.074357	0	1	0	0	CorrectCommission	0.719746	0.685645	1	0	8.636957e+01
75.894684	1.279558	city	7	1	0.983890	0.983890	0	1	0	0	CorrectCommission	1.193802	0.672897	1	0	8.656522e+01
77.174255	1.279589	mountain	1	0	0.000000	1.022961	1	0	0	0	CorrectOmission	0.989063	0.660018	1	0	8.676087e+01
78.453918	1.279735	city	3	1	1.129854	1.129854	0	1	0	0	CorrectCommission	0.428941	0.647559	1	0	8.695652e+01
79.733574	1.279586	city	10	1	1.242847	1.242847	0	1	0	0	CorrectCommission	0.163153	0.636231	1	0	8.715217e+01
81.013153	1.279572	city	4	1	1.298118	1.298118	0	1	0	0	CorrectCommission	0.452777	0.626898	1	0	8.734783e+01
82.292732	1.279585	mountain	10	1	1.391013	1.391013	0	0	1	0	CommissionError	0.939552	0.620477	1	0	8.754348e+01
83.578896	1.292731	city	2	1	1.221901	1.221901	0	1	0	0	CorrectCommission	0.053395	0.617860	1	0	8.773913e+01
84.865135	1.279752	city	3	1	1.023095	1.023095	0	1	0	0	CorrectCommission	0.988361	0.619918	1	0	8.793478e+01
86.144798	1.279574	city	6	1	1.021137	1.021137	0	1	0	0	CorrectCommission	0.998621	0.627316	1	0	8.813043e+01
87.424377	1.279586	city	3	1	1.231736	1.231736	0	1	0	0	CorrectCommission	0.104931	0.640451	1	0	8.832609e+01
88.703949	1.279555	city	2	1	1.310285	1.310285	0	1	0	0	CorrectCommission	0.516531	0.659383	1	0	8.852174e+01
89.990196	1.292949	city	10	1	1.109871	1.109871	0	1	0	0	CorrectCommission	0.533653	0.683719	1	0	8.871739e+01
91.276451	1.279562	city	1	1	1.195142	1.195142	0	1	0	0	CorrectCommission	0.086827	0.712636	1	0	8.891304e+01
92.555969	1.279466	city	9	1	1.394492	1.394492	0	1	0	0	CorrectCommission	0.957782	0.744886	1	0	8.910870e+01
93.835464	1.279532	city	6	1	1.131921	1.131921	0	1	0	0	CorrectCommission	0.418108	0.778892	0	0	8.930435e+01
95.115036	1.279605	city	10	1	0.924553	0.924553	0	1	0	0	CorrectCommission	1.504729	0.812870	0	0	8.950000e+01
96.394623	1.279568	city	8	1	1.081587	1.081587	0	1	0	0	CorrectCommission	0.681863	0.845003	0	0	8.969565e+01
97.707581	1.346345	city	3	1	1.047379	1.047379	0	1	0	0	CorrectCommission	0.861116	0.873673	0	0	8.989130e+01
99.020538	1.279578	city	5	1	1.542728	1.542728	0	1	0	0	CorrectCommission	1.734549	0.897561	0	0	9.008696e+01
100.306801	1.292938	city	7	1	1.457977	1.457977	0	1	0	0	CorrectCommission	1.290449	0.915752	0	0	9.028261e+01
101.592896	1.279261	city	9	1	1.293047	1.293047	0	1	0	0	CorrectCommission	0.426203	0.927821	0	0	9.047826e+01
102.872467	1.279881	city	10	1	1.341044	1.341044	0	1	0	0	CorrectCommission	0.677710	0.933817	0	0	9.067391e+01
104.152115	1.279416	city	7	1	1.399105	1.399105	0	1	0	0	CorrectCommission	0.981952	0.934183	0	0	9.086957e+01
105.438293	1.292934	mountain	8	0	0.000000	1.471396	1	0	0	0	CorrectOmission	1.360762	0.929688	0	0	9.106522e+01
106.724625	1.279736	city	8	1	1.427803	1.427803	0	1	0	0	CorrectCommission	1.132334	0.921320	0	0	9.126087e+01
108.010933	1.292880	city	7	1	1.138213	1.138213	0	1	0	0	CorrectCommission	0.385139	0.910184	0	0	9.145652e+01
109.297165	1.279587	city	2	1	0.925519	0.925519	0	1	0	0	CorrectCommission	1.499667	0.897381	0	0	9.165217e+01
110.576752	1.279585	city	6	1	0.918279	0.918279	0	1	0	0	CorrectCommission	1.537605	0.883838	0	0	9.184783e+01
111.862907	1.292728	city	1	1	1.205496	1.205496	0	1	0	0	CorrectCommission	0.032569	0.870268	0	0	9.204348e+01
113.149162	1.279771	city	2	1	1.343774	1.343774	0	1	0	0	CorrectCommission	0.692013	0.857061	0	0	9.223913e+01
114.428825	1.279567	city	10	1	1.185634	1.185634	0	1	0	0	CorrectCommission	0.136646	0.844214	0	0	9.243478e+01
115.708328	1.279429	city	2	1	1.311808	1.311808	0	1	0	0	CorrectCommission	0.524514	0.831457	0	0	9.263043e+01
116.994484	1.292890	city	5	1	1.034744	1.034744	0	1	0	0	CorrectCommission	0.927321	0.818300	0	0	9.282609e+01
118.280815	1.279769	city	10	1	0.821152	0.821152	0	1	0	0	CorrectCommission	2.046559	0.804193	0	0	9.302174e+01
119.560509	1.279615	city	6	1	1.017728	1.017728	0	1	0	0	CorrectCommission	1.016488	0.788689	0	0	9.321739e+01
120.846657	1.292685	city	1	1	1.035801	1.035801	0	1	0	0	CorrectCommission	0.921782	0.771586	0	0	9.341304e+01
122.132866	1.279732	city	8	1	1.129877	1.129877	0	1	0	0	CorrectCommission	0.428818	0.752938	1	0	9.360870e+01
123.419197	1.292928	city	10	1	1.050642	1.050642	0	1	0	0	CorrectCommission	0.844016	0.733023	1	0	9.380435e+01
124.065659	9.370233	break	0	0	0.000000	1.156335	0	0	0	0	ThoughtProbe	0.290175	0.712275	1	94	94
134.075623	1.279446	city	5	1	1.288283	1.288283	0	1	0	0	CorrectCommission	0.401239	0.691159	1	0	9.397059e+01
135.355286	1.279880	city	7	1	1.287811	1.287811	0	1	0	0	CorrectCommission	0.398764	0.670080	1	0	9.394118e+01
136.641586	1.292730	city	9	1	0.998599	0.998599	0	1	0	0	CorrectCommission	1.116722	0.649309	1	0	9.391176e+01
137.947739	1.319590	city	10	1	1.002364	1.002364	0	1	0	0	CorrectCommission	1.096992	0.629001	1	0	9.388235e+01
139.247330	1.279578	mountain	1	0	0.000000	1.136013	1	0	0	0	CorrectOmission	0.396665	0.609247	1	0	9.385294e+01
140.526810	1.279397	city	6	1	1.238060	1.238060	0	1	0	0	CorrectCommission	0.138068	0.590156	1	0	9.382353e+01
141.832962	1.332891	city	9	1	1.147020	1.147020	0	1	0	0	CorrectCommission	0.338989	0.571936	1	0	9.379412e+01
143.145935	1.293055	city	6	1	0.970212	0.970212	0	1	0	0	CorrectCommission	1.265475	0.554963	1	0	9.376471e+01
144.446075	1.307227	city	8	1	1.038666	1.038666	0	1	0	0	CorrectCommission	0.906770	0.539798	1	0	9.373529e+01
145.738968	1.278560	city	1	1	1.191848	1.191848	0	1	0	0	CorrectCommission	0.104084	0.527179	1	0	9.370588e+01
147.018112	1.279717	city	6	1	1.176840	1.176840	0	1	0	0	CorrectCommission	0.182727	0.517933	1	0	9.367647e+01
148.304306	1.292672	city	4	1	1.305222	1.305222	0	1	0	0	CorrectCommission	0.490002	0.512861	1	0	9.364706e+01
149.590500	1.279727	city	1	1	1.374601	1.374601	0	1	0	0	CorrectCommission	0.853550	0.512529	1	0	9.361765e+01
150.876755	1.292779	city	10	1	1.192376	1.192376	0	1	0	0	CorrectCommission	0.101321	0.517168	1	0	9.358824e+01
152.189667	1.333042	city	5	1	1.178977	1.178977	0	1	0	0	CorrectCommission	0.171534	0.526576	1	0	9.355882e+01
153.509338	1.306305	city	8	1	1.256918	1.256918	0	1	0	0	CorrectCommission	0.236887	0.540052	1	0	9.352941e+01
154.802155	1.279331	city	3	1	1.133992	1.133992	0	1	0	0	CorrectCommission	0.407257	0.556416	1	0	9.350000e+01
156.081680	1.279708	city	6	1	1.132304	1.132304	0	1	0	0	CorrectCommission	0.416099	0.574223	1	0	9.347059e+01
157.361328	1.279602	city	1	1	0.980660	0.980660	0	1	0	0	CorrectCommission	1.210727	0.591961	1	0	9.344118e+01
158.647614	1.292971	city	5	1	1.252934	1.252934	0	1	0	0	CorrectCommission	0.216009	0.608286	1	0	9.341176e+01
159.933868	1.279548	city	4	1	1.556230	1.556230	0	1	0	0	CorrectCommission	1.805298	0.622259	1	0	9.338235e+01
161.213440	1.279576	city	3	1	1.079938	1.079938	0	1	0	0	CorrectCommission	0.690500	0.633437	1	0	9.335294e+01
162.492920	1.279397	city	2	1	1.345829	1.345829	0	1	0	0	CorrectCommission	0.702783	0.642009	1	0	9.332353e+01
163.772507	1.279755	mountain	6	0	0.000000	1.275879	1	0	0	0	CorrectOmission	0.336242	0.648655	1	0	9.329412e+01
165.052109	1.279475	city	9	1	1.188654	1.188654	0	1	0	0	CorrectCommission	0.120825	0.654406	1	0	9.326471e+01
166.331696	1.279671	city	4	1	1.402717	1.402717	0	1	0	0	CorrectCommission	1.000881	0.660405	1	0	9.323529e+01
167.611282	1.279508	city	2	1	1.435612	1.435612	0	1	0	0	CorrectCommission	1.173255	0.667631	1	0	9.320588e+01
168.897446	1.292841	city	4	1	1.252668	1.252668	0	1	0	0	CorrectCommission	0.214614	0.676721	1	0	9.317647e+01
170.203644	1.319549	city	2	1	1.190005	1.190005	0	1	0	0	CorrectCommission	0.113746	0.687817	1	0	9.314706e+01
171.511597	1.296355	city	9	1	1.253492	1.253492	0	1	0	0	CorrectCommission	0.218933	0.700458	1	0	9.311765e+01
172.797867	1.276176	city	3	1	0.970962	0.970962	0	1	0	0	CorrectCommission	1.261540	0.713685	1	0	9.308824e+01
174.075729	1.279544	city	7	1	1.248716	1.248716	0	1	0	0	CorrectCommission	0.193907	0.726190	1	0	9.305882e+01
175.355362	1.279732	city	9	1	1.356688	1.356688	0	1	0	0	CorrectCommission	0.759687	0.736630	1	0	9.302941e+01
179.960510	7.930575	break	0	0	0.000000	1.551106	0	0	0	0	ThoughtProbe	1.778451	0.743782	1	93	93
184.565674	1.279746	city	2	1	1.580048	1.580048	0	1	0	0	CorrectCommission	1.930109	0.746831	1	0	93
185.851929	1.292772	city	1	1	1.191592	1.191592	0	1	0	0	CorrectCommission	0.105429	0.745552	1	0	93
187.138168	1.279694	mountain	5	0	0.000000	1.186615	1	0	0	0	CorrectOmission	0.131508	0.740340	1	0	93
188.417725	1.279426	mountain	9	0	0.000000	1.350067	1	0	0	0	CorrectOmission	0.724994	0.732099	1	0	93
189.697311	1.279751	city	1	1	1.466899	1.466899	0	1	0	0	CorrectCommission	1.337201	0.722088	1	0	93
190.976974	1.279548	city	7	1	1.322061	1.322061	0	1	0	0	CorrectCommission	0.578237	0.711722	1	0	93
192.269867	1.306261	city	10	1	1.114526	1.114526	0	1	0	0	CorrectCommission	0.509258	0.702360	1	0	93
193.562820	1.279649	city	2	1	1.304369	1.304369	0	1	0	0	CorrectCommission	0.485530	0.695071	1	0	93
194.842438	1.279574	city	7	1	1.291983	1.291983	0	1	0	0	CorrectCommission	0.420627	0.690461	1	0	93
196.128647	1.292844	city	5	1	1.329787	1.329787	0	1	0	0	CorrectCommission	0.618725	0.688660	1	0	93
197.421509	1.292888	city	8	1	1.360746	1.360746	0	1	0	0	CorrectCommission	0.780952	0.689297	1	0	93
198.714371	1.292843	city	10	1	1.193234	1.193234	0	1	0	0	CorrectCommission	0.096823	0.691644	1	0	93
200.007233	1.292858	city	5	1	1.037419	1.037419	0	1	0	0	CorrectCommission	0.913301	0.694811	1	0	93
201.293518	1.279710	city	10	1	0.968999	0.968999	0	1	0	0	CorrectCommission	1.271830	0.697856	1	0	93
202.573166	1.279582	city	4	1	1.389903	1.389903	0	1	0	0	CorrectCommission	0.933733	0.700036	1	0	93
203.852661	1.279409	mountain	1	0	0.000000	1.349016	1	0	0	0	CorrectOmission	0.719486	0.700969	1	0	93
205.132233	1.279747	city	6	1	1.124629	1.124629	0	1	0	0	CorrectCommission	0.456318	0.700656	1	0	93
206.418472	1.292747	city	1	1	0.995030	0.995030	0	1	0	0	CorrectCommission	1.135423	0.699480	1	0	93
207.711304	1.292900	city	7	1	1.190370	1.190370	0	1	0	0	CorrectCommission	0.111832	0.698032	1	0	93
208.997620	1.279726	city	3	1	1.033827	1.033827	0	1	0	0	CorrectCommission	0.932127	0.697070	1	0	93
210.277191	1.279431	city	4	1	1.451177	1.451177	0	1	0	0	CorrectCommission	1.254813	0.697230	1	0	93
211.556793	1.279764	city	5	1	1.243097	1.243097	0	1	0	0	CorrectCommission	0.164462	0.698900	1	0	93
212.849716	1.306089	city	9	1	1.267585	1.267585	0	1	0	0	CorrectCommission	0.292778	0.702128	1	0	93
214.155945	1.306351	city	8	1	1.197747	1.197747	0	1	0	0	CorrectCommission	0.073175	0.706560	1	0	93
215.448914	1.279601	city	4	1	1.135011	1.135011	0	1	0	0	CorrectCommission	0.401916	0.711479	1	0	93
216.728516	1.279604	city	6	1	0.921655	0.921655	0	1	0	0	CorrectCommission	1.519917	0.715917	1	0	93
218.008057	1.279458	city	8	1	0.971728	0.971728	0	1	0	0	CorrectCommission	1.257528	0.718801	1	0	93
219.300888	1.306234	city	2	1	1.038337	1.038337	0	1	0	0	CorrectCommission	0.908493	0.719158	1	0	93
220.593781	1.279546	city	5	1	0.974157	0.974157	0	1	0	0	CorrectCommission	1.244803	0.716226	1	0	93
221.873322	1.279540	city	3	1	1.231578	1.231578	0	1	0	0	CorrectCommission	0.104103	0.709504	1	0	93
223.152893	1.279589	city	2	1	1.309620	1.309620	0	1	0	0	CorrectCommission	0.513048	0.698817	1	0	93
224.439148	1.292914	city	3	1	1.474618	1.474618	0	1	0	0	CorrectCommission	1.377644	0.684206	1	0	93
225.732040	1.292881	city	1	1	1.196012	1.196012	0	1	0	0	CorrectCommission	0.082268	0.665920	1	0	93
227.031601	1.306234	city	5	1	1.199768	1.199768	0	1	0	0	CorrectCommission	0.062584	0.644443	1	0	93
228.324539	1.279650	city	1	1	1.361687	1.361687	0	1	0	0	CorrectCommission	0.785879	0.620439	1	0	93
229.604126	1.279519	city	5	1	1.413409	1.413409	0	1	0	0	CorrectCommission	1.056910	0.594794	1	0	93
230.897079	1.306388	city	4	1	1.494307	1.494307	0	1	0	0	CorrectCommission	1.480820	0.568681	1	0	93
232.190079	1.279605	city	7	1	1.127809	1.127809	0	1	0	0	CorrectCommission	0.439654	0.543571	1	0	93
233.489670	1.319583	city	2	1	1.133854	1.133854	0	1	0	0	CorrectCommission	0.407979	0.521192	1	0	93
234.149460	8.690287	break	0	0	0.000000	1.161948	0	0	0	0	ThoughtProbe	0.260764	0.503344	1	93	93
243.479630	1.279767	city	7	1	1.199625	1.199625	0	1	0	0	CorrectCommission	0.063336	0.491758	1	0	9.295652e+01
244.759293	1.279558	mountain	10	0	0.000000	1.234417	1	0	0	0	CorrectOmission	0.118979	0.487833	1	0	9.291304e+01
246.038925	1.279690	city	10	1	1.240649	1.240649	0	1	0	0	CorrectCommission	0.151633	0.492440	1	0	9.286957e+01
247.318420	1.279325	city	8	1	1.192643	1.192643	0	1	0	0	CorrectCommission	0.099919	0.505749	1	0	9.282609e+01
248.604568	1.292958	city	1	1	1.107802	1.107802	0	1	0	0	CorrectCommission	0.544492	0.527151	1	0	9.278261e+01
249.890884	1.279671	city	7	1	1.396209	1.396209	0	1	0	0	CorrectCommission	0.966778	0.555265	1	0	9.273913e+01
251.183746	1.306053	city	9	1	1.154022	1.154022	0	1	0	0	CorrectCommission	0.302296	0.588059	1	0	9.269565e+01
252.476562	1.279582	city	10	1	1.136812	1.136812	0	1	0	0	CorrectCommission	0.392476	0.623019	1	0	9.265217e+01
253.762894	1.293082	city	7	1	1.327913	1.327913	0	1	0	0	CorrectCommission	0.608902	0.657389	1	0	9.260870e+01
255.069214	1.319551	city	6	1	1.010795	1.010795	0	1	0	0	CorrectCommission	1.052818	0.688443	1	0	9.256522e+01
256.368744	1.279490	city	4	1	1.354678	1.354678	0	1	0	0	CorrectCommission	0.749154	0.713754	1	0	9.252174e+01
257.668304	1.319656	city	1	1	1.005276	1.005276	0	1	0	0	CorrectCommission	1.081737	0.731472	1	0	9.247826e+01
258.974518	1.292754	city	3	1	1.357594	1.357594	0	1	0	0	CorrectCommission	0.764433	0.740479	1	0	9.243478e+01
260.260681	1.279611	mountain	8	0	0.000000	1.513798	1	0	0	0	CorrectOmission	1.582950	0.740522	1	0	9.239130e+01
261.540283	1.279593	city	5	1	1.455206	1.455206	0	1	0	0	CorrectCommission	1.275928	0.732240	1	0	9.234783e+01
262.839874	1.319546	city	6	1	1.163140	1.163140	0	1	0	0	CorrectCommission	0.254519	0.717130	1	0	9.230435e+01
264.152802	1.306360	city	5	1	1.043707	1.043707	0	1	0	0	CorrectCommission	0.880352	0.697362	1	0	9.226087e+01
265.445801	1.279586	city	6	1	1.136182	1.136182	0	1	0	0	CorrectCommission	0.395781	0.675553	1	0	9.221739e+01
266.732056	1.292974	city	2	1	1.258480	1.258480	0	1	0	0	CorrectCommission	0.245068	0.654492	1	0	9.217391e+01
268.018280	1.279420	city	9	1	1.095124	1.095124	0	1	0	0	CorrectCommission	0.610924	0.636921	1	0	9.213043e+01
269.297821	1.279673	mountain	2	0	0.000000	1.294865	1	0	0	0	CorrectOmission	0.435730	0.625249	1	0	9.208696e+01
270.577362	1.279423	city	3	1	1.460530	1.460530	0	1	0	0	CorrectCommission	1.303825	0.621361	1	0	9.204348e+01
271.856903	1.279688	city	8	1	1.194948	1.194948	0	1	0	0	CorrectCommission	0.087841	0.626447	1	0	92
273.136536	1.279555	city	10	1	1.188525	1.188525	0	1	0	0	CorrectCommission	0.121498	0.640905	1	0	9.195652e+01
274.416168	1.279689	city	1	1	1.189302	1.189302	0	1	0	0	CorrectCommission	0.117429	0.664252	1	0	9.191304e+01
275.695679	1.279370	city	3	1	1.378118	1.378118	0	1	0	0	CorrectCommission	0.871983	0.695175	1	0	9.186957e+01
276.988525	1.306328	city	7	1	1.168644	1.168644	0	1	0	0	CorrectCommission	0.225674	0.731622	1	0	9.182609e+01
278.288116	1.292823	city	3	1	1.082381	1.082381	0	1	0	0	CorrectCommission	0.677698	0.771034	0	0	9.178261e+01
279.574310	1.279573	city	6	1	1.089733	1.089733	0	1	0	0	CorrectCommission	0.639174	0.810584	0	0	9.173913e+01
280.867249	1.306299	city	8	1	0.895814	0.895814	0	1	0	0	CorrectCommission	1.655322	0.847453	0	0	9.169565e+01
282.160248	1.279686	city	6	1	0.872036	0.872036	0	1	0	0	CorrectCommission	1.779921	0.879087	0	0	9.165217e+01
283.439880	1.279590	city	1	1	0.979733	0.979733	0	1	0	0	CorrectCommission	1.215582	0.903446	0	0	9.160870e+01
284.719452	1.279563	city	7	1	1.074443	1.074443	0	1	0	0	CorrectCommission	0.719295	0.919176	0	0	9.156522e+01
285.998932	1.279419	city	9	1	1.138804	1.138804	0	1	0	0	CorrectCommission	0.382038	0.925604	0	0	9.152174e+01
287.278442	1.279598	city	4	1	1.029347	1.029347	0	1	0	0	CorrectCommission	0.955601	0.922780	0	0	9.147826e+01
288.558105	1.279722	mountain	2	0	0.000000	1.420709	1	0	0	0	CorrectOmission	1.095160	0.911437	0	0	9.143478e+01
289.837677	1.279418	city	4	1	1.673586	1.673586	0	1	0	0	CorrectCommission	2.420253	0.892954	0	0	9.139130e+01
291.123962	1.293113	city	8	1	1.148676	1.148676	0	1	0	0	CorrectCommission	0.330313	0.869232	0	0	9.134783e+01
292.423615	1.306193	city	5	1	1.120414	1.120414	0	1	0	0	CorrectCommission	0.478405	0.842689	0	0	9.130435e+01
293.716492	1.279596	city	4	1	1.289754	1.289754	0	1	0	0	CorrectCommission	0.408947	0.816034	0	0	9.126087e+01
295.002747	1.292908	city	2	1	1.113855	1.113855	0	1	0	0	CorrectCommission	0.512776	0.792154	0	0	9.121739e+01
296.288910	1.279419	city	6	1	0.869844	0.869844	0	1	0	0	CorrectCommission	1.791408	0.773882	0	0	9.117391e+01
297.568451	1.279646	city	4	1	1.347767	1.347767	0	1	0	0	CorrectCommission	0.712938	0.763734	0	0	9.113043e+01
298.861420	1.306317	city	1	1	1.094449	1.094449	0	1	0	0	CorrectCommission	0.614464	0.763672	0	0	9.108696e+01
300.154297	1.279413	city	7	1	1.192473	1.192473	0	1	0	0	CorrectCommission	0.100814	0.774752	0	0	9.104348e+01
304.092926	6.597877	break	0	0	0.000000	1.191640	0	0	0	0	ThoughtProbe	0.105175	0.796926	0	91	91
308.044983	1.306195	city	8	1	1.212858	1.212858	0	1	0	0	CorrectCommission	0.006009	0.828870	0	0	9.117647e+01
309.337860	1.279591	city	7	1	1.377033	1.377033	0	1	0	0	CorrectCommission	0.866296	0.868049	0	0	9.135294e+01
310.637512	1.319704	city	9	1	1.151484	1.151484	0	1	0	0	CorrectCommission	0.315598	0.910924	0	0	9.152941e+01
311.957153	1.319591	city	2	1	1.096721	1.096721	0	1	0	0	CorrectCommission	0.602557	0.953412	0	0	9.170588e+01
313.270081	1.306236	city	1	1	0.900421	0.900421	0	1	0	0	CorrectCommission	1.631180	0.991374	0	0	9.188235e+01
314.562958	1.279546	city	2	1	0.549802	0.549802	0	1	0	0	CorrectCommission	3.468448	1.021151	0	0	9.205882e+01
315.842560	1.279645	city	10	1	0.910838	0.910838	0	1	0	0	CorrectCommission	1.576595	1.040062	0	0	9.223529e+01
317.122070	1.279383	city	2	1	1.241918	1.241918	0	1	0	0	CorrectCommission	0.158286	1.046802	0	0	9.241176e+01
318.401581	1.279609	mountain	8	0	0.000000	1.499627	1	0	0	0	CorrectOmission	1.508695	1.041439	0	0	9.258824e+01
319.681183	1.279598	city	4	1	1.560586	1.560586	0	1	0	0	CorrectCommission	1.828123	1.025250	0	0	9.276471e+01
320.960724	1.279530	city	5	1	1.301417	1.301417	0	1	0	0	CorrectCommission	0.470063	1.000447	0	0	9.294118e+01
322.240356	1.279733	city	4	1	1.352428	1.352428	0	1	0	0	CorrectCommission	0.737362	0.969818	0	0	9.311765e+01
323.533295	1.306121	city	3	1	1.096805	1.096805	0	1	0	0	CorrectCommission	0.602117	0.936207	0	0	9.329412e+01
324.826202	1.279688	city	10	1	1.097527	1.097527	0	1	0	0	CorrectCommission	0.598334	0.902263	0	0	9.347059e+01
326.105774	1.279468	city	3	1	1.296414	1.296414	0	1	0	0	CorrectCommission	0.443847	0.870188	0	0	9.364706e+01
327.385315	1.279616	city	8	1	1.072207	1.072207	0	1	0	0	CorrectCommission	0.731011	0.841678	0	0	9.382353e+01
328.671631	1.292980	city	5	1	0.884482	0.884482	0	1	0	0	CorrectCommission	1.714704	0.817957	0	0	94
329.964447	1.292695	city	6	1	1.335395	1.335395	0	1	0	0	CorrectCommission	0.648109	0.799841	0	0	9.417647e+01
331.257385	1.293145	city	4	1	1.467516	1.467516	0	1	0	0	CorrectCommission	1.340431	0.787963	0	0	9.435294e+01
332.543671	1.279467	city	9	1	1.206653	1.206653	0	1	0	0	CorrectCommission	0.026508	0.782780	0	0	9.452941e+01
333.823212	1.279620	city	6	1	1.356147	1.356147	0	1	0	0	CorrectCommission	0.756852	0.784692	0	0	9.470588e+01
335.116089	1.306136	city	8	1	1.216197	1.216197	0	1	0	0	CorrectCommission	0.023503	0.793923	0	0	9.488235e+01
336.409027	1.279731	city	5	1	1.027437	1.027437	0	1	0	0	CorrectCommission	0.965610	0.810570	0	0	9.505882e+01
337.688690	1.279577	mountain	1	0	0.000000	1.055561	1	0	0	0	CorrectOmission	0.818237	0.834399	0	0	9.523529e+01
338.988220	1.319463	city	1	1	1.123926	1.123926	0	1	0	0	CorrectCommission	0.460003	0.864891	0	0	9.541176e+01
340.301117	1.306339	city	10	1	1.055886	1.055886	0	1	0	0	CorrectCommission	0.816534	0.901158	0	0	9.558824e+01
341.593994	1.279455	city	7	1	1.427669	1.427669	0	1	0	0	CorrectCommission	1.131631	0.941893	0	0	9.576471e+01
342.880249	1.293036	city	5	1	1.443651	1.443651	0	1	0	0	CorrectCommission	1.215376	0.985400	0	0	9.594118e+01
344.186554	1.319571	city	6	1	1.444720	1.444720	0	1	0	0	CorrectCommission	1.220977	1.029708	0	0	9.611765e+01
345.486053	1.279429	city	8	1	1.090833	1.090833	0	1	0	0	CorrectCommission	0.633410	1.072640	0	0	9.629412e+01
346.772308	1.293090	city	3	1	1.004673	1.004673	0	1	0	0	CorrectCommission	1.084897	1.111891	0	0	9.647059e+01
348.058624	1.279538	city	2	1	1.463087	1.463087	0	1	0	0	CorrectCommission	1.317224	1.145171	0	0	9.664706e+01
349.364777	1.332762	city	8	1	1.374541	1.374541	0	1	0	0	CorrectCommission	0.853238	1.170446	0	0	9.682353e+01
352.756927	5.451518	break	0	0	0.000000	1.445954	0	0	0	0	ThoughtProbe	1.227444	1.186151	0	97	97
356.122467	1.279594	city	9	1	1.576903	1.576903	0	1	0	0	CorrectCommission	1.913626	1.191343	0	0	9.680000e+01
357.422119	1.319710	city	5	1	1.666967	1.666967	0	1	0	0	CorrectCommission	2.385569	1.185898	0	0	9.660000e+01
358.735107	1.306255	city	10	1	1.500145	1.500145	0	1	0	0	CorrectCommission	1.511407	1.170537	0	0	9.640000e+01
360.048004	1.319528	city	4	1	1.409484	1.409484	0	1	0	0	CorrectCommission	1.036340	1.146841	0	0	9.620000e+01
361.387573	1.359586	city	6	1	0.992659	0.992659	0	1	0	0	CorrectCommission	1.147848	1.117009	0	0	96
362.713715	1.292744	mountain	7	0	0.000000	1.011395	1	0	0	0	CorrectOmission	1.049672	1.083624	0	0	9.580000e+01
363.999878	1.279567	city	5	1	1.231795	1.231795	0	1	0	0	CorrectCommission	0.105236	1.049352	0	0	9.560000e+01
365.279480	1.279632	city	4	1	1.419962	1.419962	0	1	0	0	CorrectCommission	1.091245	1.016673	0	0	9.540000e+01
366.565826	1.293081	city	10	1	1.259339	1.259339	0	1	0	0	CorrectCommission	0.249573	0.987557	0	0	9.520000e+01
367.858795	1.292861	mountain	4	0	0.000000	1.421475	1	0	0	0	CorrectOmission	1.099173	0.963439	0	0	95
369.145020	1.279552	city	3	1	1.555863	1.555863	0	1	0	0	CorrectCommission	1.803375	0.945067	0	0	9.480000e+01
370.431244	1.292923	city	1	1	1.311998	1.311998	0	1	0	0	CorrectCommission	0.525507	0.932561	0	0	9.460000e+01
371.724091	1.292761	city	9	1	1.138388	1.138388	0	1	0	0	CorrectCommission	0.384219	0.925539	0	0	9.440000e+01
373.016998	1.293056	city	10	1	0.993801	0.993801	0	1	0	0	CorrectCommission	1.141867	0.923117	0	0	9.420000e+01
374.309937	1.292790	city	4	1	1.472044	1.472044	0	1	0	0	CorrectCommission	1.364159	0.924020	0	0	94
375.596069	1.279526	city	10	1	1.364024	1.364024	0	1	0	0	CorrectCommission	0.798129	0.926693	0	0	9.380000e+01
376.902283	1.332899	city	5	1	1.282789	1.282789	0	1	0	0	CorrectCommission	0.372450	0.929409	0	0	9.360000e+01
378.215240	1.292978	city	6	1	1.247574	1.247574	0	1	0	0	CorrectCommission	0.187924	0.930375	0	0	9.340000e+01
379.514893	1.306327	city	8	1	0.931757	0.931757	0	1	0	0	CorrectCommission	1.466980	0.927913	0	0	9.320000e+01
380.814514	1.292913	city	6	1	0.993849	0.993849	0	1	0	0	CorrectCommission	1.141612	0.920637	0	0	93
382.107361	1.292775	city	10	1	0.804631	0.804631	0	1	0	0	CorrectCommission	2.133130	0.907712	0	0	9.280000e+01
383.393585	1.279703	mountain	2	0	0.000000	1.101430	1	0	0	0	CorrectOmission	0.577880	0.888964	0	0	9.260000e+01
384.673218	1.279577	city	6	1	1.448209	1.448209	0	1	0	0	CorrectCommission	1.239262	0.865078	0	0	9.240000e+01
385.952820	1.279581	city	9	1	1.408926	1.408926	0	1	0	0	CorrectCommission	1.033418	0.837459	0	0	9.220000e+01
387.258972	1.332734	city	6	1	1.174671	1.174671	0	1	0	0	CorrectCommission	0.194094	0.808185	0	0	92
388.565155	1.279670	city	5	1	0.964268	0.964268	0	1	0	0	CorrectCommission	1.296622	0.779765	0	0	9.180000e+01
389.851501	1.293000	city	2	1	1.090036	1.090036	0	1	0	0	CorrectCommission	0.637587	0.754772	1	0	9.160000e+01
391.151123	1.306216	city	3	1	1.196776	1.196776	0	1	0	0	CorrectCommission	0.078264	0.735562	1	0	9.140000e+01
392.443939	1.279426	city	1	1	1.283996	1.283996	0	1	0	0	CorrectCommission	0.378774	0.723957	1	0	9.120000e+01
393.723541	1.279823	city	4	1	1.376620	1.376620	0	1	0	0	CorrectCommission	0.864130	0.720984	1	0	91
395.023193	1.319477	city	7	1	1.186076	1.186076	0	1	0	0	CorrectCommission	0.134331	0.726769	1	0	9.080000e+01
396.322723	1.279576	city	4	1	1.145701	1.145701	0	1	0	0	CorrectCommission	0.345897	0.740592	1	0	9.060000e+01
397.608917	1.292821	city	9	1	1.160350	1.160350	0	1	0	0	CorrectCommission	0.269138	0.761004	1	0	9.040000e+01
398.908417	1.306177	city	8	1	1.043202	1.043202	0	1	0	0	CorrectCommission	0.883003	0.786145	0	0	9.020000e+01
400.234711	1.346397	city	3	1	0.942046	0.942046	0	1	0	0	CorrectCommission	1.413065	0.814006	0	0	90
401.554382	1.292917	city	8	1	0.871587	0.871587	0	1	0	0	CorrectCommission	1.782272	0.842783	0	0	8.980000e+01
402.840576	1.279461	city	9	1	1.362903	1.362903	0	1	0	0	CorrectCommission	0.792251	0.871094	0	0	8.960000e+01
404.120087	1.279597	city	8	1	1.039889	1.039889	0	1	0	0	CorrectCommission	0.900359	0.898169	0	0	8.940000e+01
405.406342	1.292925	city	6	1	0.987196	0.987196	0	1	0	0	CorrectCommission	1.176473	0.923831	0	0	8.920000e+01
409.325104	6.544564	break	0	0	0.000000	1.149990	0	0	0	0	ThoughtProbe	0.323426	0.948400	0	89	89
413.250519	1.306253	city	3	1	1.218198	1.218198	0	1	0	0	CorrectCommission	0.033989	0.972525	0	0	8.929412e+01
414.563324	1.319383	city	1	1	0.881749	0.881749	0	1	0	0	CorrectCommission	1.729024	0.996982	0	0	8.958824e+01
415.862793	1.279580	city	4	1	1.460920	1.460920	0	1	0	0	CorrectCommission	1.305866	1.022445	0	0	8.988235e+01
417.149139	1.293072	city	9	1	1.034459	1.034459	0	1	0	0	CorrectCommission	0.928814	1.049394	0	0	9.017647e+01
418.435455	1.279556	city	8	1	1.028689	1.028689	0	1	0	0	CorrectCommission	0.959050	1.077946	0	0	9.047059e+01
419.721710	1.292966	city	10	1	0.970837	0.970837	0	1	0	0	CorrectCommission	1.262196	1.107797	0	0	9.076471e+01
421.007935	1.279480	city	5	1	1.030792	1.030792	0	1	0	0	CorrectCommission	0.948029	1.138193	0	0	9.105882e+01
422.294159	1.292994	mountain	5	0	0.000000	1.365243	1	0	0	0	CorrectOmission	0.804516	1.167964	0	0	9.135294e+01
423.580444	1.279575	city	2	1	1.539582	1.539582	0	1	0	0	CorrectCommission	1.718063	1.195596	0	0	9.164706e+01
424.873291	1.306087	city	8	1	1.119201	1.119201	0	1	0	0	CorrectCommission	0.484763	1.219344	0	0	9.194118e+01
426.186096	1.319539	city	6	1	1.038175	1.038175	0	1	0	0	CorrectCommission	0.909342	1.237483	0	0	9.223529e+01
427.512329	1.332942	city	8	1	0.834168	0.834168	0	1	0	0	CorrectCommission	1.978351	1.248437	0	0	9.252941e+01
428.825287	1.292957	city	10	1	0.729268	0.729268	0	1	0	0	CorrectCommission	2.528037	1.251035	0	0	9.282353e+01
430.131561	1.319622	city	1	1	0.952648	0.952648	0	1	0	0	CorrectCommission	1.357510	1.244667	0	0	9.311765e+01
431.451080	1.319410	city	5	1	1.575305	1.575305	0	1	0	0	CorrectCommission	1.905253	1.229405	0	0	9.341176e+01
432.763916	1.306265	city	6	1	1.335719	1.335719	0	1	0	0	CorrectCommission	0.649808	1.205946	0	0	9.370588e+01
434.070251	1.306393	city	3	1	1.151065	1.151065	0	1	0	0	CorrectCommission	0.317792	1.175589	0	0	94
435.369843	1.292750	city	10	1	0.929279	0.929279	0	1	0	0	CorrectCommission	1.479967	1.140006	0	0	9.429412e+01
436.662659	1.292889	city	7	1	1.483711	1.483711	0	1	0	0	CorrectCommission	1.425297	1.101143	0	0	9.458824e+01
437.968964	1.319725	mountain	6	0	0.000000	1.394589	1	0	0	0	CorrectOmission	0.958289	1.061091	0	0	9.488235e+01
439.281952	1.306248	city	8	1	1.045061	1.045061	0	1	0	0	CorrectCommission	0.873261	1.021934	0	0	9.517647e+01
440.574860	1.279583	city	6	1	0.818276	0.818276	0	1	0	0	CorrectCommission	2.061628	0.985603	0	0	9.547059e+01
441.861053	1.292820	city	10	1	1.141017	1.141017	0	1	0	0	CorrectCommission	0.370444	0.953739	0	0	9.576471e+01
443.153961	1.292977	city	3	1	1.206302	1.206302	0	1	0	0	CorrectCommission	0.028348	0.927635	0	0	9.605882e+01
444.440247	1.279601	city	4	1	1.337488	1.337488	0	1	0	0	CorrectCommission	0.659076	0.908064	0	0	9.635294e+01
445.726410	1.292732	city	6	1	1.148545	1.148545	0	1	0	0	CorrectCommission	0.330999	0.895212	0	0	9.664706e+01
447.012573	1.279590	city	9	1	1.457418	1.457418	0	1	0	0	CorrectCommission	1.287516	0.888679	0	0	9.694118e+01
448.298920	1.293104	city	3	1	1.507564	1.507564	0	1	0	0	CorrectCommission	1.550284	0.887435	0	0	9.723529e+01
449.605255	1.319576	city	7	1	1.356004	1.356004	0	1	0	0	CorrectCommission	0.756101	0.889929	0	0	9.752941e+01
450.918182	1.306240	city	4	1	1.386759	1.386759	0	1	0	0	CorrectCommission	0.917260	0.894186	0	0	9.782353e+01
452.211060	1.279528	city	5	1	1.143766	1.143766	0	1	0	0	CorrectCommission	0.356040	0.897931	0	0	9.811765e+01
453.490540	1.279457	city	8	1	1.292600	1.292600	0	1	0	0	CorrectCommission	0.423863	0.898882	0	0	9.841176e+01
454.796692	1.332846	city	4	1	1.126526	1.126526	0	1	0	0	CorrectCommission	0.446378	0.895013	0	0	9.870588e+01
458.515442	6.104673	break	0	0	0.000000	1.384378	0	0	0	0	ThoughtProbe	0.904786	0.884853	0	99	99
462.207642	1.279722	mountain	3	0	0.000000	1.718933	1	0	0	0	CorrectOmission	2.657876	0.867724	0	0	9.880000e+01
463.487244	1.279466	city	7	1	1.782967	1.782967	0	1	0	0	CorrectCommission	2.993413	0.844004	0	0	9.860000e+01
464.773499	1.293021	city	6	1	1.229253	1.229253	0	1	0	0	CorrectCommission	0.091920	0.815129	0	0	9.840000e+01
466.073029	1.306071	city	8	1	1.208883	1.208883	0	1	0	0	CorrectCommission	0.014824	0.783539	0	0	9.820000e+01
467.365845	1.279524	city	1	1	1.184339	1.184339	0	1	0	0	CorrectCommission	0.143433	0.752259	1	0	98
468.645416	1.279663	city	9	1	1.363553	1.363553	0	1	0	0	CorrectCommission	0.795661	0.724509	1	0	9.780000e+01
469.925140	1.279764	city	3	1	1.124183	1.124183	0	1	0	0	CorrectCommission	0.458654	0.703258	1	0	9.760000e+01
471.211426	1.292831	mountain	9	0	0.000000	1.203749	1	0	0	0	CorrectOmission	0.041725	0.690845	1	0	9.740000e+01
472.504333	1.292939	city	8	1	1.307459	1.307459	0	1	0	0	CorrectCommission	0.501721	0.688665	1	0	9.720000e+01
473.823914	1.346224	city	1	1	1.140521	1.140521	0	1	0	0	CorrectCommission	0.373042	0.696953	1	0	97
475.163391	1.332726	city	8	1	1.176280	1.176280	0	1	0	0	CorrectCommission	0.185661	0.714931	1	0	9.680000e+01
476.476288	1.293097	city	4	1	1.057107	1.057107	0	1	0	0	CorrectCommission	0.810138	0.740910	1	0	9.660000e+01
477.775940	1.306212	city	7	1	0.965479	0.965479	0	1	0	0	CorrectCommission	1.290275	0.772552	0	0	9.640000e+01
479.082184	1.306260	city	8	1	0.884420	0.884420	0	1	0	0	CorrectCommission	1.715028	0.807179	0	0	9.620000e+01
480.388367	1.306093	city	2	1	1.101633	1.101633	0	1	0	0	CorrectCommission	0.576817	0.842068	0	0	96
481.687836	1.292864	city	7	1	1.194575	1.194575	0	1	0	0	CorrectCommission	0.089799	0.874759	0	0	9.580000e+01
482.994141	1.319736	city	8	1	1.207028	1.207028	0	1	0	0	CorrectCommission	0.024540	0.903250	0	0	9.560000e+01
484.300385	1.292787	city	5	1	1.549411	1.549411	0	1	0	0	CorrectCommission	1.769570	0.926117	0	0	9.540000e+01
485.599976	1.306349	city	9	1	1.653248	1.653248	0	1	0	0	CorrectCommission	2.313677	0.942589	0	0	9.520000e+01
486.906189	1.306106	city	10	1	1.311860	1.311860	0	1	0	0	CorrectCommission	0.524783	0.952568	0	0	95
488.212372	1.306234	city	2	1	1.607718	1.607718	0	1	0	0	CorrectCommission	2.075097	0.956562	0	0	9.480000e+01
489.518646	1.306303	city	8	1	1.425722	1.425722	0	1	0	0	CorrectCommission	1.121429	0.955401	0	0	9.460000e+01
490.824951	1.306309	city	10	1	1.166328	1.166328	0	1	0	0	CorrectCommission	0.237811	0.950111	0	0	9.440000e+01
492.124542	1.292910	city	5	1	1.194163	1.194163	0	1	0	0	CorrectCommission	0.091956	0.941660	0	0	9.420000e+01
493.417450	1.292917	city	1	1	1.236458	1.236458	0	1	0	0	CorrectCommission	0.129674	0.930815	0	0	94
494.703644	1.279425	mountain	2	0	0.000000	1.380492	1	0	0	0	CorrectOmission	0.884422	0.918049	0	0	9.380000e+01
495.983215	1.279737	city	5	1	1.537201	1.537201	0	1	0	0	CorrectCommission	1.705587	0.903561	0	0	9.360000e+01
497.282837	1.319511	city	3	1	1.617521	1.617521	0	1	0	0	CorrectCommission	2.126469	0.887385	0	0	9.340000e+01
498.589081	1.292968	city	8	1	1.132890	1.132890	0	1	0	0	CorrectCommission	0.413031	0.869542	0	0	9.320000e+01
499.875366	1.279580	city	1	1	0.979069	0.979069	0	1	0	0	CorrectCommission	1.219064	0.850227	0	0	93
501.161591	1.292897	city	10	1	1.128313	1.128313	0	1	0	0	CorrectCommission	0.437014	0.829738	0	0	9.280000e+01
502.447845	1.279607	city	5	1	0.989528	0.989528	0	1	0	0	CorrectCommission	1.164254	0.808585	0	0	9.260000e+01
503.740753	1.306219	city	8	1	1.151402	1.151402	0	1	0	0	CorrectCommission	0.316025	0.787309	0	0	9.240000e+01
505.067047	1.346345	city	2	1	1.232353	1.232353	0	1	0	0	CorrectCommission	0.108163	0.766460	0	0	9.220000e+01
506.379852	1.279287	city	5	1	1.080496	1.080496	0	1	0	0	CorrectCommission	0.687578	0.746462	1	0	92
507.659302	1.279585	city	3	1	1.412353	1.412353	0	1	0	0	CorrectCommission	1.051375	0.727541	1	0	9.180000e+01
508.938934	1.279723	city	6	1	1.366408	1.366408	0	1	0	0	CorrectCommission	0.810622	0.709742	1	0	9.160000e+01
510.245270	1.332916	city	3	1	1.390912	1.390912	0	1	0	0	CorrectCommission	0.939024	0.692952	1	0	9.140000e+01
511.564758	1.306087	city	6	1	1.364409	1.364409	0	1	0	0	CorrectCommission	0.800142	0.676913	1	0	9.120000e+01
515.190186	5.944777	break	0	0	0.000000	1.337905	0	0	0	0	ThoughtProbe	0.661260	0.661260	1	91	91
