onset	duration	trial_type	image_type	Press	ReactionTime	ReactionTime_Interpolated	CorrectOmission	CorrectCommission	CommissionError	OmissionError	response_type	nonsmoothVarianceTimeCourse	VarianceTimeCourse	In_the_Zone	ThoughtProbe	ThoughtProbe_Interpolated
0.652776	1.279653	city	1	1	1.341184	1.341184	0	1	0	0	CorrectCommission	0.094215	0.094215	1	0	40
1.932394	1.279582	mountain	10	0	0.000000	1.318832	1	0	0	0	CorrectOmission	0.172839	0.173034	1	0	40
3.211891	1.279411	city	5	1	1.249271	1.249271	0	1	0	0	CorrectCommission	0.417512	0.248569	1	0	40
4.491391	1.279589	city	1	1	1.085296	1.085296	0	1	0	0	CorrectCommission	0.994285	0.317977	1	0	40
5.771079	1.279787	city	2	1	1.036295	1.036295	0	1	0	0	CorrectCommission	1.166641	0.379211	1	0	40
7.050734	1.279521	city	10	1	1.073917	1.073917	0	1	0	0	CorrectCommission	1.034309	0.431266	1	0	40
8.330203	1.279417	city	8	1	1.337581	1.337581	0	1	0	0	CorrectCommission	0.106888	0.474281	1	0	40
9.609789	1.279755	city	2	1	1.192422	1.192422	0	1	0	0	CorrectCommission	0.617477	0.509353	1	0	40
10.889376	1.279421	city	5	1	1.337847	1.337847	0	1	0	0	CorrectCommission	0.105953	0.538302	1	0	40
12.168949	1.279726	city	2	1	1.125441	1.125441	0	1	0	0	CorrectCommission	0.853077	0.563342	1	0	40
13.448605	1.279585	city	9	1	1.254871	1.254871	0	1	0	0	CorrectCommission	0.397815	0.586690	1	0	40
14.728146	1.279496	city	10	1	1.081011	1.081011	0	1	0	0	CorrectCommission	1.009358	0.610297	1	0	40
16.007671	1.279556	city	9	1	1.418803	1.418803	0	1	0	0	CorrectCommission	0.178805	0.635487	1	0	40
17.287289	1.279680	city	2	1	1.336129	1.336129	0	1	0	0	CorrectCommission	0.111997	0.662901	1	0	40
18.566851	1.279443	city	8	1	1.555549	1.555549	0	1	0	0	CorrectCommission	0.659800	0.692429	0	0	40
19.846348	1.279552	city	10	1	1.444941	1.444941	0	1	0	0	CorrectCommission	0.270741	0.723359	0	0	40
21.125996	1.279742	city	1	1	1.708173	1.708173	0	1	0	0	CorrectCommission	1.196643	0.754618	0	0	40
22.405643	1.279555	city	7	1	1.554961	1.554961	0	1	0	0	CorrectCommission	0.657731	0.785033	0	0	40
23.691891	1.292937	mountain	10	0	0.000000	1.678265	1	0	0	0	CorrectOmission	1.091444	0.813657	0	0	40
24.978148	1.279579	mountain	4	0	0.000000	1.857118	1	0	0	0	CorrectOmission	1.720546	0.839942	0	0	40
26.257738	1.279603	city	5	1	1.870553	1.870553	0	1	0	0	CorrectCommission	1.767802	0.863809	0	0	40
27.537315	1.279550	city	1	1	1.497602	1.497602	0	1	0	0	CorrectCommission	0.455975	0.885612	0	0	40
28.823404	1.292626	city	6	1	1.300078	1.300078	0	1	0	0	CorrectCommission	0.238803	0.905964	0	0	40
30.109568	1.279700	city	5	1	1.391786	1.391786	0	1	0	0	CorrectCommission	0.083773	0.925418	0	0	40
31.395910	1.292987	city	2	1	1.509747	1.509747	0	1	0	0	CorrectCommission	0.498692	0.944181	0	0	40
32.682247	1.279687	city	7	1	2.084062	2.084062	0	1	0	0	CorrectCommission	2.518805	0.961891	0	0	40
33.961868	1.279555	city	5	1	1.121532	1.121532	0	1	0	0	CorrectCommission	0.866826	0.977499	0	0	40
35.241436	1.279577	city	6	1	1.472464	1.472464	0	1	0	0	CorrectCommission	0.367553	0.989423	0	0	40
36.534344	1.306241	city	2	1	1.391619	1.391619	0	1	0	0	CorrectCommission	0.083185	0.995660	0	0	40
37.827255	1.279586	city	5	1	1.613485	1.613485	0	1	0	0	CorrectCommission	0.863586	0.994154	0	0	40
39.106846	1.279594	city	4	1	0.644306	0.644306	0	1	0	0	CorrectCommission	2.545436	0.983220	0	0	40
40.386337	1.279389	city	7	1	0.811921	0.811921	0	1	0	0	CorrectCommission	1.955861	0.961952	0	0	40
41.672565	1.293068	city	9	1	1.031017	1.031017	0	1	0	0	CorrectCommission	1.185206	0.930621	0	0	40
42.958908	1.279613	city	1	1	1.731263	1.731263	0	1	0	0	CorrectCommission	1.277860	0.890758	0	0	40
44.245155	1.292882	city	6	1	1.641855	1.641855	0	1	0	0	CorrectCommission	0.963375	0.845090	0	0	40
45.537968	1.292740	city	9	1	1.583214	1.583214	0	1	0	0	CorrectCommission	0.757107	0.797302	0	0	40
46.830883	1.293093	mountain	4	0	0.000000	1.428432	1	0	0	0	CorrectOmission	0.212672	0.751545	0	0	40
48.117195	1.279528	city	9	1	1.350247	1.350247	0	1	0	0	CorrectCommission	0.062337	0.711906	0	0	40
49.403435	1.292957	city	4	1	1.521396	1.521396	0	1	0	0	CorrectCommission	0.539669	0.681815	0	0	40
50.689693	1.279555	city	3	1	1.341854	1.341854	0	1	0	0	CorrectCommission	0.091861	0.663597	1	0	40
51.975857	1.292775	city	5	1	1.398518	1.398518	0	1	0	0	CorrectCommission	0.107452	0.658173	1	0	40
53.275440	1.306390	city	10	1	1.483562	1.483562	0	1	0	0	CorrectCommission	0.406589	0.664920	1	0	40
54.575092	1.292916	city	4	1	1.591348	1.591348	0	1	0	0	CorrectCommission	0.785720	0.681789	1	0	40
55.867928	1.292755	city	5	1	1.422690	1.422690	0	1	0	0	CorrectCommission	0.192474	0.705608	0	0	40
57.160828	1.293043	city	9	1	1.457490	1.457490	0	1	0	0	CorrectCommission	0.314883	0.732530	0	0	40
57.807350	12.089322	break	0	0	0.000000	1.783425	0	0	0	0	ThoughtProbe	1.461336	0.758498	0	40	40
70.536423	1.279494	city	2	1	1.991153	1.991153	0	1	0	0	CorrectCommission	2.192008	0.779752	0	0	4.150000e+01
71.822601	1.292873	city	1	1	1.671337	1.671337	0	1	0	0	CorrectCommission	1.067073	0.793241	0	0	43
73.108902	1.279725	mountain	6	0	0.000000	1.497377	1	0	0	0	CorrectOmission	0.455183	0.797018	0	0	4.450000e+01
74.388496	1.279463	city	3	1	1.498305	1.498305	0	1	0	0	CorrectCommission	0.458446	0.790331	0	0	46
75.674744	1.293025	city	4	1	1.703150	1.703150	0	1	0	0	CorrectCommission	1.178974	0.773633	0	0	4.750000e+01
76.974289	1.306072	city	3	1	1.828151	1.828151	0	1	0	0	CorrectCommission	1.618657	0.748443	0	0	49
78.280441	1.306236	city	7	1	1.643633	1.643633	0	1	0	0	CorrectCommission	0.969629	0.717108	0	0	5.050000e+01
79.573448	1.279770	city	10	1	1.396523	1.396523	0	1	0	0	CorrectCommission	0.100435	0.682540	0	0	52
80.853035	1.279406	city	4	1	1.497761	1.497761	0	1	0	0	CorrectCommission	0.456532	0.647841	1	0	5.350000e+01
82.132599	1.279730	city	2	1	1.572973	1.572973	0	1	0	0	CorrectCommission	0.721084	0.615912	1	0	55
83.412170	1.279411	city	8	1	1.390918	1.390918	0	1	0	0	CorrectCommission	0.080720	0.589172	1	0	5.650000e+01
84.705063	1.306376	city	6	1	1.414120	1.414120	0	1	0	0	CorrectCommission	0.162333	0.569304	1	0	58
86.031395	1.346275	city	7	1	1.243126	1.243126	0	1	0	0	CorrectCommission	0.439129	0.557072	1	0	5.950000e+01
87.357635	1.306215	city	5	1	1.198244	1.198244	0	1	0	0	CorrectCommission	0.596997	0.552268	1	0	61
88.670547	1.319603	city	1	1	1.272577	1.272577	0	1	0	0	CorrectCommission	0.335536	0.553760	1	0	6.250000e+01
89.976784	1.292868	city	5	1	1.196490	1.196490	0	1	0	0	CorrectCommission	0.603166	0.559677	1	0	64
91.262932	1.279426	city	10	1	1.305780	1.305780	0	1	0	0	CorrectCommission	0.218746	0.567615	1	0	6.550000e+01
92.542442	1.279604	city	2	1	1.195392	1.195392	0	1	0	0	CorrectCommission	0.607028	0.574982	1	0	67
93.822105	1.279728	city	6	1	1.192780	1.192780	0	1	0	0	CorrectCommission	0.616216	0.579304	1	0	6.850000e+01
95.101669	1.279394	city	10	1	1.080502	1.080502	0	1	0	0	CorrectCommission	1.011146	0.578614	1	0	70
96.381226	1.279712	city	8	1	1.089752	1.089752	0	1	0	0	CorrectCommission	0.978610	0.571738	1	0	7.150000e+01
97.674141	1.306121	city	10	1	1.061783	1.061783	0	1	0	0	CorrectCommission	1.076989	0.558474	1	0	73
98.967072	1.279751	city	6	1	1.076660	1.076660	0	1	0	0	CorrectCommission	1.024662	0.539646	1	0	7.450000e+01
100.246658	1.279412	mountain	5	0	0.000000	1.184524	1	0	0	0	CorrectOmission	0.645259	0.517026	1	0	76
101.526222	1.279721	city	4	1	1.307059	1.307059	0	1	0	0	CorrectCommission	0.214248	0.493064	1	0	7.750000e+01
102.812538	1.292908	city	8	1	1.365951	1.365951	0	1	0	0	CorrectCommission	0.007101	0.470514	1	0	79
104.098785	1.279590	city	7	1	1.406640	1.406640	0	1	0	0	CorrectCommission	0.136022	0.451997	1	0	8.050000e+01
105.391693	1.306221	city	9	1	1.436119	1.436119	0	1	0	0	CorrectCommission	0.239712	0.439579	1	0	82
106.684593	1.279579	city	2	1	1.344187	1.344187	0	1	0	0	CorrectCommission	0.083653	0.434465	1	0	8.350000e+01
107.964172	1.279581	city	7	1	1.502550	1.502550	0	1	0	0	CorrectCommission	0.473377	0.436815	1	0	85
109.243706	1.279485	city	1	1	1.340247	1.340247	0	1	0	0	CorrectCommission	0.097512	0.445689	1	0	8.650000e+01
110.523201	1.279508	city	8	1	1.357545	1.357545	0	1	0	0	CorrectCommission	0.036667	0.459219	1	0	88
111.802765	1.279619	city	7	1	1.389441	1.389441	0	1	0	0	CorrectCommission	0.075526	0.474901	1	0	8.950000e+01
112.442574	9.037148	break	0	0	0.000000	1.565621	0	0	0	0	ThoughtProbe	0.695226	0.489987	1	91	91
122.119469	1.279496	city	4	1	1.737097	1.737097	0	1	0	0	CorrectCommission	1.298383	0.501934	1	0	8.989130e+01
123.412399	1.306352	mountain	9	0	0.000000	1.754884	1	0	0	0	CorrectOmission	1.360946	0.508798	1	0	8.878261e+01
124.705353	1.279557	mountain	5	0	0.000000	1.667981	1	0	0	0	CorrectOmission	1.055270	0.509553	1	0	8.767391e+01
125.991547	1.292833	city	7	1	1.525388	1.525388	0	1	0	0	CorrectCommission	0.553709	0.504193	1	0	8.656522e+01
127.277786	1.279653	city	10	1	1.376105	1.376105	0	1	0	0	CorrectCommission	0.028616	0.493679	1	0	8.545652e+01
128.563980	1.292742	city	1	1	1.546083	1.546083	0	1	0	0	CorrectCommission	0.626502	0.479709	1	0	8.434783e+01
129.856827	1.292940	city	4	1	1.431427	1.431427	0	1	0	0	CorrectCommission	0.223208	0.464383	1	0	8.323913e+01
131.156403	1.306204	city	10	1	1.328384	1.328384	0	1	0	0	CorrectCommission	0.139239	0.449850	1	0	8.213043e+01
132.455978	1.292965	city	5	1	1.476629	1.476629	0	1	0	0	CorrectCommission	0.382201	0.437953	1	0	8.102174e+01
133.748917	1.292905	city	9	1	1.311703	1.311703	0	1	0	0	CorrectCommission	0.197912	0.429976	1	0	7.991304e+01
135.035156	1.279559	city	6	1	1.289674	1.289674	0	1	0	0	CorrectCommission	0.275400	0.426524	1	0	7.880435e+01
136.314789	1.279711	city	5	1	1.194206	1.194206	0	1	0	0	CorrectCommission	0.611203	0.427500	1	0	7.769565e+01
137.594299	1.279326	city	6	1	1.402947	1.402947	0	1	0	0	CorrectCommission	0.123031	0.432234	1	0	7.658696e+01
138.873886	1.279849	city	3	1	1.377807	1.377807	0	1	0	0	CorrectCommission	0.034603	0.439723	1	0	7.547826e+01
140.160202	1.292761	mountain	10	0	0.000000	1.247651	1	0	0	0	CorrectOmission	0.423211	0.448883	1	0	7.436957e+01
141.446365	1.279569	city	8	1	1.104769	1.104769	0	1	0	0	CorrectCommission	0.925791	0.458817	1	0	7.326087e+01
142.739288	1.306277	city	1	1	1.041448	1.041448	0	1	0	0	CorrectCommission	1.148518	0.469040	1	0	7.215217e+01
144.032257	1.279675	city	9	1	1.125000	1.125000	0	1	0	0	CorrectCommission	0.854627	0.479576	1	0	7.104348e+01
145.311859	1.279534	city	7	1	1.414444	1.414444	0	1	0	0	CorrectCommission	0.163472	0.490943	1	0	6.993478e+01
146.598114	1.292953	city	5	1	1.477165	1.477165	0	1	0	0	CorrectCommission	0.384089	0.503969	1	0	6.882609e+01
147.884323	1.279480	city	10	1	1.391380	1.391380	0	1	0	0	CorrectCommission	0.082346	0.519501	1	0	6.771739e+01
149.163834	1.279533	mountain	9	0	0.000000	1.242097	1	0	0	0	CorrectOmission	0.442748	0.538106	1	0	6.660870e+01
150.463379	1.319549	city	1	1	1.203481	1.203481	0	1	0	0	CorrectCommission	0.578576	0.559750	1	0	6.550000e+01
151.762985	1.279673	city	9	1	1.449698	1.449698	0	1	0	0	CorrectCommission	0.287476	0.583605	1	0	6.439130e+01
153.042648	1.279647	city	7	1	1.391788	1.391788	0	1	0	0	CorrectCommission	0.083782	0.608006	1	0	6.328261e+01
154.322189	1.279450	city	6	1	1.565715	1.565715	0	1	0	0	CorrectCommission	0.695557	0.630547	1	0	6.217391e+01
155.615097	1.306360	city	2	1	1.486394	1.486394	0	1	0	0	CorrectCommission	0.416549	0.648376	1	0	6.106522e+01
156.908066	1.279589	city	1	1	1.557428	1.557428	0	1	0	0	CorrectCommission	0.666408	0.658618	1	0	5.995652e+01
158.194244	1.292756	city	5	1	1.786743	1.786743	0	1	0	0	CorrectCommission	1.473007	0.658837	1	0	5.884783e+01
159.493820	1.306389	city	4	1	0.817772	0.817772	0	1	0	0	CorrectCommission	1.935284	0.647487	1	0	5.773913e+01
160.800125	1.306231	city	3	1	1.764466	1.764466	0	1	0	0	CorrectCommission	1.394651	0.624220	1	0	5.663043e+01
162.119705	1.332919	city	8	1	1.604551	1.604551	0	1	0	0	CorrectCommission	0.832161	0.590037	1	0	5.552174e+01
163.425934	1.279555	city	7	1	1.486838	1.486838	0	1	0	0	CorrectCommission	0.418111	0.547182	1	0	5.441304e+01
164.725418	1.319405	city	4	1	1.431408	1.431408	0	1	0	0	CorrectCommission	0.223140	0.498837	1	0	5.330435e+01
166.024994	1.279745	city	7	1	1.367349	1.367349	0	1	0	0	CorrectCommission	0.002182	0.448703	1	0	5.219565e+01
167.304657	1.279579	city	10	1	1.365997	1.365997	0	1	0	0	CorrectCommission	0.006936	0.400519	1	0	5.108696e+01
168.597565	1.306237	city	9	1	1.391667	1.391667	0	1	0	0	CorrectCommission	0.083356	0.357592	1	0	4.997826e+01
169.897079	1.292795	city	6	1	1.319914	1.319914	0	1	0	0	CorrectCommission	0.169033	0.322445	1	0	4.886957e+01
171.197769	1.308568	city	4	1	1.380574	1.380574	0	1	0	0	CorrectCommission	0.044336	0.296644	1	0	4.776087e+01
172.490753	1.277403	city	5	1	1.347256	1.347256	0	1	0	0	CorrectCommission	0.072858	0.280748	1	0	4.665217e+01
173.769211	1.279530	city	10	1	1.413739	1.413739	0	1	0	0	CorrectCommission	0.160992	0.274423	1	0	4.554348e+01
175.068695	1.319432	city	6	1	1.491469	1.491469	0	1	0	0	CorrectCommission	0.434401	0.276628	1	0	4.443478e+01
176.368225	1.279621	city	9	1	1.353741	1.353741	0	1	0	0	CorrectCommission	0.050049	0.285894	1	0	4.332609e+01
177.654495	1.292935	city	10	1	1.249513	1.249513	0	1	0	0	CorrectCommission	0.416664	0.300609	1	0	4.221739e+01
178.954147	1.306361	city	3	1	1.362761	1.362761	0	1	0	0	CorrectCommission	0.018319	0.319245	1	0	4.110870e+01
179.607330	11.249324	break	0	0	0.000000	1.507822	0	0	0	0	ThoughtProbe	0.491921	0.340589	1	40	40
191.503143	1.292995	mountain	5	1	1.532313	1.532313	0	0	1	0	CommissionError	0.578066	0.363823	1	0	4.039130e+01
192.796097	1.292905	city	6	0	0.000000	1.283854	0	0	0	1	OmissionError	0.295871	0.388545	1	0	4.078261e+01
194.082443	1.279767	city	1	1	1.080121	1.080121	0	1	0	0	CorrectCommission	1.012488	0.414719	1	0	4.117391e+01
195.362106	1.279565	city	6	1	1.238789	1.238789	0	1	0	0	CorrectCommission	0.454383	0.442472	1	0	4.156522e+01
196.641678	1.279577	mountain	5	0	0.000000	1.347540	1	0	0	0	CorrectOmission	0.071860	0.471939	1	0	4.195652e+01
197.921219	1.279499	city	1	1	1.409037	1.409037	0	1	0	0	CorrectCommission	0.144451	0.503033	1	0	4.234783e+01
199.207474	1.293031	city	10	1	1.425944	1.425944	0	1	0	0	CorrectCommission	0.203922	0.535305	1	0	4.273913e+01
200.500443	1.292886	city	6	1	1.302807	1.302807	0	1	0	0	CorrectCommission	0.229205	0.567862	1	0	4.313043e+01
201.793259	1.292745	city	9	1	1.143167	1.143167	0	1	0	0	CorrectCommission	0.790727	0.599455	1	0	4.352174e+01
203.079407	1.279578	city	10	1	1.099222	1.099222	0	1	0	0	CorrectCommission	0.945302	0.628531	1	0	4.391304e+01
204.385712	1.333032	city	7	1	1.243452	1.243452	0	1	0	0	CorrectCommission	0.437981	0.653536	1	0	4.430435e+01
205.712021	1.319589	city	3	1	1.013083	1.013083	0	1	0	0	CorrectCommission	1.248288	0.673161	1	0	4.469565e+01
207.024887	1.306134	city	2	1	1.018257	1.018257	0	1	0	0	CorrectCommission	1.230088	0.686552	0	0	4.508696e+01
208.331055	1.306183	city	10	1	1.055628	1.055628	0	1	0	0	CorrectCommission	1.098639	0.693571	0	0	4.547826e+01
209.624008	1.279729	city	8	1	1.130557	1.130557	0	1	0	0	CorrectCommission	0.835081	0.694809	0	0	4.586957e+01
210.916916	1.306083	city	5	1	1.205531	1.205531	0	1	0	0	CorrectCommission	0.571367	0.691572	0	0	4.626087e+01
212.229813	1.319735	city	8	1	1.233277	1.233277	0	1	0	0	CorrectCommission	0.473771	0.685771	0	0	4.665217e+01
213.529388	1.279393	city	9	1	1.289083	1.289083	0	1	0	0	CorrectCommission	0.277477	0.679691	1	0	4.704348e+01
214.808945	1.279737	city	3	1	1.525670	1.525670	0	1	0	0	CorrectCommission	0.554701	0.675884	1	0	4.743478e+01
216.101929	1.306237	mountain	2	0	0.000000	1.547767	1	0	0	0	CorrectOmission	0.632426	0.676880	1	0	4.782609e+01
217.394760	1.279418	city	10	1	1.542092	1.542092	0	1	0	0	CorrectCommission	0.612464	0.685087	0	0	4.821739e+01
218.694336	1.319741	city	2	1	1.695362	1.695362	0	1	0	0	CorrectCommission	1.151580	0.702606	0	0	4.860870e+01
220.020660	1.332898	city	8	1	1.517790	1.517790	0	1	0	0	CorrectCommission	0.526984	0.731063	0	0	49
221.333557	1.292885	city	10	1	1.297963	1.297963	0	1	0	0	CorrectCommission	0.246244	0.771510	0	0	4.939130e+01
222.619781	1.279583	city	9	1	1.368872	1.368872	0	1	0	0	CorrectCommission	0.003173	0.824219	0	0	4.978261e+01
223.912704	1.306233	city	4	1	1.490435	1.490435	0	1	0	0	CorrectCommission	0.430763	0.888600	0	0	5.017391e+01
225.212234	1.292838	city	2	1	1.510874	1.510874	0	1	0	0	CorrectCommission	0.502657	0.963039	0	0	5.056522e+01
226.498489	1.279671	mountain	1	1	0.537844	0.537844	0	0	1	0	CommissionError	2.919909	1.044910	0	0	5.095652e+01
227.778107	1.279575	city	1	1	1.535982	1.535982	0	1	0	0	CorrectCommission	0.590972	1.130585	0	0	5.134783e+01
229.064285	1.292784	city	3	1	1.550889	1.550889	0	1	0	0	CorrectCommission	0.643406	1.215738	0	0	5.173913e+01
230.370514	1.319677	city	6	1	1.450135	1.450135	0	1	0	0	CorrectCommission	0.289010	1.295535	0	0	5.213043e+01
231.683395	1.306070	city	2	1	1.483318	1.483318	0	1	0	0	CorrectCommission	0.405732	1.365123	0	0	5.252174e+01
232.982956	1.293068	city	1	1	0.498415	0.498415	0	1	0	0	CorrectCommission	3.058599	1.420128	0	0	5.291304e+01
234.275879	1.292767	city	7	1	0.556829	0.556829	0	1	0	0	CorrectCommission	2.853130	1.457156	0	0	5.330435e+01
235.582138	1.319742	city	3	1	0.640658	0.640658	0	1	0	0	CorrectCommission	2.558270	1.474350	0	0	5.369565e+01
236.881790	1.279568	city	6	1	0.510041	0.510041	0	1	0	0	CorrectCommission	3.017704	1.471578	0	0	5.408696e+01
238.161362	1.279580	city	1	1	1.626097	1.626097	0	1	0	0	CorrectCommission	0.907946	1.450432	0	0	5.447826e+01
239.454254	1.306217	city	7	1	0.644274	0.644274	0	1	0	0	CorrectCommission	2.545551	1.414005	0	0	5.486957e+01
240.753769	1.292792	city	6	1	1.245114	1.245114	0	1	0	0	CorrectCommission	0.432136	1.366236	0	0	5.526087e+01
242.046677	1.293024	city	2	1	1.196681	1.196681	0	1	0	0	CorrectCommission	0.602494	1.311418	0	0	5.565217e+01
243.339645	1.292906	city	4	1	1.500835	1.500835	0	1	0	0	CorrectCommission	0.467346	1.253406	0	0	5.604348e+01
244.645889	1.319581	city	10	1	1.287451	1.287451	0	1	0	0	CorrectCommission	0.283217	1.195178	0	0	5.643478e+01
245.945450	1.279562	city	1	1	1.658663	1.658663	0	1	0	0	CorrectCommission	1.022495	1.138558	0	0	5.682609e+01
247.231689	1.292911	city	6	1	1.764274	1.764274	0	1	0	0	CorrectCommission	1.393974	1.084156	0	0	5.721739e+01
248.531265	1.306235	city	5	1	2.182433	2.182433	0	1	0	0	CorrectCommission	2.864820	1.031620	0	0	5.760870e+01
249.184387	11.649337	break	0	1	1.164105	1.164105	0	0	0	0	ThoughtProbe	0.717078	0.979930	0	58	58
261.473602	1.279763	mountain	5	0	0.000000	1.262577	1	0	0	0	CorrectOmission	0.370711	0.927919	0	0	5.902941e+01
262.753265	1.279581	city	3	1	1.579193	1.579193	0	1	0	0	CorrectCommission	0.742965	0.874518	0	0	6.005882e+01
264.052734	1.319315	city	10	1	1.215300	1.215300	0	1	0	0	CorrectCommission	0.537004	0.819130	0	0	6.108824e+01
265.372284	1.319794	city	1	1	0.996198	0.996198	0	1	0	0	CorrectCommission	1.307682	0.761809	0	0	6.211765e+01
266.671906	1.279464	city	9	1	0.931144	0.931144	0	1	0	0	CorrectCommission	1.536505	0.703415	0	0	6.314706e+01
267.958069	1.292865	city	1	1	1.380137	1.380137	0	1	0	0	CorrectCommission	0.042800	0.645583	1	0	6.417647e+01
269.244354	1.279736	city	10	1	1.512495	1.512495	0	1	0	0	CorrectCommission	0.508358	0.590645	1	0	6.520588e+01
270.524048	1.279606	city	5	1	1.604598	1.604598	0	1	0	0	CorrectCommission	0.832324	0.541348	1	0	6.623529e+01
271.810272	1.292879	city	4	1	1.403930	1.403930	0	1	0	0	CorrectCommission	0.126487	0.500589	1	0	6.726471e+01
273.103180	1.292926	city	7	1	1.376541	1.376541	0	1	0	0	CorrectCommission	0.030150	0.471156	1	0	6.829412e+01
274.396027	1.292751	city	5	1	1.356333	1.356333	0	1	0	0	CorrectCommission	0.040929	0.455354	1	0	6.932353e+01
275.688934	1.293051	city	8	1	1.351550	1.351550	0	1	0	0	CorrectCommission	0.057754	0.454685	1	0	7.035294e+01
276.981842	1.292796	city	4	1	1.189542	1.189542	0	1	0	0	CorrectCommission	0.627608	0.469632	1	0	7.138235e+01
278.281433	1.306355	city	1	1	1.393876	1.393876	0	1	0	0	CorrectCommission	0.091125	0.499404	1	0	7.241176e+01
279.587708	1.306225	city	5	1	1.391581	1.391581	0	1	0	0	CorrectCommission	0.083051	0.541979	1	0	7.344118e+01
280.887207	1.292763	city	2	1	1.356192	1.356192	0	1	0	0	CorrectCommission	0.041427	0.594111	1	0	7.447059e+01
282.173859	1.280507	city	7	1	1.347836	1.347836	0	1	0	0	CorrectCommission	0.070816	0.651588	1	0	7.550000e+01
283.460114	1.292029	city	10	1	1.532667	1.532667	0	1	0	0	CorrectCommission	0.579313	0.709602	0	0	7.652941e+01
284.759247	1.306245	city	5	1	1.704471	1.704471	0	1	0	0	CorrectCommission	1.183622	0.763208	0	0	7.755882e+01
286.072235	1.319706	city	10	1	0.709449	0.709449	0	1	0	0	CorrectCommission	2.316300	0.807852	0	0	7.858824e+01
287.425049	1.385928	city	2	1	1.805247	1.805247	0	1	0	0	CorrectCommission	1.538096	0.839793	0	0	7.961765e+01
288.777863	1.319688	city	4	1	1.716274	1.716274	0	1	0	0	CorrectCommission	1.225137	0.856570	0	0	8.064706e+01
290.084198	1.293022	city	1	1	1.584667	1.584667	0	1	0	0	CorrectCommission	0.762218	0.857111	0	0	8.167647e+01
291.377136	1.292835	city	10	0	0.000000	1.641684	0	0	0	1	OmissionError	0.962772	0.841737	0	0	8.270588e+01
292.663300	1.279491	mountain	2	0	0.000000	1.741124	1	0	0	0	CorrectOmission	1.312546	0.811977	0	0	8.373529e+01
293.942902	1.279737	city	6	1	1.736786	1.736786	0	1	0	0	CorrectCommission	1.297286	0.770256	0	0	8.476471e+01
295.235901	1.306239	city	8	1	1.482468	1.482468	0	1	0	0	CorrectCommission	0.402739	0.719519	0	0	8.579412e+01
296.542053	1.306076	city	3	1	1.311198	1.311198	0	1	0	0	CorrectCommission	0.199688	0.662891	1	0	8.682353e+01
297.834869	1.279572	city	7	1	1.419170	1.419170	0	1	0	0	CorrectCommission	0.180096	0.603305	1	0	8.785294e+01
299.127899	1.306447	city	8	1	1.263240	1.263240	0	1	0	0	CorrectCommission	0.368380	0.543283	1	0	8.888235e+01
300.427490	1.292746	city	6	1	1.158815	1.158815	0	1	0	0	CorrectCommission	0.735687	0.484885	1	0	8.991176e+01
301.727051	1.306366	city	9	1	1.173315	1.173315	0	1	0	0	CorrectCommission	0.684685	0.429691	1	0	9.094118e+01
303.019928	1.279435	city	4	1	1.260023	1.260023	0	1	0	0	CorrectCommission	0.379693	0.378887	1	0	9.197059e+01
307.638336	7.957352	break	0	0	0.000000	1.304114	0	0	0	0	ThoughtProbe	0.224608	0.333396	1	93	93
312.263550	1.293066	mountain	8	0	0.000000	1.324051	1	0	0	0	CorrectOmission	0.154479	0.293957	1	0	9.165000e+01
313.549896	1.279604	mountain	2	0	0.000000	1.338302	1	0	0	0	CorrectOmission	0.104353	0.261221	1	0	9.030000e+01
314.849457	1.319537	city	7	1	1.365332	1.365332	0	1	0	0	CorrectCommission	0.009278	0.235743	1	0	8.895000e+01
316.169037	1.319604	city	8	1	1.423606	1.423606	0	1	0	0	CorrectCommission	0.195699	0.217951	1	0	8.760000e+01
317.475250	1.292878	city	2	1	1.324541	1.324541	0	1	0	0	CorrectCommission	0.152757	0.208050	1	0	8.625000e+01
318.768066	1.292745	city	10	1	1.379530	1.379530	0	1	0	0	CorrectCommission	0.040664	0.205945	1	0	8.490000e+01
320.080994	1.333087	city	1	1	1.367114	1.367114	0	1	0	0	CorrectCommission	0.003009	0.211158	1	0	8.355000e+01
321.400665	1.306231	city	6	1	1.392361	1.392361	0	1	0	0	CorrectCommission	0.085797	0.222756	1	0	8.220000e+01
322.706879	1.306207	city	9	1	1.371361	1.371361	0	1	0	0	CorrectCommission	0.011929	0.239389	1	0	8.085000e+01
323.999695	1.279448	city	8	1	1.366705	1.366705	0	1	0	0	CorrectCommission	0.004449	0.259374	1	0	7.950000e+01
325.279236	1.279647	city	10	1	1.430764	1.430764	0	1	0	0	CorrectCommission	0.220875	0.280815	1	0	7.815000e+01
326.572144	1.306150	city	1	1	1.483533	1.483533	0	1	0	0	CorrectCommission	0.406487	0.301817	1	0	7.680000e+01
327.871674	1.292897	city	5	1	1.582276	1.582276	0	1	0	0	CorrectCommission	0.753807	0.320678	1	0	7.545000e+01
329.171326	1.306401	city	8	1	1.667604	1.667604	0	1	0	0	CorrectCommission	1.053944	0.336093	1	0	7.410000e+01
330.490906	1.332763	city	2	1	1.366211	1.366211	0	1	0	0	CorrectCommission	0.006186	0.347323	1	0	7.275000e+01
331.823792	1.333027	city	9	1	1.175337	1.175337	0	1	0	0	CorrectCommission	0.677571	0.354294	1	0	7.140000e+01
333.129974	1.279327	city	7	1	1.184576	1.184576	0	1	0	0	CorrectCommission	0.645074	0.357514	1	0	7.005000e+01
334.416168	1.293082	city	5	1	1.379133	1.379133	0	1	0	0	CorrectCommission	0.039268	0.358022	1	0	6.870000e+01
335.709137	1.292832	city	8	1	1.417636	1.417636	0	1	0	0	CorrectCommission	0.174699	0.357301	1	0	6.735000e+01
337.022064	1.333052	city	9	1	1.347179	1.347179	0	1	0	0	CorrectCommission	0.073129	0.357075	1	0	66
338.334961	1.292745	city	5	1	1.196196	1.196196	0	1	0	0	CorrectCommission	0.604202	0.359194	1	0	6.465000e+01
339.621124	1.279581	city	7	1	1.292382	1.292382	0	1	0	0	CorrectCommission	0.265875	0.365498	1	0	6.330000e+01
340.907379	1.292904	city	8	1	1.242396	1.242396	0	1	0	0	CorrectCommission	0.441697	0.377747	1	0	6.195000e+01
342.200317	1.292976	mountain	5	0	0.000000	1.373274	1	0	0	0	CorrectOmission	0.018658	0.397513	1	0	6.060000e+01
343.493225	1.292868	city	7	1	1.432561	1.432561	0	1	0	0	CorrectCommission	0.227196	0.426125	1	0	5.925000e+01
344.786133	1.292905	city	10	1	1.167803	1.167803	0	1	0	0	CorrectCommission	0.704073	0.464541	1	0	5.790000e+01
346.072357	1.279562	city	5	1	1.329935	1.329935	0	1	0	0	CorrectCommission	0.133784	0.513224	1	0	5.655000e+01
347.371918	1.319559	city	10	1	1.325040	1.325040	0	1	0	0	CorrectCommission	0.151003	0.572038	1	0	5.520000e+01
348.678253	1.293092	city	6	1	1.178379	1.178379	0	1	0	0	CorrectCommission	0.666871	0.640075	1	0	5.385000e+01
349.964508	1.279446	city	8	1	1.427114	1.427114	0	1	0	0	CorrectCommission	0.208037	0.715552	0	0	5.250000e+01
351.270752	1.333008	city	10	1	1.721393	1.721393	0	1	0	0	CorrectCommission	1.243142	0.795798	0	0	5.115000e+01
352.583618	1.292741	city	9	1	1.509433	1.509433	0	1	0	0	CorrectCommission	0.497590	0.877257	0	0	4.980000e+01
353.883118	1.306289	city	4	1	1.251790	1.251790	0	1	0	0	CorrectCommission	0.408652	0.955720	0	0	4.845000e+01
355.176086	1.279612	city	3	1	1.141985	1.141985	0	1	0	0	CorrectCommission	0.794885	1.026580	0	0	4.710000e+01
356.469055	1.306317	city	5	0	0.000000	0.815944	0	0	0	1	OmissionError	1.941711	1.085244	0	0	4.575000e+01
357.795319	1.346220	city	6	1	0.801902	0.801902	0	1	0	0	CorrectCommission	1.991104	1.127597	0	0	4.440000e+01
359.108215	1.279602	city	4	1	1.628091	1.628091	0	1	0	0	CorrectCommission	0.914961	1.150559	0	0	4.305000e+01
360.427734	1.359386	city	1	1	2.095282	2.095282	0	1	0	0	CorrectCommission	2.558272	1.152446	0	0	4.170000e+01
361.773926	1.333051	city	10	1	2.020013	2.020013	0	1	0	0	CorrectCommission	2.293518	1.133154	0	0	4.035000e+01
362.440460	8.637132	break	0	0	0.000000	1.849957	0	0	0	0	ThoughtProbe	1.695357	1.094305	0	39	39
371.730682	1.306144	city	8	0	0.000000	1.651767	0	0	0	1	OmissionError	0.998237	1.039013	0	0	3.976471e+01
373.030243	1.293009	mountain	6	0	0.000000	1.492095	1	0	0	0	CorrectOmission	0.436603	0.971524	0	0	4.052941e+01
374.329865	1.306232	city	1	1	1.437594	1.437594	0	1	0	0	CorrectCommission	0.244901	0.896697	0	0	4.129412e+01
375.656097	1.346237	city	10	1	1.554917	1.554917	0	1	0	0	CorrectCommission	0.657577	0.819475	0	0	4.205882e+01
376.975677	1.292908	city	1	1	1.673475	1.673475	0	1	0	0	CorrectCommission	1.074597	0.744377	0	0	4.282353e+01
378.295227	1.346223	city	2	1	1.515168	1.515168	0	1	0	0	CorrectCommission	0.517761	0.675092	1	0	4.358824e+01
379.681366	1.426031	city	5	1	1.474364	1.474364	0	1	0	0	CorrectCommission	0.374234	0.614300	1	0	4.435294e+01
381.060913	1.333089	city	8	1	1.358241	1.358241	0	1	0	0	CorrectCommission	0.034218	0.563512	1	0	4.511765e+01
382.387177	1.319389	city	1	1	1.377192	1.377192	0	1	0	0	CorrectCommission	0.032439	0.523207	1	0	4.588235e+01
383.726715	1.359716	city	3	1	1.423573	1.423573	0	1	0	0	CorrectCommission	0.195581	0.493056	1	0	4.664706e+01
385.106262	1.399385	city	8	1	1.276366	1.276366	0	1	0	0	CorrectCommission	0.322209	0.472193	1	0	4.741176e+01
386.472473	1.333030	city	5	1	1.139840	1.139840	0	1	0	0	CorrectCommission	0.802430	0.459634	1	0	4.817647e+01
387.778809	1.279619	city	6	1	1.132821	1.132821	0	1	0	0	CorrectCommission	0.827120	0.454512	1	0	4.894118e+01
389.065033	1.292881	city	2	1	1.188282	1.188282	0	1	0	0	CorrectCommission	0.632037	0.456374	1	0	4.970588e+01
390.371185	1.319402	city	10	1	1.420919	1.420919	0	1	0	0	CorrectCommission	0.186247	0.465251	1	0	5.047059e+01
391.677429	1.293066	city	8	1	1.618188	1.618188	0	1	0	0	CorrectCommission	0.880125	0.481618	1	0	5.123529e+01
392.990326	1.332751	city	6	1	1.473401	1.473401	0	1	0	0	CorrectCommission	0.370850	0.506127	1	0	52
394.349884	1.386380	city	1	1	1.351644	1.351644	0	1	0	0	CorrectCommission	0.057423	0.539442	1	0	5.276471e+01
395.702789	1.319385	city	5	1	1.370355	1.370355	0	1	0	0	CorrectCommission	0.008390	0.581925	1	0	5.352941e+01
397.048889	1.372850	city	2	1	1.354492	1.354492	0	1	0	0	CorrectCommission	0.047405	0.633361	1	0	5.429412e+01
398.375153	1.279677	city	3	1	1.297513	1.297513	0	1	0	0	CorrectCommission	0.247827	0.692861	0	0	5.505882e+01
399.674744	1.319493	city	10	1	1.239752	1.239752	0	1	0	0	CorrectCommission	0.450995	0.758887	0	0	5.582353e+01
400.974365	1.279745	mountain	2	0	0.000000	1.608526	1	0	0	0	CorrectOmission	0.846141	0.829368	0	0	5.658824e+01
402.260651	1.292846	city	6	1	1.889074	1.889074	0	1	0	0	CorrectCommission	1.832951	0.901936	0	0	5.735294e+01
403.573486	1.332811	city	5	1	1.566639	1.566639	0	1	0	0	CorrectCommission	0.698805	0.974149	0	0	5.811765e+01
404.913086	1.346370	city	6	1	0.591147	0.591147	0	1	0	0	CorrectCommission	2.732419	1.043721	0	0	5.888235e+01
406.239380	1.306231	city	3	1	1.042427	1.042427	0	1	0	0	CorrectCommission	1.145073	1.108506	0	0	5.964706e+01
407.545532	1.306075	city	10	1	1.204161	1.204161	0	1	0	0	CorrectCommission	0.576185	1.166642	0	0	6.041176e+01
408.851685	1.306236	city	7	1	1.088485	1.088485	0	1	0	0	CorrectCommission	0.983067	1.216414	0	0	6.117647e+01
410.144592	1.279579	city	4	1	1.389665	1.389665	0	1	0	0	CorrectCommission	0.076313	1.256202	0	0	6.194118e+01
411.444244	1.319748	city	1	1	1.848968	1.848968	0	1	0	0	CorrectCommission	1.691880	1.284545	0	0	6.270588e+01
412.777222	1.346202	city	6	1	1.740080	1.740080	0	1	0	0	CorrectCommission	1.308872	1.300170	0	0	6.347059e+01
414.110046	1.319414	city	8	1	0.737631	0.737631	0	1	0	0	CorrectCommission	2.217174	1.302300	0	0	6.423529e+01
414.769745	10.503199	break	0	1	0.698244	0.698244	0	0	0	0	ThoughtProbe	2.355715	1.290838	0	65	65
425.939453	1.333016	city	4	1	2.164099	2.164099	0	1	0	0	CorrectCommission	2.800330	1.266632	0	0	6.515000e+01
427.279114	1.346291	city	3	1	1.527928	1.527928	0	1	0	0	CorrectCommission	0.562644	1.231562	0	0	6.530000e+01
428.658691	1.412853	city	2	1	1.057449	1.057449	0	1	0	0	CorrectCommission	1.092235	1.188546	0	0	6.545000e+01
430.004883	1.279582	city	1	1	1.048520	1.048520	0	1	0	0	CorrectCommission	1.123641	1.141178	0	0	6.560000e+01
431.317719	1.346064	city	5	1	1.098193	1.098193	0	1	0	0	CorrectCommission	0.948920	1.093454	0	0	6.575000e+01
432.643951	1.306395	city	7	1	1.489568	1.489568	0	1	0	0	CorrectCommission	0.427716	1.049326	0	0	6.590000e+01
433.970276	1.346258	city	8	1	1.622130	1.622130	0	1	0	0	CorrectCommission	0.893994	1.012257	0	0	6.605000e+01
435.309845	1.332889	city	10	1	1.405251	1.405251	0	1	0	0	CorrectCommission	0.131135	0.984881	0	0	6.620000e+01
436.656067	1.359519	mountain	9	0	0.000000	1.530239	1	0	0	0	CorrectOmission	0.570773	0.968722	0	0	6.635000e+01
437.995514	1.319405	city	6	1	1.727474	1.727474	0	1	0	0	CorrectCommission	1.264533	0.964132	0	0	6.650000e+01
439.321686	1.332918	mountain	5	0	0.000000	1.727333	1	0	0	0	CorrectOmission	1.264035	0.970310	0	0	6.665000e+01
440.641266	1.306238	city	8	1	1.608146	1.608146	0	1	0	0	CorrectCommission	0.844806	0.985485	0	0	6.680000e+01
441.947510	1.306284	city	5	1	1.448247	1.448247	0	1	0	0	CorrectCommission	0.282369	1.007221	0	0	6.695000e+01
443.273804	1.346284	city	9	1	1.161164	1.161164	0	1	0	0	CorrectCommission	0.727425	1.032619	0	0	6.710000e+01
444.606659	1.319458	city	7	1	0.995664	0.995664	0	1	0	0	CorrectCommission	1.309561	1.058695	0	0	6.725000e+01
445.932922	1.333031	city	2	1	0.858151	0.858151	0	1	0	0	CorrectCommission	1.793251	1.082658	0	0	6.740000e+01
447.259155	1.319422	city	9	1	1.018581	1.018581	0	1	0	0	CorrectCommission	1.228950	1.102159	0	0	6.755000e+01
448.592743	1.347748	city	6	1	1.058803	1.058803	0	1	0	0	CorrectCommission	1.087472	1.115541	0	0	6.770000e+01
449.939026	1.344866	city	3	1	0.997959	0.997959	0	1	0	0	CorrectCommission	1.301488	1.121860	0	0	6.785000e+01
451.304504	1.386078	city	8	1	0.939050	0.939050	0	1	0	0	CorrectCommission	1.508696	1.120954	0	0	68
452.664062	1.333005	city	2	1	0.831121	0.831121	0	1	0	0	CorrectCommission	1.888326	1.113284	0	0	6.815000e+01
454.010345	1.359574	city	5	1	0.991150	0.991150	0	1	0	0	CorrectCommission	1.325437	1.099811	0	0	6.830000e+01
455.369843	1.359407	city	2	1	1.284215	1.284215	0	1	0	0	CorrectCommission	0.294602	1.081794	0	0	6.845000e+01
456.689392	1.279708	city	1	1	1.335672	1.335672	0	1	0	0	CorrectCommission	0.113604	1.060646	0	0	6.860000e+01
457.995697	1.332886	city	7	1	1.569879	1.569879	0	1	0	0	CorrectCommission	0.710202	1.037697	0	0	6.875000e+01
459.341919	1.359609	city	5	1	1.659665	1.659665	0	1	0	0	CorrectCommission	1.026021	1.014170	0	0	6.890000e+01
460.708160	1.372852	city	7	1	2.294394	2.294394	0	1	0	0	CorrectCommission	3.258636	0.991146	0	0	6.905000e+01
462.047699	1.306203	city	2	1	1.257495	1.257495	0	1	0	0	CorrectCommission	0.388585	0.969520	0	0	6.920000e+01
463.353912	1.306260	city	5	1	1.129609	1.129609	0	1	0	0	CorrectCommission	0.838415	0.950127	0	0	6.935000e+01
464.686829	1.359544	mountain	1	1	1.364023	1.364023	0	0	1	0	CommissionError	0.013880	0.933598	0	0	6.950000e+01
466.059723	1.386234	city	5	1	1.297571	1.297571	0	1	0	0	CorrectCommission	0.247621	0.920411	0	0	6.965000e+01
467.419281	1.332885	city	8	1	0.916506	0.916506	0	1	0	0	CorrectCommission	1.587991	0.910786	0	0	6.980000e+01
468.752075	1.332739	city	7	1	1.039875	1.039875	0	1	0	0	CorrectCommission	1.154051	0.904637	0	0	6.995000e+01
470.078308	1.319722	city	9	1	0.992871	0.992871	0	1	0	0	CorrectCommission	1.319382	0.901585	0	0	7.010000e+01
471.411255	1.346143	city	1	1	1.275210	1.275210	0	1	0	0	CorrectCommission	0.326276	0.900888	0	0	7.025000e+01
472.730835	1.293019	city	9	1	1.351739	1.351739	0	1	0	0	CorrectCommission	0.057091	0.901518	0	0	7.040000e+01
474.050415	1.346179	city	4	1	1.514697	1.514697	0	1	0	0	CorrectCommission	0.516103	0.902209	0	0	7.055000e+01
475.396637	1.346226	city	3	1	1.712955	1.712955	0	1	0	0	CorrectCommission	1.213463	0.901560	0	0	7.070000e+01
476.729462	1.319429	city	9	1	2.088848	2.088848	0	1	0	0	CorrectCommission	2.535643	0.898235	0	0	7.085000e+01
477.389160	8.930422	break	0	1	1.118332	1.118332	0	0	0	0	ThoughtProbe	0.878083	0.891071	0	71	71
486.979370	1.319535	mountain	7	0	0.000000	1.166728	1	0	0	0	CorrectOmission	0.707853	0.879285	0	0	7.072500e+01
488.278992	1.279737	city	3	1	1.555263	1.555263	0	1	0	0	CorrectCommission	0.658794	0.862473	0	0	7.045000e+01
489.585297	1.332877	city	9	1	1.605165	1.605165	0	1	0	0	CorrectCommission	0.834318	0.840669	0	0	7.017500e+01
490.944763	1.386050	city	6	1	1.369693	1.369693	0	1	0	0	CorrectCommission	0.006061	0.814357	0	0	6.990000e+01
492.284332	1.293065	city	7	1	1.008359	1.008359	0	1	0	0	CorrectCommission	1.264904	0.784461	0	0	6.962500e+01
493.597321	1.332912	city	1	1	0.887883	0.887883	0	1	0	0	CorrectCommission	1.688671	0.752199	0	0	6.935000e+01
494.923462	1.319398	city	3	1	1.030638	1.030638	0	1	0	0	CorrectCommission	1.186542	0.719052	0	0	6.907500e+01
496.289612	1.412869	city	10	1	1.260880	1.260880	0	1	0	0	CorrectCommission	0.376681	0.686605	0	0	6.880000e+01
497.669189	1.346328	city	8	1	1.324461	1.324461	0	1	0	0	CorrectCommission	0.153040	0.656414	1	0	6.852500e+01
498.982178	1.279626	mountain	3	0	0.000000	1.302581	1	0	0	0	CorrectOmission	0.230001	0.629916	1	0	6.825000e+01
500.281647	1.319324	city	2	1	1.310071	1.310071	0	1	0	0	CorrectCommission	0.203653	0.608247	1	0	6.797500e+01
501.614532	1.346470	city	6	1	1.461764	1.461764	0	1	0	0	CorrectCommission	0.329916	0.592250	1	0	6.770000e+01
502.954224	1.332891	city	3	1	1.620162	1.620162	0	1	0	0	CorrectCommission	0.887071	0.582503	1	0	6.742500e+01
504.307129	1.372900	city	7	1	1.299485	1.299485	0	1	0	0	CorrectCommission	0.240890	0.579351	1	0	6.715000e+01
505.686615	1.386075	city	2	1	1.125476	1.125476	0	1	0	0	CorrectCommission	0.852955	0.583113	1	0	6.687500e+01
507.079407	1.399496	city	10	1	1.034737	1.034737	0	1	0	0	CorrectCommission	1.172124	0.594095	1	0	6.660000e+01
508.418976	1.279641	city	7	1	1.380474	1.380474	0	1	0	0	CorrectCommission	0.043983	0.612693	1	0	6.632500e+01
509.738556	1.359556	city	8	1	1.179356	1.179356	0	1	0	0	CorrectCommission	0.663434	0.639392	1	0	6.605000e+01
511.084747	1.332829	city	7	1	1.262926	1.262926	0	1	0	0	CorrectCommission	0.369485	0.674592	1	0	6.577500e+01
512.410950	1.319579	mountain	5	0	0.000000	1.178192	1	0	0	0	CorrectOmission	0.667529	0.718493	0	0	6.550000e+01
513.730591	1.319716	city	9	1	1.160372	1.160372	0	1	0	0	CorrectCommission	0.730209	0.770857	0	0	6.522500e+01
515.030212	1.279444	city	7	1	1.444682	1.444682	0	1	0	0	CorrectCommission	0.269832	0.830886	0	0	6.495000e+01
516.329651	1.319535	city	3	1	1.435231	1.435231	0	1	0	0	CorrectCommission	0.236589	0.897093	0	0	6.467500e+01
517.642639	1.306404	city	4	1	1.593309	1.593309	0	1	0	0	CorrectCommission	0.792615	0.967269	0	0	6.440000e+01
518.962280	1.332918	city	1	0	0.000000	1.078716	0	0	0	1	OmissionError	1.017429	1.038567	0	0	6.412500e+01
520.288513	1.319537	city	5	1	0.753841	0.753841	0	1	0	0	CorrectCommission	2.160154	1.107716	0	0	6.385000e+01
521.588074	1.279515	city	10	1	1.481072	1.481072	0	1	0	0	CorrectCommission	0.397830	1.171204	0	0	6.357500e+01
522.907654	1.359679	city	8	1	1.966595	1.966595	0	1	0	0	CorrectCommission	2.105624	1.225663	0	0	6.330000e+01
524.274597	1.374148	city	4	1	2.087050	2.087050	0	1	0	0	CorrectCommission	2.529318	1.267957	0	0	6.302500e+01
525.634033	1.344826	city	9	1	1.046027	1.046027	0	1	0	0	CorrectCommission	1.132410	1.295507	0	0	6.275000e+01
526.946289	1.279584	city	2	1	1.528266	1.528266	0	1	0	0	CorrectCommission	0.563833	1.306384	0	0	6.247500e+01
528.292480	1.412805	city	3	1	1.860610	1.860610	0	1	0	0	CorrectCommission	1.732831	1.299326	0	0	6.220000e+01
529.671936	1.346205	city	9	1	1.727915	1.727915	0	1	0	0	CorrectCommission	1.266085	1.273776	0	0	6.192500e+01
531.018250	1.346377	city	1	1	0.670397	0.670397	0	1	0	0	CorrectCommission	2.453662	1.229971	0	0	6.165000e+01
532.364502	1.346075	city	7	1	1.847167	1.847167	0	1	0	0	CorrectCommission	1.685544	1.168792	0	0	6.137500e+01
533.737366	1.399692	city	10	1	1.652304	1.652304	0	1	0	0	CorrectCommission	1.000127	1.091886	0	0	6.110000e+01
535.117004	1.359549	city	4	1	1.665812	1.665812	0	1	0	0	CorrectCommission	1.047642	1.001526	0	0	6.082500e+01
536.469849	1.346142	city	6	1	1.678800	1.678800	0	1	0	0	CorrectCommission	1.093324	0.900531	0	0	6.055000e+01
537.809326	1.332876	city	9	1	1.620058	1.620058	0	1	0	0	CorrectCommission	0.886706	0.792188	0	0	6.027500e+01
541.974792	6.998039	break	0	0	0.000000	1.561317	0	0	0	0	ThoughtProbe	0.680088	0.680088	1	60	60
