onset	duration	trial_type	image_type	Press	ReactionTime	ReactionTime_Interpolated	CorrectOmission	CorrectCommission	CommissionError	OmissionError	response_type	nonsmoothVarianceTimeCourse	VarianceTimeCourse	In_the_Zone	ThoughtProbe	ThoughtProbe_Interpolated
0.652901	1.279409	city	7	1	1.229333	1.229333	0	1	0	0	CorrectCommission	0.402208	0.402208	1	0	34
1.932461	1.279710	mountain	5	0	0.000000	1.352243	1	0	0	0	CorrectOmission	1.006244	0.458889	1	0	34
3.218784	1.292937	city	3	1	1.316868	1.316868	0	1	0	0	CorrectCommission	0.832393	0.512237	1	0	34
4.505045	1.279584	city	8	1	0.964920	0.964920	0	1	0	0	CorrectCommission	0.897232	0.559346	1	0	34
5.784633	1.279592	city	7	1	0.916362	0.916362	0	1	0	0	CorrectCommission	1.135865	0.598004	1	0	34
7.077541	1.306224	city	10	1	0.785288	0.785288	0	1	0	0	CorrectCommission	1.780021	0.626955	1	0	34
8.370434	1.279560	city	3	1	1.128314	1.128314	0	1	0	0	CorrectCommission	0.094241	0.645886	1	0	34
9.656637	1.292847	city	1	1	1.058836	1.058836	0	1	0	0	CorrectCommission	0.435687	0.655455	1	0	34
10.942887	1.279655	city	9	1	1.031630	1.031630	0	1	0	0	CorrectCommission	0.569387	0.656962	1	0	34
12.229172	1.292912	mountain	1	0	0.000000	1.029363	1	0	0	0	CorrectOmission	0.580527	0.652205	1	0	34
13.522076	1.292896	city	6	1	1.018436	1.018436	0	1	0	0	CorrectCommission	0.634230	0.643167	1	0	34
14.808257	1.279468	city	3	1	0.965248	0.965248	0	1	0	0	CorrectCommission	0.895620	0.631828	1	0	34
16.094505	1.293027	city	7	1	1.033865	1.033865	0	1	0	0	CorrectCommission	0.558403	0.619972	1	0	34
17.394146	1.306255	city	1	1	0.941028	0.941028	0	1	0	0	CorrectCommission	1.014644	0.609085	1	0	34
18.687054	1.279560	city	2	1	1.129606	1.129606	0	1	0	0	CorrectCommission	0.087892	0.600243	1	0	34
19.966629	1.279591	city	10	1	1.017048	1.017048	0	1	0	0	CorrectCommission	0.641049	0.594152	1	0	34
21.252874	1.292899	city	9	1	1.126267	1.126267	0	1	0	0	CorrectCommission	0.104301	0.591043	1	0	34
22.545725	1.292804	city	4	1	1.028342	1.028342	0	1	0	0	CorrectCommission	0.585547	0.590811	1	0	34
23.831888	1.279522	city	6	1	1.075546	1.075546	0	1	0	0	CorrectCommission	0.353567	0.593011	1	0	34
25.118183	1.293066	mountain	6	0	0.000000	1.299528	1	0	0	0	CorrectOmission	0.747180	0.596998	1	0	34
26.411169	1.292907	city	6	1	1.415119	1.415119	0	1	0	0	CorrectCommission	1.315245	0.602000	1	0	34
27.697351	1.279459	city	3	1	1.137149	1.137149	0	1	0	0	CorrectCommission	0.050820	0.607231	1	0	34
28.990276	1.306388	city	2	1	1.342800	1.342800	0	1	0	0	CorrectCommission	0.959838	0.612020	1	0	34
30.283136	1.279333	city	6	1	1.121434	1.121434	0	1	0	0	CorrectCommission	0.128052	0.615794	1	0	34
31.576002	1.306399	city	8	1	0.887710	0.887710	0	1	0	0	CorrectCommission	1.276674	0.618216	1	0	34
32.882240	1.306077	mountain	4	0	0.000000	1.128227	1	0	0	0	CorrectOmission	0.094668	0.619081	1	0	34
34.188519	1.306477	city	8	1	1.386536	1.386536	0	1	0	0	CorrectCommission	1.174773	0.618427	1	0	34
35.494781	1.306052	city	7	1	1.206186	1.206186	0	1	0	0	CorrectCommission	0.288454	0.616414	1	0	34
36.787678	1.279741	city	1	1	0.915577	0.915577	0	1	0	0	CorrectCommission	1.139723	0.613434	1	0	34
38.067329	1.279566	city	9	1	1.182945	1.182945	0	1	0	0	CorrectCommission	0.174240	0.609986	1	0	34
39.353497	1.292765	city	6	1	1.089783	1.089783	0	1	0	0	CorrectCommission	0.283597	0.606748	1	0	34
40.653046	1.306336	city	9	1	1.029980	1.029980	0	1	0	0	CorrectCommission	0.577498	0.604533	1	0	34
41.952614	1.292800	city	10	1	0.977731	0.977731	0	1	0	0	CorrectCommission	0.834272	0.604240	1	0	34
43.245552	1.293074	city	1	1	1.226234	1.226234	0	1	0	0	CorrectCommission	0.386978	0.606824	1	0	34
44.538551	1.292928	city	3	1	1.468468	1.468468	0	1	0	0	CorrectCommission	1.577421	0.613218	1	0	34
45.831375	1.292721	city	6	1	1.255826	1.255826	0	1	0	0	CorrectCommission	0.532410	0.624122	1	0	34
47.117527	1.279581	city	1	1	1.135577	1.135577	0	1	0	0	CorrectCommission	0.058545	0.639939	1	0	34
48.403770	1.292905	city	9	1	1.155423	1.155423	0	1	0	0	CorrectCommission	0.038985	0.660506	1	0	34
49.703342	1.306240	city	1	1	1.278708	1.278708	0	1	0	0	CorrectCommission	0.644859	0.684998	0	0	34
50.996288	1.279649	city	8	1	1.242547	1.242547	0	1	0	0	CorrectCommission	0.467151	0.711847	0	0	34
52.282635	1.293045	city	6	1	1.155817	1.155817	0	1	0	0	CorrectCommission	0.040922	0.738907	0	0	34
53.575565	1.292816	city	5	1	1.041030	1.041030	0	1	0	0	CorrectCommission	0.523193	0.763623	0	0	34
54.868465	1.292985	city	6	1	0.848956	0.848956	0	1	0	0	CorrectCommission	1.467127	0.783368	0	0	34
56.154652	1.279386	city	3	1	1.664643	1.664643	0	1	0	0	CorrectCommission	2.541515	0.795851	0	0	34
57.447556	1.306420	city	4	1	1.375783	1.375783	0	1	0	0	CorrectCommission	1.121929	0.799446	0	0	34
58.100765	9.516749	break	0	0	0.000000	1.288633	0	0	0	0	ThoughtProbe	0.693637	0.793530	0	34	34
68.264046	1.293062	mountain	6	0	0.000000	1.302436	1	0	0	0	CorrectOmission	0.761470	0.778497	0	0	3.397500e+01
69.556824	1.292504	city	7	1	1.316432	1.316432	0	1	0	0	CorrectCommission	0.830255	0.755782	0	0	3.395000e+01
70.856293	1.306421	mountain	6	0	0.000000	1.229865	1	0	0	0	CorrectOmission	0.404824	0.727637	0	0	3.392500e+01
72.162697	1.306395	city	5	1	1.217382	1.217382	0	1	0	0	CorrectCommission	0.343476	0.696938	0	0	3.390000e+01
73.455612	1.279430	city	9	1	1.453632	1.453632	0	1	0	0	CorrectCommission	1.504513	0.666821	1	0	3.387500e+01
74.761848	1.333051	city	3	1	1.246865	1.246865	0	1	0	0	CorrectCommission	0.488369	0.640352	1	0	3.385000e+01
76.094826	1.332894	city	2	1	1.188147	1.188147	0	1	0	0	CorrectCommission	0.199805	0.620306	1	0	3.382500e+01
77.407738	1.292938	city	5	1	1.094998	1.094998	0	1	0	0	CorrectCommission	0.257969	0.608877	1	0	3.380000e+01
78.700569	1.292717	city	2	1	1.170117	1.170117	0	1	0	0	CorrectCommission	0.111195	0.607500	1	0	3.377500e+01
80.000114	1.306385	city	9	1	1.066553	1.066553	0	1	0	0	CorrectCommission	0.397762	0.616834	1	0	3.375000e+01
81.299774	1.292921	city	2	1	1.076666	1.076666	0	1	0	0	CorrectCommission	0.348063	0.636709	1	0	3.372500e+01
82.592628	1.292800	city	6	1	0.999505	0.999505	0	1	0	0	CorrectCommission	0.727262	0.666255	1	0	3.370000e+01
83.912209	1.346352	city	8	1	1.090009	1.090009	0	1	0	0	CorrectCommission	0.282490	0.704007	0	0	3.367500e+01
85.225082	1.279396	city	6	1	0.856537	0.856537	0	1	0	0	CorrectCommission	1.429869	0.748190	0	0	3.365000e+01
86.511246	1.292934	city	9	1	1.040244	1.040244	0	1	0	0	CorrectCommission	0.527056	0.796770	0	0	3.362500e+01
87.797493	1.279560	city	6	1	0.969856	0.969856	0	1	0	0	CorrectCommission	0.872973	0.847774	0	0	3.360000e+01
89.083725	1.292899	city	10	1	0.991514	0.991514	0	1	0	0	CorrectCommission	0.766536	0.899355	0	0	3.357500e+01
90.383377	1.306400	mountain	10	0	0.000000	0.950606	1	0	0	0	CorrectOmission	0.967575	0.949940	0	0	3.355000e+01
91.682953	1.292757	city	6	1	0.896632	0.896632	0	1	0	0	CorrectCommission	1.232825	0.998274	0	0	3.352500e+01
92.975883	1.293115	city	10	1	0.879093	0.879093	0	1	0	0	CorrectCommission	1.319020	1.043393	0	0	3.350000e+01
94.262222	1.279553	city	7	1	0.875315	0.875315	0	1	0	0	CorrectCommission	1.337589	1.084640	0	0	3.347500e+01
95.548431	1.292874	city	8	1	1.043406	1.043406	0	1	0	0	CorrectCommission	0.511515	1.121584	0	0	3.345000e+01
96.847908	1.306081	city	10	1	0.883799	0.883799	0	1	0	0	CorrectCommission	1.295895	1.153915	0	0	3.342500e+01
98.147507	1.293103	city	1	1	0.751564	0.751564	0	1	0	0	CorrectCommission	1.945751	1.181330	0	0	3.340000e+01
99.440529	1.292943	city	10	1	0.935485	0.935485	0	1	0	0	CorrectCommission	1.041886	1.203449	0	0	3.337500e+01
100.733566	1.293139	city	5	1	0.933619	0.933619	0	1	0	0	CorrectCommission	1.051058	1.219821	0	0	3.335000e+01
102.033051	1.305827	city	1	1	0.871681	0.871681	0	1	0	0	CorrectCommission	1.355446	1.229844	0	0	3.332500e+01
103.345764	1.319596	city	2	1	1.065031	1.065031	0	1	0	0	CorrectCommission	0.405241	1.232879	0	0	3.330000e+01
104.645401	1.279689	city	9	1	0.819496	0.819496	0	1	0	0	CorrectCommission	1.611905	1.228369	0	0	3.327500e+01
105.951683	1.332868	city	10	1	0.731940	0.731940	0	1	0	0	CorrectCommission	2.042195	1.215968	0	0	3.325000e+01
107.257904	1.279579	city	2	1	0.813026	0.813026	0	1	0	0	CorrectCommission	1.643704	1.195774	0	0	3.322500e+01
108.550728	1.306075	city	5	1	1.083856	1.083856	0	1	0	0	CorrectCommission	0.312727	1.168465	0	0	3.320000e+01
109.850227	1.292924	city	7	1	1.776810	1.776810	0	1	0	0	CorrectCommission	3.092748	1.135357	0	0	3.317500e+01
111.149811	1.306240	city	1	1	1.318733	1.318733	0	1	0	0	CorrectCommission	0.841559	1.098280	0	0	3.315000e+01
112.442795	1.279731	city	9	1	1.299971	1.299971	0	1	0	0	CorrectCommission	0.749354	1.059638	0	0	3.312500e+01
113.735703	1.306081	city	6	1	1.151572	1.151572	0	1	0	0	CorrectCommission	0.020059	1.021989	0	0	3.310000e+01
115.041946	1.306405	city	4	1	1.036122	1.036122	0	1	0	0	CorrectCommission	0.547314	0.987882	0	0	3.307500e+01
116.341591	1.292887	city	5	1	0.823484	0.823484	0	1	0	0	CorrectCommission	1.592310	0.959512	0	0	3.305000e+01
117.627754	1.279432	city	9	1	0.978294	0.978294	0	1	0	0	CorrectCommission	0.831505	0.938499	0	0	3.302500e+01
118.267471	8.517346	break	0	1	1.244431	1.244431	0	0	0	0	ThoughtProbe	0.476407	0.925779	0	33	33
127.431274	1.292928	city	4	1	1.350767	1.350767	0	1	0	0	CorrectCommission	0.998988	0.921392	0	0	3.361765e+01
128.757523	1.359566	city	7	1	1.211264	1.211264	0	1	0	0	CorrectCommission	0.313412	0.924526	0	0	3.423529e+01
130.083801	1.292979	city	1	1	0.911825	0.911825	0	1	0	0	CorrectCommission	1.158160	0.933612	0	0	3.485294e+01
131.403351	1.346142	city	3	1	1.079942	1.079942	0	1	0	0	CorrectCommission	0.331962	0.946443	0	0	3.547059e+01
132.722870	1.292889	city	5	1	0.938090	0.938090	0	1	0	0	CorrectCommission	1.029085	0.960445	0	0	3.608824e+01
134.022430	1.306233	mountain	10	1	0.859736	0.859736	0	0	1	0	CommissionError	1.414147	0.972908	0	0	3.670588e+01
135.322021	1.292934	city	9	1	0.812347	0.812347	0	1	0	0	CorrectCommission	1.647038	0.981339	0	0	3.732353e+01
136.621506	1.306048	city	4	1	1.063724	1.063724	0	1	0	0	CorrectCommission	0.411662	0.983741	0	0	3.794118e+01
137.920990	1.292912	city	6	1	0.948478	0.948478	0	1	0	0	CorrectCommission	0.978031	0.978845	0	0	3.855882e+01
139.220642	1.306396	city	8	1	0.775964	0.775964	0	1	0	0	CorrectCommission	1.825843	0.966253	0	0	3.917647e+01
140.513580	1.279473	city	6	1	0.761736	0.761736	0	1	0	0	CorrectCommission	1.895765	0.946445	0	0	3.979412e+01
141.806488	1.306341	mountain	5	0	0.000000	1.010883	1	0	0	0	CorrectOmission	0.671347	0.920720	0	0	4.041176e+01
143.099411	1.279518	city	6	1	1.289684	1.289684	0	1	0	0	CorrectCommission	0.698803	0.890990	0	0	4.102941e+01
144.379013	1.279668	city	7	1	1.364417	1.364417	0	1	0	0	CorrectCommission	1.066074	0.859462	0	0	4.164706e+01
145.658615	1.279553	city	4	1	1.196059	1.196059	0	1	0	0	CorrectCommission	0.238689	0.828246	0	0	4.226471e+01
146.944778	1.292769	city	5	1	1.189635	1.189635	0	1	0	0	CorrectCommission	0.207118	0.799150	0	0	4.288235e+01
148.237610	1.292884	city	6	1	1.196317	1.196317	0	1	0	0	CorrectCommission	0.239956	0.773366	0	0	4.350000e+01
149.530502	1.292919	city	7	1	1.046223	1.046223	0	1	0	0	CorrectCommission	0.497670	0.751393	0	0	4.411765e+01
150.823425	1.292933	city	5	1	0.664703	0.664703	0	1	0	0	CorrectCommission	2.372627	0.733021	0	0	4.473529e+01
152.122925	1.306047	city	4	1	1.152396	1.152396	0	1	0	0	CorrectCommission	0.024110	0.717406	0	0	4.535294e+01
153.429230	1.306577	city	10	1	1.045998	1.045998	0	1	0	0	CorrectCommission	0.498775	0.703412	0	0	4.597059e+01
154.722214	1.279394	city	4	1	1.304366	1.304366	0	1	0	0	CorrectCommission	0.770953	0.689696	0	0	4.658824e+01
156.015030	1.306237	city	5	1	1.019567	1.019567	0	1	0	0	CorrectCommission	0.628671	0.675007	1	0	4.720588e+01
157.314606	1.292918	city	7	1	1.082854	1.082854	0	1	0	0	CorrectCommission	0.317651	0.658450	1	0	4.782353e+01
158.614197	1.306238	city	8	1	0.951328	0.951328	0	1	0	0	CorrectCommission	0.964028	0.639575	1	0	4.844118e+01
159.913849	1.293078	city	3	1	0.918104	0.918104	0	1	0	0	CorrectCommission	1.127302	0.618502	1	0	4.905882e+01
161.200104	1.279446	city	10	1	0.822138	0.822138	0	1	0	0	CorrectCommission	1.598924	0.595925	1	0	4.967647e+01
162.479599	1.279544	city	7	1	1.139140	1.139140	0	1	0	0	CorrectCommission	0.041035	0.573036	1	0	5.029412e+01
163.765915	1.293082	city	8	1	1.051832	1.051832	0	1	0	0	CorrectCommission	0.470105	0.551382	1	0	5.091176e+01
165.058929	1.292947	city	10	1	1.164030	1.164030	0	1	0	0	CorrectCommission	0.081283	0.532609	1	0	5.152941e+01
166.345078	1.279353	city	8	1	1.148923	1.148923	0	1	0	0	CorrectCommission	0.007040	0.518278	1	0	5.214706e+01
167.631226	1.292934	city	1	1	1.138672	1.138672	0	1	0	0	CorrectCommission	0.043339	0.509667	1	0	5.276471e+01
168.930893	1.306384	city	5	1	1.219078	1.219078	0	1	0	0	CorrectCommission	0.351814	0.507664	1	0	5.338235e+01
169.584076	9.290289	break	0	0	0.000000	1.314659	0	0	0	0	ThoughtProbe	0.821539	0.512727	1	54	54
179.520737	1.292749	city	4	1	1.295768	1.295768	0	1	0	0	CorrectCommission	0.728702	0.524893	1	0	5.347826e+01
180.806900	1.279555	city	9	1	1.032761	1.032761	0	1	0	0	CorrectCommission	0.563831	0.543789	1	0	5.295652e+01
182.106537	1.319723	city	10	1	0.997695	0.997695	0	1	0	0	CorrectCommission	0.736157	0.568710	1	0	5.243478e+01
183.412827	1.292859	city	6	1	1.247156	1.247156	0	1	0	0	CorrectCommission	0.489803	0.598569	1	0	5.191304e+01
184.705673	1.292843	city	8	1	1.094272	1.094272	0	1	0	0	CorrectCommission	0.261538	0.631949	1	0	5.139130e+01
186.005188	1.306193	city	7	1	1.210508	1.210508	0	1	0	0	CorrectCommission	0.309699	0.667107	1	0	5.086957e+01
187.304764	1.292951	city	9	1	1.147161	1.147161	0	1	0	0	CorrectCommission	0.001619	0.702025	0	0	5.034783e+01
188.611069	1.319668	city	10	1	1.035321	1.035321	0	1	0	0	CorrectCommission	0.551248	0.734627	0	0	4.982609e+01
189.910629	1.279457	city	7	1	1.565746	1.565746	0	1	0	0	CorrectCommission	2.055488	0.762947	0	0	4.930435e+01
191.210220	1.319706	city	6	1	1.392487	1.392487	0	1	0	0	CorrectCommission	1.204021	0.785370	0	0	4.878261e+01
192.516495	1.292863	mountain	2	0	0.000000	1.291104	1	0	0	0	CorrectOmission	0.705781	0.800955	0	0	4.826087e+01
193.802673	1.279489	mountain	7	1	1.307810	1.307810	0	0	1	0	CommissionError	0.787878	0.809542	0	0	4.773913e+01
195.088882	1.292910	city	1	1	1.488816	1.488816	0	1	0	0	CorrectCommission	1.677422	0.811796	0	0	4.721739e+01
196.395187	1.319696	mountain	10	0	0.000000	1.422467	1	0	0	0	CorrectOmission	1.351353	0.809099	0	0	4.669565e+01
197.708130	1.306199	city	9	1	1.270895	1.270895	0	1	0	0	CorrectCommission	0.606464	0.803312	0	0	4.617391e+01
199.007706	1.292949	city	2	1	1.196235	1.196235	0	1	0	0	CorrectCommission	0.239553	0.796457	0	0	4.565217e+01
200.307251	1.306148	city	4	1	1.215688	1.215688	0	1	0	0	CorrectCommission	0.335154	0.790274	0	0	4.513043e+01
201.613495	1.306347	city	6	1	1.048993	1.048993	0	1	0	0	CorrectCommission	0.484058	0.785913	0	0	4.460870e+01
202.919785	1.306238	city	2	1	1.097519	1.097519	0	1	0	0	CorrectCommission	0.245579	0.783731	0	0	4.408696e+01
204.219315	1.292795	city	8	1	1.320651	1.320651	0	1	0	0	CorrectCommission	0.850984	0.783225	0	0	4.356522e+01
205.532120	1.332819	city	4	1	1.125909	1.125909	0	1	0	0	CorrectCommission	0.106061	0.783175	0	0	4.304348e+01
206.858322	1.319598	city	7	1	1.527345	1.527345	0	1	0	0	CorrectCommission	1.866771	0.781949	0	0	4.252174e+01
208.171219	1.306203	city	3	1	0.954620	0.954620	0	1	0	0	CorrectCommission	0.947850	0.777811	0	0	42
209.490875	1.333086	city	8	1	0.814638	0.814638	0	1	0	0	CorrectCommission	1.635782	0.769380	0	0	4.147826e+01
210.797104	1.279388	mountain	10	1	0.977290	0.977290	0	0	1	0	CommissionError	0.836436	0.755829	0	0	4.095652e+01
212.089935	1.306276	city	7	1	1.338260	1.338260	0	1	0	0	CorrectCommission	0.937525	0.737150	0	0	4.043478e+01
213.416245	1.346342	city	6	1	1.086027	1.086027	0	1	0	0	CorrectCommission	0.302055	0.714072	0	0	3.991304e+01
214.735886	1.292933	city	1	1	0.999486	0.999486	0	1	0	0	CorrectCommission	0.727356	0.687974	0	0	3.939130e+01
216.055374	1.346043	city	9	1	1.249553	1.249553	0	1	0	0	CorrectCommission	0.501580	0.660650	1	0	3.886957e+01
217.388184	1.319566	city	7	1	1.287755	1.287755	0	1	0	0	CorrectCommission	0.689320	0.634096	1	0	3.834783e+01
218.707748	1.319592	city	3	1	1.217455	1.217455	0	1	0	0	CorrectCommission	0.343837	0.610210	1	0	3.782609e+01
220.020660	1.306214	city	9	1	1.045033	1.045033	0	1	0	0	CorrectCommission	0.503518	0.590673	1	0	3.730435e+01
221.326965	1.306400	city	2	1	1.005000	1.005000	0	1	0	0	CorrectCommission	0.700259	0.576776	1	0	3.678261e+01
222.639908	1.319493	city	9	1	1.167219	1.167219	0	1	0	0	CorrectCommission	0.096958	0.569347	1	0	3.626087e+01
223.952805	1.306303	city	2	1	1.215468	1.215468	0	1	0	0	CorrectCommission	0.334071	0.568776	1	0	3.573913e+01
225.259094	1.306272	city	7	1	1.106671	1.106671	0	1	0	0	CorrectCommission	0.200603	0.574989	1	0	3.521739e+01
226.565338	1.306218	city	1	1	0.998876	0.998876	0	1	0	0	CorrectCommission	0.730353	0.587534	1	0	3.469565e+01
227.884827	1.332741	city	3	1	0.843757	0.843757	0	1	0	0	CorrectCommission	1.492678	0.605582	1	0	3.417391e+01
229.211044	1.319708	city	9	1	1.067724	1.067724	0	1	0	0	CorrectCommission	0.392007	0.627938	1	0	3.365217e+01
230.557907	1.374019	city	3	1	1.293370	1.293370	0	1	0	0	CorrectCommission	0.716919	0.653094	1	0	3.313043e+01
231.897385	1.304936	city	5	1	1.174478	1.174478	0	1	0	0	CorrectCommission	0.132629	0.679189	1	0	3.260870e+01
233.196350	1.292990	city	9	1	1.104306	1.104306	0	1	0	0	CorrectCommission	0.212228	0.704080	0	0	3.208696e+01
234.515915	1.346142	city	4	1	1.136450	1.136450	0	1	0	0	CorrectCommission	0.054254	0.725495	0	0	3.156522e+01
235.848862	1.319737	city	3	1	1.106510	1.106510	0	1	0	0	CorrectCommission	0.201394	0.741215	0	0	3.104348e+01
237.148453	1.279464	city	7	1	1.664006	1.664006	0	1	0	0	CorrectCommission	2.538384	0.749375	0	0	3.052174e+01
237.788193	10.676610	break	0	0	0.000000	1.621527	0	0	0	0	ThoughtProbe	2.329622	0.748678	0	30	30
249.111206	1.292823	city	7	1	1.358780	1.358780	0	1	0	0	CorrectCommission	1.038368	0.738719	0	0	3.126471e+01
250.430771	1.346294	city	4	1	1.255472	1.255472	0	1	0	0	CorrectCommission	0.530667	0.720019	0	0	3.252941e+01
251.743652	1.279490	city	6	1	1.024392	1.024392	0	1	0	0	CorrectCommission	0.604957	0.693978	0	0	3.379412e+01
253.056488	1.346179	city	7	1	1.141611	1.141611	0	1	0	0	CorrectCommission	0.028892	0.662650	1	0	3.505882e+01
254.396011	1.332872	city	2	1	1.053708	1.053708	0	1	0	0	CorrectCommission	0.460887	0.628536	1	0	3.632353e+01
255.708923	1.292939	city	6	1	1.028066	1.028066	0	1	0	0	CorrectCommission	0.586904	0.594200	1	0	3.758824e+01
256.995178	1.279545	mountain	10	1	1.146594	1.146594	0	0	1	0	CommissionError	0.004405	0.562053	1	0	3.885294e+01
258.288055	1.306241	city	7	1	1.383339	1.383339	0	1	0	0	CorrectCommission	1.159061	0.534134	1	0	4.011765e+01
259.594391	1.306416	city	9	1	1.218797	1.218797	0	1	0	0	CorrectCommission	0.350433	0.511936	1	0	4.138235e+01
260.900635	1.306051	city	7	1	1.049411	1.049411	0	1	0	0	CorrectCommission	0.482005	0.496416	1	0	4.264706e+01
262.206848	1.306401	city	4	1	1.219758	1.219758	0	1	0	0	CorrectCommission	0.355157	0.487893	1	0	4.391176e+01
263.533112	1.346147	city	6	1	1.123744	1.123744	0	1	0	0	CorrectCommission	0.116702	0.486103	1	0	4.517647e+01
264.845947	1.279488	mountain	3	0	0.000000	1.203990	1	0	0	0	CorrectOmission	0.277665	0.490251	1	0	4.644118e+01
266.138763	1.306183	city	6	1	1.274363	1.274363	0	1	0	0	CorrectCommission	0.623510	0.499032	1	0	4.770588e+01
267.431671	1.279635	city	4	1	1.148728	1.148728	0	1	0	0	CorrectCommission	0.006082	0.510800	1	0	4.897059e+01
268.724701	1.306407	city	1	1	1.048004	1.048004	0	1	0	0	CorrectCommission	0.488921	0.523725	1	0	5.023529e+01
270.024353	1.292922	city	10	1	0.958295	0.958295	0	1	0	0	CorrectCommission	0.929790	0.535948	1	0	5.150000e+01
271.337280	1.332896	city	1	1	1.018667	1.018667	0	1	0	0	CorrectCommission	0.633093	0.545804	1	0	5.276471e+01
272.656769	1.306064	city	3	1	0.983277	0.983277	0	1	0	0	CorrectCommission	0.807017	0.552024	1	0	5.402941e+01
273.969574	1.319562	city	8	1	0.944272	0.944272	0	1	0	0	CorrectCommission	0.998703	0.553885	1	0	5.529412e+01
275.289215	1.319726	city	9	1	1.232725	1.232725	0	1	0	0	CorrectCommission	0.418881	0.551248	1	0	5.655882e+01
276.595459	1.292746	city	5	1	0.966669	0.966669	0	1	0	0	CorrectCommission	0.888636	0.544623	1	0	5.782353e+01
277.881683	1.279738	city	8	1	1.199703	1.199703	0	1	0	0	CorrectCommission	0.256596	0.535033	1	0	5.908824e+01
279.167938	1.292753	city	3	1	1.374236	1.374236	0	1	0	0	CorrectCommission	1.114327	0.523890	1	0	6.035294e+01
280.467438	1.306230	city	9	1	1.169242	1.169242	0	1	0	0	CorrectCommission	0.106899	0.512682	1	0	6.161765e+01
281.760437	1.279770	city	2	1	1.104680	1.104680	0	1	0	0	CorrectCommission	0.210389	0.502837	1	0	6.288235e+01
283.046692	1.292753	city	8	1	1.142401	1.142401	0	1	0	0	CorrectCommission	0.025011	0.495427	1	0	6.414706e+01
284.339569	1.293032	city	4	1	1.047390	1.047390	0	1	0	0	CorrectCommission	0.491936	0.491039	1	0	6.541176e+01
285.665894	1.359576	city	5	1	0.997963	0.997963	0	1	0	0	CorrectCommission	0.734842	0.489736	1	0	6.667647e+01
286.992035	1.292734	city	7	1	1.138359	1.138359	0	1	0	0	CorrectCommission	0.044874	0.491069	1	0	6.794118e+01
288.284851	1.292898	city	4	1	1.105998	1.105998	0	1	0	0	CorrectCommission	0.203909	0.494252	1	0	6.920588e+01
289.584534	1.306427	city	8	1	0.895066	0.895066	0	1	0	0	CorrectCommission	1.240524	0.498310	1	0	7.047059e+01
290.884186	1.292905	city	4	1	1.037210	1.037210	0	1	0	0	CorrectCommission	0.541967	0.502286	1	0	7.173529e+01
291.530640	14.461733	break	0	0	0.000000	1.201115	0	0	0	0	ThoughtProbe	0.263535	0.505516	1	73	73
306.645477	1.306227	city	10	1	1.310445	1.310445	0	1	0	0	CorrectCommission	0.800832	0.507678	1	0	7.297500e+01
307.958374	1.319563	city	3	1	1.288865	1.288865	0	1	0	0	CorrectCommission	0.694779	0.508878	1	0	7.295000e+01
309.278015	1.319723	city	2	1	0.983737	0.983737	0	1	0	0	CorrectCommission	0.804755	0.509641	1	0	7.292500e+01
310.577637	1.279513	mountain	10	1	1.069395	1.069395	0	0	1	0	CommissionError	0.383795	0.510767	1	0	7.290000e+01
311.870483	1.306154	city	6	1	1.056106	1.056106	0	1	0	0	CorrectCommission	0.449102	0.513177	1	0	7.287500e+01
313.183411	1.319746	city	8	1	1.136049	1.136049	0	1	0	0	CorrectCommission	0.056230	0.517701	1	0	7.285000e+01
314.489746	1.292914	city	3	1	1.187949	1.187949	0	1	0	0	CorrectCommission	0.198830	0.524921	1	0	7.282500e+01
315.789246	1.306068	city	5	1	1.194094	1.194094	0	1	0	0	CorrectCommission	0.229032	0.535028	1	0	7.280000e+01
317.082153	1.279722	city	10	1	0.985740	0.985740	0	1	0	0	CorrectCommission	0.794911	0.547824	1	0	7.277500e+01
318.361694	1.279414	mountain	10	1	1.084871	1.084871	0	0	1	0	CommissionError	0.307741	0.562702	1	0	7.275000e+01
319.641205	1.279585	city	8	1	0.965938	0.965938	0	1	0	0	CorrectCommission	0.892228	0.578819	1	0	7.272500e+01
320.934204	1.306396	city	4	1	0.917809	0.917809	0	1	0	0	CorrectCommission	1.128753	0.595176	1	0	7.270000e+01
322.260498	1.346201	city	1	1	1.074237	1.074237	0	1	0	0	CorrectCommission	0.360000	0.610806	1	0	7.267500e+01
323.579987	1.292766	city	8	1	0.976799	0.976799	0	1	0	0	CorrectCommission	0.838852	0.624898	1	0	7.265000e+01
324.866150	1.279593	city	7	1	1.022961	1.022961	0	1	0	0	CorrectCommission	0.611990	0.636837	1	0	7.262500e+01
326.159149	1.306388	city	9	1	1.212760	1.212760	0	1	0	0	CorrectCommission	0.320762	0.646255	1	0	7.260000e+01
327.458801	1.292927	city	8	1	1.031290	1.031290	0	1	0	0	CorrectCommission	0.571059	0.653036	1	0	7.257500e+01
328.771637	1.332716	city	1	1	1.044602	1.044602	0	1	0	0	CorrectCommission	0.505639	0.657282	1	0	7.255000e+01
330.091125	1.306269	city	4	1	1.481130	1.481130	0	1	0	0	CorrectCommission	1.639651	0.659256	1	0	7.252500e+01
331.410675	1.332860	city	1	1	1.235470	1.235470	0	1	0	0	CorrectCommission	0.432370	0.659315	1	0	7.250000e+01
332.730164	1.306095	city	4	1	1.341481	1.341481	0	1	0	0	CorrectCommission	0.953355	0.657892	1	0	7.247500e+01
334.043152	1.319874	city	1	1	1.235505	1.235505	0	1	0	0	CorrectCommission	0.432544	0.655398	1	0	7.245000e+01
335.362793	1.319399	city	5	1	1.214034	1.214034	0	1	0	0	CorrectCommission	0.327024	0.652167	1	0	7.242500e+01
336.689026	1.333076	city	2	1	1.018092	1.018092	0	1	0	0	CorrectCommission	0.635918	0.648427	1	0	7.240000e+01
338.015259	1.319405	city	4	1	1.093727	1.093727	0	1	0	0	CorrectCommission	0.264214	0.644298	1	0	7.237500e+01
339.334747	1.319544	city	3	1	1.056528	1.056528	0	1	0	0	CorrectCommission	0.447029	0.639882	1	0	7.235000e+01
340.634460	1.279880	mountain	4	0	0.000000	1.305498	1	0	0	0	CorrectOmission	0.776519	0.635296	1	0	7.232500e+01
341.914032	1.279288	city	7	1	1.498817	1.498817	0	1	0	0	CorrectCommission	1.726574	0.630775	1	0	7.230000e+01
343.221069	1.334812	city	5	1	1.294665	1.294665	0	1	0	0	CorrectCommission	0.723279	0.626705	1	0	7.227500e+01
344.534088	1.291184	city	9	1	1.213518	1.213518	0	1	0	0	CorrectCommission	0.324487	0.623629	1	0	7.225000e+01
345.826111	1.292884	city	5	1	0.995695	0.995695	0	1	0	0	CorrectCommission	0.745987	0.622132	1	0	7.222500e+01
347.132324	1.319551	city	3	1	1.154189	1.154189	0	1	0	0	CorrectCommission	0.032920	0.622708	1	0	7.220000e+01
348.465210	1.346220	city	4	1	1.078569	1.078569	0	1	0	0	CorrectCommission	0.338710	0.625626	1	0	7.217500e+01
349.784790	1.292932	city	2	1	1.022988	1.022988	0	1	0	0	CorrectCommission	0.611858	0.630777	1	0	7.215000e+01
351.104279	1.346057	city	8	1	1.187883	1.187883	0	1	0	0	CorrectCommission	0.198506	0.637660	1	0	7.212500e+01
352.430420	1.306223	city	10	1	0.976033	0.976033	0	1	0	0	CorrectCommission	0.842615	0.645397	1	0	7.210000e+01
353.743317	1.319561	city	1	1	1.393766	1.393766	0	1	0	0	CorrectCommission	1.210305	0.652855	1	0	7.207500e+01
355.062988	1.319749	city	8	1	1.128859	1.128859	0	1	0	0	CorrectCommission	0.091564	0.658844	1	0	7.205000e+01
356.369202	1.292722	city	1	1	0.868988	0.868988	0	1	0	0	CorrectCommission	1.368683	0.662345	1	0	7.202500e+01
357.015564	9.930202	break	0	0	0.000000	1.154747	0	0	0	0	ThoughtProbe	0.035661	0.662652	1	72	72
367.585541	1.279522	city	10	1	1.482490	1.482490	0	1	0	0	CorrectCommission	1.646335	0.659616	1	0	7.110870e+01
368.891785	1.333006	city	2	1	1.348572	1.348572	0	1	0	0	CorrectCommission	0.988202	0.653661	1	0	7.021739e+01
370.204712	1.292800	city	10	1	1.322096	1.322096	0	1	0	0	CorrectCommission	0.858089	0.645793	1	0	6.932609e+01
371.517578	1.332980	city	4	1	1.100925	1.100925	0	1	0	0	CorrectCommission	0.228841	0.637450	1	0	6.843478e+01
372.823792	1.279440	mountain	1	0	0.000000	1.090714	1	0	0	0	CorrectOmission	0.279025	0.630388	1	0	6.754348e+01
374.109985	1.292917	city	6	1	1.142602	1.142602	0	1	0	0	CorrectCommission	0.024022	0.626411	1	0	6.665217e+01
375.402893	1.292885	city	2	1	1.107731	1.107731	0	1	0	0	CorrectCommission	0.195393	0.627240	1	0	6.576087e+01
376.722504	1.346368	mountain	4	1	0.881058	0.881058	0	0	1	0	CommissionError	1.309366	0.634324	1	0	6.486957e+01
378.042145	1.292912	mountain	5	0	0.000000	1.072615	1	0	0	0	CorrectOmission	0.367968	0.648699	1	0	6.397826e+01
379.328400	1.279577	city	10	1	1.341703	1.341703	0	1	0	0	CorrectCommission	0.954447	0.670938	1	0	6.308696e+01
380.627899	1.319407	city	7	1	1.347620	1.347620	0	1	0	0	CorrectCommission	0.983523	0.701021	0	0	6.219565e+01
381.980774	1.386371	city	6	1	1.129059	1.129059	0	1	0	0	CorrectCommission	0.090579	0.738297	0	0	6.130435e+01
383.320404	1.292908	city	9	1	1.101191	1.101191	0	1	0	0	CorrectCommission	0.227534	0.781424	0	0	6.041304e+01
384.619965	1.306170	city	2	1	1.225418	1.225418	0	1	0	0	CorrectCommission	0.382969	0.828418	0	0	5.952174e+01
385.926208	1.306332	city	6	1	1.054962	1.054962	0	1	0	0	CorrectCommission	0.454723	0.876716	0	0	5.863043e+01
387.225739	1.292735	city	5	1	1.490743	1.490743	0	1	0	0	CorrectCommission	1.686892	0.923365	0	0	5.773913e+01
388.538635	1.333038	city	4	1	1.495073	1.495073	0	1	0	0	CorrectCommission	1.708172	0.965293	0	0	5.684783e+01
389.898499	1.386714	city	2	1	1.343849	1.343849	0	1	0	0	CorrectCommission	0.964992	0.999731	0	0	5.595652e+01
391.237976	1.292244	city	4	1	1.089234	1.089234	0	1	0	0	CorrectCommission	0.286297	1.024587	0	0	5.506522e+01
392.557312	1.346402	city	8	1	0.907365	0.907365	0	1	0	0	CorrectCommission	1.180079	1.038830	0	0	5.417391e+01
393.896942	1.332880	city	1	1	0.541748	0.541748	0	1	0	0	CorrectCommission	2.976881	1.042632	0	0	5.328261e+01
395.229828	1.332899	city	6	1	0.755372	0.755372	0	1	0	0	CorrectCommission	1.927039	1.037494	0	0	5.239130e+01
396.542755	1.292917	city	3	1	1.217507	1.217507	0	1	0	0	CorrectCommission	0.344091	1.026084	0	0	5.150000e+01
397.835663	1.292939	city	4	1	1.420832	1.420832	0	1	0	0	CorrectCommission	1.343319	1.011877	0	0	5.060870e+01
399.161896	1.359527	city	1	1	1.209639	1.209639	0	1	0	0	CorrectCommission	0.305423	0.998527	0	0	4.971739e+01
400.508026	1.332731	city	3	1	1.276860	1.276860	0	1	0	0	CorrectCommission	0.635780	0.989347	0	0	4.882609e+01
401.834167	1.319551	city	6	1	1.276364	1.276364	0	1	0	0	CorrectCommission	0.633341	0.986616	0	0	4.793478e+01
403.167053	1.346219	city	4	1	1.234950	1.234950	0	1	0	0	CorrectCommission	0.429814	0.991190	0	0	4.704348e+01
404.499939	1.319568	city	5	1	1.022495	1.022495	0	1	0	0	CorrectCommission	0.614279	1.002275	0	0	4.615217e+01
405.806183	1.292888	city	3	1	1.248120	1.248120	0	1	0	0	CorrectCommission	0.494537	1.017480	0	0	4.526087e+01
407.105835	1.306445	city	6	1	1.218064	1.218064	0	1	0	0	CorrectCommission	0.346831	1.033281	0	0	4.436957e+01
408.405457	1.292748	city	1	1	1.138355	1.138355	0	1	0	0	CorrectCommission	0.044897	1.045644	0	0	4.347826e+01
409.698273	1.292911	city	7	1	1.749987	1.749987	0	1	0	0	CorrectCommission	2.960928	1.050811	0	0	4.258696e+01
410.991180	1.292889	mountain	2	0	0.000000	1.900255	1	0	0	0	CorrectOmission	3.699412	1.045986	0	0	4.169565e+01
412.284149	1.293051	city	9	1	1.693122	1.693122	0	1	0	0	CorrectCommission	2.681470	1.029956	0	0	4.080435e+01
413.603699	1.346063	city	3	1	1.232549	1.232549	0	1	0	0	CorrectCommission	0.418014	1.003329	0	0	3.991304e+01
414.923187	1.292942	city	5	1	1.192028	1.192028	0	1	0	0	CorrectCommission	0.218876	0.968422	0	0	3.902174e+01
416.222778	1.306211	city	8	1	1.148556	1.148556	0	1	0	0	CorrectCommission	0.005239	0.928765	0	0	3.813043e+01
417.542328	1.332892	city	5	1	1.027665	1.027665	0	1	0	0	CorrectCommission	0.588871	0.888501	0	0	3.723913e+01
418.855316	1.293083	city	3	1	1.031035	1.031035	0	1	0	0	CorrectCommission	0.572314	0.851722	0	0	3.634783e+01
420.141571	1.279399	city	4	1	1.287053	1.287053	0	1	0	0	CorrectCommission	0.685873	0.821924	0	0	3.545652e+01
421.427734	1.292947	city	3	1	1.090370	1.090370	0	1	0	0	CorrectCommission	0.280712	0.801565	0	0	3.456522e+01
422.720642	1.292873	city	9	1	0.983138	0.983138	0	1	0	0	CorrectCommission	0.807699	0.791895	0	0	3.367391e+01
424.046936	1.359715	city	2	1	1.005652	1.005652	0	1	0	0	CorrectCommission	0.697057	0.793002	0	0	3.278261e+01
425.373169	1.292761	city	10	1	0.976115	0.976115	0	1	0	0	CorrectCommission	0.842211	0.804073	0	0	3.189130e+01
429.078552	6.117994	break	0	0	0.000000	1.144457	0	0	0	0	ThoughtProbe	0.014908	0.823610	0	31	31
432.784119	1.293112	city	2	1	1.361888	1.361888	0	1	0	0	CorrectCommission	1.053645	0.849789	0	0	3.076471e+01
434.070343	1.279364	city	5	1	1.479622	1.479622	0	1	0	0	CorrectCommission	1.632241	0.880665	0	0	3.052941e+01
435.356506	1.292972	city	4	1	1.388554	1.388554	0	1	0	0	CorrectCommission	1.184692	0.914400	0	0	3.029412e+01
436.649506	1.293027	mountain	3	0	0.000000	1.358480	1	0	0	0	CorrectOmission	1.036893	0.949372	0	0	3.005882e+01
437.942383	1.292743	city	1	1	1.338499	1.338499	0	1	0	0	CorrectCommission	0.938699	0.984104	0	0	2.982353e+01
439.275299	1.373036	city	8	1	1.277711	1.277711	0	1	0	0	CorrectCommission	0.639963	1.017230	0	0	2.958824e+01
440.608246	1.292886	city	2	1	1.052802	1.052802	0	1	0	0	CorrectCommission	0.465341	1.047442	0	0	2.935294e+01
441.914490	1.319593	city	9	1	1.120212	1.120212	0	1	0	0	CorrectCommission	0.134055	1.073483	0	0	2.911765e+01
443.260742	1.372930	city	6	1	0.922738	0.922738	0	1	0	0	CorrectCommission	1.104532	1.094187	0	0	2.888235e+01
444.613556	1.332690	city	10	1	0.665225	0.665225	0	1	0	0	CorrectCommission	2.370062	1.108631	0	0	2.864706e+01
445.926422	1.293040	city	7	1	1.777277	1.777277	0	1	0	0	CorrectCommission	3.095044	1.116296	0	0	2.841176e+01
447.219330	1.292764	city	5	1	1.441752	1.441752	0	1	0	0	CorrectCommission	1.446128	1.117191	0	0	2.817647e+01
448.545471	1.359552	city	10	1	1.227687	1.227687	0	1	0	0	CorrectCommission	0.394121	1.111851	0	0	2.794118e+01
449.871704	1.292908	city	6	1	1.310130	1.310130	0	1	0	0	CorrectCommission	0.799282	1.101176	0	0	2.770588e+01
451.164703	1.293062	city	3	1	1.249485	1.249485	0	1	0	0	CorrectCommission	0.501246	1.086210	0	0	2.747059e+01
452.457672	1.292920	city	8	1	1.036163	1.036163	0	1	0	0	CorrectCommission	0.547111	1.067953	0	0	2.723529e+01
453.750580	1.292887	mountain	2	0	0.000000	1.242337	1	0	0	0	CorrectOmission	0.466117	1.047175	0	0	27
455.043488	1.292930	city	2	1	1.535519	1.535519	0	1	0	0	CorrectCommission	1.906943	1.024353	0	0	2.676471e+01
456.356415	1.332894	city	3	1	1.583223	1.583223	0	1	0	0	CorrectCommission	2.141380	0.999651	0	0	2.652941e+01
457.682648	1.319562	city	7	1	1.343871	1.343871	0	1	0	0	CorrectCommission	0.965099	0.973099	0	0	2.629412e+01
459.002197	1.319556	city	10	1	1.226728	1.226728	0	1	0	0	CorrectCommission	0.389410	0.944738	0	0	2.605882e+01
460.315033	1.306085	city	5	1	1.087910	1.087910	0	1	0	0	CorrectCommission	0.292805	0.914748	0	0	2.582353e+01
461.614502	1.292905	city	10	1	0.874961	0.874961	0	1	0	0	CorrectCommission	1.339329	0.883563	0	0	2.558824e+01
462.907501	1.293081	city	8	1	0.998939	0.998939	0	1	0	0	CorrectCommission	0.730048	0.851910	0	0	2.535294e+01
464.227142	1.346208	city	1	1	0.888834	0.888834	0	1	0	0	CorrectCommission	1.271150	0.820849	0	0	2.511765e+01
465.586700	1.372869	city	2	1	0.816248	0.816248	0	1	0	0	CorrectCommission	1.627866	0.791595	0	0	2.488235e+01
466.946167	1.346062	city	8	1	1.030670	1.030670	0	1	0	0	CorrectCommission	0.574103	0.765378	0	0	2.464706e+01
468.305695	1.373046	city	10	1	1.146638	1.146638	0	1	0	0	CorrectCommission	0.004186	0.743233	0	0	2.441176e+01
469.645355	1.306231	city	2	1	1.094305	1.094305	0	1	0	0	CorrectCommission	0.261375	0.725753	0	0	2.417647e+01
470.951599	1.306276	city	1	1	1.160581	1.160581	0	1	0	0	CorrectCommission	0.064333	0.712941	0	0	2.394118e+01
472.244507	1.279561	city	5	1	1.124756	1.124756	0	1	0	0	CorrectCommission	0.111727	0.704170	0	0	2.370588e+01
473.563995	1.359370	city	4	1	1.021366	1.021366	0	1	0	0	CorrectCommission	0.619831	0.698266	0	0	2.347059e+01
474.883484	1.279610	city	1	1	0.864931	0.864931	0	1	0	0	CorrectCommission	1.388619	0.693682	0	0	2.323529e+01
475.523285	10.316537	break	0	1	0.769606	0.769606	0	0	0	0	ThoughtProbe	1.857088	0.688863	0	23	23
486.486328	1.293024	city	1	1	1.321237	1.321237	0	1	0	0	CorrectCommission	0.853867	0.682515	1	0	2.455000e+01
487.786041	1.306415	city	10	1	1.274257	1.274257	0	1	0	0	CorrectCommission	0.622985	0.673786	1	0	2.610000e+01
489.092346	1.306170	city	7	1	1.208398	1.208398	0	1	0	0	CorrectCommission	0.299328	0.662461	1	0	2.765000e+01
490.398468	1.306056	mountain	9	0	0.000000	1.229957	1	0	0	0	CorrectOmission	0.405278	0.649024	1	0	2.920000e+01
491.711273	1.319567	city	8	1	1.290849	1.290849	0	1	0	0	CorrectCommission	0.704527	0.634604	1	0	3.075000e+01
493.064148	1.386223	city	4	1	1.342989	1.342989	0	1	0	0	CorrectCommission	0.960764	0.620906	1	0	3.230000e+01
494.403809	1.293051	city	7	1	1.191275	1.191275	0	1	0	0	CorrectCommission	0.215176	0.610098	1	0	3.385000e+01
495.703430	1.306232	city	4	1	1.216258	1.216258	0	1	0	0	CorrectCommission	0.337955	0.604666	1	0	3.540000e+01
497.003021	1.292909	mountain	7	0	0.000000	1.301439	1	0	0	0	CorrectOmission	0.756571	0.607169	1	0	3.695000e+01
498.303467	1.307969	city	2	1	1.313163	1.313163	0	1	0	0	CorrectCommission	0.814190	0.619992	1	0	3.850000e+01
499.636261	1.357671	city	1	1	1.117777	1.117777	0	1	0	0	CorrectCommission	0.146024	0.645020	1	0	4.005000e+01
500.961548	1.292910	city	4	1	1.327774	1.327774	0	1	0	0	CorrectCommission	0.885993	0.683333	0	0	4.160000e+01
502.281158	1.346266	city	5	1	1.236541	1.236541	0	1	0	0	CorrectCommission	0.437632	0.734766	0	0	4.315000e+01
503.607452	1.306342	city	6	1	1.186615	1.186615	0	1	0	0	CorrectCommission	0.192273	0.797696	0	0	4.470000e+01
504.907074	1.292912	city	10	1	1.103601	1.103601	0	1	0	0	CorrectCommission	0.215693	0.868887	0	0	4.625000e+01
506.199982	1.292904	city	6	1	1.143930	1.143930	0	1	0	0	CorrectCommission	0.017498	0.943581	0	0	4.780000e+01
507.492920	1.292967	mountain	6	0	0.000000	1.057444	1	0	0	0	CorrectOmission	0.442525	1.015857	0	0	4.935000e+01
508.799072	1.319345	city	8	1	1.157660	1.157660	0	1	0	0	CorrectCommission	0.049977	1.079242	0	0	5.090000e+01
510.105316	1.293137	city	7	1	1.758092	1.758092	0	1	0	0	CorrectCommission	3.000762	1.127577	0	0	5.245000e+01
511.418243	1.332682	city	5	1	2.049172	2.049172	0	1	0	0	CorrectCommission	4.431254	1.155806	0	0	54
512.737793	1.306381	city	10	0	0.000000	1.480364	0	0	0	1	OmissionError	1.635883	1.160824	0	0	5.555000e+01
514.050720	1.319568	city	1	1	0.785096	0.785096	0	1	0	0	CorrectCommission	1.780963	1.142034	0	0	5.710000e+01
515.390259	1.359418	city	2	1	0.696797	0.696797	0	1	0	0	CorrectCommission	2.214900	1.101351	0	0	5.865000e+01
516.729858	1.319787	city	1	1	1.102710	1.102710	0	1	0	0	CorrectCommission	0.220068	1.042965	0	0	6.020000e+01
518.042725	1.306039	city	10	1	1.244998	1.244998	0	1	0	0	CorrectCommission	0.479196	0.972760	0	0	6.175000e+01
519.368896	1.346237	city	8	1	1.326294	1.326294	0	1	0	0	CorrectCommission	0.878719	0.897390	0	0	6.330000e+01
520.708496	1.332989	city	2	1	1.111526	1.111526	0	1	0	0	CorrectCommission	0.176746	0.823411	0	0	6.485000e+01
522.041443	1.332927	city	4	1	1.161960	1.161960	0	1	0	0	CorrectCommission	0.071112	0.756481	0	0	6.640000e+01
523.387573	1.359363	city	2	1	1.195269	1.195269	0	1	0	0	CorrectCommission	0.234804	0.700743	0	0	6.795000e+01
524.753723	1.372910	city	4	1	1.085928	1.085928	0	1	0	0	CorrectCommission	0.302542	0.658469	1	0	6.950000e+01
526.093384	1.306365	city	1	1	0.957033	0.957033	0	1	0	0	CorrectCommission	0.935992	0.630053	1	0	7.105000e+01
527.413025	1.332926	city	8	1	1.142464	1.142464	0	1	0	0	CorrectCommission	0.024700	0.614217	1	0	7.260000e+01
528.752563	1.346211	city	3	1	1.181639	1.181639	0	1	0	0	CorrectCommission	0.167821	0.608500	1	0	7.415000e+01
530.078735	1.306059	city	6	1	1.245934	1.245934	0	1	0	0	CorrectCommission	0.483793	0.609734	1	0	7.570000e+01
531.384888	1.306271	city	5	1	1.356874	1.356874	0	1	0	0	CorrectCommission	1.029000	0.614657	1	0	7.725000e+01
532.717773	1.359524	city	7	1	1.456588	1.456588	0	1	0	0	CorrectCommission	1.519038	0.620448	1	0	7.880000e+01
534.097351	1.399544	city	5	1	1.294546	1.294546	0	1	0	0	CorrectCommission	0.722693	0.625108	1	0	8.035000e+01
535.470215	1.346221	city	9	1	0.980820	0.980820	0	1	0	0	CorrectCommission	0.819092	0.627663	1	0	8.190000e+01
536.803162	1.319727	city	6	1	1.000325	1.000325	0	1	0	0	CorrectCommission	0.723233	0.628132	1	0	8.345000e+01
537.463013	8.557377	break	0	0	0.000000	1.019831	0	0	0	0	ThoughtProbe	0.627373	0.627373	1	85	85
