onset	duration	trial_type	image_type	Press	ReactionTime	ReactionTime_Interpolated	CorrectOmission	CorrectCommission	CommissionError	OmissionError	response_type	nonsmoothVarianceTimeCourse	VarianceTimeCourse	In_the_Zone	ThoughtProbe	ThoughtProbe_Interpolated
0.652668	1.279742	city	3	1	1.204339	1.204339	0	1	0	0	CorrectCommission	0.405030	0.405030	1	0	90
1.932338	1.279597	city	1	1	1.026886	1.026886	0	1	0	0	CorrectCommission	0.778022	0.471852	1	0	90
3.218497	1.292720	city	9	1	1.083497	1.083497	0	1	0	0	CorrectCommission	0.400604	0.535151	1	0	90
4.511323	1.292933	city	8	1	1.062764	1.062764	0	1	0	0	CorrectCommission	0.538827	0.591643	1	0	90
5.797658	1.279738	city	1	1	0.968677	0.968677	0	1	0	0	CorrectCommission	1.166087	0.638526	1	0	90
7.083981	1.292908	city	6	1	0.929333	0.929333	0	1	0	0	CorrectCommission	1.428393	0.673685	1	0	90
8.370134	1.279399	city	3	1	1.021482	1.021482	0	1	0	0	CorrectCommission	0.814050	0.695836	1	0	90
9.649738	1.279808	mountain	10	1	1.236998	1.236998	0	0	1	0	CommissionError	0.622763	0.704631	1	0	90
10.929317	1.279352	city	9	1	0.941583	0.941583	0	1	0	0	CorrectCommission	1.346719	0.700664	1	0	90
12.215491	1.292995	mountain	8	0	0.000000	1.080926	1	0	0	0	CorrectOmission	0.417746	0.685380	1	0	90
13.501842	1.279708	city	10	1	1.310069	1.310069	0	1	0	0	CorrectCommission	1.109915	0.660984	1	0	90
14.781459	1.279525	city	9	1	1.284058	1.284058	0	1	0	0	CorrectCommission	0.936500	0.630165	1	0	90
16.074350	1.306258	city	3	1	1.242286	1.242286	0	1	0	0	CorrectCommission	0.658018	0.595892	1	0	90
17.373922	1.292884	city	6	1	1.106382	1.106382	0	1	0	0	CorrectCommission	0.248036	0.561061	1	0	90
18.666740	1.292754	city	2	1	1.101042	1.101042	0	1	0	0	CorrectCommission	0.283636	0.528263	1	0	90
19.952908	1.279580	city	8	1	1.131347	1.131347	0	1	0	0	CorrectCommission	0.081596	0.499514	1	0	90
21.239231	1.293067	city	5	1	1.133930	1.133930	0	1	0	0	CorrectCommission	0.064373	0.476135	1	0	90
22.525473	1.279414	city	6	1	1.076037	1.076037	0	1	0	0	CorrectCommission	0.450339	0.458717	1	0	90
23.805050	1.279741	mountain	6	0	0.000000	1.102896	1	0	0	0	CorrectOmission	0.271273	0.447162	1	0	90
25.084717	1.279593	city	10	1	1.128048	1.128048	0	1	0	0	CorrectCommission	0.103591	0.440869	1	0	90
26.384205	1.319386	city	1	1	1.065032	1.065032	0	1	0	0	CorrectCommission	0.523709	0.438917	1	0	90
27.697100	1.306402	city	8	1	0.905493	0.905493	0	1	0	0	CorrectCommission	1.587328	0.440283	1	0	90
28.990044	1.279487	city	5	1	1.126828	1.126828	0	1	0	0	CorrectCommission	0.111723	0.443999	1	0	90
30.269636	1.279699	city	7	1	1.177128	1.177128	0	1	0	0	CorrectCommission	0.223616	0.449334	1	0	90
31.549206	1.279439	city	6	1	1.252982	1.252982	0	1	0	0	CorrectCommission	0.729327	0.455713	1	0	90
32.828800	1.279749	mountain	1	0	0.000000	1.215271	1	0	0	0	CorrectOmission	0.477910	0.462716	1	0	90
34.128441	1.319530	city	10	1	1.139973	1.139973	0	1	0	0	CorrectCommission	0.024088	0.469998	1	0	90
35.434662	1.292914	city	9	1	1.103069	1.103069	0	1	0	0	CorrectCommission	0.270121	0.477200	1	0	90
36.720909	1.279580	city	1	1	1.182227	1.182227	0	1	0	0	CorrectCommission	0.257612	0.483892	1	0	90
38.007137	1.292879	city	4	1	1.111610	1.111610	0	1	0	0	CorrectCommission	0.213180	0.489610	1	0	90
39.299873	1.292589	city	6	1	1.057396	1.057396	0	1	0	0	CorrectCommission	0.574618	0.493887	1	0	90
40.599411	1.306491	city	8	1	0.880402	0.880402	0	1	0	0	CorrectCommission	1.754602	0.496379	1	0	90
41.899097	1.292881	city	6	1	0.994530	0.994530	0	1	0	0	CorrectCommission	0.993730	0.496879	1	0	90
43.192047	1.293019	city	8	1	1.086467	1.086467	0	1	0	0	CorrectCommission	0.380805	0.495436	1	0	90
44.478256	1.279398	city	9	1	1.146251	1.146251	0	1	0	0	CorrectCommission	0.017766	0.492299	1	0	90
45.777737	1.319564	city	1	1	1.151389	1.151389	0	1	0	0	CorrectCommission	0.052023	0.487897	1	0	90
47.103970	1.332897	city	9	1	1.116790	1.116790	0	1	0	0	CorrectCommission	0.178643	0.482753	1	0	90
48.417698	1.294565	city	5	1	1.103108	1.103108	0	1	0	0	CorrectCommission	0.269862	0.477429	1	0	90
49.710705	1.291444	city	9	1	0.976930	0.976930	0	1	0	0	CorrectCommission	1.111070	0.472528	1	0	90
51.009449	1.306045	city	5	1	1.064240	1.064240	0	1	0	0	CorrectCommission	0.528990	0.468689	1	0	90
52.309029	1.293118	city	7	1	1.203931	1.203931	0	1	0	0	CorrectCommission	0.402312	0.466694	1	0	90
53.615265	1.319357	city	1	1	1.076756	1.076756	0	1	0	0	CorrectCommission	0.445547	0.467439	1	0	90
54.928158	1.306426	city	2	1	0.976114	0.976114	0	1	0	0	CorrectCommission	1.116509	0.471927	1	0	90
56.227730	1.292715	city	5	1	1.153527	1.153527	0	1	0	0	CorrectCommission	0.066275	0.481141	1	0	90
57.513969	1.279767	city	1	1	1.182500	1.182500	0	1	0	0	CorrectCommission	0.259432	0.495990	1	0	90
60.746288	5.184874	break	0	0	0.000000	1.131505	0	0	0	0	ThoughtProbe	0.080545	0.517029	1	90	90
63.999142	1.320830	city	10	1	1.088225	1.088225	0	1	0	0	CorrectCommission	0.369086	0.544303	1	0	8.875000e+01
65.305328	1.291548	city	7	1	1.140344	1.140344	0	1	0	0	CorrectCommission	0.021616	0.577204	1	0	8.750000e+01
66.610886	1.319562	city	5	1	1.063531	1.063531	0	1	0	0	CorrectCommission	0.533716	0.614432	1	0	8.625000e+01
67.917213	1.293094	mountain	6	0	0.000000	1.235393	1	0	0	0	CorrectOmission	0.612062	0.653993	1	0	85
69.216797	1.306067	city	1	1	1.383807	1.383807	0	1	0	0	CorrectCommission	1.601517	0.693387	1	0	8.375000e+01
70.509697	1.279733	city	2	1	1.236651	1.236651	0	1	0	0	CorrectCommission	0.620446	0.729813	1	0	8.250000e+01
71.796021	1.292917	city	9	1	1.085114	1.085114	0	1	0	0	CorrectCommission	0.389823	0.760534	0	0	8.125000e+01
73.095581	1.306214	city	8	1	1.113805	1.113805	0	1	0	0	CorrectCommission	0.198544	0.783132	0	0	80
74.388412	1.279445	mountain	2	0	0.000000	1.390987	1	0	0	0	CorrectOmission	1.649384	0.795857	0	0	7.875000e+01
75.668007	1.279733	city	2	1	1.486993	1.486993	0	1	0	0	CorrectCommission	2.289438	0.797798	0	0	7.750000e+01
76.967560	1.319387	city	7	1	0.972155	0.972155	0	1	0	0	CorrectCommission	1.142901	0.789067	0	0	7.625000e+01
78.273804	1.293101	city	3	1	1.044713	1.044713	0	1	0	0	CorrectCommission	0.659167	0.770788	0	0	75
79.560135	1.279557	city	4	1	1.090327	1.090327	0	1	0	0	CorrectCommission	0.355071	0.744871	0	0	7.375000e+01
80.853043	1.306254	city	2	1	1.008096	1.008096	0	1	0	0	CorrectCommission	0.903293	0.713800	1	0	7.250000e+01
82.165894	1.319455	city	1	1	1.047120	1.047120	0	1	0	0	CorrectCommission	0.643120	0.680266	1	0	7.125000e+01
83.485367	1.319492	city	10	1	1.074280	1.074280	0	1	0	0	CorrectCommission	0.462049	0.646896	1	0	70
84.798325	1.306416	city	7	1	1.154125	1.154125	0	1	0	0	CorrectCommission	0.070258	0.615930	1	0	6.875000e+01
86.097984	1.292914	city	2	1	1.107708	1.107708	0	1	0	0	CorrectCommission	0.239192	0.589043	1	0	6.750000e+01
87.384232	1.279580	city	1	1	1.089476	1.089476	0	1	0	0	CorrectCommission	0.360741	0.567223	1	0	6.625000e+01
88.677048	1.306049	city	6	1	1.050068	1.050068	0	1	0	0	CorrectCommission	0.623470	0.550838	1	0	65
89.996605	1.333061	city	8	1	1.005850	1.005850	0	1	0	0	CorrectCommission	0.918262	0.539678	1	0	6.375000e+01
91.316170	1.306072	city	6	1	1.027729	1.027729	0	1	0	0	CorrectCommission	0.772400	0.533101	1	0	6.250000e+01
92.609077	1.279742	city	7	1	1.202047	1.202047	0	1	0	0	CorrectCommission	0.389751	0.530135	1	0	6.125000e+01
93.902054	1.306208	city	2	1	1.050008	1.050008	0	1	0	0	CorrectCommission	0.623868	0.529608	1	0	60
95.194878	1.279444	city	4	1	1.153506	1.153506	0	1	0	0	CorrectCommission	0.066132	0.530184	1	0	5.875000e+01
96.481056	1.292910	city	9	1	1.093278	1.093278	0	1	0	0	CorrectCommission	0.335394	0.530482	1	0	5.750000e+01
97.774078	1.293138	city	2	1	1.194741	1.194741	0	1	0	0	CorrectCommission	0.341042	0.529138	1	0	5.625000e+01
99.060295	1.279295	city	6	1	1.258175	1.258175	0	1	0	0	CorrectCommission	0.763943	0.524936	1	0	55
100.339851	1.279819	city	3	1	1.180383	1.180383	0	1	0	0	CorrectCommission	0.245318	0.516918	1	0	5.375000e+01
101.626205	1.292884	mountain	8	0	0.000000	1.324631	1	0	0	0	CorrectOmission	1.206998	0.504582	1	0	5.250000e+01
102.912369	1.279449	city	1	1	1.412092	1.412092	0	1	0	0	CorrectCommission	1.790084	0.487916	1	0	5.125000e+01
104.198616	1.293033	city	4	1	1.163937	1.163937	0	1	0	0	CorrectCommission	0.135676	0.467497	1	0	50
105.498260	1.306263	city	10	1	1.157228	1.157228	0	1	0	0	CorrectCommission	0.090947	0.444515	1	0	4.875000e+01
106.804436	1.306083	city	8	1	1.122575	1.122575	0	1	0	0	CorrectCommission	0.140077	0.420574	1	0	4.750000e+01
108.130623	1.346292	city	4	1	1.214833	1.214833	0	1	0	0	CorrectCommission	0.474989	0.397519	1	0	4.625000e+01
109.450188	1.292843	city	5	1	1.167007	1.167007	0	1	0	0	CorrectCommission	0.156144	0.377201	1	0	45
110.769714	1.346203	city	10	1	1.100406	1.100406	0	1	0	0	CorrectCommission	0.287873	0.361302	1	0	4.375000e+01
112.089340	1.293058	city	2	1	1.143115	1.143115	0	1	0	0	CorrectCommission	0.003142	0.351083	1	0	4.250000e+01
113.382332	1.292925	city	1	1	1.203502	1.203502	0	1	0	0	CorrectCommission	0.399453	0.347339	1	0	4.125000e+01
117.347694	6.637800	break	0	0	0.000000	1.129684	0	0	0	0	ThoughtProbe	0.092685	0.350313	1	40	40
121.319633	1.306077	city	10	1	1.062713	1.062713	0	1	0	0	CorrectCommission	0.539169	0.359770	1	0	4.047059e+01
122.625847	1.306347	city	1	1	1.143644	1.143644	0	1	0	0	CorrectCommission	0.000388	0.375046	1	0	4.094118e+01
123.925529	1.293013	mountain	1	1	1.092262	1.092262	0	0	1	0	CommissionError	0.342168	0.395258	1	0	4.141176e+01
125.218384	1.292707	city	4	1	1.161098	1.161098	0	1	0	0	CorrectCommission	0.116749	0.419411	1	0	4.188235e+01
126.544601	1.359723	city	3	1	1.142582	1.142582	0	1	0	0	CorrectCommission	0.006693	0.446611	1	0	4.235294e+01
127.904213	1.359506	city	9	1	0.889709	0.889709	0	1	0	0	CorrectCommission	1.692556	0.476129	1	0	4.282353e+01
129.223694	1.279461	city	6	1	1.315627	1.315627	0	1	0	0	CorrectCommission	1.146970	0.507417	1	0	4.329412e+01
130.509949	1.293048	city	2	1	1.158955	1.158955	0	1	0	0	CorrectCommission	0.102465	0.540133	1	0	4.376471e+01
131.809601	1.306259	city	1	1	1.198309	1.198309	0	1	0	0	CorrectCommission	0.364826	0.573974	1	0	4.423529e+01
133.115860	1.306230	city	3	1	1.159287	1.159287	0	1	0	0	CorrectCommission	0.104675	0.608489	1	0	4.470588e+01
134.415329	1.292729	city	8	1	1.091951	1.091951	0	1	0	0	CorrectCommission	0.344245	0.642997	1	0	4.517647e+01
135.708237	1.293083	city	10	1	1.201484	1.201484	0	1	0	0	CorrectCommission	0.385996	0.676452	1	0	4.564706e+01
137.001160	1.292747	city	6	1	0.988201	0.988201	0	1	0	0	CorrectCommission	1.035929	0.707466	1	0	4.611765e+01
138.300720	1.306386	city	3	1	1.048075	1.048075	0	1	0	0	CorrectCommission	0.636756	0.734455	0	0	4.658824e+01
139.607025	1.306229	mountain	9	0	0.000000	1.297742	1	0	0	0	CorrectOmission	1.027732	0.755858	0	0	4.705882e+01
140.919846	1.319416	city	3	1	1.420057	1.420057	0	1	0	0	CorrectCommission	1.843186	0.770358	0	0	4.752941e+01
142.266083	1.373039	city	8	1	1.097876	1.097876	0	1	0	0	CorrectCommission	0.304743	0.777133	0	0	48
143.592316	1.279432	city	4	1	1.312988	1.312988	0	1	0	0	CorrectCommission	1.129378	0.776070	0	0	4.847059e+01
144.885223	1.306385	city	9	1	0.945197	0.945197	0	1	0	0	CorrectCommission	1.322630	0.767723	0	0	4.894118e+01
146.191452	1.306068	city	10	1	0.941757	0.941757	0	1	0	0	CorrectCommission	1.345564	0.753289	0	0	4.941176e+01
147.497604	1.306240	city	8	1	1.153480	1.153480	0	1	0	0	CorrectCommission	0.065962	0.734405	1	0	4.988235e+01
148.803879	1.306315	city	1	1	1.224408	1.224408	0	1	0	0	CorrectCommission	0.538829	0.712896	1	0	5.035294e+01
150.103516	1.292948	city	8	1	1.142811	1.142811	0	1	0	0	CorrectCommission	0.005166	0.690433	1	0	5.082353e+01
151.389801	1.279644	city	9	1	1.288700	1.288700	0	1	0	0	CorrectCommission	0.967452	0.668360	1	0	5.129412e+01
152.682755	1.306251	city	3	1	1.239747	1.239747	0	1	0	0	CorrectCommission	0.641088	0.647461	1	0	5.176471e+01
153.982239	1.292714	city	4	1	1.082378	1.082378	0	1	0	0	CorrectCommission	0.408061	0.627980	1	0	5.223529e+01
155.288467	1.319748	city	8	1	1.019799	1.019799	0	1	0	0	CorrectCommission	0.825267	0.609712	1	0	5.270588e+01
156.601471	1.306245	city	4	1	1.106278	1.106278	0	1	0	0	CorrectCommission	0.248725	0.592113	1	0	5.317647e+01
157.907623	1.306064	city	1	1	1.169413	1.169413	0	1	0	0	CorrectCommission	0.172186	0.574685	1	0	5.364706e+01
159.207184	1.293071	city	7	1	1.326576	1.326576	0	1	0	0	CorrectCommission	1.219964	0.557158	1	0	5.411765e+01
160.506836	1.306217	city	4	1	1.333598	1.333598	0	1	0	0	CorrectCommission	1.266775	0.539730	1	0	5.458824e+01
161.819641	1.319403	city	1	1	1.248190	1.248190	0	1	0	0	CorrectCommission	0.697377	0.523288	1	0	5.505882e+01
163.139145	1.319605	city	7	1	1.212898	1.212898	0	1	0	0	CorrectCommission	0.462091	0.509402	1	0	5.552941e+01
167.551041	7.504188	break	0	0	0.000000	1.163425	0	0	0	0	ThoughtProbe	0.132266	0.500170	1	56	56
171.949661	1.293045	city	3	1	1.148991	1.148991	0	1	0	0	CorrectCommission	0.036031	0.498000	1	0	5.625000e+01
173.262512	1.332669	city	8	1	1.218811	1.218811	0	1	0	0	CorrectCommission	0.501515	0.505280	1	0	5.650000e+01
174.582062	1.306436	city	9	1	1.153200	1.153200	0	1	0	0	CorrectCommission	0.064094	0.523986	1	0	5.675000e+01
175.881760	1.292937	mountain	10	0	0.000000	1.175865	1	0	0	0	CorrectOmission	0.215198	0.555364	1	0	57
177.167923	1.279410	city	5	1	1.178396	1.178396	0	1	0	0	CorrectCommission	0.232069	0.599637	1	0	5.725000e+01
178.454102	1.292927	city	9	1	1.052381	1.052381	0	1	0	0	CorrectCommission	0.608051	0.655839	1	0	5.750000e+01
179.753754	1.306388	city	5	1	1.102981	1.102981	0	1	0	0	CorrectCommission	0.270706	0.721755	1	0	5.775000e+01
181.080078	1.346258	city	9	1	1.060985	1.060985	0	1	0	0	CorrectCommission	0.550690	0.794081	0	0	5.800000e+01
182.392960	1.279509	city	2	1	0.995553	0.995553	0	1	0	0	CorrectCommission	0.986913	0.868680	0	0	5.825000e+01
183.679184	1.292940	city	8	1	1.031450	1.031450	0	1	0	0	CorrectCommission	0.747590	0.940932	0	0	5.850000e+01
184.972137	1.292957	mountain	2	0	0.000000	1.264930	1	0	0	0	CorrectOmission	0.808978	1.006252	0	0	5.875000e+01
186.271713	1.306214	city	5	1	1.455975	1.455975	0	1	0	0	CorrectCommission	2.082644	1.060517	0	0	59
187.591187	1.332711	city	1	1	1.364570	1.364570	0	1	0	0	CorrectCommission	1.473263	1.100527	0	0	5.925000e+01
188.930664	1.346266	city	7	1	1.639982	1.639982	0	1	0	0	CorrectCommission	3.309393	1.124370	0	0	5.950000e+01
190.263641	1.319681	city	3	1	1.019811	1.019811	0	1	0	0	CorrectCommission	0.825190	1.131482	0	0	5.975000e+01
191.569855	1.292744	city	2	1	1.166890	1.166890	0	1	0	0	CorrectCommission	0.155360	1.122756	0	0	60
192.862762	1.293075	city	6	1	1.367622	1.367622	0	1	0	0	CorrectCommission	1.493612	1.100214	0	0	6.025000e+01
194.155670	1.292749	city	7	1	1.460499	1.460499	0	1	0	0	CorrectCommission	2.112805	1.066639	0	0	6.050000e+01
195.475250	1.346402	city	1	1	1.018186	1.018186	0	1	0	0	CorrectCommission	0.836025	1.025212	0	0	6.075000e+01
196.788193	1.279487	city	10	1	1.069535	1.069535	0	1	0	0	CorrectCommission	0.493685	0.979114	0	0	61
198.081009	1.306148	city	3	1	1.063466	1.063466	0	1	0	0	CorrectCommission	0.534148	0.931098	0	0	6.125000e+01
199.393951	1.319731	city	7	1	1.102441	1.102441	0	1	0	0	CorrectCommission	0.274304	0.883301	0	0	6.150000e+01
200.706940	1.306251	city	1	1	0.985120	0.985120	0	1	0	0	CorrectCommission	1.056466	0.837149	0	0	6.175000e+01
202.033096	1.346063	city	7	1	1.034664	1.034664	0	1	0	0	CorrectCommission	0.726166	0.793396	0	0	62
203.359314	1.306373	city	3	1	0.967436	0.967436	0	1	0	0	CorrectCommission	1.174362	0.752352	0	0	6.225000e+01
204.652222	1.279426	mountain	3	0	0.000000	1.102147	1	0	0	0	CorrectOmission	0.276264	0.714080	1	0	6.250000e+01
205.958481	1.333104	city	5	1	1.272866	1.272866	0	1	0	0	CorrectCommission	0.861889	0.678691	1	0	6.275000e+01
207.264725	1.279381	city	7	1	1.313661	1.313661	0	1	0	0	CorrectCommission	1.133859	0.646419	1	0	63
208.564255	1.319687	city	4	1	1.270507	1.270507	0	1	0	0	CorrectCommission	0.846163	0.617784	1	0	6.325000e+01
209.890579	1.332941	city	10	1	1.234433	1.234433	0	1	0	0	CorrectCommission	0.605662	0.593506	1	0	6.350000e+01
211.210114	1.306141	city	9	1	1.150474	1.150474	0	1	0	0	CorrectCommission	0.045922	0.574367	1	0	6.375000e+01
212.523010	1.319664	city	3	1	1.100631	1.100631	0	1	0	0	CorrectCommission	0.286374	0.560997	1	0	64
213.835938	1.306178	city	7	1	1.161259	1.161259	0	1	0	0	CorrectCommission	0.117822	0.553676	1	0	6.425000e+01
215.142166	1.306292	city	5	1	1.108422	1.108422	0	1	0	0	CorrectCommission	0.234436	0.552169	1	0	6.450000e+01
216.461731	1.332820	city	4	1	1.114282	1.114282	0	1	0	0	CorrectCommission	0.195364	0.555720	1	0	6.475000e+01
217.807953	1.359633	city	3	1	1.098824	1.098824	0	1	0	0	CorrectCommission	0.298421	0.563117	1	0	65
219.140900	1.306238	city	4	1	0.991397	0.991397	0	1	0	0	CorrectCommission	1.014619	0.572960	1	0	6.525000e+01
220.467117	1.346202	city	9	1	0.983088	0.983088	0	1	0	0	CorrectCommission	1.070013	0.583863	1	0	6.550000e+01
221.779999	1.279568	city	8	1	0.931126	0.931126	0	1	0	0	CorrectCommission	1.416435	0.594795	1	0	6.575000e+01
225.905258	6.970958	break	0	0	0.000000	1.116343	0	0	0	0	ThoughtProbe	0.181623	0.605157	1	66	66
230.030487	1.279500	city	3	1	1.289897	1.289897	0	1	0	0	CorrectCommission	0.975431	0.615016	1	0	6.585294e+01
231.323364	1.306239	city	10	1	1.202945	1.202945	0	1	0	0	CorrectCommission	0.395735	0.624985	1	0	6.570588e+01
232.629608	1.306262	city	4	1	1.181619	1.181619	0	1	0	0	CorrectCommission	0.253560	0.636125	1	0	6.555882e+01
233.935928	1.306385	city	5	1	1.169089	1.169089	0	1	0	0	CorrectCommission	0.170023	0.649752	1	0	6.541176e+01
235.242188	1.306136	city	1	1	1.030329	1.030329	0	1	0	0	CorrectCommission	0.755066	0.667204	1	0	6.526471e+01
236.535095	1.279672	city	8	1	0.927435	0.927435	0	1	0	0	CorrectCommission	1.441046	0.689645	1	0	6.511765e+01
237.821365	1.292859	city	1	1	1.155222	1.155222	0	1	0	0	CorrectCommission	0.077572	0.717907	1	0	6.497059e+01
239.114197	1.292818	mountain	9	0	0.000000	1.219254	1	0	0	0	CorrectOmission	0.504464	0.752463	0	0	6.482353e+01
240.427048	1.332869	city	4	1	1.161777	1.161777	0	1	0	0	CorrectCommission	0.121277	0.793271	0	0	6.467647e+01
241.759933	1.332919	city	2	1	1.025038	1.025038	0	1	0	0	CorrectCommission	0.790338	0.839847	0	0	6.452941e+01
243.086273	1.319758	city	1	1	1.015043	1.015043	0	1	0	0	CorrectCommission	0.856972	0.891244	0	0	6.438235e+01
244.405914	1.319514	city	5	1	0.862606	0.862606	0	1	0	0	CorrectCommission	1.873249	0.946106	0	0	6.423529e+01
245.712067	1.292794	city	9	1	0.921696	0.921696	0	1	0	0	CorrectCommission	1.479305	1.002686	0	0	6.408824e+01
247.004959	1.292977	city	8	1	1.083714	1.083714	0	1	0	0	CorrectCommission	0.399156	1.058878	0	0	6.394118e+01
248.304581	1.306279	city	3	1	1.030254	1.030254	0	1	0	0	CorrectCommission	0.755566	1.112259	0	0	6.379412e+01
249.610825	1.306193	city	9	1	0.980633	0.980633	0	1	0	0	CorrectCommission	1.086384	1.160144	0	0	6.364706e+01
250.923660	1.319483	city	8	1	1.151237	1.151237	0	1	0	0	CorrectCommission	0.051009	1.199804	0	0	6.350000e+01
252.229889	1.292995	city	7	1	1.635892	1.635892	0	1	0	0	CorrectCommission	3.282125	1.228699	0	0	6.335294e+01
253.542892	1.333000	city	6	1	1.222920	1.222920	0	1	0	0	CorrectCommission	0.528908	1.244702	0	0	6.320588e+01
254.855820	1.292865	mountain	1	0	0.000000	1.349811	1	0	0	0	CorrectOmission	1.374866	1.246726	0	0	6.305882e+01
256.155396	1.306264	city	1	1	1.571532	1.571532	0	1	0	0	CorrectCommission	2.853046	1.234873	0	0	6.291176e+01
257.488281	1.359535	city	4	1	1.443053	1.443053	0	1	0	0	CorrectCommission	1.996495	1.210725	0	0	6.276471e+01
258.821106	1.306115	city	1	1	1.407561	1.407561	0	1	0	0	CorrectCommission	1.759880	1.177338	0	0	6.261765e+01
260.147339	1.346333	city	3	1	1.325271	1.325271	0	1	0	0	CorrectCommission	1.211265	1.139026	0	0	6.247059e+01
261.460297	1.279584	city	4	1	1.184921	1.184921	0	1	0	0	CorrectCommission	0.275574	1.100868	0	0	6.232353e+01
262.746552	1.292903	city	5	1	1.111154	1.111154	0	1	0	0	CorrectCommission	0.216220	1.068096	0	0	6.217647e+01
264.045959	1.305956	city	6	1	1.060403	1.060403	0	1	0	0	CorrectCommission	0.554568	1.045400	0	0	6.202941e+01
265.358856	1.319833	city	5	1	1.193508	1.193508	0	1	0	0	CorrectCommission	0.332818	1.036249	0	0	6.188235e+01
266.665222	1.292901	city	8	1	0.980974	0.980974	0	1	0	0	CorrectCommission	1.084108	1.042480	0	0	6.173529e+01
267.958160	1.292934	city	10	1	0.998808	0.998808	0	1	0	0	CorrectCommission	0.965214	1.063945	0	0	6.158824e+01
269.277649	1.346041	city	5	1	1.182850	1.182850	0	1	0	0	CorrectCommission	0.261765	1.098577	0	0	6.144118e+01
270.597229	1.293121	city	10	1	0.990982	0.990982	0	1	0	0	CorrectCommission	1.017385	1.142624	0	0	6.129412e+01
271.903442	1.319352	city	6	1	1.210100	1.210100	0	1	0	0	CorrectCommission	0.443439	1.191100	0	0	6.114706e+01
272.563141	9.090344	break	0	1	1.044764	1.044764	0	0	0	0	ThoughtProbe	0.658833	1.238504	0	61	61
282.293365	1.279766	mountain	6	0	0.000000	1.438807	1	0	0	0	CorrectOmission	1.968187	1.279509	0	0	6.093478e+01
283.586334	1.306173	city	7	1	1.804635	1.804635	0	1	0	0	CorrectCommission	4.407105	1.309685	0	0	6.086957e+01
284.919159	1.359513	city	9	1	1.554655	1.554655	0	1	0	0	CorrectCommission	2.740528	1.325988	0	0	6.080435e+01
286.252075	1.306328	city	2	1	1.118555	1.118555	0	1	0	0	CorrectCommission	0.166881	1.327156	0	0	6.073913e+01
287.578278	1.346043	city	5	1	1.066581	1.066581	0	1	0	0	CorrectCommission	0.513380	1.313765	0	0	6.067391e+01
288.924408	1.346237	city	2	1	0.890921	0.890921	0	1	0	0	CorrectCommission	1.684477	1.287874	0	0	6.060870e+01
290.250732	1.306415	city	8	1	0.820713	0.820713	0	1	0	0	CorrectCommission	2.152543	1.252766	0	0	6.054348e+01
291.543732	1.279572	mountain	5	0	0.000000	1.153987	1	0	0	0	CorrectOmission	0.069344	1.212447	0	0	6.047826e+01
292.829895	1.292727	city	10	1	1.384500	1.384500	0	1	0	0	CorrectCommission	1.606136	1.171138	0	0	6.041304e+01
294.122742	1.292981	city	1	1	1.006007	1.006007	0	1	0	0	CorrectCommission	0.917214	1.132698	0	0	6.034783e+01
295.429047	1.319652	city	8	1	1.040821	1.040821	0	1	0	0	CorrectCommission	0.685117	1.100328	0	0	6.028261e+01
296.755341	1.332920	city	10	1	0.898748	0.898748	0	1	0	0	CorrectCommission	1.632292	1.076230	0	0	6.021739e+01
298.074921	1.306238	city	4	1	1.085215	1.085215	0	1	0	0	CorrectCommission	0.389153	1.061391	0	0	6.015217e+01
299.381165	1.306232	city	6	1	1.079606	1.079606	0	1	0	0	CorrectCommission	0.426546	1.055602	0	0	6.008696e+01
300.673981	1.279397	city	8	1	1.100873	1.100873	0	1	0	0	CorrectCommission	0.284761	1.057429	0	0	6.002174e+01
301.980194	1.333063	city	1	1	0.992010	0.992010	0	1	0	0	CorrectCommission	1.010536	1.064484	0	0	5.995652e+01
303.306519	1.319584	city	8	1	0.871660	0.871660	0	1	0	0	CorrectCommission	1.812884	1.073707	0	0	5.989130e+01
304.619446	1.306237	city	5	1	0.994640	0.994640	0	1	0	0	CorrectCommission	0.992998	1.081788	0	0	5.982609e+01
305.932343	1.319571	city	10	1	0.948536	0.948536	0	1	0	0	CorrectCommission	1.300368	1.085653	0	0	5.976087e+01
307.231812	1.279392	city	3	1	1.305631	1.305631	0	1	0	0	CorrectCommission	1.080324	1.082787	0	0	5.969565e+01
308.531372	1.319730	mountain	4	0	0.000000	1.466793	1	0	0	0	CorrectOmission	2.154768	1.071618	0	0	5.963043e+01
309.830963	1.279444	city	5	1	1.438364	1.438364	0	1	0	0	CorrectCommission	1.965240	1.051674	0	0	5.956522e+01
311.143829	1.346271	city	1	1	1.226686	1.226686	0	1	0	0	CorrectCommission	0.554013	1.023675	0	0	5.950000e+01
312.476746	1.319559	city	4	1	1.025347	1.025347	0	1	0	0	CorrectCommission	0.788283	0.989378	0	0	5.943478e+01
313.802917	1.332821	city	2	1	0.980888	0.980888	0	1	0	0	CorrectCommission	1.084685	0.951341	0	0	5.936957e+01
315.122467	1.306249	city	3	1	1.180534	1.180534	0	1	0	0	CorrectCommission	0.246324	0.912645	0	0	5.930435e+01
316.428802	1.306413	mountain	8	0	0.000000	1.308945	1	0	0	0	CorrectOmission	1.102424	0.876468	0	0	5.923913e+01
317.728363	1.292742	city	1	1	1.326502	1.326502	0	1	0	0	CorrectCommission	1.219473	0.845648	0	0	5.917391e+01
319.047943	1.346380	city	7	1	1.193584	1.193584	0	1	0	0	CorrectCommission	0.333330	0.822422	0	0	5.910870e+01
320.414246	1.386216	city	3	1	1.116751	1.116751	0	1	0	0	CorrectCommission	0.178904	0.808165	0	0	5.904348e+01
321.780365	1.346075	city	9	1	1.032680	1.032680	0	1	0	0	CorrectCommission	0.739390	0.803195	0	0	5.897826e+01
323.106598	1.306390	city	2	1	1.091931	1.091931	0	1	0	0	CorrectCommission	0.344373	0.806734	0	0	5.891304e+01
324.426178	1.332729	city	3	1	1.000506	1.000506	0	1	0	0	CorrectCommission	0.953892	0.817076	0	0	5.884783e+01
325.752380	1.319706	city	7	1	1.102126	1.102126	0	1	0	0	CorrectCommission	0.276405	0.831748	0	0	5.878261e+01
327.058685	1.292920	city	4	1	1.074973	1.074973	0	1	0	0	CorrectCommission	0.457433	0.847932	0	0	5.871739e+01
328.364868	1.319391	city	1	1	0.945845	0.945845	0	1	0	0	CorrectCommission	1.318307	0.862795	0	0	5.865217e+01
329.697754	1.346386	city	3	1	0.918963	0.918963	0	1	0	0	CorrectCommission	1.497525	0.873914	0	0	5.858696e+01
331.017303	1.292747	city	10	1	0.872458	0.872458	0	1	0	0	CorrectCommission	1.807564	0.879617	0	0	5.852174e+01
332.310242	1.293088	city	9	1	0.922590	0.922590	0	1	0	0	CorrectCommission	1.473346	0.879134	0	0	5.845652e+01
333.623199	1.332879	city	3	1	1.017752	1.017752	0	1	0	0	CorrectCommission	0.838913	0.872674	0	0	5.839130e+01
334.936096	1.292908	city	1	1	1.035949	1.035949	0	1	0	0	CorrectCommission	0.717597	0.861301	0	0	5.832609e+01
336.255585	1.346055	city	6	1	1.049282	1.049282	0	1	0	0	CorrectCommission	0.628707	0.846606	0	0	5.826087e+01
337.595062	1.332901	city	3	1	1.170305	1.170305	0	1	0	0	CorrectCommission	0.178128	0.830457	0	0	5.819565e+01
338.914703	1.306369	city	7	1	1.155527	1.155527	0	1	0	0	CorrectCommission	0.079606	0.814691	0	0	5.813043e+01
340.221039	1.306288	city	8	1	0.929609	0.929609	0	1	0	0	CorrectCommission	1.426552	0.800916	0	0	5.806522e+01
343.186676	4.624986	break	0	0	0.000000	1.011632	0	0	0	0	ThoughtProbe	0.879717	0.790322	0	58	58
346.205658	1.413007	city	8	1	1.101806	1.101806	0	1	0	0	CorrectCommission	0.278538	0.783730	0	0	5.764706e+01
347.585205	1.346077	city	6	1	0.900342	0.900342	0	1	0	0	CorrectCommission	1.621665	0.781575	0	0	5.729412e+01
348.918030	1.319594	city	4	1	1.129826	1.129826	0	1	0	0	CorrectCommission	0.091738	0.783907	0	0	5.694118e+01
350.237701	1.319705	city	10	1	0.917563	0.917563	0	1	0	0	CorrectCommission	1.506862	0.790521	0	0	5.658824e+01
351.563934	1.332772	city	5	1	1.095880	1.095880	0	1	0	0	CorrectCommission	0.318050	0.800870	0	0	5.623529e+01
352.883484	1.306338	mountain	10	0	0.000000	1.243464	1	0	0	0	CorrectOmission	0.665870	0.814119	0	0	5.588235e+01
354.196442	1.319596	city	3	1	1.260020	1.260020	0	1	0	0	CorrectCommission	0.776248	0.829037	0	0	5.552941e+01
355.509338	1.306185	city	8	1	1.045253	1.045253	0	1	0	0	CorrectCommission	0.655569	0.844062	0	0	5.517647e+01
356.815491	1.306098	city	5	1	1.173515	1.173515	0	1	0	0	CorrectCommission	0.199534	0.857336	0	0	5.482353e+01
358.121735	1.306424	city	4	1	1.007639	1.007639	0	1	0	0	CorrectCommission	0.906336	0.866903	0	0	5.447059e+01
359.421387	1.292895	city	9	1	0.924955	0.924955	0	1	0	0	CorrectCommission	1.457574	0.870907	0	0	5.411765e+01
360.754303	1.372894	city	4	1	0.980614	0.980614	0	1	0	0	CorrectCommission	1.086508	0.867857	0	0	5.376471e+01
362.093842	1.306210	city	10	1	0.968935	0.968935	0	1	0	0	CorrectCommission	1.164372	0.856922	0	0	5.341176e+01
363.400085	1.306285	city	6	1	1.570353	1.570353	0	1	0	0	CorrectCommission	2.845184	0.838059	0	0	5.305882e+01
364.726318	1.346177	city	8	1	1.132055	1.132055	0	1	0	0	CorrectCommission	0.076877	0.812061	0	0	5.270588e+01
366.052460	1.306076	city	9	1	1.034383	1.034383	0	1	0	0	CorrectCommission	0.728042	0.780570	0	0	5.235294e+01
367.352020	1.293072	city	3	1	1.114566	1.114566	0	1	0	0	CorrectCommission	0.193472	0.745718	0	0	52
368.638306	1.279467	city	1	1	1.074785	1.074785	0	1	0	0	CorrectCommission	0.458686	0.709932	1	0	5.164706e+01
369.957794	1.359527	city	5	1	1.093522	1.093522	0	1	0	0	CorrectCommission	0.333772	0.675666	1	0	5.129412e+01
371.310730	1.346366	city	8	1	0.981829	0.981829	0	1	0	0	CorrectCommission	1.078408	0.645139	1	0	5.094118e+01
372.650299	1.332747	city	7	1	1.099437	1.099437	0	1	0	0	CorrectCommission	0.294336	0.620151	1	0	5.058824e+01
373.963104	1.292886	city	8	1	1.163972	1.163972	0	1	0	0	CorrectCommission	0.135910	0.602140	1	0	5.023529e+01
375.249359	1.279593	mountain	8	0	0.000000	1.076530	1	0	0	0	CorrectOmission	0.447051	0.592189	1	0	4.988235e+01
376.555603	1.332881	city	8	1	0.990930	0.990930	0	1	0	0	CorrectCommission	1.017731	0.591128	1	0	4.952941e+01
377.881836	1.319645	city	7	1	1.060992	1.060992	0	1	0	0	CorrectCommission	0.550643	0.599602	1	0	4.917647e+01
379.194824	1.306296	city	1	1	1.057805	1.057805	0	1	0	0	CorrectCommission	0.571889	0.618156	1	0	4.882353e+01
380.501099	1.306265	city	4	1	1.035826	1.035826	0	1	0	0	CorrectCommission	0.718416	0.647211	1	0	4.847059e+01
381.820679	1.332888	city	10	1	1.153351	1.153351	0	1	0	0	CorrectCommission	0.065100	0.686962	1	0	4.811765e+01
383.146820	1.319406	city	5	1	1.181008	1.181008	0	1	0	0	CorrectCommission	0.249486	0.737238	0	0	4.776471e+01
384.473053	1.333065	city	1	1	1.008236	1.008236	0	1	0	0	CorrectCommission	0.902359	0.797288	0	0	4.741176e+01
385.792664	1.306121	city	6	1	1.210724	1.210724	0	1	0	0	CorrectCommission	0.447600	0.865623	0	0	4.705882e+01
387.118835	1.346232	city	7	1	1.012753	1.012753	0	1	0	0	CorrectCommission	0.872243	0.939969	0	0	4.670588e+01
388.445129	1.306358	city	8	1	1.231151	1.231151	0	1	0	0	CorrectCommission	0.583780	1.017207	0	0	4.635294e+01
393.010315	7.824040	break	0	0	0.000000	1.367557	0	0	0	0	ThoughtProbe	1.493179	1.093550	0	46	46
397.595398	1.346092	city	9	1	1.316924	1.316924	0	1	0	0	CorrectCommission	1.155615	1.164791	0	0	4.627500e+01
398.914917	1.292960	city	4	1	0.974202	0.974202	0	1	0	0	CorrectCommission	1.129254	1.226666	0	0	4.655000e+01
400.201172	1.279528	mountain	8	0	0.000000	1.279210	1	0	0	0	CorrectOmission	0.904182	1.275342	0	0	4.682500e+01
401.487457	1.293093	city	7	1	1.652240	1.652240	0	1	0	0	CorrectCommission	3.391111	1.307759	0	0	4.710000e+01
402.807068	1.346072	city	4	1	1.513584	1.513584	0	1	0	0	CorrectCommission	2.466717	1.321965	0	0	4.737500e+01
404.139832	1.319499	city	1	1	1.290280	1.290280	0	1	0	0	CorrectCommission	0.977988	1.317446	0	0	4.765000e+01
405.466003	1.332805	city	10	1	1.276099	1.276099	0	1	0	0	CorrectCommission	0.883445	1.295137	0	0	4.792500e+01
406.785645	1.306519	city	2	1	1.351661	1.351661	0	1	0	0	CorrectCommission	1.387200	1.257262	0	0	4.820000e+01
408.112030	1.346250	city	9	1	1.644856	1.644856	0	1	0	0	CorrectCommission	3.341885	1.207071	0	0	4.847500e+01
409.438202	1.306056	city	3	1	1.210198	1.210198	0	1	0	0	CorrectCommission	0.444093	1.148434	0	0	4.875000e+01
410.737762	1.293070	city	2	1	1.084546	1.084546	0	1	0	0	CorrectCommission	0.393611	1.085478	0	0	4.902500e+01
412.064087	1.359569	city	5	1	1.120471	1.120471	0	1	0	0	CorrectCommission	0.154102	1.021997	0	0	4.930000e+01
413.396973	1.306242	city	4	1	1.008397	1.008397	0	1	0	0	CorrectCommission	0.901286	0.961163	0	0	4.957500e+01
414.689850	1.279499	mountain	1	0	0.000000	0.992998	1	0	0	0	CorrectOmission	1.003945	0.905249	0	0	4.985000e+01
415.976013	1.292815	city	4	1	1.053741	1.053741	0	1	0	0	CorrectCommission	0.598985	0.855595	0	0	5.012500e+01
417.282196	1.319551	city	1	1	1.170088	1.170088	0	1	0	0	CorrectCommission	0.176686	0.812645	0	0	5.040000e+01
418.635162	1.386374	city	3	1	0.927323	0.927323	0	1	0	0	CorrectCommission	1.441788	0.776101	0	0	5.067500e+01
419.968048	1.279431	city	2	1	1.325694	1.325694	0	1	0	0	CorrectCommission	1.214083	0.745127	0	0	5.095000e+01
421.300934	1.386323	city	1	1	1.165565	1.165565	0	1	0	0	CorrectCommission	0.146530	0.718680	1	0	5.122500e+01
422.660492	1.332773	city	6	1	1.066614	1.066614	0	1	0	0	CorrectCommission	0.513157	0.695695	1	0	5.150000e+01
423.986664	1.319610	mountain	7	0	0.000000	1.220575	1	0	0	0	CorrectOmission	0.513271	0.675247	1	0	5.177500e+01
425.306244	1.319567	city	4	1	1.362330	1.362330	0	1	0	0	CorrectCommission	1.458331	0.656649	1	0	5.205000e+01
426.632507	1.332917	city	7	1	1.226765	1.226765	0	1	0	0	CorrectCommission	0.554538	0.639453	1	0	5.232500e+01
427.958801	1.319666	city	6	1	1.168287	1.168287	0	1	0	0	CorrectCommission	0.164675	0.623496	1	0	5.260000e+01
429.285004	1.332758	city	3	1	1.065440	1.065440	0	1	0	0	CorrectCommission	0.520989	0.608828	1	0	5.287500e+01
430.624573	1.346372	city	1	1	1.051482	1.051482	0	1	0	0	CorrectCommission	0.614040	0.595555	1	0	5.315000e+01
431.964081	1.332676	city	4	1	1.278628	1.278628	0	1	0	0	CorrectCommission	0.900299	0.583881	1	0	5.342500e+01
433.330322	1.399754	city	8	1	1.156770	1.156770	0	1	0	0	CorrectCommission	0.087894	0.574006	1	0	5.370000e+01
434.716522	1.372700	city	4	1	1.257222	1.257222	0	1	0	0	CorrectCommission	0.757592	0.566136	1	0	5.397500e+01
436.056000	1.306250	city	5	1	1.039091	1.039091	0	1	0	0	CorrectCommission	0.696653	0.560400	1	0	5.425000e+01
437.375671	1.333049	city	1	1	1.213797	1.213797	0	1	0	0	CorrectCommission	0.468085	0.556849	1	0	5.452500e+01
438.701935	1.319478	city	3	1	1.098187	1.098187	0	1	0	0	CorrectCommission	0.302668	0.555560	1	0	5.480000e+01
440.008087	1.292865	city	8	1	1.136092	1.136092	0	1	0	0	CorrectCommission	0.049960	0.556565	1	0	5.507500e+01
441.294403	1.279728	city	7	1	1.341502	1.341502	0	1	0	0	CorrectCommission	1.319475	0.559897	1	0	5.535000e+01
442.627289	1.386055	city	8	1	1.285102	1.285102	0	1	0	0	CorrectCommission	0.943461	0.565519	1	0	5.562500e+01
443.973419	1.306213	city	1	1	1.124377	1.124377	0	1	0	0	CorrectCommission	0.128064	0.573426	1	0	5.590000e+01
445.292969	1.332895	city	9	1	1.180412	1.180412	0	1	0	0	CorrectCommission	0.245509	0.583578	1	0	5.617500e+01
446.645935	1.373039	city	5	1	1.182384	1.182384	0	1	0	0	CorrectCommission	0.258658	0.595896	1	0	5.645000e+01
447.985504	1.306107	city	1	1	1.194428	1.194428	0	1	0	0	CorrectCommission	0.338954	0.610240	1	0	5.672500e+01
451.377747	5.478343	break	0	0	0.000000	1.323741	0	0	0	0	ThoughtProbe	1.201062	0.626421	1	57	57
454.776611	1.319409	city	4	1	1.372285	1.372285	0	1	0	0	CorrectCommission	1.524697	0.644188	1	0	5.673913e+01
456.082855	1.293072	city	6	1	1.142022	1.142022	0	1	0	0	CorrectCommission	0.010426	0.663219	1	0	5.647826e+01
457.395813	1.332878	city	5	1	1.168626	1.168626	0	1	0	0	CorrectCommission	0.166938	0.683133	1	0	5.621739e+01
458.702087	1.279638	city	7	1	1.319283	1.319283	0	1	0	0	CorrectCommission	1.171341	0.703376	1	0	5.595652e+01
460.014954	1.346087	city	5	1	1.185461	1.185461	0	1	0	0	CorrectCommission	0.279172	0.723236	1	0	5.569565e+01
461.361145	1.346302	city	10	1	0.975935	0.975935	0	1	0	0	CorrectCommission	1.117702	0.741917	0	0	5.543478e+01
462.687347	1.306119	city	1	1	1.119966	1.119966	0	1	0	0	CorrectCommission	0.157471	0.758507	0	0	5.517391e+01
463.993591	1.306367	city	8	1	0.943861	0.943861	0	1	0	0	CorrectCommission	1.331533	0.772146	0	0	5.491304e+01
465.293243	1.292922	city	9	1	0.999834	0.999834	0	1	0	0	CorrectCommission	0.958372	0.782064	0	0	5.465217e+01
466.606140	1.332885	city	5	1	1.076046	1.076046	0	1	0	0	CorrectCommission	0.450277	0.787832	0	0	5.439130e+01
467.932373	1.319566	city	1	1	0.952055	0.952055	0	1	0	0	CorrectCommission	1.276904	0.789379	0	0	5.413043e+01
469.245209	1.306118	city	6	1	0.986847	0.986847	0	1	0	0	CorrectCommission	1.044953	0.787101	0	0	5.386957e+01
470.571442	1.346335	city	9	1	0.965020	0.965020	0	1	0	0	CorrectCommission	1.190473	0.781867	0	0	5.360870e+01
471.884399	1.279565	mountain	4	0	0.000000	1.180028	1	0	0	0	CorrectOmission	0.242953	0.774886	0	0	5.334783e+01
473.170532	1.292744	city	6	1	1.356865	1.356865	0	1	0	0	CorrectCommission	1.421896	0.767610	0	0	5.308696e+01
474.496704	1.359558	city	2	1	1.220523	1.220523	0	1	0	0	CorrectCommission	0.512926	0.761428	0	0	5.282609e+01
475.849579	1.346214	city	10	1	1.077814	1.077814	0	1	0	0	CorrectCommission	0.438493	0.757565	0	0	5.256522e+01
477.189148	1.332908	city	4	1	1.159282	1.159282	0	1	0	0	CorrectCommission	0.104645	0.756844	0	0	5.230435e+01
478.495453	1.279738	mountain	6	0	0.000000	1.178847	1	0	0	0	CorrectOmission	0.235080	0.759609	0	0	5.204348e+01
479.788391	1.306088	city	8	1	1.204269	1.204269	0	1	0	0	CorrectCommission	0.404566	0.765714	0	0	5.178261e+01
481.107880	1.332892	mountain	4	0	0.000000	1.303310	1	0	0	0	CorrectOmission	1.064854	0.774632	0	0	5.152174e+01
482.434174	1.319713	mountain	3	0	0.000000	1.393132	1	0	0	0	CorrectOmission	1.663679	0.785604	0	0	5.126087e+01
483.733734	1.279424	city	6	1	1.390896	1.390896	0	1	0	0	CorrectCommission	1.648774	0.797789	0	0	51
485.053314	1.359706	city	8	1	1.213765	1.213765	0	1	0	0	CorrectCommission	0.467873	0.810444	0	0	5.073913e+01
486.386261	1.306218	city	4	1	1.076638	1.076638	0	1	0	0	CorrectCommission	0.446334	0.822959	0	0	5.047826e+01
487.692444	1.306126	city	8	1	1.026931	1.026931	0	1	0	0	CorrectCommission	0.777720	0.834793	0	0	5.021739e+01
489.012024	1.333054	city	10	1	1.065349	1.065349	0	1	0	0	CorrectCommission	0.521595	0.845445	0	0	4.995652e+01
490.358276	1.359449	city	9	1	1.086528	1.086528	0	1	0	0	CorrectCommission	0.380394	0.854370	0	0	4.969565e+01
491.677826	1.279660	city	7	1	1.337805	1.337805	0	1	0	0	CorrectCommission	1.294827	0.860978	0	0	4.943478e+01
493.010803	1.386276	city	3	1	1.164509	1.164509	0	1	0	0	CorrectCommission	0.139490	0.864594	0	0	4.917391e+01
494.343597	1.279347	city	2	1	1.421664	1.421664	0	1	0	0	CorrectCommission	1.853903	0.864630	0	0	4.891304e+01
495.649811	1.333060	city	6	1	1.447217	1.447217	0	1	0	0	CorrectCommission	2.024259	0.860582	0	0	4.865217e+01
496.982697	1.332731	city	2	1	1.231808	1.231808	0	1	0	0	CorrectCommission	0.588158	0.852228	0	0	4.839130e+01
498.315643	1.333108	city	7	1	1.203670	1.203670	0	1	0	0	CorrectCommission	0.400573	0.839705	0	0	4.813043e+01
499.655273	1.346193	city	10	1	1.053445	1.053445	0	1	0	0	CorrectCommission	0.600957	0.823475	0	0	4.786957e+01
500.981415	1.306070	city	3	1	1.018137	1.018137	0	1	0	0	CorrectCommission	0.836346	0.804355	0	0	4.760870e+01
502.294281	1.319641	city	8	1	1.031392	1.031392	0	1	0	0	CorrectCommission	0.747979	0.783407	0	0	4.734783e+01
503.613922	1.319642	city	2	1	0.987586	0.987586	0	1	0	0	CorrectCommission	1.040024	0.761892	0	0	4.708696e+01
504.993469	1.439480	city	3	1	1.283941	1.283941	0	1	0	0	CorrectCommission	0.935722	0.741118	0	0	4.682609e+01
506.372925	1.319447	city	7	1	1.229506	1.229506	0	1	0	0	CorrectCommission	0.572811	0.722321	1	0	4.656522e+01
507.699188	1.333054	city	9	1	0.983131	0.983131	0	1	0	0	CorrectCommission	1.069727	0.706495	1	0	4.630435e+01
509.025513	1.319581	city	3	1	1.131209	1.131209	0	1	0	0	CorrectCommission	0.082518	0.694262	1	0	4.604348e+01
510.378357	1.386125	city	2	1	1.102432	1.102432	0	1	0	0	CorrectCommission	0.274366	0.685827	1	0	4.578261e+01
511.731262	1.319660	city	6	1	1.098332	1.098332	0	1	0	0	CorrectCommission	0.301699	0.680835	1	0	4.552174e+01
513.070740	1.359369	city	5	1	1.017690	1.017690	0	1	0	0	CorrectCommission	0.839327	0.678462	1	0	4.526087e+01
516.309753	5.118665	break	0	0	1.245208	1.245208	0	0	0	0	ThoughtProbe	0.677500	0.677500	1	45	45
