onset	duration	trial_type	image_type	Press	ReactionTime	ReactionTime_Interpolated	CorrectOmission	CorrectCommission	CommissionError	OmissionError	response_type	nonsmoothVarianceTimeCourse	VarianceTimeCourse	In_the_Zone	ThoughtProbe	ThoughtProbe_Interpolated
0.652890	1.279678	city	3	1	1.447436	1.447436	0	1	0	0	CorrectCommission	0.339277	0.339277	1	0	100
1.932395	1.279331	city	7	1	1.391748	1.391748	0	1	0	0	CorrectCommission	0.111428	0.338641	1	0	100
3.211921	1.279721	city	10	1	1.262325	1.262325	0	1	0	0	CorrectCommission	1.158899	0.338416	1	0	100
4.491568	1.279573	city	6	1	1.389198	1.389198	0	1	0	0	CorrectCommission	0.132068	0.339010	1	0	100
5.771213	1.279718	city	5	1	1.401236	1.401236	0	1	0	0	CorrectCommission	0.034637	0.340908	1	0	100
7.070763	1.319382	city	6	1	1.340865	1.340865	0	1	0	0	CorrectCommission	0.523240	0.344581	1	0	100
8.370280	1.279652	mountain	2	0	0.000000	1.418480	1	0	0	0	CorrectOmission	0.104927	0.350459	1	0	100
9.649961	1.279710	city	2	1	1.488039	1.488039	0	1	0	0	CorrectCommission	0.667893	0.358885	1	0	100
10.936180	1.292728	city	7	1	1.403500	1.403500	0	1	0	0	CorrectCommission	0.016311	0.369982	1	0	100
12.222322	1.279558	city	5	1	1.392940	1.392940	0	1	0	0	CorrectCommission	0.101782	0.383654	1	0	100
13.508583	1.292963	city	3	1	1.457030	1.457030	0	1	0	0	CorrectCommission	0.416920	0.399510	1	0	100
14.794853	1.279577	city	8	1	1.463859	1.463859	0	1	0	0	CorrectCommission	0.472193	0.416916	1	0	100
16.074488	1.279690	city	9	1	1.393767	1.393767	0	1	0	0	CorrectCommission	0.095086	0.435062	1	0	100
17.354113	1.279560	city	1	1	1.337889	1.337889	0	1	0	0	CorrectCommission	0.547325	0.453098	1	0	100
18.633623	1.279461	mountain	6	0	0.000000	1.460978	1	0	0	0	CorrectOmission	0.448875	0.470251	1	0	100
19.913145	1.279584	city	5	1	1.578800	1.578800	0	1	0	0	CorrectCommission	1.402449	0.485989	1	0	100
21.192719	1.279565	mountain	6	0	0.000000	1.507121	1	0	0	0	CorrectOmission	0.822327	0.500085	1	0	100
22.472366	1.279727	city	3	1	1.395672	1.395672	0	1	0	0	CorrectCommission	0.079672	0.512743	1	0	100
23.751951	1.279443	city	5	1	1.394181	1.394181	0	1	0	0	CorrectCommission	0.091735	0.524538	1	0	100
25.031454	1.279562	city	8	1	1.317337	1.317337	0	1	0	0	CorrectCommission	0.713664	0.536324	1	0	100
26.311110	1.279749	city	1	1	1.356419	1.356419	0	1	0	0	CorrectCommission	0.397360	0.549161	1	0	100
27.590752	1.279537	city	7	1	1.499631	1.499631	0	1	0	0	CorrectCommission	0.761709	0.564167	1	0	100
28.870253	1.279462	city	5	1	1.443882	1.443882	0	1	0	0	CorrectCommission	0.310511	0.582381	1	0	100
30.149836	1.279705	city	9	1	1.301807	1.301807	0	1	0	0	CorrectCommission	0.839354	0.604665	1	0	100
31.429485	1.279593	city	1	1	1.336643	1.336643	0	1	0	0	CorrectCommission	0.557410	0.631514	1	0	100
32.709011	1.279460	city	7	1	1.461300	1.461300	0	1	0	0	CorrectCommission	0.451479	0.663031	1	0	100
33.988548	1.279616	city	1	1	1.444114	1.444114	0	1	0	0	CorrectCommission	0.312390	0.698855	1	0	100
35.268139	1.279560	city	3	1	1.447348	1.447348	0	1	0	0	CorrectCommission	0.338567	0.738153	0	0	100
36.547684	1.279532	city	8	1	1.509686	1.509686	0	1	0	0	CorrectCommission	0.843085	0.779683	0	0	100
37.827374	1.279850	city	9	1	1.510757	1.510757	0	1	0	0	CorrectCommission	0.851757	0.821907	0	0	100
39.107025	1.279454	city	7	1	1.581830	1.581830	0	1	0	0	CorrectCommission	1.426974	0.863206	0	0	100
40.386467	1.279422	city	4	1	1.514995	1.514995	0	1	0	0	CorrectCommission	0.886055	0.902029	0	0	100
41.666050	1.279748	mountain	5	0	0.000000	1.543542	1	0	0	0	CorrectOmission	1.117097	0.937093	0	0	100
42.945721	1.279589	city	3	1	1.563054	1.563054	0	1	0	0	CorrectCommission	1.275013	0.967505	0	0	100
44.225307	1.279584	city	9	1	1.469112	1.469112	0	1	0	0	CorrectCommission	0.514712	0.992834	0	0	100
45.504871	1.279548	city	10	1	1.500379	1.500379	0	1	0	0	CorrectCommission	0.767766	1.013109	0	0	100
46.784428	1.279564	city	1	1	1.625991	1.625991	0	1	0	0	CorrectCommission	1.784387	1.028719	0	0	100
48.064022	1.279625	city	3	1	1.649099	1.649099	0	1	0	0	CorrectCommission	1.971404	1.040245	0	0	100
49.350285	1.292902	city	8	1	1.538499	1.538499	0	1	0	0	CorrectCommission	1.076283	1.048319	0	0	100
50.649811	1.306150	city	3	1	1.483752	1.483752	0	1	0	0	CorrectCommission	0.633193	1.053435	0	0	100
51.942707	1.279636	city	10	1	1.403448	1.403448	0	1	0	0	CorrectCommission	0.016736	1.055735	0	0	100
53.228981	1.292919	city	9	1	1.459346	1.459346	0	1	0	0	CorrectCommission	0.435667	1.054937	0	0	100
54.541878	1.332874	city	8	1	1.565260	1.565260	0	1	0	0	CorrectCommission	1.292871	1.050363	0	0	100
55.848072	1.279509	city	10	1	1.567775	1.567775	0	1	0	0	CorrectCommission	1.313221	1.041080	0	0	100
57.127617	1.279581	city	8	1	1.565001	1.565001	0	1	0	0	CorrectCommission	1.290769	1.026169	0	0	100
61.219612	6.904413	break	0	0	0.000000	1.656314	0	0	0	0	ThoughtProbe	2.029801	1.004932	0	100	100
65.311661	1.279683	city	3	1	1.685763	1.685763	0	1	0	0	CorrectCommission	2.268143	0.977110	0	0	9.982353e+01
66.591301	1.279598	city	9	1	1.497396	1.497396	0	1	0	0	CorrectCommission	0.743624	0.943001	0	0	9.964706e+01
67.870880	1.279554	city	4	1	1.443346	1.443346	0	1	0	0	CorrectCommission	0.306171	0.903491	0	0	9.947059e+01
69.150383	1.279457	mountain	8	0	0.000000	1.448994	1	0	0	0	CorrectOmission	0.351888	0.859852	0	0	9.929412e+01
70.429962	1.279695	city	8	1	1.452035	1.452035	0	1	0	0	CorrectCommission	0.376496	0.813611	0	0	9.911765e+01
71.709595	1.279580	city	6	1	1.390159	1.390159	0	1	0	0	CorrectCommission	0.124284	0.766408	0	0	9.894118e+01
72.989174	1.279573	city	1	1	1.230550	1.230550	0	1	0	0	CorrectCommission	1.416058	0.719872	1	0	9.876471e+01
74.268753	1.279583	city	3	1	1.252335	1.252335	0	1	0	0	CorrectCommission	1.239746	0.675549	1	0	9.858824e+01
75.548271	1.279448	city	5	1	1.283513	1.283513	0	1	0	0	CorrectCommission	0.987410	0.634919	1	0	9.841176e+01
76.827774	1.279571	city	7	1	1.342188	1.342188	0	1	0	0	CorrectCommission	0.512538	0.599323	1	0	9.823529e+01
78.107368	1.279607	city	4	1	1.390308	1.390308	0	1	0	0	CorrectCommission	0.123079	0.569928	1	0	9.805882e+01
79.387009	1.279680	city	7	1	1.407001	1.407001	0	1	0	0	CorrectCommission	0.012023	0.547598	1	0	9.788235e+01
80.666557	1.279410	city	4	1	1.338202	1.338202	0	1	0	0	CorrectCommission	0.544795	0.532750	1	0	9.770588e+01
81.946083	1.279640	city	1	1	1.441577	1.441577	0	1	0	0	CorrectCommission	0.291857	0.525231	1	0	9.752941e+01
83.225716	1.279636	city	10	1	1.389261	1.389261	0	1	0	0	CorrectCommission	0.131559	0.524272	1	0	9.735294e+01
84.505356	1.279640	mountain	7	0	0.000000	1.434340	1	0	0	0	CorrectOmission	0.233286	0.528463	1	0	9.717647e+01
85.784920	1.279489	city	1	1	1.496869	1.496869	0	1	0	0	CorrectCommission	0.739358	0.535851	1	0	97
87.064423	1.279507	city	7	1	1.496902	1.496902	0	1	0	0	CorrectCommission	0.739622	0.544148	1	0	9.682353e+01
88.344040	1.279730	city	4	1	1.367507	1.367507	0	1	0	0	CorrectCommission	0.307617	0.551052	1	0	9.664706e+01
89.623680	1.279557	city	3	1	1.349042	1.349042	0	1	0	0	CorrectCommission	0.457059	0.554586	1	0	9.647059e+01
90.903191	1.279454	city	6	1	1.296399	1.296399	0	1	0	0	CorrectCommission	0.883125	0.553389	1	0	9.629412e+01
92.182716	1.279599	city	7	1	1.177006	1.177006	0	1	0	0	CorrectCommission	1.849415	0.546983	1	0	9.611765e+01
93.462364	1.279695	city	5	1	1.307021	1.307021	0	1	0	0	CorrectCommission	0.797151	0.535872	1	0	9.594118e+01
94.741936	1.279451	city	8	1	1.336888	1.336888	0	1	0	0	CorrectCommission	0.555429	0.521570	1	0	9.576471e+01
96.021515	1.279708	city	7	1	1.441387	1.441387	0	1	0	0	CorrectCommission	0.290322	0.506334	1	0	9.558824e+01
97.301117	1.279503	city	8	1	1.395390	1.395390	0	1	0	0	CorrectCommission	0.081953	0.492802	1	0	9.541176e+01
98.580704	1.279670	city	2	1	1.405113	1.405113	0	1	0	0	CorrectCommission	0.003261	0.483600	1	0	9.523529e+01
99.860313	1.279541	city	4	1	1.460010	1.460010	0	1	0	0	CorrectCommission	0.441042	0.480908	1	0	9.505882e+01
101.140175	1.280190	city	5	1	1.390054	1.390054	0	1	0	0	CorrectCommission	0.125137	0.486081	1	0	9.488235e+01
102.419769	1.278988	city	7	1	1.389427	1.389427	0	1	0	0	CorrectCommission	0.130215	0.499478	1	0	9.470588e+01
103.699059	1.279594	city	4	1	1.407695	1.407695	0	1	0	0	CorrectCommission	0.017637	0.520385	1	0	9.452941e+01
104.978630	1.279544	city	1	1	1.443983	1.443983	0	1	0	0	CorrectCommission	0.311328	0.547153	1	0	9.435294e+01
106.258141	1.279485	city	10	1	1.497475	1.497475	0	1	0	0	CorrectCommission	0.744258	0.577447	1	0	9.417647e+01
109.850258	5.904756	break	0	0	0.000000	1.567467	0	0	0	0	ThoughtProbe	1.310733	0.608568	1	94	94
113.442459	1.279641	city	4	1	1.553118	1.553118	0	1	0	0	CorrectCommission	1.194600	0.637823	1	0	9.410000e+01
114.722023	1.279487	city	5	1	1.353586	1.353586	0	1	0	0	CorrectCommission	0.420289	0.662872	1	0	9.420000e+01
116.001625	1.279712	city	7	1	1.366708	1.366708	0	1	0	0	CorrectCommission	0.314089	0.681973	1	0	9.430000e+01
117.281265	1.279574	city	6	1	1.240987	1.240987	0	1	0	0	CorrectCommission	1.331594	0.694114	1	0	9.440000e+01
118.560829	1.279560	city	4	1	1.238846	1.238846	0	1	0	0	CorrectCommission	1.348920	0.698992	1	0	9.450000e+01
119.840393	1.279558	city	5	1	1.337395	1.337395	0	1	0	0	CorrectCommission	0.551324	0.697023	1	0	9.460000e+01
121.119896	1.279456	city	3	1	1.335270	1.335270	0	1	0	0	CorrectCommission	0.568522	0.689209	1	0	9.470000e+01
122.399498	1.279743	city	10	1	1.337090	1.337090	0	1	0	0	CorrectCommission	0.553798	0.676931	1	0	9.480000e+01
123.699135	1.319529	mountain	3	0	0.000000	1.454204	1	0	0	0	CorrectOmission	0.394051	0.661783	1	0	9.490000e+01
125.018707	1.319610	city	5	1	1.537617	1.537617	0	1	0	0	CorrectCommission	1.069145	0.645497	1	0	95
126.344864	1.332703	mountain	9	0	0.000000	1.438333	1	0	0	0	CorrectOmission	0.265605	0.629850	1	0	9.510000e+01
127.651077	1.279727	city	2	1	1.313204	1.313204	0	1	0	0	CorrectCommission	0.747110	0.616618	1	0	9.520000e+01
128.930740	1.279611	city	1	1	1.319082	1.319082	0	1	0	0	CorrectCommission	0.699542	0.607519	1	0	9.530000e+01
130.210342	1.279586	city	5	1	1.335863	1.335863	0	1	0	0	CorrectCommission	0.563721	0.604228	1	0	9.540000e+01
131.489929	1.279599	city	4	1	1.345582	1.345582	0	1	0	0	CorrectCommission	0.485064	0.608340	1	0	9.550000e+01
132.769516	1.279575	city	3	1	1.390172	1.390172	0	1	0	0	CorrectCommission	0.124185	0.621262	1	0	9.560000e+01
134.049042	1.279476	city	4	1	1.345033	1.345033	0	1	0	0	CorrectCommission	0.489508	0.644100	1	0	9.570000e+01
135.328613	1.279665	city	10	1	1.281885	1.281885	0	1	0	0	CorrectCommission	1.000590	0.677519	1	0	9.580000e+01
136.608185	1.279468	city	2	1	1.441270	1.441270	0	1	0	0	CorrectCommission	0.289373	0.721546	1	0	9.590000e+01
137.887772	1.279690	city	5	1	1.456648	1.456648	0	1	0	0	CorrectCommission	0.413833	0.775481	0	0	96
139.167328	1.279429	city	9	1	1.360516	1.360516	0	1	0	0	CorrectCommission	0.364201	0.837764	0	0	9.610000e+01
140.446838	1.279603	city	6	1	1.335021	1.335021	0	1	0	0	CorrectCommission	0.570538	0.905994	0	0	9.620000e+01
141.726486	1.279688	city	10	1	1.241910	1.241910	0	1	0	0	CorrectCommission	1.324117	0.977021	0	0	9.630000e+01
143.052704	1.372741	city	4	1	1.341051	1.341051	0	1	0	0	CorrectCommission	0.521733	1.047152	0	0	9.640000e+01
144.412170	1.346212	city	6	1	1.252186	1.252186	0	1	0	0	CorrectCommission	1.240952	1.112485	0	0	9.650000e+01
145.745178	1.319781	city	10	1	1.130614	1.130614	0	1	0	0	CorrectCommission	2.224880	1.169161	0	0	9.660000e+01
147.051407	1.292679	city	8	1	1.144013	1.144013	0	1	0	0	CorrectCommission	2.116437	1.213770	0	0	9.670000e+01
148.390854	1.386218	city	3	1	1.396200	1.396200	0	1	0	0	CorrectCommission	0.075396	1.243683	0	0	9.680000e+01
149.763779	1.359620	mountain	4	0	0.000000	1.663830	1	0	0	0	CorrectOmission	2.090631	1.257296	0	0	9.690000e+01
151.110001	1.332826	city	7	1	1.780020	1.780020	0	1	0	0	CorrectCommission	3.030998	1.254032	0	0	97
152.456177	1.359550	city	5	1	1.577886	1.577886	0	1	0	0	CorrectCommission	1.395055	1.234437	0	0	9.710000e+01
153.815765	1.359604	city	6	1	1.463480	1.463480	0	1	0	0	CorrectCommission	0.469123	1.200061	0	0	9.720000e+01
155.188751	1.386379	city	4	1	1.355198	1.355198	0	1	0	0	CorrectCommission	0.407240	1.153272	0	0	9.730000e+01
156.548355	1.332844	city	10	1	1.215669	1.215669	0	1	0	0	CorrectCommission	1.536495	1.097042	0	0	9.740000e+01
157.901169	1.372781	city	5	1	1.194160	1.194160	0	1	0	0	CorrectCommission	1.710580	1.034723	0	0	9.750000e+01
159.247330	1.319530	city	6	1	1.321765	1.321765	0	1	0	0	CorrectCommission	0.677828	0.969884	0	0	9.760000e+01
160.546875	1.279544	city	2	1	1.199510	1.199510	0	1	0	0	CorrectCommission	1.667281	0.906107	0	0	9.770000e+01
161.833099	1.292931	city	3	1	1.348472	1.348472	0	1	0	0	CorrectCommission	0.461672	0.846728	0	0	9.780000e+01
163.119431	1.279720	city	4	1	1.390456	1.390456	0	1	0	0	CorrectCommission	0.121888	0.794685	0	0	9.790000e+01
166.578369	5.638165	break	0	0	0.000000	1.371206	0	0	0	0	ThoughtProbe	0.277683	0.752270	0	98	98
170.037216	1.279523	city	6	1	1.340973	1.340973	0	1	0	0	CorrectCommission	0.522364	0.720960	1	0	9.797826e+01
171.316711	1.279476	city	4	1	1.350008	1.350008	0	1	0	0	CorrectCommission	0.449242	0.701277	1	0	9.795652e+01
172.596237	1.279564	city	5	1	1.337357	1.337357	0	1	0	0	CorrectCommission	0.551635	0.692753	1	0	9.793478e+01
173.875809	1.279595	city	2	1	1.291979	1.291979	0	1	0	0	CorrectCommission	0.918898	0.693962	1	0	9.791304e+01
175.155396	1.279562	city	1	1	1.390763	1.390763	0	1	0	0	CorrectCommission	0.119401	0.702660	1	0	9.789130e+01
176.435059	1.279768	city	10	1	1.367297	1.367297	0	1	0	0	CorrectCommission	0.309318	0.716098	1	0	9.786957e+01
177.727982	1.306078	city	5	1	1.383224	1.383224	0	1	0	0	CorrectCommission	0.180416	0.731303	0	0	9.784783e+01
179.020859	1.279685	mountain	10	0	0.000000	1.518132	1	0	0	0	CorrectOmission	0.911440	0.745481	0	0	9.782609e+01
180.300507	1.279599	mountain	4	0	0.000000	1.658122	1	0	0	0	CorrectOmission	2.044432	0.756328	0	0	9.780435e+01
181.580109	1.279608	city	7	1	1.689297	1.689297	0	1	0	0	CorrectCommission	2.296741	0.762392	0	0	9.778261e+01
182.859619	1.279406	city	5	1	1.497758	1.497758	0	1	0	0	CorrectCommission	0.746550	0.763135	0	0	9.776087e+01
184.152527	1.306410	city	4	1	1.430892	1.430892	0	1	0	0	CorrectCommission	0.205375	0.758966	0	0	9.773913e+01
185.445496	1.279549	city	1	1	1.349650	1.349650	0	1	0	0	CorrectCommission	0.452145	0.751050	0	0	9.771739e+01
186.725021	1.279489	city	10	1	1.356004	1.356004	0	1	0	0	CorrectCommission	0.400716	0.741021	0	0	9.769565e+01
188.004547	1.279557	mountain	10	0	0.000000	1.360100	1	0	0	0	CorrectOmission	0.367566	0.730680	0	0	9.767391e+01
189.284180	1.279715	city	1	1	1.342443	1.342443	0	1	0	0	CorrectCommission	0.510471	0.721683	0	0	9.765217e+01
190.563828	1.279574	city	2	1	1.283538	1.283538	0	1	0	0	CorrectCommission	0.987209	0.715364	1	0	9.763043e+01
191.843445	1.279673	city	5	1	1.337621	1.337621	0	1	0	0	CorrectCommission	0.549494	0.712676	1	0	9.760870e+01
193.136337	1.306104	city	9	1	1.261355	1.261355	0	1	0	0	CorrectCommission	1.166749	0.714152	1	0	9.758696e+01
194.429199	1.279627	city	6	1	1.288444	1.288444	0	1	0	0	CorrectCommission	0.947506	0.719922	1	0	9.756522e+01
195.708649	1.279269	city	5	1	1.358472	1.358472	0	1	0	0	CorrectCommission	0.380740	0.729852	0	0	9.754348e+01
196.988159	1.279757	city	9	1	1.364165	1.364165	0	1	0	0	CorrectCommission	0.334670	0.743595	0	0	9.752174e+01
198.287888	1.319681	city	5	1	1.447076	1.447076	0	1	0	0	CorrectCommission	0.336360	0.760668	0	0	9.750000e+01
199.587433	1.279408	city	7	1	1.497615	1.497615	0	1	0	0	CorrectCommission	0.745392	0.780528	0	0	9.747826e+01
200.866928	1.279597	city	4	1	1.514306	1.514306	0	1	0	0	CorrectCommission	0.880483	0.802622	0	0	9.745652e+01
202.146500	1.279555	city	3	1	1.577262	1.577262	0	1	0	0	CorrectCommission	1.390004	0.826409	0	0	9.743478e+01
203.452759	1.332942	city	4	1	1.593397	1.593397	0	1	0	0	CorrectCommission	1.520588	0.851381	0	0	9.741304e+01
204.772369	1.306285	city	2	1	1.431991	1.431991	0	1	0	0	CorrectCommission	0.214272	0.877019	0	0	9.739130e+01
206.065414	1.279803	city	9	1	1.289542	1.289542	0	1	0	0	CorrectCommission	0.938616	0.902785	0	0	9.736957e+01
207.358276	1.305939	city	10	1	1.371252	1.371252	0	1	0	0	CorrectCommission	0.277307	0.928007	0	0	9.734783e+01
208.651062	1.279618	city	8	1	1.495338	1.495338	0	1	0	0	CorrectCommission	0.726965	0.951906	0	0	9.732609e+01
209.930634	1.279544	city	4	1	1.574452	1.574452	0	1	0	0	CorrectCommission	1.367262	0.973571	0	0	9.730435e+01
211.216858	1.292901	city	6	1	1.595790	1.595790	0	1	0	0	CorrectCommission	1.539957	0.992069	0	0	9.728261e+01
212.503159	1.279703	city	7	1	1.578968	1.578968	0	1	0	0	CorrectCommission	1.403810	1.006551	0	0	9.726087e+01
213.782745	1.279461	city	1	1	1.435688	1.435688	0	1	0	0	CorrectCommission	0.244192	1.016387	0	0	9.723913e+01
215.075638	1.306316	city	4	1	1.465052	1.465052	0	1	0	0	CorrectCommission	0.481847	1.021327	0	0	9.721739e+01
216.381958	1.306331	mountain	3	0	0.000000	1.645574	1	0	0	0	CorrectOmission	1.942880	1.021543	0	0	9.719565e+01
217.674896	1.279543	city	4	1	1.727263	1.727263	0	1	0	0	CorrectCommission	2.604018	1.017665	0	0	9.717391e+01
218.981125	1.332928	city	1	1	1.460127	1.460127	0	1	0	0	CorrectCommission	0.441991	1.010719	0	0	9.715217e+01
220.287521	1.279860	city	10	1	1.316526	1.316526	0	1	0	0	CorrectCommission	0.720225	1.002053	0	0	9.713043e+01
221.567062	1.279202	city	3	1	1.447294	1.447294	0	1	0	0	CorrectCommission	0.338127	0.992989	0	0	9.710870e+01
222.846436	1.279559	city	2	1	1.298534	1.298534	0	1	0	0	CorrectCommission	0.865844	0.984690	0	0	9.708696e+01
224.139297	1.306161	city	1	1	1.287306	1.287306	0	1	0	0	CorrectCommission	0.956712	0.977935	0	0	9.706522e+01
225.445496	1.306237	city	9	1	1.271179	1.271179	0	1	0	0	CorrectCommission	1.087234	0.972988	0	0	9.704348e+01
226.738419	1.279603	city	1	1	1.316134	1.316134	0	1	0	0	CorrectCommission	0.723400	0.969569	0	0	9.702174e+01
230.150635	5.544846	break	0	0	0.000000	1.311875	0	0	0	0	ThoughtProbe	0.757871	0.966924	0	97	97
233.562851	1.279587	city	4	1	1.292890	1.292890	0	1	0	0	CorrectCommission	0.911523	0.963969	0	0	9.705882e+01
234.862427	1.319546	city	7	1	1.293667	1.293667	0	1	0	0	CorrectCommission	0.905231	0.959496	0	0	9.711765e+01
236.175308	1.306221	city	1	1	1.199549	1.199549	0	1	0	0	CorrectCommission	1.666961	0.952384	0	0	9.717647e+01
237.475983	1.295133	city	8	1	1.222146	1.222146	0	1	0	0	CorrectCommission	1.484080	0.941776	0	0	9.723529e+01
238.775635	1.304157	city	1	1	1.236969	1.236969	0	1	0	0	CorrectCommission	1.364108	0.927202	0	0	9.729412e+01
240.067566	1.279706	city	7	1	1.309709	1.309709	0	1	0	0	CorrectCommission	0.775400	0.908542	0	0	9.735294e+01
241.353760	1.292684	mountain	6	0	0.000000	1.356669	1	0	0	0	CorrectOmission	0.395338	0.886006	0	0	9.741176e+01
242.653198	1.306198	city	4	1	1.364163	1.364163	0	1	0	0	CorrectCommission	0.334685	0.860019	0	0	9.747059e+01
243.946075	1.279573	city	3	1	1.318506	1.318506	0	1	0	0	CorrectCommission	0.704204	0.831144	0	0	9.752941e+01
245.232330	1.292930	city	4	1	1.314030	1.314030	0	1	0	0	CorrectCommission	0.740426	0.800020	0	0	9.758824e+01
246.525284	1.292967	city	9	1	1.224130	1.224130	0	1	0	0	CorrectCommission	1.468024	0.767358	0	0	9.764706e+01
247.824921	1.306312	city	4	1	1.275146	1.275146	0	1	0	0	CorrectCommission	1.055131	0.733957	0	0	9.770588e+01
249.151199	1.346229	city	5	1	1.267366	1.267366	0	1	0	0	CorrectCommission	1.118094	0.700739	1	0	9.776471e+01
250.464111	1.279601	city	10	1	1.363607	1.363607	0	1	0	0	CorrectCommission	0.339179	0.668734	1	0	9.782353e+01
251.750351	1.292891	city	3	1	1.424360	1.424360	0	1	0	0	CorrectCommission	0.152511	0.639099	1	0	9.788235e+01
253.043259	1.292915	city	4	1	1.502015	1.502015	0	1	0	0	CorrectCommission	0.781005	0.612993	1	0	9.794118e+01
254.369492	1.359562	city	1	1	1.393062	1.393062	0	1	0	0	CorrectCommission	0.100790	0.591447	1	0	98
255.702377	1.306212	city	4	1	1.363383	1.363383	0	1	0	0	CorrectCommission	0.340993	0.575284	1	0	9.805882e+01
256.995300	1.279628	mountain	1	0	0.000000	1.326982	1	0	0	0	CorrectOmission	0.635599	0.564984	1	0	9.811765e+01
258.274811	1.279395	city	1	1	1.313416	1.313416	0	1	0	0	CorrectCommission	0.745400	0.560637	1	0	9.817647e+01
259.560974	1.292947	city	9	1	1.352239	1.352239	0	1	0	0	CorrectCommission	0.431185	0.561931	1	0	9.823529e+01
260.867310	1.319700	city	2	1	1.390199	1.390199	0	1	0	0	CorrectCommission	0.123962	0.568197	1	0	9.829412e+01
262.166870	1.279431	city	10	1	1.391074	1.391074	0	1	0	0	CorrectCommission	0.116884	0.578453	1	0	9.835294e+01
263.446442	1.279719	city	4	1	1.620584	1.620584	0	1	0	0	CorrectCommission	1.740624	0.591514	1	0	9.841176e+01
264.726074	1.279556	city	5	1	1.424892	1.424892	0	1	0	0	CorrectCommission	0.156821	0.606059	1	0	9.847059e+01
266.012329	1.292918	city	7	1	1.433523	1.433523	0	1	0	0	CorrectCommission	0.226670	0.620906	1	0	9.852941e+01
267.351807	1.386032	city	8	1	1.344646	1.344646	0	1	0	0	CorrectCommission	0.492637	0.635011	1	0	9.858824e+01
268.691315	1.293019	city	10	1	1.261131	1.261131	0	1	0	0	CorrectCommission	1.168559	0.647612	1	0	9.864706e+01
269.990997	1.306343	city	2	1	1.210721	1.210721	0	1	0	0	CorrectCommission	1.576546	0.658299	1	0	9.870588e+01
271.283936	1.279546	city	7	1	1.365677	1.365677	0	1	0	0	CorrectCommission	0.322429	0.667025	1	0	9.876471e+01
272.570099	1.292728	city	8	1	1.349859	1.349859	0	1	0	0	CorrectCommission	0.450454	0.674106	1	0	9.882353e+01
273.876312	1.319737	city	10	1	1.354411	1.354411	0	1	0	0	CorrectCommission	0.413610	0.680060	1	0	9.888235e+01
275.189270	1.306147	city	1	1	1.327976	1.327976	0	1	0	0	CorrectCommission	0.627560	0.685523	1	0	9.894118e+01
278.608093	5.531542	break	0	0	0.000000	1.457835	0	0	0	0	ThoughtProbe	0.423436	0.691105	1	99	99
282.020355	1.292963	city	2	1	1.575686	1.575686	0	1	0	0	CorrectCommission	1.377253	0.697273	1	0	9.890000e+01
283.306610	1.279533	city	7	1	1.513230	1.513230	0	1	0	0	CorrectCommission	0.871768	0.704204	1	0	9.880000e+01
284.592804	1.292876	city	1	1	1.350620	1.350620	0	1	0	0	CorrectCommission	0.444292	0.711756	1	0	9.870000e+01
285.878998	1.279529	city	5	1	1.351112	1.351112	0	1	0	0	CorrectCommission	0.440308	0.719371	1	0	9.860000e+01
287.158569	1.279615	city	2	1	1.354471	1.354471	0	1	0	0	CorrectCommission	0.413123	0.726158	0	0	9.850000e+01
288.444885	1.292966	mountain	4	0	0.000000	1.443489	1	0	0	0	CorrectOmission	0.307332	0.730967	0	0	9.840000e+01
289.737823	1.292955	city	4	1	1.539622	1.539622	0	1	0	0	CorrectCommission	1.085369	0.732521	0	0	9.830000e+01
291.030762	1.292906	mountain	6	0	0.000000	1.564325	1	0	0	0	CorrectOmission	1.285304	0.729675	0	0	9.820000e+01
292.316986	1.279553	city	5	1	1.532640	1.532640	0	1	0	0	CorrectCommission	1.028860	0.721659	0	0	9.810000e+01
293.603241	1.292931	city	10	1	1.459605	1.459605	0	1	0	0	CorrectCommission	0.437764	0.708308	1	0	98
294.889435	1.279478	city	6	1	1.623506	1.623506	0	1	0	0	CorrectCommission	1.764270	0.690211	1	0	9.790000e+01
296.175690	1.293000	city	1	1	1.533476	1.533476	0	1	0	0	CorrectCommission	1.035627	0.668639	1	0	9.780000e+01
297.481842	1.319319	city	8	1	1.395029	1.395029	0	1	0	0	CorrectCommission	0.084872	0.645578	1	0	9.770000e+01
298.781342	1.279692	city	6	1	1.386222	1.386222	0	1	0	0	CorrectCommission	0.156155	0.623438	1	0	9.760000e+01
300.074310	1.306270	city	10	1	1.383315	1.383315	0	1	0	0	CorrectCommission	0.179679	0.604757	1	0	9.750000e+01
301.367310	1.279710	city	4	1	1.510223	1.510223	0	1	0	0	CorrectCommission	0.847437	0.591867	1	0	9.740000e+01
302.646942	1.279518	city	10	1	1.458452	1.458452	0	1	0	0	CorrectCommission	0.428434	0.586542	1	0	9.730000e+01
303.946472	1.319587	city	3	1	1.500719	1.500719	0	1	0	0	CorrectCommission	0.770515	0.589806	1	0	9.720000e+01
305.246094	1.279614	city	10	1	1.405875	1.405875	0	1	0	0	CorrectCommission	0.002910	0.601684	1	0	9.710000e+01
306.539001	1.306210	city	8	1	1.431438	1.431438	0	1	0	0	CorrectCommission	0.209800	0.621199	1	0	97
307.831848	1.279478	city	10	1	1.413384	1.413384	0	1	0	0	CorrectCommission	0.063682	0.646439	1	0	9.690000e+01
309.111359	1.279542	city	9	1	1.355720	1.355720	0	1	0	0	CorrectCommission	0.403014	0.674835	1	0	9.680000e+01
310.397552	1.292886	city	8	1	1.432581	1.432581	0	1	0	0	CorrectCommission	0.219052	0.703405	1	0	9.670000e+01
311.690552	1.293067	mountain	8	0	0.000000	1.651141	1	0	0	0	CorrectOmission	1.987934	0.729276	0	0	9.660000e+01
312.976868	1.279564	city	4	1	1.739497	1.739497	0	1	0	0	CorrectCommission	2.703030	0.750042	0	0	9.650000e+01
314.263092	1.292940	city	3	1	1.425747	1.425747	0	1	0	0	CorrectCommission	0.163741	0.764168	0	0	9.640000e+01
315.556091	1.293003	city	10	1	1.301939	1.301939	0	1	0	0	CorrectCommission	0.838288	0.771214	0	0	9.630000e+01
316.855652	1.306132	city	2	1	1.366703	1.366703	0	1	0	0	CorrectCommission	0.314125	0.771818	0	0	9.620000e+01
318.161774	1.306143	city	6	1	1.324537	1.324537	0	1	0	0	CorrectCommission	0.655394	0.767656	0	0	9.610000e+01
319.461304	1.292925	city	10	1	1.252590	1.252590	0	1	0	0	CorrectCommission	1.237687	0.761124	0	0	96
320.760864	1.306182	city	8	1	1.284236	1.284236	0	1	0	0	CorrectCommission	0.981564	0.755036	0	0	9.590000e+01
322.053802	1.279712	city	10	1	1.343161	1.343161	0	1	0	0	CorrectCommission	0.504662	0.752253	0	0	9.580000e+01
323.386719	1.386077	city	6	1	1.394511	1.394511	0	1	0	0	CorrectCommission	0.089065	0.755241	0	0	9.570000e+01
324.752930	1.346358	city	3	1	1.285405	1.285405	0	1	0	0	CorrectCommission	0.972099	0.765733	0	0	9.560000e+01
326.065887	1.279590	city	6	1	1.303584	1.303584	0	1	0	0	CorrectCommission	0.824970	0.784427	0	0	9.550000e+01
327.345428	1.279443	city	7	1	1.421696	1.421696	0	1	0	0	CorrectCommission	0.130951	0.810850	0	0	9.540000e+01
328.631653	1.293052	city	9	1	1.415062	1.415062	0	1	0	0	CorrectCommission	0.077262	0.843366	0	0	9.530000e+01
329.924622	1.292869	city	2	1	1.408347	1.408347	0	1	0	0	CorrectCommission	0.022914	0.879280	0	0	9.520000e+01
331.224121	1.306144	city	6	1	1.462790	1.462790	0	1	0	0	CorrectCommission	0.463545	0.915229	0	0	9.510000e+01
334.509644	5.264903	break	0	0	0.000000	1.123770	0	0	0	0	ThoughtProbe	2.280270	0.947576	0	95	95
337.788574	1.292958	mountain	2	1	0.941186	0.941186	0	0	1	0	CommissionError	3.757986	0.972879	0	0	9.494118e+01
339.074860	1.279575	city	6	1	1.464940	1.464940	0	1	0	0	CorrectCommission	0.480940	0.988324	0	0	9.488235e+01
340.354492	1.279690	city	8	1	1.433783	1.433783	0	1	0	0	CorrectCommission	0.228775	0.992126	0	0	9.482353e+01
341.647430	1.306204	city	5	1	1.531916	1.531916	0	1	0	0	CorrectCommission	1.023003	0.983562	0	0	9.476471e+01
342.973663	1.346255	city	4	1	1.606547	1.606547	0	1	0	0	CorrectCommission	1.627015	0.963013	0	0	9.470588e+01
344.299896	1.306215	city	10	1	1.438101	1.438101	0	1	0	0	CorrectCommission	0.263722	0.931881	0	0	9.464706e+01
345.606140	1.306291	city	5	1	1.565404	1.565404	0	1	0	0	CorrectCommission	1.294032	0.892429	0	0	9.458824e+01
346.905670	1.292753	city	4	1	1.638498	1.638498	0	1	0	0	CorrectCommission	1.885609	0.847501	0	0	9.452941e+01
348.218475	1.332851	city	9	1	1.474787	1.474787	0	1	0	0	CorrectCommission	0.560640	0.800255	0	0	9.447059e+01
349.551331	1.332885	city	7	1	1.444970	1.444970	0	1	0	0	CorrectCommission	0.319321	0.753938	0	0	9.441176e+01
350.877625	1.319680	city	5	1	1.471655	1.471655	0	1	0	0	CorrectCommission	0.535286	0.711577	1	0	9.435294e+01
352.190582	1.306210	city	1	1	1.449840	1.449840	0	1	0	0	CorrectCommission	0.358730	0.675755	1	0	9.429412e+01
353.490173	1.292995	city	4	1	1.456713	1.456713	0	1	0	0	CorrectCommission	0.414361	0.648451	1	0	9.423529e+01
354.789795	1.306233	city	9	1	1.364561	1.364561	0	1	0	0	CorrectCommission	0.331461	0.630912	1	0	9.417647e+01
356.082642	1.279470	city	3	1	1.421753	1.421753	0	1	0	0	CorrectCommission	0.131414	0.623675	1	0	9.411765e+01
357.375458	1.306180	city	7	1	1.517108	1.517108	0	1	0	0	CorrectCommission	0.903155	0.626602	1	0	9.405882e+01
358.681702	1.306291	city	2	1	1.391757	1.391757	0	1	0	0	CorrectCommission	0.111352	0.639003	1	0	94
359.994629	1.319595	city	6	1	1.324510	1.324510	0	1	0	0	CorrectCommission	0.655610	0.659840	1	0	9.394118e+01
361.360901	1.412943	city	10	1	1.284180	1.284180	0	1	0	0	CorrectCommission	0.982017	0.687830	1	0	9.388235e+01
362.707092	1.279422	city	4	1	1.314650	1.314650	0	1	0	0	CorrectCommission	0.735413	0.721610	0	0	9.382353e+01
364.006592	1.319560	city	8	1	1.302122	1.302122	0	1	0	0	CorrectCommission	0.836800	0.759833	0	0	9.376471e+01
365.306213	1.279716	mountain	9	0	0.000000	1.475041	1	0	0	0	CorrectOmission	0.562695	0.801153	0	0	9.370588e+01
366.599182	1.306204	city	8	1	1.592969	1.592969	0	1	0	0	CorrectCommission	1.517129	0.844174	0	0	9.364706e+01
367.905426	1.306298	city	10	1	1.415470	1.415470	0	1	0	0	CorrectCommission	0.080561	0.887458	0	0	9.358824e+01
369.211700	1.306256	city	9	1	1.323721	1.323721	0	1	0	0	CorrectCommission	0.661996	0.929464	0	0	9.352941e+01
370.524536	1.319428	city	4	1	1.275560	1.275560	0	1	0	0	CorrectCommission	1.051778	0.968457	0	0	9.347059e+01
371.837372	1.306187	city	5	1	1.268103	1.268103	0	1	0	0	CorrectCommission	1.112131	1.002611	0	0	9.341176e+01
373.170349	1.359774	city	7	1	1.262418	1.262418	0	1	0	0	CorrectCommission	1.158140	1.030152	0	0	9.335294e+01
374.503235	1.306017	city	3	1	1.283448	1.283448	0	1	0	0	CorrectCommission	0.987939	1.049523	0	0	9.329412e+01
375.816040	1.319571	city	6	1	1.199539	1.199539	0	1	0	0	CorrectCommission	1.667041	1.059625	0	0	9.323529e+01
377.135681	1.319722	city	8	1	1.145025	1.145025	0	1	0	0	CorrectCommission	2.108245	1.059995	0	0	9.317647e+01
378.448669	1.306247	city	7	1	1.200141	1.200141	0	1	0	0	CorrectCommission	1.662169	1.050993	0	0	9.311765e+01
379.748260	1.292940	city	4	1	1.412838	1.412838	0	1	0	0	CorrectCommission	0.059260	1.033902	0	0	9.305882e+01
383.507019	6.224606	break	0	0	0.000000	1.508001	0	0	0	0	ThoughtProbe	0.829454	1.010918	0	93	93
387.259033	1.279393	city	9	1	1.550083	1.550083	0	1	0	0	CorrectCommission	1.170033	0.984992	0	0	9.315217e+01
388.538513	1.279604	city	4	1	1.603532	1.603532	0	1	0	0	CorrectCommission	1.602616	0.959687	0	0	9.330435e+01
389.818115	1.279561	city	3	1	1.496906	1.496906	0	1	0	0	CorrectCommission	0.739657	0.938904	0	0	9.345652e+01
391.097778	1.279760	city	5	1	1.442021	1.442021	0	1	0	0	CorrectCommission	0.295449	0.926562	0	0	9.360870e+01
392.377380	1.279489	city	3	1	1.444508	1.444508	0	1	0	0	CorrectCommission	0.315582	0.926198	0	0	9.376087e+01
393.656891	1.279529	mountain	9	0	0.000000	1.531541	1	0	0	0	CorrectOmission	1.019968	0.940543	0	0	9.391304e+01
394.936432	1.279555	city	6	1	1.569905	1.569905	0	1	0	0	CorrectCommission	1.330462	0.971103	0	0	9.406522e+01
396.216064	1.279702	mountain	2	0	0.000000	1.426387	1	0	0	0	CorrectOmission	0.168919	1.017837	0	0	9.421739e+01
397.495728	1.279620	city	2	1	1.305529	1.305529	0	1	0	0	CorrectCommission	0.809230	1.078923	0	0	9.436957e+01
398.775269	1.279443	city	4	1	1.411873	1.411873	0	1	0	0	CorrectCommission	0.051448	1.150635	0	0	9.452174e+01
400.054749	1.279548	city	5	1	1.356329	1.356329	0	1	0	0	CorrectCommission	0.398088	1.227563	0	0	9.467391e+01
401.334320	1.279582	city	10	1	1.250723	1.250723	0	1	0	0	CorrectCommission	1.252794	1.303028	0	0	9.482609e+01
402.613983	1.279724	city	5	1	1.252693	1.252693	0	1	0	0	CorrectCommission	1.236850	1.369757	0	0	9.497826e+01
403.893585	1.279479	city	1	1	1.129984	1.129984	0	1	0	0	CorrectCommission	2.229981	1.420757	0	0	9.513043e+01
405.173126	1.279627	city	9	1	0.932645	0.932645	0	1	0	0	CorrectCommission	3.827116	1.450212	0	0	9.528261e+01
406.452759	1.279650	city	3	1	1.093685	1.093685	0	1	0	0	CorrectCommission	2.523758	1.454248	0	0	9.543478e+01
407.732361	1.279567	city	2	1	1.123512	1.123512	0	1	0	0	CorrectCommission	2.282362	1.431567	0	0	9.558696e+01
409.011932	1.279573	city	9	1	1.123916	1.123916	0	1	0	0	CorrectCommission	2.279092	1.383562	0	0	9.573913e+01
410.291443	1.279416	city	1	1	1.230503	1.230503	0	1	0	0	CorrectCommission	1.416441	1.314142	0	0	9.589130e+01
411.570953	1.279584	city	3	1	1.281596	1.281596	0	1	0	0	CorrectCommission	1.002924	1.229196	0	0	9.604348e+01
412.850616	1.279753	mountain	6	0	0.000000	1.342084	1	0	0	0	CorrectOmission	0.513379	1.135812	0	0	9.619565e+01
414.130219	1.279452	city	10	1	1.367234	1.367234	0	1	0	0	CorrectCommission	0.309826	1.041358	0	0	9.634783e+01
415.409790	1.279721	city	6	1	1.312318	1.312318	0	1	0	0	CorrectCommission	0.754286	0.952611	0	0	9.650000e+01
416.689362	1.279414	city	10	1	1.334574	1.334574	0	1	0	0	CorrectCommission	0.574160	0.875041	0	0	9.665217e+01
417.968842	1.279562	city	6	1	1.362796	1.362796	0	1	0	0	CorrectCommission	0.345743	0.812353	0	0	9.680435e+01
419.248505	1.279745	city	3	1	1.388195	1.388195	0	1	0	0	CorrectCommission	0.140185	0.766276	0	0	9.695652e+01
420.528015	1.279252	city	10	1	1.370543	1.370543	0	1	0	0	CorrectCommission	0.283046	0.736606	0	0	9.710870e+01
421.807587	1.279884	mountain	2	0	0.000000	1.466475	1	0	0	0	CorrectOmission	0.493366	0.721477	1	0	9.726087e+01
423.087219	1.279436	city	4	1	1.497207	1.497207	0	1	0	0	CorrectCommission	0.742091	0.717803	1	0	9.741304e+01
424.366791	1.279683	city	6	1	1.283955	1.283955	0	1	0	0	CorrectCommission	0.983837	0.721832	0	0	9.756522e+01
425.659698	1.306109	city	7	1	1.310821	1.310821	0	1	0	0	CorrectCommission	0.766397	0.729680	0	0	9.771739e+01
426.972534	1.319595	city	6	1	1.294051	1.294051	0	1	0	0	CorrectCommission	0.902123	0.737870	0	0	9.786957e+01
428.365326	1.465977	city	7	1	1.322938	1.322938	0	1	0	0	CorrectCommission	0.668332	0.743700	0	0	9.802174e+01
429.771515	1.346421	city	2	1	1.190467	1.190467	0	1	0	0	CorrectCommission	1.740467	0.745488	0	0	9.817391e+01
431.104523	1.319575	city	8	1	1.285631	1.285631	0	1	0	0	CorrectCommission	0.970272	0.742642	0	0	9.832609e+01
432.410858	1.293087	city	4	1	1.365406	1.365406	0	1	0	0	CorrectCommission	0.324625	0.735640	0	0	9.847826e+01
433.703796	1.292776	city	7	1	1.514844	1.514844	0	1	0	0	CorrectCommission	0.884832	0.725725	0	0	9.863043e+01
434.996674	1.293024	city	2	1	1.540475	1.540475	0	1	0	0	CorrectCommission	1.092277	0.714605	1	0	9.878261e+01
436.322845	1.359319	city	7	1	1.444556	1.444556	0	1	0	0	CorrectCommission	0.315968	0.704084	1	0	9.893478e+01
437.655762	1.306482	city	10	1	1.417273	1.417273	0	1	0	0	CorrectCommission	0.095155	0.695697	1	0	9.908696e+01
438.968689	1.319371	city	2	1	1.483656	1.483656	0	1	0	0	CorrectCommission	0.632414	0.690394	1	0	9.923913e+01
440.321564	1.386372	city	8	1	1.459668	1.459668	0	1	0	0	CorrectCommission	0.438275	0.688331	1	0	9.939130e+01
441.701111	1.372723	city	7	1	1.495694	1.495694	0	1	0	0	CorrectCommission	0.729846	0.688855	1	0	9.954348e+01
443.127319	1.479723	city	9	1	1.438889	1.438889	0	1	0	0	CorrectCommission	0.270102	0.690585	1	0	9.969565e+01
444.546844	1.359340	city	8	1	1.468667	1.468667	0	1	0	0	CorrectCommission	0.511106	0.691642	1	0	9.984783e+01
448.072296	5.691533	break	0	0	0.000000	1.531603	0	0	0	0	ThoughtProbe	1.020474	0.689949	1	100	100
451.557892	1.279636	city	3	1	1.583835	1.583835	0	1	0	0	CorrectCommission	1.443203	0.683582	1	0	9.987500e+01
452.844116	1.292856	city	9	1	1.581498	1.581498	0	1	0	0	CorrectCommission	1.424290	0.671087	1	0	9.975000e+01
454.130402	1.279676	mountain	7	0	0.000000	1.471619	1	0	0	0	CorrectOmission	0.535000	0.651703	1	0	9.962500e+01
455.410004	1.279557	city	1	1	1.346244	1.346244	0	1	0	0	CorrectCommission	0.479711	0.625481	1	0	9.950000e+01
456.689606	1.279627	city	9	1	1.297417	1.297417	0	1	0	0	CorrectCommission	0.874885	0.593210	1	0	9.937500e+01
457.969208	1.279561	city	1	1	1.299442	1.299442	0	1	0	0	CorrectCommission	0.858489	0.556285	1	0	9.925000e+01
459.248749	1.279559	city	5	1	1.408349	1.408349	0	1	0	0	CorrectCommission	0.022928	0.516514	1	0	9.912500e+01
460.528259	1.279459	city	9	1	1.407574	1.407574	0	1	0	0	CorrectCommission	0.016656	0.475866	1	0	99
461.807800	1.279588	city	7	1	1.501878	1.501878	0	1	0	0	CorrectCommission	0.779897	0.436224	1	0	9.887500e+01
463.087433	1.279689	city	10	1	1.354897	1.354897	0	1	0	0	CorrectCommission	0.409675	0.399192	1	0	9.875000e+01
464.367035	1.279513	city	1	1	1.424452	1.424452	0	1	0	0	CorrectCommission	0.153262	0.366027	1	0	9.862500e+01
465.659912	1.306241	mountain	1	0	0.000000	1.427478	1	0	0	0	CorrectOmission	0.177752	0.337589	1	0	9.850000e+01
466.952850	1.279668	city	8	1	1.417397	1.417397	0	1	0	0	CorrectCommission	0.096160	0.314368	1	0	9.837500e+01
468.232391	1.279390	city	4	1	1.447631	1.447631	0	1	0	0	CorrectCommission	0.340851	0.296602	1	0	9.825000e+01
469.511902	1.279670	city	9	1	1.394137	1.394137	0	1	0	0	CorrectCommission	0.092094	0.284393	1	0	9.812500e+01
470.791504	1.279528	city	3	1	1.404994	1.404994	0	1	0	0	CorrectCommission	0.004224	0.277842	1	0	98
472.071045	1.279556	city	8	1	1.505531	1.505531	0	1	0	0	CorrectCommission	0.809463	0.277109	1	0	9.787500e+01
473.350647	1.279637	city	2	1	1.461648	1.461648	0	1	0	0	CorrectCommission	0.454300	0.282477	1	0	9.775000e+01
474.630310	1.279661	city	8	1	1.395437	1.395437	0	1	0	0	CorrectCommission	0.081569	0.294322	1	0	9.762500e+01
475.909851	1.279434	city	5	1	1.396228	1.396228	0	1	0	0	CorrectCommission	0.075173	0.313013	1	0	9.750000e+01
477.189453	1.279756	city	3	1	1.399470	1.399470	0	1	0	0	CorrectCommission	0.048928	0.338783	1	0	9.737500e+01
478.469116	1.279603	city	2	1	1.390253	1.390253	0	1	0	0	CorrectCommission	0.123525	0.371587	1	0	9.725000e+01
479.748627	1.279383	city	9	1	1.476084	1.476084	0	1	0	0	CorrectCommission	0.571132	0.410974	1	0	9.712500e+01
481.074799	1.372981	city	6	1	1.396849	1.396849	0	1	0	0	CorrectCommission	0.070141	0.455992	1	0	97
482.421021	1.319474	mountain	3	0	0.000000	1.405163	1	0	0	0	CorrectOmission	0.002852	0.505228	1	0	9.687500e+01
483.733948	1.306335	city	1	1	1.445808	1.445808	0	1	0	0	CorrectCommission	0.326101	0.556764	1	0	9.675000e+01
485.026886	1.279588	city	6	1	1.463566	1.463566	0	1	0	0	CorrectCommission	0.469823	0.608238	1	0	9.662500e+01
486.319824	1.306287	city	3	1	1.559940	1.559940	0	1	0	0	CorrectCommission	1.249808	0.656935	1	0	9.650000e+01
487.626007	1.306058	city	2	1	1.658837	1.658837	0	1	0	0	CorrectCommission	2.050222	0.699863	1	0	9.637500e+01
488.958832	1.359597	city	5	1	1.586529	1.586529	0	1	0	0	CorrectCommission	1.465005	0.733799	0	0	9.625000e+01
490.305145	1.333009	city	6	1	1.444451	1.444451	0	1	0	0	CorrectCommission	0.315119	0.755341	0	0	9.612500e+01
491.618103	1.292919	city	3	1	1.403699	1.403699	0	1	0	0	CorrectCommission	0.014702	0.761015	0	0	96
492.917603	1.306087	city	2	1	1.356321	1.356321	0	1	0	0	CorrectCommission	0.398154	0.747440	0	0	9.587500e+01
494.277161	1.413006	city	7	1	1.341280	1.341280	0	1	0	0	CorrectCommission	0.519883	0.711639	1	0	9.575000e+01
495.623444	1.279602	city	8	1	1.474896	1.474896	0	1	0	0	CorrectCommission	0.561517	0.651502	1	0	9.562500e+01
496.916382	1.306231	city	5	1	1.550215	1.550215	0	1	0	0	CorrectCommission	1.171100	0.566305	1	0	9.550000e+01
498.222565	1.306158	city	9	1	1.785611	1.785611	0	1	0	0	CorrectCommission	3.076247	0.457181	1	0	9.537500e+01
499.555359	1.359448	city	2	1	1.729895	1.729895	0	1	0	0	CorrectCommission	2.625320	0.327390	1	0	9.525000e+01
500.901642	1.333085	city	5	1	1.565901	1.565901	0	1	0	0	CorrectCommission	1.298055	0.182351	1	0	9.512500e+01
504.527191	5.918002	break	0	0	0.000000	1.401907	0	0	0	0	ThoughtProbe	0.029210	0.029210	1	95	95
