onset	duration	trial_type	image_type	Press	ReactionTime	ReactionTime_Interpolated	CorrectOmission	CorrectCommission	CommissionError	OmissionError	response_type	nonsmoothVarianceTimeCourse	VarianceTimeCourse	In_the_Zone	ThoughtProbe	ThoughtProbe_Interpolated
0.653159	1.279600	city	10	1	1.186052	1.186052	0	1	0	0	CorrectCommission	0.077233	0.077233	1	0	29
1.932707	1.279495	mountain	2	0	0.000000	1.201599	1	0	0	0	CorrectOmission	0.132158	0.221433	1	0	29
3.212275	1.279640	city	8	1	1.283983	1.283983	0	1	0	0	CorrectCommission	0.423209	0.363353	1	0	29
4.491885	1.279579	city	3	1	1.500042	1.500042	0	1	0	0	CorrectCommission	1.186510	0.500644	1	0	29
5.771305	1.279260	city	8	1	1.657901	1.657901	0	1	0	0	CorrectCommission	1.744203	0.630847	1	0	29
7.064175	1.306480	city	4	1	1.222389	1.222389	0	1	0	0	CorrectCommission	0.205608	0.751370	1	0	29
8.357239	1.279648	mountain	8	0	0.000000	1.239075	1	0	0	0	CorrectOmission	0.264555	0.859540	0	0	29
9.643429	1.292732	city	2	1	1.272364	1.272364	0	1	0	0	CorrectCommission	0.382160	0.952638	0	0	29
10.929599	1.279609	city	7	1	0.886662	0.886662	0	1	0	0	CorrectCommission	0.980463	1.028129	0	0	29
12.209231	1.279656	city	5	1	0.535741	0.535741	0	1	0	0	CorrectCommission	2.220214	1.083976	0	0	29
13.488864	1.279610	city	3	1	1.661630	1.661630	0	1	0	0	CorrectCommission	1.757378	1.118962	0	0	29
14.768488	1.279639	city	4	1	1.833508	1.833508	0	1	0	0	CorrectCommission	2.364596	1.133018	0	0	29
16.048069	1.279521	city	1	1	1.874192	1.874192	0	1	0	0	CorrectCommission	2.508326	1.127380	0	0	29
17.327644	1.279631	city	3	0	0.000000	1.576468	0	0	0	1	OmissionError	1.456513	1.104648	0	0	29
18.607222	1.279522	mountain	3	0	0.000000	1.176672	1	0	0	0	CorrectOmission	0.044096	1.068629	0	0	29
19.886797	1.279629	city	2	1	0.911141	0.911141	0	1	0	0	CorrectCommission	0.893985	1.023981	0	0	29
21.166384	1.279546	city	5	1	1.016211	1.016211	0	1	0	0	CorrectCommission	0.522788	0.975741	0	0	29
22.445871	1.279428	city	2	1	0.924042	0.924042	0	1	0	0	CorrectCommission	0.848408	0.928909	0	0	29
23.725403	1.279634	city	10	1	0.817411	0.817411	0	1	0	0	CorrectCommission	1.225116	0.888008	0	0	29
25.005072	1.279704	city	6	1	1.192744	1.192744	0	1	0	0	CorrectCommission	0.100875	0.856767	0	0	29
26.284710	1.279573	city	5	1	1.074338	1.074338	0	1	0	0	CorrectCommission	0.317434	0.837914	0	0	29
27.564228	1.279464	city	3	1	1.023212	1.023212	0	1	0	0	CorrectCommission	0.498056	0.833055	0	0	29
28.843807	1.279694	city	7	1	0.975351	0.975351	0	1	0	0	CorrectCommission	0.667139	0.842702	0	0	29
30.123459	1.279608	city	6	1	1.017675	1.017675	0	1	0	0	CorrectCommission	0.517617	0.866314	0	0	29
31.403027	1.279529	city	9	1	0.763854	0.763854	0	1	0	0	CorrectCommission	1.414327	0.902376	0	0	29
32.682598	1.279611	city	1	1	0.750798	0.750798	0	1	0	0	CorrectCommission	1.460452	0.948468	0	0	29
33.968853	1.292903	city	9	1	1.053362	1.053362	0	1	0	0	CorrectCommission	0.391539	1.001379	0	0	29
35.268349	1.306090	city	1	1	1.052894	1.052894	0	1	0	0	CorrectCommission	0.393192	1.057276	0	0	29
36.581249	1.319706	city	8	1	0.926111	0.926111	0	1	0	0	CorrectCommission	0.841097	1.111810	0	0	29
37.900810	1.319422	city	9	1	0.862722	0.862722	0	1	0	0	CorrectCommission	1.065041	1.160464	0	0	29
39.200382	1.279720	city	2	1	0.913758	0.913758	0	1	0	0	CorrectCommission	0.884740	1.198954	0	0	29
40.486691	1.292897	city	6	1	1.741418	1.741418	0	1	0	0	CorrectCommission	2.039256	1.223747	0	0	29
41.772923	1.279566	city	7	1	1.741576	1.741576	0	1	0	0	CorrectCommission	2.039814	1.232571	0	0	29
43.072495	1.319583	city	9	1	1.959274	1.959274	0	1	0	0	CorrectCommission	2.808905	1.224883	0	0	29
44.391991	1.319406	city	2	1	1.803795	1.803795	0	1	0	0	CorrectCommission	2.259625	1.202049	0	0	29
45.691570	1.279753	mountain	8	0	0.000000	1.616657	1	0	0	0	CorrectOmission	1.598492	1.167327	0	0	29
46.977848	1.292801	city	7	1	1.408548	1.408548	0	1	0	0	CorrectCommission	0.863279	1.125452	0	0	29
48.270760	1.293026	city	8	1	1.190162	1.190162	0	1	0	0	CorrectCommission	0.091755	1.081925	0	0	29
49.556976	1.279406	city	10	1	0.915742	0.915742	0	1	0	0	CorrectCommission	0.877728	1.042199	0	0	29
50.843216	1.293072	city	4	1	1.090982	1.090982	0	1	0	0	CorrectCommission	0.258633	1.010739	0	0	29
52.129391	1.279280	city	6	1	1.153500	1.153500	0	1	0	0	CorrectCommission	0.037769	0.990379	0	0	29
53.415546	1.293028	city	9	1	0.993453	0.993453	0	1	0	0	CorrectCommission	0.603189	0.981839	0	0	29
54.715214	1.306309	city	10	1	1.060126	1.060126	0	1	0	0	CorrectCommission	0.367643	0.983662	0	0	29
56.021526	1.306314	city	4	1	1.115342	1.115342	0	1	0	0	CorrectCommission	0.172573	0.992518	0	0	29
57.314465	1.279564	city	3	1	0.860480	0.860480	0	1	0	0	CorrectCommission	1.072960	1.003847	0	0	29
61.126518	6.344549	break	0	1	0.625782	0.625782	0	0	0	0	ThoughtProbe	1.902113	1.012710	0	29	29
64.938606	1.279622	city	8	1	1.887402	1.887402	0	1	0	0	CorrectCommission	2.554994	1.014689	0	0	3.021739e+01
66.218216	1.279596	city	7	1	1.630725	1.630725	0	1	0	0	CorrectCommission	1.648195	1.006669	0	0	3.143478e+01
67.504425	1.292827	city	8	1	1.794404	1.794404	0	1	0	0	CorrectCommission	2.226447	0.987387	0	0	3.265217e+01
68.790665	1.279644	city	1	1	1.461323	1.461323	0	1	0	0	CorrectCommission	1.049723	0.957484	0	0	3.386957e+01
70.076889	1.292817	city	9	1	1.385041	1.385041	0	1	0	0	CorrectCommission	0.780232	0.919372	0	0	3.508696e+01
71.369812	1.293030	city	7	1	1.107378	1.107378	0	1	0	0	CorrectCommission	0.200708	0.876661	0	0	3.630435e+01
72.656113	1.279570	mountain	6	0	0.000000	1.111137	1	0	0	0	CorrectOmission	0.187428	0.833542	0	0	3.752174e+01
73.948936	1.306078	city	5	1	1.224245	1.224245	0	1	0	0	CorrectCommission	0.212165	0.794035	1	0	3.873913e+01
75.248428	1.292896	mountain	10	1	1.274630	1.274630	0	0	1	0	CommissionError	0.390165	0.761427	1	0	3.995652e+01
76.534760	1.279766	mountain	4	0	0.000000	1.308076	1	0	0	0	CorrectOmission	0.508325	0.737866	1	0	4.117391e+01
77.814339	1.279400	city	3	1	1.366389	1.366389	0	1	0	0	CorrectCommission	0.714337	0.724220	1	0	4.239130e+01
79.100571	1.293066	city	5	1	1.491375	1.491375	0	1	0	0	CorrectCommission	1.155892	0.720151	1	0	4.360870e+01
80.406815	1.319421	city	2	1	1.154957	1.154957	0	1	0	0	CorrectCommission	0.032620	0.724330	1	0	4.482609e+01
81.706322	1.279595	city	4	1	1.406401	1.406401	0	1	0	0	CorrectCommission	0.855691	0.734791	1	0	4.604348e+01
82.985985	1.279721	city	2	1	1.018318	1.018318	0	1	0	0	CorrectCommission	0.515343	0.749198	1	0	4.726087e+01
84.265640	1.279591	city	8	1	1.662003	1.662003	0	1	0	0	CorrectCommission	1.758694	0.765238	1	0	4.847826e+01
85.558533	1.306199	city	6	1	1.436285	1.436285	0	1	0	0	CorrectCommission	0.961269	0.780824	1	0	4.969565e+01
86.851433	1.279598	city	3	1	1.207626	1.207626	0	1	0	0	CorrectCommission	0.153451	0.794323	1	0	5.091304e+01
88.144348	1.306230	city	7	1	1.048004	1.048004	0	1	0	0	CorrectCommission	0.410468	0.804663	1	0	5.213043e+01
89.437263	1.279598	city	2	1	0.887765	0.887765	0	1	0	0	CorrectCommission	0.976566	0.811345	1	0	5.334783e+01
90.743500	1.332877	city	1	1	0.808862	0.808862	0	1	0	0	CorrectCommission	1.255318	0.814438	1	0	5.456522e+01
92.063011	1.306146	city	8	1	1.666736	1.666736	0	1	0	0	CorrectCommission	1.775414	0.814570	1	0	5.578261e+01
93.362595	1.293022	city	2	1	1.316214	1.316214	0	1	0	0	CorrectCommission	0.537075	0.812813	1	0	57
94.655464	1.292719	city	10	1	1.327891	1.327891	0	1	0	0	CorrectCommission	0.578330	0.810607	1	0	5.821739e+01
95.948303	1.292964	city	5	1	1.112741	1.112741	0	1	0	0	CorrectCommission	0.181761	0.809497	1	0	5.943478e+01
97.241234	1.292891	city	4	1	0.848763	0.848763	0	1	0	0	CorrectCommission	1.114356	0.811003	1	0	6.065217e+01
98.527550	1.279742	city	2	1	1.500305	1.500305	0	1	0	0	CorrectCommission	1.187439	0.816335	1	0	6.186957e+01
99.807198	1.279559	city	3	1	1.330733	1.330733	0	1	0	0	CorrectCommission	0.588370	0.826273	0	0	6.308696e+01
101.113396	1.332836	city	10	1	1.102607	1.102607	0	1	0	0	CorrectCommission	0.217563	0.840965	0	0	6.430435e+01
102.419586	1.279535	city	4	1	1.152831	1.152831	0	1	0	0	CorrectCommission	0.040132	0.859872	0	0	6.552174e+01
103.699181	1.279667	city	5	1	0.927675	0.927675	0	1	0	0	CorrectCommission	0.835571	0.881808	0	0	6.673913e+01
104.985466	1.292898	city	3	1	0.740202	0.740202	0	1	0	0	CorrectCommission	1.497885	0.905042	0	0	6.795652e+01
106.278206	1.292586	city	2	1	0.801055	0.801055	0	1	0	0	CorrectCommission	1.282901	0.927545	0	0	6.917391e+01
107.577782	1.306566	city	4	1	0.860964	0.860964	0	1	0	0	CorrectCommission	1.071251	0.947239	0	0	7.039130e+01
108.877510	1.292892	mountain	5	0	0.000000	0.873702	1	0	0	0	CorrectOmission	1.026251	0.962252	0	0	7.160870e+01
110.163757	1.279593	city	5	1	0.883488	0.883488	0	1	0	0	CorrectCommission	0.991676	0.971137	0	0	7.282609e+01
111.456619	1.306130	city	1	1	0.934544	0.934544	0	1	0	0	CorrectCommission	0.811304	0.973076	0	0	7.404348e+01
112.762810	1.306249	city	5	1	0.642072	0.642072	0	1	0	0	CorrectCommission	1.844562	0.967947	0	0	7.526087e+01
114.055702	1.279539	city	4	1	1.569231	1.569231	0	1	0	0	CorrectCommission	1.430946	0.956289	0	0	7.647826e+01
115.348595	1.306245	city	8	1	1.048678	1.048678	0	1	0	0	CorrectCommission	0.408088	0.939294	0	0	7.769565e+01
116.641502	1.279567	city	1	1	0.940143	0.940143	0	1	0	0	CorrectCommission	0.791525	0.918617	0	0	7.891304e+01
117.921150	1.279734	city	3	1	1.534316	1.534316	0	1	0	0	CorrectCommission	1.307595	0.896133	0	0	8.013043e+01
119.207451	1.292865	city	10	1	1.362277	1.362277	0	1	0	0	CorrectCommission	0.699808	0.873740	0	0	8.134783e+01
120.500305	1.292848	city	1	1	1.059404	1.059404	0	1	0	0	CorrectCommission	0.370195	0.853161	0	0	8.256522e+01
121.793152	1.292841	city	3	1	0.999678	0.999678	0	1	0	0	CorrectCommission	0.581197	0.835776	0	0	8.378261e+01
126.345039	7.810942	break	0	1	1.003648	1.003648	0	0	0	0	ThoughtProbe	0.567172	0.822446	0	85	85
130.890244	1.279454	city	1	1	1.687162	1.687162	0	1	0	0	CorrectCommission	1.847577	0.813487	1	0	8.472500e+01
132.183075	1.306227	city	3	1	1.274396	1.274396	0	1	0	0	CorrectCommission	0.389340	0.808654	1	0	8.445000e+01
133.509369	1.346355	city	9	1	1.131354	1.131354	0	1	0	0	CorrectCommission	0.116006	0.807281	1	0	8.417500e+01
134.822327	1.279563	city	3	1	0.980365	0.980365	0	1	0	0	CorrectCommission	0.649427	0.808357	1	0	8.390000e+01
136.108582	1.292929	city	2	1	1.004896	1.004896	0	1	0	0	CorrectCommission	0.562762	0.810708	1	0	8.362500e+01
137.401474	1.292877	city	5	1	0.774754	0.774754	0	1	0	0	CorrectCommission	1.375819	0.813273	1	0	8.335000e+01
138.701035	1.306231	mountain	9	1	0.703094	0.703094	0	0	1	0	CommissionError	1.628982	0.815268	1	0	8.307500e+01
139.993881	1.279457	city	8	1	1.074107	1.074107	0	1	0	0	CorrectCommission	0.318250	0.816363	1	0	8.280000e+01
141.280136	1.293056	city	2	1	1.000287	1.000287	0	1	0	0	CorrectCommission	0.579046	0.816837	0	0	8.252500e+01
142.566391	1.279445	city	10	1	0.818703	0.818703	0	1	0	0	CorrectCommission	1.220553	0.817492	0	0	8.225000e+01
143.852585	1.292959	mountain	9	1	0.670660	0.670660	0	0	1	0	CommissionError	1.743567	0.819544	0	0	8.197500e+01
145.152206	1.306270	city	7	1	1.253246	1.253246	0	1	0	0	CorrectCommission	0.314618	0.824395	0	0	8.170000e+01
146.451782	1.292881	city	10	1	1.094425	1.094425	0	1	0	0	CorrectCommission	0.246472	0.833365	0	0	8.142500e+01
147.738007	1.279581	city	5	1	1.034344	1.034344	0	1	0	0	CorrectCommission	0.458728	0.847289	0	0	8.115000e+01
149.024307	1.293026	city	4	1	0.954503	0.954503	0	1	0	0	CorrectCommission	0.740792	0.866343	0	0	8.087500e+01
150.323837	1.306032	city	5	1	1.049119	1.049119	0	1	0	0	CorrectCommission	0.406529	0.889912	0	0	8.060000e+01
151.629974	1.306229	city	3	1	1.021718	1.021718	0	1	0	0	CorrectCommission	0.503333	0.916592	0	0	8.032500e+01
152.922958	1.279758	mountain	3	1	0.764025	0.764025	0	0	1	0	CommissionError	1.413723	0.944370	0	0	8.005000e+01
154.209259	1.292831	city	7	1	1.382158	1.382158	0	1	0	0	CorrectCommission	0.770046	0.970945	0	0	7.977500e+01
155.508835	1.306314	city	9	1	0.982958	0.982958	0	1	0	0	CorrectCommission	0.640266	0.994185	0	0	7.950000e+01
156.808365	1.292749	city	6	1	0.504245	0.504245	0	1	0	0	CorrectCommission	2.331484	1.012468	0	0	7.922500e+01
158.094620	1.279755	city	3	1	0.523015	0.523015	0	1	0	0	CorrectCommission	2.265172	1.024912	0	0	7.895000e+01
159.400864	1.332749	city	5	1	0.726339	0.726339	0	1	0	0	CorrectCommission	1.546862	1.031568	0	0	7.867500e+01
160.713699	1.292925	city	4	1	1.169625	1.169625	0	1	0	0	CorrectCommission	0.019199	1.033376	0	0	7.840000e+01
162.013336	1.306346	city	6	1	0.924711	0.924711	0	1	0	0	CorrectCommission	0.846043	1.031891	0	0	7.812500e+01
163.319550	1.306065	city	7	1	1.528522	1.528522	0	1	0	0	CorrectCommission	1.287127	1.028858	0	0	7.785000e+01
164.612366	1.279567	city	9	1	1.177785	1.177785	0	1	0	0	CorrectCommission	0.048029	1.025917	0	0	7.757500e+01
165.891937	1.279599	city	5	1	0.993281	0.993281	0	1	0	0	CorrectCommission	0.603795	1.024298	0	0	7.730000e+01
167.191574	1.319656	city	2	1	0.887060	0.887060	0	1	0	0	CorrectCommission	0.979057	1.024544	0	0	7.702500e+01
168.491165	1.279524	city	9	1	0.804208	0.804208	0	1	0	0	CorrectCommission	1.271761	1.026535	0	0	7.675000e+01
169.770782	1.279708	city	1	1	1.633584	1.633584	0	1	0	0	CorrectCommission	1.658294	1.029548	0	0	7.647500e+01
171.050430	1.279590	city	4	1	1.484362	1.484362	0	1	0	0	CorrectCommission	1.131115	1.032441	0	0	7.620000e+01
172.349976	1.319518	city	2	1	1.128016	1.128016	0	1	0	0	CorrectCommission	0.127799	1.033894	0	0	7.592500e+01
173.649490	1.279503	city	10	1	0.765204	0.765204	0	1	0	0	CorrectCommission	1.409557	1.032660	0	0	7.565000e+01
174.929062	1.279638	city	4	1	1.742551	1.742551	0	1	0	0	CorrectCommission	2.043256	1.027644	0	0	7.537500e+01
176.228683	1.319600	city	9	1	1.509873	1.509873	0	1	0	0	CorrectCommission	1.221243	1.018052	0	0	7.510000e+01
177.534927	1.292908	city	4	1	1.416900	1.416900	0	1	0	0	CorrectCommission	0.892783	1.003452	0	0	7.482500e+01
178.854523	1.346254	city	1	1	1.147537	1.147537	0	1	0	0	CorrectCommission	0.058835	0.983760	0	0	7.455000e+01
180.194061	1.332846	city	9	1	0.890024	0.890024	0	1	0	0	CorrectCommission	0.968587	0.959192	0	0	7.427500e+01
183.872757	6.024544	break	0	1	0.627144	0.627144	0	0	0	0	ThoughtProbe	1.897303	0.930201	0	74	74
187.564896	1.359715	city	10	1	1.063455	1.063455	0	1	0	0	CorrectCommission	0.355881	0.897551	0	0	7.255882e+01
188.884460	1.279431	city	1	1	1.033877	1.033877	0	1	0	0	CorrectCommission	0.460378	0.862398	0	0	7.111765e+01
190.184036	1.319718	mountain	2	1	0.671804	0.671804	0	0	1	0	CommissionError	1.739525	0.826212	0	0	6.967647e+01
191.483688	1.279585	city	1	1	1.568994	1.568994	0	1	0	0	CorrectCommission	1.430108	0.790792	1	0	6.823529e+01
192.783234	1.319515	city	6	1	1.260727	1.260727	0	1	0	0	CorrectCommission	0.341050	0.758243	1	0	6.679412e+01
194.082809	1.279623	city	1	1	1.032678	1.032678	0	1	0	0	CorrectCommission	0.464613	0.730821	1	0	6.535294e+01
195.362396	1.279558	city	7	1	1.369358	1.369358	0	1	0	0	CorrectCommission	0.724824	0.710653	1	0	6.391176e+01
196.641891	1.279440	city	3	1	1.259977	1.259977	0	1	0	0	CorrectCommission	0.338398	0.699451	1	0	6.247059e+01
197.941437	1.319628	city	10	1	1.151121	1.151121	0	1	0	0	CorrectCommission	0.046172	0.698302	1	0	6.102941e+01
199.247742	1.292982	city	2	1	1.160585	1.160585	0	1	0	0	CorrectCommission	0.012738	0.707400	1	0	5.958824e+01
200.540695	1.292927	city	7	1	1.040421	1.040421	0	1	0	0	CorrectCommission	0.437259	0.725983	1	0	5.814706e+01
201.833557	1.292803	city	3	1	0.994636	0.994636	0	1	0	0	CorrectCommission	0.599011	0.752367	1	0	5.670588e+01
203.133057	1.306187	city	5	1	1.590130	1.590130	0	1	0	0	CorrectCommission	1.504780	0.784125	1	0	5.526471e+01
204.426025	1.279757	city	2	1	1.434160	1.434160	0	1	0	0	CorrectCommission	0.953761	0.818350	0	0	5.382353e+01
205.745636	1.359460	city	4	1	1.248367	1.248367	0	1	0	0	CorrectCommission	0.297382	0.852098	0	0	5.238235e+01
207.071777	1.292848	city	1	1	0.985597	0.985597	0	1	0	0	CorrectCommission	0.630941	0.882662	0	0	5.094118e+01
208.417984	1.399539	city	9	1	1.879630	1.879630	0	1	0	0	CorrectCommission	2.527535	0.907910	0	0	4.950000e+01
209.777573	1.319658	city	5	1	1.568322	1.568322	0	1	0	0	CorrectCommission	1.427732	0.926486	0	0	4.805882e+01
211.090469	1.306117	mountain	9	0	0.000000	1.292479	1	0	0	0	CorrectOmission	0.453225	0.937977	0	0	4.661765e+01
212.396713	1.306377	city	8	1	1.052373	1.052373	0	1	0	0	CorrectCommission	0.395033	0.942875	0	0	4.517647e+01
213.709702	1.319605	city	4	1	0.848272	0.848272	0	1	0	0	CorrectCommission	1.116091	0.942395	0	0	4.373529e+01
215.015961	1.292912	city	5	1	0.674167	0.674167	0	1	0	0	CorrectCommission	1.731176	0.938242	0	0	4.229412e+01
216.308853	1.292881	city	2	1	1.540862	1.540862	0	1	0	0	CorrectCommission	1.330721	0.932372	0	0	4.085294e+01
217.628326	1.346060	city	6	1	1.246974	1.246974	0	1	0	0	CorrectCommission	0.292462	0.926705	0	0	3.941176e+01
218.954559	1.306409	city	5	1	1.164618	1.164618	0	1	0	0	CorrectCommission	0.001511	0.922837	0	0	3.797059e+01
220.267563	1.319581	city	9	1	0.780875	0.780875	0	1	0	0	CorrectCommission	1.354194	0.921841	0	0	3.652941e+01
221.573730	1.292782	city	3	1	1.372640	1.372640	0	1	0	0	CorrectCommission	0.736419	0.924155	0	0	3.508824e+01
222.886551	1.332851	city	9	1	1.380657	1.380657	0	1	0	0	CorrectCommission	0.764744	0.929636	0	0	3.364706e+01
224.232834	1.359718	city	2	1	1.155872	1.155872	0	1	0	0	CorrectCommission	0.029388	0.937606	0	0	3.220588e+01
225.565796	1.306197	city	9	1	0.834466	0.834466	0	1	0	0	CorrectCommission	1.164865	0.947109	0	0	3.076471e+01
226.872009	1.306226	city	4	1	0.629311	0.629311	0	1	0	0	CorrectCommission	1.889644	0.957072	0	0	2.932353e+01
228.178253	1.306274	city	10	1	0.608809	0.608809	0	1	0	0	CorrectCommission	1.962074	0.966548	0	0	2.788235e+01
229.491104	1.319404	city	7	1	1.039505	1.039505	0	1	0	0	CorrectCommission	0.440494	0.974853	0	0	2.644118e+01
230.150803	8.823773	break	0	1	0.888534	0.888534	0	0	0	0	ThoughtProbe	0.973851	0.981623	0	25	25
239.621109	1.293088	city	6	1	1.273402	1.273402	0	1	0	0	CorrectCommission	0.385826	0.986670	0	0	2.610870e+01
240.907425	1.279533	city	9	1	1.568159	1.568159	0	1	0	0	CorrectCommission	1.427158	0.989922	0	0	2.721739e+01
242.186996	1.279616	city	7	1	1.432745	1.432745	0	1	0	0	CorrectCommission	0.948762	0.991210	0	0	2.832609e+01
243.486572	1.319535	city	10	1	1.211589	1.211589	0	1	0	0	CorrectCommission	0.167453	0.990192	0	0	2.943478e+01
244.799469	1.306240	city	6	1	0.872624	0.872624	0	1	0	0	CorrectCommission	1.030059	0.986219	0	0	3.054348e+01
246.105621	1.306080	city	2	1	0.643868	0.643868	0	1	0	0	CorrectCommission	1.838218	0.978351	0	0	3.165217e+01
247.431870	1.346402	city	7	1	1.605147	1.605147	0	1	0	0	CorrectCommission	1.557830	0.965468	0	0	3.276087e+01
248.778091	1.346041	city	1	1	1.294213	1.294213	0	1	0	0	CorrectCommission	0.459349	0.946450	0	0	3.386957e+01
250.124313	1.346405	city	4	1	1.263275	1.263275	0	1	0	0	CorrectCommission	0.350051	0.920386	0	0	3.497826e+01
251.463882	1.332735	city	6	1	0.911779	0.911779	0	1	0	0	CorrectCommission	0.891729	0.886768	0	0	3.608696e+01
252.783447	1.306411	city	4	1	0.740744	0.740744	0	1	0	0	CorrectCommission	1.495971	0.845747	0	0	3.719565e+01
254.083099	1.292878	city	1	1	1.687375	1.687375	0	1	0	0	CorrectCommission	1.848330	0.798271	1	0	3.830435e+01
255.402618	1.346155	mountain	1	0	0.000000	1.589319	1	0	0	0	CorrectOmission	1.501912	0.746150	1	0	3.941304e+01
256.735504	1.319621	city	7	1	1.194706	1.194706	0	1	0	0	CorrectCommission	0.107806	0.691975	1	0	4.052174e+01
258.055115	1.319601	city	6	1	1.251667	1.251667	0	1	0	0	CorrectCommission	0.309042	0.638945	1	0	4.163043e+01
259.354736	1.279624	mountain	5	0	0.000000	1.226044	1	0	0	0	CorrectOmission	0.218517	0.590523	1	0	4.273913e+01
260.640930	1.292773	city	3	1	1.190073	1.190073	0	1	0	0	CorrectCommission	0.091438	0.550136	1	0	4.384783e+01
261.927094	1.279571	mountain	10	0	0.000000	1.215993	1	0	0	0	CorrectOmission	0.183010	0.520772	1	0	4.495652e+01
263.226715	1.319691	city	9	1	1.259119	1.259119	0	1	0	0	CorrectCommission	0.335366	0.504665	1	0	4.606522e+01
264.539612	1.306060	city	5	1	1.274764	1.274764	0	1	0	0	CorrectCommission	0.390640	0.503057	1	0	4.717391e+01
265.865723	1.346210	city	3	1	1.195149	1.195149	0	1	0	0	CorrectCommission	0.109374	0.516089	1	0	4.828261e+01
267.191986	1.306259	city	9	1	1.113504	1.113504	0	1	0	0	CorrectCommission	0.179068	0.542729	1	0	4.939130e+01
268.511597	1.333003	city	4	1	1.054391	1.054391	0	1	0	0	CorrectCommission	0.387904	0.580895	1	0	5.050000e+01
269.831146	1.306105	mountain	2	0	0.000000	1.001464	1	0	0	0	CorrectOmission	0.574888	0.627628	1	0	5.160870e+01
271.144012	1.319598	city	7	1	0.978027	0.978027	0	1	0	0	CorrectCommission	0.657686	0.679410	1	0	5.271739e+01
272.450317	1.293023	city	3	1	1.007386	1.007386	0	1	0	0	CorrectCommission	0.553964	0.732549	1	0	5.382609e+01
273.756622	1.319562	city	9	1	0.980892	0.980892	0	1	0	0	CorrectCommission	0.647564	0.783594	1	0	5.493478e+01
275.062775	1.292761	city	5	1	0.835943	0.835943	0	1	0	0	CorrectCommission	1.159648	0.829746	0	0	5.604348e+01
276.375671	1.333039	city	8	1	0.842926	0.842926	0	1	0	0	CorrectCommission	1.134976	0.869225	0	0	5.715217e+01
277.688599	1.292799	city	5	1	1.757848	1.757848	0	1	0	0	CorrectCommission	2.097300	0.901512	0	0	5.826087e+01
279.008148	1.346318	city	10	1	1.584861	1.584861	0	1	0	0	CorrectCommission	1.486165	0.927315	0	0	5.936957e+01
280.341095	1.319589	city	3	1	1.498652	1.498652	0	1	0	0	CorrectCommission	1.181600	0.948418	0	0	6.047826e+01
281.654022	1.306266	city	4	1	1.518031	1.518031	0	1	0	0	CorrectCommission	1.250064	0.967283	0	0	6.158696e+01
282.966858	1.319368	city	8	1	1.110058	1.110058	0	1	0	0	CorrectCommission	0.191243	0.986473	0	0	6.269565e+01
284.266388	1.279714	city	4	1	1.230786	1.230786	0	1	0	0	CorrectCommission	0.235270	1.008104	0	0	6.380435e+01
285.545990	1.279503	city	7	1	1.208447	1.208447	0	1	0	0	CorrectCommission	0.156352	1.033341	0	0	6.491304e+01
286.832275	1.293027	city	8	1	1.038757	1.038757	0	1	0	0	CorrectCommission	0.443135	1.062101	0	0	6.602174e+01
288.138489	1.319447	city	3	1	0.963170	0.963170	0	1	0	0	CorrectCommission	0.710172	1.093034	0	0	6.713043e+01
289.444672	1.292928	city	9	1	0.759539	0.759539	0	1	0	0	CorrectCommission	1.429571	1.123744	0	0	6.823913e+01
290.744324	1.306353	city	6	1	1.742176	1.742176	0	1	0	0	CorrectCommission	2.041933	1.151243	0	0	6.934783e+01
292.037201	1.279398	city	1	1	1.609750	1.609750	0	1	0	0	CorrectCommission	1.574091	1.172553	0	0	7.045652e+01
293.323334	1.292897	city	6	1	0.644033	0.644033	0	1	0	0	CorrectCommission	1.837636	1.185269	0	0	7.156522e+01
294.616333	1.293095	city	1	1	0.542062	0.542062	0	1	0	0	CorrectCommission	2.197881	1.187966	0	0	7.267391e+01
295.955933	1.386087	city	5	1	0.707817	0.707817	0	1	0	0	CorrectCommission	1.612297	1.180398	0	0	7.378261e+01
297.288727	1.279526	city	4	1	0.911370	0.911370	0	1	0	0	CorrectCommission	0.893173	1.163473	0	0	7.489130e+01
301.354065	6.851094	break	0	0	0.000000	0.994089	0	0	0	0	ThoughtProbe	0.600940	1.139016	0	76	76
305.426086	1.292945	city	8	1	0.978406	0.978406	0	1	0	0	CorrectCommission	0.656348	1.109370	0	0	7.480000e+01
306.732391	1.319670	city	4	1	0.886751	0.886751	0	1	0	0	CorrectCommission	0.980149	1.076959	0	0	7.360000e+01
308.038605	1.292752	city	5	1	1.543398	1.543398	0	1	0	0	CorrectCommission	1.339681	1.043943	0	0	7.240000e+01
309.351471	1.333035	city	1	1	1.341439	1.341439	0	1	0	0	CorrectCommission	0.626191	1.011952	0	0	7.120000e+01
310.711121	1.386224	city	6	1	1.100614	1.100614	0	1	0	0	CorrectCommission	0.224607	0.982003	0	0	70
312.063934	1.319446	city	8	1	1.715649	1.715649	0	1	0	0	CorrectCommission	1.948218	0.954472	0	0	6.880000e+01
313.396820	1.346279	mountain	3	0	0.000000	1.606619	1	0	0	0	CorrectOmission	1.563030	0.929185	0	0	6.760000e+01
314.716370	1.292833	city	9	1	1.268219	1.268219	0	1	0	0	CorrectCommission	0.367517	0.905656	0	0	6.640000e+01
316.015961	1.306356	city	2	1	1.195147	1.195147	0	1	0	0	CorrectCommission	0.109365	0.883251	0	0	6.520000e+01
317.315613	1.292953	city	1	1	0.976751	0.976751	0	1	0	0	CorrectCommission	0.662193	0.861320	0	0	64
318.621796	1.319403	city	8	1	1.705230	1.705230	0	1	0	0	CorrectCommission	1.911410	0.839340	0	0	6.280000e+01
319.947968	1.332928	city	6	1	1.539240	1.539240	0	1	0	0	CorrectCommission	1.324993	0.816990	0	0	6.160000e+01
321.287567	1.346292	city	1	1	1.207849	1.207849	0	1	0	0	CorrectCommission	0.154239	0.794219	1	0	6.040000e+01
322.627106	1.332771	city	4	1	1.009277	1.009277	0	1	0	0	CorrectCommission	0.547284	0.771227	1	0	5.920000e+01
323.946686	1.306413	mountain	8	1	1.041447	1.041447	0	0	1	0	CommissionError	0.433633	0.748391	1	0	58
325.246338	1.292866	city	3	1	1.497604	1.497604	0	1	0	0	CorrectCommission	1.177900	0.726260	1	0	5.680000e+01
326.539154	1.292774	city	6	1	1.386094	1.386094	0	1	0	0	CorrectCommission	0.783949	0.705459	1	0	5.560000e+01
327.852081	1.333108	city	9	1	1.094230	1.094230	0	1	0	0	CorrectCommission	0.247159	0.686666	1	0	5.440000e+01
329.171722	1.306120	city	3	1	0.870030	0.870030	0	1	0	0	CorrectCommission	1.039223	0.670482	1	0	5.320000e+01
330.491241	1.332973	city	10	1	0.820560	0.820560	0	1	0	0	CorrectCommission	1.213993	0.657366	1	0	52
331.797516	1.279573	city	4	1	1.160336	1.160336	0	1	0	0	CorrectCommission	0.013617	0.647578	1	0	5.080000e+01
333.083740	1.292860	city	3	1	1.137530	1.137530	0	1	0	0	CorrectCommission	0.094188	0.641129	1	0	4.960000e+01
334.389984	1.319613	city	10	1	1.067247	1.067247	0	1	0	0	CorrectCommission	0.342487	0.637697	1	0	4.840000e+01
335.702820	1.306087	city	1	1	1.308422	1.308422	0	1	0	0	CorrectCommission	0.509546	0.636718	1	0	4.720000e+01
336.995728	1.279705	city	2	1	1.506001	1.506001	0	1	0	0	CorrectCommission	1.207565	0.637428	1	0	46
338.295380	1.319609	city	4	1	1.395346	1.395346	0	1	0	0	CorrectCommission	0.816637	0.639020	1	0	4.480000e+01
339.634949	1.359545	city	1	1	1.260038	1.260038	0	1	0	0	CorrectCommission	0.338616	0.640813	1	0	4.360000e+01
340.954529	1.279584	city	8	1	1.409890	1.409890	0	1	0	0	CorrectCommission	0.868017	0.642336	1	0	4.240000e+01
342.247345	1.306056	city	3	1	1.288798	1.288798	0	1	0	0	CorrectCommission	0.440219	0.643463	1	0	4.120000e+01
343.546906	1.293064	mountain	9	0	0.000000	1.454698	1	0	0	0	CorrectOmission	1.026317	0.644429	1	0	40
344.833252	1.279599	city	9	1	1.560631	1.560631	0	1	0	0	CorrectCommission	1.400564	0.645737	1	0	3.880000e+01
346.159454	1.372855	city	3	1	1.259640	1.259640	0	1	0	0	CorrectCommission	0.337209	0.648059	1	0	3.760000e+01
347.492279	1.292748	city	1	1	1.195661	1.195661	0	1	0	0	CorrectCommission	0.111180	0.652103	1	0	3.640000e+01
348.798492	1.319721	city	8	1	1.189163	1.189163	0	1	0	0	CorrectCommission	0.088225	0.658439	1	0	3.520000e+01
350.111511	1.306270	city	6	1	1.360951	1.360951	0	1	0	0	CorrectCommission	0.695124	0.667417	1	0	34
351.484375	1.439487	city	2	1	1.272835	1.272835	0	1	0	0	CorrectCommission	0.383825	0.679068	1	0	3.280000e+01
352.857178	1.306147	city	4	1	1.431259	1.431259	0	1	0	0	CorrectCommission	0.943510	0.693217	1	0	3.160000e+01
354.203430	1.386333	city	8	1	1.205316	1.205316	0	1	0	0	CorrectCommission	0.145290	0.709524	1	0	3.040000e+01
355.536377	1.279561	city	9	1	1.540634	1.540634	0	1	0	0	CorrectCommission	1.329915	0.727660	1	0	2.920000e+01
359.894928	7.437562	break	0	0	0.000000	1.619058	0	0	0	0	ThoughtProbe	1.606976	0.747342	1	28	28
364.266815	1.306183	city	3	1	1.486528	1.486528	0	1	0	0	CorrectCommission	1.138770	0.768385	1	0	2.767647e+01
365.613068	1.386298	city	6	1	1.188984	1.188984	0	1	0	0	CorrectCommission	0.087591	0.790623	1	0	2.735294e+01
366.979309	1.346214	city	3	1	0.861725	0.861725	0	1	0	0	CorrectCommission	1.068563	0.813806	1	0	2.702941e+01
368.312164	1.319514	city	10	1	1.130187	1.130187	0	1	0	0	CorrectCommission	0.120127	0.837339	0	0	2.670588e+01
369.618408	1.292966	city	6	1	1.080895	1.080895	0	1	0	0	CorrectCommission	0.294270	0.860231	0	0	2.638235e+01
370.917938	1.306064	city	9	1	1.208357	1.208357	0	1	0	0	CorrectCommission	0.156034	0.881019	0	0	2.605882e+01
372.250732	1.359568	city	5	1	1.002012	1.002012	0	1	0	0	CorrectCommission	0.572953	0.897894	0	0	2.573529e+01
373.590302	1.319557	mountain	2	1	1.954019	1.954019	0	0	1	0	CommissionError	2.790341	0.908926	0	0	2.541176e+01
374.896606	1.293063	city	7	1	1.733179	1.733179	0	1	0	0	CorrectCommission	2.010149	0.912364	0	0	2.508824e+01
376.189606	1.292906	city	9	0	0.000000	1.370836	0	0	0	1	OmissionError	0.730048	0.906994	0	0	2.476471e+01
377.489166	1.306239	city	8	1	1.037194	1.037194	0	1	0	0	CorrectCommission	0.448660	0.892384	0	0	2.444118e+01
378.795349	1.306126	city	10	1	0.902455	0.902455	0	1	0	0	CorrectCommission	0.924671	0.868944	0	0	2.411765e+01
380.101593	1.306323	city	1	1	0.774624	0.774624	0	1	0	0	CorrectCommission	1.376278	0.837919	0	0	2.379412e+01
381.421204	1.332942	city	9	1	0.688095	0.688095	0	1	0	0	CorrectCommission	1.681970	0.801248	1	0	2.347059e+01
382.767456	1.359543	city	8	1	1.159380	1.159380	0	1	0	0	CorrectCommission	0.016993	0.761274	1	0	2.314706e+01
384.100250	1.306053	city	10	1	1.067996	1.067996	0	1	0	0	CorrectCommission	0.339840	0.720448	1	0	2.282353e+01
385.393066	1.279583	city	6	1	1.341166	1.341166	0	1	0	0	CorrectCommission	0.625229	0.680915	1	0	2.250000e+01
386.705963	1.346221	city	10	1	1.062786	1.062786	0	1	0	0	CorrectCommission	0.358245	0.644321	1	0	2.217647e+01
388.038940	1.319710	city	1	1	1.248298	1.248298	0	1	0	0	CorrectCommission	0.297139	0.611669	1	0	2.185294e+01
389.351868	1.306146	city	10	1	1.065580	1.065580	0	1	0	0	CorrectCommission	0.348376	0.583285	1	0	2.152941e+01
390.651367	1.292881	mountain	7	1	1.162101	1.162101	0	0	1	0	CommissionError	0.007383	0.558920	1	0	2.120588e+01
391.937592	1.279550	city	4	1	1.509539	1.509539	0	1	0	0	CorrectCommission	1.220064	0.537964	1	0	2.088235e+01
393.250488	1.346253	city	9	1	1.502107	1.502107	0	1	0	0	CorrectCommission	1.193806	0.519670	1	0	2.055882e+01
394.596741	1.346247	city	6	1	1.359382	1.359382	0	1	0	0	CorrectCommission	0.689580	0.503436	1	0	2.023529e+01
395.936371	1.332975	city	3	1	1.250426	1.250426	0	1	0	0	CorrectCommission	0.304656	0.488900	1	0	1.991176e+01
397.255951	1.306192	city	4	1	1.196909	1.196909	0	1	0	0	CorrectCommission	0.115588	0.476031	1	0	1.958824e+01
398.562195	1.306320	city	9	1	1.126699	1.126699	0	1	0	0	CorrectCommission	0.132451	0.465071	1	0	1.926471e+01
399.895050	1.359367	city	2	1	0.905615	0.905615	0	1	0	0	CorrectCommission	0.913507	0.456430	1	0	1.894118e+01
401.261261	1.373072	city	9	1	1.179551	1.179551	0	1	0	0	CorrectCommission	0.054267	0.450514	1	0	1.861765e+01
402.620819	1.346043	city	10	1	0.957875	0.957875	0	1	0	0	CorrectCommission	0.728881	0.447580	1	0	1.829412e+01
403.960327	1.332956	city	1	1	1.152099	1.152099	0	1	0	0	CorrectCommission	0.042716	0.447612	1	0	1.797059e+01
405.266571	1.279524	city	8	1	1.192812	1.192812	0	1	0	0	CorrectCommission	0.101116	0.450305	1	0	1.764706e+01
406.572815	1.333016	city	10	1	1.287071	1.287071	0	1	0	0	CorrectCommission	0.434119	0.455035	1	0	1.732353e+01
410.584900	6.691156	break	0	0	0.000000	1.375683	0	0	0	0	ThoughtProbe	0.747170	0.460932	1	17	17
414.570282	1.279593	city	6	1	1.355705	1.355705	0	1	0	0	CorrectCommission	0.676591	0.467033	1	0	1.685294e+01
415.849792	1.279435	city	1	1	1.124195	1.124195	0	1	0	0	CorrectCommission	0.141299	0.472399	1	0	1.670588e+01
417.129333	1.279600	city	8	1	1.071234	1.071234	0	1	0	0	CorrectCommission	0.328400	0.476325	1	0	1.655882e+01
418.408966	1.279702	city	5	1	0.764180	0.764180	0	1	0	0	CorrectCommission	1.413176	0.478409	1	0	1.641176e+01
419.688599	1.279556	city	8	1	1.016926	1.016926	0	1	0	0	CorrectCommission	0.520262	0.478608	1	0	1.626471e+01
420.968170	1.279563	city	7	1	1.017598	1.017598	0	1	0	0	CorrectCommission	0.517887	0.477282	1	0	1.611765e+01
422.247742	1.279624	mountain	5	0	0.000000	1.139464	1	0	0	0	CorrectOmission	0.087355	0.475081	1	0	1.597059e+01
423.527344	1.279584	city	6	1	1.283465	1.283465	0	1	0	0	CorrectCommission	0.421379	0.472824	1	0	1.582353e+01
424.806854	1.279437	city	10	1	1.350545	1.350545	0	1	0	0	CorrectCommission	0.658362	0.471347	1	0	1.567647e+01
426.086365	1.279564	city	9	1	1.175856	1.175856	0	1	0	0	CorrectCommission	0.041213	0.471339	1	0	1.552941e+01
427.366028	1.279740	city	8	1	1.122202	1.122202	0	1	0	0	CorrectCommission	0.148338	0.473259	1	0	1.538235e+01
428.645630	1.279452	city	4	1	0.984408	0.984408	0	1	0	0	CorrectCommission	0.635142	0.477246	1	0	1.523529e+01
429.925110	1.279541	city	2	1	0.911642	0.911642	0	1	0	0	CorrectCommission	0.892215	0.483102	1	0	1.508824e+01
431.204681	1.279607	city	8	1	0.982851	0.982851	0	1	0	0	CorrectCommission	0.640643	0.490305	1	0	1.494118e+01
432.484344	1.279700	city	5	1	1.177695	1.177695	0	1	0	0	CorrectCommission	0.047708	0.498111	1	0	1.479412e+01
433.763947	1.279486	city	7	1	1.068288	1.068288	0	1	0	0	CorrectCommission	0.338810	0.505633	1	0	1.464706e+01
435.043518	1.279704	city	4	1	1.070298	1.070298	0	1	0	0	CorrectCommission	0.331707	0.511968	1	0	1.450000e+01
436.323151	1.279549	city	9	1	1.015116	1.015116	0	1	0	0	CorrectCommission	0.526656	0.516325	1	0	1.435294e+01
437.602661	1.279463	city	6	1	0.910640	0.910640	0	1	0	0	CorrectCommission	0.895755	0.518189	1	0	1.420588e+01
438.882202	1.279594	city	2	1	0.712130	0.712130	0	1	0	0	CorrectCommission	1.597059	0.517397	1	0	1.405882e+01
440.161743	1.279509	city	9	1	1.230940	1.230940	0	1	0	0	CorrectCommission	0.235814	0.514195	1	0	1.391176e+01
441.441376	1.279731	city	5	1	1.145568	1.145568	0	1	0	0	CorrectCommission	0.065792	0.509252	1	0	1.376471e+01
442.721008	1.279585	city	10	1	1.015279	1.015279	0	1	0	0	CorrectCommission	0.526079	0.503560	1	0	1.361765e+01
444.000610	1.279594	city	8	1	0.972948	0.972948	0	1	0	0	CorrectCommission	0.675630	0.498320	1	0	1.347059e+01
445.280182	1.279579	mountain	2	0	0.000000	1.144810	1	0	0	0	CorrectOmission	0.068467	0.494799	1	0	1.332353e+01
446.566437	1.292896	city	10	1	1.322842	1.322842	0	1	0	0	CorrectCommission	0.560491	0.494173	1	0	1.317647e+01
447.852661	1.279559	city	9	1	1.299018	1.299018	0	1	0	0	CorrectCommission	0.476325	0.497373	1	0	1.302941e+01
449.132263	1.279622	city	2	1	1.014749	1.014749	0	1	0	0	CorrectCommission	0.527952	0.504972	1	0	1.288235e+01
450.411804	1.279468	city	6	1	1.121342	1.121342	0	1	0	0	CorrectCommission	0.151376	0.517111	1	0	1.273529e+01
451.691345	1.279661	city	8	1	1.193783	1.193783	0	1	0	0	CorrectCommission	0.104547	0.533457	1	0	1.258824e+01
452.970947	1.279494	city	5	1	0.987183	0.987183	0	1	0	0	CorrectCommission	0.625338	0.553199	1	0	1.244118e+01
454.250549	1.279704	city	8	1	0.829393	0.829393	0	1	0	0	CorrectCommission	1.182786	0.575105	1	0	1.229412e+01
455.530121	1.279437	city	3	1	1.123862	1.123862	0	1	0	0	CorrectCommission	0.142475	0.597610	1	0	1.214706e+01
456.169830	8.863884	break	0	0	0.000000	1.351090	0	0	0	0	ThoughtProbe	0.660288	0.618947	1	12	12
465.673492	1.279574	city	2	1	1.444311	1.444311	0	1	0	0	CorrectCommission	0.989623	0.637248	1	0	1.210000e+01
466.953064	1.279540	city	5	1	1.336756	1.336756	0	1	0	0	CorrectCommission	0.609647	0.650732	1	0	1.220000e+01
468.232605	1.279582	city	4	1	1.177456	1.177456	0	1	0	0	CorrectCommission	0.046866	0.657900	1	0	1.230000e+01
469.512207	1.279586	city	8	1	0.862762	0.862762	0	1	0	0	CorrectCommission	1.064901	0.657681	1	0	1.240000e+01
470.791779	1.279600	city	5	1	0.803542	0.803542	0	1	0	0	CorrectCommission	1.274114	0.649543	1	0	1.250000e+01
472.071381	1.279605	mountain	1	1	0.702539	0.702539	0	0	1	0	CommissionError	1.630942	0.633622	1	0	1.260000e+01
473.350983	1.279563	city	6	1	1.070772	1.070772	0	1	0	0	CorrectCommission	0.330032	0.610710	1	0	1.270000e+01
474.630554	1.279595	city	8	1	0.963834	0.963834	0	1	0	0	CorrectCommission	0.707827	0.582201	1	0	1.280000e+01
475.910034	1.279392	city	7	1	1.302530	1.302530	0	1	0	0	CorrectCommission	0.488732	0.549890	1	0	1.290000e+01
477.189606	1.279728	city	8	1	1.177131	1.177131	0	1	0	0	CorrectCommission	0.045719	0.515808	1	0	13
478.469299	1.279626	mountain	5	0	0.000000	1.254265	1	0	0	0	CorrectOmission	0.318218	0.481943	1	0	1.310000e+01
479.748871	1.279532	city	9	1	1.337504	1.337504	0	1	0	0	CorrectCommission	0.612290	0.450042	1	0	1.320000e+01
481.028412	1.279558	city	7	1	1.230424	1.230424	0	1	0	0	CorrectCommission	0.233992	0.421457	1	0	1.330000e+01
482.307983	1.279618	city	3	1	1.230185	1.230185	0	1	0	0	CorrectCommission	0.233149	0.397069	1	0	1.340000e+01
483.587524	1.279421	city	5	1	1.124304	1.124304	0	1	0	0	CorrectCommission	0.140912	0.377268	1	0	1.350000e+01
484.867096	1.279722	city	3	1	1.194699	1.194699	0	1	0	0	CorrectCommission	0.107783	0.362038	1	0	1.360000e+01
486.146759	1.279597	city	2	1	1.283612	1.283612	0	1	0	0	CorrectCommission	0.421899	0.351063	1	0	1.370000e+01
487.426331	1.279588	city	9	1	1.390467	1.390467	0	1	0	0	CorrectCommission	0.799398	0.343854	1	0	1.380000e+01
488.705841	1.279389	city	1	1	1.251969	1.251969	0	1	0	0	CorrectCommission	0.310109	0.339875	1	0	1.390000e+01
489.985443	1.279811	city	10	1	1.020186	1.020186	0	1	0	0	CorrectCommission	0.508746	0.338626	1	0	14
491.265045	1.279422	city	3	1	1.124065	1.124065	0	1	0	0	CorrectCommission	0.141756	0.339696	1	0	1.410000e+01
492.544617	1.279727	city	6	1	1.175234	1.175234	0	1	0	0	CorrectCommission	0.039016	0.342781	1	0	1.420000e+01
493.824158	1.279364	city	4	1	1.230135	1.230135	0	1	0	0	CorrectCommission	0.232973	0.347676	1	0	1.430000e+01
495.103760	1.279806	city	2	1	1.231035	1.231035	0	1	0	0	CorrectCommission	0.236152	0.354305	1	0	1.440000e+01
496.383392	1.279487	city	7	1	1.292675	1.292675	0	1	0	0	CorrectCommission	0.453916	0.362782	1	0	1.450000e+01
497.662903	1.279527	city	1	1	1.283542	1.283542	0	1	0	0	CorrectCommission	0.421652	0.373453	1	0	1.460000e+01
498.942505	1.279667	city	4	1	0.964160	0.964160	0	1	0	0	CorrectCommission	0.706677	0.387033	1	0	1.470000e+01
500.222046	1.279399	mountain	7	0	0.000000	1.164468	1	0	0	0	CorrectOmission	0.000981	0.404669	1	0	1.480000e+01
501.501617	1.279758	city	6	1	1.388099	1.388099	0	1	0	0	CorrectCommission	0.791035	0.428070	1	0	1.490000e+01
502.781250	1.279496	city	2	1	1.138684	1.138684	0	1	0	0	CorrectCommission	0.090108	0.459407	1	0	15
504.060822	1.279640	city	7	1	0.985518	0.985518	0	1	0	0	CorrectCommission	0.631222	0.501300	1	0	1.510000e+01
505.340363	1.279474	city	5	1	1.297752	1.297752	0	1	0	0	CorrectCommission	0.471852	0.556528	1	0	1.520000e+01
506.619873	1.279559	city	10	1	1.305043	1.305043	0	1	0	0	CorrectCommission	0.497610	0.627779	1	0	1.530000e+01
507.899536	1.279727	city	7	1	1.124497	1.124497	0	1	0	0	CorrectCommission	0.140232	0.717230	1	0	1.540000e+01
509.179169	1.279582	city	9	1	1.245340	1.245340	0	1	0	0	CorrectCommission	0.286688	0.826195	0	0	1.550000e+01
510.458740	1.279560	city	1	1	1.128562	1.128562	0	1	0	0	CorrectCommission	0.125868	0.954751	0	0	1.560000e+01
511.738251	1.279440	city	3	1	1.070588	1.070588	0	1	0	0	CorrectCommission	0.330681	1.101542	0	0	1.570000e+01
513.017822	1.279742	city	2	1	0.876778	0.876778	0	1	0	0	CorrectCommission	1.015383	1.263697	0	0	1.580000e+01
514.297424	1.279443	city	3	1	0.803729	0.803729	0	1	0	0	CorrectCommission	1.273454	1.436975	0	0	1.590000e+01
518.209534	6.544785	break	0	0	0.706742	0.706742	0	0	0	0	ThoughtProbe	1.616094	1.616094	0	16	16
