onset	duration	trial_type	image_type	Press	ReactionTime	ReactionTime_Interpolated	CorrectOmission	CorrectCommission	CommissionError	OmissionError	response_type	nonsmoothVarianceTimeCourse	VarianceTimeCourse	In_the_Zone	ThoughtProbe	ThoughtProbe_Interpolated
0.653145	1.279495	city	1	1	0.985215	0.985215	0	1	0	0	CorrectCommission	0.610952	0.610952	1	0	92
1.932715	1.279643	city	5	1	1.326010	1.326010	0	1	0	0	CorrectCommission	0.948543	0.697129	1	0	92
3.225658	1.306243	city	3	1	1.047328	1.047328	0	1	0	0	CorrectCommission	0.326719	0.780663	1	0	92
4.518569	1.279577	city	5	1	1.044763	1.044763	0	1	0	0	CorrectCommission	0.338457	0.858943	0	0	92
5.798110	1.279505	city	7	1	1.616789	1.616789	0	1	0	0	CorrectCommission	2.279163	0.929469	0	0	92
7.077688	1.279653	city	4	1	1.021726	1.021726	0	1	0	0	CorrectCommission	0.443874	0.989858	0	0	92
8.357310	1.279592	city	3	1	0.761624	0.761624	0	1	0	0	CorrectCommission	1.634117	1.038138	0	0	92
9.636893	1.279574	city	4	1	0.969575	0.969575	0	1	0	0	CorrectCommission	0.682521	1.072731	0	0	92
10.916475	1.279589	city	7	1	0.647249	0.647249	0	1	0	0	CorrectCommission	2.157501	1.092748	0	0	92
12.196069	1.279597	city	10	1	1.497926	1.497926	0	1	0	0	CorrectCommission	1.735241	1.098017	0	0	92
13.475639	1.279545	city	8	1	0.967821	0.967821	0	1	0	0	CorrectCommission	0.690546	1.089294	0	0	92
14.761802	1.292778	city	10	1	0.807885	0.807885	0	1	0	0	CorrectCommission	1.422423	1.068183	0	0	92
16.047962	1.279543	city	3	1	1.610024	1.610024	0	1	0	0	CorrectCommission	2.248207	1.036995	0	0	92
17.327526	1.279586	city	10	1	1.021258	1.021258	0	1	0	0	CorrectCommission	0.446017	0.998661	0	0	92
18.613850	1.293063	mountain	5	0	0.000000	1.132579	1	0	0	0	CorrectOmission	0.063392	0.956530	0	0	92
19.913490	1.306218	city	4	1	1.259157	1.259157	0	1	0	0	CorrectCommission	0.642619	0.913994	0	0	92
21.213064	1.292929	mountain	1	1	0.716163	0.716163	0	0	1	0	CommissionError	1.842150	0.874261	0	0	92
22.499329	1.279599	city	7	1	1.025946	1.025946	0	1	0	0	CorrectCommission	0.424564	0.840074	0	0	92
23.785492	1.292728	city	2	1	0.968124	0.968124	0	1	0	0	CorrectCommission	0.689162	0.813619	0	0	92
25.071726	1.279740	mountain	1	0	0.000000	1.076666	1	0	0	0	CorrectOmission	0.192469	0.796214	1	0	92
26.364635	1.306078	city	1	1	1.111961	1.111961	0	1	0	0	CorrectCommission	0.030955	0.788359	1	0	92
27.657539	1.279731	city	2	1	0.834400	0.834400	0	1	0	0	CorrectCommission	1.301088	0.789714	1	0	92
28.937197	1.279581	city	7	1	1.085716	1.085716	0	1	0	0	CorrectCommission	0.151053	0.799155	1	0	92
30.216743	1.279514	city	2	1	0.810366	0.810366	0	1	0	0	CorrectCommission	1.411073	0.814997	0	0	92
31.496323	1.279641	city	10	1	0.969392	0.969392	0	1	0	0	CorrectCommission	0.683359	0.835144	0	0	92
32.782600	1.292914	mountain	8	0	0.000000	1.219879	1	0	0	0	CorrectOmission	0.462882	0.857396	0	0	92
34.082100	1.306090	city	4	1	1.261185	1.261185	0	1	0	0	CorrectCommission	0.651899	0.879621	0	0	92
35.395000	1.319709	city	7	1	0.792667	0.792667	0	1	0	0	CorrectCommission	1.492060	0.900053	0	0	92
36.721142	1.332570	city	8	1	0.835277	0.835277	0	1	0	0	CorrectCommission	1.297078	0.917380	0	0	92
38.027309	1.279765	city	5	1	1.467340	1.467340	0	1	0	0	CorrectCommission	1.595275	0.930883	0	0	92
39.320335	1.306287	city	2	1	0.848072	0.848072	0	1	0	0	CorrectCommission	1.238524	0.940365	0	0	92
40.619911	1.292865	city	10	1	1.135975	1.135975	0	1	0	0	CorrectCommission	0.078932	0.946089	0	0	92
41.906208	1.279735	city	8	1	1.284970	1.284970	0	1	0	0	CorrectCommission	0.760741	0.948629	0	0	92
43.185867	1.279582	city	2	1	1.351733	1.351733	0	1	0	0	CorrectCommission	1.066252	0.948626	0	0	92
44.465435	1.279555	city	4	1	1.363674	1.363674	0	1	0	0	CorrectCommission	1.120895	0.946634	0	0	92
45.771660	1.332891	city	8	1	0.978333	0.978333	0	1	0	0	CorrectCommission	0.642445	0.943064	0	0	92
47.077908	1.279609	city	9	1	1.366296	1.366296	0	1	0	0	CorrectCommission	1.132892	0.938084	0	0	92
48.384148	1.332867	city	5	1	1.400730	1.400730	0	1	0	0	CorrectCommission	1.290464	0.931623	0	0	92
49.703712	1.306261	city	4	1	1.101845	1.101845	0	1	0	0	CorrectCommission	0.077248	0.923469	0	0	92
51.009960	1.306238	city	9	1	0.846271	0.846271	0	1	0	0	CorrectCommission	1.246767	0.913423	0	0	92
52.316177	1.306193	city	3	1	1.386788	1.386788	0	1	0	0	CorrectCommission	1.226665	0.901340	0	0	92
53.629078	1.319609	city	6	1	1.394472	1.394472	0	1	0	0	CorrectCommission	1.261830	0.887292	0	0	92
54.942001	1.306238	city	10	1	0.934394	0.934394	0	1	0	0	CorrectCommission	0.843514	0.871590	0	0	92
56.234898	1.279553	city	1	1	1.386325	1.386325	0	1	0	0	CorrectCommission	1.224549	0.854781	0	0	92
57.527802	1.306259	city	8	1	1.005992	1.005992	0	1	0	0	CorrectCommission	0.515878	0.837572	0	0	92
58.180931	10.143338	break	0	0	0.000000	1.075769	0	0	0	0	ThoughtProbe	0.196571	0.820757	0	92	92
68.963989	1.279439	city	10	1	1.297989	1.297989	0	1	0	0	CorrectCommission	0.820315	0.805141	1	0	9.178261e+01
70.243477	1.279537	city	9	1	1.374979	1.374979	0	1	0	0	CorrectCommission	1.172627	0.791381	1	0	9.156522e+01
71.563110	1.359728	city	7	1	1.175526	1.175526	0	1	0	0	CorrectCommission	0.259922	0.780005	1	0	9.134783e+01
72.882759	1.279576	mountain	7	0	0.000000	1.289260	1	0	0	0	CorrectOmission	0.780373	0.771401	1	0	9.113043e+01
74.168991	1.292886	city	6	1	1.351732	1.351732	0	1	0	0	CorrectCommission	1.066250	0.765829	1	0	9.091304e+01
75.481888	1.332895	city	2	1	0.998497	0.998497	0	1	0	0	CorrectCommission	0.550174	0.763517	1	0	9.069565e+01
76.801453	1.306238	city	10	1	0.886547	0.886547	0	1	0	0	CorrectCommission	1.062462	0.764731	1	0	9.047826e+01
78.094376	1.279607	mountain	8	0	0.000000	1.193342	1	0	0	0	CorrectOmission	0.341450	0.769767	1	0	9.026087e+01
79.373871	1.279388	city	4	1	1.417895	1.417895	0	1	0	0	CorrectCommission	1.369012	0.778952	1	0	9.004348e+01
80.680099	1.333075	city	9	1	1.059215	1.059215	0	1	0	0	CorrectCommission	0.272324	0.792514	1	0	8.982609e+01
81.986343	1.279399	city	2	1	1.035371	1.035371	0	1	0	0	CorrectCommission	0.381437	0.810557	0	0	8.960870e+01
83.279182	1.306292	city	10	1	0.872742	0.872742	0	1	0	0	CorrectCommission	1.125636	0.832881	0	0	8.939130e+01
84.578735	1.292803	city	4	1	1.197333	1.197333	0	1	0	0	CorrectCommission	0.359708	0.858863	0	0	8.917391e+01
85.871704	1.293146	city	5	1	1.366430	1.366430	0	1	0	0	CorrectCommission	1.133509	0.887437	0	0	8.895652e+01
87.164734	1.292908	city	3	1	0.892201	0.892201	0	1	0	0	CorrectCommission	1.036591	0.917039	0	0	8.873913e+01
88.470978	1.319580	city	6	1	1.261685	1.261685	0	1	0	0	CorrectCommission	0.654190	0.945686	0	0	8.852174e+01
89.777153	1.292768	city	2	1	0.835758	0.835758	0	1	0	0	CorrectCommission	1.294877	0.971122	0	0	8.830435e+01
91.070053	1.293028	city	6	1	1.090017	1.090017	0	1	0	0	CorrectCommission	0.131374	0.991015	0	0	8.808696e+01
92.369598	1.306062	mountain	1	1	1.257474	1.257474	0	0	1	0	CommissionError	0.634919	1.003286	0	0	8.786957e+01
93.669159	1.293065	city	1	1	1.756142	1.756142	0	1	0	0	CorrectCommission	2.916849	1.006311	0	0	8.765217e+01
94.962143	1.292909	city	6	1	1.421614	1.421614	0	1	0	0	CorrectCommission	1.386033	0.999162	0	0	8.743478e+01
96.261719	1.306233	city	7	1	1.549709	1.549709	0	1	0	0	CorrectCommission	1.972203	0.981878	0	0	8.721739e+01
97.567963	1.306256	city	6	1	1.311733	1.311733	0	1	0	0	CorrectCommission	0.883209	0.955303	0	0	87
98.874115	1.306052	city	5	1	1.168995	1.168995	0	1	0	0	CorrectCommission	0.230036	0.921092	0	0	8.678261e+01
100.166946	1.279606	city	1	1	1.032603	1.032603	0	1	0	0	CorrectCommission	0.394105	0.881492	0	0	8.656522e+01
101.446609	1.279716	mountain	1	0	0.000000	0.906587	1	0	0	0	CorrectOmission	0.970760	0.839030	0	0	8.634783e+01
102.739586	1.306238	city	10	1	0.948924	0.948924	0	1	0	0	CorrectCommission	0.777023	0.796293	1	0	8.613043e+01
104.039101	1.292797	city	5	1	1.317591	1.317591	0	1	0	0	CorrectCommission	0.910017	0.755698	1	0	8.591304e+01
105.358681	1.346356	city	1	1	1.247074	1.247074	0	1	0	0	CorrectCommission	0.587328	0.719308	1	0	8.569565e+01
106.678230	1.292747	city	5	1	1.247792	1.247792	0	1	0	0	CorrectCommission	0.590615	0.688754	1	0	8.547826e+01
107.971054	1.292903	city	8	1	0.988640	0.988640	0	1	0	0	CorrectCommission	0.595278	0.665140	1	0	8.526087e+01
109.257294	1.279577	city	6	1	1.142361	1.142361	0	1	0	0	CorrectCommission	0.108154	0.649071	1	0	8.504348e+01
110.543610	1.293060	city	9	1	0.984166	0.984166	0	1	0	0	CorrectCommission	0.615755	0.640662	1	0	8.482609e+01
111.829865	1.279450	city	5	1	1.230818	1.230818	0	1	0	0	CorrectCommission	0.512941	0.639530	1	0	8.460870e+01
113.116127	1.293069	city	10	1	0.928412	0.928412	0	1	0	0	CorrectCommission	0.870884	0.644885	1	0	8.439130e+01
114.402359	1.279404	city	4	1	1.250930	1.250930	0	1	0	0	CorrectCommission	0.604973	0.655538	1	0	8.417391e+01
115.695267	1.306402	city	5	1	1.013530	1.013530	0	1	0	0	CorrectCommission	0.481381	0.670016	1	0	8.395652e+01
116.994904	1.292875	city	1	1	1.153361	1.153361	0	1	0	0	CorrectCommission	0.158493	0.686659	1	0	8.373913e+01
118.281143	1.279602	city	5	1	1.239253	1.239253	0	1	0	0	CorrectCommission	0.551540	0.703718	1	0	8.352174e+01
119.580666	1.319437	city	8	1	0.968593	0.968593	0	1	0	0	CorrectCommission	0.687014	0.719518	1	0	8.330435e+01
120.880226	1.279695	city	5	1	1.636970	1.636970	0	1	0	0	CorrectCommission	2.371512	0.732622	1	0	8.308696e+01
122.179855	1.319567	city	9	1	1.013634	1.013634	0	1	0	0	CorrectCommission	0.480907	0.741847	1	0	8.286957e+01
123.486015	1.292752	city	2	1	1.049684	1.049684	0	1	0	0	CorrectCommission	0.315937	0.746548	1	0	8.265217e+01
124.772179	1.279568	city	5	1	1.348017	1.348017	0	1	0	0	CorrectCommission	1.049248	0.746528	1	0	8.243478e+01
126.078491	1.333063	city	6	1	1.192128	1.192128	0	1	0	0	CorrectCommission	0.335894	0.742063	1	0	8.221739e+01
130.470444	7.450842	break	0	1	0.792241	0.792241	0	0	0	0	ThoughtProbe	1.494012	0.733892	1	82	82
134.835602	1.279455	mountain	1	0	0.000000	0.989770	1	0	0	0	CorrectOmission	0.590107	0.723025	1	0	8.202500e+01
136.115204	1.279763	city	8	1	1.296463	1.296463	0	1	0	0	CorrectCommission	0.813333	0.710699	1	0	8.205000e+01
137.414856	1.319541	city	9	1	1.224064	1.224064	0	1	0	0	CorrectCommission	0.482031	0.698164	1	0	8.207500e+01
138.761017	1.372767	city	4	1	1.230666	1.230666	0	1	0	0	CorrectCommission	0.512245	0.686587	1	0	8.210000e+01
140.113861	1.332946	city	6	1	1.048122	1.048122	0	1	0	0	CorrectCommission	0.323088	0.676942	1	0	8.212500e+01
141.426819	1.292963	mountain	6	0	0.000000	1.247543	1	0	0	0	CorrectOmission	0.589475	0.669919	1	0	8.215000e+01
142.726440	1.306287	city	7	1	1.366624	1.366624	0	1	0	0	CorrectCommission	1.134394	0.665864	1	0	8.217500e+01
144.025940	1.292705	city	10	1	0.943057	0.943057	0	1	0	0	CorrectCommission	0.803868	0.664833	1	0	8.220000e+01
145.325516	1.306439	city	3	1	1.204776	1.204776	0	1	0	0	CorrectCommission	0.393769	0.666593	1	0	8.222500e+01
146.618500	1.279537	city	10	1	1.079358	1.079358	0	1	0	0	CorrectCommission	0.180150	0.670729	1	0	8.225000e+01
147.897995	1.279446	city	6	1	1.236018	1.236018	0	1	0	0	CorrectCommission	0.536734	0.676723	1	0	8.227500e+01
149.184174	1.292900	city	2	1	0.983698	0.983698	0	1	0	0	CorrectCommission	0.617895	0.684108	1	0	8.230000e+01
150.490479	1.319706	city	10	1	0.964788	0.964788	0	1	0	0	CorrectCommission	0.704426	0.692558	1	0	8.232500e+01
151.790039	1.279418	city	5	1	1.551229	1.551229	0	1	0	0	CorrectCommission	1.979159	0.701978	1	0	8.235000e+01
153.089615	1.319745	city	2	1	0.982031	0.982031	0	1	0	0	CorrectCommission	0.625524	0.712477	1	0	8.237500e+01
154.389282	1.279595	city	7	1	1.143332	1.143332	0	1	0	0	CorrectCommission	0.112600	0.724429	1	0	8.240000e+01
155.688858	1.319559	city	5	1	1.271530	1.271530	0	1	0	0	CorrectCommission	0.699238	0.738258	1	0	8.242500e+01
157.015076	1.332874	city	10	1	0.999430	0.999430	0	1	0	0	CorrectCommission	0.545906	0.754345	1	0	8.245000e+01
158.327896	1.292770	city	1	1	1.331541	1.331541	0	1	0	0	CorrectCommission	0.973855	0.772897	1	0	8.247500e+01
159.620804	1.293040	city	5	1	1.207279	1.207279	0	1	0	0	CorrectCommission	0.405225	0.793765	1	0	8.250000e+01
160.907104	1.279552	city	6	1	1.316929	1.316929	0	1	0	0	CorrectCommission	0.906990	0.816436	0	0	8.252500e+01
162.193268	1.292790	city	5	1	1.058263	1.058263	0	1	0	0	CorrectCommission	0.276681	0.840021	0	0	8.255000e+01
163.479523	1.279727	city	9	1	1.209224	1.209224	0	1	0	0	CorrectCommission	0.414122	0.863448	0	0	8.257500e+01
164.779175	1.319565	mountain	3	0	0.000000	1.457873	1	0	0	0	CorrectOmission	1.551954	0.885596	0	0	8.260000e+01
166.085327	1.292746	city	6	1	1.485912	1.485912	0	1	0	0	CorrectCommission	1.680261	0.905508	0	0	8.262500e+01
167.378204	1.292993	city	10	1	0.975041	0.975041	0	1	0	0	CorrectCommission	0.657508	0.922587	0	0	8.265000e+01
168.664536	1.279677	city	6	1	1.583910	1.583910	0	1	0	0	CorrectCommission	2.128709	0.936692	0	0	8.267500e+01
169.977493	1.346240	city	1	1	0.939681	0.939681	0	1	0	0	CorrectCommission	0.819317	0.948094	0	0	8.270000e+01
171.303635	1.306033	city	5	1	1.045909	1.045909	0	1	0	0	CorrectCommission	0.333213	0.957445	0	0	8.272500e+01
172.616440	1.319574	city	6	1	1.122883	1.122883	0	1	0	0	CorrectCommission	0.019022	0.965572	0	0	8.275000e+01
173.916046	1.279650	city	8	1	0.831443	0.831443	0	1	0	0	CorrectCommission	1.314620	0.973319	0	0	8.277500e+01
175.195724	1.279692	city	5	1	1.396639	1.396639	0	1	0	0	CorrectCommission	1.271747	0.981351	0	0	8.280000e+01
176.482025	1.292938	city	2	1	0.872540	0.872540	0	1	0	0	CorrectCommission	1.126557	0.990104	0	0	8.282500e+01
177.788254	1.319513	city	10	1	0.997219	0.997219	0	1	0	0	CorrectCommission	0.556022	0.999727	0	0	8.285000e+01
179.094391	1.292768	city	6	1	1.322685	1.322685	0	1	0	0	CorrectCommission	0.933329	1.010162	0	0	8.287500e+01
180.407257	1.332963	city	9	1	0.917371	0.917371	0	1	0	0	CorrectCommission	0.921409	1.021178	0	0	8.290000e+01
181.726898	1.306299	city	4	1	0.899913	0.899913	0	1	0	0	CorrectCommission	1.001298	1.032499	0	0	8.292500e+01
183.019775	1.279448	city	10	1	0.645304	0.645304	0	1	0	0	CorrectCommission	2.166405	1.043874	0	0	8.295000e+01
184.312607	1.306227	city	9	1	0.752080	0.752080	0	1	0	0	CorrectCommission	1.677789	1.055062	0	0	8.297500e+01
184.965714	9.996702	break	0	1	1.084720	1.084720	0	0	0	0	ThoughtProbe	0.155611	1.065861	0	83	83
195.628891	1.332925	city	10	1	1.191934	1.191934	0	1	0	0	CorrectCommission	0.335004	1.076027	0	0	8.308824e+01
196.941818	1.292930	city	4	1	1.263087	1.263087	0	1	0	0	CorrectCommission	0.660602	1.085188	0	0	8.317647e+01
198.234711	1.292858	mountain	6	0	0.000000	1.385370	1	0	0	0	CorrectOmission	1.220177	1.092783	0	0	8.326471e+01
199.520996	1.279730	city	1	1	1.478743	1.478743	0	1	0	0	CorrectCommission	1.647455	1.098088	0	0	8.335294e+01
200.813980	1.306236	city	7	1	1.463163	1.463163	0	1	0	0	CorrectCommission	1.576162	1.100283	0	0	8.344118e+01
202.126892	1.319595	city	8	1	0.952019	0.952019	0	1	0	0	CorrectCommission	0.762860	1.098525	0	0	8.352941e+01
203.426483	1.279575	city	9	1	1.518540	1.518540	0	1	0	0	CorrectCommission	1.829569	1.092081	0	0	8.361765e+01
204.739380	1.346224	city	5	1	1.355929	1.355929	0	1	0	0	CorrectCommission	1.085454	1.080412	0	0	8.370588e+01
206.058899	1.292815	city	10	1	0.979750	0.979750	0	1	0	0	CorrectCommission	0.635960	1.063280	0	0	8.379412e+01
207.351807	1.292983	city	5	1	1.378981	1.378981	0	1	0	0	CorrectCommission	1.190939	1.040779	0	0	8.388235e+01
208.651337	1.306099	city	2	1	0.889782	0.889782	0	1	0	0	CorrectCommission	1.047661	1.013359	0	0	8.397059e+01
209.950912	1.293052	city	8	1	0.882438	0.882438	0	1	0	0	CorrectCommission	1.081268	0.981840	0	0	8.405882e+01
211.250565	1.306249	city	7	1	0.984557	0.984557	0	1	0	0	CorrectCommission	0.613964	0.947338	0	0	8.414706e+01
212.550079	1.292774	mountain	4	1	0.837364	0.837364	0	0	1	0	CommissionError	1.287528	0.911255	0	0	8.423529e+01
213.836334	1.279728	city	4	1	1.563940	1.563940	0	1	0	0	CorrectCommission	2.037325	0.875125	0	0	8.432353e+01
215.135910	1.319446	city	2	1	1.215568	1.215568	0	1	0	0	CorrectCommission	0.443153	0.840523	0	0	8.441176e+01
216.448792	1.306315	city	1	1	1.061244	1.061244	0	1	0	0	CorrectCommission	0.263038	0.808922	1	0	8.450000e+01
217.748337	1.292762	city	9	1	1.178499	1.178499	0	1	0	0	CorrectCommission	0.273526	0.781469	1	0	8.458824e+01
219.054504	1.319566	city	1	1	1.166781	1.166781	0	1	0	0	CorrectCommission	0.219902	0.758871	1	0	8.467647e+01
220.374100	1.319634	city	7	1	1.181852	1.181852	0	1	0	0	CorrectCommission	0.288870	0.741345	1	0	8.476471e+01
221.680435	1.293029	city	5	1	1.441475	1.441475	0	1	0	0	CorrectCommission	1.476917	0.728633	1	0	8.485294e+01
223.006699	1.359518	city	3	1	1.269267	1.269267	0	1	0	0	CorrectCommission	0.688882	0.720123	1	0	8.494118e+01
224.332916	1.292907	city	9	1	1.025396	1.025396	0	1	0	0	CorrectCommission	0.427084	0.715037	1	0	8.502941e+01
225.640228	1.321720	city	8	1	0.856944	0.856944	0	1	0	0	CorrectCommission	1.197930	0.712572	1	0	8.511765e+01
226.959793	1.317410	city	2	1	0.941480	0.941480	0	1	0	0	CorrectCommission	0.811088	0.712017	1	0	8.520588e+01
228.258270	1.279554	city	9	1	0.971192	0.971192	0	1	0	0	CorrectCommission	0.675122	0.712903	1	0	8.529412e+01
229.557846	1.319596	city	8	1	0.974460	0.974460	0	1	0	0	CorrectCommission	0.660166	0.714965	1	0	8.538235e+01
230.864014	1.292744	city	1	1	1.295631	1.295631	0	1	0	0	CorrectCommission	0.809528	0.718109	1	0	8.547059e+01
232.163589	1.306400	city	3	1	1.115419	1.115419	0	1	0	0	CorrectCommission	0.015130	0.722280	1	0	8.555882e+01
233.456589	1.279580	city	2	1	0.910661	0.910661	0	1	0	0	CorrectCommission	0.952117	0.727448	1	0	8.564706e+01
234.749405	1.306070	city	3	1	0.870554	0.870554	0	1	0	0	CorrectCommission	1.135647	0.733463	1	0	8.573529e+01
236.075653	1.346410	city	9	1	0.994907	0.994907	0	1	0	0	CorrectCommission	0.566602	0.740059	1	0	8.582353e+01
237.395294	1.292885	city	6	1	0.988735	0.988735	0	1	0	0	CorrectCommission	0.594846	0.746922	1	0	8.591176e+01
241.813751	7.544041	break	0	0	0.000000	1.093823	0	0	0	0	ThoughtProbe	0.113955	0.753781	1	86	86
246.232239	1.292917	city	9	1	1.257179	1.257179	0	1	0	0	CorrectCommission	0.633569	0.760566	1	0	8.613043e+01
247.525223	1.293067	city	1	1	1.425808	1.425808	0	1	0	0	CorrectCommission	1.405223	0.767559	1	0	8.626087e+01
248.831467	1.319405	mountain	6	0	0.000000	1.472031	1	0	0	0	CorrectOmission	1.616741	0.775463	1	0	8.639130e+01
250.164337	1.346348	city	4	1	1.304364	1.304364	0	1	0	0	CorrectCommission	0.849491	0.785447	1	0	8.652174e+01
251.491104	1.307176	city	8	1	0.831326	0.831326	0	1	0	0	CorrectCommission	1.315159	0.799022	1	0	8.665217e+01
252.790695	1.292002	city	6	1	1.140225	1.140225	0	1	0	0	CorrectCommission	0.098382	0.817704	0	0	8.678261e+01
254.096390	1.319391	city	9	1	1.069390	1.069390	0	1	0	0	CorrectCommission	0.225764	0.842756	0	0	8.691304e+01
255.409225	1.306285	city	10	1	1.127457	1.127457	0	1	0	0	CorrectCommission	0.039956	0.874757	0	0	8.704348e+01
256.708893	1.293042	city	6	1	1.259486	1.259486	0	1	0	0	CorrectCommission	0.644127	0.913324	0	0	8.717391e+01
258.021851	1.332868	city	7	1	1.018627	1.018627	0	1	0	0	CorrectCommission	0.458060	0.956980	0	0	8.730435e+01
259.348083	1.319578	city	8	1	0.797434	0.797434	0	1	0	0	CorrectCommission	1.470249	1.003213	0	0	8.743478e+01
260.654297	1.292885	city	10	1	0.828520	0.828520	0	1	0	0	CorrectCommission	1.327997	1.048667	0	0	8.756522e+01
261.940552	1.279591	city	6	1	0.858515	0.858515	0	1	0	0	CorrectCommission	1.190739	1.089590	0	0	8.769565e+01
263.220062	1.279429	mountain	2	0	0.000000	1.214901	1	0	0	0	CorrectOmission	0.440102	1.122302	0	0	8.782609e+01
264.506226	1.292922	city	1	1	1.593885	1.593885	0	1	0	0	CorrectCommission	2.174355	1.143723	0	0	8.795652e+01
265.819183	1.333019	mountain	8	0	0.000000	1.691675	1	0	0	0	CorrectOmission	2.621847	1.151727	0	0	8.808696e+01
267.132080	1.292781	city	7	1	1.473399	1.473399	0	1	0	0	CorrectCommission	1.623003	1.145514	0	0	8.821739e+01
268.438263	1.319546	city	3	1	0.904185	0.904185	0	1	0	0	CorrectCommission	0.981751	1.125680	0	0	8.834783e+01
269.757904	1.319724	city	10	1	0.815875	0.815875	0	1	0	0	CorrectCommission	1.385862	1.094068	0	0	8.847826e+01
271.070862	1.306239	city	5	1	1.180319	1.180319	0	1	0	0	CorrectCommission	0.281854	1.053512	0	0	8.860870e+01
272.383789	1.319594	city	2	1	0.789368	0.789368	0	1	0	0	CorrectCommission	1.507161	1.007484	0	0	8.873913e+01
273.683289	1.279402	mountain	10	0	0.000000	0.891590	1	0	0	0	CorrectOmission	1.039387	0.959569	0	0	8.886957e+01
274.989502	1.333037	city	3	1	1.071034	1.071034	0	1	0	0	CorrectCommission	0.218239	0.913131	0	0	89
276.322388	1.332734	city	10	1	0.911751	0.911751	0	1	0	0	CorrectCommission	0.947130	0.870924	0	0	8.913043e+01
277.661865	1.346226	city	3	1	1.159925	1.159925	0	1	0	0	CorrectCommission	0.188531	0.834820	0	0	8.926087e+01
278.981476	1.293001	city	1	1	0.938113	0.938113	0	1	0	0	CorrectCommission	0.826493	0.805791	1	0	8.939130e+01
280.327789	1.399626	city	5	1	0.965155	0.965155	0	1	0	0	CorrectCommission	0.702749	0.783840	1	0	8.952174e+01
281.673981	1.292736	city	6	1	1.048734	1.048734	0	1	0	0	CorrectCommission	0.320286	0.768203	1	0	8.965217e+01
282.960175	1.279629	city	5	1	1.296963	1.296963	0	1	0	0	CorrectCommission	0.815624	0.757513	1	0	8.978261e+01
284.253174	1.306367	city	9	1	0.900466	0.900466	0	1	0	0	CorrectCommission	0.998769	0.750017	1	0	8.991304e+01
285.552795	1.292877	city	6	1	0.823660	0.823660	0	1	0	0	CorrectCommission	1.350238	0.743822	1	0	9.004348e+01
286.845703	1.292942	city	1	1	0.945230	0.945230	0	1	0	0	CorrectCommission	0.793924	0.737111	1	0	9.017391e+01
288.158508	1.332712	city	7	1	1.147181	1.147181	0	1	0	0	CorrectCommission	0.130214	0.728275	1	0	9.030435e+01
289.484741	1.319716	city	3	1	0.986360	0.986360	0	1	0	0	CorrectCommission	0.605713	0.716062	1	0	9.043478e+01
290.797638	1.306081	city	9	1	0.945165	0.945165	0	1	0	0	CorrectCommission	0.794224	0.699636	1	0	9.056522e+01
292.110535	1.319698	city	8	1	0.880502	0.880502	0	1	0	0	CorrectCommission	1.090125	0.678676	1	0	9.069565e+01
293.423492	1.306258	city	2	1	0.811976	0.811976	0	1	0	0	CorrectCommission	1.403704	0.653339	1	0	9.082609e+01
294.723022	1.292777	city	7	1	1.022724	1.022724	0	1	0	0	CorrectCommission	0.439310	0.624297	1	0	9.095652e+01
296.022614	1.306391	city	4	1	1.042426	1.042426	0	1	0	0	CorrectCommission	0.349150	0.592772	1	0	9.108696e+01
297.335571	1.319541	city	5	1	0.967350	0.967350	0	1	0	0	CorrectCommission	0.692704	0.560396	1	0	9.121739e+01
298.655060	1.319423	city	10	1	1.104129	1.104129	0	1	0	0	CorrectCommission	0.066796	0.529086	1	0	9.134783e+01
299.968811	1.308092	city	5	1	1.277614	1.277614	0	1	0	0	CorrectCommission	0.727078	0.500993	1	0	9.147826e+01
301.288452	1.331212	city	9	1	0.953560	0.953560	0	1	0	0	CorrectCommission	0.755807	0.478222	1	0	9.160870e+01
302.607086	1.306052	city	1	1	1.060227	1.060227	0	1	0	0	CorrectCommission	0.267696	0.462723	1	0	9.173913e+01
303.913269	1.306316	city	9	1	1.102293	1.102293	0	1	0	0	CorrectCommission	0.075199	0.456062	1	0	9.186957e+01
308.471771	7.810688	break	0	0	0.000000	1.132837	0	0	0	0	ThoughtProbe	0.064572	0.459218	1	92	92
313.043579	1.332926	city	9	1	1.129385	1.129385	0	1	0	0	CorrectCommission	0.048775	0.472473	1	0	9.187500e+01
314.356567	1.293039	city	7	1	1.069462	1.069462	0	1	0	0	CorrectCommission	0.225434	0.495305	1	0	9.175000e+01
315.642883	1.279583	city	4	1	1.072399	1.072399	0	1	0	0	CorrectCommission	0.211992	0.526385	1	0	9.162500e+01
316.949127	1.332900	city	6	1	0.994386	0.994386	0	1	0	0	CorrectCommission	0.568984	0.563694	1	0	9.150000e+01
318.288666	1.346213	city	8	1	0.828829	0.828829	0	1	0	0	CorrectCommission	1.326585	0.604675	1	0	9.137500e+01
319.608246	1.292907	city	10	1	1.071769	1.071769	0	1	0	0	CorrectCommission	0.214879	0.646460	1	0	9.125000e+01
320.907806	1.306252	city	9	1	1.191148	1.191148	0	1	0	0	CorrectCommission	0.331408	0.686202	1	0	9.112500e+01
322.200653	1.279425	mountain	2	0	0.000000	1.391360	1	0	0	0	CorrectOmission	1.247587	0.721272	1	0	9.100000e+01
323.506897	1.333030	city	5	1	1.466470	1.466470	0	1	0	0	CorrectCommission	1.591296	0.749533	1	0	9.087500e+01
324.826447	1.306109	city	3	1	1.210545	1.210545	0	1	0	0	CorrectCommission	0.420170	0.769511	1	0	9.075000e+01
326.132690	1.306369	city	8	1	0.995802	0.995802	0	1	0	0	CorrectCommission	0.562508	0.780534	1	0	9.062500e+01
327.445679	1.319588	city	5	1	1.512977	1.512977	0	1	0	0	CorrectCommission	1.804115	0.782696	1	0	9.050000e+01
328.805237	1.399517	city	8	1	0.783482	0.783482	0	1	0	0	CorrectCommission	1.534095	0.776769	1	0	9.037500e+01
330.164734	1.319500	city	1	1	1.088158	1.088158	0	1	0	0	CorrectCommission	0.139882	0.764149	1	0	9.025000e+01
331.464294	1.279647	mountain	10	0	0.000000	1.244568	1	0	0	0	CorrectOmission	0.575859	0.746615	1	0	9.012500e+01
332.750580	1.292915	city	7	1	1.192429	1.192429	0	1	0	0	CorrectCommission	0.337270	0.726042	1	0	90
334.056824	1.319556	city	3	1	0.871459	0.871459	0	1	0	0	CorrectCommission	1.131508	0.704305	1	0	8.987500e+01
335.382965	1.332740	city	2	1	1.156860	1.156860	0	1	0	0	CorrectCommission	0.174503	0.683080	1	0	8.975000e+01
336.702545	1.306414	city	4	1	1.058052	1.058052	0	1	0	0	CorrectCommission	0.277648	0.663822	1	0	8.962500e+01
338.015503	1.319478	city	7	1	0.885495	0.885495	0	1	0	0	CorrectCommission	1.067278	0.647729	1	0	8.950000e+01
339.315063	1.279643	city	5	1	1.367979	1.367979	0	1	0	0	CorrectCommission	1.140594	0.635704	1	0	8.937500e+01
340.642181	1.374643	city	9	1	1.026134	1.026134	0	1	0	0	CorrectCommission	0.423703	0.628463	1	0	8.925000e+01
341.981659	1.304312	city	3	1	1.062571	1.062571	0	1	0	0	CorrectCommission	0.256968	0.626551	1	0	8.912500e+01
343.286987	1.306327	city	2	1	0.975234	0.975234	0	1	0	0	CorrectCommission	0.656626	0.630282	1	0	89
344.586609	1.292928	city	6	1	1.154097	1.154097	0	1	0	0	CorrectCommission	0.161862	0.639750	1	0	8.887500e+01
345.886169	1.306151	city	8	1	0.940110	0.940110	0	1	0	0	CorrectCommission	0.817354	0.654813	1	0	8.875000e+01
347.205750	1.333055	city	7	1	1.046865	1.046865	0	1	0	0	CorrectCommission	0.328840	0.675011	1	0	8.862500e+01
348.538696	1.332795	city	2	1	0.929144	0.929144	0	1	0	0	CorrectCommission	0.867537	0.699664	1	0	8.850000e+01
349.858246	1.306335	city	8	1	0.998737	0.998737	0	1	0	0	CorrectCommission	0.549077	0.727821	1	0	8.837500e+01
351.157867	1.292914	mountain	8	0	0.000000	1.227567	1	0	0	0	CorrectOmission	0.498062	0.758369	1	0	8.825000e+01
352.450714	1.292733	city	1	1	1.326133	1.326133	0	1	0	0	CorrectCommission	0.949105	0.790112	1	0	8.812500e+01
353.776917	1.359702	city	2	1	1.004932	1.004932	0	1	0	0	CorrectCommission	0.520725	0.821911	0	0	88
355.096558	1.279575	city	5	1	1.498584	1.498584	0	1	0	0	CorrectCommission	1.738253	0.852736	0	0	8.787500e+01
356.382751	1.292781	city	10	1	0.757290	0.757290	0	1	0	0	CorrectCommission	1.653951	0.881692	0	0	8.775000e+01
357.688965	1.319665	city	8	1	1.060767	1.060767	0	1	0	0	CorrectCommission	0.265223	0.908086	0	0	8.762500e+01
358.995178	1.292792	city	1	1	1.038040	1.038040	0	1	0	0	CorrectCommission	0.369223	0.931448	0	0	8.750000e+01
360.294800	1.306403	city	2	1	1.311797	1.311797	0	1	0	0	CorrectCommission	0.883503	0.951395	0	0	8.737500e+01
361.647675	1.399375	city	8	1	0.932085	0.932085	0	1	0	0	CorrectCommission	0.854076	0.967634	0	0	8.725000e+01
362.993896	1.293080	city	5	1	1.594080	1.594080	0	1	0	0	CorrectCommission	2.175247	0.979923	0	0	8.712500e+01
367.265900	7.250918	break	0	1	1.149266	1.149266	0	0	0	0	ThoughtProbe	0.139754	0.988052	0	87	87
371.531158	1.279585	mountain	6	0	0.000000	1.337194	1	0	0	0	CorrectOmission	0.999721	0.991955	0	0	8.714706e+01
372.824066	1.306269	city	9	1	1.572010	1.572010	0	1	0	0	CorrectCommission	2.074250	0.991571	0	0	8.729412e+01
374.176880	1.399358	city	6	1	1.267859	1.267859	0	1	0	0	CorrectCommission	0.682443	0.986924	0	0	8.744118e+01
375.536438	1.319716	city	9	1	0.911380	0.911380	0	1	0	0	CorrectCommission	0.948826	0.978180	0	0	8.758824e+01
376.842743	1.292905	city	6	1	0.911185	0.911185	0	1	0	0	CorrectCommission	0.949719	0.965558	0	0	8.773529e+01
378.128998	1.279610	city	9	1	1.000891	1.000891	0	1	0	0	CorrectCommission	0.539218	0.949302	0	0	8.788235e+01
379.421906	1.306207	city	10	1	0.819212	0.819212	0	1	0	0	CorrectCommission	1.370591	0.929715	0	0	8.802941e+01
380.714722	1.279437	city	6	1	1.315288	1.315288	0	1	0	0	CorrectCommission	0.899479	0.907083	0	0	8.817647e+01
382.020905	1.332886	city	1	1	1.225742	1.225742	0	1	0	0	CorrectCommission	0.489713	0.881799	0	0	8.832353e+01
383.367188	1.359701	city	10	1	0.927244	0.927244	0	1	0	0	CorrectCommission	0.876229	0.854331	0	0	8.847059e+01
384.686798	1.279509	city	2	1	1.575863	1.575863	0	1	0	0	CorrectCommission	2.091882	0.825270	0	0	8.861765e+01
386.006378	1.359669	city	3	1	1.018615	1.018615	0	1	0	0	CorrectCommission	0.458113	0.795336	1	0	8.876471e+01
387.345978	1.319547	city	9	1	0.987381	0.987381	0	1	0	0	CorrectCommission	0.601040	0.765402	1	0	8.891176e+01
388.645538	1.279576	mountain	3	0	0.000000	1.127953	1	0	0	0	CorrectOmission	0.042225	0.736412	1	0	8.905882e+01
389.944977	1.319267	city	5	1	1.289514	1.289514	0	1	0	0	CorrectCommission	0.781534	0.709302	1	0	8.920588e+01
391.244446	1.279710	city	6	1	1.321245	1.321245	0	1	0	0	CorrectCommission	0.926737	0.684891	1	0	8.935294e+01
392.584167	1.399679	city	8	1	0.922156	0.922156	0	1	0	0	CorrectCommission	0.899516	0.663860	1	0	8.950000e+01
393.963715	1.359463	city	1	1	1.027768	1.027768	0	1	0	0	CorrectCommission	0.416229	0.646683	1	0	8.964706e+01
395.296631	1.306337	city	10	1	1.130939	1.130939	0	1	0	0	CorrectCommission	0.055888	0.633559	1	0	8.979412e+01
396.622925	1.346244	city	4	1	1.314566	1.314566	0	1	0	0	CorrectCommission	0.896176	0.624445	1	0	8.994118e+01
397.962494	1.332889	city	9	1	1.004552	1.004552	0	1	0	0	CorrectCommission	0.522464	0.619035	1	0	9.008824e+01
399.268707	1.279564	city	4	1	1.073749	1.073749	0	1	0	0	CorrectCommission	0.205816	0.616962	1	0	9.023529e+01
400.574860	1.332737	city	1	1	1.075370	1.075370	0	1	0	0	CorrectCommission	0.198399	0.617784	1	0	9.038235e+01
401.927734	1.373039	city	9	1	0.762490	0.762490	0	1	0	0	CorrectCommission	1.630154	0.621117	1	0	9.052941e+01
403.267395	1.306237	city	8	1	0.974526	0.974526	0	1	0	0	CorrectCommission	0.659865	0.626698	1	0	9.067647e+01
404.566956	1.292910	city	10	1	0.888278	0.888278	0	1	0	0	CorrectCommission	1.054539	0.634474	1	0	9.082353e+01
405.873199	1.319606	city	1	1	1.112214	1.112214	0	1	0	0	CorrectCommission	0.029798	0.644509	1	0	9.097059e+01
407.186127	1.306227	city	7	1	1.273758	1.273758	0	1	0	0	CorrectCommission	0.709435	0.656958	1	0	9.111765e+01
408.505615	1.332723	city	4	1	1.062758	1.062758	0	1	0	0	CorrectCommission	0.256110	0.671906	1	0	9.126471e+01
409.818481	1.293015	city	1	1	1.018315	1.018315	0	1	0	0	CorrectCommission	0.459483	0.689361	1	0	9.141176e+01
411.118042	1.306130	city	8	1	1.276333	1.276333	0	1	0	0	CorrectCommission	0.721218	0.709112	1	0	9.155882e+01
412.417572	1.292901	city	1	1	1.194723	1.194723	0	1	0	0	CorrectCommission	0.347768	0.730731	1	0	9.170588e+01
413.703796	1.279590	city	4	1	1.429157	1.429157	0	1	0	0	CorrectCommission	1.420551	0.753580	1	0	9.185294e+01
417.929108	7.171029	break	0	0	0.000000	1.379864	0	0	0	0	ThoughtProbe	1.194983	0.776877	1	92	92
422.181030	1.332811	city	7	1	1.205137	1.205137	0	1	0	0	CorrectCommission	0.395424	0.799771	1	0	9.202941e+01
423.520569	1.346238	city	4	1	1.063271	1.063271	0	1	0	0	CorrectCommission	0.253766	0.821449	0	0	9.205882e+01
424.846893	1.306403	city	10	1	0.716926	0.716926	0	1	0	0	CorrectCommission	1.838658	0.841121	0	0	9.208824e+01
426.199829	1.399518	city	9	1	1.281601	1.281601	0	1	0	0	CorrectCommission	0.745326	0.858064	0	0	9.211765e+01
427.552734	1.306268	city	4	1	0.974195	0.974195	0	1	0	0	CorrectCommission	0.661383	0.871716	0	0	9.214706e+01
428.852295	1.292875	mountain	9	0	0.000000	1.236633	1	0	0	0	CorrectOmission	0.539549	0.881643	0	0	9.217647e+01
430.151886	1.306269	city	9	1	1.463809	1.463809	0	1	0	0	CorrectCommission	1.579119	0.887612	0	0	9.220588e+01
431.484802	1.359548	city	4	1	1.050616	1.050616	0	1	0	0	CorrectCommission	0.311676	0.889524	0	0	9.223529e+01
432.811005	1.292890	city	10	1	0.825528	0.825528	0	1	0	0	CorrectCommission	1.341689	0.887607	0	0	9.226471e+01
434.103912	1.292901	city	6	1	1.351479	1.351479	0	1	0	0	CorrectCommission	1.065090	0.882312	0	0	9.229412e+01
435.423492	1.346251	city	3	1	0.824507	0.824507	0	1	0	0	CorrectCommission	1.346359	0.874421	0	0	9.232353e+01
436.756317	1.319398	city	10	1	0.856800	0.856800	0	1	0	0	CorrectCommission	1.198588	0.864917	0	0	9.235294e+01
438.082428	1.332877	city	5	1	1.114247	1.114247	0	1	0	0	CorrectCommission	0.020497	0.854975	0	0	9.238235e+01
439.408661	1.319568	city	4	1	1.138383	1.138383	0	1	0	0	CorrectCommission	0.089954	0.845847	0	0	9.241176e+01
440.708313	1.279737	city	5	1	1.474951	1.474951	0	1	0	0	CorrectCommission	1.630105	0.838675	0	0	9.244118e+01
442.007874	1.319406	city	6	1	1.295628	1.295628	0	1	0	0	CorrectCommission	0.809512	0.834298	0	0	9.247059e+01
443.354126	1.373046	city	10	1	0.942516	0.942516	0	1	0	0	CorrectCommission	0.806344	0.833231	0	0	9.250000e+01
444.707001	1.332738	city	4	1	1.288632	1.288632	0	1	0	0	CorrectCommission	0.777500	0.835477	0	0	9.252941e+01
446.026581	1.306392	city	3	1	0.972398	0.972398	0	1	0	0	CorrectCommission	0.669602	0.840489	0	0	9.255882e+01
447.346222	1.332894	city	5	1	1.126617	1.126617	0	1	0	0	CorrectCommission	0.036109	0.847231	0	0	9.258824e+01
448.659027	1.292742	city	7	1	1.372778	1.372778	0	1	0	0	CorrectCommission	1.162555	0.854241	0	0	9.261765e+01
449.978607	1.346426	city	5	1	1.287134	1.287134	0	1	0	0	CorrectCommission	0.770642	0.859814	0	0	9.264706e+01
451.291565	1.279498	mountain	9	0	0.000000	1.353475	1	0	0	0	CorrectOmission	1.074223	0.862276	0	0	9.267647e+01
452.571045	1.279457	city	4	1	1.290454	1.290454	0	1	0	0	CorrectCommission	0.785837	0.860222	0	0	9.270588e+01
453.884003	1.346413	city	10	1	0.816723	0.816723	0	1	0	0	CorrectCommission	1.381981	0.852743	0	0	9.273529e+01
455.216919	1.319455	city	6	1	1.665381	1.665381	0	1	0	0	CorrectCommission	2.501522	0.839585	0	0	9.276471e+01
456.543152	1.333019	city	1	1	1.106784	1.106784	0	1	0	0	CorrectCommission	0.054647	0.821174	0	0	9.279412e+01
457.876038	1.332704	city	10	1	0.903766	0.903766	0	1	0	0	CorrectCommission	0.983665	0.798624	1	0	9.282353e+01
459.215576	1.346372	city	5	1	1.071192	1.071192	0	1	0	0	CorrectCommission	0.217516	0.773390	1	0	9.285294e+01
460.555176	1.332879	city	10	1	0.939478	0.939478	0	1	0	0	CorrectCommission	0.820247	0.747149	1	0	9.288235e+01
461.894745	1.346235	city	3	1	1.152803	1.152803	0	1	0	0	CorrectCommission	0.155938	0.721470	1	0	9.291176e+01
463.227600	1.319500	city	4	1	1.138461	1.138461	0	1	0	0	CorrectCommission	0.090307	0.697701	1	0	9.294118e+01
464.540527	1.306343	city	8	1	0.804704	0.804704	0	1	0	0	CorrectCommission	1.436980	0.676783	1	0	9.297059e+01
468.659149	6.930882	break	0	0	0.000000	0.896225	0	0	0	0	ThoughtProbe	1.018175	0.659254	1	93	93
472.771027	1.292885	mountain	6	0	0.000000	1.135362	1	0	0	0	CorrectOmission	0.076127	0.645352	1	0	9.312500e+01
474.084015	1.333055	city	3	1	1.244452	1.244452	0	1	0	0	CorrectCommission	0.575329	0.635117	1	0	9.325000e+01
475.410309	1.319562	city	10	1	0.945833	0.945833	0	1	0	0	CorrectCommission	0.791165	0.628442	1	0	9.337500e+01
476.729797	1.319425	city	1	1	1.170699	1.170699	0	1	0	0	CorrectCommission	0.237833	0.625255	1	0	9.350000e+01
478.055969	1.332902	city	10	1	0.860679	0.860679	0	1	0	0	CorrectCommission	1.180834	0.625633	1	0	9.362500e+01
479.402191	1.359528	city	3	1	1.058062	1.058062	0	1	0	0	CorrectCommission	0.277601	0.629733	1	0	9.375000e+01
480.741760	1.319598	city	9	1	0.849363	0.849363	0	1	0	0	CorrectCommission	1.232619	0.637884	1	0	9.387500e+01
482.061401	1.319699	city	2	1	1.125632	1.125632	0	1	0	0	CorrectCommission	0.031604	0.650467	1	0	94
483.387695	1.332895	city	8	1	1.070806	1.070806	0	1	0	0	CorrectCommission	0.219285	0.667905	1	0	9.412500e+01
484.700531	1.292814	city	1	1	0.965223	0.965223	0	1	0	0	CorrectCommission	0.702439	0.690523	1	0	9.425000e+01
486.020111	1.346319	city	7	1	1.250034	1.250034	0	1	0	0	CorrectCommission	0.600874	0.718510	1	0	9.437500e+01
487.353058	1.319558	city	6	1	0.985749	0.985749	0	1	0	0	CorrectCommission	0.608511	0.751889	1	0	9.450000e+01
488.659119	1.292586	city	1	1	0.911903	0.911903	0	1	0	0	CorrectCommission	0.946431	0.790463	1	0	9.462500e+01
489.978638	1.346419	city	10	1	0.843364	0.843364	0	1	0	0	CorrectCommission	1.260068	0.833749	0	0	9.475000e+01
491.305023	1.306393	mountain	2	0	0.000000	1.025866	1	0	0	0	CorrectOmission	0.424930	0.881033	0	0	9.487500e+01
492.618011	1.319571	mountain	8	0	0.000000	1.273910	1	0	0	0	CorrectOmission	0.710133	0.931249	0	0	95
493.930817	1.306040	city	5	1	1.401998	1.401998	0	1	0	0	CorrectCommission	1.296267	0.982988	0	0	9.512500e+01
495.336914	1.506167	city	1	1	1.224630	1.224630	0	1	0	0	CorrectCommission	0.484621	1.034444	0	0	9.525000e+01
496.769806	1.359593	city	7	1	0.829863	0.829863	0	1	0	0	CorrectCommission	1.321850	1.083539	0	0	9.537500e+01
498.102722	1.306220	city	9	1	0.907309	0.907309	0	1	0	0	CorrectCommission	0.967456	1.127931	0	0	9.550000e+01
499.428986	1.346346	city	6	1	0.832011	0.832011	0	1	0	0	CorrectCommission	1.312020	1.165247	0	0	9.562500e+01
500.775299	1.346270	city	2	1	0.818413	0.818413	0	1	0	0	CorrectCommission	1.374249	1.193296	0	0	9.575000e+01
502.114868	1.332878	city	6	1	0.904767	0.904767	0	1	0	0	CorrectCommission	0.979085	1.210334	0	0	9.587500e+01
503.447754	1.332894	city	7	1	1.730888	1.730888	0	1	0	0	CorrectCommission	2.801285	1.215313	0	0	96
504.767242	1.306068	city	8	0	0.000000	1.402768	0	0	0	1	OmissionError	1.299791	1.207978	0	0	9.612500e+01
506.106812	1.373067	city	7	1	0.799847	0.799847	0	1	0	0	CorrectCommission	1.459205	1.189091	0	0	9.625000e+01
507.439728	1.292779	city	1	1	0.801566	0.801566	0	1	0	0	CorrectCommission	1.451338	1.160192	0	0	9.637500e+01
508.732544	1.292874	city	6	1	1.465044	1.465044	0	1	0	0	CorrectCommission	1.584768	1.123534	0	0	9.650000e+01
510.078766	1.399569	city	4	1	0.989375	0.989375	0	1	0	0	CorrectCommission	0.591914	1.081729	0	0	9.662500e+01
511.465057	1.372995	city	9	1	1.195895	1.195895	0	1	0	0	CorrectCommission	0.353129	1.037498	0	0	9.675000e+01
512.817993	1.332916	city	2	1	1.241124	1.241124	0	1	0	0	CorrectCommission	0.560101	0.993318	0	0	9.687500e+01
514.157593	1.346209	city	8	1	0.959120	0.959120	0	1	0	0	CorrectCommission	0.730363	0.951196	0	0	97
515.497131	1.332887	city	5	1	0.909940	0.909940	0	1	0	0	CorrectCommission	0.955414	0.912552	0	0	9.712500e+01
516.810059	1.292936	city	7	1	1.528300	1.528300	0	1	0	0	CorrectCommission	1.874232	0.878207	0	0	9.725000e+01
518.129517	1.346041	city	2	1	1.177268	1.177268	0	1	0	0	CorrectCommission	0.267891	0.848415	0	0	9.737500e+01
519.442322	1.279612	city	7	1	1.351337	1.351337	0	1	0	0	CorrectCommission	1.064442	0.823022	0	0	9.750000e+01
520.768677	1.373028	city	3	1	1.172225	1.172225	0	1	0	0	CorrectCommission	0.244814	0.801469	1	0	9.762500e+01
522.094971	1.279580	city	4	1	1.341814	1.341814	0	1	0	0	CorrectCommission	1.020865	0.783011	1	0	9.775000e+01
523.454529	1.439547	city	10	1	1.148162	1.148162	0	1	0	0	CorrectCommission	0.134703	0.766681	1	0	9.787500e+01
524.174316	10.276759	break	0	0	0.000000	0.954510	0	0	0	0	ThoughtProbe	0.751458	0.751458	1	98	98
