onset	duration	trial_type	image_type	Press	ReactionTime	ReactionTime_Interpolated	CorrectOmission	CorrectCommission	CommissionError	OmissionError	response_type	nonsmoothVarianceTimeCourse	VarianceTimeCourse	In_the_Zone	ThoughtProbe	ThoughtProbe_Interpolated
0.652869	1.279425	city	4	1	1.817396	1.817396	0	1	0	0	CorrectCommission	1.879276	1.879276	0	0	69
1.932446	1.279728	city	1	1	1.447724	1.447724	0	1	0	0	CorrectCommission	0.565816	1.672842	0	0	69
3.212100	1.279581	city	10	1	1.289427	1.289427	0	1	0	0	CorrectCommission	0.003385	1.472931	0	0	69
4.491603	1.279425	mountain	1	0	0.000000	1.084204	1	0	0	0	CorrectOmission	0.725780	1.285430	0	0	69
5.777849	1.293067	city	9	1	0.994078	0.994078	0	1	0	0	CorrectCommission	1.046002	1.115124	0	0	69
7.064163	1.279560	city	4	1	1.181071	1.181071	0	1	0	0	CorrectCommission	0.381610	0.965359	0	0	69
8.343740	1.279592	city	5	1	1.083545	1.083545	0	1	0	0	CorrectCommission	0.728120	0.837955	0	0	69
9.623316	1.279562	city	7	1	1.316334	1.316334	0	1	0	0	CorrectCommission	0.098985	0.733229	0	0	69
10.909486	1.292779	city	5	1	1.403204	1.403204	0	1	0	0	CorrectCommission	0.407636	0.650283	1	0	69
12.195725	1.279700	city	8	1	1.025751	1.025751	0	1	0	0	CorrectCommission	0.933465	0.587257	1	0	69
13.475300	1.279449	city	4	1	1.291773	1.291773	0	1	0	0	CorrectCommission	0.011717	0.541710	1	0	69
14.768223	1.306396	city	2	1	1.240262	1.240262	0	1	0	0	CorrectCommission	0.171301	0.510955	1	0	69
16.061201	1.279560	city	10	1	1.153988	1.153988	0	1	0	0	CorrectCommission	0.477835	0.492248	1	0	69
17.340769	1.279578	mountain	9	0	0.000000	1.427644	1	0	0	0	CorrectOmission	0.494472	0.483029	1	0	69
18.620296	1.279476	city	6	1	1.618756	1.618756	0	1	0	0	CorrectCommission	1.173498	0.480987	1	0	69
19.899874	1.279679	city	10	1	1.284851	1.284851	0	1	0	0	CorrectCommission	0.012874	0.484082	1	0	69
21.179497	1.279569	city	3	1	1.194458	1.194458	0	1	0	0	CorrectCommission	0.334045	0.490590	1	0	69
22.459038	1.279513	mountain	3	0	0.000000	1.275255	1	0	0	0	CorrectOmission	0.046969	0.498989	1	0	69
23.738546	1.279505	city	5	1	1.401674	1.401674	0	1	0	0	CorrectCommission	0.402200	0.508012	1	0	69
25.018108	1.279620	city	10	1	1.448144	1.448144	0	1	0	0	CorrectCommission	0.567308	0.516602	1	0	69
26.297697	1.279555	city	7	1	1.691154	1.691154	0	1	0	0	CorrectCommission	1.430731	0.523954	1	0	69
27.590597	1.306245	mountain	9	0	0.000000	1.484785	1	0	0	0	CorrectOmission	0.697498	0.529517	1	0	69
28.883514	1.279590	city	10	1	1.288223	1.288223	0	1	0	0	CorrectCommission	0.000893	0.533070	1	0	69
30.163082	1.279547	city	3	1	1.560653	1.560653	0	1	0	0	CorrectCommission	0.967059	0.534649	1	0	69
31.442717	1.279723	city	4	1	1.445280	1.445280	0	1	0	0	CorrectCommission	0.557133	0.534447	1	0	69
32.735710	1.306266	city	7	1	1.369417	1.369417	0	1	0	0	CorrectCommission	0.287590	0.532772	1	0	69
34.035297	1.292904	city	3	1	1.102554	1.102554	0	1	0	0	CorrectCommission	0.660581	0.529900	1	0	69
35.321533	1.279574	city	9	1	1.340050	1.340050	0	1	0	0	CorrectCommission	0.183249	0.526004	1	0	69
36.601128	1.279612	city	3	1	1.234664	1.234664	0	1	0	0	CorrectCommission	0.191190	0.521113	1	0	69
37.880642	1.279419	city	8	1	1.043928	1.043928	0	1	0	0	CorrectCommission	0.868882	0.515114	1	0	69
39.160141	1.279578	city	10	1	1.025659	1.025659	0	1	0	0	CorrectCommission	0.933792	0.507787	1	0	69
40.439716	1.279571	city	4	1	1.298463	1.298463	0	1	0	0	CorrectCommission	0.035488	0.498933	1	0	69
41.732616	1.306231	city	2	1	1.102880	1.102880	0	1	0	0	CorrectCommission	0.659423	0.488536	1	0	69
43.025532	1.279596	city	9	1	1.449247	1.449247	0	1	0	0	CorrectCommission	0.571230	0.476797	1	0	69
44.311848	1.293042	city	10	1	1.538218	1.538218	0	1	0	0	CorrectCommission	0.887345	0.464276	1	0	69
45.604813	1.292887	city	4	1	1.505148	1.505148	0	1	0	0	CorrectCommission	0.769847	0.451891	1	0	69
46.930950	1.359389	city	8	1	1.295859	1.295859	0	1	0	0	CorrectCommission	0.026235	0.440880	1	0	69
48.250526	1.279763	city	4	1	1.362242	1.362242	0	1	0	0	CorrectCommission	0.262097	0.432723	1	0	69
49.550098	1.319383	city	2	1	1.276444	1.276444	0	1	0	0	CorrectCommission	0.042747	0.428898	1	0	69
50.856339	1.293097	city	5	1	1.155828	1.155828	0	1	0	0	CorrectCommission	0.471300	0.430754	1	0	69
52.149265	1.292755	city	3	1	1.270944	1.270944	0	1	0	0	CorrectCommission	0.062286	0.439254	1	0	69
53.435417	1.279551	city	1	1	1.466237	1.466237	0	1	0	0	CorrectCommission	0.631594	0.454851	1	0	69
54.714977	1.279571	city	9	1	1.444826	1.444826	0	1	0	0	CorrectCommission	0.555519	0.477301	1	0	69
55.994606	1.279684	city	2	1	1.347418	1.347418	0	1	0	0	CorrectCommission	0.209429	0.505645	1	0	69
57.280930	1.292963	city	9	1	1.391831	1.391831	0	1	0	0	CorrectCommission	0.367229	0.538250	1	0	69
57.927410	8.117159	break	0	0	0.000000	1.261619	0	0	0	0	ThoughtProbe	0.095418	0.572847	1	69	69
66.691116	1.293090	mountain	9	1	1.202358	1.202358	0	0	1	0	CommissionError	0.305977	0.606802	1	0	6.950000e+01
67.977379	1.279442	city	9	1	1.459620	1.459620	0	1	0	0	CorrectCommission	0.608086	0.637375	1	0	70
69.256889	1.279572	city	4	1	1.678645	1.678645	0	1	0	0	CorrectCommission	1.386287	0.662062	1	0	7.050000e+01
70.543198	1.293041	city	3	1	1.634647	1.634647	0	1	0	0	CorrectCommission	1.229961	0.678905	1	0	71
71.829506	1.279580	city	7	1	1.657708	1.657708	0	1	0	0	CorrectCommission	1.311897	0.686767	1	0	7.150000e+01
73.115677	1.292769	city	8	1	1.734034	1.734034	0	1	0	0	CorrectCommission	1.583085	0.685429	1	0	72
74.401848	1.279575	city	5	1	1.454964	1.454964	0	1	0	0	CorrectCommission	0.591543	0.675571	1	0	7.250000e+01
75.681427	1.279576	city	1	1	1.406783	1.406783	0	1	0	0	CorrectCommission	0.420353	0.658648	1	0	73
76.960922	1.279409	city	4	1	1.287006	1.287006	0	1	0	0	CorrectCommission	0.005218	0.636550	1	0	7.350000e+01
78.240585	1.279923	city	7	1	1.187843	1.187843	0	1	0	0	CorrectCommission	0.357547	0.611327	1	0	74
79.520256	1.279425	city	10	1	1.093075	1.093075	0	1	0	0	CorrectCommission	0.694261	0.584877	1	0	7.450000e+01
80.799789	1.279632	city	9	1	1.241320	1.241320	0	1	0	0	CorrectCommission	0.167541	0.558756	1	0	75
82.079430	1.279657	city	8	1	1.560713	1.560713	0	1	0	0	CorrectCommission	0.967270	0.534112	1	0	7.550000e+01
83.358971	1.279428	city	7	1	1.395919	1.395919	0	1	0	0	CorrectCommission	0.381752	0.511637	1	0	76
84.645233	1.293084	mountain	3	0	0.000000	1.444247	1	0	0	0	CorrectOmission	0.553463	0.491724	1	0	7.650000e+01
85.931549	1.279553	city	9	1	1.485263	1.485263	0	1	0	0	CorrectCommission	0.699193	0.474559	1	0	77
87.217781	1.292908	city	7	1	1.298532	1.298532	0	1	0	0	CorrectCommission	0.035732	0.460284	1	0	7.750000e+01
88.503967	1.279470	city	2	1	1.040555	1.040555	0	1	0	0	CorrectCommission	0.880869	0.449110	1	0	78
89.783546	1.279688	city	10	1	1.351439	1.351439	0	1	0	0	CorrectCommission	0.223714	0.441295	1	0	7.850000e+01
91.063110	1.279437	city	8	1	1.347251	1.347251	0	1	0	0	CorrectCommission	0.208835	0.437269	1	0	79
92.349304	1.292952	city	3	1	1.268418	1.268418	0	1	0	0	CorrectCommission	0.071262	0.437505	1	0	7.950000e+01
93.635620	1.279681	city	5	1	1.525591	1.525591	0	1	0	0	CorrectCommission	0.842481	0.442468	1	0	80
94.915253	1.279580	city	9	1	1.458129	1.458129	0	1	0	0	CorrectCommission	0.602787	0.452499	1	0	8.050000e+01
96.194824	1.279574	mountain	10	0	0.000000	1.353609	1	0	0	0	CorrectOmission	0.231423	0.467736	1	0	81
97.474365	1.279502	city	5	1	1.296772	1.296772	0	1	0	0	CorrectCommission	0.029480	0.487996	1	0	8.150000e+01
98.753876	1.279524	city	8	1	1.372359	1.372359	0	1	0	0	CorrectCommission	0.298043	0.512727	1	0	82
100.046768	1.306258	city	9	1	1.378051	1.378051	0	1	0	0	CorrectCommission	0.318267	0.540978	1	0	8.250000e+01
101.339668	1.279538	city	5	1	1.134889	1.134889	0	1	0	0	CorrectCommission	0.545694	0.571440	1	0	83
102.619339	1.279801	city	4	1	1.517445	1.517445	0	1	0	0	CorrectCommission	0.813538	0.602530	1	0	8.350000e+01
103.899002	1.279527	city	5	1	1.597423	1.597423	0	1	0	0	CorrectCommission	1.097701	0.632471	1	0	84
105.191872	1.306218	city	4	1	1.558978	1.558978	0	1	0	0	CorrectCommission	0.961106	0.659417	1	0	8.450000e+01
106.498100	1.306244	city	7	1	1.475841	1.475841	0	1	0	0	CorrectCommission	0.665719	0.681587	1	0	85
107.790939	1.279433	city	6	1	1.400644	1.400644	0	1	0	0	CorrectCommission	0.398541	0.697350	1	0	8.550000e+01
109.070473	1.279635	city	8	1	1.348163	1.348163	0	1	0	0	CorrectCommission	0.212075	0.705382	1	0	86
110.350075	1.279563	city	2	1	1.564955	1.564955	0	1	0	0	CorrectCommission	0.982344	0.704752	1	0	8.650000e+01
111.629700	1.279683	city	3	1	1.668234	1.668234	0	1	0	0	CorrectCommission	1.349297	0.695047	1	0	87
112.909279	1.279486	city	2	1	1.825613	1.825613	0	1	0	0	CorrectCommission	1.908470	0.676489	1	0	8.750000e+01
114.188797	1.279538	city	10	1	1.287916	1.287916	0	1	0	0	CorrectCommission	0.001985	0.649948	1	0	88
115.475014	1.292898	city	7	1	1.540477	1.540477	0	1	0	0	CorrectCommission	0.895372	0.617026	1	0	8.850000e+01
119.960258	7.677590	break	0	0	0.000000	1.480552	0	0	0	0	ThoughtProbe	0.682458	0.579829	1	89	89
124.438866	1.279634	city	3	1	1.360342	1.360342	0	1	0	0	CorrectCommission	0.255345	0.540939	1	0	8.838235e+01
125.725136	1.292902	city	5	1	1.432044	1.432044	0	1	0	0	CorrectCommission	0.510106	0.503172	1	0	8.776471e+01
127.011368	1.279561	city	1	1	1.407433	1.407433	0	1	0	0	CorrectCommission	0.422664	0.469298	1	0	8.714706e+01
128.290939	1.279598	city	7	1	1.321240	1.321240	0	1	0	0	CorrectCommission	0.116414	0.441822	1	0	8.652941e+01
129.590515	1.319540	city	8	1	1.329212	1.329212	0	1	0	0	CorrectCommission	0.144742	0.422761	1	0	8.591176e+01
130.903320	1.306079	city	5	1	1.281816	1.281816	0	1	0	0	CorrectCommission	0.023659	0.413440	1	0	8.529412e+01
132.196167	1.279601	mountain	5	0	0.000000	1.346462	1	0	0	0	CorrectOmission	0.206030	0.414394	1	0	8.467647e+01
133.475769	1.279609	city	6	1	1.416459	1.416459	0	1	0	0	CorrectCommission	0.454731	0.425281	1	0	8.405882e+01
134.768753	1.306365	city	8	1	1.385115	1.385115	0	1	0	0	CorrectCommission	0.343364	0.444904	1	0	8.344118e+01
136.074890	1.305914	city	3	1	1.258305	1.258305	0	1	0	0	CorrectCommission	0.107193	0.471319	1	0	8.282353e+01
137.374390	1.293079	city	6	1	1.078525	1.078525	0	1	0	0	CorrectCommission	0.745958	0.501993	1	0	8.220588e+01
138.660751	1.279645	city	1	1	1.343818	1.343818	0	1	0	0	CorrectCommission	0.196637	0.533999	1	0	8.158824e+01
139.940414	1.279668	city	4	1	1.183824	1.183824	0	1	0	0	CorrectCommission	0.371826	0.564361	1	0	8.097059e+01
141.219955	1.279425	city	7	1	1.100087	1.100087	0	1	0	0	CorrectCommission	0.669348	0.590297	1	0	8.035294e+01
142.499527	1.279714	city	4	1	1.027916	1.027916	0	1	0	0	CorrectCommission	0.925776	0.609561	1	0	7.973529e+01
143.785782	1.292795	city	2	1	0.763405	0.763405	0	1	0	0	CorrectCommission	1.865589	0.620700	1	0	7.911765e+01
145.085373	1.306395	city	4	1	1.001847	1.001847	0	1	0	0	CorrectCommission	1.018397	0.623185	1	0	7.850000e+01
146.384933	1.292708	city	10	1	1.038459	1.038459	0	1	0	0	CorrectCommission	0.888315	0.617518	1	0	7.788235e+01
147.684387	1.306213	city	4	1	1.284110	1.284110	0	1	0	0	CorrectCommission	0.015508	0.605105	1	0	7.726471e+01
148.977310	1.279612	city	5	1	1.150990	1.150990	0	1	0	0	CorrectCommission	0.488488	0.588164	1	0	7.664706e+01
150.263596	1.292966	city	10	1	0.989932	0.989932	0	1	0	0	CorrectCommission	1.060733	0.569366	1	0	7.602941e+01
151.563171	1.306199	city	4	1	1.276300	1.276300	0	1	0	0	CorrectCommission	0.043257	0.551581	1	0	7.541176e+01
152.856140	1.279727	city	1	1	1.322292	1.322292	0	1	0	0	CorrectCommission	0.120154	0.537613	1	0	7.479412e+01
154.149109	1.306207	city	10	1	1.163634	1.163634	0	1	0	0	CorrectCommission	0.443564	0.529866	1	0	7.417647e+01
155.441940	1.279452	mountain	6	0	0.000000	1.336211	1	0	0	0	CorrectOmission	0.169609	0.530162	1	0	7.355882e+01
156.721527	1.279729	city	5	1	1.529707	1.529707	0	1	0	0	CorrectCommission	0.857107	0.539598	1	0	7.294118e+01
158.007843	1.292894	city	8	1	1.433806	1.433806	0	1	0	0	CorrectCommission	0.516366	0.558410	1	0	7.232353e+01
159.307404	1.306237	city	9	1	1.244923	1.244923	0	1	0	0	CorrectCommission	0.154742	0.585970	1	0	7.170588e+01
160.613556	1.306082	city	10	1	1.158789	1.158789	0	1	0	0	CorrectCommission	0.460779	0.620758	1	0	7.108824e+01
161.913132	1.293055	city	3	1	1.144956	1.144956	0	1	0	0	CorrectCommission	0.509927	0.660426	1	0	7.047059e+01
163.199463	1.279606	city	2	1	1.177270	1.177270	0	1	0	0	CorrectCommission	0.395113	0.701976	1	0	6.985294e+01
164.478973	1.279413	city	9	1	1.084640	1.084640	0	1	0	0	CorrectCommission	0.724233	0.741984	0	0	6.923529e+01
165.758469	1.279582	city	8	1	1.340573	1.340573	0	1	0	0	CorrectCommission	0.185107	0.776916	0	0	6.861765e+01
169.517273	6.238011	break	0	0	0.000000	1.647503	0	0	0	0	ThoughtProbe	1.275637	0.803539	0	68	68
173.276016	1.279498	city	3	0	0.000000	1.873724	0	0	0	1	OmissionError	2.079409	0.819242	0	0	6.836957e+01
174.555634	1.279737	city	2	1	1.887533	1.887533	0	1	0	0	CorrectCommission	2.128473	0.822422	0	0	6.873913e+01
175.835297	1.279575	mountain	5	0	0.000000	1.557226	1	0	0	0	CorrectOmission	0.954883	0.812705	0	0	6.910870e+01
177.121552	1.292933	city	2	1	1.187677	1.187677	0	1	0	0	CorrectCommission	0.358137	0.790998	0	0	6.947826e+01
178.407745	1.279459	city	5	1	1.083759	1.083759	0	1	0	0	CorrectCommission	0.727361	0.759396	0	0	6.984783e+01
179.687317	1.279673	city	8	1	1.081266	1.081266	0	1	0	0	CorrectCommission	0.736218	0.720880	0	0	7.021739e+01
180.966934	1.279582	city	10	1	1.036949	1.036949	0	1	0	0	CorrectCommission	0.893680	0.678981	1	0	7.058696e+01
182.266510	1.319564	mountain	4	1	1.102714	1.102714	0	0	1	0	CommissionError	0.660013	0.637328	1	0	7.095652e+01
183.566040	1.279493	city	9	1	1.254061	1.254061	0	1	0	0	CorrectCommission	0.122274	0.599225	1	0	7.132609e+01
184.878967	1.346352	city	6	1	1.173787	1.173787	0	1	0	0	CorrectCommission	0.407490	0.567307	1	0	7.169565e+01
186.191833	1.279379	city	9	1	1.305915	1.305915	0	1	0	0	CorrectCommission	0.061966	0.543236	1	0	7.206522e+01
187.491394	1.319748	city	1	1	1.224013	1.224013	0	1	0	0	CorrectCommission	0.229033	0.527592	1	0	7.243478e+01
188.791046	1.279575	city	9	1	1.190022	1.190022	0	1	0	0	CorrectCommission	0.349805	0.519880	1	0	7.280435e+01
190.077209	1.292749	city	4	1	1.253045	1.253045	0	1	0	0	CorrectCommission	0.125885	0.518662	1	0	7.317391e+01
191.370056	1.292929	city	8	1	1.213359	1.213359	0	1	0	0	CorrectCommission	0.266887	0.521871	1	0	7.354348e+01
192.676300	1.319573	city	5	1	1.003832	1.003832	0	1	0	0	CorrectCommission	1.011344	0.527143	1	0	7.391304e+01
193.982605	1.293035	city	2	1	1.470071	1.470071	0	1	0	0	CorrectCommission	0.645216	0.532164	1	0	7.428261e+01
195.275574	1.292889	mountain	6	0	0.000000	1.672976	1	0	0	0	CorrectOmission	1.366147	0.535035	1	0	7.465217e+01
196.561813	1.279598	city	3	1	1.619316	1.619316	0	1	0	0	CorrectCommission	1.175490	0.534448	1	0	7.502174e+01
197.841370	1.279525	city	9	1	1.315857	1.315857	0	1	0	0	CorrectCommission	0.097288	0.529811	1	0	7.539130e+01
199.120895	1.279531	city	1	1	1.191672	1.191672	0	1	0	0	CorrectCommission	0.343943	0.521243	1	0	7.576087e+01
200.400421	1.279500	city	2	1	1.417627	1.417627	0	1	0	0	CorrectCommission	0.458880	0.509369	1	0	7.613043e+01
201.700043	1.319741	city	9	1	1.289232	1.289232	0	1	0	0	CorrectCommission	0.002692	0.495187	1	0	7.650000e+01
203.019699	1.319577	city	6	1	1.053100	1.053100	0	1	0	0	CorrectCommission	0.836295	0.479879	1	0	7.686957e+01
204.319260	1.279559	city	3	1	1.513842	1.513842	0	1	0	0	CorrectCommission	0.800736	0.464625	1	0	7.723913e+01
205.598831	1.279583	city	10	1	1.240335	1.240335	0	1	0	0	CorrectCommission	0.171041	0.450510	1	0	7.760870e+01
206.878418	1.279588	city	5	1	1.349958	1.349958	0	1	0	0	CorrectCommission	0.218453	0.438440	1	0	7.797826e+01
208.157928	1.279429	city	6	1	1.384291	1.384291	0	1	0	0	CorrectCommission	0.340438	0.429112	1	0	7.834783e+01
209.464081	1.332880	city	5	1	1.404592	1.404592	0	1	0	0	CorrectCommission	0.412567	0.423052	1	0	7.871739e+01
210.770386	1.279728	city	6	1	1.396353	1.396353	0	1	0	0	CorrectCommission	0.383295	0.420640	1	0	7.908696e+01
212.050064	1.279606	city	1	1	1.434682	1.434682	0	1	0	0	CorrectCommission	0.519480	0.422123	1	0	7.945652e+01
213.376297	1.372881	city	3	1	1.498867	1.498867	0	1	0	0	CorrectCommission	0.747530	0.427637	1	0	7.982609e+01
214.709106	1.292721	city	1	1	1.300142	1.300142	0	1	0	0	CorrectCommission	0.041453	0.437227	1	0	8.019565e+01
216.008667	1.306398	city	8	1	1.224553	1.224553	0	1	0	0	CorrectCommission	0.227117	0.450867	1	0	8.056522e+01
217.314926	1.306127	city	10	1	1.166919	1.166919	0	1	0	0	CorrectCommission	0.431890	0.468403	1	0	8.093478e+01
218.607758	1.279547	mountain	2	0	0.000000	1.327534	1	0	0	0	CorrectOmission	0.138777	0.489581	1	0	8.130435e+01
219.914032	1.332995	city	7	1	1.405197	1.405197	0	1	0	0	CorrectCommission	0.414718	0.514072	1	0	8.167391e+01
221.227005	1.292953	city	5	1	1.098712	1.098712	0	1	0	0	CorrectCommission	0.674234	0.541453	1	0	8.204348e+01
222.513290	1.279600	city	8	1	1.084977	1.084977	0	1	0	0	CorrectCommission	0.723034	0.571273	1	0	8.241304e+01
223.806198	1.306233	city	1	1	0.996445	0.996445	0	1	0	0	CorrectCommission	1.037591	0.603036	1	0	8.278261e+01
225.119003	1.319382	city	7	1	1.158596	1.158596	0	1	0	0	CorrectCommission	0.461463	0.636176	1	0	8.315217e+01
226.418503	1.279604	city	4	1	1.125149	1.125149	0	1	0	0	CorrectCommission	0.580302	0.670044	1	0	8.352174e+01
227.704834	1.293048	city	9	1	1.096686	1.096686	0	1	0	0	CorrectCommission	0.681431	0.703789	1	0	8.389130e+01
228.991150	1.279583	city	4	1	1.077923	1.077923	0	1	0	0	CorrectCommission	0.748098	0.736314	0	0	8.426087e+01
230.270721	1.279572	city	2	1	1.148358	1.148358	0	1	0	0	CorrectCommission	0.497839	0.766270	0	0	8.463043e+01
230.910507	8.917080	break	0	0	0.000000	1.265135	0	0	0	0	ThoughtProbe	0.082926	0.792109	0	85	85
240.474014	1.292867	city	10	1	1.467449	1.467449	0	1	0	0	CorrectCommission	0.635901	0.812254	0	0	8.352174e+01
241.766891	1.292869	mountain	3	0	0.000000	1.794494	1	0	0	0	CorrectOmission	1.797904	0.825342	0	0	8.204348e+01
243.059738	1.292836	city	6	1	1.924828	1.924828	0	1	0	0	CorrectCommission	2.260983	0.830528	0	0	8.056522e+01
244.359344	1.306374	city	9	1	1.537006	1.537006	0	1	0	0	CorrectCommission	0.883040	0.827759	0	0	7.908696e+01
245.652237	1.279423	city	8	1	1.354555	1.354555	0	1	0	0	CorrectCommission	0.234785	0.817959	0	0	7.760870e+01
246.931839	1.279754	mountain	6	0	0.000000	1.093306	1	0	0	0	CorrectOmission	0.693441	0.803082	0	0	7.613043e+01
248.211426	1.279435	city	8	1	0.915086	0.915086	0	1	0	0	CorrectCommission	1.326663	0.785996	0	0	7.465217e+01
249.491013	1.279721	city	1	1	0.981721	0.981721	0	1	0	0	CorrectCommission	1.089905	0.770247	0	0	7.317391e+01
250.770615	1.279498	city	7	1	1.138470	1.138470	0	1	0	0	CorrectCommission	0.532972	0.759680	0	0	7.169565e+01
252.050186	1.279647	city	6	1	1.479631	1.479631	0	1	0	0	CorrectCommission	0.679186	0.757906	0	0	7.021739e+01
253.343140	1.306258	city	3	1	1.272930	1.272930	0	1	0	0	CorrectCommission	0.055232	0.767760	0	0	6.873913e+01
254.656006	1.319461	mountain	4	1	1.234845	1.234845	0	0	1	0	CommissionError	0.190548	0.790862	0	0	6.726087e+01
255.962204	1.292934	city	5	1	1.263101	1.263101	0	1	0	0	CorrectCommission	0.090153	0.827274	0	0	6.578261e+01
257.248413	1.279480	city	6	1	1.301443	1.301443	0	1	0	0	CorrectCommission	0.046075	0.875391	0	0	6.430435e+01
258.541351	1.306395	city	3	1	1.205829	1.205829	0	1	0	0	CorrectCommission	0.293642	0.932044	0	0	6.282609e+01
259.841003	1.292902	city	8	1	0.979267	0.979267	0	1	0	0	CorrectCommission	1.098626	0.992877	0	0	6.134783e+01
261.133820	1.292775	city	10	1	0.662869	0.662869	0	1	0	0	CorrectCommission	2.222798	1.052910	0	0	5.986957e+01
262.420074	1.279711	city	3	0	0.000000	0.689255	0	0	0	1	OmissionError	2.129047	1.107135	0	0	5.839130e+01
263.699646	1.279438	city	7	0	0.000000	0.875232	0	0	0	1	OmissionError	1.468266	1.151204	0	0	5.691304e+01
264.979218	1.279726	city	3	0	0.000000	1.037605	0	0	0	1	OmissionError	0.891348	1.181907	0	0	5.543478e+01
266.265472	1.292740	city	4	1	0.993182	0.993182	0	1	0	0	CorrectCommission	1.049186	1.197476	0	0	5.395652e+01
267.558380	1.293070	city	8	1	0.558768	0.558768	0	1	0	0	CorrectCommission	2.592672	1.197676	0	0	5.247826e+01
268.858032	1.306280	mountain	2	1	0.513841	0.513841	0	0	1	0	CommissionError	2.752297	1.183681	0	0	51
270.150940	1.279523	city	8	1	1.403461	1.403461	0	1	0	0	CorrectCommission	0.408550	1.157814	0	0	4.952174e+01
271.430450	1.279509	city	9	1	1.358307	1.358307	0	1	0	0	CorrectCommission	0.248116	1.123197	0	0	4.804348e+01
272.716705	1.292995	city	3	1	1.343380	1.343380	0	1	0	0	CorrectCommission	0.195081	1.083259	0	0	4.656522e+01
274.029663	1.332892	city	10	1	0.981779	0.981779	0	1	0	0	CorrectCommission	1.089700	1.041409	0	0	4.508696e+01
275.349243	1.306256	city	4	1	0.838949	0.838949	0	1	0	0	CorrectCommission	1.597179	1.000750	0	0	4.360870e+01
276.648804	1.292910	city	7	1	1.645786	1.645786	0	1	0	0	CorrectCommission	1.269538	0.963903	0	0	4.213043e+01
277.948395	1.306240	city	6	1	1.114263	1.114263	0	1	0	0	CorrectCommission	0.618981	0.932973	0	0	4.065217e+01
279.261200	1.319405	city	1	1	1.218204	1.218204	0	1	0	0	CorrectCommission	0.249676	0.909505	0	0	3.917391e+01
280.594116	1.346380	city	2	1	0.962336	0.962336	0	1	0	0	CorrectCommission	1.158782	0.894446	0	0	3.769565e+01
281.927063	1.319548	city	3	1	1.715020	1.715020	0	1	0	0	CorrectCommission	1.515527	0.888136	0	0	3.621739e+01
283.239960	1.306239	city	2	1	1.334231	1.334231	0	1	0	0	CorrectCommission	0.162572	0.890281	0	0	3.473913e+01
284.572784	1.359397	city	9	1	1.272418	1.272418	0	1	0	0	CorrectCommission	0.057049	0.899958	0	0	3.326087e+01
285.905670	1.306410	city	5	1	0.995533	0.995533	0	1	0	0	CorrectCommission	1.040831	0.915550	0	0	3.178261e+01
287.198669	1.279557	city	1	1	1.338360	1.338360	0	1	0	0	CorrectCommission	0.177244	0.934831	0	0	3.030435e+01
288.478149	1.279430	city	10	1	1.636333	1.636333	0	1	0	0	CorrectCommission	1.235951	0.955175	0	0	2.882609e+01
289.771057	1.306390	city	1	1	1.750190	1.750190	0	1	0	0	CorrectCommission	1.640489	0.973740	0	0	2.734783e+01
291.070740	1.292930	city	8	1	1.634327	1.634327	0	1	0	0	CorrectCommission	1.228824	0.987861	0	0	2.586957e+01
292.363617	1.292876	city	7	0	0.000000	1.096017	0	0	0	1	OmissionError	0.683808	0.995387	0	0	2.439130e+01
293.663147	1.306150	city	3	1	0.875077	0.875077	0	1	0	0	CorrectCommission	1.468817	0.994980	0	0	2.291304e+01
294.955994	1.279529	city	8	1	1.711322	1.711322	0	1	0	0	CorrectCommission	1.502390	0.986267	0	0	2.143478e+01
296.235596	1.279726	city	7	1	1.839520	1.839520	0	1	0	0	CorrectCommission	1.957882	0.969921	0	0	1.995652e+01
297.515167	1.279416	city	6	0	0.000000	1.573632	0	0	0	1	OmissionError	1.013172	0.947515	0	0	1.847826e+01
298.154877	9.077153	break	0	0	0.000000	1.206292	0	0	0	0	ThoughtProbe	0.292000	0.921325	0	17	17
307.871826	1.279598	city	1	1	1.030134	1.030134	0	1	0	0	CorrectCommission	0.917892	0.893884	0	0	1.723529e+01
309.151428	1.279581	city	5	1	1.337794	1.337794	0	1	0	0	CorrectCommission	0.175234	0.867561	0	0	1.747059e+01
310.437653	1.292856	city	3	1	1.546731	1.546731	0	1	0	0	CorrectCommission	0.917591	0.844189	0	0	1.770588e+01
311.737213	1.306288	city	5	1	1.485484	1.485484	0	1	0	0	CorrectCommission	0.699979	0.824785	0	0	1.794118e+01
313.036774	1.292797	mountain	3	0	0.000000	1.346315	1	0	0	0	CorrectOmission	0.205510	0.809455	0	0	1.817647e+01
314.329620	1.292885	city	7	1	1.193842	1.193842	0	1	0	0	CorrectCommission	0.336233	0.797470	0	0	1.841176e+01
315.622589	1.293066	city	8	1	1.092681	1.092681	0	1	0	0	CorrectCommission	0.695662	0.787526	0	0	1.864706e+01
316.915497	1.292796	city	3	1	0.916805	0.916805	0	1	0	0	CorrectCommission	1.320556	0.778073	0	0	1.888235e+01
318.208405	1.293013	city	4	1	0.867679	0.867679	0	1	0	0	CorrectCommission	1.495101	0.767762	0	0	1.911765e+01
319.528046	1.346224	city	10	1	0.844083	0.844083	0	1	0	0	CorrectCommission	1.578939	0.755793	0	0	1.935294e+01
320.840881	1.279450	city	6	1	1.132283	1.132283	0	1	0	0	CorrectCommission	0.554953	0.742139	0	0	1.958824e+01
322.120361	1.279528	city	8	1	1.138967	1.138967	0	1	0	0	CorrectCommission	0.531207	0.727576	0	0	1.982353e+01
323.406586	1.292939	city	1	1	1.146849	1.146849	0	1	0	0	CorrectCommission	0.503202	0.713604	1	0	2.005882e+01
324.706238	1.306369	city	2	1	1.150539	1.150539	0	1	0	0	CorrectCommission	0.490090	0.702155	1	0	2.029412e+01
326.025879	1.332916	city	8	1	1.055246	1.055246	0	1	0	0	CorrectCommission	0.828670	0.695236	1	0	2.052941e+01
327.332062	1.279407	mountain	9	1	1.159404	1.159404	0	0	1	0	CommissionError	0.458591	0.694562	1	0	2.076471e+01
328.618225	1.292918	city	4	1	1.137404	1.137404	0	1	0	0	CorrectCommission	0.536759	0.701229	1	0	21
329.918060	1.306799	city	10	1	1.255979	1.255979	0	1	0	0	CorrectCommission	0.115459	0.715410	1	0	2.123529e+01
331.217712	1.292496	city	6	0	0.000000	1.288739	0	0	0	1	OmissionError	0.000939	0.736301	0	0	2.147059e+01
332.503754	1.279566	city	10	1	1.189365	1.189365	0	1	0	0	CorrectCommission	0.352142	0.762158	0	0	2.170588e+01
333.783295	1.279511	city	2	1	0.911535	0.911535	0	1	0	0	CorrectCommission	1.339278	0.790489	0	0	2.194118e+01
335.076202	1.306309	city	1	1	1.046325	1.046325	0	1	0	0	CorrectCommission	0.860365	0.818385	0	0	2.217647e+01
336.369171	1.279618	city	5	1	0.654259	0.654259	0	1	0	0	CorrectCommission	2.253389	0.842865	0	0	2.241176e+01
337.655396	1.292874	city	7	1	1.671351	1.671351	0	1	0	0	CorrectCommission	1.360371	0.861199	0	0	2.264706e+01
338.948303	1.292900	city	6	1	1.316453	1.316453	0	1	0	0	CorrectCommission	0.099408	0.871274	0	0	2.288235e+01
340.241211	1.292934	city	3	1	1.473022	1.473022	0	1	0	0	CorrectCommission	0.655704	0.871792	0	0	2.311765e+01
341.534058	1.292729	city	9	1	1.220333	1.220333	0	1	0	0	CorrectCommission	0.242111	0.862368	0	0	2.335294e+01
342.826843	1.292886	city	6	1	0.734704	0.734704	0	1	0	0	CorrectCommission	1.967565	0.843611	0	0	2.358824e+01
344.139832	1.333099	city	7	1	1.773691	1.773691	0	1	0	0	CorrectCommission	1.723988	0.817020	0	0	2.382353e+01
345.452759	1.292746	city	1	0	0.000000	1.716796	0	0	0	1	OmissionError	1.521837	0.784906	0	0	2.405882e+01
346.759003	1.319721	city	7	1	1.271886	1.271886	0	1	0	0	CorrectCommission	0.058941	0.750127	0	0	2.429412e+01
348.058655	1.279568	city	10	0	0.000000	1.146829	0	0	0	1	OmissionError	0.503273	0.715807	1	0	2.452941e+01
349.364899	1.332914	city	1	1	1.200069	1.200069	0	1	0	0	CorrectCommission	0.314108	0.684982	1	0	2.476471e+01
350.031342	9.423527	break	0	0	0.000000	1.290052	0	0	0	0	ThoughtProbe	0.005603	0.660284	1	25	25
360.108002	1.306266	city	5	1	1.400514	1.400514	0	1	0	0	CorrectCommission	0.398078	0.643670	1	0	2.530000e+01
361.420837	1.319412	city	4	1	1.515193	1.515193	0	1	0	0	CorrectCommission	0.805538	0.636236	1	0	2.560000e+01
362.727051	1.293025	city	3	1	1.325922	1.325922	0	1	0	0	CorrectCommission	0.133050	0.638152	1	0	2.590000e+01
364.026703	1.306262	city	5	1	1.329683	1.329683	0	1	0	0	CorrectCommission	0.146415	0.648779	1	0	2.620000e+01
365.339539	1.319415	mountain	7	1	1.003921	1.003921	0	0	1	0	CommissionError	1.011030	0.666783	1	0	2.650000e+01
366.639038	1.279582	city	9	1	1.426622	1.426622	0	1	0	0	CorrectCommission	0.490842	0.690328	1	0	2.680000e+01
367.932037	1.306411	city	2	1	1.737433	1.737433	0	1	0	0	CorrectCommission	1.595163	0.717404	0	0	2.710000e+01
369.231689	1.292876	city	1	1	1.510480	1.510480	0	1	0	0	CorrectCommission	0.788790	0.745928	0	0	2.740000e+01
370.524506	1.292786	city	5	1	1.409412	1.409412	0	1	0	0	CorrectCommission	0.429692	0.773968	0	0	2.770000e+01
371.824036	1.306236	city	2	1	1.441295	1.441295	0	1	0	0	CorrectCommission	0.542976	0.799893	0	0	28
373.136993	1.319721	city	10	1	1.064537	1.064537	0	1	0	0	CorrectCommission	0.795658	0.822413	0	0	2.830000e+01
374.463287	1.332868	city	2	1	0.995731	0.995731	0	1	0	0	CorrectCommission	1.040128	0.840692	0	0	2.860000e+01
375.776123	1.292765	city	5	1	1.061668	1.061668	0	1	0	0	CorrectCommission	0.805850	0.854400	0	0	2.890000e+01
377.082336	1.319709	city	7	1	0.896356	0.896356	0	1	0	0	CorrectCommission	1.393212	0.863706	0	0	2.920000e+01
378.381989	1.279601	mountain	6	1	1.671728	1.671728	0	0	1	0	CommissionError	1.361711	0.869290	0	0	2.950000e+01
379.668152	1.292716	city	2	0	0.000000	1.579113	0	0	0	1	OmissionError	1.032646	0.872280	0	0	2.980000e+01
380.967743	1.306453	city	5	1	1.178613	1.178613	0	1	0	0	CorrectCommission	0.390341	0.874141	0	0	3.010000e+01
382.267334	1.292745	city	6	1	1.030333	1.030333	0	1	0	0	CorrectCommission	0.917185	0.876540	0	0	3.040000e+01
383.580200	1.332942	city	5	1	1.120770	1.120770	0	1	0	0	CorrectCommission	0.595860	0.881130	0	0	3.070000e+01
384.926483	1.359639	city	8	1	1.052923	1.052923	0	1	0	0	CorrectCommission	0.836922	0.889357	0	0	31
386.259338	1.306056	city	1	1	1.017906	1.017906	0	1	0	0	CorrectCommission	0.961340	0.902246	0	0	3.130000e+01
387.578796	1.332911	city	6	1	1.214056	1.214056	0	1	0	0	CorrectCommission	0.264413	0.920342	0	0	3.160000e+01
388.885132	1.279723	city	4	1	1.034608	1.034608	0	1	0	0	CorrectCommission	0.901997	0.943662	0	0	3.190000e+01
390.178040	1.306107	city	1	1	0.993356	0.993356	0	1	0	0	CorrectCommission	1.048566	0.971687	0	0	3.220000e+01
391.517609	1.373023	mountain	4	1	1.268889	1.268889	0	0	1	0	CommissionError	0.069589	1.003536	0	0	3.250000e+01
392.850586	1.292918	city	8	1	1.907707	1.907707	0	1	0	0	CorrectCommission	2.200150	1.038099	0	0	3.280000e+01
394.163391	1.332737	city	7	1	1.747142	1.747142	0	1	0	0	CorrectCommission	1.629659	1.074080	0	0	3.310000e+01
395.489563	1.319607	city	9	1	1.342483	1.342483	0	1	0	0	CorrectCommission	0.191891	1.110244	0	0	3.340000e+01
396.829224	1.359664	city	2	1	0.970333	0.970333	0	1	0	0	CorrectCommission	1.130368	1.145424	0	0	3.370000e+01
398.155487	1.292908	city	7	1	1.705296	1.705296	0	1	0	0	CorrectCommission	1.480979	1.178467	0	0	34
399.481659	1.359426	city	3	1	1.784408	1.784408	0	1	0	0	CorrectCommission	1.762065	1.208238	0	0	3.430000e+01
400.821228	1.319677	city	9	1	1.719228	1.719228	0	1	0	0	CorrectCommission	1.530479	1.233531	0	0	3.460000e+01
402.134094	1.306108	city	10	1	1.449114	1.449114	0	1	0	0	CorrectCommission	0.570756	1.253009	0	0	3.490000e+01
403.480347	1.386346	city	7	1	1.017601	1.017601	0	1	0	0	CorrectCommission	0.962423	1.265218	0	0	3.520000e+01
404.826630	1.306236	city	10	1	0.925083	0.925083	0	1	0	0	CorrectCommission	1.291144	1.268653	0	0	3.550000e+01
406.126190	1.292898	city	9	1	1.101249	1.101249	0	1	0	0	CorrectCommission	0.665220	1.261991	0	0	3.580000e+01
407.432434	1.319577	city	6	1	0.755010	0.755010	0	1	0	0	CorrectCommission	1.895417	1.244422	0	0	3.610000e+01
408.738617	1.292766	city	7	1	0.559078	0.559078	0	1	0	0	CorrectCommission	2.591570	1.215942	0	0	3.640000e+01
410.024780	1.279583	city	9	1	0.563490	0.563490	0	1	0	0	CorrectCommission	2.575894	1.177690	0	0	3.670000e+01
414.170074	7.011009	break	0	0	0.000000	1.070956	0	0	0	0	ThoughtProbe	0.772851	1.132086	0	37	37
418.335419	1.319712	city	2	1	1.563659	1.563659	0	1	0	0	CorrectCommission	0.977739	1.082820	0	0	3.741176e+01
419.648407	1.306240	mountain	4	0	0.000000	1.523784	1	0	0	0	CorrectOmission	0.836060	1.034509	0	0	3.782353e+01
420.941315	1.279578	city	7	1	1.367676	1.367676	0	1	0	0	CorrectCommission	0.281404	0.992331	0	0	3.823529e+01
422.240906	1.319572	city	1	1	1.511683	1.511683	0	1	0	0	CorrectCommission	0.793066	0.961426	0	0	3.864706e+01
423.560364	1.319392	city	4	1	1.498826	1.498826	0	1	0	0	CorrectCommission	0.747384	0.946288	0	0	3.905882e+01
424.899811	1.359492	city	9	1	1.131351	1.131351	0	1	0	0	CorrectCommission	0.558267	0.950231	0	0	3.947059e+01
426.219421	1.279738	city	6	1	1.289687	1.289687	0	1	0	0	CorrectCommission	0.004307	0.974941	0	0	3.988235e+01
427.505798	1.292997	city	4	1	1.454711	1.454711	0	1	0	0	CorrectCommission	0.590644	1.020213	0	0	4.029412e+01
428.832062	1.359539	city	7	1	1.245077	1.245077	0	1	0	0	CorrectCommission	0.154194	1.083925	0	0	4.070588e+01
430.171600	1.319497	city	5	1	1.213534	1.213534	0	1	0	0	CorrectCommission	0.266267	1.162303	0	0	4.111765e+01
431.471161	1.279664	city	2	0	0.000000	0.960037	0	0	0	1	OmissionError	1.166949	1.250299	0	0	4.152941e+01
432.757385	1.292752	mountain	10	0	0.000000	0.660914	1	0	0	0	CorrectOmission	2.229744	1.342112	0	0	4.194118e+01
434.056946	1.306377	city	9	1	0.492491	0.492491	0	1	0	0	CorrectCommission	2.828155	1.431826	0	0	4.235294e+01
435.369904	1.319562	city	2	1	0.631096	0.631096	0	1	0	0	CorrectCommission	2.335687	1.514002	0	0	4.276471e+01
436.682831	1.306256	city	4	1	1.770934	1.770934	0	1	0	0	CorrectCommission	1.714191	1.584163	0	0	4.317647e+01
437.988983	1.306055	city	3	0	0.000000	1.545152	0	0	0	1	OmissionError	0.911983	1.639069	0	0	4.358824e+01
439.295135	1.306286	city	4	1	0.893076	0.893076	0	1	0	0	CorrectCommission	1.404865	1.676860	0	0	44
440.601471	1.306371	city	2	1	0.754028	0.754028	0	1	0	0	CorrectCommission	1.898905	1.697070	0	0	4.441176e+01
441.901062	1.292819	city	4	1	0.511253	0.511253	0	1	0	0	CorrectCommission	2.761495	1.700540	0	0	4.482353e+01
443.193970	1.292978	city	1	1	0.515071	0.515071	0	1	0	0	CorrectCommission	2.747930	1.689199	0	0	4.523529e+01
444.493591	1.306255	city	7	1	0.794010	0.794010	0	1	0	0	CorrectCommission	1.756848	1.665856	0	0	4.564706e+01
445.799835	1.306245	city	6	1	0.591434	0.591434	0	1	0	0	CorrectCommission	2.476608	1.633883	0	0	4.605882e+01
447.099396	1.292907	city	2	1	1.261151	1.261151	0	1	0	0	CorrectCommission	0.097083	1.596769	0	0	4.647059e+01
448.405579	1.319462	city	7	1	0.970703	0.970703	0	1	0	0	CorrectCommission	1.129052	1.557837	0	0	4.688235e+01
449.738495	1.346334	city	10	1	0.729962	0.729962	0	1	0	0	CorrectCommission	1.984413	1.519784	0	0	4.729412e+01
451.058105	1.292905	city	7	1	1.458116	1.458116	0	1	0	0	CorrectCommission	0.602742	1.484513	0	0	4.770588e+01
452.357666	1.306204	city	9	1	1.621158	1.621158	0	1	0	0	CorrectCommission	1.182032	1.453065	0	0	4.811765e+01
453.683899	1.346245	city	10	1	1.655609	1.655609	0	1	0	0	CorrectCommission	1.304440	1.425600	0	0	4.852941e+01
455.016785	1.319522	city	1	1	1.691554	1.691554	0	1	0	0	CorrectCommission	1.432153	1.401611	0	0	4.894118e+01
456.363007	1.372926	city	7	1	2.070051	2.070051	0	1	0	0	CorrectCommission	2.776965	1.380160	0	0	4.935294e+01
457.702576	1.306234	city	2	1	1.609151	1.609151	0	1	0	0	CorrectCommission	1.139372	1.360096	0	0	4.976471e+01
459.022095	1.332798	city	9	1	1.475670	1.475670	0	1	0	0	CorrectCommission	0.665109	1.340401	0	0	5.017647e+01
460.354980	1.332975	city	7	1	1.540378	1.540378	0	1	0	0	CorrectCommission	0.895020	1.320275	0	0	5.058824e+01
461.021454	8.103855	break	0	0	0.000000	1.762540	0	0	0	0	ThoughtProbe	1.684368	1.299251	0	51	51
469.765198	1.279753	city	4	1	1.889852	1.889852	0	1	0	0	CorrectCommission	2.136714	1.277218	0	0	5.107500e+01
471.058197	1.306258	city	3	1	1.670013	1.670013	0	1	0	0	CorrectCommission	1.355617	1.254382	0	0	5.115000e+01
472.377686	1.332691	city	1	1	1.555409	1.555409	0	1	0	0	CorrectCommission	0.948426	1.231149	0	0	5.122500e+01
473.690552	1.293063	city	3	1	1.632086	1.632086	0	1	0	0	CorrectCommission	1.220863	1.207974	0	0	5.130000e+01
475.023438	1.372722	mountain	5	1	1.265093	1.265093	0	0	1	0	CommissionError	0.083078	1.185174	0	0	5.137500e+01
476.356262	1.292928	mountain	3	1	1.573556	1.573556	0	0	1	0	CommissionError	1.012903	1.162877	0	0	5.145000e+01
477.662506	1.319519	city	3	1	1.658537	1.658537	0	1	0	0	CorrectCommission	1.314843	1.140901	0	0	5.152500e+01
478.988770	1.333037	city	2	0	0.000000	1.803246	0	0	0	1	OmissionError	1.828998	1.118837	0	0	5.160000e+01
480.295044	1.279483	city	5	1	1.806759	1.806759	0	1	0	0	CorrectCommission	1.841482	1.096117	0	0	5.167500e+01
481.601227	1.332897	city	8	1	1.468155	1.468155	0	1	0	0	CorrectCommission	0.638410	1.072064	0	0	5.175000e+01
482.934113	1.332899	city	6	1	1.556099	1.556099	0	1	0	0	CorrectCommission	0.950878	1.046096	0	0	5.182500e+01
484.267090	1.333045	city	1	1	1.365724	1.365724	0	1	0	0	CorrectCommission	0.274469	1.017716	0	0	5.190000e+01
485.599976	1.332729	city	3	1	1.526079	1.526079	0	1	0	0	CorrectCommission	0.844215	0.986686	0	0	5.197500e+01
486.912872	1.293061	city	4	1	1.582967	1.582967	0	1	0	0	CorrectCommission	1.046339	0.953075	0	0	5.205000e+01
488.205872	1.292926	city	6	1	1.955859	1.955859	0	1	0	0	CorrectCommission	2.371237	0.917337	0	0	5.212500e+01
489.512024	1.319393	city	4	0	0.000000	1.540718	0	0	0	1	OmissionError	0.896228	0.880281	0	0	5.220000e+01
490.838257	1.333043	city	7	1	1.042440	1.042440	0	1	0	0	CorrectCommission	0.874170	0.843085	0	0	5.227500e+01
492.164551	1.319571	city	1	1	1.165922	1.165922	0	1	0	0	CorrectCommission	0.435435	0.807098	0	0	5.235000e+01
493.464142	1.279575	city	9	1	1.400613	1.400613	0	1	0	0	CorrectCommission	0.398432	0.773734	0	0	5.242500e+01
494.777039	1.346220	city	1	1	1.171702	1.171702	0	1	0	0	CorrectCommission	0.414896	0.744240	0	0	5.250000e+01
496.096588	1.292933	city	5	1	1.425050	1.425050	0	1	0	0	CorrectCommission	0.485258	0.719544	0	0	5.257500e+01
497.429474	1.372780	city	6	1	1.207120	1.207120	0	1	0	0	CorrectCommission	0.289056	0.700130	1	0	5.265000e+01
498.755707	1.279685	city	1	1	0.964823	0.964823	0	1	0	0	CorrectCommission	1.149945	0.685981	1	0	5.272500e+01
500.041992	1.292904	city	9	1	1.037378	1.037378	0	1	0	0	CorrectCommission	0.892154	0.676621	1	0	5.280000e+01
501.354828	1.332808	mountain	4	1	1.180475	1.180475	0	0	1	0	CommissionError	0.383728	0.671259	1	0	5.287500e+01
502.707733	1.372958	city	3	1	1.221920	1.221920	0	1	0	0	CorrectCommission	0.236473	0.668871	1	0	5.295000e+01
504.047302	1.306223	city	7	1	1.088789	1.088789	0	1	0	0	CorrectCommission	0.709488	0.668400	1	0	5.302500e+01
505.340210	1.279581	city	5	1	1.666074	1.666074	0	1	0	0	CorrectCommission	1.341621	0.668873	1	0	5.310000e+01
506.633057	1.306106	city	6	1	1.447817	1.447817	0	1	0	0	CorrectCommission	0.566148	0.669511	1	0	5.317500e+01
507.959259	1.346277	city	2	1	1.528108	1.528108	0	1	0	0	CorrectCommission	0.851426	0.669870	1	0	5.325000e+01
509.292145	1.319533	city	1	1	1.269320	1.269320	0	1	0	0	CorrectCommission	0.068059	0.669783	1	0	5.332500e+01
510.605103	1.306350	city	5	1	0.968496	0.968496	0	1	0	0	CorrectCommission	1.136894	0.669423	1	0	5.340000e+01
511.918060	1.319589	city	2	1	1.196647	1.196647	0	1	0	0	CorrectCommission	0.326269	0.669134	1	0	5.347500e+01
513.230957	1.306231	city	6	1	1.002249	1.002249	0	1	0	0	CorrectCommission	1.016968	0.669443	1	0	5.355000e+01
514.543823	1.319405	city	10	1	0.999816	0.999816	0	1	0	0	CorrectCommission	1.025616	0.670854	1	0	5.362500e+01
515.883301	1.359623	city	2	1	1.312297	1.312297	0	1	0	0	CorrectCommission	0.084641	0.673774	1	0	5.370000e+01
517.216248	1.306307	city	1	1	1.095308	1.095308	0	1	0	0	CorrectCommission	0.686327	0.678398	1	0	5.377500e+01
518.509216	1.279581	city	6	1	1.449679	1.449679	0	1	0	0	CorrectCommission	0.572764	0.684638	1	0	5.385000e+01
519.808716	1.319425	city	8	1	1.270516	1.270516	0	1	0	0	CorrectCommission	0.063807	0.692152	1	0	5.392500e+01
524.254028	7.571167	break	0	0	0.000000	1.091354	0	0	0	0	ThoughtProbe	0.700377	0.700377	1	54	54
