onset	duration	trial_type	image_type	Press	ReactionTime	ReactionTime_Interpolated	CorrectOmission	CorrectCommission	CommissionError	OmissionError	response_type	nonsmoothVarianceTimeCourse	VarianceTimeCourse	In_the_Zone	ThoughtProbe	ThoughtProbe_Interpolated
0.653227	1.279406	mountain	3	0	0.000000	1.661364	1	0	0	0	CorrectOmission	1.419121	1.419121	0	0	100
1.932711	1.279563	city	4	1	1.608034	1.608034	0	1	0	0	CorrectCommission	1.108108	1.314760	0	0	100
3.212367	1.279748	city	3	1	1.554704	1.554704	0	1	0	0	CorrectCommission	0.797096	1.214435	0	0	100
4.498705	1.292928	city	6	1	1.562531	1.562531	0	1	0	0	CorrectCommission	0.842744	1.121774	0	0	100
5.784900	1.279463	city	4	1	1.556060	1.556060	0	1	0	0	CorrectCommission	0.805004	1.039636	0	0	100
7.071152	1.293039	city	10	1	1.330586	1.330586	0	1	0	0	CorrectCommission	0.509912	0.969873	0	0	100
8.370687	1.306031	city	1	1	1.450504	1.450504	0	1	0	0	CorrectCommission	0.189424	0.913194	0	0	100
9.663535	1.279665	city	2	1	1.311771	1.311771	0	1	0	0	CorrectCommission	0.619640	0.869205	0	0	100
10.949870	1.293006	city	7	1	1.275153	1.275153	0	1	0	0	CorrectCommission	0.833186	0.836535	0	0	100
12.236153	1.279559	city	2	1	1.180500	1.180500	0	1	0	0	CorrectCommission	1.385183	0.813109	0	0	100
13.522308	1.292752	mountain	5	0	0.000000	1.431843	1	0	0	0	CorrectOmission	0.080596	0.796443	0	0	100
14.808492	1.279614	city	2	1	1.583798	1.583798	0	1	0	0	CorrectCommission	0.966768	0.784033	0	0	100
16.088083	1.279569	city	8	1	1.190983	1.190983	0	1	0	0	CorrectCommission	1.324050	0.773525	1	0	100
17.367720	1.279706	city	1	1	1.313998	1.313998	0	1	0	0	CorrectCommission	0.606651	0.763062	1	0	100
18.647299	1.279449	city	9	1	1.616387	1.616387	0	1	0	0	CorrectCommission	1.156820	0.751357	1	0	100
19.926804	1.279560	city	7	1	1.289756	1.289756	0	1	0	0	CorrectCommission	0.748024	0.737744	1	0	100
21.213118	1.293068	city	3	1	1.403996	1.403996	0	1	0	0	CorrectCommission	0.081800	0.722195	1	0	100
22.506041	1.292777	city	5	1	1.670546	1.670546	0	1	0	0	CorrectCommission	1.472665	0.705227	1	0	100
23.792210	1.279562	city	1	1	1.313159	1.313159	0	1	0	0	CorrectCommission	0.611543	0.687768	1	0	100
25.078470	1.292961	city	3	1	1.451921	1.451921	0	1	0	0	CorrectCommission	0.197686	0.671083	1	0	100
26.378115	1.306328	city	1	1	1.581180	1.581180	0	1	0	0	CorrectCommission	0.951502	0.656657	1	0	100
27.671083	1.279606	city	7	1	1.447362	1.447362	0	1	0	0	CorrectCommission	0.171099	0.646017	1	0	100
28.957344	1.292915	city	8	1	1.263721	1.263721	0	1	0	0	CorrectCommission	0.899856	0.640763	1	0	100
30.243526	1.279452	city	7	1	1.287806	1.287806	0	1	0	0	CorrectCommission	0.759399	0.642447	1	0	100
31.523094	1.279682	city	8	1	1.394495	1.394495	0	1	0	0	CorrectCommission	0.137208	0.652539	1	0	100
32.802639	1.279404	city	4	1	1.317955	1.317955	0	1	0	0	CorrectCommission	0.583575	0.672333	1	0	100
34.088863	1.293050	city	2	1	1.300985	1.300985	0	1	0	0	CorrectCommission	0.682540	0.702800	1	0	100
35.375191	1.279601	mountain	10	0	0.000000	1.453494	1	0	0	0	CorrectOmission	0.206862	0.744466	1	0	100
36.654781	1.279584	city	9	1	1.560925	1.560925	0	1	0	0	CorrectCommission	0.833379	0.797284	0	0	100
37.934280	1.279413	city	3	1	1.408722	1.408722	0	1	0	0	CorrectCommission	0.054239	0.860370	0	0	100
39.220524	1.293070	city	8	1	1.208108	1.208108	0	1	0	0	CorrectCommission	1.224179	0.931978	0	0	100
40.553432	1.372752	city	3	1	1.228979	1.228979	0	1	0	0	CorrectCommission	1.102465	1.009340	0	0	100
41.879665	1.279713	city	10	1	1.101969	1.101969	0	1	0	0	CorrectCommission	1.843165	1.088800	0	0	100
43.165985	1.292925	city	1	1	1.474714	1.474714	0	1	0	0	CorrectCommission	0.330614	1.165903	0	0	100
44.472183	1.319473	city	10	1	1.435399	1.435399	0	1	0	0	CorrectCommission	0.101336	1.235799	0	0	100
45.778389	1.292936	city	8	1	1.247826	1.247826	0	1	0	0	CorrectCommission	0.992555	1.293671	0	0	100
47.097992	1.346274	city	10	1	1.135469	1.135469	0	1	0	0	CorrectCommission	1.647797	1.335302	0	0	100
48.430828	1.319395	city	7	1	0.889316	0.889316	0	1	0	0	CorrectCommission	3.083313	1.357695	0	0	100
49.736980	1.292908	city	5	1	0.922655	0.922655	0	1	0	0	CorrectCommission	2.888885	1.359558	0	0	100
53.582466	6.398063	break	0	1	0.655340	0.655340	0	0	0	0	ThoughtProbe	4.447815	1.341593	0	100	100
57.434635	1.306274	city	3	1	1.276032	1.276032	0	1	0	0	CorrectCommission	0.828064	1.306388	0	0	100
58.727547	1.279555	city	10	1	1.384274	1.384274	0	1	0	0	CorrectCommission	0.196815	1.258196	0	0	100
60.060394	1.386136	city	5	1	1.522396	1.522396	0	1	0	0	CorrectCommission	0.608687	1.202126	0	0	100
61.413273	1.319625	city	1	1	1.404087	1.404087	0	1	0	0	CorrectCommission	0.081268	1.143470	0	0	100
62.732838	1.319503	mountain	8	0	0.000000	1.437692	1	0	0	0	CorrectOmission	0.114710	1.087038	0	0	100
64.032341	1.279495	city	4	1	1.515347	1.515347	0	1	0	0	CorrectCommission	0.567579	1.036611	0	0	100
65.318611	1.293059	city	10	1	1.529189	1.529189	0	1	0	0	CorrectCommission	0.648300	0.994703	0	0	100
66.611603	1.292924	city	6	1	1.863176	1.863176	0	1	0	0	CorrectCommission	2.596049	0.962585	0	0	100
67.917847	1.319564	city	1	1	1.557589	1.557589	0	1	0	0	CorrectCommission	0.813926	0.940398	0	0	100
69.224083	1.292908	city	2	1	1.595613	1.595613	0	1	0	0	CorrectCommission	1.035674	0.927584	0	0	100
70.530312	1.319546	city	7	1	1.556656	1.556656	0	1	0	0	CorrectCommission	0.808484	0.922984	0	0	100
71.836548	1.292925	city	5	1	1.529597	1.529597	0	1	0	0	CorrectCommission	0.650679	0.925160	0	0	100
73.142723	1.319418	city	10	1	1.352302	1.352302	0	1	0	0	CorrectCommission	0.383270	0.932476	0	0	100
74.442291	1.279725	city	3	1	1.510020	1.510020	0	1	0	0	CorrectCommission	0.536511	0.943189	0	0	100
75.735275	1.306246	city	8	1	1.225080	1.225080	0	1	0	0	CorrectCommission	1.125204	0.955464	0	0	100
77.041504	1.306215	city	10	1	1.207454	1.207454	0	1	0	0	CorrectCommission	1.227997	0.967450	0	0	100
78.334435	1.279645	city	1	1	1.307074	1.307074	0	1	0	0	CorrectCommission	0.647030	0.977379	0	0	100
79.647324	1.346133	city	6	1	1.301455	1.301455	0	1	0	0	CorrectCommission	0.679799	0.983663	0	0	100
80.966866	1.292953	city	8	1	1.093676	1.093676	0	1	0	0	CorrectCommission	1.891527	0.985033	0	0	100
82.259796	1.292909	city	2	1	1.142532	1.142532	0	1	0	0	CorrectCommission	1.606610	0.980606	0	0	100
83.579346	1.346180	city	4	1	1.139524	1.139524	0	1	0	0	CorrectCommission	1.624147	0.970006	0	0	100
84.898911	1.292957	city	2	1	1.195215	1.195215	0	1	0	0	CorrectCommission	1.299373	0.953257	0	0	100
86.185173	1.279567	mountain	5	0	0.000000	1.365912	1	0	0	0	CorrectOmission	0.303901	0.930764	0	0	100
87.478027	1.306148	city	2	1	1.497610	1.497610	0	1	0	0	CorrectCommission	0.464136	0.903143	0	0	100
88.777512	1.292815	city	5	1	1.436302	1.436302	0	1	0	0	CorrectCommission	0.106601	0.871046	0	0	100
90.097122	1.346400	city	6	1	1.460666	1.460666	0	1	0	0	CorrectCommission	0.248685	0.835146	0	0	100
91.423431	1.306222	city	10	1	1.145824	1.145824	0	1	0	0	CorrectCommission	1.587411	0.796133	0	0	100
92.729630	1.306177	city	1	1	1.644180	1.644180	0	1	0	0	CorrectCommission	1.318903	0.754749	1	0	100
94.029251	1.293067	city	6	1	1.775892	1.775892	0	1	0	0	CorrectCommission	2.087026	0.711959	1	0	100
95.315529	1.279488	city	3	1	1.501198	1.501198	0	1	0	0	CorrectCommission	0.485065	0.668935	1	0	100
96.601715	1.292890	city	7	0	0.000000	1.380552	0	0	0	1	OmissionError	0.218521	0.627172	1	0	100
97.894623	1.292925	city	3	1	1.368856	1.368856	0	1	0	0	CorrectCommission	0.286732	0.588297	1	0	100
99.180794	1.279414	city	2	1	1.421011	1.421011	0	1	0	0	CorrectCommission	0.017428	0.553935	1	0	100
103.519348	7.397700	break	0	0	0.000000	1.445416	0	0	0	0	ThoughtProbe	0.159753	0.525516	1	100	100
107.864632	1.292858	city	3	1	1.421390	1.421390	0	1	0	0	CorrectCommission	0.019640	0.504111	1	0	100
109.164230	1.306339	city	10	1	1.328254	1.328254	0	1	0	0	CorrectCommission	0.523514	0.490341	1	0	100
110.457176	1.279558	mountain	6	0	0.000000	1.460269	1	0	0	0	CorrectOmission	0.246373	0.484298	1	0	100
111.736748	1.279579	city	7	1	1.609278	1.609278	0	1	0	0	CorrectCommission	1.115363	0.485650	1	0	100
113.016335	1.279605	city	1	1	1.567122	1.567122	0	1	0	0	CorrectCommission	0.869521	0.493662	1	0	100
114.302589	1.292894	city	10	1	1.369619	1.369619	0	1	0	0	CorrectCommission	0.282282	0.507366	1	0	100
115.595482	1.292903	city	2	1	1.465032	1.465032	0	1	0	0	CorrectCommission	0.274147	0.525590	1	0	100
116.888321	1.292764	city	1	1	1.422145	1.422145	0	1	0	0	CorrectCommission	0.024042	0.547076	1	0	100
118.194542	1.319681	city	5	1	1.390194	1.390194	0	1	0	0	CorrectCommission	0.162291	0.570573	1	0	100
119.514175	1.319587	city	7	1	1.329618	1.329618	0	1	0	0	CorrectCommission	0.515558	0.594955	1	0	100
120.813705	1.279472	city	4	1	1.289655	1.289655	0	1	0	0	CorrectCommission	0.748613	0.619299	1	0	100
122.093201	1.279522	city	3	1	1.153108	1.153108	0	1	0	0	CorrectCommission	1.544933	0.642972	1	0	100
123.379417	1.292907	mountain	7	0	0.000000	1.216600	1	0	0	0	CorrectOmission	1.174660	0.665674	1	0	100
124.665672	1.279605	city	6	1	1.315593	1.315593	0	1	0	0	CorrectCommission	0.597351	0.687441	1	0	100
125.965309	1.319668	city	1	1	1.285549	1.285549	0	1	0	0	CorrectCommission	0.772562	0.708490	1	0	100
127.264954	1.279615	city	3	1	1.366961	1.366961	0	1	0	0	CorrectCommission	0.297780	0.729068	1	0	100
128.571136	1.332763	city	4	1	1.518597	1.518597	0	1	0	0	CorrectCommission	0.586528	0.749269	1	0	100
129.897369	1.319701	city	2	1	1.329908	1.329908	0	1	0	0	CorrectCommission	0.513869	0.768881	1	0	100
131.230347	1.346249	city	8	1	1.420891	1.420891	0	1	0	0	CorrectCommission	0.016728	0.787316	0	0	100
132.563156	1.319380	city	2	1	1.548496	1.548496	0	1	0	0	CorrectCommission	0.760895	0.803620	0	0	100
133.876053	1.306402	city	3	1	1.700740	1.700740	0	1	0	0	CorrectCommission	1.648750	0.816608	0	0	100
135.169006	1.279517	city	8	1	1.545743	1.545743	0	1	0	0	CorrectCommission	0.744840	0.825075	0	0	100
136.475250	1.332971	city	1	1	1.724352	1.724352	0	1	0	0	CorrectCommission	1.786452	0.828066	0	0	100
137.781464	1.279454	city	6	1	1.571881	1.571881	0	1	0	0	CorrectCommission	0.897274	0.824980	0	0	100
139.067657	1.292925	city	1	1	1.680151	1.680151	0	1	0	0	CorrectCommission	1.528680	0.815757	0	0	100
140.380630	1.333006	city	3	1	1.531810	1.531810	0	1	0	0	CorrectCommission	0.663584	0.800790	0	0	100
141.686920	1.279600	city	8	1	1.399155	1.399155	0	1	0	0	CorrectCommission	0.110035	0.780881	0	0	100
142.999832	1.346211	city	3	1	1.434082	1.434082	0	1	0	0	CorrectCommission	0.093657	0.757079	1	0	100
144.312714	1.279562	city	8	1	1.182870	1.182870	0	1	0	0	CorrectCommission	1.371365	0.730474	1	0	100
145.612274	1.319554	mountain	7	0	0.000000	1.331792	1	0	0	0	CorrectOmission	0.502878	0.702080	1	0	100
146.918472	1.292835	city	4	1	1.489748	1.489748	0	1	0	0	CorrectCommission	0.418289	0.672800	1	0	100
148.224548	1.319320	city	6	1	1.265635	1.265635	0	1	0	0	CorrectCommission	0.888695	0.643373	1	0	100
149.530746	1.293076	city	8	1	1.191763	1.191763	0	1	0	0	CorrectCommission	1.319503	0.614409	1	0	100
150.817154	1.279739	city	7	1	1.291474	1.291474	0	1	0	0	CorrectCommission	0.738007	0.586443	1	0	100
152.110062	1.306062	city	2	1	1.382371	1.382371	0	1	0	0	CorrectCommission	0.207913	0.560000	1	0	100
153.409546	1.292934	city	7	1	1.408771	1.408771	0	1	0	0	CorrectCommission	0.053954	0.535584	1	0	100
154.715805	1.319579	city	3	1	1.377457	1.377457	0	1	0	0	CorrectCommission	0.236570	0.513679	1	0	100
156.022095	1.292989	city	1	1	1.303023	1.303023	0	1	0	0	CorrectCommission	0.670657	0.494765	1	0	100
157.321732	1.306285	city	10	1	1.382340	1.382340	0	1	0	0	CorrectCommission	0.208093	0.479318	1	0	100
161.393738	6.837717	break	0	0	0.000000	1.308934	0	0	0	0	ThoughtProbe	0.636184	0.467832	1	100	100
165.472412	1.319644	city	8	1	1.275235	1.275235	0	1	0	0	CorrectCommission	0.832711	0.460794	1	0	100
166.771912	1.279365	city	3	1	1.473673	1.473673	0	1	0	0	CorrectCommission	0.324542	0.458650	1	0	100
168.071472	1.319755	city	10	1	1.343558	1.343558	0	1	0	0	CorrectCommission	0.434265	0.461786	1	0	100
169.377731	1.292750	mountain	1	0	0.000000	1.403908	1	0	0	0	CorrectOmission	0.082313	0.470440	1	0	100
170.677277	1.306360	city	9	1	1.486953	1.486953	0	1	0	0	CorrectCommission	0.401990	0.484640	1	0	100
171.976837	1.292756	city	4	1	1.424922	1.424922	0	1	0	0	CorrectCommission	0.040235	0.504085	1	0	100
173.283066	1.319683	city	8	1	1.276940	1.276940	0	1	0	0	CorrectCommission	0.822766	0.528103	1	0	100
174.582718	1.279630	city	9	1	1.364681	1.364681	0	1	0	0	CorrectCommission	0.311077	0.555648	1	0	100
175.882202	1.319347	city	5	1	1.259323	1.259323	0	1	0	0	CorrectCommission	0.925504	0.585381	1	0	100
177.181808	1.279843	city	10	1	1.422316	1.422316	0	1	0	0	CorrectCommission	0.025040	0.615763	1	0	100
178.461517	1.279579	city	2	1	1.478462	1.478462	0	1	0	0	CorrectCommission	0.352471	0.645229	1	0	100
179.747757	1.292897	city	9	1	1.550859	1.550859	0	1	0	0	CorrectCommission	0.774676	0.672409	1	0	100
181.047318	1.306225	mountain	8	0	0.000000	1.683751	1	0	0	0	CorrectOmission	1.549674	0.696304	1	0	100
182.340134	1.279423	city	9	1	1.728701	1.728701	0	1	0	0	CorrectCommission	1.811815	0.716407	1	0	100
183.633041	1.306376	city	2	1	1.537274	1.537274	0	1	0	0	CorrectCommission	0.695448	0.732776	1	0	100
184.926010	1.279578	city	7	1	1.398290	1.398290	0	1	0	0	CorrectCommission	0.115080	0.746012	1	0	100
186.232162	1.332736	city	3	1	1.465692	1.465692	0	1	0	0	CorrectCommission	0.277999	0.757090	1	0	100
187.558365	1.319655	city	8	1	1.283660	1.283660	0	1	0	0	CorrectCommission	0.783578	0.767186	1	0	100
188.871353	1.306323	city	7	1	1.227947	1.227947	0	1	0	0	CorrectCommission	1.108482	0.777384	0	0	100
190.190964	1.332886	city	3	1	1.229649	1.229649	0	1	0	0	CorrectCommission	1.098559	0.788520	0	0	100
191.510422	1.306052	city	8	1	1.410097	1.410097	0	1	0	0	CorrectCommission	0.046219	0.801034	0	0	100
192.823364	1.319816	city	5	1	1.353578	1.353578	0	1	0	0	CorrectCommission	0.375830	0.814909	0	0	100
194.129684	1.292842	city	10	1	1.350619	1.350619	0	1	0	0	CorrectCommission	0.393087	0.829627	0	0	100
195.422562	1.292891	city	7	1	1.803043	1.803043	0	1	0	0	CorrectCommission	2.245365	0.844297	0	0	100
196.708771	1.279545	city	8	1	1.595217	1.595217	0	1	0	0	CorrectCommission	1.033362	0.857743	0	0	100
198.001602	1.306114	city	5	1	1.481740	1.481740	0	1	0	0	CorrectCommission	0.371590	0.868739	0	0	100
199.307770	1.306231	city	6	1	1.554767	1.554767	0	1	0	0	CorrectCommission	0.797464	0.876097	0	0	100
200.620773	1.319757	city	10	1	1.271278	1.271278	0	1	0	0	CorrectCommission	0.855789	0.878838	0	0	100
201.920334	1.279387	city	9	1	1.183188	1.183188	0	1	0	0	CorrectCommission	1.369511	0.876334	0	0	100
203.199921	1.279771	city	6	1	1.337595	1.337595	0	1	0	0	CorrectCommission	0.469040	0.868400	0	0	100
204.506210	1.332809	city	9	1	1.155446	1.155446	0	1	0	0	CorrectCommission	1.531296	0.855368	0	0	100
205.819000	1.292777	city	7	1	1.195606	1.195606	0	1	0	0	CorrectCommission	1.297090	0.838089	0	0	100
207.131973	1.333155	city	8	1	1.270150	1.270150	0	1	0	0	CorrectCommission	0.862363	0.817913	0	0	100
211.570557	7.544008	break	0	0	0.000000	1.334775	0	0	0	0	ThoughtProbe	0.485483	0.796612	0	100	100
216.002304	1.319510	city	3	1	1.399370	1.399370	0	1	0	0	CorrectCommission	0.108776	0.776201	0	0	100
217.301941	1.279770	city	9	1	1.473826	1.473826	0	1	0	0	CorrectCommission	0.325432	0.758752	1	0	100
218.621521	1.359390	city	7	1	1.843367	1.843367	0	1	0	0	CorrectCommission	2.480524	0.746194	1	0	100
219.947662	1.292887	city	5	1	1.418444	1.418444	0	1	0	0	CorrectCommission	0.002457	0.740078	1	0	100
221.247314	1.306399	city	1	1	1.445545	1.445545	0	1	0	0	CorrectCommission	0.160503	0.741455	1	0	100
222.540222	1.279413	city	2	1	1.455957	1.455957	0	1	0	0	CorrectCommission	0.221224	0.750603	1	0	100
223.839783	1.319726	city	5	1	1.517445	1.517445	0	1	0	0	CorrectCommission	0.579811	0.767014	1	0	100
225.166016	1.332734	city	10	1	1.527072	1.527072	0	1	0	0	CorrectCommission	0.635953	0.789386	0	0	100
226.485504	1.306243	city	5	1	1.345290	1.345290	0	1	0	0	CorrectCommission	0.424163	0.815787	0	0	100
227.785049	1.292842	city	9	1	1.191277	1.191277	0	1	0	0	CorrectCommission	1.322334	0.843857	0	0	100
229.071381	1.279813	city	3	1	1.261802	1.261802	0	1	0	0	CorrectCommission	0.911049	0.871066	0	0	100
230.386032	1.349496	city	4	1	1.287507	1.287507	0	1	0	0	CorrectCommission	0.761140	0.895067	0	0	100
231.725586	1.329609	city	1	1	1.168651	1.168651	0	1	0	0	CorrectCommission	1.454288	0.913976	0	0	100
233.043457	1.306154	city	8	1	1.049901	1.049901	0	1	0	0	CorrectCommission	2.146814	0.926580	0	0	100
234.336288	1.279502	mountain	5	0	0.000000	1.202699	1	0	0	0	CorrectOmission	1.255727	0.932406	0	0	100
235.622513	1.292946	mountain	2	0	0.000000	1.434667	1	0	0	0	CorrectOmission	0.097065	0.931770	0	0	100
236.908752	1.279535	city	3	1	1.553427	1.553427	0	1	0	0	CorrectCommission	0.789650	0.925594	0	0	100
238.188339	1.279637	city	2	1	1.366601	1.366601	0	1	0	0	CorrectCommission	0.299882	0.915219	0	0	100
239.481339	1.306361	city	8	1	1.136096	1.136096	0	1	0	0	CorrectCommission	1.644140	0.902218	0	0	100
240.774307	1.279589	mountain	3	0	0.000000	1.198046	1	0	0	0	CorrectOmission	1.282863	0.888167	0	0	100
242.067215	1.306225	city	7	1	1.374464	1.374464	0	1	0	0	CorrectCommission	0.254025	0.874544	0	0	100
243.373459	1.306261	city	5	1	1.487366	1.487366	0	1	0	0	CorrectCommission	0.404397	0.862592	0	0	100
244.673050	1.292898	city	7	1	1.733722	1.733722	0	1	0	0	CorrectCommission	1.841098	0.853229	0	0	100
245.965927	1.292878	city	5	1	1.524763	1.524763	0	1	0	0	CorrectCommission	0.622486	0.847005	0	0	100
247.258835	1.292936	mountain	9	0	0.000000	1.496546	1	0	0	0	CorrectOmission	0.457932	0.844103	0	0	100
248.545090	1.279575	city	7	1	1.521411	1.521411	0	1	0	0	CorrectCommission	0.602941	0.844393	0	0	100
249.837906	1.306049	city	2	1	1.471697	1.471697	0	1	0	0	CorrectCommission	0.313019	0.847438	0	0	100
251.157455	1.333054	city	3	1	1.550365	1.550365	0	1	0	0	CorrectCommission	0.771794	0.852605	0	0	100
252.470459	1.292937	city	7	1	1.705544	1.705544	0	1	0	0	CorrectCommission	1.676768	0.859168	0	0	100
253.769974	1.306105	city	8	1	1.578081	1.578081	0	1	0	0	CorrectCommission	0.933430	0.866413	0	0	100
255.089539	1.333023	city	5	1	1.229615	1.229615	0	1	0	0	CorrectCommission	1.098756	0.873768	0	0	100
256.395752	1.279417	city	10	1	1.317455	1.317455	0	1	0	0	CorrectCommission	0.586492	0.880797	0	0	100
257.688660	1.306385	city	4	1	1.585324	1.585324	0	1	0	0	CorrectCommission	0.975666	0.887257	0	0	100
258.988281	1.292844	city	9	1	1.363972	1.363972	0	1	0	0	CorrectCommission	0.315212	0.893014	0	0	100
260.287781	1.306140	city	8	1	1.657472	1.657472	0	1	0	0	CorrectCommission	1.396423	0.898027	0	0	100
261.594025	1.306395	city	2	1	1.604318	1.604318	0	1	0	0	CorrectCommission	1.086437	0.902148	0	0	100
262.907013	1.319574	city	6	1	1.574461	1.574461	0	1	0	0	CorrectCommission	0.912315	0.905161	0	0	100
264.239838	1.346050	city	9	1	1.292485	1.292485	0	1	0	0	CorrectCommission	0.732114	0.906691	0	0	100
265.565979	1.306241	city	5	1	1.279122	1.279122	0	1	0	0	CorrectCommission	0.810040	0.906171	0	0	100
266.858887	1.279579	city	2	1	1.305671	1.305671	0	1	0	0	CorrectCommission	0.655213	0.902932	0	0	100
268.138550	1.279765	city	9	1	1.337969	1.337969	0	1	0	0	CorrectCommission	0.466858	0.896281	0	0	100
269.424866	1.292879	city	4	1	1.186095	1.186095	0	1	0	0	CorrectCommission	1.352557	0.885713	0	0	100
270.737701	1.332774	city	10	1	1.099098	1.099098	0	1	0	0	CorrectCommission	1.859905	0.871022	0	0	100
272.057312	1.306412	city	5	1	1.554620	1.554620	0	1	0	0	CorrectCommission	0.796609	0.852531	0	0	100
273.356873	1.292725	city	6	1	1.634777	1.634777	0	1	0	0	CorrectCommission	1.264069	0.831135	0	0	100
276.982239	5.958017	break	0	0	0.000000	1.545171	0	0	0	0	ThoughtProbe	0.741505	0.808276	0	100	100
280.621033	1.319554	city	4	1	1.390088	1.390088	0	1	0	0	CorrectCommission	0.162912	0.785904	0	0	100
281.933990	1.306391	city	9	1	1.273812	1.273812	0	1	0	0	CorrectCommission	0.841010	0.766238	1	0	100
283.226929	1.279453	city	7	1	1.585191	1.585191	0	1	0	0	CorrectCommission	0.974890	0.751516	1	0	100
284.526489	1.319714	city	5	1	1.443625	1.443625	0	1	0	0	CorrectCommission	0.149305	0.743780	1	0	100
285.832733	1.292762	mountain	8	0	0.000000	1.476508	1	0	0	0	CorrectOmission	0.341076	0.744644	1	0	100
287.125580	1.292933	city	3	1	1.502624	1.502624	0	1	0	0	CorrectCommission	0.493376	0.755153	1	0	100
288.438568	1.333041	city	7	1	1.340753	1.340753	0	1	0	0	CorrectCommission	0.450621	0.775675	0	0	100
289.751556	1.292899	city	8	1	1.152685	1.152685	0	1	0	0	CorrectCommission	1.547397	0.805953	0	0	100
291.044342	1.292670	city	7	1	1.424795	1.424795	0	1	0	0	CorrectCommission	0.039494	0.845075	0	0	100
292.383820	1.386294	city	9	1	1.308135	1.308135	0	1	0	0	CorrectCommission	0.640846	0.891683	0	0	100
293.723389	1.292869	city	2	1	1.253658	1.253658	0	1	0	0	CorrectCommission	0.958543	0.943959	0	0	100
295.029602	1.319568	city	7	1	1.205069	1.205069	0	1	0	0	CorrectCommission	1.241905	0.999818	0	0	100
296.342529	1.306258	city	9	1	1.189708	1.189708	0	1	0	0	CorrectCommission	1.331484	1.056984	0	0	100
297.648804	1.306298	city	1	1	1.260984	1.260984	0	1	0	0	CorrectCommission	0.915817	1.113075	0	0	100
298.948395	1.292863	city	7	1	1.725790	1.725790	0	1	0	0	CorrectCommission	1.794838	1.165653	0	0	100
300.254669	1.319720	city	10	1	1.445373	1.445373	0	1	0	0	CorrectCommission	0.159500	1.212273	0	0	100
301.574310	1.319578	city	8	1	1.738771	1.738771	0	1	0	0	CorrectCommission	1.870539	1.250642	0	0	100
302.893799	1.319389	city	2	1	1.672811	1.672811	0	1	0	0	CorrectCommission	1.485873	1.278604	0	0	100
304.220001	1.333022	city	1	1	1.572541	1.572541	0	1	0	0	CorrectCommission	0.901118	1.294405	0	0	100
305.532898	1.292746	city	7	1	1.757565	1.757565	0	1	0	0	CorrectCommission	1.980143	1.296847	0	0	100
306.825806	1.293103	mountain	2	0	0.000000	1.775539	1	0	0	0	CorrectOmission	2.084968	1.285365	0	0	100
308.112061	1.279406	city	1	1	1.725388	1.725388	0	1	0	0	CorrectCommission	1.792497	1.260216	0	0	100
309.451630	1.399712	city	4	1	1.706035	1.706035	0	1	0	0	CorrectCommission	1.679633	1.222490	0	0	100
310.791260	1.279559	city	2	1	1.284356	1.284356	0	1	0	0	CorrectCommission	0.779515	1.174006	0	0	100
312.085327	1.308529	city	7	1	1.163587	1.163587	0	1	0	0	CorrectCommission	1.483820	1.117178	0	0	100
313.378143	1.277121	city	1	1	1.365470	1.365470	0	1	0	0	CorrectCommission	0.306478	1.054742	0	0	100
314.669922	1.306429	city	9	1	1.683830	1.683830	0	1	0	0	CorrectCommission	1.550139	0.989576	0	0	100
316.009552	1.372852	city	5	1	1.287862	1.287862	0	1	0	0	CorrectCommission	0.759070	0.924356	0	0	100
317.335785	1.279584	city	6	1	1.342226	1.342226	0	1	0	0	CorrectCommission	0.442029	0.861479	0	0	100
318.615265	1.279427	city	1	1	1.431387	1.431387	0	1	0	0	CorrectCommission	0.077940	0.802880	0	0	100
319.901520	1.293081	city	9	1	1.573404	1.573404	0	1	0	0	CorrectCommission	0.906153	0.750059	1	0	100
321.214417	1.332708	city	7	1	1.583668	1.583668	0	1	0	0	CorrectCommission	0.966011	0.704063	1	0	100
322.553986	1.346387	city	6	1	1.602853	1.602853	0	1	0	0	CorrectCommission	1.077893	0.665563	1	0	100
326.566071	6.677803	break	0	0	0.000000	1.471053	0	0	0	0	ThoughtProbe	0.309262	0.634891	1	100	100
330.544678	1.279427	city	8	1	1.337374	1.337374	0	1	0	0	CorrectCommission	0.470326	0.612092	1	0	100
331.830933	1.293072	city	1	1	1.350922	1.350922	0	1	0	0	CorrectCommission	0.391318	0.596879	1	0	100
333.117249	1.279563	city	8	1	1.441565	1.441565	0	1	0	0	CorrectCommission	0.137296	0.588627	1	0	100
334.396820	1.279589	mountain	6	0	0.000000	1.351769	1	0	0	0	CorrectOmission	0.386378	0.586357	1	0	100
335.676331	1.279410	city	3	1	1.284848	1.284848	0	1	0	0	CorrectCommission	0.776646	0.588712	1	0	100
336.955872	1.279674	city	5	1	1.444118	1.444118	0	1	0	0	CorrectCommission	0.152186	0.594082	1	0	100
338.235443	1.279485	city	7	1	1.498341	1.498341	0	1	0	0	CorrectCommission	0.468400	0.600736	1	0	100
339.514984	1.279617	mountain	10	0	0.000000	1.594690	1	0	0	0	CorrectOmission	1.030288	0.606982	1	0	100
340.794586	1.279550	city	9	1	1.562401	1.562401	0	1	0	0	CorrectCommission	0.841989	0.611395	1	0	100
342.074219	1.279735	city	6	1	1.230712	1.230712	0	1	0	0	CorrectCommission	1.092359	0.613052	1	0	100
343.353882	1.279599	city	10	1	1.365428	1.365428	0	1	0	0	CorrectCommission	0.306720	0.611623	1	0	100
344.633392	1.279391	city	6	1	1.649543	1.649543	0	1	0	0	CorrectCommission	1.350181	0.607432	1	0	100
345.919617	1.293073	city	5	1	1.537221	1.537221	0	1	0	0	CorrectCommission	0.695141	0.601323	1	0	100
347.212555	1.292772	city	2	1	1.351779	1.351779	0	1	0	0	CorrectCommission	0.386320	0.594594	1	0	100
348.505371	1.292879	city	10	1	1.437393	1.437393	0	1	0	0	CorrectCommission	0.112966	0.588675	1	0	100
349.791656	1.279683	city	8	1	1.441682	1.441682	0	1	0	0	CorrectCommission	0.137976	0.584920	1	0	100
351.071320	1.279641	city	10	1	1.284267	1.284267	0	1	0	0	CorrectCommission	0.780035	0.584381	1	0	100
352.350830	1.279414	city	4	1	1.502894	1.502894	0	1	0	0	CorrectCommission	0.494955	0.587608	1	0	100
353.630341	1.279580	city	2	1	1.444026	1.444026	0	1	0	0	CorrectCommission	0.151648	0.594629	1	0	100
354.909943	1.279619	city	4	1	1.502968	1.502968	0	1	0	0	CorrectCommission	0.495385	0.604934	1	0	100
356.196259	1.293036	city	7	1	1.320264	1.320264	0	1	0	0	CorrectCommission	0.570107	0.617585	1	0	100
357.482513	1.279449	city	10	1	1.124266	1.124266	0	1	0	0	CorrectCommission	1.713133	0.631397	1	0	100
358.762024	1.279571	city	1	1	1.448721	1.448721	0	1	0	0	CorrectCommission	0.179026	0.645046	1	0	100
360.041656	1.279709	city	8	1	1.337846	1.337846	0	1	0	0	CorrectCommission	0.467574	0.657313	1	0	100
361.321259	1.279521	city	3	1	1.177558	1.177558	0	1	0	0	CorrectCommission	1.402342	0.667130	1	0	100
362.600861	1.279645	city	4	1	1.443983	1.443983	0	1	0	0	CorrectCommission	0.151397	0.673680	1	0	100
363.880463	1.279577	mountain	9	0	0.000000	1.494544	1	0	0	0	CorrectOmission	0.446257	0.676505	1	0	100
365.159973	1.279427	city	7	1	1.497412	1.497412	0	1	0	0	CorrectCommission	0.462982	0.675492	1	0	100
366.439453	1.279575	city	1	1	1.620759	1.620759	0	1	0	0	CorrectCommission	1.182320	0.670910	1	0	100
367.725800	1.293066	city	2	1	1.721599	1.721599	0	1	0	0	CorrectCommission	1.770396	0.663385	1	0	100
369.012115	1.279598	city	4	1	1.498213	1.498213	0	1	0	0	CorrectCommission	0.467653	0.653850	1	0	100
370.291626	1.279397	city	3	1	1.464760	1.464760	0	1	0	0	CorrectCommission	0.272562	0.643508	1	0	100
371.577850	1.293083	city	2	1	1.513838	1.513838	0	1	0	0	CorrectCommission	0.558773	0.633657	1	0	100
372.864166	1.279528	city	7	1	1.405559	1.405559	0	1	0	0	CorrectCommission	0.072686	0.625573	1	0	100
374.143707	1.279544	city	2	1	1.454357	1.454357	0	1	0	0	CorrectCommission	0.211893	0.620487	1	0	100
375.423218	1.279481	city	10	1	1.191757	1.191757	0	1	0	0	CorrectCommission	1.319536	0.619387	1	0	100
376.702820	1.279762	city	4	1	1.471032	1.471032	0	1	0	0	CorrectCommission	0.309140	0.622989	1	0	100
377.982452	1.279471	city	2	1	1.253100	1.253100	0	1	0	0	CorrectCommission	0.961796	0.631771	1	0	100
379.261993	1.279591	city	1	1	1.409199	1.409199	0	1	0	0	CorrectCommission	0.051456	0.645847	1	0	100
382.980713	6.157901	break	0	0	0.000000	1.341000	0	0	0	0	ThoughtProbe	0.449181	0.665044	1	100	100
386.706146	1.292917	city	8	1	1.243590	1.243590	0	1	0	0	CorrectCommission	1.017256	0.688829	1	0	9.997826e+01
387.999115	1.293052	city	4	1	1.312058	1.312058	0	1	0	0	CorrectCommission	0.617965	0.716298	1	0	9.995652e+01
389.352020	1.412722	city	3	1	1.327178	1.327178	0	1	0	0	CorrectCommission	0.529791	0.746194	1	0	9.993478e+01
390.698181	1.279657	city	7	1	1.612132	1.612132	0	1	0	0	CorrectCommission	1.132006	0.776865	0	0	9.991304e+01
391.984497	1.292975	mountain	4	0	0.000000	1.530557	1	0	0	0	CorrectOmission	0.656278	0.806334	0	0	9.989130e+01
393.284058	1.306089	city	10	1	1.350118	1.350118	0	1	0	0	CorrectCommission	0.396007	0.832417	0	0	9.986957e+01
394.576965	1.279745	city	5	1	1.338480	1.338480	0	1	0	0	CorrectCommission	0.463876	0.852844	0	0	9.984783e+01
395.883209	1.332731	city	8	1	1.261567	1.261567	0	1	0	0	CorrectCommission	0.912419	0.865507	0	0	9.982609e+01
397.216095	1.333062	city	10	1	1.044434	1.044434	0	1	0	0	CorrectCommission	2.178693	0.868681	0	0	9.980435e+01
398.535645	1.306053	city	7	1	1.153192	1.153192	0	1	0	0	CorrectCommission	1.544441	0.861256	0	0	9.978261e+01
399.861816	1.346261	city	8	1	1.130201	1.130201	0	1	0	0	CorrectCommission	1.678519	0.842969	0	0	9.976087e+01
401.188049	1.306197	city	2	1	1.429182	1.429182	0	1	0	0	CorrectCommission	0.065081	0.814431	0	0	9.973913e+01
402.494354	1.306416	city	6	1	1.422214	1.422214	0	1	0	0	CorrectCommission	0.024441	0.777186	0	0	9.971739e+01
403.813995	1.332884	city	7	1	1.820470	1.820470	0	1	0	0	CorrectCommission	2.346993	0.733524	1	0	9.969565e+01
405.166901	1.372922	city	5	1	1.382839	1.382839	0	1	0	0	CorrectCommission	0.205184	0.686255	1	0	9.967391e+01
406.519806	1.332878	mountain	7	0	0.000000	1.414774	1	0	0	0	CorrectOmission	0.018949	0.638591	1	0	9.965217e+01
407.839264	1.306072	city	9	1	1.558724	1.558724	0	1	0	0	CorrectCommission	0.820544	0.593783	1	0	9.963043e+01
409.132172	1.279739	mountain	2	0	0.000000	1.457143	1	0	0	0	CorrectOmission	0.228141	0.554852	1	0	9.960870e+01
410.411774	1.279463	city	4	1	1.346399	1.346399	0	1	0	0	CorrectCommission	0.417696	0.524423	1	0	9.958696e+01
411.697998	1.293002	city	2	1	1.462862	1.462862	0	1	0	0	CorrectCommission	0.261495	0.504481	1	0	9.956522e+01
413.057617	1.426216	city	10	1	1.358290	1.358290	0	1	0	0	CorrectCommission	0.348347	0.496277	1	0	9.954348e+01
414.417175	1.292901	mountain	4	0	0.000000	1.432882	1	0	0	0	CorrectOmission	0.086657	0.500182	1	0	9.952174e+01
415.710083	1.292918	city	9	1	1.511230	1.511230	0	1	0	0	CorrectCommission	0.543566	0.515651	1	0	9.950000e+01
417.009644	1.306218	city	4	1	1.417927	1.417927	0	1	0	0	CorrectCommission	0.000557	0.541278	1	0	9.947826e+01
418.322479	1.319423	city	6	1	1.502673	1.502673	0	1	0	0	CorrectCommission	0.493665	0.574888	1	0	9.945652e+01
419.641968	1.319541	city	2	1	1.333736	1.333736	0	1	0	0	CorrectCommission	0.491541	0.613661	1	0	9.943478e+01
420.954865	1.306239	city	3	1	1.501559	1.501559	0	1	0	0	CorrectCommission	0.487167	0.654458	1	0	9.941304e+01
422.274750	1.333534	city	8	1	1.310445	1.310445	0	1	0	0	CorrectCommission	0.627372	0.694078	1	0	9.939130e+01
423.581055	1.279105	city	7	1	1.289012	1.289012	0	1	0	0	CorrectCommission	0.752364	0.729603	1	0	9.936957e+01
424.893646	1.346081	city	8	1	1.129982	1.129982	0	1	0	0	CorrectCommission	1.679798	0.758718	1	0	9.934783e+01
426.253204	1.373021	city	7	1	1.126827	1.126827	0	1	0	0	CorrectCommission	1.698199	0.779882	0	0	9.932609e+01
427.606171	1.332900	city	6	1	1.229772	1.229772	0	1	0	0	CorrectCommission	1.097838	0.792506	0	0	9.930435e+01
428.925751	1.306253	city	7	1	1.551859	1.551859	0	1	0	0	CorrectCommission	0.780507	0.796889	0	0	9.928261e+01
430.278595	1.399434	city	5	1	1.535978	1.535978	0	1	0	0	CorrectCommission	0.687892	0.794085	0	0	9.926087e+01
431.631378	1.306178	city	7	1	1.417681	1.417681	0	1	0	0	CorrectCommission	0.001991	0.785632	0	0	9.923913e+01
432.957581	1.346206	city	4	1	1.572154	1.572154	0	1	0	0	CorrectCommission	0.898861	0.773233	1	0	9.921739e+01
434.283875	1.306403	city	7	1	1.657569	1.657569	0	1	0	0	CorrectCommission	1.396989	0.758529	1	0	9.919565e+01
435.596863	1.319541	city	4	1	1.428158	1.428158	0	1	0	0	CorrectCommission	0.059106	0.742916	1	0	9.917391e+01
436.949738	1.386224	city	1	1	1.333968	1.333968	0	1	0	0	CorrectCommission	0.490192	0.727470	1	0	9.915217e+01
438.295898	1.306084	city	4	1	1.231698	1.231698	0	1	0	0	CorrectCommission	1.086610	0.712972	1	0	9.913043e+01
439.622040	1.346222	city	6	1	1.313471	1.313471	0	1	0	0	CorrectCommission	0.609728	0.700015	1	0	9.910870e+01
440.948364	1.306418	city	7	1	1.417868	1.417868	0	1	0	0	CorrectCommission	0.000903	0.689140	1	0	9.908696e+01
442.267975	1.332779	city	10	1	1.135723	1.135723	0	1	0	0	CorrectCommission	1.646319	0.680996	1	0	9.906522e+01
443.574188	1.279677	city	1	1	1.613572	1.613572	0	1	0	0	CorrectCommission	1.140404	0.676372	1	0	9.904348e+01
444.860504	1.292940	city	5	1	1.451893	1.451893	0	1	0	0	CorrectCommission	0.197525	0.676248	1	0	9.902174e+01
448.785889	6.557833	break	0	1	1.247874	1.247874	0	0	0	0	ThoughtProbe	0.992274	0.681651	1	99	99
452.724579	1.319573	city	3	1	1.395998	1.395998	0	1	0	0	CorrectCommission	0.128443	0.693415	1	0	9.902174e+01
454.064056	1.359359	city	4	1	1.429832	1.429832	0	1	0	0	CorrectCommission	0.068870	0.711987	1	0	9.904348e+01
455.430267	1.373062	city	8	1	1.287064	1.287064	0	1	0	0	CorrectCommission	0.763723	0.737162	1	0	9.906522e+01
456.756531	1.279448	city	10	1	1.338285	1.338285	0	1	0	0	CorrectCommission	0.465014	0.767972	1	0	9.908696e+01
458.042755	1.293037	mountain	5	0	0.000000	1.379167	1	0	0	0	CorrectOmission	0.226596	0.802643	0	0	9.910870e+01
459.329071	1.279589	city	9	1	1.470172	1.470172	0	1	0	0	CorrectCommission	0.304124	0.838728	0	0	9.913043e+01
460.648560	1.359360	city	1	1	1.671758	1.671758	0	1	0	0	CorrectCommission	1.479736	0.873371	0	0	9.915217e+01
461.981354	1.306238	city	4	1	1.743007	1.743007	0	1	0	0	CorrectCommission	1.895245	0.903636	0	0	9.917391e+01
463.281006	1.293067	city	1	1	1.699581	1.699581	0	1	0	0	CorrectCommission	1.641994	0.926897	0	0	9.919565e+01
464.607330	1.359558	city	6	1	1.641616	1.641616	0	1	0	0	CorrectCommission	1.303951	0.941129	0	0	9.921739e+01
465.993591	1.413008	city	2	1	1.329917	1.329917	0	1	0	0	CorrectCommission	0.513815	0.945147	0	0	9.923913e+01
467.346497	1.292769	city	5	1	1.415456	1.415456	0	1	0	0	CorrectCommission	0.014968	0.938676	0	0	9.926087e+01
468.645996	1.306262	city	3	1	1.758436	1.758436	0	1	0	0	CorrectCommission	1.985226	0.922326	0	0	9.928261e+01
469.952240	1.306229	city	6	1	1.824474	1.824474	0	1	0	0	CorrectCommission	2.370342	0.897483	0	0	9.930435e+01
471.265137	1.319555	city	4	1	1.406886	1.406886	0	1	0	0	CorrectCommission	0.064949	0.866154	0	0	9.932609e+01
472.592438	1.335060	city	5	1	1.433069	1.433069	0	1	0	0	CorrectCommission	0.087746	0.830782	0	0	9.934783e+01
473.911926	1.303909	mountain	2	0	0.000000	1.559285	1	0	0	0	CorrectOmission	0.823816	0.793978	0	0	9.936957e+01
475.203796	1.279822	city	8	1	1.629538	1.629538	0	1	0	0	CorrectCommission	1.233518	0.758363	1	0	9.939130e+01
476.496796	1.306177	city	3	1	1.487832	1.487832	0	1	0	0	CorrectCommission	0.407113	0.726381	1	0	9.941304e+01
477.830505	1.361247	city	1	1	1.538039	1.538039	0	1	0	0	CorrectCommission	0.699913	0.700215	1	0	9.943478e+01
479.183411	1.344528	mountain	4	0	0.000000	1.427573	1	0	0	0	CorrectOmission	0.055697	0.681612	1	0	9.945652e+01
480.508698	1.306072	city	6	1	1.420213	1.420213	0	1	0	0	CorrectCommission	0.012773	0.671783	1	0	9.947826e+01
481.808258	1.293049	city	7	1	1.779737	1.779737	0	1	0	0	CorrectCommission	2.109446	0.671307	1	0	9.950000e+01
483.101257	1.292922	city	1	1	1.359493	1.359493	0	1	0	0	CorrectCommission	0.341332	0.679970	1	0	9.952174e+01
484.420776	1.346147	city	6	1	1.447918	1.447918	0	1	0	0	CorrectCommission	0.174342	0.696806	1	0	9.954348e+01
485.746918	1.306160	city	5	1	1.397708	1.397708	0	1	0	0	CorrectCommission	0.118469	0.719967	1	0	9.956522e+01
487.046478	1.292909	city	8	1	1.444454	1.444454	0	1	0	0	CorrectCommission	0.154144	0.746846	1	0	9.958696e+01
488.372772	1.359695	city	3	1	1.552601	1.552601	0	1	0	0	CorrectCommission	0.784836	0.774275	1	0	9.960870e+01
489.698975	1.292747	city	9	1	1.482841	1.482841	0	1	0	0	CorrectCommission	0.378011	0.798819	0	0	9.963043e+01
491.018524	1.346320	city	7	1	1.684855	1.684855	0	1	0	0	CorrectCommission	1.556112	0.817280	0	0	9.965217e+01
492.351471	1.319603	city	1	1	1.670562	1.670562	0	1	0	0	CorrectCommission	1.472760	0.827127	0	0	9.967391e+01
493.691071	1.359576	city	8	1	1.670706	1.670706	0	1	0	0	CorrectCommission	1.473600	0.827003	0	0	9.969565e+01
495.023987	1.306263	city	1	1	1.817437	1.817437	0	1	0	0	CorrectCommission	2.329306	0.817005	0	0	9.971739e+01
496.350220	1.346202	city	7	1	1.647978	1.647978	0	1	0	0	CorrectCommission	1.341052	0.798766	0	0	9.973913e+01
497.676392	1.306112	city	3	1	1.431901	1.431901	0	1	0	0	CorrectCommission	0.080934	0.775355	1	0	9.976087e+01
499.002625	1.346360	mountain	6	0	0.000000	1.407579	1	0	0	0	CorrectOmission	0.060904	0.750879	1	0	9.978261e+01
500.328918	1.306225	city	9	1	1.446963	1.446963	0	1	0	0	CorrectCommission	0.168777	0.730008	1	0	9.980435e+01
501.655060	1.346059	city	8	1	1.422004	1.422004	0	1	0	0	CorrectCommission	0.023218	0.717392	1	0	9.982609e+01
502.974548	1.292932	city	2	1	1.244464	1.244464	0	1	0	0	CorrectCommission	1.012159	0.717109	1	0	9.984783e+01
504.280792	1.319540	city	8	1	1.346502	1.346502	0	1	0	0	CorrectCommission	0.417092	0.732196	1	0	9.986957e+01
505.600433	1.319731	city	7	1	1.347304	1.347304	0	1	0	0	CorrectCommission	0.412415	0.764432	1	0	9.989130e+01
506.940063	1.359579	city	1	1	1.298237	1.298237	0	1	0	0	CorrectCommission	0.698567	0.814089	0	0	9.991304e+01
508.299561	1.359416	city	2	1	1.392914	1.392914	0	1	0	0	CorrectCommission	0.146429	0.879923	0	0	9.993478e+01
509.652374	1.346182	city	8	1	1.290551	1.290551	0	1	0	0	CorrectCommission	0.743391	0.959337	0	0	9.995652e+01
510.965332	1.279728	city	5	1	1.452262	1.452262	0	1	0	0	CorrectCommission	0.199674	1.048485	0	0	9.997826e+01
514.917419	6.624424	break	0	0	0.000000	1.613972	0	0	0	0	ThoughtProbe	1.142739	1.142739	0	100	100
