onset	duration	trial_type	image_type	Press	ReactionTime	ReactionTime_Interpolated	CorrectOmission	CorrectCommission	CommissionError	OmissionError	response_type	nonsmoothVarianceTimeCourse	VarianceTimeCourse	In_the_Zone	ThoughtProbe	ThoughtProbe_Interpolated
0.653115	1.279560	city	5	1	1.457744	1.457744	0	1	0	0	CorrectCommission	0.024257	0.024257	1	0	100
1.932745	1.279700	city	9	1	1.394360	1.394360	0	1	0	0	CorrectCommission	0.404642	0.125000	1	0	100
3.212399	1.279610	city	4	1	1.445071	1.445071	0	1	0	0	CorrectCommission	0.100313	0.221523	1	0	100
4.498577	1.292746	city	7	1	1.457672	1.457672	0	1	0	0	CorrectCommission	0.024689	0.310129	1	0	100
5.784755	1.279610	city	8	1	1.180087	1.180087	0	1	0	0	CorrectCommission	1.690557	0.388011	1	0	100
7.064323	1.279526	city	9	1	1.283560	1.283560	0	1	0	0	CorrectCommission	1.069584	0.453532	1	0	100
8.343874	1.279575	city	4	1	1.301409	1.301409	0	1	0	0	CorrectCommission	0.962465	0.506384	1	0	100
9.623535	1.279747	city	5	1	1.289861	1.289861	0	1	0	0	CorrectCommission	1.031773	0.547462	1	0	100
10.903114	1.279412	city	9	1	1.559918	1.559918	0	1	0	0	CorrectCommission	0.588919	0.578597	1	0	100
12.182611	1.279582	city	3	1	1.513251	1.513251	0	1	0	0	CorrectCommission	0.308858	0.602175	1	0	100
13.482268	1.319732	mountain	4	0	0.000000	1.503144	1	0	0	0	CorrectOmission	0.248203	0.620660	1	0	100
14.788588	1.292906	city	9	1	1.467232	1.467232	0	1	0	0	CorrectCommission	0.032680	0.636176	1	0	100
16.074829	1.279579	city	1	1	1.343147	1.343147	0	1	0	0	CorrectCommission	0.711985	0.650209	1	0	100
17.354416	1.279592	mountain	8	0	0.000000	1.505676	1	0	0	0	CorrectOmission	0.263395	0.663450	1	0	100
18.640659	1.292897	city	6	1	1.617500	1.617500	0	1	0	0	CorrectCommission	0.934485	0.675904	1	0	100
19.926815	1.279413	city	10	1	1.341303	1.341303	0	1	0	0	CorrectCommission	0.723053	0.687060	1	0	100
21.206406	1.279771	city	8	1	1.351870	1.351870	0	1	0	0	CorrectCommission	0.659640	0.696275	1	0	100
22.499393	1.306205	city	6	1	1.150967	1.150967	0	1	0	0	CorrectCommission	1.865310	0.703112	1	0	100
23.792284	1.279577	city	7	1	1.550247	1.550247	0	1	0	0	CorrectCommission	0.530880	0.707612	1	0	100
25.071867	1.279587	city	1	1	1.287638	1.287638	0	1	0	0	CorrectCommission	1.045113	0.710569	1	0	100
26.351370	1.279420	city	9	1	1.537991	1.537991	0	1	0	0	CorrectCommission	0.457326	0.713470	1	0	100
27.637615	1.293069	city	7	1	1.515250	1.515250	0	1	0	0	CorrectCommission	0.320855	0.718405	1	0	100
28.923946	1.279593	mountain	7	0	0.000000	1.611965	1	0	0	0	CorrectOmission	0.901264	0.727768	1	0	100
30.203445	1.279406	city	5	1	1.661581	1.661581	0	1	0	0	CorrectCommission	1.199024	0.743829	1	0	100
31.482931	1.279566	city	4	1	1.497546	1.497546	0	1	0	0	CorrectCommission	0.214604	0.768321	0	0	100
32.762596	1.279764	city	6	1	1.445761	1.445761	0	1	0	0	CorrectCommission	0.096169	0.802078	0	0	100
34.042271	1.279581	city	3	1	1.500674	1.500674	0	1	0	0	CorrectCommission	0.233375	0.844672	0	0	100
35.321758	1.279394	city	6	1	1.462736	1.462736	0	1	0	0	CorrectCommission	0.005699	0.894384	0	0	100
36.607990	1.293072	city	2	1	1.266459	1.266459	0	1	0	0	CorrectCommission	1.172215	0.948293	0	0	100
37.900978	1.292908	city	8	1	1.318160	1.318160	0	1	0	0	CorrectCommission	0.861938	1.002546	0	0	100
39.187183	1.279501	city	4	1	1.177078	1.177078	0	1	0	0	CorrectCommission	1.708614	1.052887	0	0	100
40.473351	1.292830	city	2	1	1.149872	1.149872	0	1	0	0	CorrectCommission	1.871881	1.095170	0	0	100
41.792881	1.346230	city	7	1	1.222972	1.222972	0	1	0	0	CorrectCommission	1.433188	1.125921	0	0	100
43.105862	1.279734	city	9	1	1.142926	1.142926	0	1	0	0	CorrectCommission	1.913568	1.142810	0	0	100
44.392124	1.292796	city	3	1	1.253682	1.253682	0	1	0	0	CorrectCommission	1.248888	1.144832	0	0	100
45.678379	1.279713	city	9	1	1.194747	1.194747	0	1	0	0	CorrectCommission	1.602577	1.132447	0	0	100
46.957932	1.279389	city	2	1	1.155784	1.155784	0	1	0	0	CorrectCommission	1.836404	1.107376	0	0	100
48.237415	1.279582	city	8	1	1.478135	1.478135	0	1	0	0	CorrectCommission	0.098112	1.072269	0	0	100
49.517078	1.279741	city	6	1	1.247554	1.247554	0	1	0	0	CorrectCommission	1.285668	1.030361	0	0	100
50.156948	11.636102	break	0	0	0.000000	1.293134	0	0	0	0	ThoughtProbe	1.012127	0.984884	0	100	100
62.432888	1.279678	city	10	1	1.478011	1.478011	0	1	0	0	CorrectCommission	0.097369	0.938802	0	0	9.992500e+01
63.712425	1.279393	city	7	1	1.665318	1.665318	0	1	0	0	CorrectCommission	1.221453	0.894445	0	0	9.985000e+01
65.005241	1.306232	mountain	6	0	0.000000	1.638537	1	0	0	0	CorrectOmission	1.060729	0.853301	0	0	9.977500e+01
66.304848	1.292994	mountain	9	0	0.000000	1.514633	1	0	0	0	CorrectOmission	0.317150	0.816040	0	0	9.970000e+01
67.591179	1.279657	city	1	1	1.410575	1.410575	0	1	0	0	CorrectCommission	0.307331	0.782621	0	0	9.962500e+01
68.870712	1.279410	city	10	1	1.443330	1.443330	0	1	0	0	CorrectCommission	0.110761	0.752478	0	0	9.955000e+01
70.150208	1.279579	city	6	1	1.690824	1.690824	0	1	0	0	CorrectCommission	1.374521	0.724823	1	0	9.947500e+01
71.436531	1.293072	city	5	1	1.726772	1.726772	0	1	0	0	CorrectCommission	1.590254	0.698896	1	0	9.940000e+01
72.722801	1.279464	city	7	1	1.662945	1.662945	0	1	0	0	CorrectCommission	1.207208	0.674200	1	0	9.932500e+01
74.002388	1.279717	city	5	1	1.525940	1.525940	0	1	0	0	CorrectCommission	0.385008	0.650614	1	0	9.925000e+01
75.308693	1.332894	city	3	1	1.425225	1.425225	0	1	0	0	CorrectCommission	0.219414	0.628378	1	0	9.917500e+01
76.628258	1.306231	city	5	1	1.476076	1.476076	0	1	0	0	CorrectCommission	0.085761	0.608010	1	0	9.910000e+01
77.927834	1.292927	city	10	1	1.300360	1.300360	0	1	0	0	CorrectCommission	0.968760	0.590130	1	0	9.902500e+01
79.220665	1.292737	city	2	1	1.460575	1.460575	0	1	0	0	CorrectCommission	0.007270	0.575295	1	0	9.895000e+01
80.506813	1.279551	city	4	1	1.422532	1.422532	0	1	0	0	CorrectCommission	0.235578	0.563885	1	0	9.887500e+01
81.799789	1.306401	city	8	1	1.204708	1.204708	0	1	0	0	CorrectCommission	1.542795	0.555954	1	0	9.880000e+01
83.092781	1.279579	city	3	1	1.463108	1.463108	0	1	0	0	CorrectCommission	0.007934	0.551208	1	0	9.872500e+01
84.372353	1.279579	city	1	1	1.510464	1.510464	0	1	0	0	CorrectCommission	0.292128	0.549121	1	0	9.865000e+01
85.658600	1.292905	city	9	1	1.430916	1.430916	0	1	0	0	CorrectCommission	0.185261	0.548918	1	0	9.857500e+01
86.944763	1.279423	city	5	1	1.321212	1.321212	0	1	0	0	CorrectCommission	0.843624	0.549772	1	0	9.850000e+01
88.237663	1.306381	mountain	10	0	0.000000	1.269842	1	0	0	0	CorrectOmission	1.151908	0.550823	1	0	9.842500e+01
89.530663	1.279617	city	8	1	1.303276	1.303276	0	1	0	0	CorrectCommission	0.951261	0.551335	1	0	9.835000e+01
90.810234	1.279526	city	9	1	1.447984	1.447984	0	1	0	0	CorrectCommission	0.082830	0.550802	1	0	9.827500e+01
92.089722	1.279445	city	4	1	1.399662	1.399662	0	1	0	0	CorrectCommission	0.372825	0.548922	1	0	9.820000e+01
93.375992	1.293092	city	5	1	1.386468	1.386468	0	1	0	0	CorrectCommission	0.452002	0.545617	1	0	9.812500e+01
94.668983	1.292902	city	8	1	1.471938	1.471938	0	1	0	0	CorrectCommission	0.060925	0.541094	1	0	9.805000e+01
95.981850	1.332831	city	10	1	1.285386	1.285386	0	1	0	0	CorrectCommission	1.058628	0.535835	1	0	9.797500e+01
97.294662	1.292797	city	5	1	1.654533	1.654533	0	1	0	0	CorrectCommission	1.156730	0.530547	1	0	9.790000e+01
98.594193	1.306263	city	7	1	1.537154	1.537154	0	1	0	0	CorrectCommission	0.452302	0.526177	1	0	9.782500e+01
99.887108	1.279561	city	3	1	1.400254	1.400254	0	1	0	0	CorrectCommission	0.369268	0.523868	1	0	9.775000e+01
101.166756	1.279737	city	1	1	1.528060	1.528060	0	1	0	0	CorrectCommission	0.397727	0.524834	1	0	9.767500e+01
102.453056	1.292859	city	6	1	1.467571	1.467571	0	1	0	0	CorrectCommission	0.034716	0.530253	1	0	9.760000e+01
103.739304	1.279645	city	2	1	1.306830	1.306830	0	1	0	0	CorrectCommission	0.929933	0.541106	1	0	9.752500e+01
105.025497	1.292734	city	1	1	1.490882	1.490882	0	1	0	0	CorrectCommission	0.174613	0.557976	1	0	9.745000e+01
106.331642	1.319562	city	10	1	1.398746	1.398746	0	1	0	0	CorrectCommission	0.378322	0.580979	1	0	9.737500e+01
107.637894	1.292944	city	6	1	1.462678	1.462678	0	1	0	0	CorrectCommission	0.005351	0.609626	1	0	9.730000e+01
108.924133	1.279533	city	9	1	1.343686	1.343686	0	1	0	0	CorrectCommission	0.708749	0.642816	1	0	9.722500e+01
110.203789	1.279775	city	2	1	1.283703	1.283703	0	1	0	0	CorrectCommission	1.068729	0.678850	1	0	9.715000e+01
111.483452	1.279550	city	6	1	1.294326	1.294326	0	1	0	0	CorrectCommission	1.004975	0.715628	1	0	9.707500e+01
115.935234	7.624011	break	0	0	0.000000	1.475385	0	0	0	0	ThoughtProbe	0.081613	0.750827	0	97	97
120.387115	1.279755	city	5	1	1.520849	1.520849	0	1	0	0	CorrectCommission	0.354453	0.782132	0	0	9.702941e+01
121.666779	1.279571	city	7	1	1.124685	1.124685	0	1	0	0	CorrectCommission	2.023039	0.807463	0	0	9.705882e+01
122.953018	1.292906	city	1	1	1.264671	1.264671	0	1	0	0	CorrectCommission	1.182944	0.825220	0	0	9.708824e+01
124.239212	1.279488	city	4	1	1.390783	1.390783	0	1	0	0	CorrectCommission	0.426110	0.834545	0	0	9.711765e+01
125.518761	1.279603	city	2	1	1.261020	1.261020	0	1	0	0	CorrectCommission	1.204851	0.835415	0	0	9.714706e+01
126.804955	1.292793	city	9	1	1.745981	1.745981	0	1	0	0	CorrectCommission	1.705535	0.828621	0	0	9.717647e+01
128.104462	1.306213	city	4	1	1.591787	1.591787	0	1	0	0	CorrectCommission	0.780170	0.815682	0	0	9.720588e+01
129.397461	1.279788	mountain	2	0	0.000000	1.590394	1	0	0	0	CorrectOmission	0.771812	0.798698	0	0	9.723529e+01
130.683777	1.292856	city	2	1	1.581520	1.581520	0	1	0	0	CorrectCommission	0.718557	0.779995	0	0	9.726471e+01
131.970016	1.279606	city	1	1	1.404882	1.404882	0	1	0	0	CorrectCommission	0.341495	0.761809	0	0	9.729412e+01
133.249603	1.279587	city	10	1	1.408874	1.408874	0	1	0	0	CorrectCommission	0.317543	0.746034	1	0	9.732353e+01
134.542511	1.306224	mountain	10	0	0.000000	1.384255	1	0	0	0	CorrectOmission	0.465283	0.733945	1	0	9.735294e+01
135.835388	1.279522	city	10	1	1.450992	1.450992	0	1	0	0	CorrectCommission	0.064776	0.726065	1	0	9.738235e+01
137.114960	1.279617	city	7	1	1.729049	1.729049	0	1	0	0	CorrectCommission	1.603916	0.722204	1	0	9.741176e+01
138.394485	1.279443	city	6	1	1.660706	1.660706	0	1	0	0	CorrectCommission	1.193772	0.721458	1	0	9.744118e+01
139.694092	1.319751	city	8	1	1.483691	1.483691	0	1	0	0	CorrectCommission	0.131460	0.722494	1	0	9.747059e+01
140.993729	1.279547	city	7	1	1.437473	1.437473	0	1	0	0	CorrectCommission	0.145909	0.723753	1	0	9.750000e+01
142.293304	1.319594	city	6	1	1.559819	1.559819	0	1	0	0	CorrectCommission	0.588325	0.723693	1	0	9.752941e+01
143.606216	1.306219	city	7	1	1.740215	1.740215	0	1	0	0	CorrectCommission	1.670932	0.721029	1	0	9.755882e+01
144.899033	1.279415	city	5	1	1.286778	1.286778	0	1	0	0	CorrectCommission	1.050275	0.714907	1	0	9.758824e+01
146.178604	1.279741	city	2	1	1.300621	1.300621	0	1	0	0	CorrectCommission	0.967197	0.705072	1	0	9.761765e+01
147.464920	1.292891	city	1	1	1.302934	1.302934	0	1	0	0	CorrectCommission	0.953317	0.691840	1	0	9.764706e+01
148.757828	1.292927	city	9	1	1.406962	1.406962	0	1	0	0	CorrectCommission	0.329014	0.675991	1	0	9.767647e+01
150.050674	1.292766	city	10	1	1.532953	1.532953	0	1	0	0	CorrectCommission	0.427093	0.658644	1	0	9.770588e+01
151.356827	1.319545	city	9	1	1.593701	1.593701	0	1	0	0	CorrectCommission	0.791659	0.641079	1	0	9.773529e+01
152.663055	1.292910	city	6	1	1.464073	1.464073	0	1	0	0	CorrectCommission	0.013727	0.624556	1	0	9.776471e+01
153.975967	1.332906	city	5	1	1.383990	1.383990	0	1	0	0	CorrectCommission	0.466878	0.610171	1	0	9.779412e+01
155.322235	1.359622	city	2	1	1.267850	1.267850	0	1	0	0	CorrectCommission	1.163867	0.598726	1	0	9.782353e+01
156.655167	1.306241	city	6	1	1.481054	1.481054	0	1	0	0	CorrectCommission	0.115633	0.590751	1	0	9.785294e+01
157.954697	1.292826	city	2	1	1.331241	1.331241	0	1	0	0	CorrectCommission	0.783438	0.586531	1	0	9.788235e+01
159.247559	1.292901	city	3	1	1.361003	1.361003	0	1	0	0	CorrectCommission	0.604826	0.586079	1	0	9.791176e+01
160.533798	1.279578	city	1	1	1.464538	1.464538	0	1	0	0	CorrectCommission	0.016517	0.589227	1	0	9.794118e+01
161.820129	1.293078	city	7	1	1.652717	1.652717	0	1	0	0	CorrectCommission	1.145831	0.595610	1	0	9.797059e+01
165.645615	6.357888	break	0	0	0.000000	1.613734	0	0	0	0	ThoughtProbe	0.911882	0.604670	1	98	98
169.464279	1.279431	city	9	1	1.508633	1.508633	0	1	0	0	CorrectCommission	0.281144	0.615645	1	0	98
170.743774	1.279583	city	7	1	1.498461	1.498461	0	1	0	0	CorrectCommission	0.220094	0.627549	1	0	98
172.023361	1.279578	city	6	1	1.502946	1.502946	0	1	0	0	CorrectCommission	0.247013	0.639209	1	0	98
173.323013	1.319735	city	10	1	1.334488	1.334488	0	1	0	0	CorrectCommission	0.763953	0.649370	1	0	98
174.635910	1.306065	city	6	1	1.546928	1.546928	0	1	0	0	CorrectCommission	0.510960	0.656815	1	0	98
175.935486	1.293081	mountain	8	0	0.000000	1.705656	1	0	0	0	CorrectOmission	1.463531	0.660536	1	0	98
177.228394	1.292737	city	5	1	1.711351	1.711351	0	1	0	0	CorrectCommission	1.497710	0.659893	1	0	98
178.534592	1.319657	city	10	1	1.464693	1.464693	0	1	0	0	CorrectCommission	0.017447	0.654819	1	0	98
179.840836	1.292820	city	2	1	1.525136	1.525136	0	1	0	0	CorrectCommission	0.380180	0.645901	1	0	98
181.127090	1.279706	mountain	7	0	0.000000	1.663733	1	0	0	0	CorrectOmission	1.211939	0.634302	1	0	98
182.406677	1.279446	city	5	1	1.683702	1.683702	0	1	0	0	CorrectCommission	1.331778	0.621657	1	0	98
183.706268	1.319729	city	2	1	1.388260	1.388260	0	1	0	0	CorrectCommission	0.441250	0.609862	1	0	98
185.005936	1.279606	city	4	1	1.460371	1.460371	0	1	0	0	CorrectCommission	0.008495	0.600743	1	0	98
186.318832	1.346215	city	1	1	1.434183	1.434183	0	1	0	0	CorrectCommission	0.165651	0.595785	1	0	98
187.638306	1.292726	city	3	1	1.476078	1.476078	0	1	0	0	CorrectCommission	0.085771	0.595895	1	0	98
188.924484	1.279629	city	5	1	1.504832	1.504832	0	1	0	0	CorrectCommission	0.258330	0.601243	1	0	98
190.204163	1.279720	mountain	4	0	0.000000	1.555956	1	0	0	0	CorrectOmission	0.565141	0.611282	1	0	98
191.490402	1.292772	city	4	1	1.467819	1.467819	0	1	0	0	CorrectCommission	0.036208	0.624897	1	0	98
192.783279	1.292973	city	1	1	1.078791	1.078791	0	1	0	0	CorrectCommission	2.298462	0.640661	1	0	98
194.069595	1.279651	city	8	1	1.571912	1.571912	0	1	0	0	CorrectCommission	0.660894	0.657082	1	0	98
195.362457	1.306074	city	7	1	1.427889	1.427889	0	1	0	0	CorrectCommission	0.203424	0.672974	1	0	98
196.668686	1.306397	city	1	1	1.542100	1.542100	0	1	0	0	CorrectCommission	0.481988	0.687592	1	0	98
197.961685	1.279582	city	10	1	1.614371	1.614371	0	1	0	0	CorrectCommission	0.915705	0.700758	1	0	98
199.241241	1.279550	city	5	1	1.781355	1.781355	0	1	0	0	CorrectCommission	1.917825	0.712824	1	0	98
200.520813	1.279580	city	3	1	1.508636	1.508636	0	1	0	0	CorrectCommission	0.281159	0.724527	1	0	98
201.800339	1.279474	city	10	1	1.561272	1.561272	0	1	0	0	CorrectCommission	0.597041	0.736817	1	0	98
203.079910	1.279668	city	8	1	1.495922	1.495922	0	1	0	0	CorrectCommission	0.204860	0.750551	0	0	98
204.379456	1.319417	city	4	1	1.451785	1.451785	0	1	0	0	CorrectCommission	0.060021	0.766303	0	0	98
205.678955	1.279594	city	3	1	1.338108	1.338108	0	1	0	0	CorrectCommission	0.742226	0.784201	0	0	98
206.958588	1.279655	city	2	1	1.292023	1.292023	0	1	0	0	CorrectCommission	1.018798	0.803902	0	0	98
208.251495	1.306161	city	6	1	1.204618	1.204618	0	1	0	0	CorrectCommission	1.543338	0.824646	0	0	98
209.551010	1.292896	city	5	1	1.480165	1.480165	0	1	0	0	CorrectCommission	0.110300	0.845416	0	0	98
210.843933	1.292921	city	10	1	1.524775	1.524775	0	1	0	0	CorrectCommission	0.378013	0.865188	0	0	98
212.136841	1.292895	city	7	1	1.856901	1.856901	0	1	0	0	CorrectCommission	2.371194	0.883101	0	0	98
213.423080	1.279605	city	9	0	0.000000	1.731697	0	0	0	1	OmissionError	1.619811	0.898644	0	0	98
214.702744	1.279714	city	8	1	1.458751	1.458751	0	1	0	0	CorrectCommission	0.018212	0.911829	0	0	98
215.982330	1.279454	city	10	1	1.347652	1.347652	0	1	0	0	CorrectCommission	0.684951	0.923192	0	0	98
217.261826	1.279540	city	9	1	1.352742	1.352742	0	1	0	0	CorrectCommission	0.654403	0.933632	0	0	98
218.556473	1.309748	city	6	1	1.251957	1.251957	0	1	0	0	CorrectCommission	1.259245	0.944343	0	0	98
222.095367	5.768058	break	0	0	0.000000	1.281439	0	0	0	0	ThoughtProbe	1.082312	0.956587	0	98	98
225.625793	1.292779	city	8	1	1.321082	1.321082	0	1	0	0	CorrectCommission	0.844405	0.971426	0	0	9.805882e+01
226.918594	1.292829	city	3	1	1.250777	1.250777	0	1	0	0	CorrectCommission	1.266323	0.989528	0	0	9.811765e+01
228.204926	1.279844	city	8	1	1.301076	1.301076	0	1	0	0	CorrectCommission	0.964463	1.010932	0	0	9.817647e+01
229.491302	1.292900	city	2	1	1.311492	1.311492	0	1	0	0	CorrectCommission	0.901956	1.034911	0	0	9.823529e+01
230.784210	1.292908	mountain	7	0	0.000000	1.480565	1	0	0	0	CorrectOmission	0.112696	1.059905	0	0	9.829412e+01
232.070374	1.279417	city	4	1	1.559273	1.559273	0	1	0	0	CorrectCommission	0.585047	1.083629	0	0	9.835294e+01
233.349945	1.279725	city	7	1	1.298596	1.298596	0	1	0	0	CorrectCommission	0.979350	1.103312	0	0	9.841176e+01
234.636261	1.292927	city	8	1	1.251194	1.251194	0	1	0	0	CorrectCommission	1.263820	1.116086	0	0	9.847059e+01
235.942413	1.319386	city	5	1	1.115885	1.115885	0	1	0	0	CorrectCommission	2.075850	1.119433	0	0	9.852941e+01
237.242004	1.279766	city	9	1	1.136850	1.136850	0	1	0	0	CorrectCommission	1.950034	1.111656	0	0	9.858824e+01
238.521652	1.279556	city	10	1	1.034676	1.034676	0	1	0	0	CorrectCommission	2.563206	1.092179	0	0	9.864706e+01
239.801147	1.279413	city	7	1	1.733204	1.733204	0	1	0	0	CorrectCommission	1.628852	1.061675	0	0	9.870588e+01
241.094055	1.306422	city	6	1	1.536370	1.536370	0	1	0	0	CorrectCommission	0.447602	1.022020	0	0	9.876471e+01
242.400391	1.306253	city	5	1	1.535909	1.535909	0	1	0	0	CorrectCommission	0.444832	0.975990	0	0	9.882353e+01
243.699905	1.292769	city	10	1	1.424685	1.424685	0	1	0	0	CorrectCommission	0.222652	0.926837	0	0	9.888235e+01
244.986069	1.279543	city	1	1	1.623892	1.623892	0	1	0	0	CorrectCommission	0.972843	0.877829	0	0	9.894118e+01
246.272278	1.292881	city	8	1	1.438571	1.438571	0	1	0	0	CorrectCommission	0.139318	0.831813	0	0	99
247.578583	1.319725	city	10	1	1.283387	1.283387	0	1	0	0	CorrectCommission	1.070623	0.791075	0	0	9.905882e+01
248.884903	1.292929	city	6	1	1.627364	1.627364	0	1	0	0	CorrectCommission	0.993677	0.757123	0	0	9.911765e+01
250.171158	1.279586	city	4	1	1.533074	1.533074	0	1	0	0	CorrectCommission	0.427821	0.730838	1	0	9.917647e+01
251.464005	1.306086	city	3	1	1.473837	1.473837	0	1	0	0	CorrectCommission	0.072321	0.712611	1	0	9.923529e+01
252.756897	1.279707	mountain	7	0	0.000000	1.603370	1	0	0	0	CorrectOmission	0.849682	0.702596	1	0	9.929412e+01
254.036545	1.279598	city	6	1	1.645415	1.645415	0	1	0	0	CorrectCommission	1.102011	0.700883	1	0	9.935294e+01
255.336044	1.319401	city	5	1	1.323718	1.323718	0	1	0	0	CorrectCommission	0.828588	0.707633	1	0	9.941176e+01
256.642303	1.293099	city	2	1	1.317032	1.317032	0	1	0	0	CorrectCommission	0.868707	0.723150	1	0	9.947059e+01
257.941925	1.306146	city	8	1	1.431201	1.431201	0	1	0	0	CorrectCommission	0.183548	0.747723	0	0	9.952941e+01
259.241394	1.292807	city	3	1	1.373449	1.373449	0	1	0	0	CorrectCommission	0.530134	0.781510	0	0	9.958824e+01
260.540985	1.306384	city	4	1	1.483776	1.483776	0	1	0	0	CorrectCommission	0.131970	0.824238	0	0	9.964706e+01
261.840607	1.292832	city	9	1	1.205357	1.205357	0	1	0	0	CorrectCommission	1.538901	0.874985	0	0	9.970588e+01
263.126984	1.279919	city	8	1	1.345735	1.345735	0	1	0	0	CorrectCommission	0.696453	0.932009	0	0	9.976471e+01
264.413269	1.292642	city	3	1	1.466269	1.466269	0	1	0	0	CorrectCommission	0.026906	0.992789	0	0	9.982353e+01
265.699371	1.279584	city	9	1	1.366458	1.366458	0	1	0	0	CorrectCommission	0.572090	1.054117	0	0	9.988235e+01
266.992279	1.306234	city	7	1	1.430516	1.430516	0	1	0	0	CorrectCommission	0.187662	1.112369	0	0	9.994118e+01
270.524414	5.758034	break	0	0	0.000000	1.069195	0	0	0	0	ThoughtProbe	2.356047	1.163956	0	100	100
274.043274	1.279673	mountain	6	1	0.821780	0.821780	0	0	1	0	CommissionError	3.840856	1.205669	0	0	9.995652e+01
275.322845	1.279487	mountain	9	0	0.000000	1.227553	1	0	0	0	CorrectOmission	1.405698	1.235074	0	0	9.991304e+01
276.602356	1.279512	city	1	1	1.692536	1.692536	0	1	0	0	CorrectCommission	1.384794	1.250787	0	0	9.986957e+01
277.881866	1.279550	city	7	1	1.622750	1.622750	0	1	0	0	CorrectCommission	0.965988	1.252379	0	0	9.982609e+01
279.161530	1.279765	city	4	1	1.657628	1.657628	0	1	0	0	CorrectCommission	1.175305	1.240341	0	0	9.978261e+01
280.441132	1.279444	city	10	1	1.551423	1.551423	0	1	0	0	CorrectCommission	0.537934	1.215808	0	0	9.973913e+01
281.720642	1.279539	city	1	1	1.718407	1.718407	0	1	0	0	CorrectCommission	1.540056	1.180337	0	0	9.969565e+01
283.000275	1.279760	city	4	1	1.741887	1.741887	0	1	0	0	CorrectCommission	1.680961	1.135641	0	0	9.965217e+01
284.279938	1.279552	city	10	1	1.550798	1.550798	0	1	0	0	CorrectCommission	0.534187	1.083517	0	0	9.960870e+01
285.559509	1.279603	city	1	1	1.740962	1.740962	0	1	0	0	CorrectCommission	1.675412	1.025788	0	0	9.956522e+01
286.839081	1.279552	city	3	1	1.560841	1.560841	0	1	0	0	CorrectCommission	0.594455	0.964295	0	0	9.952174e+01
288.118561	1.279417	city	10	1	1.710658	1.710658	0	1	0	0	CorrectCommission	1.493550	0.901091	0	0	9.947826e+01
289.398102	1.279615	city	3	1	1.722127	1.722127	0	1	0	0	CorrectCommission	1.562378	0.838429	0	0	9.943478e+01
290.677673	1.279563	city	9	1	1.466052	1.466052	0	1	0	0	CorrectCommission	0.025602	0.778822	0	0	9.939130e+01
291.957275	1.279649	city	2	1	1.497569	1.497569	0	1	0	0	CorrectCommission	0.214740	0.725009	1	0	9.934783e+01
293.236938	1.279668	city	8	1	1.337272	1.337272	0	1	0	0	CorrectCommission	0.747246	0.679779	1	0	9.930435e+01
294.516571	1.279569	city	3	1	1.497763	1.497763	0	1	0	0	CorrectCommission	0.215905	0.645727	1	0	9.926087e+01
295.796051	1.279411	city	5	1	1.556465	1.556465	0	1	0	0	CorrectCommission	0.568195	0.625080	1	0	9.921739e+01
297.082214	1.292918	mountain	1	1	1.395566	1.395566	0	0	1	0	CommissionError	0.397406	0.619351	1	0	9.917391e+01
298.375214	1.293068	city	1	1	1.404263	1.404263	0	1	0	0	CorrectCommission	0.345211	0.629097	1	0	9.913043e+01
299.661530	1.279592	city	10	1	1.390756	1.390756	0	1	0	0	CorrectCommission	0.426272	0.653734	1	0	9.908696e+01
300.941040	1.279416	city	3	1	1.444464	1.444464	0	1	0	0	CorrectCommission	0.103952	0.691398	1	0	9.904348e+01
302.220520	1.279558	city	4	1	1.496909	1.496909	0	1	0	0	CorrectCommission	0.210782	0.738994	1	0	99
303.500031	1.279450	city	9	1	1.497498	1.497498	0	1	0	0	CorrectCommission	0.214317	0.792452	0	0	9.895652e+01
304.779633	1.279743	city	3	1	1.604094	1.604094	0	1	0	0	CorrectCommission	0.854032	0.847052	0	0	9.891304e+01
306.059326	1.279619	city	1	1	1.657457	1.657457	0	1	0	0	CorrectCommission	1.174273	0.897890	0	0	9.886957e+01
307.338898	1.279556	city	10	1	1.725229	1.725229	0	1	0	0	CorrectCommission	1.580994	0.940435	0	0	9.882609e+01
308.618439	1.279530	city	2	1	1.870387	1.870387	0	1	0	0	CorrectCommission	2.452128	0.971058	0	0	9.878261e+01
309.904755	1.293074	city	8	1	1.755786	1.755786	0	1	0	0	CorrectCommission	1.764374	0.987382	0	0	9.873913e+01
311.191010	1.279463	city	3	1	1.606339	1.606339	0	1	0	0	CorrectCommission	0.867501	0.988552	0	0	9.869565e+01
312.470581	1.279694	city	5	1	1.618096	1.618096	0	1	0	0	CorrectCommission	0.938061	0.975212	0	0	9.865217e+01
313.756897	1.292911	city	3	1	1.723255	1.723255	0	1	0	0	CorrectCommission	1.569150	0.949237	0	0	9.860870e+01
315.049805	1.292926	city	8	1	1.525371	1.525371	0	1	0	0	CorrectCommission	0.381593	0.913413	0	0	9.856522e+01
316.336060	1.279552	city	3	1	1.568930	1.568930	0	1	0	0	CorrectCommission	0.643002	0.870999	0	0	9.852174e+01
317.622284	1.292923	city	7	1	1.649340	1.649340	0	1	0	0	CorrectCommission	1.125562	0.825213	0	0	9.847826e+01
318.908539	1.279565	city	2	1	1.413470	1.413470	0	1	0	0	CorrectCommission	0.289956	0.778922	0	0	9.843478e+01
320.188019	1.279417	mountain	3	0	0.000000	1.340491	1	0	0	0	CorrectOmission	0.727926	0.734378	1	0	9.839130e+01
321.467621	1.279750	city	10	1	1.390828	1.390828	0	1	0	0	CorrectCommission	0.425837	0.693009	1	0	9.834783e+01
322.753845	1.292739	city	4	1	1.524909	1.524909	0	1	0	0	CorrectCommission	0.378820	0.655565	1	0	9.830435e+01
324.040039	1.279637	city	1	1	1.335399	1.335399	0	1	0	0	CorrectCommission	0.758484	0.622215	1	0	9.826087e+01
325.319702	1.279702	city	4	1	1.560341	1.560341	0	1	0	0	CorrectCommission	0.591456	0.592799	1	0	9.821739e+01
326.599335	1.279581	city	10	1	1.401191	1.401191	0	1	0	0	CorrectCommission	0.363645	0.567102	1	0	9.817391e+01
327.878937	1.279563	city	3	1	1.606227	1.606227	0	1	0	0	CorrectCommission	0.866832	0.545123	1	0	9.813043e+01
329.158508	1.279592	city	4	1	1.657333	1.657333	0	1	0	0	CorrectCommission	1.173534	0.527240	1	0	9.808696e+01
330.438080	1.279568	city	6	1	1.526798	1.526798	0	1	0	0	CorrectCommission	0.390157	0.514259	1	0	9.804348e+01
333.943542	5.731333	break	0	0	0.000000	1.453160	0	0	0	0	ThoughtProbe	0.051769	0.507441	1	98	98
337.448975	1.279554	city	4	1	1.425341	1.425341	0	1	0	0	CorrectCommission	0.218718	0.508245	1	0	9.804348e+01
338.741943	1.306394	city	7	1	1.432265	1.432265	0	1	0	0	CorrectCommission	0.177164	0.518088	1	0	9.808696e+01
340.048187	1.306080	city	10	1	1.340570	1.340570	0	1	0	0	CorrectCommission	0.727453	0.538071	1	0	9.813043e+01
341.354431	1.306396	city	9	1	1.421119	1.421119	0	1	0	0	CorrectCommission	0.244056	0.568668	1	0	9.817391e+01
342.647400	1.279562	city	7	1	1.417082	1.417082	0	1	0	0	CorrectCommission	0.268282	0.609528	1	0	9.821739e+01
343.940308	1.306226	city	3	1	1.415528	1.415528	0	1	0	0	CorrectCommission	0.277610	0.659356	1	0	9.826087e+01
345.253204	1.319568	city	9	1	1.404472	1.404472	0	1	0	0	CorrectCommission	0.343955	0.715872	1	0	9.830435e+01
346.572693	1.319401	city	1	1	1.470139	1.470139	0	1	0	0	CorrectCommission	0.050126	0.775988	0	0	9.834783e+01
347.885529	1.306308	mountain	5	0	0.000000	1.700671	1	0	0	0	CorrectOmission	1.433614	0.836078	0	0	9.839130e+01
349.178436	1.279508	city	8	1	1.803076	1.803076	0	1	0	0	CorrectCommission	2.048174	0.892289	0	0	9.843478e+01
350.471405	1.306402	city	7	1	1.484361	1.484361	0	1	0	0	CorrectCommission	0.135477	0.940982	0	0	9.847826e+01
351.770996	1.292768	city	4	1	1.707642	1.707642	0	1	0	0	CorrectCommission	1.475450	0.979168	0	0	9.852174e+01
353.070557	1.306400	mountain	9	0	0.000000	1.803686	1	0	0	0	CorrectOmission	2.051840	1.004692	0	0	9.856522e+01
354.363556	1.279559	city	7	1	1.764223	1.764223	0	1	0	0	CorrectCommission	1.815006	1.016478	0	0	9.860870e+01
355.643066	1.279461	city	10	1	1.580979	1.580979	0	1	0	0	CorrectCommission	0.715309	1.014561	0	0	9.865217e+01
356.935974	1.306360	mountain	5	0	0.000000	1.630280	1	0	0	0	CorrectOmission	1.011177	0.999997	0	0	9.869565e+01
358.228943	1.279587	city	2	1	1.670402	1.670402	0	1	0	0	CorrectCommission	1.251962	0.974622	0	0	9.873913e+01
359.515106	1.292753	city	8	1	1.459623	1.459623	0	1	0	0	CorrectCommission	0.012983	0.940830	0	0	9.878261e+01
360.801361	1.279738	city	9	1	1.745148	1.745148	0	1	0	0	CorrectCommission	1.700534	0.901319	0	0	9.882609e+01
362.094360	1.306244	city	3	1	1.657948	1.657948	0	1	0	0	CorrectCommission	1.177220	0.858768	0	0	9.886957e+01
363.393921	1.292881	city	10	1	1.540287	1.540287	0	1	0	0	CorrectCommission	0.471106	0.815731	0	0	9.891304e+01
364.686707	1.292744	city	2	1	1.511107	1.511107	0	1	0	0	CorrectCommission	0.295988	0.774461	0	0	9.895652e+01
365.992950	1.319730	city	1	1	1.325207	1.325207	0	1	0	0	CorrectCommission	0.819647	0.736814	1	0	99
367.292633	1.279608	city	10	1	1.478889	1.478889	0	1	0	0	CorrectCommission	0.102637	0.704168	1	0	9.904348e+01
368.585449	1.306043	city	5	1	1.703573	1.703573	0	1	0	0	CorrectCommission	1.451030	0.677478	1	0	9.908696e+01
369.878357	1.279763	city	1	1	1.470178	1.470178	0	1	0	0	CorrectCommission	0.050361	0.657218	1	0	9.913043e+01
371.184601	1.332710	city	2	1	1.671899	1.671899	0	1	0	0	CorrectCommission	1.260944	0.643492	1	0	9.917391e+01
372.490845	1.279771	city	1	1	1.411148	1.411148	0	1	0	0	CorrectCommission	0.303890	0.635983	1	0	9.921739e+01
373.797119	1.332806	city	2	1	1.471327	1.471327	0	1	0	0	CorrectCommission	0.057256	0.634105	1	0	9.926087e+01
375.130463	1.333877	city	10	1	1.460688	1.460688	0	1	0	0	CorrectCommission	0.006591	0.637018	1	0	9.930435e+01
376.450073	1.305337	city	3	1	1.506033	1.506033	0	1	0	0	CorrectCommission	0.265540	0.643749	1	0	9.934783e+01
377.762482	1.319470	city	5	1	1.713765	1.713765	0	1	0	0	CorrectCommission	1.512193	0.653322	1	0	9.939130e+01
379.075287	1.306162	mountain	7	0	0.000000	1.672723	1	0	0	0	CorrectOmission	1.265893	0.664894	1	0	9.943478e+01
380.368164	1.279597	city	3	1	1.568117	1.568117	0	1	0	0	CorrectCommission	0.638120	0.677857	1	0	9.947826e+01
381.654480	1.293044	city	9	1	1.585152	1.585152	0	1	0	0	CorrectCommission	0.740356	0.691847	1	0	9.952174e+01
382.941315	1.280609	city	6	1	1.315089	1.315089	0	1	0	0	CorrectCommission	0.880370	0.706684	1	0	9.956522e+01
384.234222	1.305208	city	1	1	1.379655	1.379655	0	1	0	0	CorrectCommission	0.492894	0.722282	1	0	9.960870e+01
385.546600	1.319559	city	10	1	1.416365	1.416365	0	1	0	0	CorrectCommission	0.272585	0.738489	1	0	9.965217e+01
386.859528	1.306266	city	3	1	1.560350	1.560350	0	1	0	0	CorrectCommission	0.591507	0.754952	0	0	9.969565e+01
388.165771	1.306230	city	4	1	1.437904	1.437904	0	1	0	0	CorrectCommission	0.143326	0.771067	0	0	9.973913e+01
389.458618	1.279497	city	8	1	1.351482	1.351482	0	1	0	0	CorrectCommission	0.661966	0.785988	0	0	9.978261e+01
390.764862	1.333000	city	5	1	1.126908	1.126908	0	1	0	0	CorrectCommission	2.009696	0.798705	0	0	9.982609e+01
392.071136	1.279533	city	10	1	1.337937	1.337937	0	1	0	0	CorrectCommission	0.743253	0.808245	0	0	9.986957e+01
393.357391	1.292935	city	6	1	1.654887	1.654887	0	1	0	0	CorrectCommission	1.158852	0.813857	0	0	9.991304e+01
394.663544	1.319393	city	4	1	1.625577	1.625577	0	1	0	0	CorrectCommission	0.982956	0.815090	0	0	9.995652e+01
398.522278	6.398063	break	0	0	0.000000	1.387979	0	0	0	0	ThoughtProbe	0.442935	0.811954	0	100	100
402.361023	1.279417	city	10	1	1.304504	1.304504	0	1	0	0	CorrectCommission	0.943896	0.804866	0	0	100
403.647247	1.293055	city	5	1	1.737560	1.737560	0	1	0	0	CorrectCommission	1.654999	0.794591	0	0	100
404.946808	1.306091	city	1	1	1.525244	1.525244	0	1	0	0	CorrectCommission	0.380828	0.782070	0	0	100
406.252991	1.306268	city	9	1	1.481793	1.481793	0	1	0	0	CorrectCommission	0.120069	0.768379	0	0	100
407.579224	1.346170	city	5	1	1.593748	1.593748	0	1	0	0	CorrectCommission	0.791938	0.754496	0	0	100
408.905518	1.306429	city	4	1	1.507394	1.507394	0	1	0	0	CorrectCommission	0.273704	0.741236	1	0	100
410.218506	1.319555	mountain	6	0	0.000000	1.614375	1	0	0	0	CorrectOmission	0.915727	0.729276	1	0	100
411.544708	1.332823	city	4	1	1.631128	1.631128	0	1	0	0	CorrectCommission	1.016268	0.719129	1	0	100
412.870850	1.319459	city	8	1	1.274090	1.274090	0	1	0	0	CorrectCommission	1.126416	0.711252	1	0	100
414.170380	1.279603	city	2	1	1.318362	1.318362	0	1	0	0	CorrectCommission	0.860728	0.706112	1	0	100
415.476715	1.333056	city	5	1	1.420174	1.420174	0	1	0	0	CorrectCommission	0.249724	0.704248	1	0	100
416.796356	1.306234	city	4	1	1.365235	1.365235	0	1	0	0	CorrectCommission	0.579431	0.706307	1	0	100
418.089264	1.279611	city	5	1	1.493315	1.493315	0	1	0	0	CorrectCommission	0.189216	0.712943	1	0	100
419.388763	1.319366	city	9	1	1.643600	1.643600	0	1	0	0	CorrectCommission	1.091119	0.724838	1	0	100
420.708221	1.319584	city	8	1	1.447679	1.447679	0	1	0	0	CorrectCommission	0.084663	0.742537	1	0	100
422.021210	1.306394	city	6	1	1.156977	1.156977	0	1	0	0	CorrectCommission	1.829241	0.766419	0	0	100
423.314209	1.279556	city	1	1	1.472683	1.472683	0	1	0	0	CorrectCommission	0.065398	0.796488	0	0	100
424.613770	1.319580	city	2	1	1.510881	1.510881	0	1	0	0	CorrectCommission	0.294635	0.832429	0	0	100
425.946594	1.346063	city	8	1	1.297827	1.297827	0	1	0	0	CorrectCommission	0.983963	0.873483	0	0	100
427.286072	1.332899	mountain	2	0	0.000000	1.247580	1	0	0	0	CorrectOmission	1.285512	0.918467	0	0	100
428.592316	1.279570	city	10	1	1.322754	1.322754	0	1	0	0	CorrectCommission	0.834368	0.965807	0	0	100
429.885284	1.306385	city	6	1	1.485966	1.485966	0	1	0	0	CorrectCommission	0.145112	1.013669	0	0	100
431.198273	1.319580	city	3	1	1.223671	1.223671	0	1	0	0	CorrectCommission	1.428995	1.060064	0	0	100
432.517822	1.319571	city	7	1	1.284837	1.284837	0	1	0	0	CorrectCommission	1.061918	1.102977	0	0	100
433.830750	1.306233	city	6	1	1.219480	1.219480	0	1	0	0	CorrectCommission	1.454149	1.140621	0	0	100
435.150299	1.332896	city	8	1	1.171324	1.171324	0	1	0	0	CorrectCommission	1.743147	1.171526	0	0	100
436.483093	1.332715	city	7	1	1.087433	1.087433	0	1	0	0	CorrectCommission	2.246596	1.194613	0	0	100
437.809326	1.319725	city	6	1	1.229790	1.229790	0	1	0	0	CorrectCommission	1.392275	1.209212	0	0	100
439.135590	1.332825	city	5	1	1.356018	1.356018	0	1	0	0	CorrectCommission	0.634745	1.215044	0	0	100
440.481842	1.359647	city	8	1	1.396223	1.396223	0	1	0	0	CorrectCommission	0.393460	1.212135	0	0	100
441.841431	1.359530	city	6	1	1.142902	1.142902	0	1	0	0	CorrectCommission	1.913713	1.200739	0	0	100
443.167664	1.292924	city	4	1	1.493857	1.493857	0	1	0	0	CorrectCommission	0.192470	1.181264	0	0	100
444.513794	1.399358	city	8	1	1.221809	1.221809	0	1	0	0	CorrectCommission	1.440170	1.154426	0	0	100
448.778961	7.131000	break	0	0	0.000000	1.056692	0	0	0	0	ThoughtProbe	2.431083	1.121170	0	100	100
452.984283	1.279586	city	1	1	1.131287	1.131287	0	1	0	0	CorrectCommission	1.983415	1.082770	0	0	100
454.277252	1.306385	city	9	1	1.578376	1.578376	0	1	0	0	CorrectCommission	0.699690	1.040857	0	0	100
455.570160	1.279412	mountain	2	0	0.000000	1.606119	1	0	0	0	CorrectOmission	0.866184	0.997375	0	0	100
456.856323	1.292939	city	9	1	1.531977	1.531977	0	1	0	0	CorrectCommission	0.421236	0.954326	0	0	100
458.175995	1.346376	city	2	1	1.673410	1.673410	0	1	0	0	CorrectCommission	1.270016	0.913703	0	0	100
459.522186	1.346042	city	4	1	1.482309	1.482309	0	1	0	0	CorrectCommission	0.123163	0.877174	0	0	100
460.855072	1.319728	city	1	1	1.415976	1.415976	0	1	0	0	CorrectCommission	0.274921	0.845963	0	0	100
462.181427	1.332936	city	2	1	1.418638	1.418638	0	1	0	0	CorrectCommission	0.258941	0.820765	0	0	100
463.520966	1.346162	city	7	1	1.284671	1.284671	0	1	0	0	CorrectCommission	1.062919	0.801771	0	0	100
464.847107	1.306114	city	10	1	1.268311	1.268311	0	1	0	0	CorrectCommission	1.161097	0.788761	0	0	100
466.140015	1.279742	city	1	1	1.712290	1.712290	0	1	0	0	CorrectCommission	1.503347	0.781261	0	0	100
467.426361	1.292919	mountain	9	0	0.000000	1.661292	1	0	0	0	CorrectOmission	1.197292	0.778668	0	0	100
468.739227	1.332795	city	3	1	1.462326	1.462326	0	1	0	0	CorrectCommission	0.003240	0.780373	0	0	100
470.058777	1.306329	mountain	4	0	0.000000	1.462402	1	0	0	0	CorrectOmission	0.003694	0.785806	0	0	100
471.351654	1.279414	city	8	1	1.568523	1.568523	0	1	0	0	CorrectCommission	0.640558	0.794390	0	0	100
472.637878	1.293052	city	9	1	1.687694	1.687694	0	1	0	0	CorrectCommission	1.355735	0.805538	0	0	100
473.924103	1.279419	city	8	1	1.477473	1.477473	0	1	0	0	CorrectCommission	0.094143	0.818621	0	0	100
475.223602	1.319571	city	6	1	1.283945	1.283945	0	1	0	0	CorrectCommission	1.067273	0.832956	0	0	100
476.529846	1.292901	city	4	1	1.794432	1.794432	0	1	0	0	CorrectCommission	1.996304	0.847676	0	0	100
477.822876	1.293132	city	3	1	1.579886	1.579886	0	1	0	0	CorrectCommission	0.708748	0.861829	0	0	100
479.115814	1.292744	city	1	1	1.531529	1.531529	0	1	0	0	CorrectCommission	0.418545	0.874393	0	0	100
480.422028	1.319690	city	3	1	1.363860	1.363860	0	1	0	0	CorrectCommission	0.587680	0.884255	0	0	100
481.734985	1.306230	city	8	1	1.449789	1.449789	0	1	0	0	CorrectCommission	0.071998	0.890294	0	0	100
483.061218	1.346229	city	9	1	1.793866	1.793866	0	1	0	0	CorrectCommission	1.992905	0.891554	0	0	100
484.380676	1.292734	mountain	1	0	0.000000	1.722239	1	0	0	0	CorrectOmission	1.563049	0.887273	0	0	100
485.673615	1.293101	city	8	1	1.457400	1.457400	0	1	0	0	CorrectCommission	0.026322	0.877155	0	0	100
486.966522	1.292718	city	6	1	1.221843	1.221843	0	1	0	0	CorrectCommission	1.439966	0.861442	0	0	100
488.265991	1.306226	city	5	1	1.213174	1.213174	0	1	0	0	CorrectCommission	1.491991	0.840933	0	0	100
489.565582	1.292944	city	9	1	1.594234	1.594234	0	1	0	0	CorrectCommission	0.794855	0.817011	0	0	100
490.898560	1.373025	city	8	1	1.659388	1.659388	0	1	0	0	CorrectCommission	1.185862	0.791487	0	0	100
492.251465	1.332810	city	3	1	1.507694	1.507694	0	1	0	0	CorrectCommission	0.275507	0.766328	0	0	100
493.564362	1.292976	city	7	1	1.546488	1.546488	0	1	0	0	CorrectCommission	0.508322	0.743396	1	0	100
494.863922	1.306121	city	5	1	1.438025	1.438025	0	1	0	0	CorrectCommission	0.142595	0.724110	1	0	100
496.170074	1.306196	city	3	1	1.509146	1.509146	0	1	0	0	CorrectCommission	0.284221	0.709219	1	0	100
497.496307	1.346247	city	10	1	1.555033	1.555033	0	1	0	0	CorrectCommission	0.559604	0.698630	1	0	100
498.829285	1.319728	city	3	1	1.660961	1.660961	0	1	0	0	CorrectCommission	1.195302	0.691363	1	0	100
500.128937	1.279574	city	8	1	1.351816	1.351816	0	1	0	0	CorrectCommission	0.659959	0.685626	1	0	100
501.428436	1.319406	city	4	1	1.517788	1.517788	0	1	0	0	CorrectCommission	0.336081	0.679087	1	0	100
502.747986	1.319706	city	1	1	1.389747	1.389747	0	1	0	0	CorrectCommission	0.432329	0.669192	1	0	100
504.060974	1.306262	city	7	1	1.634837	1.634837	0	1	0	0	CorrectCommission	1.038525	0.653502	1	0	100
505.360535	1.292903	city	2	1	1.698008	1.698008	0	1	0	0	CorrectCommission	1.417636	0.630054	1	0	100
506.653351	1.292722	city	4	1	1.578645	1.578645	0	1	0	0	CorrectCommission	0.701305	0.597728	1	0	100
507.966187	1.332931	city	9	1	1.271717	1.271717	0	1	0	0	CorrectCommission	1.140659	0.556438	1	0	100
509.279175	1.293038	city	8	1	1.341889	1.341889	0	1	0	0	CorrectCommission	0.719534	0.507174	1	0	100
510.578735	1.306102	city	7	1	1.369050	1.369050	0	1	0	0	CorrectCommission	0.556532	0.451953	1	0	100
514.870667	7.277696	break	0	0	0.000000	1.396212	0	0	0	0	ThoughtProbe	0.393530	0.393530	1	100	100
