onset	duration	trial_type	image_type	Press	ReactionTime	ReactionTime_Interpolated	CorrectOmission	CorrectCommission	CommissionError	OmissionError	response_type	nonsmoothVarianceTimeCourse	VarianceTimeCourse	In_the_Zone	ThoughtProbe	ThoughtProbe_Interpolated
0.653007	1.279528	mountain	10	0	0.000000	1.233074	1	0	0	0	CorrectOmission	0.614313	0.614313	1	0	12
1.932490	1.279438	city	7	1	1.047400	1.047400	0	1	0	0	CorrectCommission	1.229090	0.773809	1	0	12
3.212080	1.279744	city	9	1	0.861727	0.861727	0	1	0	0	CorrectCommission	1.843867	0.923628	0	0	12
4.498394	1.292884	city	10	1	0.874611	0.874611	0	1	0	0	CorrectCommission	1.801208	1.054979	0	0	12
5.817954	1.346234	city	2	1	0.968429	0.968429	0	1	0	0	CorrectCommission	1.490569	1.160706	0	0	12
7.137514	1.292887	city	8	1	0.713201	0.713201	0	1	0	0	CorrectCommission	2.335644	1.235889	0	0	12
8.423720	1.279525	city	5	1	0.727210	0.727210	0	1	0	0	CorrectCommission	2.289259	1.278143	0	0	12
9.703314	1.279663	mountain	2	1	0.490388	0.490388	0	0	1	0	CommissionError	3.073394	1.287732	0	0	12
10.982892	1.279493	city	1	1	1.288500	1.288500	0	1	0	0	CorrectCommission	0.430795	1.267340	0	0	12
12.262460	1.279643	city	3	1	1.074537	1.074537	0	1	0	0	CorrectCommission	1.139238	1.221694	0	0	12
13.542032	1.279501	city	4	1	0.804389	0.804389	0	1	0	0	CorrectCommission	2.033716	1.156860	0	0	12
14.821624	1.279682	city	9	1	1.015162	1.015162	0	1	0	0	CorrectCommission	1.335834	1.079653	0	0	12
16.101242	1.279554	city	2	1	1.392008	1.392008	0	1	0	0	CorrectCommission	0.088073	0.997020	0	0	12
17.380857	1.279677	city	1	1	1.285728	1.285728	0	1	0	0	CorrectCommission	0.439974	0.915381	0	0	12
18.660448	1.279505	city	9	1	1.149633	1.149633	0	1	0	0	CorrectCommission	0.890591	0.840137	0	0	12
19.939896	1.279392	city	4	1	1.283934	1.283934	0	1	0	0	CorrectCommission	0.445911	0.775442	1	0	12
21.219475	1.279766	mountain	9	0	0.000000	1.402469	1	0	0	0	CorrectOmission	0.053434	0.724045	1	0	12
22.499052	1.279389	city	2	1	1.469840	1.469840	0	1	0	0	CorrectCommission	0.169633	0.687333	1	0	12
23.778555	1.279616	city	10	1	1.450646	1.450646	0	1	0	0	CorrectCommission	0.106082	0.665422	1	0	12
25.058216	1.279708	city	8	1	1.871147	1.871147	0	1	0	0	CorrectCommission	1.498386	0.657434	1	0	12
26.337795	1.279448	city	10	0	0.000000	1.611203	0	0	0	1	OmissionError	0.637694	0.661698	1	0	12
27.617304	1.279571	city	3	1	1.288775	1.288775	0	1	0	0	CorrectCommission	0.429882	0.676066	1	0	12
28.896950	1.279720	city	1	1	1.521828	1.521828	0	1	0	0	CorrectCommission	0.341770	0.698046	1	0	12
30.176544	1.279472	city	7	1	1.678903	1.678903	0	1	0	0	CorrectCommission	0.861856	0.724955	1	0	12
31.462744	1.292924	city	3	1	1.636130	1.636130	0	1	0	0	CorrectCommission	0.720230	0.754044	1	0	12
32.748970	1.279531	city	5	1	1.561273	1.561273	0	1	0	0	CorrectCommission	0.472374	0.782611	1	0	12
34.041859	1.306244	city	9	1	1.689340	1.689340	0	1	0	0	CorrectCommission	0.896413	0.808125	0	0	12
35.334824	1.279688	city	1	1	1.816719	1.816719	0	1	0	0	CorrectCommission	1.318173	0.828319	0	0	12
36.614334	1.279330	city	10	1	1.666255	1.666255	0	1	0	0	CorrectCommission	0.819978	0.841368	0	0	12
37.900581	1.293168	city	3	1	1.704723	1.704723	0	1	0	0	CorrectCommission	0.947347	0.846051	0	0	12
39.193630	1.292927	mountain	1	0	0.000000	1.190969	1	0	0	0	CorrectOmission	0.753724	0.841939	0	0	12
40.479797	1.279405	city	10	1	0.767463	0.767463	0	1	0	0	CorrectCommission	2.155979	0.829446	0	0	12
41.759315	1.279630	city	3	1	1.076674	1.076674	0	1	0	0	CorrectCommission	1.132162	0.809812	0	0	12
43.038940	1.279624	city	7	1	1.145566	1.145566	0	1	0	0	CorrectCommission	0.904058	0.785051	1	0	12
44.318573	1.279644	city	2	1	1.400929	1.400929	0	1	0	0	CorrectCommission	0.058534	0.757757	1	0	12
45.598106	1.279420	city	8	1	1.340996	1.340996	0	1	0	0	CorrectCommission	0.256975	0.730788	1	0	12
46.877686	1.279741	city	1	1	1.072164	1.072164	0	1	0	0	CorrectCommission	1.147096	0.706935	1	0	12
48.157272	1.279429	city	4	1	1.340618	1.340618	0	1	0	0	CorrectCommission	0.258228	0.688636	1	0	12
49.456844	1.319714	city	10	1	1.334792	1.334792	0	1	0	0	CorrectCommission	0.277517	0.677779	1	0	12
50.756493	1.279587	city	6	1	1.461853	1.461853	0	1	0	0	CorrectCommission	0.143190	0.675478	1	0	12
52.042751	1.292926	city	3	1	1.146616	1.146616	0	1	0	0	CorrectCommission	0.900582	0.682047	1	0	12
53.335667	1.292907	city	8	1	1.111535	1.111535	0	1	0	0	CorrectCommission	1.016737	0.696966	1	0	12
54.621834	1.279427	city	7	1	1.398936	1.398936	0	1	0	0	CorrectCommission	0.065134	0.719045	1	0	12
55.927982	1.332864	city	10	1	1.216462	1.216462	0	1	0	0	CorrectCommission	0.669316	0.746569	1	0	12
57.234295	1.279766	city	2	1	1.519770	1.519770	0	1	0	0	CorrectCommission	0.334956	0.777422	1	0	12
57.874180	15.794800	break	0	0	0.000000	1.812666	0	0	0	0	ThoughtProbe	1.304754	0.809318	0	12	12
74.308685	1.279421	city	2	1	1.930230	1.930230	0	1	0	0	CorrectCommission	1.694016	0.839979	0	0	1.170000e+01
75.588188	1.279584	city	1	0	0.000000	1.707542	0	0	0	1	OmissionError	0.956682	0.867300	0	0	1.140000e+01
76.867859	1.279757	city	7	1	1.498863	1.498863	0	1	0	0	CorrectCommission	0.265732	0.889510	0	0	1.110000e+01
78.147430	1.279386	city	6	1	1.658454	1.658454	0	1	0	0	CorrectCommission	0.794147	0.905278	0	0	1.080000e+01
79.426926	1.279594	city	5	1	1.676723	1.676723	0	1	0	0	CorrectCommission	0.854636	0.913838	0	0	1.050000e+01
80.706589	1.279731	city	4	1	2.012984	2.012984	0	1	0	0	CorrectCommission	1.968018	0.915098	0	0	1.020000e+01
81.986244	1.279586	city	8	0	0.000000	1.445272	0	0	0	1	OmissionError	0.088288	0.909633	0	0	9.900000e+00
83.272400	1.292733	city	1	1	0.814768	0.814768	0	1	0	0	CorrectCommission	1.999350	0.898764	0	0	9.600000e+00
84.558647	1.279750	city	3	1	0.962654	0.962654	0	1	0	0	CorrectCommission	1.509691	0.884332	0	0	9.300000e+00
85.838303	1.279560	mountain	2	0	0.000000	1.140100	1	0	0	0	CorrectOmission	0.922155	0.868634	0	0	9
87.117821	1.279478	city	10	1	1.289801	1.289801	0	1	0	0	CorrectCommission	0.426487	0.854099	0	0	8.700000e+00
88.397316	1.279513	mountain	6	0	0.000000	1.354448	1	0	0	0	CorrectOmission	0.212436	0.842929	0	0	8.400000e+00
89.676949	1.279761	city	10	1	1.347953	1.347953	0	1	0	0	CorrectCommission	0.233940	0.836770	0	0	8.100000e+00
90.956612	1.279563	city	2	1	1.284228	1.284228	0	1	0	0	CorrectCommission	0.444938	0.836527	0	0	7.800000e+00
92.236191	1.279597	city	4	1	1.604816	1.604816	0	1	0	0	CorrectCommission	0.616549	0.842202	0	0	7.500000e+00
93.515770	1.279558	city	1	1	1.676528	1.676528	0	1	0	0	CorrectCommission	0.853991	0.852967	0	0	7.200000e+00
94.802010	1.292924	city	4	1	1.723926	1.723926	0	1	0	0	CorrectCommission	1.010929	0.867342	0	0	6.900000e+00
96.088257	1.279562	city	2	1	1.711728	1.711728	0	1	0	0	CorrectCommission	0.970541	0.883453	0	0	6.600000e+00
97.367760	1.279448	city	6	0	0.000000	1.183288	0	0	0	1	OmissionError	0.779156	0.899387	0	0	6.300000e+00
98.647270	1.279571	city	4	1	0.748626	0.748626	0	1	0	0	CorrectCommission	2.218351	0.913425	0	0	6
99.926918	1.279724	city	10	1	1.017760	1.017760	0	1	0	0	CorrectCommission	1.327232	0.924223	0	0	5.700000e+00
101.206573	1.279592	city	5	1	1.297084	1.297084	0	1	0	0	CorrectCommission	0.402373	0.930939	0	0	5.400000e+00
102.486084	1.279424	city	3	1	1.388566	1.388566	0	1	0	0	CorrectCommission	0.099469	0.933194	0	0	5.100000e+00
103.765587	1.279579	city	6	0	0.000000	1.076800	0	0	0	1	OmissionError	1.131745	0.930935	0	0	4.800000e+00
105.045158	1.279569	city	5	1	0.871965	0.871965	0	1	0	0	CorrectCommission	1.809968	0.924323	0	0	4.500000e+00
106.324760	1.279637	city	10	1	1.284239	1.284239	0	1	0	0	CorrectCommission	0.444902	0.913602	0	0	4.200000e+00
107.717697	1.506237	city	1	1	1.676521	1.676521	0	1	0	0	CorrectCommission	0.853969	0.899105	0	0	3.900000e+00
109.110619	1.279608	city	5	1	1.474766	1.474766	0	1	0	0	CorrectCommission	0.185944	0.881133	0	0	3.600000e+00
110.396881	1.292910	city	6	1	1.804214	1.804214	0	1	0	0	CorrectCommission	1.276767	0.860116	0	0	3.300000e+00
111.683052	1.279433	city	3	1	2.029688	2.029688	0	1	0	0	CorrectCommission	2.023326	0.836568	0	0	3
112.982635	1.319732	mountain	4	1	1.111107	1.111107	0	0	1	0	CommissionError	1.018155	0.811206	0	0	2.700000e+00
114.282272	1.279551	city	5	1	1.396045	1.396045	0	1	0	0	CorrectCommission	0.074706	0.785006	1	0	2.400000e+00
115.561852	1.279603	city	10	1	1.133684	1.133684	0	1	0	0	CorrectCommission	0.943399	0.759127	1	0	2.100000e+00
116.841446	1.279581	city	2	1	1.497599	1.497599	0	1	0	0	CorrectCommission	0.261547	0.734781	1	0	1.800000e+00
118.127609	1.292745	city	4	1	1.542952	1.542952	0	1	0	0	CorrectCommission	0.411711	0.713167	1	0	1.500000e+00
119.427193	1.306428	city	9	1	1.790754	1.790754	0	1	0	0	CorrectCommission	1.232201	0.695284	1	0	1.200000e+00
120.720100	1.279394	city	6	0	0.000000	1.545381	0	0	0	1	OmissionError	0.419755	0.681789	1	0	9.000000e-01
121.999634	1.279673	city	5	1	1.239656	1.239656	0	1	0	0	CorrectCommission	0.592521	0.672944	1	0	6.000000e-01
123.285957	1.292976	city	2	1	1.306401	1.306401	0	1	0	0	CorrectCommission	0.371521	0.668510	1	0	3.000000e-01
123.932449	14.141956	break	0	0	0.000000	1.316040	0	0	0	0	ThoughtProbe	0.339607	0.667828	1	0	0
138.714127	1.279441	city	10	1	1.463884	1.463884	0	1	0	0	CorrectCommission	0.149914	0.669873	1	0	8.529412e-01
139.993729	1.279765	city	7	1	1.945246	1.945246	0	1	0	0	CorrectCommission	1.743733	0.673407	1	0	1.705882e+00
141.273407	1.279581	city	3	0	0.000000	1.600659	0	0	0	1	OmissionError	0.602784	0.677087	1	0	2.558824e+00
142.559647	1.292923	city	6	1	1.156510	1.156510	0	1	0	0	CorrectCommission	0.867821	0.679787	1	0	3.411765e+00
143.845901	1.279561	city	10	1	1.339185	1.339185	0	1	0	0	CorrectCommission	0.262973	0.680621	1	0	4.264706e+00
145.125458	1.279564	mountain	10	0	0.000000	1.165434	1	0	0	0	CorrectOmission	0.838272	0.679110	1	0	5.117647e+00
146.411667	1.292840	city	10	1	1.107986	1.107986	0	1	0	0	CorrectCommission	1.028487	0.675204	1	0	5.970588e+00
147.704559	1.292971	city	9	1	1.639567	1.639567	0	1	0	0	CorrectCommission	0.731610	0.669361	1	0	6.823529e+00
148.990768	1.279429	city	3	1	1.716926	1.716926	0	1	0	0	CorrectCommission	0.987752	0.662395	1	0	7.676471e+00
150.270309	1.279652	city	10	0	0.000000	1.524036	0	0	0	1	OmissionError	0.349081	0.655392	1	0	8.529412e+00
151.549881	1.279493	city	9	1	1.282989	1.282989	0	1	0	0	CorrectCommission	0.449040	0.649541	1	0	9.382353e+00
152.836166	1.293073	city	7	1	1.215878	1.215878	0	1	0	0	CorrectCommission	0.671250	0.645914	1	0	1.023529e+01
154.129150	1.292908	city	6	1	1.516239	1.516239	0	1	0	0	CorrectCommission	0.323265	0.645350	1	0	1.108824e+01
155.421982	1.292745	city	1	1	1.521483	1.521483	0	1	0	0	CorrectCommission	0.340629	0.648335	1	0	1.194118e+01
156.714844	1.292978	city	7	1	1.683644	1.683644	0	1	0	0	CorrectCommission	0.877553	0.654912	1	0	1.279412e+01
158.007828	1.293006	city	9	1	1.671679	1.671679	0	1	0	0	CorrectCommission	0.837936	0.664649	1	0	1.364706e+01
159.294128	1.279601	city	3	1	1.236664	1.236664	0	1	0	0	CorrectCommission	0.602424	0.676721	1	0	1.450000e+01
160.580292	1.292721	mountain	8	0	0.000000	1.416146	1	0	0	0	CorrectOmission	0.008149	0.690053	1	0	1.535294e+01
161.866486	1.279647	city	6	1	1.696918	1.696918	0	1	0	0	CorrectCommission	0.921503	0.703490	1	0	1.620588e+01
163.159485	1.306350	city	8	1	1.565772	1.565772	0	1	0	0	CorrectCommission	0.487272	0.715962	1	0	1.705882e+01
164.465759	1.306208	city	3	1	1.965584	1.965584	0	1	0	0	CorrectCommission	1.811075	0.726733	1	0	1.791176e+01
165.765289	1.292844	city	8	0	0.000000	1.383360	0	0	0	1	OmissionError	0.116706	0.735487	1	0	1.876471e+01
167.051529	1.279654	city	6	1	0.815357	0.815357	0	1	0	0	CorrectCommission	1.997399	0.742500	1	0	1.961765e+01
168.351196	1.319671	city	1	1	1.257834	1.257834	0	1	0	0	CorrectCommission	0.532331	0.748436	1	0	2.047059e+01
169.650711	1.279346	city	7	0	0.000000	1.374699	0	0	0	1	OmissionError	0.145384	0.754409	1	0	2.132353e+01
170.936905	1.293056	city	5	1	1.479079	1.479079	0	1	0	0	CorrectCommission	0.200224	0.761608	1	0	2.217647e+01
172.229843	1.292819	city	1	1	1.884101	1.884101	0	1	0	0	CorrectCommission	1.541278	0.771072	1	0	2.302941e+01
173.522736	1.292973	city	6	0	0.000000	1.522271	0	0	0	1	OmissionError	0.343235	0.783393	1	0	2.388235e+01
174.808929	1.279415	city	4	1	1.196900	1.196900	0	1	0	0	CorrectCommission	0.734088	0.798560	0	0	2.473529e+01
176.088470	1.279654	city	7	1	1.711300	1.711300	0	1	0	0	CorrectCommission	0.969125	0.815761	0	0	2.558824e+01
177.374802	1.293011	city	1	1	1.438146	1.438146	0	1	0	0	CorrectCommission	0.064692	0.833460	0	0	2.644118e+01
178.667770	1.292914	city	4	1	1.469563	1.469563	0	1	0	0	CorrectCommission	0.168717	0.849572	0	0	2.729412e+01
179.953949	1.279450	city	8	1	1.570995	1.570995	0	1	0	0	CorrectCommission	0.504566	0.861732	0	0	2.814706e+01
180.593674	9.983519	break	0	1	0.591125	0.591125	0	0	0	0	ThoughtProbe	2.739845	0.867694	0	29	29
191.216888	1.279414	city	1	1	1.883762	1.883762	0	1	0	0	CorrectCommission	1.540154	0.865696	0	0	2.872500e+01
192.503143	1.293073	city	4	0	0.000000	1.526614	0	0	0	1	OmissionError	0.357617	0.854917	0	0	2.845000e+01
193.796051	1.292742	city	6	1	0.825015	0.825015	0	1	0	0	CorrectCommission	1.965422	0.835578	0	0	2.817500e+01
195.089188	1.293544	city	10	1	1.084296	1.084296	0	1	0	0	CorrectCommission	1.106925	0.808923	0	0	2.790000e+01
196.375519	1.279113	city	8	1	1.149037	1.149037	0	1	0	0	CorrectCommission	0.892566	0.777129	1	0	2.762500e+01
197.654846	1.279550	city	2	1	1.449217	1.449217	0	1	0	0	CorrectCommission	0.101351	0.742897	1	0	2.735000e+01
198.934326	1.279415	mountain	3	0	0.000000	1.482955	1	0	0	0	CorrectOmission	0.213060	0.709036	1	0	2.707500e+01
200.213913	1.279740	mountain	7	0	0.000000	1.430551	1	0	0	0	CorrectOmission	0.039547	0.678037	1	0	2.680000e+01
201.493561	1.279579	city	4	1	1.472304	1.472304	0	1	0	0	CorrectCommission	0.177794	0.651728	1	0	2.652500e+01
202.779816	1.292912	city	1	1	1.788515	1.788515	0	1	0	0	CorrectCommission	1.224787	0.631119	1	0	2.625000e+01
204.065979	1.279434	city	6	0	0.000000	1.567337	0	0	0	1	OmissionError	0.492453	0.616294	1	0	2.597500e+01
205.345490	1.279585	city	2	1	1.359753	1.359753	0	1	0	0	CorrectCommission	0.194870	0.606620	1	0	2.570000e+01
206.665131	1.359674	city	7	1	1.716748	1.716748	0	1	0	0	CorrectCommission	0.987162	0.600895	1	0	2.542500e+01
207.998001	1.306081	city	2	0	0.000000	1.671734	0	0	0	1	OmissionError	0.838119	0.597614	1	0	2.515000e+01
209.290924	1.279751	city	9	1	1.406093	1.406093	0	1	0	0	CorrectCommission	0.041437	0.595259	1	0	2.487500e+01
210.577240	1.292907	city	8	1	1.101204	1.101204	0	1	0	0	CorrectCommission	1.050943	0.592585	1	0	2.460000e+01
211.870132	1.292877	city	2	1	1.586165	1.586165	0	1	0	0	CorrectCommission	0.554795	0.588705	1	0	2.432500e+01
213.156296	1.279449	city	6	1	1.122569	1.122569	0	1	0	0	CorrectCommission	0.980203	0.583263	1	0	2.405000e+01
214.442566	1.293073	city	8	1	1.208672	1.208672	0	1	0	0	CorrectCommission	0.695110	0.576449	1	0	2.377500e+01
215.748871	1.319548	city	2	1	1.334242	1.334242	0	1	0	0	CorrectCommission	0.279341	0.568985	1	0	2.350000e+01
217.055130	1.292954	city	8	1	1.633718	1.633718	0	1	0	0	CorrectCommission	0.712244	0.562029	1	0	2.322500e+01
218.347977	1.292743	city	5	1	1.420772	1.420772	0	1	0	0	CorrectCommission	0.007168	0.556988	1	0	2.295000e+01
219.640869	1.293043	city	9	1	1.621863	1.621863	0	1	0	0	CorrectCommission	0.672992	0.555454	1	0	2.267500e+01
220.947189	1.319586	city	4	1	1.186570	1.186570	0	1	0	0	CorrectCommission	0.768289	0.558981	1	0	2.240000e+01
222.246750	1.279559	mountain	6	0	0.000000	1.307256	1	0	0	0	CorrectOmission	0.368690	0.568884	1	0	2.212500e+01
223.526337	1.279596	city	3	1	1.564495	1.564495	0	1	0	0	CorrectCommission	0.483043	0.586080	1	0	2.185000e+01
224.819244	1.306226	city	8	1	1.538859	1.538859	0	1	0	0	CorrectCommission	0.398160	0.610878	1	0	2.157500e+01
226.112122	1.279546	city	7	1	1.254014	1.254014	0	1	0	0	CorrectCommission	0.544981	0.642842	1	0	2.130000e+01
227.391693	1.279573	city	8	1	1.309662	1.309662	0	1	0	0	CorrectCommission	0.360724	0.680669	1	0	2.102500e+01
228.671280	1.279624	city	10	1	1.304557	1.304557	0	1	0	0	CorrectCommission	0.377629	0.722196	1	0	2.075000e+01
229.950882	1.279568	city	2	1	1.618200	1.618200	0	1	0	0	CorrectCommission	0.660865	0.764497	1	0	2.047500e+01
231.237122	1.292904	city	9	0	0.000000	1.333136	0	0	0	1	OmissionError	0.283000	0.804101	0	0	2.020000e+01
232.523285	1.279416	city	6	1	1.182777	1.182777	0	1	0	0	CorrectCommission	0.780848	0.837408	0	0	1.992500e+01
233.802872	1.279772	city	7	1	1.900536	1.900536	0	1	0	0	CorrectCommission	1.595697	0.861066	0	0	1.965000e+01
235.095871	1.306222	city	8	0	0.000000	2.128517	0	0	0	1	OmissionError	2.350554	0.872409	0	0	1.937500e+01
236.388718	1.279476	city	4	1	1.985625	1.985625	0	1	0	0	CorrectCommission	1.877431	0.869838	0	0	1.910000e+01
237.668304	1.279690	city	6	0	0.000000	1.590769	0	0	0	1	OmissionError	0.570037	0.853077	0	0	1.882500e+01
238.954575	1.292842	city	1	1	1.204845	1.204845	0	1	0	0	CorrectCommission	0.707780	0.823191	0	0	1.855000e+01
240.247467	1.292949	city	6	0	0.000000	1.088753	0	0	0	1	OmissionError	1.092169	0.782460	1	0	1.827500e+01
244.713226	7.638575	break	0	0	0.000000	1.155739	0	0	0	0	ThoughtProbe	0.870374	0.734087	1	18	18
249.171768	1.278503	city	3	0	0.000000	1.319049	0	0	0	1	OmissionError	0.329643	0.681889	1	0	1.767647e+01
250.450729	1.279440	city	9	1	1.491932	1.491932	0	1	0	0	CorrectCommission	0.242781	0.629861	1	0	1.735294e+01
251.743576	1.306230	mountain	8	0	0.000000	1.587632	1	0	0	0	CorrectOmission	0.559652	0.581762	1	0	1.702941e+01
253.036545	1.279707	city	6	1	1.565869	1.565869	0	1	0	0	CorrectCommission	0.487592	0.540843	1	0	1.670588e+01
254.329453	1.306118	city	10	1	1.386359	1.386359	0	1	0	0	CorrectCommission	0.106777	0.509631	1	0	1.638235e+01
255.629028	1.293033	city	4	1	1.505449	1.505449	0	1	0	0	CorrectCommission	0.287537	0.489796	1	0	1.605882e+01
256.928680	1.306241	city	5	1	1.339108	1.339108	0	1	0	0	CorrectCommission	0.263228	0.482110	1	0	1.573529e+01
258.234833	1.306072	city	1	1	1.345412	1.345412	0	1	0	0	CorrectCommission	0.242355	0.486521	1	0	1.541176e+01
259.540985	1.306248	city	4	1	1.284554	1.284554	0	1	0	0	CorrectCommission	0.443860	0.502239	1	0	1.508824e+01
260.840637	1.293061	city	7	1	1.405032	1.405032	0	1	0	0	CorrectCommission	0.044948	0.527924	1	0	1.476471e+01
262.133575	1.292836	city	9	1	1.488009	1.488009	0	1	0	0	CorrectCommission	0.229793	0.561885	1	0	1.444118e+01
263.433075	1.306142	city	3	1	1.692157	1.692157	0	1	0	0	CorrectCommission	0.905739	0.602200	1	0	1.411765e+01
264.725922	1.279579	city	8	1	1.659894	1.659894	0	1	0	0	CorrectCommission	0.798915	0.646935	1	0	1.379412e+01
266.025604	1.319755	city	2	1	1.701015	1.701015	0	1	0	0	CorrectCommission	0.935069	0.694281	1	0	1.347059e+01
267.345245	1.319540	city	4	1	1.785322	1.785322	0	1	0	0	CorrectCommission	1.214217	0.742641	1	0	1.314706e+01
268.678131	1.346224	city	3	0	0.000000	1.589225	0	0	0	1	OmissionError	0.564924	0.790643	1	0	1.282353e+01
269.990967	1.279420	city	9	1	1.314180	1.314180	0	1	0	0	CorrectCommission	0.345764	0.837146	0	0	1.250000e+01
271.290466	1.319579	city	6	1	1.161650	1.161650	0	1	0	0	CorrectCommission	0.850802	0.881202	0	0	1.217647e+01
272.596680	1.292897	city	4	1	1.542324	1.542324	0	1	0	0	CorrectCommission	0.409635	0.922009	0	0	1.185294e+01
273.889679	1.293092	city	6	1	1.947157	1.947157	0	1	0	0	CorrectCommission	1.750060	0.958881	0	0	1.152941e+01
275.176025	1.279573	city	4	1	1.941243	1.941243	0	1	0	0	CorrectCommission	1.730478	0.991164	0	0	1.120588e+01
276.462250	1.292909	city	5	0	0.000000	1.620191	0	0	0	1	OmissionError	0.667457	1.018271	0	0	1.088235e+01
277.748505	1.279569	mountain	3	0	0.000000	1.203892	1	0	0	0	CorrectOmission	0.710937	1.039660	0	0	1.055882e+01
279.028076	1.279594	city	5	0	0.000000	0.912231	0	0	0	1	OmissionError	1.676643	1.054759	0	0	1.023529e+01
280.314331	1.292885	city	2	1	0.965099	0.965099	0	1	0	0	CorrectCommission	1.501596	1.062949	0	0	9.911765e+00
281.600494	1.279444	city	5	1	1.582382	1.582382	0	1	0	0	CorrectCommission	0.542268	1.063595	0	0	9.588235e+00
282.880066	1.279722	city	4	1	1.679929	1.679929	0	1	0	0	CorrectCommission	0.865251	1.056097	0	0	9.264706e+00
284.166321	1.292759	city	5	0	0.000000	1.339343	0	0	0	1	OmissionError	0.262450	1.039921	0	0	8.941176e+00
285.452484	1.279570	city	8	1	0.879211	0.879211	0	1	0	0	CorrectCommission	1.785976	1.014792	0	0	8.617647e+00
286.745392	1.306245	city	4	1	0.618119	0.618119	0	1	0	0	CorrectCommission	2.650469	0.980799	0	0	8.294118e+00
288.038269	1.279554	city	3	1	1.252857	1.252857	0	1	0	0	CorrectCommission	0.548811	0.938559	0	0	7.970588e+00
289.317871	1.279630	city	4	1	1.792113	1.792113	0	1	0	0	CorrectCommission	1.236702	0.889346	0	0	7.647059e+00
290.610870	1.306348	city	5	0	0.000000	1.468932	0	0	0	1	OmissionError	0.166628	0.834973	0	0	7.323529e+00
291.264038	8.130703	break	0	1	1.008173	1.008173	0	0	0	0	ThoughtProbe	1.358975	0.777757	1	7	7
300.034424	1.279390	city	4	1	1.134696	1.134696	0	1	0	0	CorrectCommission	0.940049	0.720270	1	0	7.108696e+00
301.313995	1.279728	city	5	1	1.441714	1.441714	0	1	0	0	CorrectCommission	0.076508	0.665152	1	0	7.217391e+00
302.620209	1.332731	mountain	2	0	0.000000	1.537728	1	0	0	0	CorrectOmission	0.394415	0.614815	1	0	7.326087e+00
303.926483	1.279765	mountain	3	0	0.000000	1.496284	1	0	0	0	CorrectOmission	0.257190	0.571220	1	0	7.434783e+00
305.206146	1.279578	city	4	1	1.390930	1.390930	0	1	0	0	CorrectCommission	0.091643	0.535765	1	0	7.543478e+00
306.485718	1.279557	city	10	1	1.295214	1.295214	0	1	0	0	CorrectCommission	0.408564	0.509269	1	0	7.652174e+00
307.765228	1.279495	mountain	8	0	0.000000	1.467414	1	0	0	0	CorrectOmission	0.161601	0.492007	1	0	7.760870e+00
309.044830	1.279724	city	6	1	1.560355	1.560355	0	1	0	0	CorrectCommission	0.469336	0.483868	1	0	7.869565e+00
310.344482	1.319557	city	2	1	1.226863	1.226863	0	1	0	0	CorrectCommission	0.634879	0.484494	1	0	7.978261e+00
311.644012	1.279525	city	6	1	1.184921	1.184921	0	1	0	0	CorrectCommission	0.773749	0.493472	1	0	8.086957e+00
312.930267	1.292973	city	7	1	1.258233	1.258233	0	1	0	0	CorrectCommission	0.531009	0.510395	1	0	8.195652e+00
314.216431	1.279348	city	1	1	1.197456	1.197456	0	1	0	0	CorrectCommission	0.732247	0.534845	1	0	8.304348e+00
315.495911	1.279604	city	6	1	1.402136	1.402136	0	1	0	0	CorrectCommission	0.054539	0.566275	1	0	8.413043e+00
316.808899	1.346387	city	10	1	1.425710	1.425710	0	1	0	0	CorrectCommission	0.023517	0.603934	1	0	8.521739e+00
318.135162	1.306133	city	3	1	1.696481	1.696481	0	1	0	0	CorrectCommission	0.920059	0.646654	1	0	8.630435e+00
319.441406	1.306319	city	8	0	0.000000	1.571265	0	0	0	1	OmissionError	0.505459	0.692761	1	0	8.739130e+00
320.740997	1.292909	city	7	1	1.404682	1.404682	0	1	0	0	CorrectCommission	0.046107	0.740141	1	0	8.847826e+00
322.033905	1.292875	city	1	1	1.551355	1.551355	0	1	0	0	CorrectCommission	0.439535	0.786341	1	0	8.956522e+00
323.346802	1.332925	city	5	0	0.000000	1.238604	0	0	0	1	OmissionError	0.596001	0.828875	0	0	9.065217e+00
324.666321	1.306099	city	10	1	0.834951	0.834951	0	1	0	0	CorrectCommission	1.932523	0.865536	0	0	9.173913e+00
325.959137	1.279553	city	1	0	0.000000	0.708915	0	0	0	1	OmissionError	2.349835	0.894719	0	0	9.282609e+00
327.245453	1.293080	city	4	1	0.970232	0.970232	0	1	0	0	CorrectCommission	1.484598	0.915681	0	0	9.391304e+00
328.531738	1.279495	city	3	1	1.728637	1.728637	0	1	0	0	CorrectCommission	1.026528	0.928608	0	0	9.500000e+00
329.817902	1.292831	city	2	0	0.000000	1.381215	0	0	0	1	OmissionError	0.123809	0.934554	0	0	9.608696e+00
331.110840	1.293062	city	6	1	0.982806	0.982806	0	1	0	0	CorrectCommission	1.442967	0.935137	0	0	9.717391e+00
332.397186	1.279600	city	8	1	1.588250	1.588250	0	1	0	0	CorrectCommission	0.561696	0.932193	0	0	9.826087e+00
333.716675	1.359367	mountain	9	0	0.000000	1.562467	1	0	0	0	CorrectOmission	0.476328	0.927495	0	0	9.934783e+00
335.036224	1.279765	city	3	1	1.406488	1.406488	0	1	0	0	CorrectCommission	0.040128	0.922414	0	0	1.004348e+01
336.315826	1.279408	city	2	0	0.000000	1.621343	0	0	0	1	OmissionError	0.671270	0.917829	0	0	1.015217e+01
337.595398	1.279732	city	9	0	0.000000	1.912847	0	0	0	1	OmissionError	1.636460	0.914047	0	0	1.026087e+01
338.875061	1.279597	city	5	1	1.986817	1.986817	0	1	0	0	CorrectCommission	1.881379	0.910971	0	0	1.036957e+01
340.167908	1.306086	city	1	0	0.000000	1.549068	0	0	0	1	OmissionError	0.431964	0.908286	0	0	1.047826e+01
341.467468	1.293067	city	8	1	1.074458	1.074458	0	1	0	0	CorrectCommission	1.139499	0.905666	0	0	1.058696e+01
342.753784	1.279567	city	10	1	1.037846	1.037846	0	1	0	0	CorrectCommission	1.260726	0.902835	0	0	1.069565e+01
344.033356	1.279577	city	4	1	1.454338	1.454338	0	1	0	0	CorrectCommission	0.118306	0.899709	0	0	1.080435e+01
345.346252	1.346209	city	6	1	1.765327	1.765327	0	1	0	0	CorrectCommission	1.148011	0.896425	0	0	1.091304e+01
346.685791	1.332895	city	2	1	1.682994	1.682994	0	1	0	0	CorrectCommission	0.875399	0.893180	0	0	1.102174e+01
347.991974	1.279419	city	1	1	1.547548	1.547548	0	1	0	0	CorrectCommission	0.426932	0.890247	0	0	1.113043e+01
349.291534	1.319743	city	2	1	1.719036	1.719036	0	1	0	0	CorrectCommission	0.994737	0.887889	0	0	1.123913e+01
350.597778	1.292752	city	8	0	0.000000	1.218532	0	0	0	1	OmissionError	0.662461	0.886263	0	0	1.134783e+01
351.884033	1.279716	city	6	1	0.874332	0.874332	0	1	0	0	CorrectCommission	1.802131	0.885443	0	0	1.145652e+01
353.163666	1.279579	city	5	1	1.514728	1.514728	0	1	0	0	CorrectCommission	0.318261	0.885350	0	0	1.156522e+01
354.449829	1.292752	city	2	1	1.905987	1.905987	0	1	0	0	CorrectCommission	1.613745	0.885836	0	0	1.167391e+01
355.742737	1.293062	city	3	1	1.501070	1.501070	0	1	0	0	CorrectCommission	0.273037	0.886602	0	0	1.178261e+01
357.049042	1.319568	city	8	1	1.600628	1.600628	0	1	0	0	CorrectCommission	0.602681	0.887288	0	0	1.189130e+01
357.708832	9.303610	break	0	0	0.000000	1.604094	0	0	0	0	ThoughtProbe	0.614158	0.887442	0	12	12
367.658905	1.292910	city	3	1	1.673183	1.673183	0	1	0	0	CorrectCommission	0.842917	0.886584	0	0	1.311765e+01
368.951721	1.292744	city	6	1	1.969610	1.969610	0	1	0	0	CorrectCommission	1.824406	0.884288	0	0	1.423529e+01
370.244598	1.292976	city	4	0	0.000000	1.579355	0	0	0	1	OmissionError	0.532246	0.880223	0	0	1.535294e+01
371.557587	1.333008	city	1	1	1.079755	1.079755	0	1	0	0	CorrectCommission	1.121962	0.874304	0	0	1.647059e+01
372.870544	1.292890	city	7	0	0.000000	1.048148	0	0	0	1	OmissionError	1.226615	0.866603	0	0	1.758824e+01
374.170044	1.306141	city	5	1	1.209867	1.209867	0	1	0	0	CorrectCommission	0.691152	0.857434	0	0	1.870588e+01
375.462982	1.279696	city	7	1	1.290248	1.290248	0	1	0	0	CorrectCommission	0.425006	0.847304	0	0	1.982353e+01
376.742615	1.279576	mountain	10	1	1.498207	1.498207	0	0	1	0	CommissionError	0.263558	0.836868	0	0	2.094118e+01
378.022095	1.279395	city	9	1	1.911014	1.911014	0	1	0	0	CorrectCommission	1.630388	0.826811	0	0	2.205882e+01
379.315002	1.306431	city	3	0	0.000000	1.817612	0	0	0	1	OmissionError	1.321129	0.817746	0	0	2.317647e+01
380.608002	1.279567	city	6	1	1.585645	1.585645	0	1	0	0	CorrectCommission	0.553071	0.810249	0	0	2.429412e+01
381.900879	1.306204	city	4	1	1.582756	1.582756	0	1	0	0	CorrectCommission	0.543507	0.804697	0	0	2.541176e+01
383.193726	1.279464	city	6	1	1.519126	1.519126	0	1	0	0	CorrectCommission	0.332824	0.801259	0	0	2.652941e+01
384.473328	1.279733	city	5	1	1.478865	1.478865	0	1	0	0	CorrectCommission	0.199517	0.799925	0	0	2.764706e+01
385.779602	1.332844	city	8	1	1.170605	1.170605	0	1	0	0	CorrectCommission	0.821152	0.800527	0	0	2.876471e+01
387.105835	1.319590	city	3	1	1.047599	1.047599	0	1	0	0	CorrectCommission	1.228432	0.802819	0	0	2.988235e+01
388.412048	1.292830	city	5	1	0.879184	0.879184	0	1	0	0	CorrectCommission	1.786066	0.806543	0	0	31
389.698273	1.279653	city	10	1	1.143901	1.143901	0	1	0	0	CorrectCommission	0.909571	0.811530	0	0	3.211765e+01
390.984558	1.292913	city	7	1	1.504238	1.504238	0	1	0	0	CorrectCommission	0.283528	0.817698	0	0	3.323529e+01
392.317444	1.372884	city	2	1	1.206887	1.206887	0	1	0	0	CorrectCommission	0.701019	0.825047	0	0	3.435294e+01
393.643616	1.279439	mountain	2	0	0.000000	1.246681	1	0	0	0	CorrectOmission	0.569258	0.833544	0	0	3.547059e+01
394.923187	1.279722	city	9	1	1.298402	1.298402	0	1	0	0	CorrectCommission	0.398009	0.843084	0	0	3.658824e+01
396.209503	1.292901	city	5	1	1.036828	1.036828	0	1	0	0	CorrectCommission	1.264095	0.853422	0	0	3.770588e+01
397.509094	1.306240	city	3	0	0.000000	1.378635	0	0	0	1	OmissionError	0.132352	0.864111	0	0	3.882353e+01
398.801941	1.279502	city	4	1	1.832243	1.832243	0	1	0	0	CorrectCommission	1.369574	0.874605	0	0	3.994118e+01
400.088196	1.292986	city	1	1	1.906077	1.906077	0	1	0	0	CorrectCommission	1.614042	0.884184	0	0	4.105882e+01
401.374481	1.279598	city	3	1	1.854759	1.854759	0	1	0	0	CorrectCommission	1.444126	0.892088	0	0	4.217647e+01
402.674072	1.319543	city	4	0	0.000000	1.560915	0	0	0	1	OmissionError	0.471189	0.897577	0	0	4.329412e+01
403.973633	1.279602	city	2	1	1.419652	1.419652	0	1	0	0	CorrectCommission	0.003458	0.899993	0	0	4.441176e+01
405.266541	1.306215	city	8	1	1.826078	1.826078	0	1	0	0	CorrectCommission	1.349162	0.898798	0	0	4.552941e+01
406.579437	1.319587	city	5	0	0.000000	1.598377	0	0	0	1	OmissionError	0.595229	0.893562	0	0	4.664706e+01
407.885651	1.292823	city	8	1	1.182772	1.182772	0	1	0	0	CorrectCommission	0.780866	0.884166	0	0	4.776471e+01
409.198456	1.332812	city	10	1	1.025487	1.025487	0	1	0	0	CorrectCommission	1.301647	0.870808	0	0	4.888235e+01
409.864868	12.489238	break	0	0	0.000000	0.955788	0	0	0	0	ThoughtProbe	1.532424	0.854031	0	50	50
422.993958	1.279707	city	3	0	0.000000	0.980312	0	0	0	1	OmissionError	1.451224	0.834733	0	0	4.965000e+01
424.286896	1.306142	city	9	1	1.105694	1.105694	0	1	0	0	CorrectCommission	1.036077	0.814061	0	0	4.930000e+01
425.586456	1.293009	mountain	8	0	0.000000	1.338569	1	0	0	0	CorrectOmission	0.265013	0.793218	1	0	4.895000e+01
426.872772	1.279604	city	1	1	1.496849	1.496849	0	1	0	0	CorrectCommission	0.259064	0.773254	1	0	4.860000e+01
428.178925	1.332718	city	5	1	1.398448	1.398448	0	1	0	0	CorrectCommission	0.066749	0.754851	1	0	4.825000e+01
429.498413	1.306234	city	3	1	1.536359	1.536359	0	1	0	0	CorrectCommission	0.389884	0.738200	1	0	4.790000e+01
430.824738	1.346409	city	2	1	1.527754	1.527754	0	1	0	0	CorrectCommission	0.361391	0.722998	1	0	4.755000e+01
432.137726	1.279566	city	10	0	0.000000	1.154472	0	0	0	1	OmissionError	0.874570	0.708553	1	0	4.720000e+01
433.430542	1.306097	city	7	1	0.839726	0.839726	0	1	0	0	CorrectCommission	1.916712	0.693957	1	0	4.685000e+01
434.736786	1.306383	city	4	1	1.006731	1.006731	0	1	0	0	CorrectCommission	1.363750	0.678375	1	0	4.650000e+01
436.043030	1.306107	city	1	1	1.583318	1.583318	0	1	0	0	CorrectCommission	0.545368	0.661249	1	0	4.615000e+01
437.335938	1.279700	city	8	1	1.425290	1.425290	0	1	0	0	CorrectCommission	0.022126	0.642480	1	0	4.580000e+01
438.622253	1.292917	city	10	1	1.482020	1.482020	0	1	0	0	CorrectCommission	0.209964	0.622441	1	0	4.545000e+01
439.915070	1.292742	mountain	7	0	0.000000	1.706842	1	0	0	0	CorrectOmission	0.954363	0.601952	1	0	4.510000e+01
441.207886	1.292882	city	2	1	1.789389	1.789389	0	1	0	0	CorrectCommission	1.227682	0.582152	1	0	4.475000e+01
442.500793	1.292927	city	3	1	1.419296	1.419296	0	1	0	0	CorrectCommission	0.002280	0.564357	1	0	4.440000e+01
443.793793	1.293047	mountain	3	0	0.000000	1.498833	1	0	0	0	CorrectOmission	0.265633	0.549894	1	0	4.405000e+01
445.086670	1.292753	city	7	1	1.628740	1.628740	0	1	0	0	CorrectCommission	0.695764	0.539840	1	0	4.370000e+01
446.372925	1.279741	city	9	1	1.409756	1.409756	0	1	0	0	CorrectCommission	0.029307	0.534944	1	0	4.335000e+01
447.659241	1.292915	city	7	1	1.593462	1.593462	0	1	0	0	CorrectCommission	0.578953	0.535538	1	0	43
448.945435	1.279434	city	8	0	0.000000	1.600321	0	0	0	1	OmissionError	0.601665	0.541455	1	0	4.265000e+01
450.224915	1.279557	city	7	1	1.528156	1.528156	0	1	0	0	CorrectCommission	0.362723	0.552109	1	0	4.230000e+01
451.504486	1.279577	city	9	1	1.474790	1.474790	0	1	0	0	CorrectCommission	0.186023	0.566586	1	0	4.195000e+01
452.797424	1.306286	city	8	1	1.713733	1.713733	0	1	0	0	CorrectCommission	0.977178	0.583779	1	0	4.160000e+01
454.097015	1.292907	city	9	0	0.000000	1.370618	0	0	0	1	OmissionError	0.158896	0.602497	1	0	4.125000e+01
455.409943	1.332916	city	8	1	1.162752	1.162752	0	1	0	0	CorrectCommission	0.847153	0.621669	1	0	4.090000e+01
456.722809	1.292846	city	1	1	1.807441	1.807441	0	1	0	0	CorrectCommission	1.287452	0.640415	1	0	4.055000e+01
458.022339	1.306239	city	6	0	0.000000	1.383664	0	0	0	1	OmissionError	0.115698	0.658133	1	0	4.020000e+01
459.335327	1.319739	city	10	1	0.960848	0.960848	0	1	0	0	CorrectCommission	1.515670	0.674535	1	0	3.985000e+01
460.641663	1.292885	city	1	1	1.608417	1.608417	0	1	0	0	CorrectCommission	0.628471	0.689536	1	0	3.950000e+01
461.954559	1.332917	city	9	0	0.000000	1.502316	0	0	0	1	OmissionError	0.277164	0.703259	1	0	3.915000e+01
463.260712	1.279393	city	3	1	1.306669	1.306669	0	1	0	0	CorrectCommission	0.370636	0.715914	1	0	3.880000e+01
464.546875	1.292915	city	6	1	1.685600	1.685600	0	1	0	0	CorrectCommission	0.884028	0.727730	1	0	3.845000e+01
465.839874	1.293090	city	5	1	1.584011	1.584011	0	1	0	0	CorrectCommission	0.547662	0.738936	1	0	3.810000e+01
467.139435	1.306065	city	8	1	1.645842	1.645842	0	1	0	0	CorrectCommission	0.752387	0.749788	1	0	3.775000e+01
468.459503	1.334055	city	10	1	1.637136	1.637136	0	1	0	0	CorrectCommission	0.723560	0.760583	1	0	3.740000e+01
469.765808	1.278565	city	6	0	0.000000	1.766182	0	0	0	1	OmissionError	1.150841	0.771747	1	0	3.705000e+01
471.044891	1.279598	city	5	1	1.848387	1.848387	0	1	0	0	CorrectCommission	1.423026	0.783851	1	0	3.670000e+01
472.337830	1.306244	city	1	0	0.000000	1.699156	0	0	0	1	OmissionError	0.928914	0.797550	0	0	3.635000e+01
472.990936	10.169979	break	0	0	0.000000	1.501324	0	0	0	0	ThoughtProbe	0.273879	0.813477	0	36	36
483.813934	1.306057	mountain	6	1	1.437724	1.437724	0	0	1	0	CommissionError	0.063298	0.832173	0	0	3.543478e+01
485.126892	1.319805	mountain	1	0	0.000000	1.691192	1	0	0	0	CorrectOmission	0.902546	0.853841	0	0	3.486957e+01
486.426483	1.279382	city	7	1	1.861039	1.861039	0	1	0	0	CorrectCommission	1.464919	0.878267	0	0	3.430435e+01
487.726013	1.319709	city	8	1	1.546576	1.546576	0	1	0	0	CorrectCommission	0.423711	0.904776	0	0	3.373913e+01
489.025574	1.279399	city	6	1	1.444614	1.444614	0	1	0	0	CorrectCommission	0.086110	0.932298	0	0	3.317391e+01
490.318481	1.306416	city	3	0	0.000000	1.136247	0	0	0	1	OmissionError	0.934914	0.959432	0	0	3.260870e+01
491.611389	1.279421	city	8	0	0.000000	0.915140	0	0	0	1	OmissionError	1.667013	0.984648	0	0	3.204348e+01
492.917633	1.333035	city	7	1	1.074959	1.074959	0	1	0	0	CorrectCommission	1.137842	1.006491	0	0	3.147826e+01
494.230591	1.292907	city	6	1	1.909370	1.909370	0	1	0	0	CorrectCommission	1.624945	1.023762	0	0	3.091304e+01
495.536835	1.319568	city	4	1	1.939569	1.939569	0	1	0	0	CorrectCommission	1.724936	1.035598	0	0	3.034783e+01
496.836365	1.279478	city	5	1	1.835590	1.835590	0	1	0	0	CorrectCommission	1.380655	1.041441	0	0	2.978261e+01
498.142548	1.332903	city	4	0	0.000000	1.693622	0	0	0	1	OmissionError	0.910591	1.040989	0	0	2.921739e+01
499.448822	1.279670	mountain	2	0	0.000000	1.553090	1	0	0	0	CorrectOmission	0.445280	1.034021	0	0	2.865217e+01
500.728394	1.279447	city	9	1	1.453417	1.453417	0	1	0	0	CorrectCommission	0.115256	1.020283	0	0	2.808696e+01
502.027954	1.319695	city	7	1	1.434027	1.434027	0	1	0	0	CorrectCommission	0.051056	0.999466	0	0	2.752174e+01
503.327606	1.279604	city	4	1	1.888890	1.888890	0	1	0	0	CorrectCommission	1.557134	0.971300	0	0	2.695652e+01
504.647095	1.359374	city	5	0	0.000000	2.168181	0	0	0	1	OmissionError	2.481884	0.935695	0	0	2.639130e+01
505.973328	1.293088	city	10	1	2.061452	2.061452	0	1	0	0	CorrectCommission	2.128500	0.893007	0	0	2.582609e+01
507.299652	1.359550	city	1	0	0.000000	1.358258	0	0	0	1	OmissionError	0.199822	0.844220	0	0	2.526087e+01
508.619232	1.279614	city	3	1	0.861041	0.861041	0	1	0	0	CorrectCommission	1.846138	0.791016	1	0	2.469565e+01
509.898804	1.279512	city	7	1	1.372246	1.372246	0	1	0	0	CorrectCommission	0.153506	0.735573	1	0	2.413043e+01
511.204956	1.332779	city	10	1	1.368885	1.368885	0	1	0	0	CorrectCommission	0.164633	0.680486	1	0	2.356522e+01
512.531189	1.319694	city	6	0	0.000000	1.388439	0	0	0	1	OmissionError	0.099889	0.628334	1	0	23
513.837402	1.292747	city	9	1	1.378887	1.378887	0	1	0	0	CorrectCommission	0.131516	0.581369	1	0	2.243478e+01
515.150269	1.333023	city	4	1	1.288210	1.288210	0	1	0	0	CorrectCommission	0.431753	0.541220	1	0	2.186957e+01
516.463196	1.292791	city	10	1	1.551625	1.551625	0	1	0	0	CorrectCommission	0.440429	0.508811	1	0	2.130435e+01
517.762756	1.306383	city	6	1	1.539918	1.539918	0	1	0	0	CorrectCommission	0.401669	0.484373	1	0	2.073913e+01
519.069092	1.306252	city	10	1	1.342259	1.342259	0	1	0	0	CorrectCommission	0.252793	0.467599	1	0	2.017391e+01
520.368652	1.292922	city	1	1	1.461640	1.461640	0	1	0	0	CorrectCommission	0.142484	0.457956	1	0	1.960870e+01
521.661560	1.292881	city	5	1	1.591818	1.591818	0	1	0	0	CorrectCommission	0.573510	0.455032	1	0	1.904348e+01
522.961060	1.306070	city	4	1	1.828999	1.828999	0	1	0	0	CorrectCommission	1.358832	0.458913	1	0	1.847826e+01
524.267273	1.306367	mountain	3	0	0.000000	1.645886	1	0	0	0	CorrectOmission	0.752535	0.470506	1	0	1.791304e+01
525.580261	1.319605	city	2	1	1.396664	1.396664	0	1	0	0	CorrectCommission	0.072657	0.491810	1	0	1.734783e+01
526.906433	1.332753	city	7	0	0.000000	1.435514	0	0	0	1	OmissionError	0.055979	0.525959	1	0	1.678261e+01
528.232605	1.319539	city	2	1	1.508277	1.508277	0	1	0	0	CorrectCommission	0.296902	0.577166	1	0	1.621739e+01
529.552185	1.319591	city	3	1	1.360791	1.360791	0	1	0	0	CorrectCommission	0.191433	0.650500	1	0	1.565217e+01
530.885071	1.346229	city	10	1	1.507333	1.507333	0	1	0	0	CorrectCommission	0.293775	0.751535	1	0	1.508696e+01
532.231689	1.347073	city	8	1	1.245311	1.245311	0	1	0	0	CorrectCommission	0.573796	0.885821	0	0	1.452174e+01
533.564575	1.318692	city	10	1	1.120790	1.120790	0	1	0	0	CorrectCommission	0.986091	1.058306	0	0	1.395652e+01
534.863831	1.279740	city	1	1	1.504523	1.504523	0	1	0	0	CorrectCommission	0.284473	1.272676	0	0	1.339130e+01
536.150146	1.292905	city	3	1	1.632293	1.632293	0	1	0	0	CorrectCommission	0.707528	1.530756	0	0	1.282609e+01
537.456360	1.319588	city	7	1	1.724464	1.724464	0	1	0	0	CorrectCommission	1.012711	1.831821	0	0	1.226087e+01
538.762634	1.292904	city	3	1	1.755750	1.755750	0	1	0	0	CorrectCommission	1.116301	2.172316	0	0	1.169565e+01
540.068787	1.319388	city	9	0	0.000000	1.426166	0	0	0	1	OmissionError	0.025025	2.545723	0	0	1.113043e+01
541.421570	1.386206	city	5	1	0.916145	0.916145	0	1	0	0	CorrectCommission	1.663683	2.942848	0	0	1.056522e+01
542.114685	14.209013	break	0	0	0.000000	0.406125	0	0	0	0	ThoughtProbe	3.352392	3.352392	0	10	10
