onset	duration	trial_type	image_type	Press	ReactionTime	ReactionTime_Interpolated	CorrectOmission	CorrectCommission	CommissionError	OmissionError	response_type	nonsmoothVarianceTimeCourse	VarianceTimeCourse	In_the_Zone	ThoughtProbe	ThoughtProbe_Interpolated
0.652902	1.279550	city	9	1	1.240678	1.240678	0	1	0	0	CorrectCommission	0.576785	0.576785	1	0	41
1.932534	1.279716	city	4	1	1.448186	1.448186	0	1	0	0	CorrectCommission	0.135782	0.596136	1	0	41
3.212100	1.279416	city	3	1	1.549778	1.549778	0	1	0	0	CorrectCommission	0.484641	0.615043	1	0	41
4.505009	1.306402	city	10	1	1.767133	1.767133	0	1	0	0	CorrectCommission	1.231020	0.633181	1	0	41
5.798012	1.279605	city	8	1	1.834315	1.834315	0	1	0	0	CorrectCommission	1.461718	0.650465	1	0	41
7.084176	1.292722	city	9	0	0.000000	1.428662	0	0	0	1	OmissionError	0.068738	0.667038	1	0	41
8.377072	1.293071	city	1	1	1.085795	1.085795	0	1	0	0	CorrectCommission	1.108641	0.683302	1	0	41
9.663407	1.279597	city	6	1	1.341335	1.341335	0	1	0	0	CorrectCommission	0.231138	0.699667	1	0	41
10.942905	1.279400	city	10	1	1.196858	1.196858	0	1	0	0	CorrectCommission	0.727262	0.716500	1	0	41
12.222476	1.279742	mountain	6	0	0.000000	1.269510	1	0	0	0	CorrectOmission	0.477778	0.733878	1	0	41
13.502133	1.279574	city	9	1	1.444751	1.444751	0	1	0	0	CorrectCommission	0.123986	0.751562	1	0	41
14.781632	1.279422	city	5	1	1.608037	1.608037	0	1	0	0	CorrectCommission	0.684698	0.768922	1	0	41
16.061127	1.279569	city	1	1	1.776474	1.776474	0	1	0	0	CorrectCommission	1.263097	0.785011	1	0	41
17.340790	1.279757	mountain	8	0	0.000000	1.763967	1	0	0	0	CorrectOmission	1.220147	0.798720	0	0	41
18.620466	1.279593	city	2	1	1.658998	1.658998	0	1	0	0	CorrectCommission	0.859693	0.808978	0	0	41
19.900042	1.279561	city	5	1	1.550052	1.550052	0	1	0	0	CorrectCommission	0.485581	0.814929	0	0	41
21.179575	1.279504	city	8	1	1.981970	1.981970	0	1	0	0	CorrectCommission	1.968753	0.816063	0	0	41
22.459156	1.279660	city	6	0	0.000000	1.495111	0	0	0	1	OmissionError	0.296917	0.812235	0	0	41
23.738770	1.279564	city	10	1	0.982759	0.982759	0	1	0	0	CorrectCommission	1.462459	0.803754	0	0	41
25.018343	1.279584	city	1	1	1.338200	1.338200	0	1	0	0	CorrectCommission	0.241903	0.791227	1	0	41
26.304596	1.292924	mountain	3	0	0.000000	1.542938	1	0	0	0	CorrectOmission	0.461151	0.775510	1	0	41
27.597467	1.292816	city	3	1	1.649880	1.649880	0	1	0	0	CorrectCommission	0.828384	0.757554	1	0	41
28.883701	1.279654	city	6	1	1.711935	1.711935	0	1	0	0	CorrectCommission	1.041475	0.738358	1	0	41
30.169901	1.292743	city	2	1	1.645066	1.645066	0	1	0	0	CorrectCommission	0.811850	0.718942	1	0	41
31.456062	1.279581	city	4	1	1.457234	1.457234	0	1	0	0	CorrectCommission	0.166851	0.700353	1	0	41
32.742355	1.293007	city	2	1	1.303201	1.303201	0	1	0	0	CorrectCommission	0.362086	0.683685	1	0	41
34.028599	1.279481	city	8	1	1.791147	1.791147	0	1	0	0	CorrectCommission	1.313482	0.670062	1	0	41
35.308224	1.279765	city	2	1	1.781500	1.781500	0	1	0	0	CorrectCommission	1.280354	0.660644	1	0	41
36.587814	1.279413	mountain	1	0	0.000000	1.460694	1	0	0	0	CorrectOmission	0.178733	0.656516	1	0	41
37.867382	1.279721	city	1	1	1.199569	1.199569	0	1	0	0	CorrectCommission	0.717952	0.658578	1	0	41
39.147041	1.279598	city	2	1	1.368962	1.368962	0	1	0	0	CorrectCommission	0.136267	0.667267	1	0	41
40.426605	1.279529	city	5	1	1.520967	1.520967	0	1	0	0	CorrectCommission	0.385706	0.682467	1	0	41
41.712849	1.292960	city	8	1	1.351792	1.351792	0	1	0	0	CorrectCommission	0.195230	0.703295	1	0	41
42.999115	1.279577	city	5	1	1.390755	1.390755	0	1	0	0	CorrectCommission	0.061433	0.728159	1	0	41
44.298687	1.319567	city	1	1	1.752458	1.752458	0	1	0	0	CorrectCommission	1.180628	0.754822	1	0	41
45.618164	1.319383	city	4	1	1.609742	1.609742	0	1	0	0	CorrectCommission	0.690553	0.780658	1	0	41
46.924408	1.293107	city	3	1	1.840620	1.840620	0	1	0	0	CorrectCommission	1.483369	0.803084	0	0	41
48.243984	1.346046	city	2	0	0.000000	1.310317	0	0	0	1	OmissionError	0.337649	0.819885	0	0	41
49.583454	1.332895	city	9	1	0.767733	0.767733	0	1	0	0	CorrectCommission	2.200842	0.829640	0	0	41
50.936333	1.372857	city	2	1	0.961766	0.961766	0	1	0	0	CorrectCommission	1.534548	0.831868	0	0	41
52.269302	1.293089	city	7	1	1.090053	1.090053	0	1	0	0	CorrectCommission	1.094022	0.827190	0	0	41
53.562260	1.292819	city	4	1	1.257811	1.257811	0	1	0	0	CorrectCommission	0.517952	0.817190	0	0	41
54.848412	1.279489	city	1	1	1.364886	1.364886	0	1	0	0	CorrectCommission	0.150265	0.804150	0	0	41
56.134670	1.293024	city	8	1	1.254761	1.254761	0	1	0	0	CorrectCommission	0.528426	0.790689	1	0	41
57.427616	1.292870	city	6	1	1.196612	1.196612	0	1	0	0	CorrectCommission	0.728104	0.779347	1	0	41
61.799545	7.450992	break	0	1	1.196182	1.196182	0	0	0	0	ThoughtProbe	0.729582	0.772239	1	41	41
66.178162	1.306234	city	8	1	1.222155	1.222155	0	1	0	0	CorrectCommission	0.640391	0.770771	1	0	4.105000e+01
67.497719	1.332884	city	7	1	1.223884	1.223884	0	1	0	0	CorrectCommission	0.634454	0.775470	1	0	4.110000e+01
68.810623	1.292921	mountain	5	0	0.000000	1.261416	1	0	0	0	CorrectOmission	0.505572	0.785899	1	0	4.115000e+01
70.096779	1.279394	city	4	1	1.449773	1.449773	0	1	0	0	CorrectCommission	0.141231	0.800768	0	0	4.120000e+01
71.376266	1.279574	city	7	1	1.903978	1.903978	0	1	0	0	CorrectCommission	1.700934	0.818107	0	0	4.125000e+01
72.675926	1.319750	city	6	0	0.000000	1.433743	0	0	0	1	OmissionError	0.086183	0.835445	0	0	4.130000e+01
73.982246	1.292887	city	2	1	0.888390	0.888390	0	1	0	0	CorrectCommission	1.786514	0.850221	0	0	4.135000e+01
75.268478	1.279584	mountain	8	0	0.000000	1.117243	1	0	0	0	CorrectOmission	1.000652	0.859960	0	0	4.140000e+01
76.547989	1.279437	city	7	1	1.568924	1.568924	0	1	0	0	CorrectCommission	0.550385	0.862674	0	0	4.145000e+01
77.840813	1.306209	city	9	1	1.692056	1.692056	0	1	0	0	CorrectCommission	0.973213	0.857072	0	0	4.150000e+01
79.133789	1.279744	city	10	0	0.000000	1.193241	0	0	0	1	OmissionError	0.739681	0.842697	0	0	4.155000e+01
80.413406	1.279491	city	7	1	0.770701	0.770701	0	1	0	0	CorrectCommission	2.190652	0.820044	0	0	4.160000e+01
81.712921	1.319541	city	4	1	1.122658	1.122658	0	1	0	0	CorrectCommission	0.982058	0.790450	1	0	4.165000e+01
83.025864	1.306348	city	2	1	1.118990	1.118990	0	1	0	0	CorrectCommission	0.994654	0.756086	1	0	4.170000e+01
84.332176	1.306266	city	9	1	1.527727	1.527727	0	1	0	0	CorrectCommission	0.408917	0.719539	1	0	4.175000e+01
85.631760	1.292903	city	8	1	1.340443	1.340443	0	1	0	0	CorrectCommission	0.234201	0.683553	1	0	4.180000e+01
86.931328	1.306228	city	3	1	1.260541	1.260541	0	1	0	0	CorrectCommission	0.508577	0.650701	1	0	4.185000e+01
88.224144	1.279405	city	5	1	1.338475	1.338475	0	1	0	0	CorrectCommission	0.240958	0.623041	1	0	4.190000e+01
89.530388	1.333083	mountain	2	0	0.000000	1.434476	1	0	0	0	CorrectOmission	0.088701	0.601948	1	0	4.195000e+01
90.836700	1.279541	city	8	1	1.422841	1.422841	0	1	0	0	CorrectCommission	0.048747	0.587997	1	0	42
92.149521	1.346109	city	6	1	1.177867	1.177867	0	1	0	0	CorrectCommission	0.792475	0.581019	1	0	4.205000e+01
93.475746	1.306331	city	2	1	1.244610	1.244610	0	1	0	0	CorrectCommission	0.563283	0.580227	1	0	4.210000e+01
94.795456	1.333095	city	7	1	1.742724	1.742724	0	1	0	0	CorrectCommission	1.147201	0.584447	1	0	4.215000e+01
96.108315	1.292615	city	9	1	1.665617	1.665617	0	1	0	0	CorrectCommission	0.882424	0.592278	1	0	4.220000e+01
97.414467	1.319692	city	3	1	1.621918	1.621918	0	1	0	0	CorrectCommission	0.732364	0.602292	1	0	4.225000e+01
98.734093	1.319558	city	2	1	1.436121	1.436121	0	1	0	0	CorrectCommission	0.094351	0.613096	1	0	4.230000e+01
100.040489	1.293242	city	4	1	1.263620	1.263620	0	1	0	0	CorrectCommission	0.498006	0.623406	1	0	4.235000e+01
101.326736	1.279248	city	1	1	1.494575	1.494575	0	1	0	0	CorrectCommission	0.295077	0.632060	1	0	4.240000e+01
102.619492	1.306264	city	7	1	1.674610	1.674610	0	1	0	0	CorrectCommission	0.913304	0.638030	1	0	4.245000e+01
103.945747	1.346248	city	4	1	1.690785	1.690785	0	1	0	0	CorrectCommission	0.968847	0.640476	1	0	4.250000e+01
105.265228	1.292709	city	6	1	1.516202	1.516202	0	1	0	0	CorrectCommission	0.369342	0.638841	1	0	4.255000e+01
106.558121	1.293079	city	2	1	1.467075	1.467075	0	1	0	0	CorrectCommission	0.200644	0.632936	1	0	4.260000e+01
107.884438	1.359556	city	6	1	1.922579	1.922579	0	1	0	0	CorrectCommission	1.764808	0.623033	1	0	4.265000e+01
109.237236	1.346044	city	7	1	1.812861	1.812861	0	1	0	0	CorrectCommission	1.388045	0.609814	1	0	4.270000e+01
110.563454	1.306395	city	8	0	0.000000	1.402313	0	0	0	1	OmissionError	0.021743	0.594449	1	0	4.275000e+01
111.876434	1.319566	city	4	1	1.108880	1.108880	0	1	0	0	CorrectCommission	1.029368	0.578397	1	0	4.280000e+01
113.182671	1.292905	city	2	1	1.350507	1.350507	0	1	0	0	CorrectCommission	0.199643	0.563145	1	0	4.285000e+01
114.482246	1.306242	city	6	1	1.392339	1.392339	0	1	0	0	CorrectCommission	0.055992	0.550038	1	0	4.290000e+01
115.781830	1.292921	city	4	0	0.000000	1.425143	0	0	0	1	OmissionError	0.056654	0.539987	1	0	4.295000e+01
116.428284	13.222200	break	0	0	0.000000	1.459101	0	0	0	0	ThoughtProbe	0.173263	0.533350	1	43	43
130.303665	1.306357	city	5	0	0.000000	1.504396	0	0	0	1	OmissionError	0.328802	0.529890	1	0	4.225000e+01
131.596558	1.279420	city	1	1	1.571211	1.571211	0	1	0	0	CorrectCommission	0.558239	0.528858	1	0	4.150000e+01
132.876129	1.279740	city	4	1	1.669729	1.669729	0	1	0	0	CorrectCommission	0.896541	0.529172	1	0	4.075000e+01
134.169113	1.306219	city	1	1	1.804616	1.804616	0	1	0	0	CorrectCommission	1.359734	0.529661	1	0	40
135.475327	1.306214	city	9	0	0.000000	1.423494	0	0	0	1	OmissionError	0.050989	0.529284	1	0	3.925000e+01
136.801559	1.346246	city	3	1	1.065499	1.065499	0	1	0	0	CorrectCommission	1.178338	0.527399	1	0	3.850000e+01
138.127762	1.306172	mountain	10	0	0.000000	1.269769	1	0	0	0	CorrectOmission	0.476889	0.523678	1	0	3.775000e+01
139.420685	1.279666	city	9	1	1.556923	1.556923	0	1	0	0	CorrectCommission	0.509176	0.518283	1	0	37
140.700302	1.279575	city	1	1	1.447579	1.447579	0	1	0	0	CorrectCommission	0.133695	0.511690	1	0	3.625000e+01
142.006561	1.332922	city	4	1	1.374147	1.374147	0	1	0	0	CorrectCommission	0.118465	0.504630	1	0	3.550000e+01
143.366119	1.386204	city	5	1	1.327935	1.327935	0	1	0	0	CorrectCommission	0.277151	0.497990	1	0	3.475000e+01
144.718933	1.319435	city	2	1	1.147931	1.147931	0	1	0	0	CorrectCommission	0.895270	0.492759	1	0	34
146.025070	1.292834	city	6	1	1.260713	1.260713	0	1	0	0	CorrectCommission	0.507988	0.489974	1	0	3.325000e+01
147.346359	1.349747	city	1	1	1.152467	1.152467	0	1	0	0	CorrectCommission	0.879696	0.490719	1	0	3.250000e+01
148.659302	1.276117	mountain	5	0	0.000000	1.320180	1	0	0	0	CorrectOmission	0.303783	0.496034	1	0	3.175000e+01
149.937210	1.279705	city	2	1	1.528989	1.528989	0	1	0	0	CorrectCommission	0.413253	0.506884	1	0	31
151.223511	1.292909	city	6	0	0.000000	1.544034	0	0	0	1	OmissionError	0.464916	0.524045	1	0	3.025000e+01
152.516357	1.292768	city	3	0	0.000000	1.445702	0	0	0	1	OmissionError	0.127250	0.547899	1	0	2.950000e+01
153.802597	1.279713	city	10	1	1.314380	1.314380	0	1	0	0	CorrectCommission	0.323698	0.578300	1	0	2.875000e+01
155.088821	1.292729	city	4	0	0.000000	1.230458	0	0	0	1	OmissionError	0.611880	0.614427	1	0	28
156.374969	1.279574	city	3	1	1.285182	1.285182	0	1	0	0	CorrectCommission	0.423962	0.654729	1	0	2.725000e+01
157.661285	1.293074	city	7	1	1.569799	1.569799	0	1	0	0	CorrectCommission	0.553391	0.696992	1	0	2.650000e+01
158.947632	1.279593	city	2	1	1.392273	1.392273	0	1	0	0	CorrectCommission	0.056221	0.738497	1	0	2.575000e+01
160.227203	1.279560	mountain	5	1	1.509988	1.509988	0	0	1	0	CommissionError	0.348003	0.776330	1	0	25
161.520111	1.306260	city	10	1	0.564497	0.564497	0	1	0	0	CorrectCommission	2.898740	0.807722	0	0	2.425000e+01
162.812988	1.279486	city	7	1	1.554397	1.554397	0	1	0	0	CorrectCommission	0.500500	0.830393	0	0	2.350000e+01
164.119217	1.332992	city	4	1	1.904085	1.904085	0	1	0	0	CorrectCommission	1.701302	0.843051	0	0	2.275000e+01
165.465439	1.359429	city	9	0	0.000000	1.830379	0	0	0	1	OmissionError	1.448202	0.845406	0	0	22
166.791611	1.292926	city	2	0	0.000000	1.527141	0	0	0	1	OmissionError	0.406907	0.838333	0	0	2.125000e+01
168.077820	1.279499	city	6	0	0.000000	1.188233	0	0	0	1	OmissionError	0.756877	0.823742	0	0	2.050000e+01
169.370789	1.306422	city	10	1	1.007516	1.007516	0	1	0	0	CorrectCommission	1.377446	0.804275	0	0	1.975000e+01
170.677109	1.306237	city	5	0	0.000000	1.178852	0	0	0	1	OmissionError	0.789092	0.782920	1	0	19
171.969940	1.279416	city	7	1	1.417800	1.417800	0	1	0	0	CorrectCommission	0.031437	0.762654	1	0	1.825000e+01
173.262863	1.306433	city	1	0	0.000000	1.439920	0	0	0	1	OmissionError	0.107396	0.746065	1	0	1.750000e+01
174.555756	1.279355	city	9	1	1.488396	1.488396	0	1	0	0	CorrectCommission	0.273857	0.735048	1	0	1.675000e+01
175.848633	1.306400	city	7	1	1.806410	1.806410	0	1	0	0	CorrectCommission	1.365895	0.730693	1	0	16
177.154907	1.306148	city	1	0	0.000000	1.684847	0	0	0	1	OmissionError	0.948455	0.733250	1	0	1.525000e+01
178.454498	1.293017	city	9	1	1.458513	1.458513	0	1	0	0	CorrectCommission	0.171241	0.742290	1	0	1.450000e+01
179.760773	1.319555	city	4	1	1.462215	1.462215	0	1	0	0	CorrectCommission	0.183956	0.756881	1	0	1.375000e+01
180.420563	9.796740	break	0	0	0.000000	1.260887	0	0	0	0	ThoughtProbe	0.507389	0.775850	1	13	13
190.857071	1.279553	city	8	1	1.036269	1.036269	0	1	0	0	CorrectCommission	1.278709	0.798016	0	0	1.370588e+01
192.136673	1.279655	city	9	0	0.000000	0.970104	0	0	0	1	OmissionError	1.505916	0.822384	0	0	1.441176e+01
193.436264	1.319530	city	4	1	1.022611	1.022611	0	1	0	0	CorrectCommission	1.325610	0.848256	0	0	1.511765e+01
194.749176	1.306292	city	2	1	1.154013	1.154013	0	1	0	0	CorrectCommission	0.874388	0.875214	0	0	1.582353e+01
196.048721	1.292777	city	6	1	1.196658	1.196658	0	1	0	0	CorrectCommission	0.727947	0.903010	0	0	1.652941e+01
197.348282	1.306351	city	1	1	1.371370	1.371370	0	1	0	0	CorrectCommission	0.127999	0.931370	0	0	1.723529e+01
198.647903	1.292907	city	3	1	1.671406	1.671406	0	1	0	0	CorrectCommission	0.902300	0.959791	0	0	1.794118e+01
199.954056	1.319388	city	9	1	1.465253	1.465253	0	1	0	0	CorrectCommission	0.194389	0.987426	0	0	1.864706e+01
201.273605	1.319722	mountain	5	0	0.000000	1.727710	1	0	0	0	CorrectOmission	1.095645	1.013061	0	0	1.935294e+01
202.579865	1.292772	city	3	1	1.978615	1.978615	0	1	0	0	CorrectCommission	1.957232	1.035155	0	0	2.005882e+01
203.879349	1.306218	city	5	1	1.737806	1.737806	0	1	0	0	CorrectCommission	1.130314	1.052108	0	0	2.076471e+01
205.179001	1.293088	city	10	0	0.000000	1.106305	0	0	0	1	OmissionError	1.038211	1.062526	0	0	2.147059e+01
206.478653	1.306219	city	3	1	0.844483	0.844483	0	1	0	0	CorrectCommission	1.937290	1.065397	0	0	2.217647e+01
207.778152	1.292755	city	6	1	1.712708	1.712708	0	1	0	0	CorrectCommission	1.044129	1.060360	0	0	2.288235e+01
209.077728	1.306407	city	7	0	0.000000	1.835401	0	0	0	1	OmissionError	1.465446	1.047873	0	0	2.358824e+01
210.377365	1.292885	city	5	1	1.659926	1.659926	0	1	0	0	CorrectCommission	0.862880	1.029153	0	0	2.429412e+01
211.676926	1.306236	city	9	1	1.633649	1.633649	0	1	0	0	CorrectCommission	0.772647	1.006142	0	0	25
212.989761	1.319428	city	10	1	1.217999	1.217999	0	1	0	0	CorrectCommission	0.654664	0.981272	0	0	2.570588e+01
214.302612	1.306264	mountain	6	0	0.000000	1.035669	1	0	0	0	CorrectOmission	1.280770	0.957245	0	0	2.641176e+01
215.602188	1.292879	city	3	0	0.000000	1.029306	0	0	0	1	OmissionError	1.302622	0.936749	0	0	2.711765e+01
216.888504	1.279777	city	10	0	0.000000	1.141554	0	0	0	1	OmissionError	0.917168	0.922134	0	0	2.782353e+01
218.168076	1.279365	city	5	1	1.315061	1.315061	0	1	0	0	CorrectCommission	0.321359	0.915155	0	0	2.852941e+01
219.447647	1.279759	city	4	1	1.492473	1.492473	0	1	0	0	CorrectCommission	0.287857	0.916728	0	0	2.923529e+01
220.760635	1.346227	city	8	1	1.290013	1.290013	0	1	0	0	CorrectCommission	0.407375	0.926757	0	0	2.994118e+01
222.093536	1.319564	city	2	1	1.571125	1.571125	0	1	0	0	CorrectCommission	0.557943	0.944129	0	0	3.064706e+01
223.399750	1.292880	city	3	1	1.871515	1.871515	0	1	0	0	CorrectCommission	1.589459	0.966815	0	0	3.135294e+01
224.712570	1.332753	city	1	1	1.635301	1.635301	0	1	0	0	CorrectCommission	0.778320	0.992065	0	0	3.205882e+01
226.032150	1.306410	city	9	1	1.648044	1.648044	0	1	0	0	CorrectCommission	0.822076	1.016806	0	0	3.276471e+01
227.385025	1.399353	city	10	1	1.224025	1.224025	0	1	0	0	CorrectCommission	0.633969	1.037938	0	0	3.347059e+01
228.737915	1.306403	city	8	1	2.018832	2.018832	0	1	0	0	CorrectCommission	2.095334	1.052746	0	0	3.417647e+01
230.030838	1.279440	city	9	1	2.208982	2.208982	0	1	0	0	CorrectCommission	2.748296	1.059176	0	0	3.488235e+01
231.343735	1.346354	city	6	1	1.244330	1.244330	0	1	0	0	CorrectCommission	0.564247	1.056078	0	0	3.558824e+01
232.663300	1.292796	city	10	1	1.207251	1.207251	0	1	0	0	CorrectCommission	0.691572	1.043336	0	0	3.629412e+01
233.309708	9.170317	break	0	0	0.000000	1.113977	0	0	0	0	ThoughtProbe	1.011869	1.021729	0	37	37
243.126526	1.293025	city	7	0	0.000000	1.031918	0	0	0	1	OmissionError	1.293652	0.992804	0	0	3.605882e+01
244.419495	1.292904	city	10	0	0.000000	1.028486	0	0	0	1	OmissionError	1.305435	0.958679	0	0	3.511765e+01
245.739075	1.346246	city	8	1	1.171094	1.171094	0	1	0	0	CorrectCommission	0.815733	0.921765	0	0	3.417647e+01
247.051895	1.279399	city	1	0	0.000000	1.527151	0	0	0	1	OmissionError	0.406941	0.884515	0	0	3.323529e+01
248.344803	1.306428	city	2	1	1.724704	1.724704	0	1	0	0	CorrectCommission	1.085323	0.849233	0	0	3.229412e+01
249.657700	1.319373	city	4	1	1.391799	1.391799	0	1	0	0	CorrectCommission	0.057847	0.817906	0	0	3.135294e+01
250.963867	1.292963	city	1	1	1.156646	1.156646	0	1	0	0	CorrectCommission	0.865346	0.792165	1	0	3.041176e+01
252.296844	1.372988	mountain	9	1	1.035777	1.035777	0	0	1	0	CommissionError	1.280400	0.773197	1	0	2.947059e+01
253.629807	1.292919	city	4	1	1.532835	1.532835	0	1	0	0	CorrectCommission	0.426457	0.761804	1	0	2.852941e+01
254.936066	1.319608	city	7	1	1.276278	1.276278	0	1	0	0	CorrectCommission	0.454538	0.758430	1	0	2.758824e+01
256.235474	1.279229	city	5	1	1.321690	1.321690	0	1	0	0	CorrectCommission	0.298598	0.763146	1	0	2.664706e+01
257.548370	1.346545	city	6	1	1.576244	1.576244	0	1	0	0	CorrectCommission	0.575522	0.775687	1	0	2.570588e+01
258.868103	1.292890	mountain	4	0	0.000000	1.766689	1	0	0	0	CorrectOmission	1.229495	0.795445	1	0	2.476471e+01
260.154327	1.279573	city	6	1	1.776056	1.776056	0	1	0	0	CorrectCommission	1.261659	0.821412	0	0	2.382353e+01
261.453888	1.319578	city	7	0	0.000000	1.487375	0	0	0	1	OmissionError	0.270353	0.852199	0	0	2.288235e+01
262.793457	1.359568	city	10	1	1.188498	1.188498	0	1	0	0	CorrectCommission	0.755969	0.886000	0	0	2.194118e+01
264.132996	1.319470	city	7	0	0.000000	1.167273	0	0	0	1	OmissionError	0.828852	0.920579	0	0	21
265.432556	1.279647	city	2	0	0.000000	1.333221	0	0	0	1	OmissionError	0.259002	0.953384	0	0	2.005882e+01
266.718750	1.292771	city	3	0	0.000000	1.595858	0	0	0	1	OmissionError	0.642876	0.981717	0	0	1.911765e+01
268.005005	1.279738	city	9	0	0.000000	1.864705	0	0	0	1	OmissionError	1.566075	1.002981	0	0	1.817647e+01
269.297943	1.306120	city	8	1	2.049279	2.049279	0	1	0	0	CorrectCommission	2.199888	1.014959	0	0	1.723529e+01
270.624115	1.346250	city	6	1	2.059099	2.059099	0	1	0	0	CorrectCommission	2.233609	1.016078	0	0	1.629412e+01
271.970398	1.346319	city	10	0	0.000000	1.645594	0	0	0	1	OmissionError	0.813663	1.005635	0	0	1.535294e+01
273.296600	1.306047	city	9	1	1.210856	1.210856	0	1	0	0	CorrectCommission	0.679191	0.983918	0	0	1.441176e+01
274.602722	1.306237	city	4	1	1.156981	1.156981	0	1	0	0	CorrectCommission	0.864195	0.952141	0	0	1.347059e+01
275.902313	1.292907	city	7	1	1.166799	1.166799	0	1	0	0	CorrectCommission	0.830481	0.912328	0	0	1.252941e+01
277.248535	1.399551	city	6	1	1.099081	1.099081	0	1	0	0	CorrectCommission	1.063020	0.867067	0	0	1.158824e+01
278.594818	1.292993	city	8	1	1.000107	1.000107	0	1	0	0	CorrectCommission	1.402888	0.819288	0	0	1.064706e+01
279.907776	1.332964	city	4	1	1.165607	1.165607	0	1	0	0	CorrectCommission	0.834572	0.771948	1	0	9.705882e+00
281.227295	1.306078	city	3	1	1.313401	1.313401	0	1	0	0	CorrectCommission	0.327062	0.727764	1	0	8.764706e+00
282.540222	1.319753	city	8	1	1.392330	1.392330	0	1	0	0	CorrectCommission	0.056026	0.689004	1	0	7.823529e+00
283.873199	1.346191	city	10	1	1.300316	1.300316	0	1	0	0	CorrectCommission	0.371994	0.657288	1	0	6.882353e+00
285.186096	1.279604	city	5	1	1.484045	1.484045	0	1	0	0	CorrectCommission	0.258916	0.633530	1	0	5.941176e+00
285.825897	10.143195	break	0	0	0.000000	1.539429	0	0	0	0	ThoughtProbe	0.449103	0.617961	1	5	5
296.608948	1.279690	city	5	0	0.000000	1.551278	0	0	0	1	OmissionError	0.489790	0.610233	1	0	5.575000e+00
297.888580	1.279600	city	4	1	1.604399	1.604399	0	1	0	0	CorrectCommission	0.672202	0.609582	1	0	6.150000e+00
299.168091	1.279420	city	7	1	1.783600	1.783600	0	1	0	0	CorrectCommission	1.287566	0.615000	1	0	6.725000e+00
300.447662	1.279716	city	2	0	0.000000	1.674090	0	0	0	1	OmissionError	0.911518	0.625393	1	0	7.300000e+00
301.727234	1.279416	mountain	3	0	0.000000	1.450879	1	0	0	0	CorrectOmission	0.145028	0.639725	1	0	7.875000e+00
303.006805	1.279765	city	1	1	1.288976	1.288976	0	1	0	0	CorrectCommission	0.410934	0.657123	1	0	8.450000e+00
304.286499	1.279579	mountain	9	0	0.000000	1.363391	1	0	0	0	CorrectOmission	0.155399	0.676860	1	0	9.025000e+00
305.566010	1.279493	city	4	1	1.550731	1.550731	0	1	0	0	CorrectCommission	0.487911	0.698365	1	0	9.600000e+00
306.845612	1.279660	city	10	0	0.000000	1.727602	0	0	0	1	OmissionError	1.095274	0.721262	1	0	1.017500e+01
308.125214	1.279589	city	1	0	0.000000	1.814916	0	0	0	1	OmissionError	1.395104	0.745362	1	0	1.075000e+01
309.411469	1.292885	city	9	1	1.733584	1.733584	0	1	0	0	CorrectCommission	1.115814	0.770685	1	0	1.132500e+01
310.704285	1.292778	city	6	1	1.404515	1.404515	0	1	0	0	CorrectCommission	0.014182	0.797395	1	0	1.190000e+01
311.990479	1.279590	city	1	1	1.550959	1.550959	0	1	0	0	CorrectCommission	0.488694	0.825725	0	0	1.247500e+01
313.270111	1.279706	city	4	1	1.842395	1.842395	0	1	0	0	CorrectCommission	1.489464	0.855825	0	0	1.305000e+01
314.556427	1.292928	city	6	1	1.633880	1.633880	0	1	0	0	CorrectCommission	0.773441	0.887595	0	0	1.362500e+01
315.856018	1.306230	city	8	1	1.734893	1.734893	0	1	0	0	CorrectCommission	1.120310	0.920565	0	0	1.420000e+01
317.148926	1.279576	city	9	0	0.000000	1.469088	0	0	0	1	OmissionError	0.207557	0.953763	0	0	1.477500e+01
318.428497	1.279554	city	5	1	1.188086	1.188086	0	1	0	0	CorrectCommission	0.757382	0.985714	0	0	1.535000e+01
319.707977	1.279439	city	10	1	1.243506	1.243506	0	1	0	0	CorrectCommission	0.567074	1.014483	0	0	1.592500e+01
320.987549	1.279659	city	4	0	0.000000	0.903449	0	0	0	1	OmissionError	1.734804	1.037890	0	0	1.650000e+01
322.267090	1.279477	city	3	1	0.805319	0.805319	0	1	0	0	CorrectCommission	2.071774	1.053756	0	0	1.707500e+01
323.546631	1.279604	city	8	1	1.586521	1.586521	0	1	0	0	CorrectCommission	0.610813	1.060282	0	0	1.765000e+01
324.826294	1.279722	city	1	1	1.605059	1.605059	0	1	0	0	CorrectCommission	0.674469	1.056434	0	0	1.822500e+01
326.105988	1.279627	city	9	0	0.000000	1.119740	0	0	0	1	OmissionError	0.992077	1.042172	0	0	1.880000e+01
327.385468	1.279364	mountain	1	0	0.000000	0.605664	1	0	0	0	CorrectOmission	2.757376	1.018633	0	0	1.937500e+01
328.665039	1.279743	city	9	1	0.537927	0.537927	0	1	0	0	CorrectCommission	2.989979	0.988089	0	0	1.995000e+01
329.944702	1.279598	city	10	1	1.391628	1.391628	0	1	0	0	CorrectCommission	0.058437	0.953778	0	0	2.052500e+01
331.224213	1.279411	city	3	1	1.390809	1.390809	0	1	0	0	CorrectCommission	0.061248	0.919477	0	0	2.110000e+01
332.503693	1.279559	city	9	1	1.449460	1.449460	0	1	0	0	CorrectCommission	0.140156	0.888880	0	0	2.167500e+01
333.789948	1.292932	city	1	1	1.409931	1.409931	0	1	0	0	CorrectCommission	0.004417	0.865115	0	0	2.225000e+01
335.076263	1.279727	city	8	0	0.000000	1.401610	0	0	0	1	OmissionError	0.024159	0.850268	0	0	2.282500e+01
336.355957	1.279636	city	1	1	1.549173	1.549173	0	1	0	0	CorrectCommission	0.482562	0.845125	0	0	2.340000e+01
337.635468	1.279383	city	3	1	1.977299	1.977299	0	1	0	0	CorrectCommission	1.952714	0.849110	0	0	2.397500e+01
338.915009	1.279737	city	4	0	0.000000	1.820473	0	0	0	1	OmissionError	1.414186	0.860420	0	0	2.455000e+01
340.194580	1.279396	city	9	1	1.461249	1.461249	0	1	0	0	CorrectCommission	0.180639	0.876396	0	0	2.512500e+01
341.474091	1.279595	city	6	1	1.282182	1.282182	0	1	0	0	CorrectCommission	0.434264	0.893928	0	0	2.570000e+01
342.753662	1.279560	city	2	1	1.284262	1.284262	0	1	0	0	CorrectCommission	0.427121	0.909897	0	0	2.627500e+01
344.033295	1.279745	city	8	1	1.832396	1.832396	0	1	0	0	CorrectCommission	1.455127	0.921627	0	0	2.685000e+01
345.319641	1.292909	city	1	1	1.988371	1.988371	0	1	0	0	CorrectCommission	1.990734	0.927222	0	0	2.742500e+01
345.966095	8.317195	break	0	0	0.000000	1.921589	0	0	0	0	ThoughtProbe	1.761411	0.925755	0	28	28
354.923035	1.279510	city	4	1	1.765553	1.765553	0	1	0	0	CorrectCommission	1.225595	0.917315	0	0	2.804348e+01
356.202576	1.279550	city	6	0	0.000000	1.653764	0	0	0	1	OmissionError	0.841721	0.902844	0	0	2.808696e+01
357.482147	1.279605	city	5	1	1.516576	1.516576	0	1	0	0	CorrectCommission	0.370625	0.883849	0	0	2.813043e+01
358.761810	1.279716	city	3	1	1.284339	1.284339	0	1	0	0	CorrectCommission	0.426858	0.862056	0	0	2.817391e+01
360.048126	1.292906	city	1	1	1.303324	1.303324	0	1	0	0	CorrectCommission	0.361664	0.839047	0	0	2.821739e+01
361.334351	1.279581	city	10	1	1.071820	1.071820	0	1	0	0	CorrectCommission	1.156631	0.816008	0	0	2.826087e+01
362.613953	1.279603	mountain	7	0	0.000000	1.235543	1	0	0	0	CorrectOmission	0.594417	0.793526	1	0	2.830435e+01
363.893463	1.279419	city	1	1	1.548369	1.548369	0	1	0	0	CorrectCommission	0.479802	0.771654	1	0	2.834783e+01
365.173035	1.279734	city	6	1	1.764172	1.764172	0	1	0	0	CorrectCommission	1.220853	0.750097	1	0	2.839130e+01
366.452698	1.279569	city	2	0	0.000000	1.505097	0	0	0	1	OmissionError	0.331210	0.728390	1	0	2.843478e+01
367.732178	1.279411	city	7	1	1.121704	1.121704	0	1	0	0	CorrectCommission	0.985333	0.706231	1	0	2.847826e+01
369.011749	1.279739	city	1	1	0.964552	0.964552	0	1	0	0	CorrectCommission	1.524980	0.683630	1	0	2.852174e+01
370.291412	1.279579	city	5	1	1.182957	1.182957	0	1	0	0	CorrectCommission	0.774995	0.661073	1	0	2.856522e+01
371.571014	1.279607	city	2	1	1.550800	1.550800	0	1	0	0	CorrectCommission	0.488149	0.639522	1	0	2.860870e+01
372.850525	1.279415	city	6	1	1.604076	1.604076	0	1	0	0	CorrectCommission	0.671095	0.620230	1	0	2.865217e+01
374.130096	1.279741	city	5	1	1.441793	1.441793	0	1	0	0	CorrectCommission	0.113829	0.604555	1	0	2.869565e+01
375.409760	1.279597	city	4	1	1.444080	1.444080	0	1	0	0	CorrectCommission	0.121680	0.593684	1	0	2.873913e+01
376.689270	1.279405	city	3	1	1.564830	1.564830	0	1	0	0	CorrectCommission	0.536328	0.588351	1	0	2.878261e+01
377.968842	1.279736	mountain	2	0	0.000000	1.502048	1	0	0	0	CorrectOmission	0.320740	0.588709	1	0	2.882609e+01
379.248474	1.279556	city	6	1	1.349948	1.349948	0	1	0	0	CorrectCommission	0.201561	0.594242	1	0	2.886957e+01
380.534729	1.292908	mountain	2	0	0.000000	1.202742	1	0	0	0	CorrectOmission	0.707055	0.603890	1	0	2.891304e+01
381.820862	1.279413	city	8	1	1.177425	1.177425	0	1	0	0	CorrectCommission	0.793992	0.616224	1	0	2.895652e+01
383.100372	1.279604	city	7	1	1.390990	1.390990	0	1	0	0	CorrectCommission	0.060625	0.629772	1	0	29
384.379974	1.279553	city	3	1	1.130818	1.130818	0	1	0	0	CorrectCommission	0.954036	0.643332	1	0	2.904348e+01
385.659637	1.279768	city	6	1	1.981049	1.981049	0	1	0	0	CorrectCommission	1.965590	0.656169	1	0	2.908696e+01
386.939301	1.279574	city	5	0	0.000000	1.802983	0	0	0	1	OmissionError	1.354127	0.668165	1	0	2.913043e+01
388.218872	1.279579	city	8	1	1.355474	1.355474	0	1	0	0	CorrectCommission	0.182584	0.679862	1	0	2.917391e+01
389.498444	1.279557	city	7	1	1.397375	1.397375	0	1	0	0	CorrectCommission	0.038701	0.692277	1	0	2.921739e+01
390.778015	1.279581	city	4	1	1.391624	1.391624	0	1	0	0	CorrectCommission	0.058450	0.706665	1	0	2.926087e+01
392.057526	1.279425	city	6	1	1.196333	1.196333	0	1	0	0	CorrectCommission	0.729061	0.724267	1	0	2.930435e+01
393.337036	1.279603	city	8	1	1.231006	1.231006	0	1	0	0	CorrectCommission	0.610000	0.746023	1	0	2.934783e+01
394.616699	1.279721	city	1	1	1.071052	1.071052	0	1	0	0	CorrectCommission	1.159270	0.772424	1	0	2.939130e+01
395.896332	1.279567	city	2	1	1.241133	1.241133	0	1	0	0	CorrectCommission	0.575224	0.803339	0	0	2.943478e+01
397.175903	1.279606	city	10	1	1.288397	1.288397	0	1	0	0	CorrectCommission	0.412921	0.838059	0	0	2.947826e+01
398.455444	1.279462	city	4	1	1.818918	1.818918	0	1	0	0	CorrectCommission	1.408844	0.875305	0	0	2.952174e+01
399.734955	1.279522	city	8	0	0.000000	1.523778	0	0	0	1	OmissionError	0.395358	0.913374	0	0	2.956522e+01
401.014557	1.279726	mountain	4	1	1.299109	1.299109	0	0	1	0	CommissionError	0.376140	0.950334	0	0	2.960870e+01
402.294220	1.279602	city	3	1	2.041038	2.041038	0	1	0	0	CorrectCommission	2.171589	0.984200	0	0	2.965217e+01
403.573822	1.279561	city	5	1	1.070844	1.070844	0	1	0	0	CorrectCommission	1.159982	1.013085	0	0	2.969565e+01
404.853302	1.279408	city	7	0	0.000000	0.939372	0	0	0	1	OmissionError	1.611446	1.035451	0	0	2.973913e+01
406.132874	1.279738	city	3	1	1.231083	1.231083	0	1	0	0	CorrectCommission	0.609733	1.050156	0	0	2.978261e+01
407.412537	1.279586	city	7	0	0.000000	1.530438	0	0	0	1	OmissionError	0.418227	1.056624	0	0	2.982609e+01
408.692139	1.279598	city	6	0	0.000000	1.780384	0	0	0	1	OmissionError	1.276524	1.054835	0	0	2.986957e+01
409.971619	1.279418	city	7	1	1.923872	1.923872	0	1	0	0	CorrectCommission	1.769248	1.045299	0	0	2.991304e+01
411.251221	1.279746	city	4	1	1.903848	1.903848	0	1	0	0	CorrectCommission	1.700489	1.029045	0	0	2.995652e+01
411.891083	12.529119	break	0	1	0.911000	0.911000	0	0	0	0	ThoughtProbe	1.708874	1.007484	0	30	30
425.060028	1.279657	city	2	1	1.657531	1.657531	0	1	0	0	CorrectCommission	0.854657	0.982191	0	0	30
426.339661	1.279596	city	7	1	1.405863	1.405863	0	1	0	0	CorrectCommission	0.009554	0.954740	0	0	30
427.619263	1.279581	mountain	5	0	0.000000	1.453357	1	0	0	0	CorrectOmission	0.153537	0.926499	0	0	30
428.898743	1.279413	city	8	1	1.614277	1.614277	0	1	0	0	CorrectCommission	0.706123	0.898450	0	0	30
430.178314	1.279738	city	4	1	1.702885	1.702885	0	1	0	0	CorrectCommission	1.010398	0.871141	0	0	30
431.464569	1.292742	city	8	0	0.000000	1.194700	0	0	0	1	OmissionError	0.734672	0.844723	0	0	30
432.750732	1.279584	city	9	1	0.802755	0.802755	0	1	0	0	CorrectCommission	2.080581	0.819074	0	0	30
434.030304	1.279580	mountain	7	0	0.000000	1.240084	1	0	0	0	CorrectOmission	0.578826	0.793888	1	0	30
435.309967	1.279720	city	2	1	1.710858	1.710858	0	1	0	0	CorrectCommission	1.037776	0.768916	1	0	30
436.589539	1.279422	city	6	1	1.419246	1.419246	0	1	0	0	CorrectCommission	0.036403	0.743979	1	0	30
437.869110	1.279733	city	1	1	1.231028	1.231028	0	1	0	0	CorrectCommission	0.609924	0.719056	1	0	30
439.148773	1.279605	city	6	1	1.657432	1.657432	0	1	0	0	CorrectCommission	0.854314	0.694244	1	0	30
440.428345	1.279547	mountain	2	0	0.000000	1.686530	1	0	0	0	CorrectOmission	0.954236	0.669754	1	0	30
441.707886	1.279494	city	9	0	0.000000	1.491511	0	0	0	1	OmissionError	0.284556	0.645802	1	0	30
442.987457	1.279691	city	8	1	1.245565	1.245565	0	1	0	0	CorrectCommission	0.560006	0.622646	1	0	30
444.267090	1.279557	city	3	1	1.121879	1.121879	0	1	0	0	CorrectCommission	0.984733	0.600443	1	0	30
445.546661	1.279583	city	2	1	1.316433	1.316433	0	1	0	0	CorrectCommission	0.316649	0.579330	1	0	30
446.826172	1.279411	city	4	1	1.388729	1.388729	0	1	0	0	CorrectCommission	0.068390	0.559414	1	0	30
448.105743	1.279750	city	10	1	1.086700	1.086700	0	1	0	0	CorrectCommission	1.105535	0.540796	1	0	30
449.385406	1.279595	city	4	1	1.604064	1.604064	0	1	0	0	CorrectCommission	0.671054	0.523611	1	0	30
450.671661	1.292887	city	6	1	1.508240	1.508240	0	1	0	0	CorrectCommission	0.342001	0.508127	1	0	30
451.957825	1.279437	city	5	1	1.497353	1.497353	0	1	0	0	CorrectCommission	0.304615	0.494752	1	0	30
453.237335	1.279580	city	10	1	1.497621	1.497621	0	1	0	0	CorrectCommission	0.305538	0.484065	1	0	30
454.516968	1.279738	city	4	1	1.548416	1.548416	0	1	0	0	CorrectCommission	0.479964	0.476790	1	0	30
455.796570	1.279423	city	5	1	1.604063	1.604063	0	1	0	0	CorrectCommission	0.671050	0.473746	1	0	30
457.076141	1.279722	mountain	4	0	0.000000	1.601403	1	0	0	0	CorrectOmission	0.661917	0.475720	1	0	30
458.355713	1.279428	city	3	1	1.543247	1.543247	0	1	0	0	CorrectCommission	0.462214	0.483367	1	0	30
459.641937	1.293057	city	5	0	0.000000	1.432405	0	0	0	1	OmissionError	0.081590	0.497075	1	0	30
460.928284	1.279578	city	10	1	1.343384	1.343384	0	1	0	0	CorrectCommission	0.224103	0.516797	1	0	30
462.214417	1.292742	city	3	1	1.350690	1.350690	0	1	0	0	CorrectCommission	0.199012	0.542022	1	0	30
463.500671	1.279741	city	5	1	1.452037	1.452037	0	1	0	0	CorrectCommission	0.149005	0.571735	1	0	30
464.780243	1.279417	city	3	1	1.243634	1.243634	0	1	0	0	CorrectCommission	0.566636	0.604505	1	0	30
466.059753	1.279578	city	5	1	1.287531	1.287531	0	1	0	0	CorrectCommission	0.415896	0.638607	1	0	30
467.339325	1.279602	city	3	1	1.956628	1.956628	0	1	0	0	CorrectCommission	1.881733	0.672270	1	0	30
468.625580	1.292887	city	1	0	0.000000	1.532612	0	0	0	1	OmissionError	0.425692	0.703829	1	0	30
469.918518	1.292963	city	3	1	0.976540	0.976540	0	1	0	0	CorrectCommission	1.483815	0.731987	1	0	30
471.211426	1.292855	city	6	1	1.249472	1.249472	0	1	0	0	CorrectCommission	0.546586	0.755855	1	0	30
472.497650	1.279625	city	4	1	1.230950	1.230950	0	1	0	0	CorrectCommission	0.610191	0.775059	1	0	30
473.777313	1.279712	city	3	1	1.106509	1.106509	0	1	0	0	CorrectCommission	1.037510	0.789690	1	0	30
475.056976	1.279583	city	2	1	1.231787	1.231787	0	1	0	0	CorrectCommission	0.607318	0.800239	0	0	30
476.336456	1.279397	city	8	1	1.230862	1.230862	0	1	0	0	CorrectCommission	0.610494	0.807480	0	0	30
477.616028	1.279740	city	1	1	1.175138	1.175138	0	1	0	0	CorrectCommission	0.801845	0.812394	0	0	30
478.895691	1.279597	city	8	1	1.208893	1.208893	0	1	0	0	CorrectCommission	0.685932	0.816056	0	0	30
480.175232	1.279442	city	1	1	0.961822	0.961822	0	1	0	0	CorrectCommission	1.534356	0.819576	0	0	30
481.454712	1.279558	city	2	1	1.142917	1.142917	0	1	0	0	CorrectCommission	0.912489	0.824005	0	0	30
485.340179	6.491340	break	0	0	0.000000	1.153195	0	0	0	0	ThoughtProbe	0.877197	0.830313	0	30	30
489.225555	1.279439	city	5	1	1.175074	1.175074	0	1	0	0	CorrectCommission	0.802065	0.839233	0	0	2.994118e+01
490.505066	1.279573	city	1	1	1.390975	1.390975	0	1	0	0	CorrectCommission	0.060678	0.851237	0	0	2.988235e+01
491.791443	1.293158	city	9	1	1.298592	1.298592	0	1	0	0	CorrectCommission	0.377915	0.866477	0	0	2.982353e+01
493.077759	1.279497	city	4	1	1.122882	1.122882	0	1	0	0	CorrectCommission	0.981288	0.884748	0	0	2.976471e+01
494.357239	1.279451	city	2	1	1.233711	1.233711	0	1	0	0	CorrectCommission	0.600709	0.905537	0	0	2.970588e+01
495.636749	1.279620	city	4	0	0.000000	1.642175	0	0	0	1	OmissionError	0.801925	0.928176	0	0	2.964706e+01
496.916321	1.279495	mountain	3	0	0.000000	2.019361	1	0	0	0	CorrectOmission	2.097152	0.951938	0	0	2.958824e+01
498.195862	1.279587	city	4	1	2.036355	2.036355	0	1	0	0	CorrectCommission	2.155509	0.976096	0	0	2.952941e+01
499.475525	1.279714	city	2	1	1.364245	1.364245	0	1	0	0	CorrectCommission	0.152466	1.000084	0	0	2.947059e+01
500.755096	1.279431	mountain	2	1	1.230887	1.230887	0	0	1	0	CommissionError	0.610408	1.023506	0	0	2.941176e+01
502.034668	1.279756	city	2	1	1.395527	1.395527	0	1	0	0	CorrectCommission	0.045045	1.046090	0	0	2.935294e+01
503.327576	1.306047	city	7	0	0.000000	1.147643	0	0	0	1	OmissionError	0.896260	1.067682	0	0	2.929412e+01
504.620392	1.279584	city	8	1	0.887471	0.887471	0	1	0	0	CorrectCommission	1.789671	1.088210	0	0	2.923529e+01
505.899963	1.279572	city	6	1	1.015247	1.015247	0	1	0	0	CorrectCommission	1.350898	1.107678	0	0	2.917647e+01
507.219604	1.359709	city	10	1	0.783555	0.783555	0	1	0	0	CorrectCommission	2.146512	1.126208	0	0	2.911765e+01
508.572571	1.346232	city	3	1	1.074104	1.074104	0	1	0	0	CorrectCommission	1.148790	1.143973	0	0	2.905882e+01
509.905487	1.319586	city	6	1	1.243073	1.243073	0	1	0	0	CorrectCommission	0.568560	1.161184	0	0	29
511.211731	1.292892	city	9	1	1.221693	1.221693	0	1	0	0	CorrectCommission	0.641977	1.177980	0	0	2.894118e+01
512.537842	1.359385	city	5	1	1.044175	1.044175	0	1	0	0	CorrectCommission	1.251560	1.194359	0	0	2.888235e+01
513.864075	1.293074	city	4	1	1.525723	1.525723	0	1	0	0	CorrectCommission	0.402037	1.210110	0	0	2.882353e+01
515.163696	1.306107	city	5	0	0.000000	1.883466	0	0	0	1	OmissionError	1.630499	1.224860	0	0	2.876471e+01
516.463196	1.292929	city	10	1	2.031478	2.031478	0	1	0	0	CorrectCommission	2.138761	1.238019	0	0	2.870588e+01
517.776001	1.332674	city	4	1	1.883833	1.883833	0	1	0	0	CorrectCommission	1.631760	1.248857	0	0	2.864706e+01
519.095581	1.306500	city	2	1	1.610710	1.610710	0	1	0	0	CorrectCommission	0.693877	1.256631	0	0	2.858824e+01
520.402039	1.306328	city	1	0	0.000000	1.055744	0	0	0	1	OmissionError	1.211836	1.260616	0	0	2.852941e+01
521.714966	1.319562	city	6	1	0.825774	0.825774	0	1	0	0	CorrectCommission	2.001535	1.260106	0	0	2.847059e+01
523.021179	1.292886	city	10	1	1.527640	1.527640	0	1	0	0	CorrectCommission	0.408619	1.254513	0	0	2.841176e+01
524.340698	1.346181	city	8	1	1.147572	1.147572	0	1	0	0	CorrectCommission	0.896505	1.243480	0	0	2.835294e+01
525.673584	1.319607	city	6	1	0.951417	0.951417	0	1	0	0	CorrectCommission	1.570084	1.226847	0	0	2.829412e+01
527.019775	1.372719	city	2	1	0.763336	0.763336	0	1	0	0	CorrectCommission	2.215941	1.204729	0	0	2.823529e+01
528.346008	1.279744	city	5	0	0.000000	0.886366	0	0	0	1	OmissionError	1.793464	1.177621	0	0	2.817647e+01
529.658997	1.346259	city	8	1	1.164953	1.164953	0	1	0	0	CorrectCommission	0.836820	1.146376	0	0	2.811765e+01
530.978577	1.292873	city	4	0	0.000000	1.443539	0	0	0	1	OmissionError	0.119823	1.112186	0	0	2.805882e+01
535.283813	7.317555	break	0	0	0.000000	1.722125	0	0	0	0	ThoughtProbe	1.076467	1.076467	0	28	28
