onset	duration	trial_type	image_type	Press	ReactionTime	ReactionTime_Interpolated	CorrectOmission	CorrectCommission	CommissionError	OmissionError	response_type	nonsmoothVarianceTimeCourse	VarianceTimeCourse	In_the_Zone	ThoughtProbe	ThoughtProbe_Interpolated
0.653088	1.279705	city	1	1	1.551521	1.551521	0	1	0	0	CorrectCommission	2.282382	2.282382	0	0	64
1.946072	1.306264	mountain	5	0	0.000000	1.382650	1	0	0	0	CorrectOmission	1.224555	2.010925	0	0	64
3.239009	1.279609	mountain	8	0	0.000000	1.247915	1	0	0	0	CorrectOmission	0.380560	1.750368	0	0	64
4.518586	1.279546	city	4	1	1.181453	1.181453	0	1	0	0	CorrectCommission	0.035770	1.510446	0	0	64
5.804731	1.292745	city	7	1	1.217398	1.217398	0	1	0	0	CorrectCommission	0.189396	1.298828	0	0	64
7.090882	1.279555	city	10	1	1.234936	1.234936	0	1	0	0	CorrectCommission	0.299257	1.120459	0	0	64
8.377203	1.293087	city	5	1	1.169573	1.169573	0	1	0	0	CorrectCommission	0.110183	0.977342	0	0	64
9.663527	1.279563	city	3	1	1.299917	1.299917	0	1	0	0	CorrectCommission	0.706304	0.868711	0	0	64
10.943102	1.279585	city	2	1	1.124911	1.124911	0	1	0	0	CorrectCommission	0.389953	0.791516	1	0	64
12.229388	1.292987	city	9	1	1.266175	1.266175	0	1	0	0	CorrectCommission	0.494943	0.741121	1	0	64
13.522300	1.292837	city	6	1	0.983147	0.983147	0	1	0	0	CorrectCommission	1.277979	0.712090	1	0	64
14.808371	1.279303	city	7	1	1.068248	1.068248	0	1	0	0	CorrectCommission	0.744899	0.698895	1	0	64
16.087944	1.279845	city	8	1	1.078377	1.078377	0	1	0	0	CorrectCommission	0.681448	0.696553	1	0	64
17.367626	1.279519	city	4	1	1.070247	1.070247	0	1	0	0	CorrectCommission	0.732372	0.700907	1	0	64
18.647123	1.279476	city	9	1	1.070360	1.070360	0	1	0	0	CorrectCommission	0.731667	0.708885	1	0	64
19.926647	1.279573	city	1	1	1.018524	1.018524	0	1	0	0	CorrectCommission	1.056372	0.718452	1	0	64
21.212976	1.293082	city	6	1	1.141913	1.141913	0	1	0	0	CorrectCommission	0.283449	0.728447	1	0	64
22.499302	1.279569	city	10	1	1.022161	1.022161	0	1	0	0	CorrectCommission	1.033592	0.738446	1	0	64
23.778883	1.279595	city	6	1	1.229791	1.229791	0	1	0	0	CorrectCommission	0.267025	0.748439	1	0	64
25.058460	1.279557	city	3	1	1.231097	1.231097	0	1	0	0	CorrectCommission	0.275209	0.758705	1	0	64
26.337952	1.279424	mountain	8	0	0.000000	1.380668	1	0	0	0	CorrectOmission	1.212136	0.769623	1	0	64
27.624115	1.292906	city	7	1	1.437239	1.437239	0	1	0	0	CorrectCommission	1.566503	0.781553	1	0	64
28.917103	1.293069	city	8	1	1.159547	1.159547	0	1	0	0	CorrectCommission	0.172990	0.794768	1	0	64
30.210102	1.292929	city	6	1	0.968845	0.968845	0	1	0	0	CorrectCommission	1.367568	0.809429	1	0	64
31.496361	1.279586	city	10	1	1.134849	1.134849	0	1	0	0	CorrectCommission	0.327702	0.825404	0	0	64
32.782509	1.292716	city	4	1	1.314129	1.314129	0	1	0	0	CorrectCommission	0.795330	0.842338	0	0	64
34.088657	1.319579	city	6	1	1.130594	1.130594	0	1	0	0	CorrectCommission	0.354351	0.859518	0	0	64
35.388329	1.279759	city	9	1	0.968059	0.968059	0	1	0	0	CorrectCommission	1.372490	0.875967	0	0	64
36.674656	1.292896	city	4	1	1.153647	1.153647	0	1	0	0	CorrectCommission	0.209947	0.890476	0	0	64
37.987556	1.332906	city	9	1	1.061886	1.061886	0	1	0	0	CorrectCommission	0.784747	0.901819	0	0	64
39.320450	1.332884	city	5	1	0.949784	0.949784	0	1	0	0	CorrectCommission	1.486969	0.908896	0	0	64
40.626686	1.279588	city	2	1	0.858084	0.858084	0	1	0	0	CorrectCommission	2.061388	0.910914	0	0	64
41.906265	1.279574	city	4	1	1.207016	1.207016	0	1	0	0	CorrectCommission	0.124363	0.907576	0	0	64
43.185837	1.279564	mountain	10	1	1.479970	1.479970	0	0	1	0	CommissionError	1.834176	0.899187	0	0	64
44.478745	1.306250	city	7	1	1.372762	1.372762	0	1	0	0	CorrectCommission	1.162617	0.886526	0	0	64
45.784912	1.306090	city	2	1	1.157858	1.157858	0	1	0	0	CorrectCommission	0.183567	0.870800	0	0	64
47.091145	1.306377	city	9	1	0.979829	0.979829	0	1	0	0	CorrectCommission	1.298763	0.853408	0	0	64
48.390800	1.292933	city	7	1	1.149165	1.149165	0	1	0	0	CorrectCommission	0.238021	0.835629	0	0	64
49.697060	1.319583	city	2	1	1.221668	1.221668	0	1	0	0	CorrectCommission	0.216147	0.818536	0	0	64
51.009907	1.306113	city	8	1	1.271661	1.271661	0	1	0	0	CorrectCommission	0.529305	0.802766	1	0	64
52.302803	1.279678	city	3	1	1.370511	1.370511	0	1	0	0	CorrectCommission	1.148512	0.788538	1	0	64
53.602459	1.319634	city	10	1	1.301871	1.301871	0	1	0	0	CorrectCommission	0.718542	0.775706	1	0	64
54.902016	1.279481	city	4	1	1.418523	1.418523	0	1	0	0	CorrectCommission	1.449264	0.763879	1	0	64
56.194889	1.306267	city	6	1	1.287110	1.287110	0	1	0	0	CorrectCommission	0.626082	0.752554	1	0	64
57.487720	1.279392	city	5	1	1.368730	1.368730	0	1	0	0	CorrectCommission	1.137358	0.741338	1	0	64
60.866581	5.478335	break	0	0	0.000000	1.230519	0	0	0	0	ThoughtProbe	0.271589	0.729931	1	64	64
64.245552	1.279602	city	8	1	1.082411	1.082411	0	1	0	0	CorrectCommission	0.656175	0.718245	1	0	6.438235e+01
65.551720	1.332738	city	5	1	1.134341	1.134341	0	1	0	0	CorrectCommission	0.330881	0.706328	1	0	6.476471e+01
66.871292	1.306397	city	2	1	1.047431	1.047431	0	1	0	0	CorrectCommission	0.875297	0.694336	1	0	6.514706e+01
68.177612	1.306253	city	4	1	1.436911	1.436911	0	1	0	0	CorrectCommission	1.564449	0.682427	1	0	6.552941e+01
69.470436	1.279394	city	1	1	1.194456	1.194456	0	1	0	0	CorrectCommission	0.045686	0.670727	1	0	6.591176e+01
70.756592	1.292911	city	3	1	1.263601	1.263601	0	1	0	0	CorrectCommission	0.478818	0.659313	1	0	6.629412e+01
72.042923	1.279754	city	6	1	1.180655	1.180655	0	1	0	0	CorrectCommission	0.040765	0.648171	1	0	6.667647e+01
73.335907	1.306220	mountain	6	0	0.000000	1.027566	1	0	0	0	CorrectOmission	0.999735	0.637208	1	0	6.705882e+01
74.628731	1.279424	city	1	1	1.023076	1.023076	0	1	0	0	CorrectCommission	1.027860	0.626326	1	0	6.744118e+01
75.921562	1.306234	city	4	1	1.385929	1.385929	0	1	0	0	CorrectCommission	1.245091	0.615472	1	0	6.782353e+01
77.241135	1.332912	city	3	1	1.165798	1.165798	0	1	0	0	CorrectCommission	0.133835	0.604695	1	0	6.820588e+01
78.554123	1.293067	city	5	1	1.137979	1.137979	0	1	0	0	CorrectCommission	0.308096	0.594244	1	0	6.858824e+01
79.860390	1.319462	city	9	1	1.146833	1.146833	0	1	0	0	CorrectCommission	0.252634	0.584466	1	0	6.897059e+01
81.179878	1.319519	mountain	3	0	0.000000	1.310976	1	0	0	0	CorrectOmission	0.775581	0.575864	1	0	6.935294e+01
82.479439	1.279602	city	4	1	1.400887	1.400887	0	1	0	0	CorrectCommission	1.338791	0.569042	1	0	6.973529e+01
83.785767	1.333048	city	7	1	1.187041	1.187041	0	1	0	0	CorrectCommission	0.000761	0.564633	1	0	7.011765e+01
85.098663	1.292756	city	3	1	1.143971	1.143971	0	1	0	0	CorrectCommission	0.270560	0.563235	1	0	7.050000e+01
86.398224	1.306367	city	6	1	1.102575	1.102575	0	1	0	0	CorrectCommission	0.529869	0.565323	1	0	7.088235e+01
87.711197	1.319571	city	8	1	1.062201	1.062201	0	1	0	0	CorrectCommission	0.782774	0.571189	1	0	7.126471e+01
89.010773	1.279577	city	2	1	1.157718	1.157718	0	1	0	0	CorrectCommission	0.184446	0.580926	1	0	7.164706e+01
90.310257	1.319399	city	4	1	1.358532	1.358532	0	1	0	0	CorrectCommission	1.073479	0.594397	1	0	7.202941e+01
91.609818	1.279724	city	6	1	1.204237	1.204237	0	1	0	0	CorrectCommission	0.106953	0.611202	1	0	7.241176e+01
92.902779	1.306190	city	2	1	1.262780	1.262780	0	1	0	0	CorrectCommission	0.473674	0.630749	1	0	7.279412e+01
94.208946	1.306144	city	10	1	1.213170	1.213170	0	1	0	0	CorrectCommission	0.162912	0.652284	1	0	7.317647e+01
95.541885	1.359737	city	9	1	1.153833	1.153833	0	1	0	0	CorrectCommission	0.208784	0.675003	1	0	7.355882e+01
96.874847	1.306193	city	5	1	0.791541	0.791541	0	1	0	0	CorrectCommission	2.478224	0.698083	1	0	7.394118e+01
98.174400	1.292907	city	2	1	0.997770	0.997770	0	1	0	0	CorrectCommission	1.186380	0.720763	1	0	7.432353e+01
99.460648	1.279584	city	6	1	1.216648	1.216648	0	1	0	0	CorrectCommission	0.184700	0.742410	1	0	7.470588e+01
100.746880	1.292878	city	3	1	1.247990	1.247990	0	1	0	0	CorrectCommission	0.381026	0.762488	1	0	7.508824e+01
102.073021	1.359414	city	7	1	1.221232	1.221232	0	1	0	0	CorrectCommission	0.213412	0.780501	1	0	7.547059e+01
103.412590	1.319715	city	3	1	1.002826	1.002826	0	1	0	0	CorrectCommission	1.154706	0.796019	1	0	7.585294e+01
104.718910	1.292933	city	2	1	1.100495	1.100495	0	1	0	0	CorrectCommission	0.542895	0.808677	1	0	7.623529e+01
106.018494	1.306235	city	7	1	1.230954	1.230954	0	1	0	0	CorrectCommission	0.274311	0.818243	0	0	7.661765e+01
110.317032	7.290841	break	0	0	0.000000	1.495529	0	0	0	0	ThoughtProbe	1.931643	0.824671	0	77	77
114.615616	1.306324	city	3	1	1.569163	1.569163	0	1	0	0	CorrectCommission	2.392890	0.828109	0	0	7.656522e+01
115.941902	1.346248	city	6	1	1.126794	1.126794	0	1	0	0	CorrectCommission	0.378158	0.828966	0	0	7.613043e+01
117.261467	1.292879	city	5	1	1.220150	1.220150	0	1	0	0	CorrectCommission	0.206635	0.827869	0	0	7.569565e+01
118.560951	1.306101	city	2	1	1.205243	1.205243	0	1	0	0	CorrectCommission	0.113253	0.825540	0	0	7.526087e+01
119.853798	1.279587	city	4	1	1.282622	1.282622	0	1	0	0	CorrectCommission	0.597964	0.822625	0	0	7.482609e+01
121.153374	1.319566	city	5	1	1.394353	1.394353	0	1	0	0	CorrectCommission	1.297862	0.819616	0	0	7.439130e+01
122.452942	1.279575	mountain	8	0	0.000000	1.363316	1	0	0	0	CorrectOmission	1.103444	0.816728	0	0	7.395652e+01
123.759262	1.333055	city	2	1	1.239668	1.239668	0	1	0	0	CorrectCommission	0.328897	0.813949	1	0	7.352174e+01
125.072235	1.292895	city	7	1	1.073565	1.073565	0	1	0	0	CorrectCommission	0.711591	0.811037	1	0	7.308696e+01
126.365128	1.292897	city	6	1	0.978230	0.978230	0	1	0	0	CorrectCommission	1.308777	0.807604	1	0	7.265217e+01
127.671280	1.319403	mountain	9	1	1.063467	1.063467	0	0	1	0	CommissionError	0.774848	0.803227	1	0	7.221739e+01
128.977448	1.292923	city	2	1	1.407499	1.407499	0	1	0	0	CorrectCommission	1.380213	0.797613	1	0	7.178261e+01
130.303741	1.359683	city	5	1	1.209547	1.209547	0	1	0	0	CorrectCommission	0.140217	0.790626	1	0	7.134783e+01
131.643387	1.319606	city	10	1	1.117015	1.117015	0	1	0	0	CorrectCommission	0.439415	0.782420	1	0	7.091304e+01
132.949585	1.292787	city	9	1	1.056540	1.056540	0	1	0	0	CorrectCommission	0.818235	0.773439	1	0	7.047826e+01
134.235825	1.279684	city	7	1	1.360274	1.360274	0	1	0	0	CorrectCommission	1.084390	0.764434	1	0	7.004348e+01
135.515442	1.279551	city	2	1	1.500917	1.500917	0	1	0	0	CorrectCommission	1.965394	0.756387	1	0	6.960870e+01
136.828354	1.346270	city	1	1	1.184268	1.184268	0	1	0	0	CorrectCommission	0.018133	0.750363	1	0	6.917391e+01
138.167862	1.332760	mountain	10	0	0.000000	1.105568	1	0	0	0	CorrectOmission	0.511120	0.747413	1	0	6.873913e+01
139.474045	1.279596	city	7	1	1.127944	1.127944	0	1	0	0	CorrectCommission	0.370952	0.748289	1	0	6.830435e+01
140.773666	1.319657	city	1	1	1.114524	1.114524	0	1	0	0	CorrectCommission	0.455018	0.753348	1	0	6.786957e+01
142.106613	1.346226	city	9	1	1.211554	1.211554	0	1	0	0	CorrectCommission	0.152789	0.762389	1	0	6.743478e+01
143.432755	1.306071	city	7	1	1.446660	1.446660	0	1	0	0	CorrectCommission	1.625521	0.774617	1	0	67
144.752243	1.332897	city	10	1	1.213500	1.213500	0	1	0	0	CorrectCommission	0.164978	0.788716	1	0	6.656522e+01
146.071899	1.306420	city	5	1	1.002759	1.002759	0	1	0	0	CorrectCommission	1.155125	0.803054	1	0	6.613043e+01
147.398239	1.346246	city	7	1	1.275617	1.275617	0	1	0	0	CorrectCommission	0.554084	0.815799	0	0	6.569565e+01
148.731125	1.319525	city	5	1	1.016484	1.016484	0	1	0	0	CorrectCommission	1.069152	0.825258	0	0	6.526087e+01
150.050583	1.319402	city	4	1	0.988384	0.988384	0	1	0	0	CorrectCommission	1.245176	0.830056	0	0	6.482609e+01
151.356827	1.293072	city	9	1	1.002061	1.002061	0	1	0	0	CorrectCommission	1.159500	0.829376	0	0	6.439130e+01
152.656479	1.306236	city	10	1	1.047396	1.047396	0	1	0	0	CorrectCommission	0.875518	0.823033	0	0	6.395652e+01
153.962723	1.306252	city	5	1	0.941420	0.941420	0	1	0	0	CorrectCommission	1.539363	0.811478	1	0	6.352174e+01
155.255630	1.279560	city	4	1	1.194319	1.194319	0	1	0	0	CorrectCommission	0.044829	0.795671	1	0	6.308696e+01
156.575195	1.359584	city	7	1	1.021558	1.021558	0	1	0	0	CorrectCommission	1.037370	0.776989	1	0	6.265217e+01
157.908081	1.306176	city	4	1	1.286519	1.286519	0	1	0	0	CorrectCommission	0.622376	0.756861	1	0	6.221739e+01
159.220978	1.319631	city	10	1	1.102183	1.102183	0	1	0	0	CorrectCommission	0.532326	0.736666	1	0	6.178261e+01
160.533890	1.306183	city	4	1	1.034053	1.034053	0	1	0	0	CorrectCommission	0.959099	0.717497	1	0	6.134783e+01
161.833389	1.292819	mountain	6	0	0.000000	1.167180	1	0	0	0	CorrectOmission	0.125177	0.700040	1	0	6.091304e+01
163.146301	1.333014	city	10	1	1.274304	1.274304	0	1	0	0	CorrectCommission	0.545862	0.684603	1	0	6.047826e+01
164.485916	1.346216	city	3	1	1.128167	1.128167	0	1	0	0	CorrectCommission	0.369557	0.671160	1	0	6.004348e+01
165.845398	1.372725	city	7	1	1.056062	1.056062	0	1	0	0	CorrectCommission	0.821230	0.659564	1	0	5.960870e+01
167.178207	1.292903	city	10	1	0.971833	0.971833	0	1	0	0	CorrectCommission	1.348848	0.649674	1	0	5.917391e+01
168.471130	1.292954	city	4	1	1.101385	1.101385	0	1	0	0	CorrectCommission	0.537320	0.641554	1	0	5.873913e+01
169.764130	1.293045	city	10	1	1.042651	1.042651	0	1	0	0	CorrectCommission	0.905238	0.635608	1	0	5.830435e+01
171.070343	1.319381	city	3	1	1.063231	1.063231	0	1	0	0	CorrectCommission	0.776326	0.632590	1	0	5.786957e+01
172.409897	1.359721	city	7	1	1.147203	1.147203	0	1	0	0	CorrectCommission	0.250311	0.633512	1	0	5.743478e+01
173.089752	9.090190	break	0	0	0.000000	1.132843	0	0	0	0	ThoughtProbe	0.340263	0.639506	1	57	57
182.826401	1.292897	city	7	1	1.162203	1.162203	0	1	0	0	CorrectCommission	0.156352	0.651571	1	0	5.725000e+01
184.125977	1.306247	city	4	1	1.377333	1.377333	0	1	0	0	CorrectCommission	1.191251	0.670369	1	0	5.750000e+01
185.485596	1.413016	city	2	1	1.193437	1.193437	0	1	0	0	CorrectCommission	0.039300	0.695996	1	0	5.775000e+01
186.865158	1.346114	city	3	1	1.155013	1.155013	0	1	0	0	CorrectCommission	0.201391	0.727941	1	0	5.800000e+01
188.224640	1.372833	city	10	1	1.073629	1.073629	0	1	0	0	CorrectCommission	0.711187	0.764983	1	0	5.825000e+01
189.564178	1.306232	city	3	1	0.952855	0.952855	0	1	0	0	CorrectCommission	1.467734	0.805287	1	0	5.850000e+01
190.857071	1.279579	city	1	1	1.285245	1.285245	0	1	0	0	CorrectCommission	0.614401	0.846558	0	0	5.875000e+01
192.163315	1.332900	city	8	1	1.297971	1.297971	0	1	0	0	CorrectCommission	0.694117	0.886344	0	0	59
193.476318	1.293092	mountain	2	0	0.000000	1.374913	1	0	0	0	CorrectOmission	1.176089	0.922189	0	0	5.925000e+01
194.769318	1.292919	city	4	1	1.354850	1.354850	0	1	0	0	CorrectCommission	1.050411	0.951945	0	0	5.950000e+01
196.095490	1.359425	mountain	1	0	0.000000	1.076561	1	0	0	0	CorrectOmission	0.692825	0.974044	0	0	5.975000e+01
197.434998	1.319587	city	8	1	0.833006	0.833006	0	1	0	0	CorrectCommission	2.218480	0.987615	0	0	60
198.734619	1.279672	city	4	1	0.917146	0.917146	0	1	0	0	CorrectCommission	1.691415	0.992568	0	0	6.025000e+01
200.034256	1.319592	city	7	1	1.018004	1.018004	0	1	0	0	CorrectCommission	1.059631	0.989608	0	0	6.050000e+01
201.354355	1.320607	city	2	1	1.273451	1.273451	0	1	0	0	CorrectCommission	0.540516	0.980096	0	0	6.075000e+01
202.667160	1.304986	city	9	1	1.195503	1.195503	0	1	0	0	CorrectCommission	0.052244	0.965831	0	0	61
203.966171	1.293053	city	1	1	0.979284	0.979284	0	1	0	0	CorrectCommission	1.302175	0.948816	0	0	6.125000e+01
205.272491	1.319580	city	6	1	0.905578	0.905578	0	1	0	0	CorrectCommission	1.763881	0.930960	0	0	6.150000e+01
206.572037	1.279504	city	10	1	1.132883	1.132883	0	1	0	0	CorrectCommission	0.340013	0.913915	0	0	6.175000e+01
207.918198	1.412820	city	3	1	1.329266	1.329266	0	1	0	0	CorrectCommission	0.890148	0.898936	0	0	62
209.304367	1.359512	city	7	1	1.256085	1.256085	0	1	0	0	CorrectCommission	0.431738	0.886692	0	0	6.225000e+01
210.623993	1.279745	city	6	1	1.296810	1.296810	0	1	0	0	CorrectCommission	0.686845	0.877315	0	0	6.250000e+01
211.930328	1.332924	city	4	1	1.374897	1.374897	0	1	0	0	CorrectCommission	1.175989	0.870436	0	0	6.275000e+01
213.249802	1.306044	city	10	1	1.055816	1.055816	0	1	0	0	CorrectCommission	0.822774	0.865271	0	0	63
214.542709	1.279747	city	2	1	1.129856	1.129856	0	1	0	0	CorrectCommission	0.358975	0.860853	0	0	6.325000e+01
215.835709	1.306272	mountain	7	0	0.000000	1.325118	1	0	0	0	CorrectOmission	0.864166	0.856168	0	0	6.350000e+01
217.128616	1.279545	city	7	1	1.457494	1.457494	0	1	0	0	CorrectCommission	1.693388	0.850316	0	0	6.375000e+01
218.421524	1.306252	city	2	1	1.342880	1.342880	0	1	0	0	CorrectCommission	0.975430	0.842643	0	0	64
219.721100	1.292901	city	9	1	1.090157	1.090157	0	1	0	0	CorrectCommission	0.607658	0.832861	0	0	6.425000e+01
221.020676	1.306261	city	1	1	0.926945	0.926945	0	1	0	0	CorrectCommission	1.630033	0.821001	0	0	6.450000e+01
222.346893	1.346186	city	10	1	1.135209	1.135209	0	1	0	0	CorrectCommission	0.325445	0.807307	1	0	6.475000e+01
223.686447	1.332902	city	8	1	1.278206	1.278206	0	1	0	0	CorrectCommission	0.570306	0.792227	1	0	65
225.012634	1.319471	city	1	1	1.231133	1.231133	0	1	0	0	CorrectCommission	0.275435	0.776233	1	0	6.525000e+01
226.338867	1.333001	city	10	1	1.294945	1.294945	0	1	0	0	CorrectCommission	0.675160	0.759769	1	0	6.550000e+01
227.651840	1.292959	city	3	1	1.328388	1.328388	0	1	0	0	CorrectCommission	0.884651	0.743239	1	0	6.575000e+01
228.964752	1.332850	city	9	1	1.420789	1.420789	0	1	0	0	CorrectCommission	1.463462	0.727040	1	0	66
230.304276	1.346196	city	10	1	1.188468	1.188468	0	1	0	0	CorrectCommission	0.008177	0.711610	1	0	6.625000e+01
231.617172	1.279602	city	1	1	1.320182	1.320182	0	1	0	0	CorrectCommission	0.833244	0.697522	1	0	6.650000e+01
232.936752	1.359558	city	4	1	1.421168	1.421168	0	1	0	0	CorrectCommission	1.465836	0.685406	1	0	6.675000e+01
233.616531	8.490367	break	0	0	0.000000	1.263001	0	0	0	0	ThoughtProbe	0.475059	0.675953	1	67	67
242.780090	1.346394	city	2	1	1.121785	1.121785	0	1	0	0	CorrectCommission	0.409532	0.669912	1	0	6.692500e+01
244.106323	1.306070	city	10	1	1.273626	1.273626	0	1	0	0	CorrectCommission	0.541618	0.667850	1	0	6.685000e+01
245.432556	1.346372	city	3	1	1.152253	1.152253	0	1	0	0	CorrectCommission	0.218677	0.670066	1	0	6.677500e+01
246.765533	1.319581	mountain	9	0	0.000000	1.109239	1	0	0	0	CorrectOmission	0.488125	0.676512	1	0	6.670000e+01
248.078430	1.306221	city	5	1	1.152497	1.152497	0	1	0	0	CorrectCommission	0.217153	0.686711	1	0	6.662500e+01
249.371246	1.279417	city	9	1	1.289941	1.289941	0	1	0	0	CorrectCommission	0.643812	0.699863	1	0	6.655000e+01
250.670746	1.319569	mountain	3	0	0.000000	1.333983	1	0	0	0	CorrectOmission	0.919701	0.714932	1	0	6.647500e+01
251.970398	1.279740	city	7	1	1.346119	1.346119	0	1	0	0	CorrectCommission	0.995720	0.730827	1	0	6.640000e+01
253.263382	1.306232	city	4	1	1.387842	1.387842	0	1	0	0	CorrectCommission	1.257078	0.746561	1	0	6.632500e+01
254.582870	1.332754	city	7	1	1.371171	1.371171	0	1	0	0	CorrectCommission	1.152649	0.761390	1	0	6.625000e+01
255.902359	1.306231	city	3	1	1.353679	1.353679	0	1	0	0	CorrectCommission	1.043078	0.774865	1	0	6.617500e+01
257.221954	1.332933	city	8	1	1.245398	1.245398	0	1	0	0	CorrectCommission	0.364791	0.786805	1	0	6.610000e+01
258.568268	1.359692	city	4	1	1.167233	1.167233	0	1	0	0	CorrectCommission	0.124841	0.797277	1	0	6.602500e+01
259.934540	1.372876	city	5	1	1.117314	1.117314	0	1	0	0	CorrectCommission	0.437540	0.806463	1	0	6.595000e+01
261.274017	1.306074	city	4	1	1.069069	1.069069	0	1	0	0	CorrectCommission	0.739751	0.814589	1	0	6.587500e+01
262.566833	1.279551	city	3	1	0.965377	0.965377	0	1	0	0	CorrectCommission	1.389295	0.821920	0	0	6.580000e+01
263.866486	1.319733	city	10	1	1.010304	1.010304	0	1	0	0	CorrectCommission	1.107863	0.828687	0	0	6.572500e+01
265.166107	1.279507	city	2	1	1.380554	1.380554	0	1	0	0	CorrectCommission	1.211424	0.835120	0	0	6.565000e+01
266.478912	1.346141	city	10	1	1.101653	1.101653	0	1	0	0	CorrectCommission	0.535645	0.841425	0	0	6.557500e+01
267.811859	1.319743	city	2	1	1.392659	1.392659	0	1	0	0	CorrectCommission	1.287249	0.847735	0	0	6.550000e+01
269.151489	1.359513	city	10	1	1.303094	1.303094	0	1	0	0	CorrectCommission	0.726205	0.853996	0	0	6.542500e+01
270.510986	1.359483	city	9	1	1.209003	1.209003	0	1	0	0	CorrectCommission	0.136810	0.859960	0	0	6.535000e+01
271.883881	1.386307	city	5	1	1.043269	1.043269	0	1	0	0	CorrectCommission	0.901370	0.865077	0	0	6.527500e+01
273.236816	1.319552	city	6	1	1.235295	1.235295	0	1	0	0	CorrectCommission	0.301507	0.868507	0	0	6.520000e+01
274.543030	1.292885	city	1	1	1.329071	1.329071	0	1	0	0	CorrectCommission	0.888927	0.869273	0	0	6.512500e+01
275.875854	1.372746	city	6	1	1.350330	1.350330	0	1	0	0	CorrectCommission	1.022099	0.866387	0	0	6.505000e+01
277.208740	1.293075	mountain	8	0	0.000000	1.423030	1	0	0	0	CorrectOmission	1.477500	0.859118	0	0	6.497500e+01
278.495087	1.279606	city	2	1	1.474246	1.474246	0	1	0	0	CorrectCommission	1.798325	0.847185	0	0	6.490000e+01
279.794586	1.319386	city	9	1	1.431054	1.431054	0	1	0	0	CorrectCommission	1.527765	0.830908	0	0	6.482500e+01
281.100830	1.293079	city	2	1	1.245129	1.245129	0	1	0	0	CorrectCommission	0.363110	0.811288	1	0	6.475000e+01
282.413818	1.332899	city	10	1	1.117264	1.117264	0	1	0	0	CorrectCommission	0.437853	0.789944	1	0	6.467500e+01
283.733368	1.306217	city	6	1	1.151058	1.151058	0	1	0	0	CorrectCommission	0.226165	0.768916	1	0	6.460000e+01
285.026184	1.279429	city	1	1	1.260419	1.260419	0	1	0	0	CorrectCommission	0.458884	0.750450	1	0	6.452500e+01
286.325684	1.319552	city	8	1	1.194424	1.194424	0	1	0	0	CorrectCommission	0.045484	0.736742	1	0	6.445000e+01
287.631958	1.292995	city	6	1	0.886333	0.886333	0	1	0	0	CorrectCommission	1.884435	0.729700	1	0	6.437500e+01
288.938263	1.319648	city	7	1	1.063460	1.063460	0	1	0	0	CorrectCommission	0.774889	0.730650	1	0	6.430000e+01
290.251221	1.306221	city	1	1	1.089973	1.089973	0	1	0	0	CorrectCommission	0.608807	0.740253	1	0	6.422500e+01
291.584015	1.359396	city	10	1	1.180235	1.180235	0	1	0	0	CorrectCommission	0.043399	0.758338	1	0	6.415000e+01
292.925415	1.323375	city	3	1	1.156039	1.156039	0	1	0	0	CorrectCommission	0.194965	0.783861	1	0	6.407500e+01
296.004395	4.834615	break	0	0	0.000000	1.058871	0	0	0	0	ThoughtProbe	0.803634	0.814938	1	64	64
299.081573	1.319712	city	3	1	1.029194	1.029194	0	1	0	0	CorrectCommission	0.989535	0.849007	0	0	6.382353e+01
300.394470	1.306070	city	1	1	1.207470	1.207470	0	1	0	0	CorrectCommission	0.127206	0.883095	0	0	6.364706e+01
301.694031	1.293095	mountain	4	0	0.000000	1.329408	1	0	0	0	CorrectOmission	0.891040	0.914200	0	0	6.347059e+01
302.993652	1.306141	city	1	1	1.417784	1.417784	0	1	0	0	CorrectCommission	1.444636	0.939646	0	0	6.329412e+01
304.319794	1.346133	city	10	1	1.495374	1.495374	0	1	0	0	CorrectCommission	1.930667	0.957456	0	0	6.311765e+01
305.672638	1.359555	city	1	1	1.522428	1.522428	0	1	0	0	CorrectCommission	2.100141	0.966606	0	0	6.294118e+01
307.012268	1.319733	city	5	1	1.478729	1.478729	0	1	0	0	CorrectCommission	1.826407	0.967100	0	0	6.276471e+01
308.405151	1.466028	city	4	1	1.272905	1.272905	0	1	0	0	CorrectCommission	0.537101	0.959869	0	0	6.258824e+01
309.804718	1.333054	city	7	1	1.138480	1.138480	0	1	0	0	CorrectCommission	0.304957	0.946499	0	0	6.241176e+01
311.131012	1.319562	city	6	1	1.130508	1.130508	0	1	0	0	CorrectCommission	0.354892	0.928838	0	0	6.223529e+01
312.457153	1.332729	city	7	1	1.287713	1.287713	0	1	0	0	CorrectCommission	0.629856	0.908643	0	0	6.205882e+01
313.830048	1.413070	city	1	1	1.249357	1.249357	0	1	0	0	CorrectCommission	0.389591	0.887285	0	0	6.188235e+01
315.189697	1.306212	mountain	2	0	0.000000	1.332097	1	0	0	0	CorrectOmission	0.907882	0.865627	0	0	6.170588e+01
316.495850	1.306085	city	1	1	1.418413	1.418413	0	1	0	0	CorrectCommission	1.448577	0.843988	0	0	6.152941e+01
317.795319	1.292883	city	9	1	1.390786	1.390786	0	1	0	0	CorrectCommission	1.275522	0.822322	0	0	6.135294e+01
319.101593	1.319663	city	10	1	1.158920	1.158920	0	1	0	0	CorrectCommission	0.176919	0.800457	1	0	6.117647e+01
320.454590	1.386285	city	9	1	0.921919	0.921919	0	1	0	0	CorrectCommission	1.661520	0.778280	1	0	61
321.794098	1.292738	city	3	1	1.327937	1.327937	0	1	0	0	CorrectCommission	0.881826	0.755876	1	0	6.082353e+01
323.080292	1.279673	city	10	1	1.054119	1.054119	0	1	0	0	CorrectCommission	0.833403	0.733656	1	0	6.064706e+01
324.373199	1.306147	city	1	1	1.194648	1.194648	0	1	0	0	CorrectCommission	0.046890	0.712312	1	0	6.047059e+01
325.712708	1.372874	city	8	1	1.127199	1.127199	0	1	0	0	CorrectCommission	0.375619	0.692742	1	0	6.029412e+01
327.072296	1.346298	city	4	1	1.121694	1.121694	0	1	0	0	CorrectCommission	0.410101	0.675871	1	0	6.011765e+01
328.418610	1.346321	city	5	1	1.057082	1.057082	0	1	0	0	CorrectCommission	0.814844	0.662595	1	0	5.994118e+01
329.758209	1.332887	city	10	1	0.981750	0.981750	0	1	0	0	CorrectCommission	1.286727	0.653627	1	0	5.976471e+01
331.097778	1.346230	city	2	1	1.240649	1.240649	0	1	0	0	CorrectCommission	0.335041	0.649454	1	0	5.958824e+01
332.443909	1.346055	city	6	1	1.222332	1.222332	0	1	0	0	CorrectCommission	0.220303	0.650332	1	0	5.941176e+01
333.790863	1.347833	city	1	1	1.113270	1.113270	0	1	0	0	CorrectCommission	0.462876	0.656267	1	0	5.923529e+01
335.110504	1.291464	city	8	1	1.125848	1.125848	0	1	0	0	CorrectCommission	0.384081	0.667073	1	0	5.905882e+01
336.422607	1.332749	city	6	1	1.075201	1.075201	0	1	0	0	CorrectCommission	0.701339	0.682425	1	0	5.888235e+01
337.748840	1.319726	city	1	1	0.955438	0.955438	0	1	0	0	CorrectCommission	1.451551	0.701888	1	0	5.870588e+01
339.075165	1.332880	city	9	1	1.264161	1.264161	0	1	0	0	CorrectCommission	0.482327	0.724941	1	0	5.852941e+01
340.394714	1.306262	city	6	1	1.028098	1.028098	0	1	0	0	CorrectCommission	0.996401	0.750995	1	0	5.835294e+01
341.714233	1.332729	city	3	1	1.195688	1.195688	0	1	0	0	CorrectCommission	0.053404	0.779311	1	0	5.817647e+01
344.433289	4.105435	break	0	0	0.000000	1.272717	0	0	0	0	ThoughtProbe	0.535920	0.809091	1	58	58
347.125854	1.279644	city	7	1	1.319997	1.319997	0	1	0	0	CorrectCommission	0.832087	0.839400	0	0	5.784783e+01
348.478699	1.426045	city	4	1	1.398341	1.398341	0	1	0	0	CorrectCommission	1.322846	0.869268	0	0	5.769565e+01
349.838135	1.292856	city	1	1	0.997322	0.997322	0	1	0	0	CorrectCommission	1.189184	0.897741	0	0	5.754348e+01
351.157715	1.346305	city	10	1	1.134981	1.134981	0	1	0	0	CorrectCommission	0.326872	0.924047	0	0	5.739130e+01
352.497375	1.332988	city	8	1	1.023480	1.023480	0	1	0	0	CorrectCommission	1.025327	0.947649	0	0	5.723913e+01
353.816895	1.306108	city	5	1	0.959008	0.959008	0	1	0	0	CorrectCommission	1.429189	0.968338	0	0	5.708696e+01
355.116486	1.293041	mountain	8	0	0.000000	1.308544	1	0	0	0	CorrectOmission	0.760345	0.986209	0	0	5.693478e+01
356.402802	1.279575	city	3	1	1.581860	1.581860	0	1	0	0	CorrectCommission	2.472427	1.001666	0	0	5.678261e+01
357.715546	1.345934	city	1	1	1.288727	1.288727	0	1	0	0	CorrectCommission	0.636209	1.015176	0	0	5.663043e+01
359.041687	1.306356	city	5	1	1.344662	1.344662	0	1	0	0	CorrectCommission	0.986592	1.027213	0	0	5.647826e+01
360.354736	1.319731	city	2	1	1.144260	1.144260	0	1	0	0	CorrectCommission	0.268746	1.037938	0	0	5.632609e+01
361.661041	1.292903	city	5	1	1.220019	1.220019	0	1	0	0	CorrectCommission	0.205812	1.047105	0	0	5.617391e+01
362.973938	1.332888	mountain	7	1	1.049293	1.049293	0	0	1	0	CommissionError	0.863633	1.054059	0	0	5.602174e+01
364.293518	1.306240	city	2	1	1.369827	1.369827	0	1	0	0	CorrectCommission	1.144232	1.057761	0	0	5.586957e+01
365.633026	1.372813	city	4	1	1.378622	1.378622	0	1	0	0	CorrectCommission	1.199320	1.057048	0	0	5.571739e+01
366.972504	1.306143	mountain	10	1	1.577351	1.577351	0	0	1	0	CommissionError	2.444185	1.050929	0	0	5.556522e+01
368.272125	1.293072	city	9	1	1.496946	1.496946	0	1	0	0	CorrectCommission	1.940514	1.038798	0	0	5.541304e+01
369.605103	1.372882	city	8	1	1.046596	1.046596	0	1	0	0	CorrectCommission	0.880529	1.020711	0	0	5.526087e+01
370.964569	1.346059	city	10	1	0.993060	0.993060	0	1	0	0	CorrectCommission	1.215883	0.997426	0	0	5.510870e+01
372.330811	1.386392	city	6	1	1.131108	1.131108	0	1	0	0	CorrectCommission	0.351137	0.970257	0	0	5.495652e+01
373.677032	1.306062	city	8	1	1.050351	1.050351	0	1	0	0	CorrectCommission	0.857004	0.940968	0	0	5.480435e+01
374.976562	1.293006	mountain	4	0	0.000000	1.195606	1	0	0	0	CorrectOmission	0.052892	0.911504	0	0	5.465217e+01
376.269470	1.292806	city	8	1	1.275168	1.275168	0	1	0	0	CorrectCommission	0.551274	0.883813	0	0	5.450000e+01
377.609039	1.386375	city	6	1	0.997330	0.997330	0	1	0	0	CorrectCommission	1.189137	0.859641	0	0	5.434783e+01
378.962036	1.319567	city	2	1	0.827927	0.827927	0	1	0	0	CorrectCommission	2.250294	0.840435	0	0	5.419565e+01
380.268250	1.292913	city	4	1	1.155219	1.155219	0	1	0	0	CorrectCommission	0.200102	0.827285	0	0	5.404348e+01
381.581085	1.332742	city	5	1	1.129736	1.129736	0	1	0	0	CorrectCommission	0.359731	0.820948	0	0	5.389130e+01
382.913940	1.332969	city	10	1	1.172224	1.172224	0	1	0	0	CorrectCommission	0.093576	0.821702	0	0	5.373913e+01
384.246918	1.332992	city	7	1	1.057893	1.057893	0	1	0	0	CorrectCommission	0.809758	0.829423	0	0	5.358696e+01
385.559875	1.292904	city	4	1	1.018468	1.018468	0	1	0	0	CorrectCommission	1.056723	0.843468	0	0	5.343478e+01
386.872772	1.332882	city	6	1	1.119902	1.119902	0	1	0	0	CorrectCommission	0.421329	0.862770	0	0	5.328261e+01
388.199005	1.319561	city	3	1	1.516754	1.516754	0	1	0	0	CorrectCommission	2.064594	0.885817	0	0	5.313043e+01
389.538544	1.359548	city	7	1	1.127411	1.127411	0	1	0	0	CorrectCommission	0.374296	0.910659	0	0	5.297826e+01
390.891449	1.346241	city	6	1	1.186470	1.186470	0	1	0	0	CorrectCommission	0.004341	0.935147	0	0	5.282609e+01
392.224243	1.319387	city	8	1	1.050478	1.050478	0	1	0	0	CorrectCommission	0.856207	0.956994	0	0	5.267391e+01
393.590454	1.413015	city	6	1	1.262904	1.262904	0	1	0	0	CorrectCommission	0.474451	0.974022	0	0	5.252174e+01
394.957886	1.321823	city	5	1	1.540856	1.540856	0	1	0	0	CorrectCommission	2.215576	0.984479	0	0	5.236957e+01
396.277374	1.317184	city	6	1	1.571909	1.571909	0	1	0	0	CorrectCommission	2.410094	0.987177	0	0	5.221739e+01
397.589172	1.306376	city	3	1	1.435669	1.435669	0	1	0	0	CorrectCommission	1.556669	0.981768	0	0	5.206522e+01
398.955444	1.426173	city	1	1	1.142774	1.142774	0	1	0	0	CorrectCommission	0.278056	0.968824	0	0	5.191304e+01
400.348267	1.359478	city	9	1	1.046699	1.046699	0	1	0	0	CorrectCommission	0.879882	0.949748	0	0	5.176087e+01
401.681091	1.306173	city	1	1	1.092164	1.092164	0	1	0	0	CorrectCommission	0.595085	0.926593	0	0	5.160870e+01
402.974060	1.279762	city	10	1	1.348328	1.348328	0	1	0	0	CorrectCommission	1.009557	0.901832	0	0	5.145652e+01
404.286926	1.345961	city	9	1	1.300290	1.300290	0	1	0	0	CorrectCommission	0.708644	0.878068	0	0	5.130435e+01
405.653046	1.386301	city	5	1	1.088159	1.088159	0	1	0	0	CorrectCommission	0.620174	0.857722	0	0	5.115217e+01
409.238586	5.784771	break	0	0	0.000000	1.020396	0	0	0	0	ThoughtProbe	1.044644	0.842780	0	51	51
412.810822	1.359700	mountain	7	1	1.099636	1.099636	0	0	1	0	CommissionError	0.548276	0.834547	0	0	5.114706e+01
414.183746	1.386135	city	9	1	1.328511	1.328511	0	1	0	0	CorrectCommission	0.885421	0.833599	0	0	5.129412e+01
415.536621	1.319643	city	1	1	1.103555	1.103555	0	1	0	0	CorrectCommission	0.523732	0.839622	0	0	5.144118e+01
416.856140	1.319411	city	7	1	1.262808	1.262808	0	1	0	0	CorrectCommission	0.473849	0.851480	0	0	5.158824e+01
418.162292	1.292903	city	10	1	1.327624	1.327624	0	1	0	0	CorrectCommission	0.879865	0.867260	0	0	5.173529e+01
419.515198	1.412863	city	3	1	1.153427	1.153427	0	1	0	0	CorrectCommission	0.211322	0.884463	0	0	5.188235e+01
420.914764	1.386272	city	5	1	1.010605	1.010605	0	1	0	0	CorrectCommission	1.105977	0.900333	0	0	5.202941e+01
422.261078	1.306348	city	4	1	0.989758	0.989758	0	1	0	0	CorrectCommission	1.236570	0.912064	0	0	5.217647e+01
423.567291	1.306078	city	10	1	0.974182	0.974182	0	1	0	0	CorrectCommission	1.334138	0.917244	0	0	5.232353e+01
424.906830	1.373032	city	4	1	0.898092	0.898092	0	1	0	0	CorrectCommission	1.810770	0.914138	0	0	5.247059e+01
426.266479	1.346245	city	6	1	0.995147	0.995147	0	1	0	0	CorrectCommission	1.202810	0.901835	0	0	5.261765e+01
427.605957	1.332714	city	5	1	1.026590	1.026590	0	1	0	0	CorrectCommission	1.005847	0.880454	0	0	5.276471e+01
428.938751	1.332891	city	2	1	1.038701	1.038701	0	1	0	0	CorrectCommission	0.929981	0.851026	0	0	5.291176e+01
430.271667	1.332908	city	8	1	1.072142	1.072142	0	1	0	0	CorrectCommission	0.720505	0.815416	0	0	5.305882e+01
431.631287	1.386357	city	7	1	1.103203	1.103203	0	1	0	0	CorrectCommission	0.525934	0.776102	1	0	5.320588e+01
433.010834	1.372723	city	4	1	1.242762	1.242762	0	1	0	0	CorrectCommission	0.348279	0.735911	1	0	5.335294e+01
434.370392	1.346384	city	10	1	0.999851	0.999851	0	1	0	0	CorrectCommission	1.173346	0.697723	1	0	5.350000e+01
435.730011	1.372907	city	5	1	1.136471	1.136471	0	1	0	0	CorrectCommission	0.317542	0.664200	1	0	5.364706e+01
437.069611	1.306238	city	8	1	1.071056	1.071056	0	1	0	0	CorrectCommission	0.727309	0.637612	1	0	5.379412e+01
438.382416	1.319375	city	4	1	1.169474	1.169474	0	1	0	0	CorrectCommission	0.110808	0.619588	1	0	5.394118e+01
439.708618	1.333064	city	7	1	1.098171	1.098171	0	1	0	0	CorrectCommission	0.557458	0.611044	1	0	5.408824e+01
441.041595	1.332857	city	10	1	1.122284	1.122284	0	1	0	0	CorrectCommission	0.406408	0.612048	1	0	5.423529e+01
442.387726	1.359421	city	7	1	1.097283	1.097283	0	1	0	0	CorrectCommission	0.563019	0.621832	1	0	5.438235e+01
443.720642	1.306427	mountain	6	0	0.000000	1.142082	1	0	0	0	CorrectOmission	0.282395	0.638851	1	0	5.452941e+01
445.033630	1.319563	city	7	1	1.169020	1.169020	0	1	0	0	CorrectCommission	0.113647	0.660955	1	0	5.467647e+01
446.339874	1.292906	city	5	1	1.090439	1.090439	0	1	0	0	CorrectCommission	0.605889	0.685586	1	0	5.482353e+01
447.692780	1.412920	city	8	1	1.298749	1.298749	0	1	0	0	CorrectCommission	0.698989	0.710097	1	0	5.497059e+01
449.052307	1.306105	city	9	1	1.047745	1.047745	0	1	0	0	CorrectCommission	0.873329	0.732117	1	0	5.511765e+01
450.365143	1.319599	city	10	1	0.823388	0.823388	0	1	0	0	CorrectCommission	2.278727	0.749843	1	0	5.526471e+01
451.698090	1.346254	city	9	1	1.034964	1.034964	0	1	0	0	CorrectCommission	0.953389	0.762268	1	0	5.541176e+01
453.017670	1.292901	city	1	1	1.015749	1.015749	0	1	0	0	CorrectCommission	1.073758	0.769386	1	0	5.555882e+01
454.323944	1.319644	city	6	1	1.160089	1.160089	0	1	0	0	CorrectCommission	0.169593	0.772087	1	0	5.570588e+01
455.670105	1.372724	city	3	1	1.314053	1.314053	0	1	0	0	CorrectCommission	0.794852	0.772020	1	0	5.585294e+01
458.629089	4.545230	break	0	0	0.000000	1.307550	0	0	0	0	ThoughtProbe	0.754121	0.771329	1	56	56
461.614838	1.426244	city	3	1	1.267248	1.267248	0	1	0	0	CorrectCommission	0.501666	0.772374	1	0	5.590000e+01
463.007629	1.359371	city	9	1	1.319814	1.319814	0	1	0	0	CorrectCommission	0.830939	0.777375	1	0	5.580000e+01
464.347198	1.319752	city	4	1	1.257571	1.257571	0	1	0	0	CorrectCommission	0.441042	0.788157	1	0	5.570000e+01
465.653473	1.292811	city	5	1	1.075340	1.075340	0	1	0	0	CorrectCommission	0.700474	0.805964	1	0	5.560000e+01
466.953064	1.306334	city	1	1	1.132815	1.132815	0	1	0	0	CorrectCommission	0.340440	0.831296	0	0	5.550000e+01
468.252655	1.292886	mountain	7	0	0.000000	1.293247	1	0	0	0	CorrectOmission	0.664526	0.863937	0	0	5.540000e+01
469.565521	1.332804	city	3	1	1.384751	1.384751	0	1	0	0	CorrectCommission	1.237713	0.902922	0	0	5.530000e+01
470.931732	1.399643	city	2	1	1.235439	1.235439	0	1	0	0	CorrectCommission	0.302410	0.946674	0	0	5.520000e+01
472.284668	1.306239	mountain	9	0	0.000000	1.389118	1	0	0	0	CorrectOmission	1.265070	0.993103	0	0	5.510000e+01
473.590912	1.306226	city	10	1	1.519849	1.519849	0	1	0	0	CorrectCommission	2.083987	1.039714	0	0	55
474.937134	1.386206	city	8	1	1.301697	1.301697	0	1	0	0	CorrectCommission	0.717457	1.083767	0	0	5.490000e+01
476.309937	1.359448	city	10	1	1.052695	1.052695	0	1	0	0	CorrectCommission	0.842324	1.122465	0	0	5.480000e+01
477.676178	1.372999	city	4	1	1.309941	1.309941	0	1	0	0	CorrectCommission	0.769096	1.153069	0	0	5.470000e+01
479.029022	1.332718	city	9	1	1.016812	1.016812	0	1	0	0	CorrectCommission	1.067098	1.173114	0	0	5.460000e+01
480.368591	1.346390	city	1	1	0.949518	0.949518	0	1	0	0	CorrectCommission	1.488637	1.180649	0	0	5.450000e+01
481.694916	1.306254	city	5	1	1.513190	1.513190	0	1	0	0	CorrectCommission	2.042272	1.174472	0	0	5.440000e+01
483.014496	1.332904	city	3	1	1.639501	1.639501	0	1	0	0	CorrectCommission	2.833497	1.154324	0	0	5.430000e+01
484.400665	1.439465	city	1	1	1.285224	1.285224	0	1	0	0	CorrectCommission	0.614267	1.121020	0	0	5.420000e+01
485.773560	1.306295	mountain	7	0	0.000000	1.383267	1	0	0	0	CorrectOmission	1.228416	1.076536	0	0	5.410000e+01
487.066467	1.279545	city	7	1	1.483189	1.483189	0	1	0	0	CorrectCommission	1.854344	1.023778	0	0	54
488.386017	1.359559	city	6	1	1.134554	1.134554	0	1	0	0	CorrectCommission	0.329550	0.966413	0	0	5.390000e+01
489.758911	1.386214	city	8	1	1.098539	1.098539	0	1	0	0	CorrectCommission	0.555149	0.908601	0	0	5.380000e+01
491.118408	1.332799	city	4	1	1.140908	1.140908	0	1	0	0	CorrectCommission	0.289748	0.854553	0	0	5.370000e+01
492.457916	1.346198	city	2	1	1.157286	1.157286	0	1	0	0	CorrectCommission	0.187153	0.808262	1	0	5.360000e+01
493.777527	1.293028	city	3	1	1.335456	1.335456	0	1	0	0	CorrectCommission	0.928926	0.773196	1	0	5.350000e+01
495.130493	1.412881	city	7	1	1.298363	1.298363	0	1	0	0	CorrectCommission	0.696571	0.752103	1	0	5.340000e+01
496.490051	1.306233	city	5	1	0.971300	0.971300	0	1	0	0	CorrectCommission	1.352192	0.746886	1	0	5.330000e+01
497.796173	1.306062	city	3	1	1.194181	1.194181	0	1	0	0	CorrectCommission	0.043962	0.758481	1	0	5.320000e+01
499.122406	1.346384	city	10	1	1.248843	1.248843	0	1	0	0	CorrectCommission	0.386373	0.786832	1	0	5.310000e+01
500.455292	1.319410	city	2	1	1.150710	1.150710	0	1	0	0	CorrectCommission	0.228343	0.830861	0	0	53
501.774780	1.319559	city	1	1	1.165857	1.165857	0	1	0	0	CorrectCommission	0.133462	0.888561	0	0	5.290000e+01
503.081024	1.292915	city	2	1	1.116439	1.116439	0	1	0	0	CorrectCommission	0.443022	0.957170	0	0	5.280000e+01
504.414032	1.373070	city	10	1	1.094949	1.094949	0	1	0	0	CorrectCommission	0.577638	1.033491	0	0	5.270000e+01
505.773651	1.346192	city	8	1	0.895118	0.895118	0	1	0	0	CorrectCommission	1.829402	1.114221	0	0	5.260000e+01
507.133118	1.372746	city	7	1	0.859305	0.859305	0	1	0	0	CorrectCommission	2.053740	1.196357	0	0	5.250000e+01
508.486023	1.333057	city	9	1	0.751823	0.751823	0	1	0	0	CorrectCommission	2.727019	1.277549	0	0	5.240000e+01
509.798950	1.292812	city	2	1	1.018175	1.018175	0	1	0	0	CorrectCommission	1.058558	1.356327	0	0	5.230000e+01
511.098541	1.306381	city	7	1	1.346908	1.346908	0	1	0	0	CorrectCommission	1.000662	1.432222	0	0	5.220000e+01
512.471375	1.439293	city	6	1	1.141113	1.141113	0	1	0	0	CorrectCommission	0.288463	1.505607	0	0	5.210000e+01
516.010132	5.638219	break	0	0	0.000000	0.935317	0	0	0	0	ThoughtProbe	1.577589	1.577589	0	52	52
