onset	duration	trial_type	image_type	Press	ReactionTime	ReactionTime_Interpolated	CorrectOmission	CorrectCommission	CommissionError	OmissionError	response_type	nonsmoothVarianceTimeCourse	VarianceTimeCourse	In_the_Zone	ThoughtProbe	ThoughtProbe_Interpolated
0.666273	1.306237	city	6	1	1.471317	1.471317	0	1	0	0	CorrectCommission	1.648201	1.648201	0	0	100
1.965841	1.292898	city	9	1	1.136840	1.136840	0	1	0	0	CorrectCommission	0.971992	1.550312	0	0	100
3.258690	1.292799	city	4	1	1.101323	1.101323	0	1	0	0	CorrectCommission	1.250215	1.456559	0	0	100
4.551600	1.293021	city	6	1	1.171085	1.171085	0	1	0	0	CorrectCommission	0.703727	1.370656	0	0	100
5.844565	1.292910	city	5	1	1.106239	1.106239	0	1	0	0	CorrectCommission	1.211704	1.295588	0	0	100
7.144140	1.306240	city	10	1	1.062624	1.062624	0	1	0	0	CorrectCommission	1.553375	1.233256	0	0	100
8.437047	1.279574	city	2	1	1.191525	1.191525	0	1	0	0	CorrectCommission	0.543605	1.184353	0	0	100
9.723303	1.292937	city	4	1	1.140282	1.140282	0	1	0	0	CorrectCommission	0.945029	1.148375	0	0	100
11.009554	1.279565	city	8	1	1.193334	1.193334	0	1	0	0	CorrectCommission	0.529431	1.123606	0	0	100
12.295810	1.292949	city	9	1	1.256357	1.256357	0	1	0	0	CorrectCommission	0.035727	1.107453	0	0	100
13.588710	1.292851	mountain	2	0	0.000000	1.382288	1	0	0	0	CorrectOmission	0.950772	1.096809	0	0	100
14.874928	1.279584	mountain	6	0	0.000000	1.504439	1	0	0	0	CorrectOmission	1.907665	1.088470	0	0	100
16.167849	1.306260	mountain	9	0	0.000000	1.556124	1	0	0	0	CorrectOmission	2.312555	1.079588	0	0	100
17.460716	1.279476	city	6	1	1.470659	1.470659	0	1	0	0	CorrectCommission	1.643044	1.068088	0	0	100
18.742170	1.283429	city	5	1	1.181356	1.181356	0	1	0	0	CorrectCommission	0.623267	1.052916	0	0	100
20.021832	1.275893	city	10	1	1.036413	1.036413	0	1	0	0	CorrectCommission	1.758706	1.034101	0	0	100
21.299458	1.279360	city	8	1	1.229219	1.229219	0	1	0	0	CorrectCommission	0.248321	1.012590	0	0	100
22.578991	1.279707	city	4	1	1.183170	1.183170	0	1	0	0	CorrectCommission	0.609055	0.990074	0	0	100
23.871895	1.306101	city	10	1	1.074988	1.074988	0	1	0	0	CorrectCommission	1.456516	0.968556	0	0	100
25.164808	1.279727	city	9	1	1.181727	1.181727	0	1	0	0	CorrectCommission	0.620360	0.949964	0	0	100
26.444391	1.279436	city	10	1	1.126614	1.126614	0	1	0	0	CorrectCommission	1.052093	0.935912	0	0	100
27.723976	1.279736	city	3	1	1.250168	1.250168	0	1	0	0	CorrectCommission	0.084211	0.927327	0	0	100
29.003626	1.279561	city	2	1	1.182707	1.182707	0	1	0	0	CorrectCommission	0.612684	0.924426	0	0	100
30.283112	1.279411	city	4	1	1.150718	1.150718	0	1	0	0	CorrectCommission	0.863273	0.926659	0	0	100
31.562624	1.279615	city	2	1	1.197144	1.197144	0	1	0	0	CorrectCommission	0.499583	0.932821	0	0	100
32.842285	1.279709	mountain	2	0	0.000000	1.451929	1	0	0	0	CorrectOmission	1.496325	0.941267	0	0	100
34.121941	1.279602	city	5	1	1.552070	1.552070	0	1	0	0	CorrectCommission	2.280793	0.950077	0	0	100
35.401524	1.279557	city	1	1	1.134561	1.134561	0	1	0	0	CorrectCommission	0.989838	0.957281	0	0	100
36.687687	1.292774	city	6	1	1.241939	1.241939	0	1	0	0	CorrectCommission	0.148678	0.961079	0	0	100
37.980537	1.292923	city	1	1	1.297574	1.297574	0	1	0	0	CorrectCommission	0.287154	0.959956	0	0	100
39.266846	1.279696	city	9	1	1.102260	1.102260	0	1	0	0	CorrectCommission	1.242877	0.952753	0	0	100
40.566448	1.319511	city	4	1	1.130812	1.130812	0	1	0	0	CorrectCommission	1.019214	0.938787	0	0	100
41.885933	1.319455	city	5	1	1.030990	1.030990	0	1	0	0	CorrectCommission	1.801184	0.917982	0	0	100
43.185448	1.279579	city	3	1	1.093793	1.093793	0	1	0	0	CorrectCommission	1.309206	0.890848	0	0	100
44.465061	1.279642	city	6	1	1.142864	1.142864	0	1	0	0	CorrectCommission	0.924801	0.858579	0	0	100
45.751385	1.293008	city	4	1	1.425978	1.425978	0	1	0	0	CorrectCommission	1.293025	0.822967	0	0	100
47.051014	1.306250	city	5	1	1.274556	1.274556	0	1	0	0	CorrectCommission	0.106834	0.786253	0	0	100
48.343884	1.279487	city	6	1	1.346712	1.346712	0	1	0	0	CorrectCommission	0.672080	0.750935	1	0	100
49.623371	1.279492	city	4	1	1.240324	1.240324	0	1	0	0	CorrectCommission	0.161330	0.719472	1	0	100
50.903000	1.279764	city	10	1	1.101725	1.101725	0	1	0	0	CorrectCommission	1.247066	0.694021	1	0	100
52.182671	1.279576	city	3	1	1.246455	1.246455	0	1	0	0	CorrectCommission	0.113302	0.676122	1	0	100
53.488815	1.332717	city	1	1	1.292276	1.292276	0	1	0	0	CorrectCommission	0.245646	0.666594	1	0	100
54.801723	1.293096	city	3	1	1.155859	1.155859	0	1	0	0	CorrectCommission	0.822999	0.665340	1	0	100
56.088078	1.279608	city	2	1	1.240946	1.240946	0	1	0	0	CorrectCommission	0.156457	0.671382	1	0	100
57.367569	1.279379	city	7	1	1.304945	1.304945	0	1	0	0	CorrectCommission	0.344895	0.682992	1	0	100
58.007259	12.022763	break	0	0	0.000000	1.365432	0	0	0	0	ThoughtProbe	0.818728	0.697843	1	100	100
70.669868	1.279694	city	9	1	1.358743	1.358743	0	1	0	0	CorrectCommission	0.766334	0.713349	1	0	100
71.962830	1.306234	city	6	1	1.221219	1.221219	0	1	0	0	CorrectCommission	0.310992	0.726951	1	0	100
73.262405	1.292917	city	3	1	0.982995	0.982995	0	1	0	0	CorrectCommission	2.177166	0.736452	1	0	100
74.548561	1.279389	city	7	1	1.124176	1.124176	0	1	0	0	CorrectCommission	1.071198	0.740227	1	0	100
75.828072	1.279633	city	5	1	1.337975	1.337975	0	1	0	0	CorrectCommission	0.603637	0.737474	1	0	100
77.107658	1.279541	city	8	1	1.093353	1.093353	0	1	0	0	CorrectCommission	1.312656	0.728175	1	0	100
78.387207	1.279563	city	4	1	1.242670	1.242670	0	1	0	0	CorrectCommission	0.142946	0.712951	1	0	100
79.666862	1.279743	city	7	1	1.348280	1.348280	0	1	0	0	CorrectCommission	0.684371	0.692997	1	0	100
80.946533	1.279600	mountain	1	0	0.000000	1.349648	1	0	0	0	CorrectOmission	0.695085	0.669761	1	0	100
82.239410	1.306143	city	4	1	1.274067	1.274067	0	1	0	0	CorrectCommission	0.103003	0.644819	1	0	100
83.538895	1.292830	city	3	1	1.148829	1.148829	0	1	0	0	CorrectCommission	0.878068	0.619661	1	0	100
84.831841	1.293058	mountain	10	0	0.000000	1.144345	1	0	0	0	CorrectOmission	0.913195	0.595514	1	0	100
86.118073	1.279417	city	2	1	1.182723	1.182723	0	1	0	0	CorrectCommission	0.612554	0.573368	1	0	100
87.397652	1.279740	city	1	1	1.186072	1.186072	0	1	0	0	CorrectCommission	0.586323	0.553900	1	0	100
88.677231	1.279417	city	6	1	1.246130	1.246130	0	1	0	0	CorrectCommission	0.115846	0.537558	1	0	100
89.970093	1.306302	city	4	1	1.289117	1.289117	0	1	0	0	CorrectCommission	0.220905	0.524623	1	0	100
91.269669	1.292860	city	5	1	1.260790	1.260790	0	1	0	0	CorrectCommission	0.001004	0.515264	1	0	100
92.555885	1.279573	city	3	1	1.133663	1.133663	0	1	0	0	CorrectCommission	0.996873	0.509723	1	0	100
93.842140	1.292929	city	2	1	1.193866	1.193866	0	1	0	0	CorrectCommission	0.525263	0.508370	1	0	100
95.128380	1.279549	city	1	1	1.090895	1.090895	0	1	0	0	CorrectCommission	1.331905	0.511779	1	0	100
96.408005	1.279711	city	9	1	1.231229	1.231229	0	1	0	0	CorrectCommission	0.232573	0.520707	1	0	100
97.687675	1.279628	city	2	1	1.287650	1.287650	0	1	0	0	CorrectCommission	0.209410	0.536075	1	0	100
98.967232	1.279476	city	3	1	1.254801	1.254801	0	1	0	0	CorrectCommission	0.047919	0.558763	1	0	100
100.246735	1.279536	city	5	1	1.293171	1.293171	0	1	0	0	CorrectCommission	0.252657	0.589439	1	0	100
101.533051	1.293088	city	7	1	1.424487	1.424487	0	1	0	0	CorrectCommission	1.281350	0.628316	1	0	100
102.826027	1.292867	city	10	1	1.263552	1.263552	0	1	0	0	CorrectCommission	0.020632	0.674993	1	0	100
104.112251	1.279587	city	3	1	1.251636	1.251636	0	1	0	0	CorrectCommission	0.072714	0.728381	1	0	100
105.391739	1.279393	city	6	1	1.245450	1.245450	0	1	0	0	CorrectCommission	0.121173	0.786581	0	0	100
106.677986	1.293093	city	7	1	1.032340	1.032340	0	1	0	0	CorrectCommission	1.790606	0.847080	0	0	100
107.964310	1.279560	city	1	1	1.080592	1.080592	0	1	0	0	CorrectCommission	1.412615	0.906874	0	0	100
109.243881	1.279582	city	7	1	1.177213	1.177213	0	1	0	0	CorrectCommission	0.655722	0.962846	0	0	100
110.523422	1.279495	city	8	1	1.122759	1.122759	0	1	0	0	CorrectCommission	1.082298	1.012115	0	0	100
111.802925	1.279510	city	1	1	1.201292	1.201292	0	1	0	0	CorrectCommission	0.467090	1.052364	0	0	100
112.442680	8.024184	break	0	0	0.000000	1.495309	0	0	0	0	ThoughtProbe	1.836143	1.082193	0	100	100
121.119896	1.306066	city	3	1	1.635169	1.635169	0	1	0	0	CorrectCommission	2.931767	1.101345	0	0	100
122.439461	1.333058	city	4	1	1.251235	1.251235	0	1	0	0	CorrectCommission	0.075852	1.110845	0	0	100
123.745697	1.279421	mountain	8	0	0.000000	1.436590	1	0	0	0	CorrectOmission	1.376162	1.112980	0	0	100
125.025192	1.279574	city	4	1	1.638062	1.638062	0	1	0	0	CorrectCommission	2.954430	1.110847	0	0	100
126.324837	1.319709	city	3	1	1.302479	1.302479	0	1	0	0	CorrectCommission	0.325574	1.108013	0	0	100
127.624474	1.279571	city	8	1	1.231736	1.231736	0	1	0	0	CorrectCommission	0.228604	1.107962	0	0	100
128.904053	1.279591	city	1	1	1.199941	1.199941	0	1	0	0	CorrectCommission	0.477673	1.113426	0	0	100
130.196991	1.306268	city	4	1	1.193386	1.193386	0	1	0	0	CorrectCommission	0.529023	1.125894	0	0	100
131.489868	1.279492	mountain	7	0	0.000000	1.270094	1	0	0	0	CorrectOmission	0.071878	1.145340	0	0	100
132.769455	1.279679	city	9	1	1.391315	1.391315	0	1	0	0	CorrectCommission	1.021489	1.170122	0	0	100
134.049072	1.279549	mountain	2	0	0.000000	1.518302	1	0	0	0	CorrectOmission	2.016268	1.197182	0	0	100
135.341965	1.306240	city	4	1	1.496662	1.496662	0	1	0	0	CorrectCommission	1.846743	1.222503	0	0	100
136.654877	1.319587	city	5	1	1.172000	1.172000	0	1	0	0	CorrectCommission	0.696558	1.241707	0	0	100
137.954407	1.279485	city	8	1	1.039120	1.039120	0	1	0	0	CorrectCommission	1.737500	1.250747	0	0	100
139.240646	1.292979	city	6	1	1.036584	1.036584	0	1	0	0	CorrectCommission	1.757360	1.246450	0	0	100
140.526855	1.279442	city	3	1	1.042057	1.042057	0	1	0	0	CorrectCommission	1.714487	1.227029	0	0	100
141.813095	1.293052	city	5	1	0.974089	0.974089	0	1	0	0	CorrectCommission	2.246928	1.192292	0	0	100
143.106094	1.292937	city	7	1	0.920189	0.920189	0	1	0	0	CorrectCommission	2.669162	1.143643	0	0	100
144.392258	1.279386	city	8	1	1.297772	1.297772	0	1	0	0	CorrectCommission	0.288705	1.083847	0	0	100
145.678467	1.293028	city	9	1	1.264671	1.264671	0	1	0	0	CorrectCommission	0.029398	1.016610	0	0	100
146.978043	1.306125	city	4	1	1.386668	1.386668	0	1	0	0	CorrectCommission	0.985088	0.945986	0	0	100
148.297577	1.332938	city	6	1	1.174015	1.174015	0	1	0	0	CorrectCommission	0.680772	0.875792	0	0	100
149.610474	1.292874	city	3	1	1.257120	1.257120	0	1	0	0	CorrectCommission	0.029752	0.809200	0	0	100
150.896790	1.279743	city	7	1	1.406192	1.406192	0	1	0	0	CorrectCommission	1.138032	0.748480	1	0	100
152.176392	1.279463	city	9	1	1.297287	1.297287	0	1	0	0	CorrectCommission	0.284902	0.694795	1	0	100
153.455872	1.279514	city	8	1	1.235951	1.235951	0	1	0	0	CorrectCommission	0.195587	0.648348	1	0	100
154.742172	1.293064	mountain	2	0	0.000000	1.349546	1	0	0	0	CorrectOmission	0.694281	0.608608	1	0	100
156.035156	1.292905	city	1	1	1.427271	1.427271	0	1	0	0	CorrectCommission	1.303155	0.574612	1	0	100
157.328049	1.292881	city	2	1	1.258324	1.258324	0	1	0	0	CorrectCommission	0.020319	0.545273	1	0	100
158.614227	1.279473	city	7	1	1.342517	1.342517	0	1	0	0	CorrectCommission	0.639219	0.519713	1	0	100
159.893829	1.279744	city	6	1	1.362055	1.362055	0	1	0	0	CorrectCommission	0.792275	0.497383	1	0	100
161.173447	1.279480	city	3	1	1.190202	1.190202	0	1	0	0	CorrectCommission	0.553970	0.478152	1	0	100
162.466232	1.306088	city	5	1	1.288799	1.288799	0	1	0	0	CorrectCommission	0.218414	0.462263	1	0	100
163.759094	1.279645	city	6	1	1.175881	1.175881	0	1	0	0	CorrectCommission	0.666151	0.450166	1	0	100
165.038788	1.279733	city	8	1	1.243622	1.243622	0	1	0	0	CorrectCommission	0.135491	0.442333	1	0	100
166.318451	1.279590	city	2	1	1.245634	1.245634	0	1	0	0	CorrectCommission	0.119730	0.439019	1	0	100
167.598022	1.279564	city	9	1	1.252687	1.252687	0	1	0	0	CorrectCommission	0.064482	0.440079	1	0	100
168.877518	1.279439	city	4	1	1.301232	1.301232	0	1	0	0	CorrectCommission	0.315804	0.444918	1	0	100
170.163742	1.293000	city	8	1	1.273377	1.273377	0	1	0	0	CorrectCommission	0.097599	0.452476	1	0	100
171.450073	1.279648	city	10	1	1.140907	1.140907	0	1	0	0	CorrectCommission	0.940132	0.461378	1	0	100
172.729584	1.279397	city	5	1	1.306072	1.306072	0	1	0	0	CorrectCommission	0.353723	0.470148	1	0	100
174.015823	1.293074	city	4	1	1.373496	1.373496	0	1	0	0	CorrectCommission	0.881900	0.477461	1	0	100
175.322067	1.319406	city	9	1	1.343720	1.343720	0	1	0	0	CorrectCommission	0.648648	0.482325	1	0	100
176.641586	1.319651	city	2	1	1.155848	1.155848	0	1	0	0	CorrectCommission	0.823085	0.484254	1	0	100
177.954590	1.306336	city	5	1	1.153955	1.153955	0	1	0	0	CorrectCommission	0.837912	0.483328	1	0	100
178.607758	8.183944	break	0	0	0.000000	1.261047	0	0	0	0	ThoughtProbe	0.001014	0.480130	1	100	100
187.431412	1.279418	city	3	1	1.352101	1.352101	0	1	0	0	CorrectCommission	0.714297	0.475628	1	0	9.991304e+01
188.710953	1.279671	city	9	1	1.302092	1.302092	0	1	0	0	CorrectCommission	0.322543	0.470934	1	0	9.982609e+01
189.997284	1.293001	mountain	9	0	0.000000	1.294237	1	0	0	0	CorrectOmission	0.261013	0.467122	1	0	9.973913e+01
191.303482	1.319376	city	4	1	1.292312	1.292312	0	1	0	0	CorrectCommission	0.245931	0.464996	1	0	9.965217e+01
192.609619	1.292922	city	6	1	1.260091	1.260091	0	1	0	0	CorrectCommission	0.006481	0.465023	1	0	9.956522e+01
193.895966	1.279757	city	1	1	1.196830	1.196830	0	1	0	0	CorrectCommission	0.502047	0.467256	1	0	9.947826e+01
195.182220	1.292741	mountain	7	0	0.000000	1.301879	1	0	0	0	CorrectOmission	0.320879	0.471384	1	0	9.939130e+01
196.468445	1.279714	city	7	1	1.409056	1.409056	0	1	0	0	CorrectCommission	1.160465	0.476875	1	0	9.930435e+01
197.748093	1.279592	city	9	1	1.352175	1.352175	0	1	0	0	CorrectCommission	0.714880	0.483061	1	0	9.921739e+01
199.047668	1.319565	city	7	1	1.236341	1.236341	0	1	0	0	CorrectCommission	0.192531	0.489313	1	0	9.913043e+01
200.360504	1.306091	city	6	1	1.153917	1.153917	0	1	0	0	CorrectCommission	0.838209	0.495120	1	0	9.904348e+01
201.653351	1.279615	city	7	1	1.238020	1.238020	0	1	0	0	CorrectCommission	0.179373	0.500092	1	0	9.895652e+01
202.933029	1.279727	mountain	1	0	0.000000	1.306923	1	0	0	0	CorrectOmission	0.360389	0.504015	1	0	9.886957e+01
204.212662	1.279534	city	9	1	1.321025	1.321025	0	1	0	0	CorrectCommission	0.470857	0.506772	1	0	9.878261e+01
205.492218	1.279605	city	2	1	1.240724	1.240724	0	1	0	0	CorrectCommission	0.158192	0.508315	1	0	9.869565e+01
206.778412	1.292754	city	7	1	1.456873	1.456873	0	1	0	0	CorrectCommission	1.535051	0.508613	1	0	9.860870e+01
208.071304	1.293035	city	1	1	1.207661	1.207661	0	1	0	0	CorrectCommission	0.417197	0.507604	1	0	9.852174e+01
209.370941	1.306242	city	3	1	1.257879	1.257879	0	1	0	0	CorrectCommission	0.023809	0.505223	1	0	9.843478e+01
210.663864	1.279597	city	9	1	1.177578	1.177578	0	1	0	0	CorrectCommission	0.652861	0.501365	1	0	9.834783e+01
211.943359	1.279395	city	3	1	1.284656	1.284656	0	1	0	0	CorrectCommission	0.185959	0.495915	1	0	9.826087e+01
213.222977	1.279864	city	7	1	1.357641	1.357641	0	1	0	0	CorrectCommission	0.757694	0.488798	1	0	9.817391e+01
214.502655	1.279479	city	3	1	1.352679	1.352679	0	1	0	0	CorrectCommission	0.718831	0.480010	1	0	9.808696e+01
215.788849	1.292907	city	9	1	1.319831	1.319831	0	1	0	0	CorrectCommission	0.461509	0.469693	1	0	98
217.095078	1.319547	city	5	1	1.324896	1.324896	0	1	0	0	CorrectCommission	0.501183	0.458162	1	0	9.791304e+01
218.394562	1.279425	city	6	1	1.306403	1.306403	0	1	0	0	CorrectCommission	0.356318	0.445947	1	0	9.782609e+01
219.674057	1.279566	city	4	1	1.206878	1.206878	0	1	0	0	CorrectCommission	0.423330	0.433785	1	0	9.773913e+01
220.960312	1.292935	city	5	1	1.365585	1.365585	0	1	0	0	CorrectCommission	0.819930	0.422566	1	0	9.765217e+01
222.246506	1.279470	city	3	1	1.251034	1.251034	0	1	0	0	CorrectCommission	0.077431	0.413283	1	0	9.756522e+01
223.532837	1.293182	city	8	1	1.230330	1.230330	0	1	0	0	CorrectCommission	0.239613	0.406969	1	0	9.747826e+01
224.832458	1.306063	city	6	1	1.327653	1.327653	0	1	0	0	CorrectCommission	0.522782	0.404527	1	0	9.739130e+01
226.125366	1.279750	city	4	1	1.249862	1.249862	0	1	0	0	CorrectCommission	0.086607	0.406652	1	0	9.730435e+01
227.418365	1.306237	mountain	3	0	0.000000	1.279385	1	0	0	0	CorrectOmission	0.144663	0.413801	1	0	9.721739e+01
228.724594	1.306224	city	8	1	1.328292	1.328292	0	1	0	0	CorrectCommission	0.527786	0.426089	1	0	9.713043e+01
230.024155	1.292922	city	6	1	1.308655	1.308655	0	1	0	0	CorrectCommission	0.373960	0.443278	1	0	9.704348e+01
231.323730	1.306215	city	10	1	1.215048	1.215048	0	1	0	0	CorrectCommission	0.359329	0.464839	1	0	9.695652e+01
232.616547	1.279430	city	9	1	1.339209	1.339209	0	1	0	0	CorrectCommission	0.613311	0.490004	1	0	9.686957e+01
233.929459	1.346372	city	10	1	1.250889	1.250889	0	1	0	0	CorrectCommission	0.078565	0.517834	1	0	9.678261e+01
235.255676	1.306082	city	2	1	1.284881	1.284881	0	1	0	0	CorrectCommission	0.187722	0.547355	1	0	9.669565e+01
236.548508	1.279572	city	6	1	1.425898	1.425898	0	1	0	0	CorrectCommission	1.292401	0.577669	1	0	9.660870e+01
237.848160	1.319746	city	4	1	1.378238	1.378238	0	1	0	0	CorrectCommission	0.919049	0.608011	1	0	9.652174e+01
239.154495	1.292912	city	2	1	1.316062	1.316062	0	1	0	0	CorrectCommission	0.431984	0.637825	1	0	9.643478e+01
240.440659	1.279404	city	5	1	1.421311	1.421311	0	1	0	0	CorrectCommission	1.256468	0.666747	1	0	9.634783e+01
241.726898	1.293085	city	3	1	1.258306	1.258306	0	1	0	0	CorrectCommission	0.020462	0.694502	1	0	9.626087e+01
243.026505	1.306136	city	9	1	1.156292	1.156292	0	1	0	0	CorrectCommission	0.819606	0.720878	1	0	9.617391e+01
244.332733	1.306317	city	8	1	1.158893	1.158893	0	1	0	0	CorrectCommission	0.799231	0.745567	1	0	9.608696e+01
244.985886	8.730482	break	0	0	0.000000	1.262015	0	0	0	0	ThoughtProbe	0.008595	0.768134	1	96	96
254.356171	1.279584	mountain	6	0	0.000000	1.389630	1	0	0	0	CorrectOmission	1.008287	0.787988	0	0	9.602500e+01
255.635742	1.279575	city	10	1	1.465708	1.465708	0	1	0	0	CorrectCommission	1.604258	0.804351	0	0	9.605000e+01
256.921997	1.292909	city	5	1	1.414221	1.414221	0	1	0	0	CorrectCommission	1.200925	0.816392	0	0	9.607500e+01
258.214844	1.292804	city	6	1	1.253922	1.253922	0	1	0	0	CorrectCommission	0.054807	0.823357	0	0	9.610000e+01
259.501007	1.279492	city	3	1	1.154099	1.154099	0	1	0	0	CorrectCommission	0.836783	0.824695	0	0	9.612500e+01
260.793915	1.306328	city	9	1	1.071235	1.071235	0	1	0	0	CorrectCommission	1.485920	0.820136	0	0	9.615000e+01
262.093567	1.293005	city	7	1	1.199996	1.199996	0	1	0	0	CorrectCommission	0.477247	0.809851	0	0	9.617500e+01
263.379852	1.279578	mountain	7	0	0.000000	1.404255	1	0	0	0	CorrectOmission	1.122855	0.794481	0	0	9.620000e+01
264.659424	1.279557	city	10	1	1.496771	1.496771	0	1	0	0	CorrectCommission	1.847596	0.775056	1	0	9.622500e+01
265.965668	1.332906	city	9	1	1.290302	1.290302	0	1	0	0	CorrectCommission	0.230186	0.752925	1	0	9.625000e+01
267.291809	1.319414	city	8	1	1.223495	1.223495	0	1	0	0	CorrectCommission	0.293162	0.729619	1	0	9.627500e+01
268.598053	1.293081	city	10	1	1.150392	1.150392	0	1	0	0	CorrectCommission	0.865826	0.706591	1	0	9.630000e+01
269.884399	1.279553	city	9	1	1.198998	1.198998	0	1	0	0	CorrectCommission	0.485058	0.684999	1	0	9.632500e+01
271.170563	1.292827	city	1	1	1.204105	1.204105	0	1	0	0	CorrectCommission	0.445051	0.665608	1	0	9.635000e+01
272.483398	1.332808	city	10	1	1.215135	1.215135	0	1	0	0	CorrectCommission	0.358652	0.648666	1	0	9.637500e+01
273.802979	1.306380	city	4	1	1.330285	1.330285	0	1	0	0	CorrectCommission	0.543401	0.633935	1	0	9.640000e+01
275.095917	1.279484	city	3	1	1.231686	1.231686	0	1	0	0	CorrectCommission	0.228995	0.620854	1	0	9.642500e+01
276.375519	1.279690	city	10	1	1.361292	1.361292	0	1	0	0	CorrectCommission	0.786297	0.608747	1	0	9.645000e+01
277.668457	1.306237	city	6	1	1.419963	1.419963	0	1	0	0	CorrectCommission	1.245908	0.597064	1	0	9.647500e+01
278.961334	1.279471	city	9	1	1.122833	1.122833	0	1	0	0	CorrectCommission	1.081712	0.585614	1	0	9.650000e+01
280.254211	1.306276	city	3	1	1.211927	1.211927	0	1	0	0	CorrectCommission	0.383781	0.574706	1	0	9.652500e+01
281.553772	1.292855	city	9	1	1.146670	1.146670	0	1	0	0	CorrectCommission	0.894984	0.565206	1	0	9.655000e+01
282.839996	1.279632	city	8	1	1.306259	1.306259	0	1	0	0	CorrectCommission	0.355186	0.558398	1	0	9.657500e+01
284.126251	1.292854	city	2	1	1.244787	1.244787	0	1	0	0	CorrectCommission	0.126367	0.555810	1	0	9.660000e+01
285.419189	1.293023	city	1	1	1.254592	1.254592	0	1	0	0	CorrectCommission	0.049552	0.558931	1	0	9.662500e+01
286.705505	1.279609	city	6	1	1.385994	1.385994	0	1	0	0	CorrectCommission	0.979805	0.568944	1	0	9.665000e+01
287.991760	1.292889	city	9	1	1.244939	1.244939	0	1	0	0	CorrectCommission	0.125171	0.586413	1	0	9.667500e+01
289.284668	1.292923	mountain	3	0	0.000000	1.254369	1	0	0	0	CorrectOmission	0.051299	0.611179	1	0	9.670000e+01
290.570892	1.279559	city	4	1	1.308778	1.308778	0	1	0	0	CorrectCommission	0.374917	0.642271	1	0	9.672500e+01
291.857056	1.292750	city	3	1	1.302657	1.302657	0	1	0	0	CorrectCommission	0.326970	0.677988	1	0	9.675000e+01
293.143311	1.279747	city	1	1	1.479283	1.479283	0	1	0	0	CorrectCommission	1.710607	0.716043	1	0	9.677500e+01
294.469604	1.372875	city	8	1	1.221149	1.221149	0	1	0	0	CorrectCommission	0.311541	0.753821	1	0	9.680000e+01
295.795837	1.279575	city	5	1	1.127380	1.127380	0	1	0	0	CorrectCommission	1.046091	0.788723	0	0	9.682500e+01
297.075439	1.279605	city	2	1	1.038481	1.038481	0	1	0	0	CorrectCommission	1.742499	0.818351	0	0	9.685000e+01
298.355011	1.279559	city	3	1	1.318335	1.318335	0	1	0	0	CorrectCommission	0.449784	0.840779	0	0	9.687500e+01
299.647827	1.306072	city	2	1	1.325439	1.325439	0	1	0	0	CorrectCommission	0.505436	0.854772	0	0	9.690000e+01
300.960724	1.319750	city	7	1	1.457506	1.457506	0	1	0	0	CorrectCommission	1.540010	0.859844	0	0	9.692500e+01
302.293640	1.346060	city	8	1	1.148956	1.148956	0	1	0	0	CorrectCommission	0.877076	0.856275	0	0	9.695000e+01
303.626526	1.319731	city	3	1	1.061109	1.061109	0	1	0	0	CorrectCommission	1.565240	0.845122	0	0	9.697500e+01
304.286407	15.981358	break	0	0	0.000000	1.160765	0	0	0	0	ThoughtProbe	0.784564	0.828040	0	97	97
320.907501	1.279460	mountain	6	0	0.000000	1.321069	1	0	0	0	CorrectOmission	0.471202	0.807230	0	0	9.708824e+01
322.187103	1.279749	city	4	1	1.415163	1.415163	0	1	0	0	CorrectCommission	1.208309	0.785202	0	0	9.717647e+01
323.506683	1.359400	city	10	1	1.316193	1.316193	0	1	0	0	CorrectCommission	0.433008	0.764555	1	0	9.726471e+01
324.832916	1.293065	city	4	1	1.207173	1.207173	0	1	0	0	CorrectCommission	0.421023	0.747840	1	0	9.735294e+01
326.119232	1.279577	city	2	1	1.180715	1.180715	0	1	0	0	CorrectCommission	0.628286	0.737306	1	0	9.744118e+01
327.398743	1.279464	city	3	1	1.306482	1.306482	0	1	0	0	CorrectCommission	0.356937	0.734777	1	0	9.752941e+01
328.691559	1.306180	city	9	1	1.200075	1.200075	0	1	0	0	CorrectCommission	0.476628	0.741550	1	0	9.761765e+01
330.011169	1.333041	city	6	1	1.219112	1.219112	0	1	0	0	CorrectCommission	0.327492	0.758281	1	0	9.770588e+01
331.337402	1.319405	city	1	1	1.063317	1.063317	0	1	0	0	CorrectCommission	1.547942	0.784957	0	0	9.779412e+01
332.656982	1.319746	city	2	1	1.159681	1.159681	0	1	0	0	CorrectCommission	0.793059	0.820862	0	0	9.788235e+01
333.963226	1.292731	city	3	1	1.321562	1.321562	0	1	0	0	CorrectCommission	0.475069	0.864585	0	0	9.797059e+01
335.269287	1.319437	city	8	1	1.284086	1.284086	0	1	0	0	CorrectCommission	0.181487	0.914056	0	0	9.805882e+01
336.582184	1.306365	city	10	1	1.102440	1.102440	0	1	0	0	CorrectCommission	1.241469	0.966593	0	0	9.814706e+01
337.875153	1.279580	city	2	1	1.307636	1.307636	0	1	0	0	CorrectCommission	0.365974	1.019093	0	0	9.823529e+01
339.168091	1.306260	city	9	1	1.328304	1.328304	0	1	0	0	CorrectCommission	0.527881	1.068295	0	0	9.832353e+01
340.474396	1.306375	mountain	2	0	0.000000	1.542091	1	0	0	0	CorrectOmission	2.202622	1.111013	0	0	9.841176e+01
341.767303	1.279442	city	5	1	1.574645	1.574645	0	1	0	0	CorrectCommission	2.457641	1.144471	0	0	9.850000e+01
343.066803	1.319535	city	10	1	1.051614	1.051614	0	1	0	0	CorrectCommission	1.639623	1.166665	0	0	9.858824e+01
344.386353	1.319586	city	6	1	1.205980	1.205980	0	1	0	0	CorrectCommission	0.430364	1.176532	0	0	9.867647e+01
345.699341	1.306386	city	5	1	1.048333	1.048333	0	1	0	0	CorrectCommission	1.665322	1.174094	0	0	9.876471e+01
346.998993	1.292928	city	1	1	1.022967	1.022967	0	1	0	0	CorrectCommission	1.864036	1.160340	0	0	9.885294e+01
348.285156	1.279401	city	3	1	1.153880	1.153880	0	1	0	0	CorrectCommission	0.838501	1.137163	0	0	9.894118e+01
349.598053	1.346379	city	5	1	1.069456	1.069456	0	1	0	0	CorrectCommission	1.499857	1.107074	0	0	9.902941e+01
350.931000	1.319480	city	2	1	1.177225	1.177225	0	1	0	0	CorrectCommission	0.655624	1.072797	0	0	9.911765e+01
352.230469	1.279499	city	9	1	1.351523	1.351523	0	1	0	0	CorrectCommission	0.709768	1.037010	0	0	9.920588e+01
353.516693	1.292923	city	10	1	1.387090	1.387090	0	1	0	0	CorrectCommission	0.988393	1.001978	0	0	9.929412e+01
354.829590	1.332880	city	5	1	1.416846	1.416846	0	1	0	0	CorrectCommission	1.221493	0.969292	0	0	9.938235e+01
356.142578	1.293074	city	9	1	1.302989	1.302989	0	1	0	0	CorrectCommission	0.329570	0.939764	0	0	9.947059e+01
357.428894	1.279601	city	8	1	1.426753	1.426753	0	1	0	0	CorrectCommission	1.299101	0.913385	0	0	9.955882e+01
358.728394	1.319383	city	3	1	1.279035	1.279035	0	1	0	0	CorrectCommission	0.141922	0.889382	0	0	9.964706e+01
360.027893	1.279601	city	4	1	1.178178	1.178178	0	1	0	0	CorrectCommission	0.648156	0.866505	0	0	9.973529e+01
361.307465	1.279565	city	5	1	1.358854	1.358854	0	1	0	0	CorrectCommission	0.767197	0.843283	0	0	9.982353e+01
362.593719	1.292906	city	4	1	1.426207	1.426207	0	1	0	0	CorrectCommission	1.294819	0.818426	0	0	9.991176e+01
366.205902	5.931506	break	0	0	0.000000	1.457067	0	0	0	0	ThoughtProbe	1.536572	0.791113	0	100	100
369.818024	1.292702	mountain	9	0	0.000000	1.427795	1	0	0	0	CorrectOmission	1.307261	0.761228	1	0	9.988235e+01
371.104279	1.279792	city	4	1	1.314748	1.314748	0	1	0	0	CorrectCommission	0.421689	0.729495	1	0	9.976471e+01
372.397308	1.306283	city	10	1	1.094287	1.094287	0	1	0	0	CorrectCommission	1.305338	0.697383	1	0	9.964706e+01
373.703491	1.306060	city	2	1	1.228007	1.228007	0	1	0	0	CorrectCommission	0.257814	0.666840	1	0	9.952941e+01
375.016327	1.319609	city	4	1	1.226302	1.226302	0	1	0	0	CorrectCommission	0.271169	0.640047	1	0	9.941176e+01
376.329224	1.306186	city	7	1	1.265237	1.265237	0	1	0	0	CorrectCommission	0.033830	0.618950	1	0	9.929412e+01
377.648743	1.332890	city	9	1	1.194161	1.194161	0	1	0	0	CorrectCommission	0.522954	0.605014	1	0	9.917647e+01
378.981628	1.332898	city	4	1	1.301864	1.301864	0	1	0	0	CorrectCommission	0.320757	0.598887	1	0	9.905882e+01
380.301270	1.306365	city	8	1	1.273763	1.273763	0	1	0	0	CorrectCommission	0.100625	0.600413	1	0	9.894118e+01
381.607605	1.306288	city	2	1	1.258247	1.258247	0	1	0	0	CorrectCommission	0.020928	0.608665	1	0	9.882353e+01
382.900452	1.279409	city	5	1	1.359477	1.359477	0	1	0	0	CorrectCommission	0.772080	0.622197	1	0	9.870588e+01
384.186676	1.293060	city	7	1	1.164199	1.164199	0	1	0	0	CorrectCommission	0.757664	0.639337	1	0	9.858824e+01
385.486328	1.306260	city	4	1	1.026875	1.026875	0	1	0	0	CorrectCommission	1.833423	0.658539	1	0	9.847059e+01
386.785919	1.292887	city	1	1	1.080385	1.080385	0	1	0	0	CorrectCommission	1.414243	0.678587	1	0	9.835294e+01
388.085388	1.306072	mountain	7	0	0.000000	1.202591	1	0	0	0	CorrectOmission	0.456916	0.698776	1	0	9.823529e+01
389.378296	1.279743	city	5	1	1.294782	1.294782	0	1	0	0	CorrectCommission	0.265281	0.718892	1	0	9.811765e+01
390.664642	1.292934	city	8	1	1.258246	1.258246	0	1	0	0	CorrectCommission	0.020932	0.739025	1	0	98
391.964142	1.306078	city	4	1	1.138238	1.138238	0	1	0	0	CorrectCommission	0.961040	0.759413	1	0	9.788235e+01
393.270325	1.306285	city	5	1	1.191893	1.191893	0	1	0	0	CorrectCommission	0.540719	0.780226	1	0	9.776471e+01
394.576660	1.306397	city	7	1	1.332517	1.332517	0	1	0	0	CorrectCommission	0.560884	0.801428	0	0	9.764706e+01
395.876221	1.292706	city	8	1	1.404487	1.404487	0	1	0	0	CorrectCommission	1.124676	0.822701	0	0	9.752941e+01
397.162415	1.279707	city	2	1	1.188893	1.188893	0	1	0	0	CorrectCommission	0.564221	0.843461	0	0	9.741176e+01
398.455414	1.306258	city	9	1	1.417280	1.417280	0	1	0	0	CorrectCommission	1.224890	0.863024	0	0	9.729412e+01
399.761658	1.306237	city	8	1	1.502397	1.502397	0	1	0	0	CorrectCommission	1.891671	0.880708	0	0	9.717647e+01
401.054565	1.279590	city	1	1	1.259051	1.259051	0	1	0	0	CorrectCommission	0.014629	0.895972	0	0	9.705882e+01
402.347412	1.306068	city	3	1	1.092480	1.092480	0	1	0	0	CorrectCommission	1.319488	0.908583	0	0	9.694118e+01
403.653625	1.306375	city	7	1	1.215864	1.215864	0	1	0	0	CorrectCommission	0.352940	0.918512	0	0	9.682353e+01
404.953278	1.292929	city	2	1	0.986436	0.986436	0	1	0	0	CorrectCommission	2.150208	0.926022	0	0	9.670588e+01
406.252777	1.306080	city	4	1	1.255439	1.255439	0	1	0	0	CorrectCommission	0.042919	0.931479	0	0	9.658824e+01
407.545685	1.279739	city	2	1	1.122963	1.122963	0	1	0	0	CorrectCommission	1.080699	0.935391	0	0	9.647059e+01
408.851990	1.332847	city	5	1	1.168044	1.168044	0	1	0	0	CorrectCommission	0.727544	0.938162	0	0	9.635294e+01
410.164886	1.292951	city	9	1	1.374126	1.374126	0	1	0	0	CorrectCommission	0.886834	0.940124	0	0	9.623529e+01
411.464478	1.306240	city	7	1	1.417289	1.417289	0	1	0	0	CorrectCommission	1.224959	0.941408	0	0	9.611765e+01
415.782959	7.330735	break	0	0	0.000000	1.408023	0	0	0	0	ThoughtProbe	1.152377	0.941970	0	96	96
420.088135	1.279603	mountain	3	0	0.000000	1.367884	1	0	0	0	CorrectOmission	0.837938	0.941602	0	0	96
421.367798	1.279720	city	1	1	1.318425	1.318425	0	1	0	0	CorrectCommission	0.450493	0.940012	0	0	96
422.667358	1.319402	city	4	1	1.281201	1.281201	0	1	0	0	CorrectCommission	0.158890	0.936912	0	0	96
423.993591	1.333058	city	9	1	0.973873	0.973873	0	1	0	0	CorrectCommission	2.248624	0.932050	0	0	96
425.306580	1.292908	city	1	1	1.061613	1.061613	0	1	0	0	CorrectCommission	1.561295	0.925245	0	0	96
426.592804	1.279572	city	2	1	1.071848	1.071848	0	1	0	0	CorrectCommission	1.481117	0.916436	0	0	96
427.885651	1.306127	city	4	1	1.259939	1.259939	0	1	0	0	CorrectCommission	0.007668	0.905630	0	0	96
429.178528	1.279606	city	6	1	1.235905	1.235905	0	1	0	0	CorrectCommission	0.195948	0.892873	0	0	96
430.471497	1.306322	city	8	1	1.234692	1.234692	0	1	0	0	CorrectCommission	0.205446	0.878164	0	0	96
431.777771	1.306238	city	5	1	1.098545	1.098545	0	1	0	0	CorrectCommission	1.271976	0.861512	0	0	96
433.084015	1.306259	city	1	1	1.050757	1.050757	0	1	0	0	CorrectCommission	1.646340	0.842915	0	0	96
434.376923	1.279576	mountain	1	0	0.000000	1.088908	1	0	0	0	CorrectOmission	1.347475	0.822435	0	0	96
435.669769	1.306072	city	5	1	1.156246	1.156246	0	1	0	0	CorrectCommission	0.819966	0.800352	0	0	96
436.969238	1.292888	city	6	1	1.196019	1.196019	0	1	0	0	CorrectCommission	0.508396	0.777164	1	0	96
438.268890	1.306432	city	3	1	1.189744	1.189744	0	1	0	0	CorrectCommission	0.557558	0.753672	1	0	96
439.568604	1.292963	city	2	1	1.244752	1.244752	0	1	0	0	CorrectCommission	0.126636	0.730883	1	0	96
440.854828	1.279515	city	3	1	1.427005	1.427005	0	1	0	0	CorrectCommission	1.301077	0.710065	1	0	96
442.147736	1.306307	city	7	1	1.369450	1.369450	0	1	0	0	CorrectCommission	0.850205	0.692502	1	0	96
443.440643	1.279514	city	4	1	1.351131	1.351131	0	1	0	0	CorrectCommission	0.706700	0.679483	1	0	96
444.726776	1.292729	city	1	1	1.297794	1.297794	0	1	0	0	CorrectCommission	0.288879	0.672116	1	0	96
446.026337	1.306395	city	5	1	1.283422	1.283422	0	1	0	0	CorrectCommission	0.176292	0.671196	1	0	96
447.325897	1.292735	city	3	1	1.142422	1.142422	0	1	0	0	CorrectCommission	0.928263	0.677080	1	0	96
448.645386	1.346253	city	1	1	1.269743	1.269743	0	1	0	0	CorrectCommission	0.069135	0.689585	1	0	96
449.978302	1.319543	city	3	1	1.112944	1.112944	0	1	0	0	CorrectCommission	1.159182	0.707998	1	0	96
451.277893	1.279654	city	1	1	1.240675	1.240675	0	1	0	0	CorrectCommission	0.158581	0.731043	1	0	96
452.557556	1.279692	city	3	1	1.344054	1.344054	0	1	0	0	CorrectCommission	0.651264	0.756991	1	0	96
453.837128	1.279396	city	2	1	1.300186	1.300186	0	1	0	0	CorrectCommission	0.307612	0.783824	1	0	96
455.116699	1.279764	city	7	1	1.414856	1.414856	0	1	0	0	CorrectCommission	1.205899	0.809472	0	0	96
456.416351	1.319559	mountain	4	0	0.000000	1.507001	1	0	0	0	CorrectOmission	1.927737	0.831991	0	0	96
457.715912	1.279578	city	8	1	1.487297	1.487297	0	1	0	0	CorrectCommission	1.773384	0.849791	0	0	96
459.042053	1.372698	city	1	1	1.266420	1.266420	0	1	0	0	CorrectCommission	0.043102	0.861838	0	0	96
460.388214	1.319602	city	7	1	1.268779	1.268779	0	1	0	0	CorrectCommission	0.061578	0.867763	0	0	96
461.687775	1.279550	city	4	1	1.177590	1.177590	0	1	0	0	CorrectCommission	0.652762	0.867882	0	0	96
463.000702	1.346251	city	9	1	1.059551	1.059551	0	1	0	0	CorrectCommission	1.577450	0.863219	0	0	96
464.340332	1.333047	city	6	1	1.104473	1.104473	0	1	0	0	CorrectCommission	1.225545	0.855409	0	0	96
465.653229	1.292726	city	10	1	0.973837	0.973837	0	1	0	0	CorrectCommission	2.248901	0.846548	0	0	96
466.959473	1.319751	city	9	1	1.216018	1.216018	0	1	0	0	CorrectCommission	0.351729	0.838851	0	0	96
468.275421	1.312152	city	5	1	1.207007	1.207007	0	1	0	0	CorrectCommission	0.422321	0.834420	0	0	96
469.574890	1.286826	city	9	1	1.240711	1.240711	0	1	0	0	CorrectCommission	0.158294	0.834713	0	0	96
470.218323	16.447906	break	0	0	0.000000	1.232307	0	0	0	0	ThoughtProbe	0.224127	0.840323	0	96	96
487.312683	1.292905	city	6	1	1.236387	1.236387	0	1	0	0	CorrectCommission	0.192170	0.850719	0	0	9.605000e+01
488.598907	1.279591	city	9	1	1.307541	1.307541	0	1	0	0	CorrectCommission	0.365230	0.864271	0	0	9.610000e+01
489.905151	1.332892	city	1	1	1.129273	1.129273	0	1	0	0	CorrectCommission	1.031264	0.878436	0	0	9.615000e+01
491.231476	1.319716	city	10	1	1.031043	1.031043	0	1	0	0	CorrectCommission	1.800772	0.890148	0	0	9.620000e+01
492.551117	1.319565	city	4	1	1.138513	1.138513	0	1	0	0	CorrectCommission	0.958884	0.896375	0	0	9.625000e+01
493.864014	1.306236	city	2	1	1.102229	1.102229	0	1	0	0	CorrectCommission	1.243119	0.894666	0	0	9.630000e+01
495.176819	1.319403	mountain	10	1	1.540348	1.540348	0	0	1	0	CommissionError	2.188968	0.883619	0	0	9.635000e+01
496.489746	1.306426	city	2	1	1.387835	1.387835	0	1	0	0	CorrectCommission	0.994231	0.863151	0	0	9.640000e+01
497.795990	1.306075	city	6	1	1.369813	1.369813	0	1	0	0	CorrectCommission	0.853049	0.834634	0	0	9.645000e+01
499.102234	1.306378	city	2	1	1.393261	1.393261	0	1	0	0	CorrectCommission	1.036734	0.800642	0	0	9.650000e+01
500.435181	1.359551	city	6	1	1.336785	1.336785	0	1	0	0	CorrectCommission	0.594320	0.764565	1	0	9.655000e+01
501.834717	1.439524	city	2	1	1.207815	1.207815	0	1	0	0	CorrectCommission	0.415991	0.730124	1	0	9.660000e+01
503.194275	1.279579	mountain	1	0	0.000000	1.214471	1	0	0	0	CorrectOmission	0.363848	0.700825	1	0	9.665000e+01
504.480408	1.292669	city	9	1	1.260474	1.260474	0	1	0	0	CorrectCommission	0.003480	0.679418	1	0	9.670000e+01
505.773224	1.293007	city	8	1	1.249541	1.249541	0	1	0	0	CorrectCommission	0.089121	0.667582	1	0	9.675000e+01
507.086243	1.333032	city	3	1	1.283929	1.283929	0	1	0	0	CorrectCommission	0.180263	0.665738	1	0	9.680000e+01
508.412567	1.319591	city	9	1	1.114895	1.114895	0	1	0	0	CorrectCommission	1.143897	0.673111	1	0	9.685000e+01
509.712067	1.279421	city	4	1	1.284819	1.284819	0	1	0	0	CorrectCommission	0.187235	0.687920	1	0	9.690000e+01
511.004913	1.306236	city	9	1	1.396856	1.396856	0	1	0	0	CorrectCommission	1.064899	0.707866	1	0	9.695000e+01
512.357788	1.399543	city	8	1	1.319659	1.319659	0	1	0	0	CorrectCommission	0.460158	0.730422	1	0	97
513.717407	1.319698	city	10	1	1.109194	1.109194	0	1	0	0	CorrectCommission	1.188557	0.753322	1	0	9.705000e+01
515.017029	1.279582	city	7	1	1.433185	1.433185	0	1	0	0	CorrectCommission	1.349489	0.774829	1	0	9.710000e+01
516.309875	1.306087	city	4	1	1.471646	1.471646	0	1	0	0	CorrectCommission	1.650775	0.793981	0	0	9.715000e+01
517.602783	1.279725	city	6	1	1.368508	1.368508	0	1	0	0	CorrectCommission	0.842829	0.810690	0	0	9.720000e+01
518.915710	1.346063	city	1	1	1.276015	1.276015	0	1	0	0	CorrectCommission	0.118267	0.825740	0	0	9.725000e+01
520.235168	1.292935	city	10	1	1.249649	1.249649	0	1	0	0	CorrectCommission	0.088281	0.840701	0	0	9.730000e+01
521.521423	1.279575	city	1	1	1.314985	1.314985	0	1	0	0	CorrectCommission	0.423544	0.857920	0	0	9.735000e+01
522.827637	1.332866	mountain	1	0	0.000000	1.399246	1	0	0	0	CorrectOmission	1.083618	0.880479	0	0	9.740000e+01
524.133911	1.279619	city	10	1	1.447385	1.447385	0	1	0	0	CorrectCommission	1.460725	0.912135	0	0	9.745000e+01
525.426819	1.306203	city	8	1	1.404356	1.404356	0	1	0	0	CorrectCommission	1.123649	0.957336	0	0	9.750000e+01
526.726440	1.293095	city	3	1	1.382532	1.382532	0	1	0	0	CorrectCommission	0.952687	1.021051	0	0	9.755000e+01
528.039429	1.332870	city	9	1	1.434154	1.434154	0	1	0	0	CorrectCommission	1.357075	1.108450	0	0	9.760000e+01
529.398987	1.386215	city	8	1	1.241660	1.241660	0	1	0	0	CorrectCommission	0.150859	1.224448	0	0	9.765000e+01
530.751831	1.319425	city	6	1	1.348639	1.348639	0	1	0	0	CorrectCommission	0.687179	1.373127	0	0	9.770000e+01
532.071350	1.319602	city	10	1	1.115060	1.115060	0	1	0	0	CorrectCommission	1.142610	1.556980	0	0	9.775000e+01
533.397522	1.332833	city	3	1	1.248483	1.248483	0	1	0	0	CorrectCommission	0.097414	1.776313	0	0	9.780000e+01
534.710510	1.293058	city	2	1	1.248613	1.248613	0	1	0	0	CorrectCommission	0.096394	2.028816	0	0	9.785000e+01
535.996765	1.279447	city	6	1	1.487245	1.487245	0	1	0	0	CorrectCommission	1.772972	2.309372	0	0	9.790000e+01
537.302979	1.333068	city	5	1	1.560575	1.560575	0	1	0	0	CorrectCommission	2.347421	2.610269	0	0	9.795000e+01
537.969543	9.943317	break	0	0	0.000000	1.633906	0	0	0	0	ThoughtProbe	2.921870	2.921870	0	98	98
