onset	duration	trial_type	image_type	Press	ReactionTime	ReactionTime_Interpolated	CorrectOmission	CorrectCommission	CommissionError	OmissionError	response_type	nonsmoothVarianceTimeCourse	VarianceTimeCourse	In_the_Zone	ThoughtProbe	ThoughtProbe_Interpolated
0.659525	1.292763	city	3	1	1.357260	1.357260	0	1	0	0	CorrectCommission	0.827072	0.827072	0	0	94
1.945679	1.279545	city	9	1	1.289304	1.289304	0	1	0	0	CorrectCommission	0.567315	0.857327	0	0	94
3.265230	1.359557	city	10	1	1.060635	1.060635	0	1	0	0	CorrectCommission	0.306751	0.885125	0	0	94
4.618119	1.346220	city	4	1	0.864883	0.864883	0	1	0	0	CorrectCommission	1.054999	0.908267	0	0	94
5.931042	1.279626	city	3	1	0.823038	0.823038	0	1	0	0	CorrectCommission	1.214947	0.924995	0	0	94
7.210625	1.279540	city	1	1	0.697981	0.697981	0	1	0	0	CorrectCommission	1.692967	0.934227	0	0	94
8.503510	1.306227	city	2	1	0.541641	0.541641	0	1	0	0	CorrectCommission	2.290565	0.935577	0	0	94
9.796415	1.279584	city	3	1	0.968027	0.968027	0	1	0	0	CorrectCommission	0.660737	0.929344	0	0	94
11.082673	1.292933	city	2	1	0.977070	0.977070	0	1	0	0	CorrectCommission	0.626174	0.916427	0	0	94
12.368935	1.279589	mountain	1	1	0.965498	0.965498	0	0	1	0	CommissionError	0.670407	0.898097	0	0	94
13.648593	1.279729	mountain	3	0	0.000000	1.100501	1	0	0	0	CorrectOmission	0.154369	0.875821	0	0	94
14.934906	1.292897	city	1	1	1.300856	1.300856	0	1	0	0	CorrectCommission	0.611472	0.851078	0	0	94
16.227829	1.292950	mountain	8	0	0.000000	1.485340	1	0	0	0	CorrectOmission	1.316649	0.825277	0	0	94
17.513987	1.279364	city	9	1	1.464813	1.464813	0	1	0	0	CorrectCommission	1.238184	0.799724	0	0	94
18.800201	1.293066	city	4	1	1.050131	1.050131	0	1	0	0	CorrectCommission	0.346902	0.775703	0	0	94
20.086441	1.279414	city	8	1	0.823158	0.823158	0	1	0	0	CorrectCommission	1.214488	0.754476	1	0	94
21.365988	1.279679	city	1	1	0.985375	0.985375	0	1	0	0	CorrectCommission	0.594429	0.737295	1	0	94
22.645660	1.279663	city	5	1	1.467532	1.467532	0	1	0	0	CorrectCommission	1.248576	0.725356	1	0	94
23.925282	1.279580	city	6	1	1.192118	1.192118	0	1	0	0	CorrectCommission	0.195829	0.719655	1	0	94
25.204786	1.279429	city	4	1	1.124733	1.124733	0	1	0	0	CorrectCommission	0.061742	0.720857	1	0	94
26.497683	1.306364	city	7	1	1.204681	1.204681	0	1	0	0	CorrectCommission	0.243852	0.729068	1	0	94
27.790655	1.279580	mountain	8	0	0.000000	1.353602	1	0	0	0	CorrectOmission	0.813090	0.743736	1	0	94
29.070248	1.279606	city	4	1	1.392192	1.392192	0	1	0	0	CorrectCommission	0.960597	0.763618	1	0	94
30.349836	1.279573	city	7	1	1.141147	1.141147	0	1	0	0	CorrectCommission	0.000998	0.786850	0	0	94
31.629414	1.279580	city	6	1	0.928743	0.928743	0	1	0	0	CorrectCommission	0.810901	0.811204	0	0	94
32.908955	1.279500	city	1	1	0.825247	0.825247	0	1	0	0	CorrectCommission	1.206505	0.834251	0	0	94
34.188454	1.279503	city	6	1	0.863272	0.863272	0	1	0	0	CorrectCommission	1.061156	0.853799	0	0	94
35.467987	1.279564	city	9	1	0.810941	0.810941	0	1	0	0	CorrectCommission	1.261187	0.868196	0	0	94
36.747601	1.279660	city	8	1	0.698946	0.698946	0	1	0	0	CorrectCommission	1.689279	0.876540	0	0	94
38.033936	1.293013	city	7	1	0.711432	0.711432	0	1	0	0	CorrectCommission	1.641554	0.878837	0	0	94
39.320164	1.279442	city	4	1	1.122818	1.122818	0	1	0	0	CorrectCommission	0.069065	0.875972	0	0	94
40.599724	1.279675	city	9	1	0.877640	0.877640	0	1	0	0	CorrectCommission	1.006235	0.869604	0	0	94
41.879353	1.279583	city	2	1	1.185655	1.185655	0	1	0	0	CorrectCommission	0.171126	0.861860	0	0	94
43.165524	1.292757	city	10	1	0.817821	0.817821	0	1	0	0	CorrectCommission	1.234891	0.855108	0	0	94
44.451786	1.279771	city	1	1	1.231665	1.231665	0	1	0	0	CorrectCommission	0.346995	0.851609	0	0	94
45.738037	1.292734	city	9	1	0.931715	0.931715	0	1	0	0	CorrectCommission	0.799540	0.853381	0	0	94
47.024246	1.279680	city	2	1	1.231432	1.231432	0	1	0	0	CorrectCommission	0.346105	0.862022	0	0	94
48.303902	1.279635	city	7	1	1.532607	1.532607	0	1	0	0	CorrectCommission	1.497320	0.878640	0	0	94
49.590084	1.292726	city	10	1	0.886280	0.886280	0	1	0	0	CorrectCommission	0.973210	0.903814	0	0	94
50.876369	1.279850	city	1	1	1.311942	1.311942	0	1	0	0	CorrectCommission	0.653847	0.937648	0	0	94
52.162613	1.292637	city	6	1	1.018288	1.018288	0	1	0	0	CorrectCommission	0.468621	0.979821	0	0	94
53.455463	1.293064	city	1	1	0.930965	0.930965	0	1	0	0	CorrectCommission	0.802406	1.029606	0	0	94
54.748371	1.292748	city	5	1	1.243343	1.243343	0	1	0	0	CorrectCommission	0.391635	1.085926	0	0	94
56.034611	1.279731	city	3	1	1.666368	1.666368	0	1	0	0	CorrectCommission	2.008610	1.147455	0	0	94
57.314270	1.279588	city	8	1	1.018492	1.018492	0	1	0	0	CorrectCommission	0.467840	1.212614	0	0	94
57.954063	23.818838	break	0	0	0.000000	0.678085	0	0	0	0	ThoughtProbe	1.769017	1.279753	0	94	94
82.412689	1.279572	city	8	0	0.000000	0.587775	0	0	0	1	OmissionError	2.114223	1.346994	0	0	9.377500e+01
83.692184	1.279425	city	9	0	0.000000	0.690188	0	0	0	1	OmissionError	1.722757	1.412314	0	0	9.355000e+01
84.971779	1.279760	mountain	7	0	0.000000	0.927952	1	0	0	0	CorrectOmission	0.813921	1.473499	0	0	9.332500e+01
86.251358	1.279400	mountain	4	0	0.000000	1.243696	1	0	0	0	CorrectOmission	0.392982	1.528122	0	0	9.310000e+01
87.537529	1.292931	city	9	1	1.580046	1.580046	0	1	0	0	CorrectCommission	1.678653	1.573532	0	0	9.287500e+01
88.823837	1.279696	city	5	1	1.879630	1.879630	0	1	0	0	CorrectCommission	2.823790	1.606908	0	0	9.265000e+01
90.103485	1.279594	city	10	1	1.769844	1.769844	0	1	0	0	CorrectCommission	2.404140	1.625492	0	0	9.242500e+01
91.383064	1.279565	city	3	0	0.000000	1.558695	0	0	0	1	OmissionError	1.597040	1.626802	0	0	9.220000e+01
92.669235	1.292782	city	8	1	1.457739	1.457739	0	1	0	0	CorrectCommission	1.211145	1.608941	0	0	9.197500e+01
93.962151	1.293043	city	9	1	1.678533	1.678533	0	1	0	0	CorrectCommission	2.055112	1.570832	0	0	9.175000e+01
95.248390	1.279440	city	7	1	1.778428	1.778428	0	1	0	0	CorrectCommission	2.436952	1.512502	0	0	9.152500e+01
96.527893	1.279571	city	5	0	0.000000	1.663053	0	0	0	1	OmissionError	1.995939	1.435276	0	0	9.130000e+01
97.807556	1.279750	city	4	1	1.568864	1.568864	0	1	0	0	CorrectCommission	1.635910	1.341827	0	0	9.107500e+01
99.087280	1.279693	city	1	1	1.732318	1.732318	0	1	0	0	CorrectCommission	2.260700	1.236045	0	0	9.085000e+01
100.366798	1.279350	city	6	1	1.446838	1.446838	0	1	0	0	CorrectCommission	1.169476	1.122748	0	0	9.062500e+01
101.652977	1.293009	city	8	1	1.072161	1.072161	0	1	0	0	CorrectCommission	0.262695	1.007364	0	0	9.040000e+01
102.939285	1.279594	city	3	1	1.188442	1.188442	0	1	0	0	CorrectCommission	0.181778	0.895403	0	0	9.017500e+01
104.238838	1.319513	city	5	1	1.099502	1.099502	0	1	0	0	CorrectCommission	0.158185	0.791975	0	0	8.995000e+01
105.538406	1.279631	city	1	1	0.930902	0.930902	0	1	0	0	CorrectCommission	0.802646	0.701397	1	0	8.972500e+01
106.844673	1.332893	city	10	1	1.180109	1.180109	0	1	0	0	CorrectCommission	0.149929	0.626801	1	0	8.950000e+01
108.157562	1.292887	city	9	1	1.088229	1.088229	0	1	0	0	CorrectCommission	0.201277	0.570066	1	0	8.927500e+01
109.443802	1.279598	city	6	1	1.150758	1.150758	0	1	0	0	CorrectCommission	0.037736	0.531698	1	0	8.905000e+01
110.756729	1.346252	city	7	1	1.208952	1.208952	0	1	0	0	CorrectCommission	0.260176	0.510947	1	0	8.882500e+01
112.082932	1.306157	city	1	1	1.255287	1.255287	0	1	0	0	CorrectCommission	0.437287	0.506014	1	0	8.860000e+01
113.389084	1.306156	city	5	1	1.207807	1.207807	0	1	0	0	CorrectCommission	0.255800	0.514299	1	0	8.837500e+01
114.681984	1.279632	city	10	1	1.039822	1.039822	0	1	0	0	CorrectCommission	0.386307	0.532731	1	0	8.815000e+01
115.961617	1.279645	city	9	1	0.916738	0.916738	0	1	0	0	CorrectCommission	0.856789	0.558021	1	0	8.792500e+01
117.261223	1.319566	city	1	1	0.898966	0.898966	0	1	0	0	CorrectCommission	0.924719	0.586960	1	0	8.770000e+01
118.560722	1.279422	mountain	9	0	0.000000	1.056351	1	0	0	0	CorrectOmission	0.323128	0.616673	1	0	8.747500e+01
119.840294	1.279733	city	8	1	1.130253	1.130253	0	1	0	0	CorrectCommission	0.040644	0.644852	1	0	8.725000e+01
121.126617	1.292903	city	2	1	0.862032	0.862032	0	1	0	0	CorrectCommission	1.065894	0.669848	1	0	8.702500e+01
122.412857	1.279582	city	8	1	0.869156	0.869156	0	1	0	0	CorrectCommission	1.038664	0.690705	1	0	8.680000e+01
123.692368	1.279431	city	5	1	1.636537	1.636537	0	1	0	0	CorrectCommission	1.894586	0.707175	1	0	8.657500e+01
124.985275	1.306387	city	8	1	0.957952	0.957952	0	1	0	0	CorrectCommission	0.699249	0.719579	1	0	8.635000e+01
126.284866	1.292807	city	10	1	0.944093	0.944093	0	1	0	0	CorrectCommission	0.752224	0.728657	1	0	8.612500e+01
127.597763	1.332984	city	4	1	1.112134	1.112134	0	1	0	0	CorrectCommission	0.109903	0.735271	1	0	8.590000e+01
128.904053	1.279592	city	6	1	1.081488	1.081488	0	1	0	0	CorrectCommission	0.227045	0.740175	1	0	8.567500e+01
130.196976	1.306267	city	9	1	0.940231	0.940231	0	1	0	0	CorrectCommission	0.766988	0.743808	1	0	8.545000e+01
131.496552	1.292878	city	1	1	1.056874	1.056874	0	1	0	0	CorrectCommission	0.321130	0.746182	1	0	8.522500e+01
132.142990	11.422854	break	0	1	0.957026	0.957026	0	0	0	0	ThoughtProbe	0.702789	0.746912	1	85	85
144.205673	1.279657	city	2	1	1.456193	1.456193	0	1	0	0	CorrectCommission	1.205236	0.745291	1	0	8.444118e+01
145.485306	1.279605	city	5	1	1.461358	1.461358	0	1	0	0	CorrectCommission	1.224977	0.740539	1	0	8.388235e+01
146.764877	1.279546	city	3	1	1.510758	1.510758	0	1	0	0	CorrectCommission	1.413804	0.731982	1	0	8.332353e+01
148.051117	1.292913	city	1	1	1.272329	1.272329	0	1	0	0	CorrectCommission	0.502432	0.719250	1	0	8.276471e+01
149.337357	1.279575	city	6	1	1.302120	1.302120	0	1	0	0	CorrectCommission	0.616302	0.702414	1	0	8.220588e+01
150.623596	1.292890	city	7	1	0.990368	0.990368	0	1	0	0	CorrectCommission	0.575341	0.682014	1	0	8.164706e+01
151.909744	1.279411	city	3	1	0.924366	0.924366	0	1	0	0	CorrectCommission	0.827631	0.659029	1	0	8.108824e+01
153.195984	1.293071	city	5	1	1.205559	1.205559	0	1	0	0	CorrectCommission	0.247207	0.634824	1	0	8.052941e+01
154.488892	1.292759	mountain	9	0	0.000000	1.366246	1	0	0	0	CorrectOmission	0.861418	0.611078	1	0	7.997059e+01
155.781815	1.293077	city	6	1	1.319322	1.319322	0	1	0	0	CorrectCommission	0.682058	0.589621	1	0	7.941176e+01
157.074722	1.292749	city	9	1	0.977686	0.977686	0	1	0	0	CorrectCommission	0.623819	0.572376	1	0	7.885294e+01
158.360962	1.279724	city	4	1	1.091899	1.091899	0	1	0	0	CorrectCommission	0.187248	0.561204	1	0	7.829412e+01
159.653946	1.306233	mountain	9	0	0.000000	1.195691	1	0	0	0	CorrectOmission	0.209487	0.557792	1	0	7.773529e+01
160.946854	1.279581	city	8	1	1.133318	1.133318	0	1	0	0	CorrectCommission	0.028930	0.563533	1	0	7.717647e+01
162.239685	1.306087	city	3	1	0.749036	0.749036	0	1	0	0	CorrectCommission	1.497815	0.579375	1	0	7.661765e+01
163.546509	1.307556	city	2	1	1.051746	1.051746	0	1	0	0	CorrectCommission	0.340731	0.605713	1	0	7.605882e+01
164.839493	1.278407	city	5	1	1.197710	1.197710	0	1	0	0	CorrectCommission	0.217207	0.642299	1	0	7.550000e+01
166.118500	1.279629	city	8	1	1.076901	1.076901	0	1	0	0	CorrectCommission	0.244577	0.688115	1	0	7.494118e+01
167.411346	1.306043	city	3	1	1.173123	1.173123	0	1	0	0	CorrectCommission	0.123223	0.741368	1	0	7.438235e+01
168.724213	1.319710	city	7	1	1.134185	1.134185	0	1	0	0	CorrectCommission	0.025614	0.799540	0	0	7.382353e+01
170.023865	1.279579	city	10	1	0.750419	0.750419	0	1	0	0	CorrectCommission	1.492529	0.859579	0	0	7.326471e+01
171.303436	1.279574	city	6	1	1.461498	1.461498	0	1	0	0	CorrectCommission	1.225514	0.918091	0	0	7.270588e+01
172.589600	1.292749	city	3	1	0.763630	0.763630	0	1	0	0	CorrectCommission	1.442030	0.971704	0	0	7.214706e+01
173.875854	1.279745	city	10	1	0.760344	0.760344	0	1	0	0	CorrectCommission	1.454591	1.017319	0	0	7.158824e+01
175.162186	1.292935	city	2	1	0.567683	0.567683	0	1	0	0	CorrectCommission	2.191022	1.052402	0	0	7.102941e+01
176.468414	1.319511	city	3	1	1.010746	1.010746	0	1	0	0	CorrectCommission	0.497450	1.075171	0	0	7.047059e+01
177.774643	1.292954	city	5	1	1.038602	1.038602	0	1	0	0	CorrectCommission	0.390973	1.084749	0	0	6.991176e+01
179.067490	1.292751	city	8	1	0.761478	0.761478	0	1	0	0	CorrectCommission	1.450256	1.081149	0	0	6.935294e+01
180.367065	1.306371	city	6	1	0.725557	0.725557	0	1	0	0	CorrectCommission	1.587562	1.065229	0	0	6.879412e+01
181.660034	1.279582	city	2	1	0.611617	0.611617	0	1	0	0	CorrectCommission	2.023087	1.038666	0	0	6.823529e+01
182.952881	1.306097	city	7	1	0.890845	0.890845	0	1	0	0	CorrectCommission	0.955759	1.003765	0	0	6.767647e+01
184.252411	1.292985	city	3	1	0.876670	0.876670	0	1	0	0	CorrectCommission	1.009946	0.963333	0	0	6.711765e+01
185.538742	1.279660	city	10	1	1.364560	1.364560	0	1	0	0	CorrectCommission	0.854975	0.920399	0	0	6.655882e+01
186.178574	9.130352	break	0	1	1.109173	1.109173	0	0	0	0	ThoughtProbe	0.121221	0.878005	0	66	66
195.948608	1.279372	city	6	1	1.421410	1.421410	0	1	0	0	CorrectCommission	1.072282	0.838968	0	0	6.615000e+01
197.241409	1.306239	city	7	1	1.270012	1.270012	0	1	0	0	CorrectCommission	0.493575	0.805628	0	0	6.630000e+01
198.540985	1.292907	city	5	1	1.029901	1.029901	0	1	0	0	CorrectCommission	0.424230	0.779760	0	0	6.645000e+01
199.827316	1.279761	city	3	1	0.938705	0.938705	0	1	0	0	CorrectCommission	0.772819	0.762446	1	0	6.660000e+01
201.140320	1.346227	city	6	1	1.207519	1.207519	0	1	0	0	CorrectCommission	0.254700	0.754095	1	0	6.675000e+01
202.459793	1.292748	city	8	1	0.923670	0.923670	0	1	0	0	CorrectCommission	0.830291	0.754495	1	0	6.690000e+01
203.746002	1.279659	city	6	1	0.934564	0.934564	0	1	0	0	CorrectCommission	0.788648	0.762906	1	0	6.705000e+01
205.052307	1.332946	city	7	1	0.862493	0.862493	0	1	0	0	CorrectCommission	1.064135	0.778218	0	0	6.720000e+01
206.371826	1.306080	city	4	1	1.094432	1.094432	0	1	0	0	CorrectCommission	0.177565	0.799048	0	0	6.735000e+01
207.664734	1.279745	mountain	3	0	0.000000	1.356901	1	0	0	0	CorrectOmission	0.825700	0.823934	0	0	6.750000e+01
208.944397	1.279573	city	3	1	1.402787	1.402787	0	1	0	0	CorrectCommission	1.001096	0.851413	0	0	6.765000e+01
210.223984	1.279620	mountain	6	1	0.984978	0.984978	0	0	1	0	CommissionError	0.595945	0.880138	0	0	6.780000e+01
211.503586	1.279565	city	5	1	1.469000	1.469000	0	1	0	0	CorrectCommission	1.254191	0.908951	0	0	6.795000e+01
212.789795	1.292862	city	6	1	1.469836	1.469836	0	1	0	0	CorrectCommission	1.257383	0.936924	0	0	6.810000e+01
214.082611	1.292777	city	7	1	0.881040	0.881040	0	1	0	0	CorrectCommission	0.993240	0.963392	0	0	6.825000e+01
215.368851	1.279686	city	2	1	0.915466	0.915466	0	1	0	0	CorrectCommission	0.861648	0.987899	0	0	6.840000e+01
216.661835	1.306287	city	7	1	0.890943	0.890943	0	1	0	0	CorrectCommission	0.955385	1.010165	0	0	6.855000e+01
217.968018	1.306094	city	3	1	0.832012	0.832012	0	1	0	0	CorrectCommission	1.180645	1.030029	0	0	6.870000e+01
219.267609	1.293065	city	6	1	1.375827	1.375827	0	1	0	0	CorrectCommission	0.898041	1.047388	0	0	6.885000e+01
220.593826	1.359375	city	8	1	0.877166	0.877166	0	1	0	0	CorrectCommission	1.008048	1.062155	0	0	69
221.920044	1.293064	city	7	1	1.315629	1.315629	0	1	0	0	CorrectCommission	0.667940	1.074192	0	0	6.915000e+01
223.239609	1.346074	city	5	1	1.699301	1.699301	0	1	0	0	CorrectCommission	2.134497	1.083372	0	0	6.930000e+01
224.565826	1.306364	city	7	1	0.940679	0.940679	0	1	0	0	CorrectCommission	0.765273	1.089463	0	0	6.945000e+01
225.872055	1.306097	city	8	1	1.544398	1.544398	0	1	0	0	CorrectCommission	1.542393	1.092286	0	0	6.960000e+01
227.184891	1.319569	city	10	1	0.955079	0.955079	0	1	0	0	CorrectCommission	0.710230	1.091614	0	0	6.975000e+01
228.484558	1.279767	city	6	1	1.440062	1.440062	0	1	0	0	CorrectCommission	1.143577	1.087282	0	0	6.990000e+01
229.777557	1.306209	city	3	1	0.905954	0.905954	0	1	0	0	CorrectCommission	0.898008	1.079182	0	0	7.005000e+01
231.070450	1.279600	city	8	1	0.911917	0.911917	0	1	0	0	CorrectCommission	0.875216	1.067336	0	0	7.020000e+01
232.356705	1.292913	city	10	1	0.870747	0.870747	0	1	0	0	CorrectCommission	1.032586	1.051929	0	0	7.035000e+01
233.656204	1.306065	mountain	5	1	0.604272	0.604272	0	0	1	0	CommissionError	2.051162	1.033346	0	0	7.050000e+01
234.949066	1.279655	city	7	1	1.431034	1.431034	0	1	0	0	CorrectCommission	1.109066	1.012176	0	0	7.065000e+01
236.262054	1.346330	city	1	1	0.854387	0.854387	0	1	0	0	CorrectCommission	1.095119	0.989213	0	0	7.080000e+01
237.574982	1.279535	city	4	1	1.340325	1.340325	0	1	0	0	CorrectCommission	0.762340	0.965288	0	0	7.095000e+01
238.874542	1.319574	city	8	1	0.943644	0.943644	0	1	0	0	CorrectCommission	0.753941	0.941209	0	0	7.110000e+01
240.194077	1.319497	city	10	1	0.979982	0.979982	0	1	0	0	CorrectCommission	0.615041	0.917591	0	0	7.125000e+01
241.500229	1.292812	city	3	1	1.244398	1.244398	0	1	0	0	CorrectCommission	0.395665	0.894797	0	0	7.140000e+01
242.799835	1.306404	city	9	1	0.842903	0.842903	0	1	0	0	CorrectCommission	1.139015	0.872904	0	0	7.155000e+01
244.092834	1.279601	city	6	1	0.927789	0.927789	0	1	0	0	CorrectCommission	0.814546	0.851791	0	0	7.170000e+01
245.372437	1.279577	city	7	1	0.911082	0.911082	0	1	0	0	CorrectCommission	0.878406	0.831277	0	0	7.185000e+01
246.012222	10.423184	break	0	1	1.026499	1.026499	0	0	0	0	ThoughtProbe	0.437234	0.811263	0	72	72
257.088531	1.306263	city	6	1	1.595859	1.595859	0	1	0	0	CorrectCommission	1.739096	0.791944	0	0	7.247059e+01
258.381470	1.279606	city	3	1	1.401291	1.401291	0	1	0	0	CorrectCommission	0.995376	0.773895	0	0	7.294118e+01
259.674377	1.306231	city	4	1	1.399033	1.399033	0	1	0	0	CorrectCommission	0.986747	0.758172	1	0	7.341176e+01
260.980621	1.306223	city	2	1	1.219062	1.219062	0	1	0	0	CorrectCommission	0.298820	0.746157	1	0	7.388235e+01
262.281860	1.296296	city	8	1	1.243481	1.243481	0	1	0	0	CorrectCommission	0.392160	0.739442	1	0	7.435294e+01
263.568054	1.276052	mountain	3	0	0.000000	1.304118	1	0	0	0	CorrectOmission	0.623942	0.739535	1	0	7.482353e+01
264.845856	1.279574	city	9	1	1.301173	1.301173	0	1	0	0	CorrectCommission	0.612683	0.747609	1	0	7.529412e+01
266.152161	1.333051	city	3	1	1.134842	1.134842	0	1	0	0	CorrectCommission	0.023104	0.764262	1	0	7.576471e+01
267.471832	1.306246	city	5	1	1.047562	1.047562	0	1	0	0	CorrectCommission	0.356724	0.789348	0	0	7.623529e+01
268.784668	1.319437	city	4	1	0.998885	0.998885	0	1	0	0	CorrectCommission	0.542788	0.821870	0	0	7.670588e+01
270.090912	1.293032	city	10	1	0.723042	0.723042	0	1	0	0	CorrectCommission	1.597174	0.860070	0	0	7.717647e+01
271.383820	1.292825	city	7	1	1.414940	1.414940	0	1	0	0	CorrectCommission	1.047549	0.901497	0	0	7.764706e+01
272.696655	1.332799	city	3	1	0.867732	0.867732	0	1	0	0	CorrectCommission	1.044109	0.943278	0	0	7.811765e+01
274.009521	1.292937	city	9	1	0.925835	0.925835	0	1	0	0	CorrectCommission	0.822014	0.982335	0	0	7.858824e+01
275.295837	1.279729	city	7	1	0.925997	0.925997	0	1	0	0	CorrectCommission	0.821396	1.015681	0	0	7.905882e+01
276.608734	1.346048	city	4	1	1.120026	1.120026	0	1	0	0	CorrectCommission	0.079735	1.040683	0	0	7.952941e+01
277.954865	1.346209	city	7	1	1.778156	1.778156	0	1	0	0	CorrectCommission	2.435911	1.055348	0	0	80
279.267853	1.279775	city	3	1	1.729670	1.729670	0	1	0	0	CorrectCommission	2.250577	1.058454	0	0	8.047059e+01
280.567505	1.319536	city	1	1	1.503719	1.503719	0	1	0	0	CorrectCommission	1.386899	1.049845	0	0	8.094118e+01
281.867065	1.279583	city	7	1	1.289838	1.289838	0	1	0	0	CorrectCommission	0.569356	1.030349	0	0	8.141176e+01
283.146637	1.279578	city	5	1	1.517807	1.517807	0	1	0	0	CorrectCommission	1.440750	1.001728	0	0	8.188235e+01
284.432831	1.292766	city	8	1	0.831572	0.831572	0	1	0	0	CorrectCommission	1.182329	0.966490	0	0	8.235294e+01
285.725739	1.293074	city	3	1	0.873859	0.873859	0	1	0	0	CorrectCommission	1.020689	0.927661	0	0	8.282353e+01
287.018738	1.292896	mountain	10	0	0.000000	1.113463	1	0	0	0	CorrectOmission	0.104823	0.888497	0	0	8.329412e+01
288.311584	1.292830	city	3	1	1.310475	1.310475	0	1	0	0	CorrectCommission	0.648241	0.852207	0	0	8.376471e+01
289.611176	1.306325	city	10	1	1.224987	1.224987	0	1	0	0	CorrectCommission	0.321470	0.821660	0	0	8.423529e+01
290.904053	1.279483	city	5	1	1.398119	1.398119	0	1	0	0	CorrectCommission	0.983253	0.799283	0	0	8.470588e+01
292.203552	1.319481	city	10	1	0.923650	0.923650	0	1	0	0	CorrectCommission	0.830365	0.786843	0	0	8.517647e+01
293.509827	1.293088	city	7	1	1.187614	1.187614	0	1	0	0	CorrectCommission	0.178613	0.785448	0	0	8.564706e+01
294.796082	1.279395	city	5	1	1.465867	1.465867	0	1	0	0	CorrectCommission	1.242213	0.795479	0	0	8.611765e+01
296.088989	1.306452	city	2	1	0.831738	0.831738	0	1	0	0	CorrectCommission	1.181693	0.816491	0	0	8.658824e+01
297.395264	1.306072	city	6	1	1.133031	1.133031	0	1	0	0	CorrectCommission	0.030027	0.847254	0	0	8.705882e+01
298.694733	1.292901	city	7	1	1.192517	1.192517	0	1	0	0	CorrectCommission	0.197354	0.885769	0	0	8.752941e+01
299.341187	8.143964	break	0	0	0.000000	1.330139	0	0	0	0	ThoughtProbe	0.723403	0.929302	0	88	88
308.125031	1.279717	city	5	1	1.326341	1.326341	0	1	0	0	CorrectCommission	0.708888	0.974572	0	0	8.797826e+01
309.431335	1.332899	city	8	1	0.961569	0.961569	0	1	0	0	CorrectCommission	0.685423	1.018050	0	0	8.795652e+01
310.744232	1.292905	city	5	1	1.001242	1.001242	0	1	0	0	CorrectCommission	0.533776	1.056305	0	0	8.793478e+01
312.030426	1.279462	mountain	10	1	2.252083	2.252083	0	0	1	0	CommissionError	4.247460	1.086405	0	0	8.791304e+01
313.323334	1.306398	city	2	1	1.606625	1.606625	0	1	0	0	CorrectCommission	1.780250	1.106135	0	0	8.789130e+01
314.643005	1.332896	city	5	1	1.274478	1.274478	0	1	0	0	CorrectCommission	0.510643	1.114433	0	0	8.786957e+01
315.962555	1.306221	city	3	1	0.946167	0.946167	0	1	0	0	CorrectCommission	0.744296	1.111325	0	0	8.784783e+01
317.268738	1.306167	city	1	1	0.839244	0.839244	0	1	0	0	CorrectCommission	1.153001	1.097866	0	0	8.782609e+01
318.561554	1.279464	city	9	1	0.817192	0.817192	0	1	0	0	CorrectCommission	1.237292	1.075907	0	0	8.780435e+01
319.841125	1.279651	city	10	1	0.756924	0.756924	0	1	0	0	CorrectCommission	1.467664	1.047837	0	0	8.778261e+01
321.134064	1.306253	city	3	1	1.051449	1.051449	0	1	0	0	CorrectCommission	0.341865	1.016245	0	0	8.776087e+01
322.440277	1.306193	mountain	6	1	0.671348	0.671348	0	0	1	0	CommissionError	1.794772	0.983667	0	0	8.773913e+01
323.733154	1.279542	city	9	1	1.192272	1.192272	0	1	0	0	CorrectCommission	0.196419	0.952237	0	0	8.771739e+01
325.012726	1.279604	city	8	1	0.931994	0.931994	0	1	0	0	CorrectCommission	0.798474	0.923647	0	0	8.769565e+01
326.299011	1.292930	city	7	1	0.931737	0.931737	0	1	0	0	CorrectCommission	0.799453	0.898953	0	0	8.767391e+01
327.591980	1.293017	mountain	8	0	0.000000	1.040268	1	0	0	0	CorrectOmission	0.384605	0.878622	0	0	8.765217e+01
328.891602	1.306246	city	1	1	1.263510	1.263510	0	1	0	0	CorrectCommission	0.468721	0.862625	0	0	8.763043e+01
330.197784	1.306117	city	7	1	1.607391	1.607391	0	1	0	0	CorrectCommission	1.783177	0.850481	0	0	8.760870e+01
331.510681	1.319669	city	1	1	0.777526	0.777526	0	1	0	0	CorrectCommission	1.388914	0.841385	0	0	8.758696e+01
332.823578	1.306110	city	5	1	1.293321	1.293321	0	1	0	0	CorrectCommission	0.582669	0.834383	0	0	8.756522e+01
334.123077	1.292898	city	4	1	1.211023	1.211023	0	1	0	0	CorrectCommission	0.268093	0.828475	0	0	8.754348e+01
335.436035	1.333011	city	2	1	1.024158	1.024158	0	1	0	0	CorrectCommission	0.446185	0.822664	0	0	8.752174e+01
336.742279	1.279478	city	4	1	1.301074	1.301074	0	1	0	0	CorrectCommission	0.612307	0.816059	0	0	8.750000e+01
338.028442	1.292892	mountain	4	0	0.000000	1.492165	1	0	0	0	CorrectOmission	1.342735	0.807998	0	0	8.747826e+01
339.314789	1.279743	city	6	1	1.441301	1.441301	0	1	0	0	CorrectCommission	1.148313	0.798151	0	0	8.745652e+01
340.621094	1.332893	city	1	1	0.992355	0.992355	0	1	0	0	CorrectCommission	0.567746	0.786537	0	0	8.743478e+01
341.934326	1.293581	city	7	1	1.520153	1.520153	0	1	0	0	CorrectCommission	1.449718	0.773670	0	0	8.741304e+01
343.240479	1.318713	city	5	1	1.326032	1.326032	0	1	0	0	CorrectCommission	0.707704	0.760431	1	0	8.739130e+01
344.552948	1.306234	city	2	1	0.942860	0.942860	0	1	0	0	CorrectCommission	0.756936	0.748018	1	0	8.736957e+01
345.879272	1.346404	city	7	1	1.022262	1.022262	0	1	0	0	CorrectCommission	0.453431	0.737701	1	0	8.734783e+01
347.198914	1.292912	city	8	1	0.928392	0.928392	0	1	0	0	CorrectCommission	0.812239	0.730599	1	0	8.732609e+01
348.511841	1.332895	city	1	1	1.033792	1.033792	0	1	0	0	CorrectCommission	0.409358	0.727432	1	0	8.730435e+01
349.824738	1.292913	city	10	1	1.100319	1.100319	0	1	0	0	CorrectCommission	0.155064	0.728398	1	0	8.728261e+01
351.124207	1.306043	city	2	1	1.254644	1.254644	0	1	0	0	CorrectCommission	0.434830	0.733008	1	0	8.726087e+01
352.417114	1.279749	city	4	1	1.071248	1.071248	0	1	0	0	CorrectCommission	0.266185	0.740186	1	0	8.723913e+01
353.716675	1.319412	city	10	1	0.861030	0.861030	0	1	0	0	CorrectCommission	1.069727	0.748432	1	0	8.721739e+01
355.029602	1.306390	city	6	1	1.499086	1.499086	0	1	0	0	CorrectCommission	1.369191	0.756021	1	0	8.719565e+01
356.355835	1.346090	city	2	1	0.839239	0.839239	0	1	0	0	CorrectCommission	1.153020	0.761362	1	0	8.717391e+01
357.668732	1.279701	city	4	1	1.253076	1.253076	0	1	0	0	CorrectCommission	0.428837	0.763259	1	0	8.715217e+01
358.955048	1.292915	city	7	1	0.712742	0.712742	0	1	0	0	CorrectCommission	1.636545	0.761081	1	0	8.713043e+01
360.247955	1.292910	city	1	1	0.831894	0.831894	0	1	0	0	CorrectCommission	1.181096	0.754829	1	0	8.710870e+01
361.540771	1.292749	city	6	1	1.082623	1.082623	0	1	0	0	CorrectCommission	0.222704	0.745162	1	0	8.708696e+01
362.840332	1.306368	city	5	1	1.259267	1.259267	0	1	0	0	CorrectCommission	0.452500	0.733232	1	0	8.706522e+01
364.139984	1.292934	city	2	1	0.949103	0.949103	0	1	0	0	CorrectCommission	0.733076	0.720441	1	0	8.704348e+01
365.426178	1.279443	city	6	1	1.092766	1.092766	0	1	0	0	CorrectCommission	0.183934	0.708239	1	0	8.702174e+01
366.065887	9.236954	break	0	1	0.893547	0.893547	0	0	0	0	ThoughtProbe	0.945433	0.697927	1	87	87
375.976105	1.346498	city	1	1	1.239166	1.239166	0	1	0	0	CorrectCommission	0.375666	0.690453	1	0	8.714706e+01
377.309082	1.319449	city	10	1	1.396168	1.396168	0	1	0	0	CorrectCommission	0.975796	0.686379	1	0	8.729412e+01
378.621918	1.306242	city	2	1	1.454860	1.454860	0	1	0	0	CorrectCommission	1.200139	0.685747	1	0	8.744118e+01
379.914764	1.279424	city	8	1	1.178716	1.178716	0	1	0	0	CorrectCommission	0.144601	0.688129	1	0	8.758824e+01
381.194244	1.279569	mountain	1	0	0.000000	1.245368	1	0	0	0	CorrectOmission	0.399374	0.692676	1	0	8.773529e+01
382.473816	1.279595	city	2	1	1.357135	1.357135	0	1	0	0	CorrectCommission	0.826594	0.698139	1	0	8.788235e+01
383.766815	1.306387	city	9	1	1.216335	1.216335	0	1	0	0	CorrectCommission	0.288397	0.702998	1	0	8.802941e+01
385.086456	1.332897	city	7	1	1.248874	1.248874	0	1	0	0	CorrectCommission	0.412774	0.705662	1	0	8.817647e+01
386.392700	1.279582	city	5	1	1.519470	1.519470	0	1	0	0	CorrectCommission	1.447105	0.704619	1	0	8.832353e+01
387.672211	1.279414	city	7	1	1.312615	1.312615	0	1	0	0	CorrectCommission	0.656418	0.698661	1	0	8.847059e+01
388.971771	1.319727	mountain	5	0	0.000000	1.459694	1	0	0	0	CorrectOmission	1.218616	0.687090	1	0	8.861765e+01
390.284760	1.306230	city	7	1	1.498102	1.498102	0	1	0	0	CorrectCommission	1.365430	0.669824	1	0	8.876471e+01
391.577576	1.279416	city	6	1	0.965237	0.965237	0	1	0	0	CorrectCommission	0.671405	0.647422	1	0	8.891176e+01
392.890411	1.346235	city	4	1	0.955524	0.955524	0	1	0	0	CorrectCommission	0.708529	0.621091	1	0	8.905882e+01
394.216644	1.306234	city	2	1	1.148704	1.148704	0	1	0	0	CorrectCommission	0.029885	0.592525	1	0	8.920588e+01
395.529602	1.319704	city	5	1	1.201911	1.201911	0	1	0	0	CorrectCommission	0.233263	0.563720	1	0	8.935294e+01
396.855927	1.332950	city	1	1	1.016509	1.016509	0	1	0	0	CorrectCommission	0.475421	0.536786	1	0	8.950000e+01
398.175537	1.306249	city	4	1	1.281392	1.281392	0	1	0	0	CorrectCommission	0.537071	0.513748	1	0	8.964706e+01
399.481750	1.306171	city	3	1	0.945176	0.945176	0	1	0	0	CorrectCommission	0.748083	0.496406	1	0	8.979412e+01
400.794617	1.319566	city	10	1	1.218212	1.218212	0	1	0	0	CorrectCommission	0.295571	0.486190	1	0	8.994118e+01
402.094116	1.279438	city	8	1	1.095410	1.095410	0	1	0	0	CorrectCommission	0.173826	0.484133	1	0	9.008824e+01
403.380371	1.293097	city	7	1	1.086298	1.086298	0	1	0	0	CorrectCommission	0.208658	0.490775	1	0	9.023529e+01
404.673370	1.292879	city	9	1	1.092952	1.092952	0	1	0	0	CorrectCommission	0.183225	0.506171	1	0	9.038235e+01
405.959595	1.279566	city	5	1	1.310285	1.310285	0	1	0	0	CorrectCommission	0.647515	0.529873	1	0	9.052941e+01
407.245697	1.292665	city	6	1	1.319171	1.319171	0	1	0	0	CorrectCommission	0.681479	0.560920	1	0	9.067647e+01
408.538605	1.293170	city	4	1	1.210936	1.210936	0	1	0	0	CorrectCommission	0.267759	0.597896	1	0	9.082353e+01
409.864899	1.359371	city	2	1	1.266108	1.266108	0	1	0	0	CorrectCommission	0.478650	0.638985	1	0	9.097059e+01
411.191101	1.293066	city	8	1	1.125083	1.125083	0	1	0	0	CorrectCommission	0.060406	0.682002	1	0	9.111765e+01
412.477417	1.279580	city	5	1	1.520275	1.520275	0	1	0	0	CorrectCommission	1.450182	0.724584	1	0	9.126471e+01
413.777008	1.319591	city	4	1	1.008198	1.008198	0	1	0	0	CorrectCommission	0.507187	0.764272	1	0	9.141176e+01
415.083191	1.292741	city	5	1	1.696753	1.696753	0	1	0	0	CorrectCommission	2.124757	0.798767	0	0	9.155882e+01
416.402649	1.346206	city	3	1	1.188441	1.188441	0	1	0	0	CorrectCommission	0.181775	0.826040	0	0	9.170588e+01
417.715637	1.279760	city	7	1	1.338883	1.338883	0	1	0	0	CorrectCommission	0.756828	0.844612	0	0	9.185294e+01
418.355530	11.489532	break	0	0	0.000000	1.351705	0	0	0	0	ThoughtProbe	0.805838	0.853602	0	92	92
430.491425	1.292768	city	7	1	1.404654	1.404654	0	1	0	0	CorrectCommission	1.008230	0.852928	0	0	9.192500e+01
431.777618	1.279579	city	8	1	1.675476	1.675476	0	1	0	0	CorrectCommission	2.043425	0.843297	0	0	9.185000e+01
433.057220	1.279635	city	2	1	1.412590	1.412590	0	1	0	0	CorrectCommission	1.038568	0.826159	0	0	9.177500e+01
434.336853	1.279663	city	4	1	1.478731	1.478731	0	1	0	0	CorrectCommission	1.291383	0.803596	0	0	9.170000e+01
435.616425	1.279435	city	3	1	1.029166	1.029166	0	1	0	0	CorrectCommission	0.427039	0.778002	0	0	9.162500e+01
436.902679	1.293076	city	7	1	1.244245	1.244245	0	1	0	0	CorrectCommission	0.395080	0.751840	1	0	9.155000e+01
438.188965	1.279487	city	6	1	1.143976	1.143976	0	1	0	0	CorrectCommission	0.011812	0.727288	1	0	9.147500e+01
439.468536	1.279669	city	4	1	1.176304	1.176304	0	1	0	0	CorrectCommission	0.135384	0.706001	1	0	9.140000e+01
440.748138	1.279579	city	7	1	0.964345	0.964345	0	1	0	0	CorrectCommission	0.674814	0.688935	1	0	9.132500e+01
442.027649	1.279420	mountain	7	1	0.914406	0.914406	0	0	1	0	CommissionError	0.865702	0.676337	1	0	9.125000e+01
443.307220	1.279720	mountain	8	0	0.000000	1.274662	1	0	0	0	CorrectOmission	0.511348	0.667872	1	0	9.117500e+01
444.586884	1.279596	city	9	1	1.499944	1.499944	0	1	0	0	CorrectCommission	1.372471	0.662817	1	0	9.110000e+01
445.866364	1.279405	city	2	1	1.045084	1.045084	0	1	0	0	CorrectCommission	0.366195	0.660300	1	0	9.102500e+01
447.145935	1.279736	city	1	1	0.965204	0.965204	0	1	0	0	CorrectCommission	0.671528	0.659595	1	0	9.095000e+01
448.425629	1.279598	city	8	1	1.026516	1.026516	0	1	0	0	CorrectCommission	0.437171	0.660226	1	0	9.087500e+01
449.705200	1.279573	city	5	1	1.390930	1.390930	0	1	0	0	CorrectCommission	0.955774	0.662129	1	0	9.080000e+01
450.991394	1.292806	city	7	1	1.404213	1.404213	0	1	0	0	CorrectCommission	1.006548	0.665557	1	0	9.072500e+01
452.284302	1.293020	city	8	1	0.998450	0.998450	0	1	0	0	CorrectCommission	0.544451	0.671069	1	0	9.065000e+01
453.570587	1.279570	city	2	1	1.228851	1.228851	0	1	0	0	CorrectCommission	0.336239	0.679291	1	0	9.057500e+01
454.850159	1.279545	city	10	1	0.915626	0.915626	0	1	0	0	CorrectCommission	0.861038	0.690759	1	0	9.050000e+01
456.129730	1.279595	city	6	1	1.265961	1.265961	0	1	0	0	CorrectCommission	0.478090	0.705639	1	0	9.042500e+01
457.415985	1.292934	city	4	1	1.081729	1.081729	0	1	0	0	CorrectCommission	0.226121	0.723637	1	0	9.035000e+01
458.702240	1.279571	city	3	1	1.015947	1.015947	0	1	0	0	CorrectCommission	0.477569	0.743907	1	0	9.027500e+01
459.981812	1.279566	city	1	1	1.228806	1.228806	0	1	0	0	CorrectCommission	0.336068	0.765063	0	0	9.020000e+01
461.261322	1.279443	city	7	1	1.390929	1.390929	0	1	0	0	CorrectCommission	0.955771	0.785379	0	0	9.012500e+01
462.547577	1.293063	mountain	5	0	0.000000	1.573845	1	0	0	0	CorrectOmission	1.654951	0.802951	0	0	9.005000e+01
463.840546	1.292879	city	5	1	1.508619	1.508619	0	1	0	0	CorrectCommission	1.405630	0.815986	0	0	8.997500e+01
465.126770	1.279584	city	1	1	0.926317	0.926317	0	1	0	0	CorrectCommission	0.820171	0.822999	0	0	8.990000e+01
466.406281	1.279416	city	4	1	1.356155	1.356155	0	1	0	0	CorrectCommission	0.822849	0.822991	0	0	8.982500e+01
467.685791	1.279609	city	6	1	0.914145	0.914145	0	1	0	0	CorrectCommission	0.866699	0.815506	0	0	8.975000e+01
468.965454	1.279718	city	7	1	1.294623	1.294623	0	1	0	0	CorrectCommission	0.587646	0.800653	0	0	8.967500e+01
470.245117	1.279596	city	3	1	0.857990	0.857990	0	1	0	0	CorrectCommission	1.081347	0.779037	0	0	8.960000e+01
471.531342	1.292903	city	9	1	0.870965	0.870965	0	1	0	0	CorrectCommission	1.031751	0.751687	1	0	8.952500e+01
472.817535	1.279488	city	1	1	0.963399	0.963399	0	1	0	0	CorrectCommission	0.678430	0.719941	1	0	8.945000e+01
474.097137	1.279680	city	8	1	0.911524	0.911524	0	1	0	0	CorrectCommission	0.876719	0.685390	1	0	8.937500e+01
475.376740	1.279554	city	1	1	1.188431	1.188431	0	1	0	0	CorrectCommission	0.181736	0.649746	1	0	8.930000e+01
476.656311	1.279578	city	8	1	1.017628	1.017628	0	1	0	0	CorrectCommission	0.471143	0.614827	1	0	8.922500e+01
477.935883	1.279577	city	2	1	0.939102	0.939102	0	1	0	0	CorrectCommission	0.771303	0.582423	1	0	8.915000e+01
479.215454	1.279566	city	9	1	0.910064	0.910064	0	1	0	0	CorrectCommission	0.882298	0.554278	1	0	8.907500e+01
483.614014	7.517544	break	0	0	0.000000	1.064092	0	0	0	0	ThoughtProbe	0.293537	0.531994	1	89	89
488.012543	1.279506	city	2	1	1.230815	1.230815	0	1	0	0	CorrectCommission	0.343745	0.516954	1	0	8.906522e+01
489.292114	1.279646	mountain	1	0	0.000000	1.239859	1	0	0	0	CorrectOmission	0.378315	0.510147	1	0	8.913043e+01
490.571747	1.279600	city	1	1	1.177505	1.177505	0	1	0	0	CorrectCommission	0.139975	0.512076	1	0	8.919565e+01
491.857910	1.292719	city	8	1	1.130035	1.130035	0	1	0	0	CorrectCommission	0.041475	0.522658	1	0	8.926087e+01
493.144165	1.279783	city	2	1	1.177758	1.177758	0	1	0	0	CorrectCommission	0.140942	0.541161	1	0	8.932609e+01
494.423828	1.279542	city	7	1	1.390484	1.390484	0	1	0	0	CorrectCommission	0.954068	0.566245	1	0	8.939130e+01
495.703369	1.279586	city	3	1	1.068465	1.068465	0	1	0	0	CorrectCommission	0.276823	0.595987	1	0	8.945652e+01
496.989624	1.292924	city	10	1	0.978125	0.978125	0	1	0	0	CorrectCommission	0.622139	0.628113	1	0	8.952174e+01
498.275879	1.279557	city	8	1	0.921479	0.921479	0	1	0	0	CorrectCommission	0.838664	0.660177	1	0	8.958696e+01
499.555389	1.279452	city	3	1	0.804465	0.804465	0	1	0	0	CorrectCommission	1.285942	0.689807	1	0	8.965217e+01
500.834961	1.279711	city	2	1	1.032555	1.032555	0	1	0	0	CorrectCommission	0.414087	0.714924	1	0	8.971739e+01
502.121277	1.292924	mountain	4	0	0.000000	1.346527	1	0	0	0	CorrectOmission	0.786047	0.733962	1	0	8.978261e+01
503.407532	1.279558	city	2	1	1.389495	1.389495	0	1	0	0	CorrectCommission	0.950288	0.745982	1	0	8.984783e+01
504.687012	1.279440	city	10	1	0.804571	0.804571	0	1	0	0	CorrectCommission	1.285537	0.750739	1	0	8.991304e+01
505.966614	1.279720	city	6	1	1.396108	1.396108	0	1	0	0	CorrectCommission	0.975567	0.748660	1	0	8.997826e+01
507.246185	1.279434	city	9	1	0.804210	0.804210	0	1	0	0	CorrectCommission	1.286916	0.740778	1	0	9.004348e+01
508.525757	1.279727	city	3	1	1.143472	1.143472	0	1	0	0	CorrectCommission	0.009886	0.728503	1	0	9.010870e+01
509.805420	1.279622	city	5	1	0.961890	0.961890	0	1	0	0	CorrectCommission	0.684196	0.713495	1	0	9.017391e+01
511.091675	1.292862	city	2	1	1.241869	1.241869	0	1	0	0	CorrectCommission	0.385998	0.697369	1	0	9.023913e+01
512.377808	1.279433	mountain	5	0	0.000000	1.391664	1	0	0	0	CorrectOmission	0.958579	0.681563	1	0	9.030435e+01
513.657410	1.279746	city	10	1	1.340480	1.340480	0	1	0	0	CorrectCommission	0.762930	0.667171	1	0	9.036957e+01
514.937073	1.279559	city	9	1	1.017517	1.017517	0	1	0	0	CorrectCommission	0.471566	0.654920	1	0	9.043478e+01
516.216614	1.279568	city	8	1	1.121823	1.121823	0	1	0	0	CorrectCommission	0.072865	0.645180	1	0	9.050000e+01
517.496216	1.279620	city	3	1	1.076687	1.076687	0	1	0	0	CorrectCommission	0.245396	0.638049	1	0	9.056522e+01
518.782410	1.292720	city	7	1	1.617511	1.617511	0	1	0	0	CorrectCommission	1.821859	0.633458	1	0	9.063043e+01
520.068604	1.279731	city	4	1	1.101473	1.101473	0	1	0	0	CorrectCommission	0.150652	0.631290	1	0	9.069565e+01
521.348267	1.279605	city	3	1	1.071009	1.071009	0	1	0	0	CorrectCommission	0.267099	0.631571	1	0	9.076087e+01
522.627808	1.279449	city	7	1	1.471425	1.471425	0	1	0	0	CorrectCommission	1.263460	0.634412	1	0	9.082609e+01
523.907349	1.279683	city	2	1	0.913693	0.913693	0	1	0	0	CorrectCommission	0.868426	0.640022	1	0	9.089130e+01
525.193604	1.292761	mountain	9	0	0.000000	0.962394	1	0	0	0	CorrectOmission	0.682273	0.648629	1	0	9.095652e+01
526.479736	1.279570	city	8	1	1.152247	1.152247	0	1	0	0	CorrectCommission	0.043428	0.660311	1	0	9.102174e+01
527.759338	1.279586	city	9	1	1.017975	1.017975	0	1	0	0	CorrectCommission	0.469817	0.674838	1	0	9.108696e+01
529.045654	1.293086	city	3	1	1.031177	1.031177	0	1	0	0	CorrectCommission	0.419352	0.691509	1	0	9.115217e+01
530.331909	1.279434	city	4	1	1.070987	1.070987	0	1	0	0	CorrectCommission	0.267181	0.709110	1	0	9.121739e+01
531.611511	1.279721	city	10	1	0.862609	0.862609	0	1	0	0	CorrectCommission	1.063691	0.725954	1	0	9.128261e+01
532.891052	1.279404	city	6	1	1.299599	1.299599	0	1	0	0	CorrectCommission	0.606667	0.740005	1	0	9.134783e+01
534.177246	1.292898	city	3	1	0.908708	0.908708	0	1	0	0	CorrectCommission	0.887481	0.749155	1	0	9.141304e+01
535.476868	1.306422	city	9	1	0.764790	0.764790	0	1	0	0	CorrectCommission	1.437594	0.751414	1	0	9.147826e+01
536.769897	1.279581	city	10	1	1.514658	1.514658	0	1	0	0	CorrectCommission	1.428712	0.745225	1	0	9.154348e+01
538.049438	1.279560	city	6	1	1.444189	1.444189	0	1	0	0	CorrectCommission	1.159351	0.729608	1	0	9.160870e+01
539.329041	1.279586	city	7	1	1.071011	1.071011	0	1	0	0	CorrectCommission	0.267092	0.704293	1	0	9.167391e+01
540.608521	1.279434	city	4	1	0.979604	0.979604	0	1	0	0	CorrectCommission	0.616487	0.669723	1	0	9.173913e+01
541.888123	1.279738	city	6	1	0.868318	0.868318	0	1	0	0	CorrectCommission	1.041867	0.626961	1	0	9.180435e+01
543.167786	1.279553	city	3	1	1.017619	1.017619	0	1	0	0	CorrectCommission	0.471177	0.577597	1	0	9.186957e+01
544.447266	1.279428	city	2	1	1.018126	1.018126	0	1	0	0	CorrectCommission	0.469240	0.523626	1	0	9.193478e+01
545.086975	8.130968	break	0	0	0.000000	1.018633	0	0	0	0	ThoughtProbe	0.467303	0.467303	1	92	92
