onset	duration	trial_type	image_type	Press	ReactionTime	ReactionTime_Interpolated	CorrectOmission	CorrectCommission	CommissionError	OmissionError	response_type	nonsmoothVarianceTimeCourse	VarianceTimeCourse	In_the_Zone	ThoughtProbe	ThoughtProbe_Interpolated
0.651786	1.279640	city	7	1	1.337994	1.337994	0	1	0	0	CorrectCommission	0.728286	0.728286	1	0	77
1.938011	1.292811	city	10	1	1.051573	1.051573	0	1	0	0	CorrectCommission	1.020503	0.784124	1	0	77
3.224268	1.279702	city	6	1	1.501097	1.501097	0	1	0	0	CorrectCommission	1.724137	0.834567	0	0	77
4.503815	1.279394	city	7	1	0.859533	0.859533	0	1	0	0	CorrectCommission	2.193032	0.874906	0	0	77
5.783301	1.279578	city	2	1	1.021713	1.021713	0	1	0	0	CorrectCommission	1.202818	0.901714	0	0	77
7.069638	1.293094	city	3	1	0.991426	0.991426	0	1	0	0	CorrectCommission	1.387740	0.913197	0	0	77
8.355963	1.279557	city	8	1	0.934188	0.934188	0	1	0	0	CorrectCommission	1.737213	0.909243	0	0	77
9.635484	1.279485	mountain	7	0	0.000000	1.096724	1	0	0	0	CorrectOmission	0.744824	0.891251	0	0	77
10.915063	1.279671	city	10	1	1.284299	1.284299	0	1	0	0	CorrectCommission	0.400438	0.861769	0	0	77
12.194608	1.279420	mountain	1	0	0.000000	1.302175	1	0	0	0	CorrectOmission	0.509588	0.823951	0	0	77
13.480744	1.292854	city	2	1	1.195513	1.195513	0	1	0	0	CorrectCommission	0.141653	0.781099	1	0	77
14.787056	1.319768	city	6	1	1.009472	1.009472	0	1	0	0	CorrectCommission	1.277561	0.736273	1	0	77
16.086683	1.279488	city	7	1	1.085404	1.085404	0	1	0	0	CorrectCommission	0.813942	0.691967	1	0	77
17.372936	1.293018	mountain	6	0	0.000000	1.257364	1	0	0	0	CorrectOmission	0.235985	0.650068	1	0	77
18.659220	1.279549	city	6	1	1.341311	1.341311	0	1	0	0	CorrectCommission	0.748536	0.611825	1	0	77
19.945459	1.292929	city	3	1	1.153204	1.153204	0	1	0	0	CorrectCommission	0.399978	0.577946	1	0	77
21.251719	1.319590	city	5	1	1.109046	1.109046	0	1	0	0	CorrectCommission	0.669596	0.548777	1	0	77
22.551300	1.279572	city	6	1	1.187834	1.187834	0	1	0	0	CorrectCommission	0.188540	0.524417	1	0	77
23.837534	1.292897	city	8	1	1.093429	1.093429	0	1	0	0	CorrectCommission	0.764948	0.504855	1	0	77
25.130453	1.292939	city	4	1	1.155278	1.155278	0	1	0	0	CorrectCommission	0.387318	0.490013	1	0	77
26.423372	1.292899	city	8	1	1.079292	1.079292	0	1	0	0	CorrectCommission	0.851263	0.479778	1	0	77
27.709599	1.279553	city	9	1	1.230484	1.230484	0	1	0	0	CorrectCommission	0.071867	0.473949	1	0	77
28.995865	1.292979	city	2	1	1.195073	1.195073	0	1	0	0	CorrectCommission	0.144344	0.472226	1	0	77
30.282106	1.279504	city	4	1	1.197816	1.197816	0	1	0	0	CorrectCommission	0.127594	0.474137	1	0	77
31.568302	1.292890	city	5	1	1.222814	1.222814	0	1	0	0	CorrectCommission	0.025034	0.479064	1	0	77
32.854473	1.279454	city	9	1	1.304421	1.304421	0	1	0	0	CorrectCommission	0.523297	0.486250	1	0	77
34.154034	1.319666	city	10	1	1.451632	1.451632	0	1	0	0	CorrectCommission	1.422117	0.494879	1	0	77
35.460354	1.292969	city	6	1	1.404089	1.404089	0	1	0	0	CorrectCommission	1.131838	0.504122	1	0	77
36.759953	1.306233	city	10	1	1.170055	1.170055	0	1	0	0	CorrectCommission	0.297093	0.513224	1	0	77
38.052864	1.279590	city	8	1	1.237847	1.237847	0	1	0	0	CorrectCommission	0.116820	0.521506	1	0	77
39.339108	1.292897	city	5	1	1.206826	1.206826	0	1	0	0	CorrectCommission	0.072585	0.528363	1	0	77
40.632008	1.292900	city	1	1	1.138200	1.138200	0	1	0	0	CorrectCommission	0.491590	0.533252	1	0	77
41.924908	1.292905	city	3	1	1.106411	1.106411	0	1	0	0	CorrectCommission	0.685681	0.535733	1	0	77
43.211163	1.279601	mountain	2	0	0.000000	1.292418	1	0	0	0	CorrectOmission	0.450011	0.535473	1	0	77
44.490753	1.279584	city	10	1	1.400790	1.400790	0	1	0	0	CorrectCommission	1.111694	0.532369	1	0	77
45.770329	1.279560	city	9	1	1.136098	1.136098	0	1	0	0	CorrectCommission	0.504422	0.526572	1	0	77
47.049900	1.279586	city	8	1	1.089201	1.089201	0	1	0	0	CorrectCommission	0.790762	0.518584	1	0	77
48.329487	1.279589	city	7	1	1.074313	1.074313	0	1	0	0	CorrectCommission	0.881662	0.509251	1	0	77
49.608978	1.279389	city	6	1	1.178207	1.178207	0	1	0	0	CorrectCommission	0.247317	0.499719	1	0	77
50.888474	1.279602	city	8	1	1.234477	1.234477	0	1	0	0	CorrectCommission	0.096243	0.491357	1	0	77
52.168114	1.279676	city	3	1	1.125213	1.125213	0	1	0	0	CorrectCommission	0.570883	0.485605	1	0	77
53.461010	1.306118	city	5	1	1.276483	1.276483	0	1	0	0	CorrectCommission	0.352721	0.483841	1	0	77
54.767185	1.306238	city	1	1	1.199389	1.199389	0	1	0	0	CorrectCommission	0.117989	0.487284	1	0	77
56.060097	1.279581	city	6	1	1.134463	1.134463	0	1	0	0	CorrectCommission	0.514407	0.496907	1	0	77
57.339790	1.279812	city	5	1	1.253213	1.253213	0	1	0	0	CorrectCommission	0.210639	0.513370	1	0	77
61.645111	7.330827	break	0	0	0.000000	1.254086	0	0	0	0	ThoughtProbe	0.215969	0.537020	1	77	77
65.963654	1.306259	city	2	1	1.150175	1.150175	0	1	0	0	CorrectCommission	0.418476	0.567860	1	0	7.730000e+01
67.276627	1.319685	city	10	1	0.954572	0.954572	0	1	0	0	CorrectCommission	1.612756	0.605530	1	0	7.760000e+01
68.582779	1.292626	mountain	1	1	1.147718	1.147718	0	0	1	0	CommissionError	0.433473	0.649239	1	0	7.790000e+01
69.868965	1.279749	city	8	1	1.132825	1.132825	0	1	0	0	CorrectCommission	0.524404	0.697778	1	0	7.820000e+01
71.148643	1.279600	city	10	1	1.252619	1.252619	0	1	0	0	CorrectCommission	0.207016	0.749395	1	0	7.850000e+01
72.434868	1.292855	city	4	1	1.358861	1.358861	0	1	0	0	CorrectCommission	0.855689	0.801814	1	0	7.880000e+01
73.727692	1.292786	city	5	1	1.191885	1.191885	0	1	0	0	CorrectCommission	0.163806	0.852262	0	0	7.910000e+01
75.033943	1.319726	city	4	1	1.398809	1.398809	0	1	0	0	CorrectCommission	1.099598	0.897689	0	0	7.940000e+01
76.333519	1.279423	city	2	1	1.127378	1.127378	0	1	0	0	CorrectCommission	0.557666	0.935005	0	0	7.970000e+01
77.613014	1.279561	mountain	9	0	0.000000	1.433195	1	0	0	0	CorrectOmission	1.309550	0.961553	0	0	80
78.899246	1.292908	city	7	1	1.580876	1.580876	0	1	0	0	CorrectCommission	2.211237	0.975433	0	0	8.030000e+01
80.192101	1.292791	city	10	1	0.835034	0.835034	0	1	0	0	CorrectCommission	2.342614	0.975891	0	0	8.060000e+01
81.485016	1.293047	city	7	1	1.473768	1.473768	0	1	0	0	CorrectCommission	1.557273	0.963481	0	0	8.090000e+01
82.777985	1.292890	city	8	1	1.031091	1.031091	0	1	0	0	CorrectCommission	1.145561	0.940058	0	0	8.120000e+01
84.070961	1.293064	city	7	1	1.148285	1.148285	0	1	0	0	CorrectCommission	0.430014	0.908505	0	0	8.150000e+01
85.377190	1.319394	city	6	1	1.285052	1.285052	0	1	0	0	CorrectCommission	0.405040	0.872302	0	0	8.180000e+01
86.696663	1.319555	city	8	1	1.256278	1.256278	0	1	0	0	CorrectCommission	0.229355	0.835029	0	0	8.210000e+01
88.009575	1.306272	city	6	1	1.141402	1.141402	0	1	0	0	CorrectCommission	0.472036	0.799937	1	0	8.240000e+01
89.302513	1.279596	city	4	1	1.342467	1.342467	0	1	0	0	CorrectCommission	0.755593	0.769543	1	0	8.270000e+01
90.582092	1.279568	city	9	1	1.294584	1.294584	0	1	0	0	CorrectCommission	0.463241	0.745465	1	0	83
91.861755	1.279751	city	5	1	1.129478	1.129478	0	1	0	0	CorrectCommission	0.544843	0.728427	1	0	8.330000e+01
93.147995	1.292733	city	4	1	1.331801	1.331801	0	1	0	0	CorrectCommission	0.690472	0.718381	1	0	8.360000e+01
94.447563	1.306406	mountain	5	0	0.000000	1.334004	1	0	0	0	CorrectOmission	0.703924	0.714771	1	0	8.390000e+01
95.747208	1.292885	city	10	1	1.315926	1.315926	0	1	0	0	CorrectCommission	0.593547	0.716757	1	0	8.420000e+01
97.040031	1.292754	city	5	1	1.457407	1.457407	0	1	0	0	CorrectCommission	1.457376	0.723466	1	0	8.450000e+01
98.359596	1.346380	city	8	1	1.015852	1.015852	0	1	0	0	CorrectCommission	1.238604	0.734070	1	0	8.480000e+01
99.685905	1.306243	city	9	1	1.335180	1.335180	0	1	0	0	CorrectCommission	0.711104	0.747825	1	0	8.510000e+01
100.985397	1.292739	city	7	1	1.205438	1.205438	0	1	0	0	CorrectCommission	0.081060	0.763931	1	0	8.540000e+01
102.271645	1.279748	city	3	1	1.248222	1.248222	0	1	0	0	CorrectCommission	0.180165	0.781455	1	0	8.570000e+01
103.557884	1.292738	city	2	1	1.193800	1.193800	0	1	0	0	CorrectCommission	0.152114	0.799167	1	0	86
104.857460	1.306405	city	6	1	1.336231	1.336231	0	1	0	0	CorrectCommission	0.717517	0.815584	0	0	8.630000e+01
106.150398	1.279469	city	10	1	1.358951	1.358951	0	1	0	0	CorrectCommission	0.856240	0.829043	0	0	8.660000e+01
107.436653	1.293042	city	6	1	1.526877	1.526877	0	1	0	0	CorrectCommission	1.881538	0.837933	0	0	8.690000e+01
108.736282	1.306224	city	2	1	0.877569	0.877569	0	1	0	0	CorrectCommission	2.082911	0.840947	0	0	8.720000e+01
110.035851	1.292916	city	9	1	1.302644	1.302644	0	1	0	0	CorrectCommission	0.512449	0.837396	0	0	8.750000e+01
111.322006	1.279392	city	2	1	1.286918	1.286918	0	1	0	0	CorrectCommission	0.416435	0.827384	0	0	8.780000e+01
112.608154	1.292905	city	9	1	1.474505	1.474505	0	1	0	0	CorrectCommission	1.561772	0.811815	0	0	8.810000e+01
113.907745	1.306269	city	4	1	1.310405	1.310405	0	1	0	0	CorrectCommission	0.559835	0.792294	1	0	8.840000e+01
115.220734	1.319718	city	2	1	1.099383	1.099383	0	1	0	0	CorrectCommission	0.728590	0.770978	1	0	8.870000e+01
118.866272	5.971351	break	0	0	0.000000	1.101328	0	0	0	0	ThoughtProbe	0.716720	0.750234	1	89	89
122.498322	1.292753	city	7	1	1.152484	1.152484	0	1	0	0	CorrectCommission	0.404378	0.732311	1	0	8.926471e+01
123.784515	1.279624	city	8	1	1.089098	1.089098	0	1	0	0	CorrectCommission	0.791388	0.719059	1	0	8.952941e+01
125.090790	1.332934	city	6	1	1.183160	1.183160	0	1	0	0	CorrectCommission	0.217081	0.711669	1	0	8.979412e+01
126.403763	1.293009	city	4	1	1.212108	1.212108	0	1	0	0	CorrectCommission	0.040332	0.710585	1	0	9.005882e+01
127.696716	1.292906	city	10	1	1.102886	1.102886	0	1	0	0	CorrectCommission	0.707201	0.715473	1	0	9.032353e+01
128.989532	1.292717	city	9	1	1.058843	1.058843	0	1	0	0	CorrectCommission	0.976117	0.725314	1	0	9.058824e+01
130.282349	1.292925	city	10	1	1.158989	1.158989	0	1	0	0	CorrectCommission	0.364659	0.738633	1	0	9.085294e+01
131.568680	1.279723	city	2	1	1.413281	1.413281	0	1	0	0	CorrectCommission	1.187962	0.753750	1	0	9.111765e+01
132.854919	1.292778	mountain	3	0	0.000000	1.434338	1	0	0	0	CorrectOmission	1.316528	0.768997	1	0	9.138235e+01
134.154449	1.306272	city	7	1	1.367114	1.367114	0	1	0	0	CorrectCommission	0.906083	0.782935	1	0	9.164706e+01
135.454086	1.293015	city	6	1	1.356565	1.356565	0	1	0	0	CorrectCommission	0.841672	0.794493	1	0	9.191176e+01
136.760376	1.319563	city	2	1	1.158681	1.158681	0	1	0	0	CorrectCommission	0.366542	0.802990	1	0	9.217647e+01
138.066544	1.292751	city	9	1	1.137012	1.137012	0	1	0	0	CorrectCommission	0.498843	0.808128	0	0	9.244118e+01
139.352798	1.279761	city	2	1	1.031531	1.031531	0	1	0	0	CorrectCommission	1.142874	0.809937	0	0	9.270588e+01
140.632477	1.279589	city	3	1	1.409664	1.409664	0	1	0	0	CorrectCommission	1.165875	0.808675	0	0	9.297059e+01
141.918625	1.292719	city	4	1	1.386670	1.386670	0	1	0	0	CorrectCommission	1.025481	0.804763	1	0	9.323529e+01
143.218094	1.306228	city	9	1	1.075166	1.075166	0	1	0	0	CorrectCommission	0.876455	0.798734	1	0	9.350000e+01
144.517761	1.293099	city	6	1	1.197603	1.197603	0	1	0	0	CorrectCommission	0.128893	0.791148	1	0	9.376471e+01
145.804077	1.279544	city	9	1	1.397900	1.397900	0	1	0	0	CorrectCommission	1.094048	0.782544	1	0	9.402941e+01
147.083664	1.279617	city	8	1	1.352920	1.352920	0	1	0	0	CorrectCommission	0.819418	0.773403	1	0	9.429412e+01
148.363251	1.279563	city	10	1	1.305261	1.305261	0	1	0	0	CorrectCommission	0.528428	0.764178	1	0	9.455882e+01
149.682831	1.359580	city	8	1	1.312949	1.312949	0	1	0	0	CorrectCommission	0.575366	0.755292	1	0	9.482353e+01
151.002380	1.279530	mountain	5	0	0.000000	1.392443	1	0	0	0	CorrectOmission	1.060731	0.747149	1	0	9.508824e+01
152.281952	1.279601	city	3	1	1.418809	1.418809	0	1	0	0	CorrectCommission	1.221715	0.740170	1	0	9.535294e+01
153.581497	1.319490	city	1	1	1.267113	1.267113	0	1	0	0	CorrectCommission	0.295511	0.734858	1	0	9.561765e+01
154.901047	1.319631	city	2	1	1.359498	1.359498	0	1	0	0	CorrectCommission	0.859582	0.731852	1	0	9.588235e+01
156.213898	1.306070	city	8	1	1.265981	1.265981	0	1	0	0	CorrectCommission	0.288595	0.731866	1	0	9.614706e+01
157.513474	1.293073	city	9	1	1.365421	1.365421	0	1	0	0	CorrectCommission	0.895744	0.735719	1	0	9.641176e+01
158.806458	1.292899	city	4	1	1.260327	1.260327	0	1	0	0	CorrectCommission	0.254076	0.744264	1	0	9.667647e+01
160.099365	1.292908	city	9	1	1.360841	1.360841	0	1	0	0	CorrectCommission	0.867781	0.758334	1	0	9.694118e+01
161.398849	1.306072	city	8	1	1.381618	1.381618	0	1	0	0	CorrectCommission	0.994637	0.778579	1	0	9.720588e+01
162.705093	1.306402	city	3	1	1.117325	1.117325	0	1	0	0	CorrectCommission	0.619047	0.805333	0	0	9.747059e+01
164.004669	1.292743	city	4	1	1.404532	1.404532	0	1	0	0	CorrectCommission	1.134540	0.838476	0	0	9.773529e+01
164.651031	8.104028	break	0	0	0.000000	1.398912	0	0	0	0	ThoughtProbe	1.100231	0.877207	0	98	98
173.408249	1.306376	city	9	1	1.276745	1.276745	0	1	0	0	CorrectCommission	0.354320	0.919960	0	0	9.680435e+01
174.714554	1.306238	city	6	1	1.214308	1.214308	0	1	0	0	CorrectCommission	0.026898	0.964383	0	0	9.560870e+01
176.007385	1.279413	mountain	5	0	0.000000	1.244454	1	0	0	0	CorrectOmission	0.157159	1.007437	0	0	9.441304e+01
177.286957	1.279746	city	1	1	1.342563	1.342563	0	1	0	0	CorrectCommission	0.756182	1.045706	0	0	9.321739e+01
178.566635	1.279584	mountain	9	0	0.000000	1.484019	1	0	0	0	CorrectOmission	1.619860	1.075791	0	0	9.202174e+01
179.852875	1.292915	city	7	1	1.622479	1.622479	0	1	0	0	CorrectCommission	2.465253	1.094805	0	0	9.082609e+01
181.159073	1.319468	city	3	1	1.711605	1.711605	0	1	0	0	CorrectCommission	3.009421	1.100806	0	0	8.963043e+01
182.471954	1.306314	city	8	1	0.885741	0.885741	0	1	0	0	CorrectCommission	2.033015	1.093097	0	0	8.843478e+01
183.764832	1.279435	city	5	1	1.379134	1.379134	0	1	0	0	CorrectCommission	0.979471	1.072338	0	0	8.723913e+01
185.064362	1.319619	mountain	4	1	1.175723	1.175723	0	0	1	0	CommissionError	0.262484	1.040323	0	0	8.604348e+01
186.364014	1.279672	city	9	1	1.302630	1.302630	0	1	0	0	CorrectCommission	0.512362	0.999632	0	0	8.484783e+01
187.656967	1.306254	city	10	1	1.146416	1.146416	0	1	0	0	CorrectCommission	0.441422	0.953201	0	0	8.365217e+01
188.949890	1.279583	city	3	1	1.138959	1.138959	0	1	0	0	CorrectCommission	0.486953	0.903934	0	0	8.245652e+01
190.256119	1.332872	city	5	1	1.133563	1.133563	0	1	0	0	CorrectCommission	0.519899	0.854348	0	0	8.126087e+01
191.582260	1.319428	city	6	1	0.949606	0.949606	0	1	0	0	CorrectCommission	1.643077	0.806463	0	0	8.006522e+01
192.881836	1.279718	city	4	1	0.982749	0.982749	0	1	0	0	CorrectCommission	1.440717	0.761770	1	0	7.886957e+01
194.161499	1.279597	city	6	1	1.192845	1.192845	0	1	0	0	CorrectCommission	0.157948	0.721352	1	0	7.767391e+01
195.474396	1.346207	city	2	1	1.034519	1.034519	0	1	0	0	CorrectCommission	1.124630	0.686014	1	0	7.647826e+01
196.800629	1.306246	city	4	1	1.265135	1.265135	0	1	0	0	CorrectCommission	0.283430	0.656353	1	0	7.528261e+01
198.106705	1.305902	city	3	1	1.218584	1.218584	0	1	0	0	CorrectCommission	0.000790	0.632927	1	0	7.408696e+01
199.412949	1.306585	city	7	1	1.276955	1.276955	0	1	0	0	CorrectCommission	0.355599	0.616206	1	0	7.289130e+01
200.719345	1.306226	city	3	1	1.172213	1.172213	0	1	0	0	CorrectCommission	0.283916	0.606543	1	0	7.169565e+01
202.032150	1.319392	city	10	1	0.995940	0.995940	0	1	0	0	CorrectCommission	1.360179	0.604166	1	0	7.050000e+01
203.351715	1.319714	city	6	1	1.363446	1.363446	0	1	0	0	CorrectCommission	0.883686	0.609036	1	0	6.930435e+01
204.664688	1.306252	city	8	1	1.224376	1.224376	0	1	0	0	CorrectCommission	0.034571	0.620805	1	0	6.810870e+01
205.970871	1.306102	city	3	1	1.189329	1.189329	0	1	0	0	CorrectCommission	0.179412	0.638726	1	0	6.691304e+01
207.270370	1.292899	city	10	1	1.251024	1.251024	0	1	0	0	CorrectCommission	0.197274	0.661608	1	0	6.571739e+01
208.583359	1.333066	city	1	1	1.406035	1.406035	0	1	0	0	CorrectCommission	1.143717	0.687888	1	0	6.452174e+01
209.896332	1.292880	city	8	1	1.298354	1.298354	0	1	0	0	CorrectCommission	0.486257	0.715689	1	0	6.332609e+01
211.215881	1.346231	city	5	1	1.198161	1.198161	0	1	0	0	CorrectCommission	0.125487	0.743084	1	0	6.213043e+01
212.528793	1.279596	city	2	1	0.967788	0.967788	0	1	0	0	CorrectCommission	1.532068	0.768262	1	0	6.093478e+01
213.815033	1.292892	city	9	1	1.474325	1.474325	0	1	0	0	CorrectCommission	1.560673	0.789720	1	0	5.973913e+01
215.107925	1.292871	city	5	1	1.103407	1.103407	0	1	0	0	CorrectCommission	0.704021	0.806501	0	0	5.854348e+01
216.407501	1.306288	mountain	5	0	0.000000	1.328979	1	0	0	0	CorrectOmission	0.673241	0.818291	0	0	5.734783e+01
217.707016	1.292757	city	6	1	1.541162	1.541162	0	1	0	0	CorrectCommission	1.968757	0.825386	0	0	5.615217e+01
219.019928	1.333059	city	9	1	1.130079	1.130079	0	1	0	0	CorrectCommission	0.541173	0.828578	0	0	5.495652e+01
220.332855	1.292784	city	1	1	1.200979	1.200979	0	1	0	0	CorrectCommission	0.108284	0.829058	0	0	5.376087e+01
221.619003	1.279525	city	10	1	1.136537	1.136537	0	1	0	0	CorrectCommission	0.501744	0.828156	0	0	5.256522e+01
222.905167	1.292800	city	3	1	1.034612	1.034612	0	1	0	0	CorrectCommission	1.124061	0.827177	0	0	5.136957e+01
224.198074	1.292995	city	1	1	1.373832	1.373832	0	1	0	0	CorrectCommission	0.947099	0.827199	0	0	5.017391e+01
225.491104	1.293071	city	3	1	1.200052	1.200052	0	1	0	0	CorrectCommission	0.113945	0.829046	0	0	4.897826e+01
226.777435	1.279607	city	2	1	1.410561	1.410561	0	1	0	0	CorrectCommission	1.171355	0.833209	0	0	4.778261e+01
228.063599	1.292716	city	3	1	1.427438	1.427438	0	1	0	0	CorrectCommission	1.274399	0.839780	0	0	4.658696e+01
229.376419	1.332913	city	2	1	1.366413	1.366413	0	1	0	0	CorrectCommission	0.901798	0.848548	0	0	4.539130e+01
230.716064	1.346371	city	8	1	1.268778	1.268778	0	1	0	0	CorrectCommission	0.305678	0.859028	0	0	4.419565e+01
231.389236	12.222644	break	0	0	0.000000	1.101725	0	0	0	0	ThoughtProbe	0.714293	0.870516	0	43	43
244.271683	1.319596	city	4	1	0.998233	0.998233	0	1	0	0	CorrectCommission	1.346177	0.882119	0	0	4.332500e+01
245.571259	1.279554	city	7	1	1.091285	1.091285	0	1	0	0	CorrectCommission	0.778035	0.892824	0	0	4.365000e+01
246.850754	1.279436	city	2	1	1.085555	1.085555	0	1	0	0	CorrectCommission	0.813020	0.901651	0	0	4.397500e+01
248.137009	1.293066	city	3	1	1.097613	1.097613	0	1	0	0	CorrectCommission	0.739399	0.907662	0	0	4.430000e+01
249.443222	1.319381	city	5	1	1.285336	1.285336	0	1	0	0	CorrectCommission	0.406771	0.910140	0	0	4.462500e+01
250.756042	1.306256	city	8	1	0.993674	0.993674	0	1	0	0	CorrectCommission	1.374012	0.908727	0	0	4.495000e+01
252.049042	1.279731	city	9	1	0.927987	0.927987	0	1	0	0	CorrectCommission	1.775076	0.903422	0	0	4.527500e+01
253.348679	1.319556	city	5	1	0.899852	0.899852	0	1	0	0	CorrectCommission	1.946862	0.894658	0	0	4.560000e+01
254.648254	1.279585	mountain	5	0	0.000000	1.084150	1	0	0	0	CorrectOmission	0.821601	0.883241	0	0	4.592500e+01
255.941177	1.306259	city	9	1	1.260245	1.260245	0	1	0	0	CorrectCommission	0.253578	0.870213	0	0	4.625000e+01
257.240723	1.292859	city	8	1	1.207502	1.207502	0	1	0	0	CorrectCommission	0.068458	0.856602	0	0	4.657500e+01
258.533630	1.292936	city	3	1	1.258310	1.258310	0	1	0	0	CorrectCommission	0.241760	0.843280	0	0	4.690000e+01
259.859894	1.359581	city	2	1	1.263018	1.263018	0	1	0	0	CorrectCommission	0.270508	0.830822	0	0	4.722500e+01
261.186127	1.292880	mountain	4	0	0.000000	1.468080	1	0	0	0	CorrectOmission	1.522541	0.819436	0	0	4.755000e+01
262.473480	1.281858	city	5	1	1.515015	1.515015	0	1	0	0	CorrectCommission	1.809111	0.808954	0	0	4.787500e+01
263.753082	1.277303	city	10	1	1.045345	1.045345	0	1	0	0	CorrectCommission	1.058530	0.798966	1	0	4.820000e+01
265.038116	1.292761	city	4	1	1.190469	1.190469	0	1	0	0	CorrectCommission	0.172450	0.788944	1	0	4.852500e+01
266.370911	1.372877	city	8	1	1.068144	1.068144	0	1	0	0	CorrectCommission	0.919325	0.778315	1	0	4.885000e+01
267.697144	1.279562	city	7	1	1.089815	1.089815	0	1	0	0	CorrectCommission	0.787012	0.766499	1	0	4.917500e+01
268.996796	1.319743	city	10	1	1.166760	1.166760	0	1	0	0	CorrectCommission	0.317212	0.753048	1	0	4.950000e+01
270.316437	1.319535	mountain	4	1	1.221732	1.221732	0	0	1	0	CommissionError	0.018430	0.737691	1	0	4.982500e+01
271.622620	1.292814	city	6	1	1.521059	1.521059	0	1	0	0	CorrectCommission	1.846014	0.720371	1	0	5.015000e+01
272.908875	1.279740	city	1	1	1.087791	1.087791	0	1	0	0	CorrectCommission	0.799367	0.701244	1	0	5.047500e+01
274.201752	1.306022	city	2	1	1.125237	1.125237	0	1	0	0	CorrectCommission	0.570736	0.680836	1	0	5.080000e+01
275.501312	1.293074	city	3	1	1.404692	1.404692	0	1	0	0	CorrectCommission	1.135518	0.659910	1	0	5.112500e+01
276.834290	1.372890	city	5	1	1.332665	1.332665	0	1	0	0	CorrectCommission	0.695745	0.639434	1	0	5.145000e+01
278.173859	1.306252	city	6	1	1.162666	1.162666	0	1	0	0	CorrectCommission	0.342208	0.620470	1	0	5.177500e+01
279.473419	1.292874	city	2	1	1.150851	1.150851	0	1	0	0	CorrectCommission	0.414349	0.604001	1	0	5.210000e+01
280.772919	1.306132	city	7	1	1.285446	1.285446	0	1	0	0	CorrectCommission	0.407442	0.590765	1	0	5.242500e+01
282.105835	1.359673	city	4	1	1.263783	1.263783	0	1	0	0	CorrectCommission	0.275174	0.581136	1	0	5.275000e+01
283.432159	1.292980	city	9	1	1.214055	1.214055	0	1	0	0	CorrectCommission	0.028445	0.575107	1	0	5.307500e+01
284.725006	1.292701	city	10	1	1.086398	1.086398	0	1	0	0	CorrectCommission	0.807876	0.572304	1	0	5.340000e+01
286.031189	1.319671	city	7	1	1.117288	1.117288	0	1	0	0	CorrectCommission	0.619271	0.572079	1	0	5.372500e+01
287.330841	1.279630	city	10	1	1.125860	1.125860	0	1	0	0	CorrectCommission	0.566935	0.573747	1	0	5.405000e+01
288.623749	1.306216	city	9	1	1.098379	1.098379	0	1	0	0	CorrectCommission	0.734721	0.576771	1	0	5.437500e+01
289.916656	1.279577	city	1	1	1.080217	1.080217	0	1	0	0	CorrectCommission	0.845615	0.580945	1	0	5.470000e+01
291.196228	1.279556	city	3	1	0.975594	0.975594	0	1	0	0	CorrectCommission	1.484407	0.586493	1	0	5.502500e+01
292.482361	1.292722	city	2	1	1.261783	1.261783	0	1	0	0	CorrectCommission	0.262965	0.594097	1	0	5.535000e+01
293.808624	1.359785	city	3	1	1.213806	1.213806	0	1	0	0	CorrectCommission	0.029967	0.604814	1	0	5.567500e+01
297.927368	6.877738	break	0	0	0.000000	1.189502	0	0	0	0	ThoughtProbe	0.178359	0.619833	1	56	56
302.012604	1.292718	mountain	9	0	0.000000	1.163693	1	0	0	0	CorrectOmission	0.335936	0.640266	1	0	5.638235e+01
303.305511	1.293087	city	2	1	1.111203	1.111203	0	1	0	0	CorrectCommission	0.656423	0.666913	1	0	5.676471e+01
304.605164	1.306217	city	10	1	1.006854	1.006854	0	1	0	0	CorrectCommission	1.293543	0.700017	1	0	5.714706e+01
305.904663	1.292775	city	5	1	1.191223	1.191223	0	1	0	0	CorrectCommission	0.167846	0.739094	1	0	5.752941e+01
307.204163	1.306219	city	4	1	1.374841	1.374841	0	1	0	0	CorrectCommission	0.953261	0.782957	1	0	5.791176e+01
308.503784	1.293067	city	1	1	1.204619	1.204619	0	1	0	0	CorrectCommission	0.086055	0.829638	0	0	5.829412e+01
309.796753	1.292820	city	8	1	1.092988	1.092988	0	1	0	0	CorrectCommission	0.767637	0.876673	0	0	5.867647e+01
311.089661	1.292995	city	3	1	1.092113	1.092113	0	1	0	0	CorrectCommission	0.772982	0.921243	0	0	5.905882e+01
312.402618	1.332935	city	8	1	1.049515	1.049515	0	1	0	0	CorrectCommission	1.033068	0.960586	0	0	5.944118e+01
313.715424	1.292712	city	7	1	1.531532	1.531532	0	1	0	0	CorrectCommission	1.909959	0.992328	0	0	5.982353e+01
315.008331	1.293060	city	8	1	0.897160	0.897160	0	1	0	0	CorrectCommission	1.963294	1.014837	0	0	6.020588e+01
316.294647	1.279597	city	10	1	1.034280	1.034280	0	1	0	0	CorrectCommission	1.126091	1.027471	0	0	6.058824e+01
317.574158	1.279444	city	4	1	1.416790	1.416790	0	1	0	0	CorrectCommission	1.209383	1.030732	0	0	6.097059e+01
318.873657	1.319533	city	5	1	1.082600	1.082600	0	1	0	0	CorrectCommission	0.831065	1.026133	0	0	6.135294e+01
320.173279	1.279703	city	2	1	0.985895	0.985895	0	1	0	0	CorrectCommission	1.421512	1.015980	0	0	6.173529e+01
321.519562	1.412896	city	6	1	1.077680	1.077680	0	1	0	0	CorrectCommission	0.861104	1.003048	0	0	6.211765e+01
322.872467	1.292914	city	2	1	0.981149	0.981149	0	1	0	0	CorrectCommission	1.450491	0.990158	0	0	6.250000e+01
324.185303	1.332728	city	7	1	1.216974	1.216974	0	1	0	0	CorrectCommission	0.010621	0.979742	0	0	6.288235e+01
325.518219	1.333088	mountain	9	1	1.232383	1.232383	0	0	1	0	CommissionError	0.083458	0.973565	0	0	6.326471e+01
326.837799	1.306067	city	10	1	1.101073	1.101073	0	1	0	0	CorrectCommission	0.718272	0.972474	0	0	6.364706e+01
328.130676	1.279687	city	9	1	1.475717	1.475717	0	1	0	0	CorrectCommission	1.569171	0.976392	0	0	6.402941e+01
329.430328	1.319650	city	5	1	1.126508	1.126508	0	1	0	0	CorrectCommission	0.562978	0.984382	0	0	6.441176e+01
330.729828	1.279320	city	2	1	1.098242	1.098242	0	1	0	0	CorrectCommission	0.735556	0.994971	0	0	6.479412e+01
332.029358	1.319768	city	7	1	1.485567	1.485567	0	1	0	0	CorrectCommission	1.629313	1.006410	0	0	6.517647e+01
333.328918	1.279369	city	1	1	1.261565	1.261565	0	1	0	0	CorrectCommission	0.261634	1.017004	0	0	6.555882e+01
334.615173	1.293116	city	7	1	1.712603	1.712603	0	1	0	0	CorrectCommission	3.015520	1.025446	0	0	6.594118e+01
335.921478	1.319483	city	2	1	1.458054	1.458054	0	1	0	0	CorrectCommission	1.461327	1.030790	0	0	6.632353e+01
337.227631	1.292838	city	10	1	1.323335	1.323335	0	1	0	0	CorrectCommission	0.638783	1.032688	0	0	6.670588e+01
338.527252	1.306402	city	2	1	1.231669	1.231669	0	1	0	0	CorrectCommission	0.079101	1.031156	0	0	6.708824e+01
339.826843	1.292756	city	9	1	1.327783	1.327783	0	1	0	0	CorrectCommission	0.665939	1.026441	0	0	6.747059e+01
341.133026	1.319623	city	10	1	1.182052	1.182052	0	1	0	0	CorrectCommission	0.223842	1.018869	0	0	6.785294e+01
342.459320	1.332978	city	6	1	1.538737	1.538737	0	1	0	0	CorrectCommission	1.953950	1.008770	0	0	6.823529e+01
343.798828	1.346061	city	4	1	1.598940	1.598940	0	1	0	0	CorrectCommission	2.321528	0.996385	0	0	6.861765e+01
347.750793	6.557858	break	0	0	0.000000	1.246657	0	0	0	0	ThoughtProbe	0.170612	0.981970	0	69	69
351.696259	1.333065	city	2	1	0.991000	0.991000	0	1	0	0	CorrectCommission	1.390344	0.965846	0	0	6.826471e+01
353.002533	1.279448	city	8	1	1.341078	1.341078	0	1	0	0	CorrectCommission	0.747115	0.948356	0	0	6.752941e+01
354.295288	1.306110	city	10	1	1.278087	1.278087	0	1	0	0	CorrectCommission	0.362511	0.929988	0	0	6.679412e+01
355.588287	1.279837	city	2	1	1.080404	1.080404	0	1	0	0	CorrectCommission	0.844471	0.911363	0	0	6.605882e+01
356.874542	1.292719	mountain	4	0	0.000000	1.364735	1	0	0	0	CorrectOmission	0.891557	0.893142	0	0	6.532353e+01
358.174042	1.306259	city	1	1	1.608610	1.608610	0	1	0	0	CorrectCommission	2.380573	0.876005	0	0	6.458824e+01
359.486908	1.319485	city	3	1	1.289559	1.289559	0	1	0	0	CorrectCommission	0.432558	0.860497	0	0	6.385294e+01
360.793152	1.293023	city	1	1	1.192314	1.192314	0	1	0	0	CorrectCommission	0.161189	0.846963	0	0	6.311765e+01
362.092865	1.306355	city	7	1	1.167482	1.167482	0	1	0	0	CorrectCommission	0.312802	0.835387	0	0	6.238235e+01
363.405731	1.319403	city	5	1	1.098215	1.098215	0	1	0	0	CorrectCommission	0.735725	0.825370	0	0	6.164706e+01
364.705292	1.279734	city	7	1	1.084249	1.084249	0	1	0	0	CorrectCommission	0.820993	0.816177	0	0	6.091176e+01
366.011627	1.332915	city	6	1	1.241179	1.241179	0	1	0	0	CorrectCommission	0.137167	0.806830	0	0	6.017647e+01
367.317810	1.279484	city	7	1	1.473152	1.473152	0	1	0	0	CorrectCommission	1.553510	0.796365	1	0	5.944118e+01
368.610718	1.306326	city	1	1	0.906548	0.906548	0	1	0	0	CorrectCommission	1.905974	0.783889	1	0	5.870588e+01
369.930267	1.332721	city	8	1	1.066652	1.066652	0	1	0	0	CorrectCommission	0.928434	0.768933	1	0	5.797059e+01
371.236481	1.279726	city	10	1	1.146526	1.146526	0	1	0	0	CorrectCommission	0.440756	0.751553	1	0	5.723529e+01
372.549469	1.346266	city	7	1	1.158269	1.158269	0	1	0	0	CorrectCommission	0.369052	0.732339	1	0	5.650000e+01
373.882324	1.319420	city	10	1	1.138570	1.138570	0	1	0	0	CorrectCommission	0.489331	0.712339	1	0	5.576471e+01
375.195129	1.306213	city	9	1	1.388219	1.388219	0	1	0	0	CorrectCommission	1.034942	0.692940	1	0	5.502941e+01
376.494690	1.292918	city	8	1	1.386553	1.386553	0	1	0	0	CorrectCommission	1.024769	0.675631	1	0	5.429412e+01
377.820984	1.359680	city	5	1	1.280956	1.280956	0	1	0	0	CorrectCommission	0.380031	0.661779	1	0	5.355882e+01
379.153900	1.306152	city	7	1	1.212951	1.212951	0	1	0	0	CorrectCommission	0.035184	0.652492	1	0	5.282353e+01
380.473511	1.333040	city	2	1	1.313951	1.313951	0	1	0	0	CorrectCommission	0.581483	0.648365	1	0	5.208824e+01
381.779816	1.279552	mountain	1	0	0.000000	1.267784	1	0	0	0	CorrectOmission	0.299606	0.649438	1	0	5.135294e+01
383.066040	1.292905	city	1	1	1.137713	1.137713	0	1	0	0	CorrectCommission	0.494560	0.655194	1	0	5.061765e+01
384.365601	1.306213	city	4	1	0.987001	0.987001	0	1	0	0	CorrectCommission	1.414758	0.664643	1	0	4.988235e+01
385.665070	1.292751	city	7	1	1.195974	1.195974	0	1	0	0	CorrectCommission	0.138840	0.676479	1	0	4.914706e+01
386.971313	1.319743	city	2	1	1.089217	1.089217	0	1	0	0	CorrectCommission	0.790660	0.689327	1	0	4.841176e+01
388.297546	1.332710	city	7	1	1.237407	1.237407	0	1	0	0	CorrectCommission	0.114135	0.701968	1	0	4.767647e+01
389.617126	1.306453	city	2	1	1.038934	1.038934	0	1	0	0	CorrectCommission	1.097673	0.713563	1	0	4.694118e+01
390.916779	1.292856	city	1	1	1.008127	1.008127	0	1	0	0	CorrectCommission	1.285769	0.723727	1	0	4.620588e+01
392.209656	1.292915	city	8	1	0.933841	0.933841	0	1	0	0	CorrectCommission	1.739337	0.732629	1	0	4.547059e+01
393.509186	1.306089	city	7	1	1.280350	1.280350	0	1	0	0	CorrectCommission	0.376330	0.740910	1	0	4.473529e+01
394.162201	9.396891	break	0	0	0.000000	1.339271	0	0	0	0	ThoughtProbe	0.736080	0.749544	1	44	44
404.205658	1.293094	city	7	1	1.251754	1.251754	0	1	0	0	CorrectCommission	0.201733	0.759491	1	0	4.430000e+01
405.511902	1.319372	city	8	1	1.158951	1.158951	0	1	0	0	CorrectCommission	0.364890	0.771503	1	0	4.460000e+01
406.818054	1.292965	mountain	3	0	0.000000	1.263998	1	0	0	0	CorrectOmission	0.276487	0.785868	1	0	4.490000e+01
408.104401	1.279697	city	5	1	1.304321	1.304321	0	1	0	0	CorrectCommission	0.522689	0.802301	1	0	4.520000e+01
409.390686	1.292925	city	2	1	1.017350	1.017350	0	1	0	0	CorrectCommission	1.229460	0.819923	0	0	4.550000e+01
410.690277	1.306232	city	6	1	1.102489	1.102489	0	1	0	0	CorrectCommission	0.709627	0.837398	0	0	4.580000e+01
412.016327	1.345866	city	5	1	0.993865	0.993865	0	1	0	0	CorrectCommission	1.372851	0.853131	0	0	4.610000e+01
413.369202	1.359891	city	3	1	1.041653	1.041653	0	1	0	0	CorrectCommission	1.081069	0.865509	0	0	4.640000e+01
414.722260	1.346226	city	10	1	0.916078	0.916078	0	1	0	0	CorrectCommission	1.847790	0.873182	0	0	4.670000e+01
416.041748	1.292745	city	1	1	1.255727	1.255727	0	1	0	0	CorrectCommission	0.225992	0.875263	0	0	47
417.334656	1.293093	city	10	1	1.076511	1.076511	0	1	0	0	CorrectCommission	0.868240	0.871402	0	0	4.730000e+01
418.654236	1.346047	city	3	1	1.157515	1.157515	0	1	0	0	CorrectCommission	0.373661	0.861853	0	0	4.760000e+01
419.967041	1.279568	mountain	2	0	0.000000	1.361095	1	0	0	0	CorrectOmission	0.869328	0.847504	0	0	4.790000e+01
421.266693	1.319754	city	10	1	1.518324	1.518324	0	1	0	0	CorrectCommission	1.829318	0.829746	0	0	4.820000e+01
422.579681	1.306212	city	7	1	1.460277	1.460277	0	1	0	0	CorrectCommission	1.474903	0.810397	0	0	4.850000e+01
423.912598	1.359579	city	3	1	1.262136	1.262136	0	1	0	0	CorrectCommission	0.265121	0.791584	1	0	4.880000e+01
425.252136	1.319539	city	2	1	1.212753	1.212753	0	1	0	0	CorrectCommission	0.036394	0.775546	1	0	4.910000e+01
426.551727	1.279631	city	3	1	1.348069	1.348069	0	1	0	0	CorrectCommission	0.789800	0.764378	1	0	4.940000e+01
427.857910	1.332738	city	1	1	1.107982	1.107982	0	1	0	0	CorrectCommission	0.676092	0.759811	1	0	4.970000e+01
429.197388	1.346198	city	6	1	1.290152	1.290152	0	1	0	0	CorrectCommission	0.436178	0.763050	1	0	50
430.530273	1.319620	city	5	1	1.099820	1.099820	0	1	0	0	CorrectCommission	0.725927	0.774624	1	0	5.030000e+01
431.836609	1.293002	mountain	1	0	0.000000	1.167033	1	0	0	0	CorrectOmission	0.315547	0.794240	1	0	5.060000e+01
433.122803	1.279416	city	3	1	1.317778	1.317778	0	1	0	0	CorrectCommission	0.604849	0.820791	0	0	5.090000e+01
434.415619	1.306219	city	1	1	1.378041	1.378041	0	1	0	0	CorrectCommission	0.972797	0.852418	0	0	5.120000e+01
435.728516	1.319568	city	4	1	1.510506	1.510506	0	1	0	0	CorrectCommission	1.781580	0.886627	0	0	5.150000e+01
437.041443	1.306252	city	7	1	1.244584	1.244584	0	1	0	0	CorrectCommission	0.157955	0.920515	0	0	5.180000e+01
438.361084	1.333061	city	5	1	1.246466	1.246466	0	1	0	0	CorrectCommission	0.169446	0.951103	0	0	5.210000e+01
439.694061	1.332888	city	1	1	1.135531	1.135531	0	1	0	0	CorrectCommission	0.507886	0.975617	0	0	5.240000e+01
441.033569	1.346131	city	7	1	1.795200	1.795200	0	1	0	0	CorrectCommission	3.519823	0.991799	0	0	5.270000e+01
442.373169	1.333077	city	4	1	1.172600	1.172600	0	1	0	0	CorrectCommission	0.281556	0.998223	0	0	53
443.712799	1.346147	city	5	1	0.964772	0.964772	0	1	0	0	CorrectCommission	1.550480	0.994642	0	0	5.330000e+01
445.025574	1.279410	city	9	1	0.874143	0.874143	0	1	0	0	CorrectCommission	2.103831	0.981879	0	0	5.360000e+01
446.325043	1.319559	city	10	1	0.997253	0.997253	0	1	0	0	CorrectCommission	1.352165	0.961812	0	0	5.390000e+01
447.657928	1.346209	city	1	1	1.220524	1.220524	0	1	0	0	CorrectCommission	0.011054	0.937115	0	0	5.420000e+01
448.984192	1.306298	city	5	1	1.102903	1.102903	0	1	0	0	CorrectCommission	0.707101	0.910898	0	0	5.450000e+01
450.283844	1.293035	city	3	1	1.133184	1.133184	0	1	0	0	CorrectCommission	0.522213	0.886198	0	0	5.480000e+01
451.570160	1.279559	city	8	1	1.310505	1.310505	0	1	0	0	CorrectCommission	0.560448	0.865659	0	0	5.510000e+01
452.849640	1.279413	city	3	1	1.242843	1.242843	0	1	0	0	CorrectCommission	0.147324	0.851186	0	0	5.540000e+01
454.135803	1.292909	city	1	1	1.364607	1.364607	0	1	0	0	CorrectCommission	0.890771	0.843755	0	0	5.570000e+01
458.034515	6.504540	break	0	0	0.000000	1.427054	0	0	0	0	ThoughtProbe	1.272056	0.843323	0	56	56
461.946564	1.319571	city	7	1	1.391642	1.391642	0	1	0	0	CorrectCommission	1.055841	0.848927	0	0	5.552174e+01
463.279480	1.346212	city	1	1	1.219825	1.219825	0	1	0	0	CorrectCommission	0.006784	0.858870	0	0	5.504348e+01
464.612427	1.319718	city	9	1	1.009665	1.009665	0	1	0	0	CorrectCommission	1.276380	0.870988	0	0	5.456522e+01
465.918762	1.292919	city	6	1	1.097381	1.097381	0	1	0	0	CorrectCommission	0.740815	0.882844	0	0	5.408696e+01
467.231689	1.332942	city	4	1	1.109045	1.109045	0	1	0	0	CorrectCommission	0.669600	0.892156	0	0	5.360870e+01
468.557922	1.319513	city	9	1	0.979151	0.979151	0	1	0	0	CorrectCommission	1.462689	0.897063	0	0	5.313043e+01
469.877441	1.319574	city	10	1	0.921326	0.921326	0	1	0	0	CorrectCommission	1.815747	0.896379	0	0	5.265217e+01
471.203674	1.332858	city	3	1	1.236148	1.236148	0	1	0	0	CorrectCommission	0.106449	0.889853	0	0	5.217391e+01
472.523254	1.306306	city	6	1	1.085974	1.085974	0	1	0	0	CorrectCommission	0.810462	0.878301	0	0	5.169565e+01
473.856171	1.359536	city	3	1	0.982178	0.982178	0	1	0	0	CorrectCommission	1.444204	0.863515	0	0	5.121739e+01
475.202301	1.332705	city	4	1	1.005633	1.005633	0	1	0	0	CorrectCommission	1.300998	0.848049	0	0	5.073913e+01
476.515106	1.292947	city	10	1	0.933429	0.933429	0	1	0	0	CorrectCommission	1.741850	0.835008	0	0	5.026087e+01
477.814697	1.306226	city	2	1	1.211275	1.211275	0	1	0	0	CorrectCommission	0.045420	0.827486	0	0	4.978261e+01
479.114319	1.293012	mountain	8	0	0.000000	1.267728	1	0	0	0	CorrectOmission	0.299262	0.828069	0	0	4.930435e+01
480.407318	1.292963	mountain	1	0	0.000000	1.215824	1	0	0	0	CorrectOmission	0.017644	0.838275	0	0	4.882609e+01
481.713623	1.319664	city	9	1	1.168600	1.168600	0	1	0	0	CorrectCommission	0.305976	0.858226	0	0	4.834783e+01
483.013153	1.279387	city	4	1	1.239093	1.239093	0	1	0	0	CorrectCommission	0.124426	0.886421	0	0	4.786957e+01
484.346008	1.386313	city	3	1	1.214319	1.214319	0	1	0	0	CorrectCommission	0.026833	0.919886	0	0	4.739130e+01
485.692322	1.306338	city	9	1	1.391692	1.391692	0	1	0	0	CorrectCommission	1.056149	0.954551	0	0	4.691304e+01
486.991821	1.292625	mountain	8	0	0.000000	1.455545	1	0	0	0	CorrectOmission	1.446012	0.985862	0	0	4.643478e+01
488.277893	1.279568	city	8	1	1.536494	1.536494	0	1	0	0	CorrectCommission	1.940254	1.009524	0	0	4.595652e+01
489.570801	1.306238	city	9	1	1.765153	1.765153	0	1	0	0	CorrectCommission	3.336371	1.022170	0	0	4.547826e+01
490.883698	1.319563	city	4	1	1.446116	1.446116	0	1	0	0	CorrectCommission	1.388442	1.021834	0	0	45
492.203369	1.319735	city	10	1	1.057876	1.057876	0	1	0	0	CorrectCommission	0.982021	1.008254	0	0	4.452174e+01
493.516327	1.306231	mountain	6	1	1.045119	1.045119	0	0	1	0	CommissionError	1.059912	0.982651	0	0	4.404348e+01
494.809174	1.279430	city	9	1	1.347686	1.347686	0	1	0	0	CorrectCommission	0.787458	0.947423	0	0	4.356522e+01
496.102051	1.306304	city	1	1	1.224285	1.224285	0	1	0	0	CorrectCommission	0.034017	0.905640	0	0	4.308696e+01
497.401611	1.292862	city	5	1	1.190341	1.190341	0	1	0	0	CorrectCommission	0.173231	0.860508	0	0	4.260870e+01
498.714569	1.333023	city	2	1	1.044787	1.044787	0	1	0	0	CorrectCommission	1.061935	0.814898	0	0	4.213043e+01
500.047546	1.332928	city	1	1	1.127616	1.127616	0	1	0	0	CorrectCommission	0.556209	0.771143	1	0	4.165217e+01
501.360382	1.292788	city	10	1	1.328318	1.328318	0	1	0	0	CorrectCommission	0.669204	0.730964	1	0	4.117391e+01
502.673279	1.333003	city	7	1	1.447774	1.447774	0	1	0	0	CorrectCommission	1.398562	0.695573	1	0	4.069565e+01
504.012848	1.346084	city	5	1	1.301642	1.301642	0	1	0	0	CorrectCommission	0.506333	0.665909	1	0	4.021739e+01
505.352295	1.332851	city	9	1	1.289390	1.289390	0	1	0	0	CorrectCommission	0.431524	0.642919	1	0	3.973913e+01
506.665283	1.293093	city	6	1	1.333245	1.333245	0	1	0	0	CorrectCommission	0.699288	0.627759	1	0	3.926087e+01
507.971588	1.319539	city	7	1	1.337498	1.337498	0	1	0	0	CorrectCommission	0.725257	0.621865	1	0	3.878261e+01
509.297729	1.332737	city	4	1	1.314036	1.314036	0	1	0	0	CorrectCommission	0.582004	0.626956	1	0	3.830435e+01
510.610626	1.293074	city	10	1	1.175693	1.175693	0	1	0	0	CorrectCommission	0.262667	0.644872	1	0	3.782609e+01
511.930267	1.346222	city	5	1	1.249500	1.249500	0	1	0	0	CorrectCommission	0.187973	0.677327	1	0	3.734783e+01
513.249878	1.292955	city	1	1	1.241057	1.241057	0	1	0	0	CorrectCommission	0.136422	0.725613	1	0	3.686957e+01
514.562683	1.332675	city	2	1	1.301079	1.301079	0	1	0	0	CorrectCommission	0.502893	0.790281	1	0	3.639130e+01
515.928772	1.399550	city	8	1	1.106216	1.106216	0	1	0	0	CorrectCommission	0.686870	0.870951	0	0	3.591304e+01
517.295044	1.332896	city	5	1	1.165120	1.165120	0	1	0	0	CorrectCommission	0.327226	0.966181	0	0	3.543478e+01
518.627991	1.333030	city	2	1	1.059139	1.059139	0	1	0	0	CorrectCommission	0.974310	1.073449	0	0	3.495652e+01
519.954285	1.319606	city	4	1	1.031674	1.031674	0	1	0	0	CorrectCommission	1.141999	1.189322	0	0	3.447826e+01
520.614075	9.570338	break	0	0	0.000000	1.004210	0	0	0	0	ThoughtProbe	1.309688	1.309688	0	34	34
