onset	duration	trial_type	image_type	Press	ReactionTime	ReactionTime_Interpolated	CorrectOmission	CorrectCommission	CommissionError	OmissionError	response_type	nonsmoothVarianceTimeCourse	VarianceTimeCourse	In_the_Zone	ThoughtProbe	ThoughtProbe_Interpolated
0.659640	1.292751	city	8	1	1.196240	1.196240	0	1	0	0	CorrectCommission	0.501420	0.501420	1	0	82
1.999352	1.386674	city	2	1	1.197079	1.197079	0	1	0	0	CorrectCommission	0.496124	0.518978	1	0	82
3.332258	1.279138	city	6	1	1.393646	1.393646	0	1	0	0	CorrectCommission	0.743487	0.537320	1	0	82
4.611607	1.279559	city	8	1	1.447969	1.447969	0	1	0	0	CorrectCommission	1.086069	0.557102	1	0	82
5.891182	1.279592	city	6	1	1.250530	1.250530	0	1	0	0	CorrectCommission	0.159048	0.578748	1	0	82
7.170769	1.279583	city	7	1	1.282464	1.282464	0	1	0	0	CorrectCommission	0.042338	0.602406	1	0	82
8.463737	1.306352	mountain	3	0	0.000000	1.337154	1	0	0	0	CorrectOmission	0.387230	0.627788	1	0	82
9.756658	1.279488	city	6	1	1.392210	1.392210	0	1	0	0	CorrectCommission	0.734432	0.654231	1	0	82
11.042912	1.293023	city	4	1	1.425242	1.425242	0	1	0	0	CorrectCommission	0.942746	0.680669	1	0	82
12.329135	1.279421	city	6	1	1.341252	1.341252	0	1	0	0	CorrectCommission	0.413077	0.705807	1	0	82
13.615300	1.292910	mountain	5	0	0.000000	1.425592	1	0	0	0	CorrectOmission	0.944949	0.728230	1	0	82
14.901638	1.279765	city	3	1	1.447148	1.447148	0	1	0	0	CorrectCommission	1.080892	0.746568	1	0	82
16.181297	1.279552	mountain	10	0	0.000000	1.174810	1	0	0	0	CorrectOmission	0.636559	0.759695	1	0	82
17.460863	1.279582	city	2	1	0.983623	0.983623	0	1	0	0	CorrectCommission	1.842248	0.766873	1	0	82
18.753786	1.306261	city	10	1	1.248632	1.248632	0	1	0	0	CorrectCommission	0.171017	0.767873	1	0	82
20.053280	1.292728	city	3	1	1.369564	1.369564	0	1	0	0	CorrectCommission	0.591622	0.763045	1	0	82
21.366154	1.333021	city	1	1	1.341392	1.341392	0	1	0	0	CorrectCommission	0.413958	0.753247	1	0	82
22.672459	1.279588	city	4	1	1.637654	1.637654	0	1	0	0	CorrectCommission	2.282285	0.739806	1	0	82
23.972059	1.319612	city	6	1	1.221638	1.221638	0	1	0	0	CorrectCommission	0.341251	0.724368	1	0	82
25.271654	1.279578	city	7	1	1.371620	1.371620	0	1	0	0	CorrectCommission	0.604585	0.708834	1	0	82
26.564564	1.306239	city	9	1	1.367260	1.367260	0	1	0	0	CorrectCommission	0.577090	0.695065	1	0	82
27.857470	1.279575	mountain	9	0	0.000000	1.341059	1	0	0	0	CorrectOmission	0.411861	0.684728	1	0	82
29.150370	1.306225	city	3	1	1.276349	1.276349	0	1	0	0	CorrectCommission	0.003776	0.679192	1	0	82
30.456551	1.306137	city	9	1	1.156459	1.156459	0	1	0	0	CorrectCommission	0.752291	0.679419	1	0	82
31.749405	1.279569	city	3	1	1.334839	1.334839	0	1	0	0	CorrectCommission	0.372631	0.685937	1	0	82
33.028954	1.279530	city	10	1	1.263020	1.263020	0	1	0	0	CorrectCommission	0.080279	0.698922	1	0	82
34.308578	1.279723	city	4	1	1.611465	1.611465	0	1	0	0	CorrectCommission	2.117125	0.718241	1	0	82
35.608170	1.319456	city	7	1	1.196367	1.196367	0	1	0	0	CorrectCommission	0.500619	0.743461	1	0	82
36.914421	1.293047	city	6	1	1.155497	1.155497	0	1	0	0	CorrectCommission	0.758358	0.773999	1	0	82
38.200645	1.279401	city	3	1	1.406588	1.406588	0	1	0	0	CorrectCommission	0.825107	0.808979	0	0	82
39.480209	1.279732	city	2	1	1.180890	1.180890	0	1	0	0	CorrectCommission	0.598218	0.847211	0	0	82
40.766453	1.292750	city	6	1	1.251169	1.251169	0	1	0	0	CorrectCommission	0.155019	0.887152	0	0	82
42.059319	1.292982	city	10	1	1.272951	1.272951	0	1	0	0	CorrectCommission	0.017654	0.926896	0	0	82
43.345558	1.279498	city	7	1	1.621370	1.621370	0	1	0	0	CorrectCommission	2.179593	0.964209	0	0	82
44.625095	1.279578	city	6	1	1.444786	1.444786	0	1	0	0	CorrectCommission	1.065993	0.996697	0	0	82
45.904675	1.279580	city	9	1	1.068843	1.068843	0	1	0	0	CorrectCommission	1.304823	1.022072	0	0	82
47.184265	1.279603	city	7	1	1.177520	1.177520	0	1	0	0	CorrectCommission	0.619473	1.038431	0	0	82
48.463844	1.279555	city	8	1	0.982797	0.982797	0	1	0	0	CorrectCommission	1.847459	1.044503	0	0	82
49.743412	1.279582	city	1	1	1.030444	1.030444	0	1	0	0	CorrectCommission	1.546979	1.039817	0	0	82
51.023083	1.279760	city	7	1	1.607438	1.607438	0	1	0	0	CorrectCommission	2.091731	1.024802	0	0	82
52.315990	1.306058	city	3	1	1.171659	1.171659	0	1	0	0	CorrectCommission	0.656432	1.000744	0	0	82
53.608898	1.279756	city	9	1	1.079123	1.079123	0	1	0	0	CorrectCommission	1.239998	0.969641	0	0	82
54.895145	1.292736	city	3	1	1.304976	1.304976	0	1	0	0	CorrectCommission	0.184306	0.933833	0	0	82
56.187965	1.292906	city	4	1	1.207376	1.207376	0	1	0	0	CorrectCommission	0.431191	0.895796	0	0	82
57.480949	1.293063	city	3	1	1.092858	1.092858	0	1	0	0	CorrectCommission	1.153379	0.857818	0	0	82
58.127480	12.049361	break	0	1	1.192353	1.192353	0	0	0	0	ThoughtProbe	0.525928	0.821797	0	82	82
70.816650	1.279611	city	1	1	1.301714	1.301714	0	1	0	0	CorrectCommission	0.163736	0.789207	0	0	8.189130e+01
72.129562	1.346223	city	5	1	1.484398	1.484398	0	1	0	0	CorrectCommission	1.315799	0.761127	1	0	8.178261e+01
73.462448	1.319545	city	4	1	1.459387	1.459387	0	1	0	0	CorrectCommission	1.158071	0.738236	1	0	8.167391e+01
74.781998	1.319557	city	1	1	1.165802	1.165802	0	1	0	0	CorrectCommission	0.693371	0.721067	1	0	8.156522e+01
76.081535	1.279508	city	6	1	1.230753	1.230753	0	1	0	0	CorrectCommission	0.283764	0.710028	1	0	8.145652e+01
77.381119	1.319667	city	7	1	1.164925	1.164925	0	1	0	0	CorrectCommission	0.698901	0.705484	1	0	8.134783e+01
78.700722	1.319539	city	1	1	1.250019	1.250019	0	1	0	0	CorrectCommission	0.162269	0.707670	1	0	8.123913e+01
80.013626	1.306272	city	3	1	1.096848	1.096848	0	1	0	0	CorrectCommission	1.128214	0.716658	1	0	8.113043e+01
81.319824	1.306122	mountain	2	0	0.000000	1.304367	1	0	0	0	CorrectOmission	0.180465	0.732217	1	0	8.102174e+01
82.639381	1.332986	city	6	1	1.462269	1.462269	0	1	0	0	CorrectCommission	1.176248	0.753677	1	0	8.091304e+01
83.958908	1.306077	city	8	1	1.160249	1.160249	0	1	0	0	CorrectCommission	0.728390	0.779859	0	0	8.080435e+01
85.258484	1.293065	city	3	1	1.350412	1.350412	0	1	0	0	CorrectCommission	0.470840	0.809048	0	0	8.069565e+01
86.558075	1.306121	city	2	1	1.258957	1.258957	0	1	0	0	CorrectCommission	0.105903	0.839108	0	0	8.058696e+01
87.857635	1.293000	city	5	1	1.239217	1.239217	0	1	0	0	CorrectCommission	0.230391	0.867659	0	0	8.047826e+01
89.143936	1.279595	city	10	1	1.025320	1.025320	0	1	0	0	CorrectCommission	1.579297	0.892360	0	0	8.036957e+01
90.463509	1.359558	mountain	8	1	1.069801	1.069801	0	0	1	0	CommissionError	1.298784	0.911251	0	0	8.026087e+01
91.796333	1.306090	city	1	1	1.579355	1.579355	0	1	0	0	CorrectCommission	1.914633	0.923157	0	0	8.015217e+01
93.102501	1.306242	city	6	1	1.612684	1.612684	0	1	0	0	CorrectCommission	2.124814	0.927788	0	0	8.004348e+01
94.408730	1.306216	city	4	1	1.471212	1.471212	0	1	0	0	CorrectCommission	1.232648	0.925913	0	0	7.993478e+01
95.701721	1.279764	mountain	1	0	0.000000	1.261049	1	0	0	0	CorrectOmission	0.092712	0.919155	0	0	7.982609e+01
96.994705	1.306210	city	10	1	1.137131	1.137131	0	1	0	0	CorrectCommission	0.874180	0.909731	0	0	7.971739e+01
98.294281	1.292935	city	5	1	1.254395	1.254395	0	1	0	0	CorrectCommission	0.134670	0.900008	0	0	7.960870e+01
99.593849	1.306206	city	1	1	1.357644	1.357644	0	1	0	0	CorrectCommission	0.516451	0.892163	0	0	7.950000e+01
100.899994	1.306081	city	8	1	1.315631	1.315631	0	1	0	0	CorrectCommission	0.251498	0.887770	0	0	7.939130e+01
102.199493	1.292916	city	4	1	1.556361	1.556361	0	1	0	0	CorrectCommission	1.769624	0.887624	0	0	7.928261e+01
103.505821	1.319752	city	10	1	1.125708	1.125708	0	1	0	0	CorrectCommission	0.946212	0.891640	0	0	7.917391e+01
104.805397	1.279387	city	3	1	1.238811	1.238811	0	1	0	0	CorrectCommission	0.232952	0.899000	0	0	7.906522e+01
106.084953	1.279732	city	4	1	1.468875	1.468875	0	1	0	0	CorrectCommission	1.217908	0.908271	0	0	7.895652e+01
107.364624	1.279614	city	5	1	1.184687	1.184687	0	1	0	0	CorrectCommission	0.574274	0.917644	0	0	7.884783e+01
108.644218	1.279567	city	4	1	1.561797	1.561797	0	1	0	0	CorrectCommission	1.803902	0.925250	0	0	7.873913e+01
109.930367	1.292731	city	8	1	1.186811	1.186811	0	1	0	0	CorrectCommission	0.560878	0.929353	0	0	7.863043e+01
111.256592	1.359717	city	4	1	1.135788	1.135788	0	1	0	0	CorrectCommission	0.882648	0.928623	0	0	7.852174e+01
112.582825	1.292759	city	9	1	0.980543	0.980543	0	1	0	0	CorrectCommission	1.861674	0.922202	0	0	7.841304e+01
113.875725	1.293031	city	4	1	1.197822	1.197822	0	1	0	0	CorrectCommission	0.491443	0.909786	0	0	7.830435e+01
115.162056	1.279628	mountain	4	0	0.000000	1.424317	1	0	0	0	CorrectOmission	0.936908	0.891676	0	0	7.819565e+01
116.441643	1.279557	city	7	1	1.509137	1.509137	0	1	0	0	CorrectCommission	1.471811	0.868639	0	0	7.808696e+01
117.721222	1.279604	city	5	1	1.301391	1.301391	0	1	0	0	CorrectCommission	0.161699	0.841802	0	0	7.797826e+01
119.000725	1.279393	city	6	1	1.545150	1.545150	0	1	0	0	CorrectCommission	1.698922	0.812567	0	0	7.786957e+01
120.313530	1.346223	city	8	1	1.265441	1.265441	0	1	0	0	CorrectCommission	0.065011	0.782396	0	0	7.776087e+01
121.639786	1.306286	city	2	1	1.155976	1.155976	0	1	0	0	CorrectCommission	0.755336	0.752784	1	0	7.765217e+01
122.966042	1.346228	city	8	1	1.161666	1.161666	0	1	0	0	CorrectCommission	0.719450	0.725065	1	0	7.754348e+01
124.285667	1.293014	city	6	1	1.206237	1.206237	0	1	0	0	CorrectCommission	0.438373	0.700415	1	0	7.743478e+01
125.585281	1.306218	city	8	1	1.152814	1.152814	0	1	0	0	CorrectCommission	0.775273	0.679751	1	0	7.732609e+01
126.898155	1.319532	city	7	1	1.211437	1.211437	0	1	0	0	CorrectCommission	0.405578	0.663716	1	0	7.721739e+01
128.211075	1.306313	city	6	1	1.156307	1.156307	0	1	0	0	CorrectCommission	0.753251	0.652665	1	0	7.710870e+01
128.864227	13.662170	break	0	0	0.000000	1.145567	0	0	0	0	ThoughtProbe	0.820976	0.646656	1	77	77
143.172867	1.292912	city	9	1	1.191617	1.191617	0	1	0	0	CorrectCommission	0.530570	0.645426	1	0	7.705000e+01
144.499084	1.359548	city	4	1	1.306853	1.306853	0	1	0	0	CorrectCommission	0.196147	0.648403	1	0	7.710000e+01
145.825226	1.292729	city	1	1	1.138529	1.138529	0	1	0	0	CorrectCommission	0.865362	0.654742	1	0	7.715000e+01
147.124786	1.306381	mountain	5	0	0.000000	1.250973	1	0	0	0	CorrectOmission	0.156256	0.663324	1	0	7.720000e+01
148.417755	1.279570	city	7	1	1.408313	1.408313	0	1	0	0	CorrectCommission	0.835987	0.672926	1	0	7.725000e+01
149.710648	1.306204	city	6	1	1.374681	1.374681	0	1	0	0	CorrectCommission	0.623890	0.682270	1	0	7.730000e+01
151.003586	1.279665	mountain	1	0	0.000000	1.371346	1	0	0	0	CorrectOmission	0.602857	0.690255	1	0	7.735000e+01
152.283203	1.279575	city	1	1	1.409639	1.409639	0	1	0	0	CorrectCommission	0.844349	0.696075	1	0	7.740000e+01
153.562698	1.279412	city	4	1	1.500894	1.500894	0	1	0	0	CorrectCommission	1.419828	0.699300	1	0	7.745000e+01
154.868851	1.332898	city	3	1	1.506074	1.506074	0	1	0	0	CorrectCommission	1.452499	0.699945	1	0	7.750000e+01
156.175079	1.279556	city	2	1	1.304320	1.304320	0	1	0	0	CorrectCommission	0.180168	0.698400	1	0	7.755000e+01
157.468063	1.306425	city	6	1	1.385146	1.385146	0	1	0	0	CorrectCommission	0.689888	0.695295	1	0	7.760000e+01
158.761047	1.279539	city	4	1	1.347935	1.347935	0	1	0	0	CorrectCommission	0.455222	0.691290	1	0	7.765000e+01
160.047211	1.292786	city	10	1	1.327338	1.327338	0	1	0	0	CorrectCommission	0.325330	0.686857	1	0	7.770000e+01
161.360046	1.332895	city	9	1	1.357004	1.357004	0	1	0	0	CorrectCommission	0.512411	0.682151	1	0	7.775000e+01
162.666367	1.279743	city	3	1	1.185185	1.185185	0	1	0	0	CorrectCommission	0.571136	0.676900	1	0	7.780000e+01
163.945938	1.279404	city	4	1	1.356825	1.356825	0	1	0	0	CorrectCommission	0.511286	0.670473	1	0	7.785000e+01
165.238846	1.306390	city	6	1	1.323838	1.323838	0	1	0	0	CorrectCommission	0.303257	0.662047	1	0	7.790000e+01
166.538498	1.292932	mountain	8	0	0.000000	1.479643	1	0	0	0	CorrectOmission	1.285817	0.650793	1	0	7.795000e+01
167.831421	1.292900	city	3	1	1.579440	1.579440	0	1	0	0	CorrectCommission	1.915167	0.636121	1	0	78
169.144241	1.332764	city	6	1	1.378427	1.378427	0	1	0	0	CorrectCommission	0.647511	0.617882	1	0	7.805000e+01
170.483780	1.346291	city	9	1	1.195354	1.195354	0	1	0	0	CorrectCommission	0.507007	0.596495	1	0	7.810000e+01
171.796646	1.279461	city	5	1	1.348415	1.348415	0	1	0	0	CorrectCommission	0.458249	0.572890	1	0	7.815000e+01
173.082794	1.292825	city	1	1	1.257131	1.257131	0	1	0	0	CorrectCommission	0.117420	0.548420	1	0	7.820000e+01
174.375717	1.293011	city	9	1	1.323262	1.323262	0	1	0	0	CorrectCommission	0.299627	0.524727	1	0	7.825000e+01
175.675415	1.306406	city	7	1	1.319453	1.319453	0	1	0	0	CorrectCommission	0.275603	0.503545	1	0	7.830000e+01
176.981659	1.306069	city	4	1	1.371680	1.371680	0	1	0	0	CorrectCommission	0.604967	0.486533	1	0	7.835000e+01
178.281158	1.292920	city	6	1	1.402693	1.402693	0	1	0	0	CorrectCommission	0.800544	0.475152	1	0	7.840000e+01
179.567474	1.279709	city	3	1	1.307202	1.307202	0	1	0	0	CorrectCommission	0.198347	0.470584	1	0	7.845000e+01
180.847107	1.279579	city	10	1	1.301928	1.301928	0	1	0	0	CorrectCommission	0.165089	0.473685	1	0	7.850000e+01
182.139984	1.306166	city	9	1	1.261968	1.261968	0	1	0	0	CorrectCommission	0.086918	0.484887	1	0	7.855000e+01
183.439575	1.293003	city	8	1	1.199593	1.199593	0	1	0	0	CorrectCommission	0.480271	0.504166	1	0	7.860000e+01
184.732437	1.292736	city	9	1	1.424839	1.424839	0	1	0	0	CorrectCommission	0.940205	0.530999	1	0	7.865000e+01
186.031937	1.306277	city	2	1	1.363157	1.363157	0	1	0	0	CorrectCommission	0.551215	0.564295	1	0	7.870000e+01
187.331604	1.293056	city	1	1	1.266523	1.266523	0	1	0	0	CorrectCommission	0.058187	0.602400	1	0	7.875000e+01
188.624557	1.292850	city	2	1	1.315261	1.315261	0	1	0	0	CorrectCommission	0.249168	0.643105	1	0	7.880000e+01
189.937378	1.332770	city	1	1	1.129159	1.129159	0	1	0	0	CorrectCommission	0.924454	0.683757	1	0	7.885000e+01
191.250198	1.292888	city	3	1	1.261023	1.261023	0	1	0	0	CorrectCommission	0.092873	0.721420	1	0	7.890000e+01
192.536469	1.279653	city	4	1	1.390869	1.390869	0	1	0	0	CorrectCommission	0.725979	0.753267	1	0	7.895000e+01
193.176300	11.649449	break	0	0	0.000000	1.503681	0	0	0	0	ThoughtProbe	1.437405	0.776842	0	79	79
205.472198	1.292902	mountain	8	0	0.000000	1.562778	1	0	0	0	CorrectOmission	1.810088	0.790458	0	0	7.927500e+01
206.785156	1.333028	city	8	1	1.531479	1.531479	0	1	0	0	CorrectCommission	1.612712	0.793491	0	0	7.955000e+01
208.098145	1.292931	city	2	1	1.373106	1.373106	0	1	0	0	CorrectCommission	0.613960	0.786545	0	0	7.982500e+01
209.391068	1.292905	city	9	1	1.511334	1.511334	0	1	0	0	CorrectCommission	1.485666	0.771434	1	0	8.010000e+01
210.690643	1.306256	mountain	9	0	0.000000	1.418258	1	0	0	0	CorrectOmission	0.898699	0.750878	1	0	8.037500e+01
212.003525	1.319516	city	2	1	1.275516	1.275516	0	1	0	0	CorrectCommission	0.001478	0.728187	1	0	8.065000e+01
213.316422	1.306265	city	7	1	1.264745	1.264745	0	1	0	0	CorrectCommission	0.069400	0.706759	1	0	8.092500e+01
214.615997	1.292898	city	4	1	1.244194	1.244194	0	1	0	0	CorrectCommission	0.199001	0.689570	1	0	8.120000e+01
215.915497	1.306091	city	9	1	1.136417	1.136417	0	1	0	0	CorrectCommission	0.878682	0.678786	1	0	8.147500e+01
217.235062	1.333047	city	1	1	1.179287	1.179287	0	1	0	0	CorrectCommission	0.608328	0.675483	1	0	8.175000e+01
218.547958	1.292743	city	10	1	1.314868	1.314868	0	1	0	0	CorrectCommission	0.246689	0.679607	1	0	8.202500e+01
219.860870	1.333087	city	3	1	1.293713	1.293713	0	1	0	0	CorrectCommission	0.113276	0.690017	1	0	8.230000e+01
221.173782	1.292726	city	7	1	1.189148	1.189148	0	1	0	0	CorrectCommission	0.546141	0.704766	1	0	8.257500e+01
222.466690	1.293091	city	3	1	1.105518	1.105518	0	1	0	0	CorrectCommission	1.073540	0.721439	1	0	8.285000e+01
223.766327	1.306186	city	9	1	1.114592	1.114592	0	1	0	0	CorrectCommission	1.016319	0.737563	1	0	8.312500e+01
225.065842	1.292843	city	10	1	0.960235	0.960235	0	1	0	0	CorrectCommission	1.989744	0.750986	1	0	8.340000e+01
226.378677	1.332842	city	5	1	1.254648	1.254648	0	1	0	0	CorrectCommission	0.133074	0.760159	1	0	8.367500e+01
227.691574	1.292945	city	4	1	1.508777	1.508777	0	1	0	0	CorrectCommission	1.469546	0.764308	1	0	8.395000e+01
229.024460	1.372823	city	5	1	1.339656	1.339656	0	1	0	0	CorrectCommission	0.403013	0.763366	1	0	8.422500e+01
230.357407	1.293075	city	8	1	1.377078	1.377078	0	1	0	0	CorrectCommission	0.639004	0.757987	1	0	8.450000e+01
231.657059	1.306240	city	9	1	1.438725	1.438725	0	1	0	0	CorrectCommission	1.027773	0.749258	1	0	8.477500e+01
232.956573	1.292777	city	7	1	1.260736	1.260736	0	1	0	0	CorrectCommission	0.094684	0.738498	1	0	8.505000e+01
234.249481	1.293029	city	1	1	1.087499	1.087499	0	1	0	0	CorrectCommission	1.187174	0.727059	1	0	8.532500e+01
235.535782	1.279586	city	9	1	1.405551	1.405551	0	1	0	0	CorrectCommission	0.818567	0.716072	1	0	8.560000e+01
236.828690	1.306234	city	10	1	1.349924	1.349924	0	1	0	0	CorrectCommission	0.467766	0.706405	1	0	8.587500e+01
238.181519	1.399424	city	6	1	1.331827	1.331827	0	1	0	0	CorrectCommission	0.353640	0.698532	1	0	8.615000e+01
239.521072	1.279689	mountain	8	0	0.000000	1.351370	1	0	0	0	CorrectOmission	0.476883	0.692584	1	0	8.642500e+01
240.800629	1.279420	city	8	1	1.392029	1.392029	0	1	0	0	CorrectCommission	0.733291	0.688394	1	0	8.670000e+01
242.093552	1.306426	city	5	1	1.437280	1.437280	0	1	0	0	CorrectCommission	1.018657	0.685615	1	0	8.697500e+01
243.393219	1.292888	city	2	1	1.476051	1.476051	0	1	0	0	CorrectCommission	1.263163	0.683863	1	0	8.725000e+01
244.719391	1.359463	city	5	1	1.315920	1.315920	0	1	0	0	CorrectCommission	0.253325	0.682792	1	0	8.752500e+01
246.045624	1.293005	city	6	1	1.313262	1.313262	0	1	0	0	CorrectCommission	0.236560	0.682246	1	0	8.780000e+01
247.351822	1.319405	city	7	1	1.181097	1.181097	0	1	0	0	CorrectCommission	0.596911	0.682272	1	0	8.807500e+01
248.664642	1.306232	city	6	1	1.431917	1.431917	0	1	0	0	CorrectCommission	0.984837	0.683151	1	0	8.835000e+01
249.957626	1.279737	city	1	1	1.367686	1.367686	0	1	0	0	CorrectCommission	0.579778	0.685337	1	0	8.862500e+01
251.250534	1.306078	city	7	1	1.557643	1.557643	0	1	0	0	CorrectCommission	1.777709	0.689406	1	0	8.890000e+01
252.576736	1.346315	city	1	1	1.249762	1.249762	0	1	0	0	CorrectCommission	0.163891	0.695893	1	0	8.917500e+01
253.889725	1.279673	city	3	1	1.359506	1.359506	0	1	0	0	CorrectCommission	0.528190	0.705242	1	0	8.945000e+01
255.176025	1.292908	city	2	1	1.317112	1.317112	0	1	0	0	CorrectCommission	0.260841	0.717619	1	0	8.972500e+01
255.822479	8.890398	break	0	0	0.000000	1.236544	0	0	0	0	ThoughtProbe	0.247245	0.732841	1	90	90
265.352570	1.279397	city	10	1	1.229320	1.229320	0	1	0	0	CorrectCommission	0.292806	0.750424	1	0	8.970588e+01
266.638763	1.292999	city	3	1	1.406955	1.406955	0	1	0	0	CorrectCommission	0.827422	0.769623	1	0	8.941176e+01
267.931671	1.292819	mountain	1	1	1.467824	1.467824	0	0	1	0	CommissionError	1.211282	0.789555	0	0	8.911765e+01
269.217896	1.279635	city	4	1	1.523738	1.523738	0	1	0	0	CorrectCommission	1.563893	0.809403	0	0	8.882353e+01
270.517548	1.319668	city	2	1	1.435791	1.435791	0	1	0	0	CorrectCommission	1.009268	0.828488	0	0	8.852941e+01
271.823853	1.292951	city	8	1	1.515753	1.515753	0	1	0	0	CorrectCommission	1.513533	0.846391	0	0	8.823529e+01
273.116791	1.292885	city	3	1	1.312445	1.312445	0	1	0	0	CorrectCommission	0.231410	0.862836	0	0	8.794118e+01
274.409698	1.292920	city	1	1	1.300032	1.300032	0	1	0	0	CorrectCommission	0.153128	0.877691	0	0	8.764706e+01
275.695862	1.279407	city	4	1	1.482968	1.482968	0	1	0	0	CorrectCommission	1.306784	0.890790	0	0	8.735294e+01
277.008759	1.346386	city	5	1	1.183436	1.183436	0	1	0	0	CorrectCommission	0.582165	0.901859	0	0	8.705882e+01
278.334961	1.306056	mountain	6	0	0.000000	1.225355	1	0	0	0	CorrectOmission	0.317807	0.910561	0	0	8.676471e+01
279.641144	1.306274	city	5	1	1.420600	1.420600	0	1	0	0	CorrectCommission	0.913468	0.916556	0	0	8.647059e+01
280.934204	1.279862	city	7	1	1.581042	1.581042	0	1	0	0	CorrectCommission	1.925271	0.919694	0	0	8.617647e+01
282.240448	1.332653	city	1	1	1.114638	1.114638	0	1	0	0	CorrectCommission	1.016028	0.920254	0	0	8.588235e+01
283.559967	1.306334	city	8	1	1.078946	1.078946	0	1	0	0	CorrectCommission	1.241111	0.919090	0	0	8.558824e+01
284.866180	1.306112	city	4	1	1.148253	1.148253	0	1	0	0	CorrectCommission	0.804039	0.917649	0	0	8.529412e+01
286.172333	1.306187	city	1	1	0.979955	0.979955	0	1	0	0	CorrectCommission	1.865382	0.917910	0	0	85
287.471954	1.293095	city	2	1	1.153376	1.153376	0	1	0	0	CorrectCommission	0.771734	0.922068	0	0	8.470588e+01
288.784943	1.332862	city	7	1	1.279898	1.279898	0	1	0	0	CorrectCommission	0.026158	0.932236	0	0	8.441176e+01
290.091187	1.279604	city	3	1	1.185344	1.185344	0	1	0	0	CorrectCommission	0.570134	0.949914	0	0	8.411765e+01
291.384003	1.306057	city	1	1	1.213451	1.213451	0	1	0	0	CorrectCommission	0.392882	0.975612	0	0	8.382353e+01
292.683502	1.292940	city	8	1	1.258678	1.258678	0	1	0	0	CorrectCommission	0.107664	1.008618	0	0	8.352941e+01
293.976501	1.293022	city	9	1	1.404531	1.404531	0	1	0	0	CorrectCommission	0.812134	1.046969	0	0	8.323529e+01
295.276062	1.306108	city	7	1	1.155145	1.155145	0	1	0	0	CorrectCommission	0.760579	1.087584	0	0	8.294118e+01
296.588959	1.319716	city	8	1	0.910886	0.910886	0	1	0	0	CorrectCommission	2.300955	1.126744	0	0	8.264706e+01
297.915253	1.332873	city	2	1	1.116734	1.116734	0	1	0	0	CorrectCommission	1.002807	1.160558	0	0	8.235294e+01
299.234833	1.306257	city	4	1	0.996121	0.996121	0	1	0	0	CorrectCommission	1.763434	1.185613	0	0	8.205882e+01
300.527740	1.279596	city	9	1	0.915701	0.915701	0	1	0	0	CorrectCommission	2.270589	1.199352	0	0	8.176471e+01
301.813934	1.292750	city	2	1	0.876430	0.876430	0	1	0	0	CorrectCommission	2.518243	1.200467	0	0	8.147059e+01
303.113403	1.306210	city	5	1	1.067331	1.067331	0	1	0	0	CorrectCommission	1.314357	1.188950	0	0	8.117647e+01
304.439697	1.346399	city	1	1	1.267308	1.267308	0	1	0	0	CorrectCommission	0.053237	1.166002	0	0	8.088235e+01
305.765961	1.306088	city	4	1	1.260283	1.260283	0	1	0	0	CorrectCommission	0.097542	1.133743	0	0	8.058824e+01
307.072113	1.306228	city	3	1	0.930321	0.930321	0	1	0	0	CorrectCommission	2.178388	1.094826	0	0	8.029412e+01
307.725220	8.384059	break	0	1	1.092585	1.092585	0	0	0	0	ThoughtProbe	1.155100	1.052071	0	80	80
316.749023	1.279458	city	10	1	1.391073	1.391073	0	1	0	0	CorrectCommission	0.727266	1.008223	0	0	8.021739e+01
318.028503	1.279546	city	3	1	1.228765	1.228765	0	1	0	0	CorrectCommission	0.296303	0.965711	0	0	8.043478e+01
319.308136	1.279695	city	10	1	1.027207	1.027207	0	1	0	0	CorrectCommission	1.567395	0.926484	0	0	8.065217e+01
320.601105	1.306266	city	3	1	1.050601	1.050601	0	1	0	0	CorrectCommission	1.419862	0.891948	0	0	8.086957e+01
321.894043	1.279600	city	2	1	1.340153	1.340153	0	1	0	0	CorrectCommission	0.406143	0.862939	0	0	8.108696e+01
323.173676	1.279644	city	3	1	1.318319	1.318319	0	1	0	0	CorrectCommission	0.268451	0.839777	0	0	8.130435e+01
324.453247	1.279522	city	2	1	1.248255	1.248255	0	1	0	0	CorrectCommission	0.173391	0.822232	0	0	8.152174e+01
325.732727	1.279442	city	5	1	1.079556	1.079556	0	1	0	0	CorrectCommission	1.237263	0.809593	0	0	8.173913e+01
327.012238	1.279542	mountain	10	1	1.313094	1.313094	0	0	1	0	CommissionError	0.235504	0.800781	0	0	8.195652e+01
328.291779	1.279589	mountain	5	0	0.000000	1.488976	1	0	0	0	CorrectOmission	1.344673	0.794521	0	0	8.217391e+01
329.571472	1.279744	city	6	1	1.513947	1.513947	0	1	0	0	CorrectCommission	1.502149	0.789427	0	0	8.239130e+01
330.857697	1.292740	city	1	1	1.294753	1.294753	0	1	0	0	CorrectCommission	0.119841	0.784251	0	0	8.260870e+01
332.143951	1.279745	city	3	1	1.244919	1.244919	0	1	0	0	CorrectCommission	0.194432	0.778047	0	0	8.282609e+01
333.423584	1.279519	city	9	1	1.070908	1.070908	0	1	0	0	CorrectCommission	1.291803	0.770331	1	0	8.304348e+01
334.703156	1.279614	city	5	1	1.126952	1.126952	0	1	0	0	CorrectCommission	0.938371	0.761147	1	0	8.326087e+01
335.982758	1.279595	city	1	1	1.017041	1.017041	0	1	0	0	CorrectCommission	1.631502	0.751112	1	0	8.347826e+01
337.262329	1.279589	city	9	1	1.123840	1.123840	0	1	0	0	CorrectCommission	0.957995	0.741305	1	0	8.369565e+01
338.541870	1.279485	city	1	1	1.258838	1.258838	0	1	0	0	CorrectCommission	0.106655	0.733144	1	0	8.391304e+01
339.821472	1.279702	city	7	1	1.175851	1.175851	0	1	0	0	CorrectCommission	0.629995	0.728118	1	0	8.413043e+01
341.114349	1.306042	mountain	6	0	0.000000	1.283246	1	0	0	0	CorrectOmission	0.047270	0.727469	1	0	8.434783e+01
342.407104	1.279458	city	4	1	1.373838	1.373838	0	1	0	0	CorrectCommission	0.618572	0.731980	1	0	8.456522e+01
343.686737	1.279825	mountain	6	0	0.000000	1.240443	1	0	0	0	CorrectOmission	0.222656	0.741768	1	0	8.478261e+01
344.966400	1.279481	city	8	1	1.101462	1.101462	0	1	0	0	CorrectCommission	1.099121	0.756248	1	0	85
346.245911	1.279591	city	3	1	1.175291	1.175291	0	1	0	0	CorrectCommission	0.633529	0.774180	0	0	8.521739e+01
347.525543	1.279680	city	4	1	1.456700	1.456700	0	1	0	0	CorrectCommission	1.141128	0.793798	0	0	8.543478e+01
348.805115	1.279435	city	3	1	1.349753	1.349753	0	1	0	0	CorrectCommission	0.466685	0.813076	0	0	8.565217e+01
350.084625	1.279579	city	8	1	1.231092	1.231092	0	1	0	0	CorrectCommission	0.281627	0.830025	0	0	8.586957e+01
351.377625	1.306406	city	10	1	0.993908	0.993908	0	1	0	0	CorrectCommission	1.777387	0.842944	0	0	8.608696e+01
352.670502	1.279400	city	9	1	1.022136	1.022136	0	1	0	0	CorrectCommission	1.599373	0.850596	0	0	8.630435e+01
353.950012	1.279591	city	7	1	1.497642	1.497642	0	1	0	0	CorrectCommission	1.399323	0.852353	0	0	8.652174e+01
355.229645	1.279651	city	10	1	1.177098	1.177098	0	1	0	0	CorrectCommission	0.622130	0.848227	0	0	8.673913e+01
356.509216	1.279541	city	3	1	1.296541	1.296541	0	1	0	0	CorrectCommission	0.131113	0.838764	0	0	8.695652e+01
357.788849	1.279704	city	2	1	1.400701	1.400701	0	1	0	0	CorrectCommission	0.787982	0.824878	0	0	8.717391e+01
359.068512	1.279588	city	7	1	1.502451	1.502451	0	1	0	0	CorrectCommission	1.429651	0.807678	0	0	8.739130e+01
360.347992	1.279416	city	2	1	1.246983	1.246983	0	1	0	0	CorrectCommission	0.181417	0.788274	0	0	8.760870e+01
361.634216	1.293040	city	4	1	1.409008	1.409008	0	1	0	0	CorrectCommission	0.840369	0.767701	1	0	8.782609e+01
362.920563	1.279614	city	10	1	1.124877	1.124877	0	1	0	0	CorrectCommission	0.951455	0.746770	1	0	8.804348e+01
364.200073	1.279401	city	1	1	1.141016	1.141016	0	1	0	0	CorrectCommission	0.849677	0.726082	1	0	8.826087e+01
365.479645	1.279746	city	2	1	1.228233	1.228233	0	1	0	0	CorrectCommission	0.299657	0.706092	1	0	8.847826e+01
366.759308	1.279588	city	10	1	1.085671	1.085671	0	1	0	0	CorrectCommission	1.198702	0.687178	1	0	8.869565e+01
368.038788	1.279398	city	8	1	1.230860	1.230860	0	1	0	0	CorrectCommission	0.283093	0.669641	1	0	8.891304e+01
369.318298	1.279623	city	7	1	1.283667	1.283667	0	1	0	0	CorrectCommission	0.049929	0.653858	1	0	8.913043e+01
370.597900	1.279579	city	5	1	1.550255	1.550255	0	1	0	0	CorrectCommission	1.731114	0.640255	1	0	8.934783e+01
371.884247	1.293108	city	4	1	1.243640	1.243640	0	1	0	0	CorrectCommission	0.202499	0.629297	1	0	8.956522e+01
373.177216	1.292840	city	3	1	1.146665	1.146665	0	1	0	0	CorrectCommission	0.814053	0.621517	1	0	8.978261e+01
373.823639	9.103674	break	0	0	0.000000	1.258882	0	0	0	0	ThoughtProbe	0.106375	0.617358	1	90	90
383.573669	1.292719	city	6	1	1.401732	1.401732	0	1	0	0	CorrectCommission	0.794483	0.617096	1	0	9.020588e+01
384.879822	1.319585	city	4	1	1.396656	1.396656	0	1	0	0	CorrectCommission	0.762468	0.620763	1	0	9.041176e+01
386.212830	1.346394	city	6	1	1.266402	1.266402	0	1	0	0	CorrectCommission	0.058951	0.628006	1	0	9.061765e+01
387.525726	1.279408	mountain	6	0	0.000000	1.308376	1	0	0	0	CorrectOmission	0.205751	0.638119	1	0	9.082353e+01
388.805298	1.279740	city	6	1	1.393895	1.393895	0	1	0	0	CorrectCommission	0.745057	0.650061	1	0	9.102941e+01
390.084930	1.279517	city	1	1	1.394274	1.394274	0	1	0	0	CorrectCommission	0.747452	0.662582	1	0	9.123529e+01
391.364471	1.279553	city	5	1	1.453143	1.453143	0	1	0	0	CorrectCommission	1.118696	0.674423	1	0	9.144118e+01
392.677307	1.346134	city	9	1	1.320378	1.320378	0	1	0	0	CorrectCommission	0.281439	0.684511	1	0	9.164706e+01
394.016907	1.333081	city	10	1	1.061242	1.061242	0	1	0	0	CorrectCommission	1.352762	0.692154	1	0	9.185294e+01
395.329895	1.292914	city	5	1	1.434757	1.434757	0	1	0	0	CorrectCommission	1.002751	0.697140	1	0	9.205882e+01
396.629425	1.306124	city	9	1	1.332826	1.332826	0	1	0	0	CorrectCommission	0.359938	0.699883	1	0	9.226471e+01
397.922333	1.279683	city	6	1	1.410821	1.410821	0	1	0	0	CorrectCommission	0.851803	0.701283	1	0	9.247059e+01
399.208618	1.292868	city	10	1	1.084525	1.084525	0	1	0	0	CorrectCommission	1.205930	0.702630	1	0	9.267647e+01
400.494812	1.279574	city	2	1	1.368005	1.368005	0	1	0	0	CorrectCommission	0.581789	0.705372	1	0	9.288235e+01
401.781006	1.292772	city	4	1	1.304701	1.304701	0	1	0	0	CorrectCommission	0.182570	0.710900	1	0	9.308824e+01
403.087158	1.319560	mountain	7	0	0.000000	1.236173	1	0	0	0	CorrectOmission	0.249585	0.720304	1	0	9.329412e+01
404.386749	1.279608	city	5	1	1.191839	1.191839	0	1	0	0	CorrectCommission	0.529170	0.734184	1	0	9.350000e+01
405.692993	1.332869	city	10	1	1.201114	1.201114	0	1	0	0	CorrectCommission	0.470682	0.752593	1	0	9.370588e+01
407.005951	1.293066	city	3	1	1.154616	1.154616	0	1	0	0	CorrectCommission	0.763914	0.775057	0	0	9.391176e+01
408.292206	1.279444	city	1	1	1.298386	1.298386	0	1	0	0	CorrectCommission	0.142750	0.800679	0	0	9.411765e+01
409.571716	1.279551	city	5	1	1.729594	1.729594	0	1	0	0	CorrectCommission	2.862088	0.828333	0	0	9.432353e+01
410.884674	1.346368	city	1	1	1.271090	1.271090	0	1	0	0	CorrectCommission	0.029390	0.856787	0	0	9.452941e+01
412.210907	1.306104	city	5	1	1.421148	1.421148	0	1	0	0	CorrectCommission	0.916924	0.884987	0	0	9.473529e+01
413.530396	1.332893	city	7	1	1.463425	1.463425	0	1	0	0	CorrectCommission	1.183540	0.911981	0	0	9.494118e+01
414.870026	1.346383	city	8	1	1.118879	1.118879	0	1	0	0	CorrectCommission	0.989283	0.937030	0	0	9.514706e+01
416.196259	1.306073	city	1	1	1.175383	1.175383	0	1	0	0	CorrectCommission	0.632949	0.959579	0	0	9.535294e+01
417.495850	1.293082	city	6	1	1.412049	1.412049	0	1	0	0	CorrectCommission	0.859547	0.979160	0	0	9.555882e+01
418.802185	1.319596	city	10	1	1.235103	1.235103	0	1	0	0	CorrectCommission	0.256335	0.995332	0	0	9.576471e+01
420.101746	1.279556	city	5	1	1.530754	1.530754	0	1	0	0	CorrectCommission	1.608134	1.007680	0	0	9.597059e+01
421.394653	1.306241	city	1	1	1.637532	1.637532	0	1	0	0	CorrectCommission	2.281511	1.015765	0	0	9.617647e+01
422.727478	1.359368	city	10	1	1.334008	1.334008	0	1	0	0	CorrectCommission	0.367392	1.019152	0	0	9.638235e+01
424.073669	1.333040	city	7	1	1.519297	1.519297	0	1	0	0	CorrectCommission	1.535886	1.017510	0	0	9.658824e+01
425.379913	1.279449	city	9	1	1.126892	1.126892	0	1	0	0	CorrectCommission	0.938747	1.010544	0	0	9.679412e+01
429.871735	7.704222	break	0	0	0.000000	1.285419	0	0	0	0	ThoughtProbe	0.060977	0.998122	0	97	97
434.370270	1.292807	city	5	1	1.533110	1.533110	0	1	0	0	CorrectCommission	1.622997	0.980333	0	0	9.691176e+01
435.676453	1.319586	city	6	1	1.408197	1.408197	0	1	0	0	CorrectCommission	0.835250	0.957482	0	0	9.682353e+01
437.036102	1.399707	city	9	1	1.141122	1.141122	0	1	0	0	CorrectCommission	0.849012	0.930261	0	0	9.673529e+01
438.382416	1.292896	city	1	1	0.921927	0.921927	0	1	0	0	CorrectCommission	2.231322	0.899750	0	0	9.664706e+01
439.675293	1.292881	city	7	1	1.195454	1.195454	0	1	0	0	CorrectCommission	0.506377	0.867393	0	0	9.655882e+01
440.961456	1.279433	city	2	1	1.198597	1.198597	0	1	0	0	CorrectCommission	0.486554	0.835042	0	0	9.647059e+01
442.241028	1.279740	city	8	1	1.076940	1.076940	0	1	0	0	CorrectCommission	1.253764	0.804730	0	0	9.638235e+01
443.533966	1.306103	mountain	4	0	0.000000	1.186330	1	0	0	0	CorrectOmission	0.563914	0.778519	0	0	9.629412e+01
444.840149	1.306252	city	5	1	1.320266	1.320266	0	1	0	0	CorrectCommission	0.280731	0.758237	1	0	9.620588e+01
446.153107	1.319675	city	2	1	1.272246	1.272246	0	1	0	0	CorrectCommission	0.022096	0.745338	1	0	9.611765e+01
447.452667	1.279428	city	5	1	1.416939	1.416939	0	1	0	0	CorrectCommission	0.890382	0.740629	1	0	9.602941e+01
448.758911	1.333064	city	6	1	1.391240	1.391240	0	1	0	0	CorrectCommission	0.728318	0.744170	1	0	9.594118e+01
450.078522	1.306184	city	1	1	1.266218	1.266218	0	1	0	0	CorrectCommission	0.060113	0.755314	1	0	9.585294e+01
451.371338	1.279458	city	3	1	1.422995	1.422995	0	1	0	0	CorrectCommission	0.928572	0.772785	1	0	9.576471e+01
452.664276	1.306419	mountain	3	0	0.000000	1.430950	1	0	0	0	CorrectOmission	0.978742	0.794813	0	0	9.567647e+01
453.970581	1.306206	city	1	1	1.398775	1.398775	0	1	0	0	CorrectCommission	0.775832	0.819438	0	0	9.558824e+01
455.296814	1.346229	city	7	1	1.435158	1.435158	0	1	0	0	CorrectCommission	1.005278	0.844758	0	0	9.550000e+01
456.629639	1.319439	city	1	1	1.156459	1.156459	0	1	0	0	CorrectCommission	0.752292	0.869149	0	0	9.541176e+01
457.935760	1.292783	city	6	1	1.154920	1.154920	0	1	0	0	CorrectCommission	0.761994	0.891518	0	0	9.532353e+01
459.228729	1.293180	city	4	1	0.972439	0.972439	0	1	0	0	CorrectCommission	1.912782	0.911317	0	0	9.523529e+01
460.521606	1.292543	city	7	1	1.108912	1.108912	0	1	0	0	CorrectCommission	1.052135	0.928560	0	0	9.514706e+01
461.827759	1.319750	city	5	1	1.190807	1.190807	0	1	0	0	CorrectCommission	0.535677	0.943769	0	0	9.505882e+01
463.154083	1.332901	city	2	1	1.093874	1.093874	0	1	0	0	CorrectCommission	1.146969	0.957664	0	0	9.497059e+01
464.487061	1.333071	city	5	1	1.106233	1.106233	0	1	0	0	CorrectCommission	1.069033	0.970932	0	0	9.488235e+01
465.800049	1.292908	city	1	1	1.155493	1.155493	0	1	0	0	CorrectCommission	0.758381	0.984013	0	0	9.479412e+01
467.092926	1.292874	city	10	1	1.387732	1.387732	0	1	0	0	CorrectCommission	0.706194	0.996831	0	0	9.470588e+01
468.392487	1.306230	city	2	1	1.334832	1.334832	0	1	0	0	CorrectCommission	0.372587	1.008761	0	0	9.461765e+01
469.712067	1.332920	city	7	1	1.312964	1.312964	0	1	0	0	CorrectCommission	0.234681	1.018666	0	0	9.452941e+01
471.031555	1.306072	city	9	1	1.008767	1.008767	0	1	0	0	CorrectCommission	1.683684	1.025076	0	0	9.444118e+01
472.331055	1.292925	city	8	1	1.001877	1.001877	0	1	0	0	CorrectCommission	1.727133	1.026462	0	0	9.435294e+01
473.617371	1.279726	city	7	1	1.017169	1.017169	0	1	0	0	CorrectCommission	1.630700	1.021652	0	0	9.426471e+01
474.916962	1.319399	city	9	1	0.982674	0.982674	0	1	0	0	CorrectCommission	1.848235	1.010062	0	0	9.417647e+01
476.243164	1.333062	city	7	1	1.061240	1.061240	0	1	0	0	CorrectCommission	1.352773	0.991885	0	0	9.408824e+01
479.868652	5.917892	break	0	0	0.000000	1.188124	0	0	0	0	ThoughtProbe	0.552600	0.968178	0	94	94
483.480743	1.306306	city	6	1	1.253025	1.253025	0	1	0	0	CorrectCommission	0.143313	0.940800	0	0	9.385000e+01
484.806976	1.346159	city	4	1	1.145641	1.145641	0	1	0	0	CorrectCommission	0.820508	0.912191	0	0	9.370000e+01
486.139923	1.319744	city	5	1	1.091433	1.091433	0	1	0	0	CorrectCommission	1.162366	0.885137	0	0	9.355000e+01
487.452911	1.306212	city	8	1	1.104075	1.104075	0	1	0	0	CorrectCommission	1.082637	0.862515	0	0	9.340000e+01
488.805695	1.399373	city	1	1	1.236625	1.236625	0	1	0	0	CorrectCommission	0.246738	0.846967	0	0	9.325000e+01
490.145264	1.279738	mountain	4	0	0.000000	1.391432	1	0	0	0	CorrectOmission	0.729525	0.840698	0	0	9.310000e+01
491.424866	1.279436	city	5	1	1.424981	1.424981	0	1	0	0	CorrectCommission	0.941098	0.845193	0	0	9.295000e+01
492.737762	1.346402	city	1	1	1.193757	1.193757	0	1	0	0	CorrectCommission	0.517074	0.861063	0	0	9.280000e+01
494.057373	1.292795	mountain	3	0	0.000000	1.312198	1	0	0	0	CorrectOmission	0.229849	0.887925	0	0	9.265000e+01
495.350189	1.292835	city	1	1	1.475247	1.475247	0	1	0	0	CorrectCommission	1.258095	0.924340	0	0	9.250000e+01
496.656403	1.319596	city	6	1	1.377852	1.377852	0	1	0	0	CorrectCommission	0.643887	0.967830	0	0	9.235000e+01
497.962708	1.293052	city	2	1	1.212165	1.212165	0	1	0	0	CorrectCommission	0.400991	1.015128	0	0	9.220000e+01
499.275726	1.332928	city	7	1	1.181982	1.181982	0	1	0	0	CorrectCommission	0.591332	1.062439	0	0	9.205000e+01
500.628601	1.372838	city	9	1	1.085441	1.085441	0	1	0	0	CorrectCommission	1.200154	1.105838	0	0	9.190000e+01
501.988129	1.346234	city	2	1	1.104122	1.104122	0	1	0	0	CorrectCommission	1.082341	1.141730	0	0	9.175000e+01
503.307709	1.292906	city	9	1	0.788131	0.788131	0	1	0	0	CorrectCommission	3.075088	1.167284	0	0	9.160000e+01
504.607178	1.306067	city	10	1	0.893803	0.893803	0	1	0	0	CorrectCommission	2.408685	1.180686	0	0	9.145000e+01
505.915222	1.309990	city	8	1	0.985662	0.985662	0	1	0	0	CorrectCommission	1.829389	1.181352	0	0	9.130000e+01
507.254852	1.369304	city	3	1	1.102072	1.102072	0	1	0	0	CorrectCommission	1.095272	1.169828	0	0	9.115000e+01
508.605865	1.332714	city	2	1	1.203912	1.203912	0	1	0	0	CorrectCommission	0.453036	1.147511	0	0	91
509.925507	1.306530	city	4	1	1.258809	1.258809	0	1	0	0	CorrectCommission	0.106839	1.116312	0	0	9.085000e+01
511.218506	1.279468	mountain	2	0	0.000000	1.457907	1	0	0	0	CorrectOmission	1.148739	1.078272	0	0	9.070000e+01
512.511353	1.306228	city	2	1	1.542670	1.542670	0	1	0	0	CorrectCommission	1.683285	1.035220	0	0	9.055000e+01
513.810852	1.292736	city	10	1	1.254563	1.254563	0	1	0	0	CorrectCommission	0.133610	0.988660	0	0	9.040000e+01
515.103699	1.293068	city	7	1	1.389556	1.389556	0	1	0	0	CorrectCommission	0.717694	0.939801	0	0	9.025000e+01
516.484497	1.468495	city	9	1	1.115167	1.115167	0	1	0	0	CorrectCommission	1.012689	0.889646	0	0	9.010000e+01
517.890747	1.343934	city	10	1	0.893330	0.893330	0	1	0	0	CorrectCommission	2.411667	0.839226	0	0	8.995000e+01
519.209106	1.292883	city	3	1	1.515300	1.515300	0	1	0	0	CorrectCommission	1.510682	0.789732	0	0	8.980000e+01
520.521912	1.332735	city	5	1	1.344398	1.344398	0	1	0	0	CorrectCommission	0.432916	0.742648	1	0	8.965000e+01
521.854858	1.333084	city	9	1	1.275223	1.275223	0	1	0	0	CorrectCommission	0.003327	0.699677	1	0	8.950000e+01
523.187805	1.332773	city	10	1	1.275632	1.275632	0	1	0	0	CorrectCommission	0.000746	0.662571	1	0	8.935000e+01
524.513916	1.319499	city	8	1	1.293194	1.293194	0	1	0	0	CorrectCommission	0.110005	0.632892	1	0	8.920000e+01
525.846802	1.346233	city	9	1	1.232357	1.232357	0	1	0	0	CorrectCommission	0.273652	0.611820	1	0	8.905000e+01
527.179749	1.319746	city	7	1	1.175350	1.175350	0	1	0	0	CorrectCommission	0.633158	0.599976	1	0	8.890000e+01
528.512695	1.346046	city	1	1	1.236680	1.236680	0	1	0	0	CorrectCommission	0.246392	0.597368	1	0	8.875000e+01
529.838806	1.306283	city	4	1	1.467286	1.467286	0	1	0	0	CorrectCommission	1.207885	0.603397	1	0	8.860000e+01
531.165161	1.346351	city	10	1	1.351371	1.351371	0	1	0	0	CorrectCommission	0.476891	0.616928	1	0	8.845000e+01
532.511353	1.346077	city	5	1	1.389593	1.389593	0	1	0	0	CorrectCommission	0.717931	0.636397	1	0	8.830000e+01
533.870850	1.372944	city	1	1	1.278312	1.278312	0	1	0	0	CorrectCommission	0.016158	0.659956	1	0	8.815000e+01
534.557373	8.637350	break	0	0	0.000000	1.167032	0	0	0	0	ThoughtProbe	0.685615	0.685615	1	88	88
