onset	duration	trial_type	image_type	Press	ReactionTime	ReactionTime_Interpolated	CorrectOmission	CorrectCommission	CommissionError	OmissionError	response_type	nonsmoothVarianceTimeCourse	VarianceTimeCourse	In_the_Zone	ThoughtProbe	ThoughtProbe_Interpolated
0.679639	1.332829	city	6	1	1.241519	1.241519	0	1	0	0	CorrectCommission	0.416162	0.416162	1	0	11
1.985796	1.279484	city	5	1	1.076519	1.076519	0	1	0	0	CorrectCommission	0.991291	0.498895	1	0	11
3.265386	1.279695	city	8	1	1.247738	1.247738	0	1	0	0	CorrectCommission	0.394485	0.578857	1	0	11
4.551687	1.292908	city	3	1	1.085167	1.085167	0	1	0	0	CorrectCommission	0.961146	0.653549	1	0	11
5.851179	1.306075	city	8	1	1.010198	1.010198	0	1	0	0	CorrectCommission	1.222460	0.720928	1	0	11
7.144101	1.279768	city	9	1	0.993244	0.993244	0	1	0	0	CorrectCommission	1.281555	0.779582	1	0	11
8.423762	1.279554	city	7	1	0.970352	0.970352	0	1	0	0	CorrectCommission	1.361347	0.828750	0	0	11
9.710013	1.292948	city	3	1	1.152769	1.152769	0	1	0	0	CorrectCommission	0.725510	0.868253	0	0	11
10.996268	1.279563	mountain	10	0	0.000000	1.149231	1	0	0	0	CorrectOmission	0.737844	0.898375	0	0	11
12.402382	1.532663	city	2	1	1.189549	1.189549	0	1	0	0	CorrectCommission	0.597311	0.919686	0	0	11
13.808491	1.279556	city	7	1	1.503535	1.503535	0	1	0	0	CorrectCommission	0.497125	0.932936	0	0	11
15.088058	1.279579	city	2	1	1.670843	1.670843	0	1	0	0	CorrectCommission	1.080298	0.938972	0	0	11
16.381050	1.306406	mountain	7	0	0.000000	1.762438	1	0	0	0	CorrectOmission	1.399566	0.938690	0	0	11
17.673969	1.279431	city	7	0	0.000000	1.789313	0	0	0	1	OmissionError	1.493241	0.933113	0	0	11
18.960209	1.293051	city	3	0	0.000000	1.762459	0	0	0	1	OmissionError	1.399637	0.923399	0	0	11
20.246525	1.279578	city	8	0	0.000000	1.692867	0	0	0	1	OmissionError	1.157065	0.910881	0	0	11
21.526114	1.279601	city	7	0	0.000000	1.591528	0	0	0	1	OmissionError	0.803838	0.896982	0	0	11
22.812319	1.292810	city	1	0	0.000000	1.469436	0	0	0	1	OmissionError	0.378269	0.883128	0	0	11
24.098566	1.279682	city	4	1	1.337580	1.337580	0	1	0	0	CorrectCommission	0.081329	0.870629	0	0	11
25.384857	1.292903	city	7	1	1.206954	1.206954	0	1	0	0	CorrectCommission	0.536645	0.860555	0	0	11
26.671015	1.279410	city	9	0	0.000000	1.575381	0	0	0	1	OmissionError	0.747554	0.853623	0	0	11
27.950584	1.279730	city	10	1	1.881234	1.881234	0	1	0	0	CorrectCommission	1.813642	0.850224	0	0	11
29.230156	1.279415	city	2	1	1.562885	1.562885	0	1	0	0	CorrectCommission	0.703998	0.850405	0	0	11
30.516407	1.293086	city	8	1	1.189635	1.189635	0	1	0	0	CorrectCommission	0.597012	0.853991	0	0	11
31.802694	1.279487	city	2	0	0.000000	1.054396	0	0	0	1	OmissionError	1.068402	0.860602	0	0	11
33.082230	1.279586	city	5	0	0.000000	1.073601	0	0	0	1	OmissionError	1.001460	0.869659	0	0	11
34.361778	1.279509	city	1	0	0.000000	1.163682	0	0	0	1	OmissionError	0.687474	0.880441	0	0	11
35.648067	1.293069	city	2	0	0.000000	1.241068	0	0	0	1	OmissionError	0.417733	0.892087	0	0	11
36.947624	1.306049	city	8	1	1.222193	1.222193	0	1	0	0	CorrectCommission	0.483525	0.903563	0	0	11
38.240479	1.279654	city	7	1	1.023488	1.023488	0	1	0	0	CorrectCommission	1.176137	0.913713	0	0	11
39.520111	1.279614	city	8	1	0.926109	0.926109	0	1	0	0	CorrectCommission	1.515563	0.921292	0	0	11
40.799736	1.279636	city	4	1	1.076293	1.076293	0	1	0	0	CorrectCommission	0.992077	0.925083	0	0	11
42.092674	1.306238	city	3	1	1.008367	1.008367	0	1	0	0	CorrectCommission	1.228843	0.924016	0	0	11
42.745792	12.262601	break	0	0	0.000000	1.473451	0	0	0	0	ThoughtProbe	0.392264	0.917246	0	11	11
55.654846	1.292904	city	9	1	1.855101	1.855101	0	1	0	0	CorrectCommission	1.722553	0.904301	0	0	1.141304e+01
56.947769	1.292942	city	1	1	1.536873	1.536873	0	1	0	0	CorrectCommission	0.613331	0.885125	0	0	1.182609e+01
58.233955	1.279436	city	9	1	1.512971	1.512971	0	1	0	0	CorrectCommission	0.530018	0.860237	0	0	1.223913e+01
59.520203	1.293057	mountain	2	0	0.000000	1.698266	1	0	0	0	CorrectOmission	1.175884	0.830714	0	0	1.265217e+01
60.806435	1.279407	city	2	1	1.823120	1.823120	0	1	0	0	CorrectCommission	1.611078	0.798197	0	0	1.306522e+01
62.086021	1.279767	city	6	1	1.617897	1.617897	0	1	0	0	CorrectCommission	0.895748	0.764805	1	0	1.347826e+01
63.365604	1.279397	city	10	1	1.246311	1.246311	0	1	0	0	CorrectCommission	0.399460	0.733046	1	0	1.389130e+01
64.645172	1.279742	city	8	1	1.410529	1.410529	0	1	0	0	CorrectCommission	0.172941	0.705544	1	0	1.430435e+01
65.938171	1.306255	city	2	1	1.266034	1.266034	0	1	0	0	CorrectCommission	0.330714	0.684778	1	0	1.471739e+01
67.244408	1.306218	city	10	1	1.092449	1.092449	0	1	0	0	CorrectCommission	0.935764	0.672779	1	0	1.513043e+01
68.557243	1.319450	city	7	1	1.424167	1.424167	0	1	0	0	CorrectCommission	0.220480	0.670899	1	0	1.554348e+01
69.876732	1.319534	city	10	1	1.279306	1.279306	0	1	0	0	CorrectCommission	0.284451	0.679596	1	0	1.595652e+01
71.189705	1.306404	city	7	1	1.652928	1.652928	0	1	0	0	CorrectCommission	1.017854	0.698258	1	0	1.636957e+01
72.502609	1.319413	city	2	1	1.435062	1.435062	0	1	0	0	CorrectCommission	0.258454	0.725196	1	0	1.678261e+01
73.822121	1.319600	city	5	1	1.301362	1.301362	0	1	0	0	CorrectCommission	0.207574	0.757789	1	0	1.719565e+01
75.128387	1.292935	city	2	1	1.351924	1.351924	0	1	0	0	CorrectCommission	0.031332	0.792677	0	0	1.760870e+01
76.414680	1.279651	mountain	3	0	0.000000	1.582928	1	0	0	0	CorrectOmission	0.773862	0.826170	0	0	1.802174e+01
77.694260	1.279506	city	6	1	1.833790	1.833790	0	1	0	0	CorrectCommission	1.648271	0.854649	0	0	1.843478e+01
78.973839	1.279650	mountain	6	0	0.000000	1.943926	1	0	0	0	CorrectOmission	2.032162	0.875030	0	0	1.884783e+01
80.260117	1.292907	city	3	1	1.913780	1.913780	0	1	0	0	CorrectCommission	1.927084	0.885159	0	0	1.926087e+01
81.566353	1.319569	city	9	0	0.000000	1.743796	0	0	0	1	OmissionError	1.334584	0.884037	0	0	1.967391e+01
82.865921	1.279574	city	6	0	0.000000	1.552429	0	0	0	1	OmissionError	0.667552	0.871935	0	0	2.008696e+01
84.152092	1.292760	city	3	1	1.458134	1.458134	0	1	0	0	CorrectCommission	0.338875	0.850242	0	0	2.050000e+01
85.438332	1.279728	city	1	1	1.579365	1.579365	0	1	0	0	CorrectCommission	0.761440	0.821238	0	0	2.091304e+01
86.731331	1.306258	city	4	0	0.000000	1.350775	0	0	0	1	OmissionError	0.035338	0.787780	1	0	2.132609e+01
88.024155	1.279397	city	2	0	0.000000	1.036921	0	0	0	1	OmissionError	1.129313	0.753009	1	0	2.173913e+01
89.323715	1.319728	city	5	1	0.902361	0.902361	0	1	0	0	CorrectCommission	1.598339	0.719995	1	0	2.215217e+01
90.636772	1.306379	city	7	1	1.211652	1.211652	0	1	0	0	CorrectCommission	0.520269	0.691507	1	0	2.256522e+01
91.936272	1.292618	city	9	1	1.415999	1.415999	0	1	0	0	CorrectCommission	0.192007	0.669865	1	0	2.297826e+01
93.222366	1.279577	city	4	1	1.450174	1.450174	0	1	0	0	CorrectCommission	0.311129	0.656722	1	0	2.339130e+01
94.521957	1.319595	city	3	1	1.404973	1.404973	0	1	0	0	CorrectCommission	0.153575	0.653000	1	0	2.380435e+01
95.848274	1.333041	city	5	1	1.287837	1.287837	0	1	0	0	CorrectCommission	0.254714	0.658842	1	0	2.421739e+01
97.154579	1.279578	city	10	0	0.000000	1.146162	0	0	0	1	OmissionError	0.748542	0.673652	1	0	2.463043e+01
98.454140	1.319538	city	8	1	1.121521	1.121521	0	1	0	0	CorrectCommission	0.834431	0.696172	1	0	2.504348e+01
99.753632	1.279451	mountain	9	0	0.000000	1.355490	1	0	0	0	CorrectOmission	0.018904	0.724637	1	0	2.545652e+01
101.053207	1.319699	city	4	1	1.635454	1.635454	0	1	0	0	CorrectCommission	0.956947	0.756999	1	0	2.586957e+01
102.372841	1.319565	city	8	1	1.748801	1.748801	0	1	0	0	CorrectCommission	1.352030	0.791085	1	0	2.628261e+01
103.685745	1.306248	city	4	1	1.742714	1.742714	0	1	0	0	CorrectCommission	1.330812	0.824824	0	0	2.669565e+01
104.998650	1.319557	city	9	1	1.502426	1.502426	0	1	0	0	CorrectCommission	0.493262	0.856389	0	0	2.710870e+01
106.311478	1.306100	city	2	1	1.274391	1.274391	0	1	0	0	CorrectCommission	0.301582	0.884311	0	0	2.752174e+01
107.617729	1.306397	city	4	1	1.049484	1.049484	0	1	0	0	CorrectCommission	1.085525	0.907536	0	0	2.793478e+01
108.910698	1.279551	city	10	1	0.770133	0.770133	0	1	0	0	CorrectCommission	2.059237	0.925448	0	0	2.834783e+01
110.223602	1.346247	city	5	1	1.564108	1.564108	0	1	0	0	CorrectCommission	0.708259	0.937831	0	0	2.876087e+01
111.549805	1.306156	city	7	1	1.207549	1.207549	0	1	0	0	CorrectCommission	0.534569	0.944873	0	0	2.917391e+01
112.849358	1.292964	city	5	1	1.003231	1.003231	0	1	0	0	CorrectCommission	1.246745	0.946997	0	0	2.958696e+01
113.495842	8.797033	break	0	1	0.832449	0.832449	0	0	0	0	ThoughtProbe	1.842028	0.944744	0	30	30
122.959290	1.332830	city	2	1	1.291438	1.291438	0	1	0	0	CorrectCommission	0.242164	0.938683	0	0	2.923529e+01
124.312134	1.372858	city	8	1	1.162545	1.162545	0	1	0	0	CorrectCommission	0.691435	0.929360	0	0	2.847059e+01
125.638405	1.279677	mountain	10	0	0.000000	1.433781	1	0	0	0	CorrectOmission	0.253989	0.917127	0	0	2.770588e+01
126.924721	1.292953	city	6	1	1.753286	1.753286	0	1	0	0	CorrectCommission	1.367663	0.902225	0	0	2.694118e+01
128.237579	1.332761	city	5	1	1.769203	1.769203	0	1	0	0	CorrectCommission	1.423145	0.884752	0	0	2.617647e+01
129.550415	1.292907	city	1	1	1.735267	1.735267	0	1	0	0	CorrectCommission	1.304858	0.864766	0	0	2.541176e+01
130.843323	1.292926	city	2	1	1.598233	1.598233	0	1	0	0	CorrectCommission	0.827207	0.842327	0	0	2.464706e+01
132.142914	1.306255	city	10	1	1.249487	1.249487	0	1	0	0	CorrectCommission	0.388390	0.817586	0	0	2.388235e+01
133.435822	1.279560	city	3	1	1.311946	1.311946	0	1	0	0	CorrectCommission	0.170682	0.790810	1	0	2.311765e+01
134.748764	1.346316	city	9	1	1.705982	1.705982	0	1	0	0	CorrectCommission	1.202781	0.762408	1	0	2.235294e+01
136.075012	1.306193	city	7	1	1.748842	1.748842	0	1	0	0	CorrectCommission	1.352175	0.732944	1	0	2.158824e+01
137.394562	1.332894	city	2	1	1.595180	1.595180	0	1	0	0	CorrectCommission	0.816565	0.703115	1	0	2.082353e+01
138.714096	1.306191	city	6	1	1.435655	1.435655	0	1	0	0	CorrectCommission	0.260522	0.673736	1	0	2.005882e+01
140.020401	1.306419	city	4	1	1.261405	1.261405	0	1	0	0	CorrectCommission	0.346846	0.645697	1	0	1.929412e+01
141.326736	1.306234	city	10	1	1.067297	1.067297	0	1	0	0	CorrectCommission	1.023436	0.619942	1	0	1.852941e+01
142.632889	1.306083	mountain	6	0	0.000000	1.267991	1	0	0	0	CorrectOmission	0.323890	0.597433	1	0	1.776471e+01
143.925797	1.279710	city	6	1	1.465394	1.465394	0	1	0	0	CorrectCommission	0.364183	0.579178	1	0	17
145.218674	1.306061	city	1	1	1.261412	1.261412	0	1	0	0	CorrectCommission	0.346824	0.566216	1	0	1.623529e+01
146.518204	1.292994	city	9	1	1.564856	1.564856	0	1	0	0	CorrectCommission	0.710869	0.559704	1	0	1.547059e+01
147.817780	1.306144	city	7	1	1.321088	1.321088	0	1	0	0	CorrectCommission	0.138817	0.560919	1	0	1.470588e+01
149.144043	1.346389	city	8	1	1.038902	1.038902	0	1	0	0	CorrectCommission	1.122408	0.571269	1	0	1.394118e+01
150.457062	1.279642	city	7	1	1.237993	1.237993	0	1	0	0	CorrectCommission	0.428454	0.592171	1	0	1.317647e+01
151.743240	1.292733	city	4	1	1.259246	1.259246	0	1	0	0	CorrectCommission	0.354372	0.625018	1	0	1.241176e+01
153.029449	1.279683	city	5	1	1.248250	1.248250	0	1	0	0	CorrectCommission	0.392701	0.670850	1	0	1.164706e+01
154.322342	1.306103	city	8	1	1.557347	1.557347	0	1	0	0	CorrectCommission	0.684694	0.730089	1	0	1.088235e+01
155.621857	1.292927	city	2	1	1.312754	1.312754	0	1	0	0	CorrectCommission	0.167865	0.802239	0	0	1.011765e+01
156.914764	1.292880	city	1	1	1.474597	1.474597	0	1	0	0	CorrectCommission	0.396259	0.885655	0	0	9.352941e+00
158.207642	1.292888	city	3	1	1.534242	1.534242	0	1	0	0	CorrectCommission	0.604158	0.977391	0	0	8.588235e+00
159.540543	1.372910	city	9	1	1.510977	1.510977	0	1	0	0	CorrectCommission	0.523066	1.073234	0	0	7.823529e+00
160.880127	1.306248	city	7	1	1.829578	1.829578	0	1	0	0	CorrectCommission	1.633590	1.167940	0	0	7.058824e+00
162.186432	1.306364	city	10	1	1.687304	1.687304	0	1	0	0	CorrectCommission	1.137675	1.255598	0	0	6.294118e+00
163.479416	1.279599	city	3	1	1.793648	1.793648	0	1	0	0	CorrectCommission	1.508351	1.330245	0	0	5.529412e+00
164.772324	1.306212	city	2	1	0.830982	0.830982	0	1	0	0	CorrectCommission	1.847140	1.386439	0	0	4.764706e+00
165.425430	11.556101	break	0	0	0.000000	0.527846	0	0	0	0	ThoughtProbe	2.903757	1.419896	0	4	4
177.627975	1.292894	city	8	0	0.000000	0.605124	0	0	0	1	OmissionError	2.634395	1.427987	0	0	4.970588e+00
178.920929	1.293023	city	7	1	0.783698	0.783698	0	1	0	0	CorrectCommission	2.011953	1.410043	0	0	5.941176e+00
180.213913	1.292929	city	10	1	0.784452	0.784452	0	1	0	0	CorrectCommission	2.009327	1.367374	0	0	6.911765e+00
181.500076	1.279422	mountain	3	0	0.000000	0.915431	1	0	0	0	CorrectOmission	1.552784	1.303080	0	0	7.882353e+00
182.779617	1.279647	city	5	0	0.000000	1.092687	0	0	0	1	OmissionError	0.934934	1.221645	0	0	8.852941e+00
184.065887	1.292889	city	9	1	1.232273	1.232273	0	1	0	0	CorrectCommission	0.448390	1.128401	0	0	9.823529e+00
185.372162	1.319673	city	10	1	1.250240	1.250240	0	1	0	0	CorrectCommission	0.385765	1.028959	0	0	1.079412e+01
186.691788	1.319585	city	9	1	0.959065	0.959065	0	1	0	0	CorrectCommission	1.400689	0.928685	0	0	1.176471e+01
188.004700	1.306221	city	8	1	0.974528	0.974528	0	1	0	0	CorrectCommission	1.346792	0.832229	0	0	1.273529e+01
189.304230	1.292842	city	6	1	1.297783	1.297783	0	1	0	0	CorrectCommission	0.220048	0.743315	1	0	1.370588e+01
190.603806	1.306306	city	10	1	1.500736	1.500736	0	1	0	0	CorrectCommission	0.487371	0.664547	1	0	1.467647e+01
191.896744	1.279576	city	9	1	1.363970	1.363970	0	1	0	0	CorrectCommission	0.010654	0.597340	1	0	1.564706e+01
193.196228	1.319406	city	2	1	1.380976	1.380976	0	1	0	0	CorrectCommission	0.069932	0.542033	1	0	1.661765e+01
194.495804	1.279738	city	4	1	1.377256	1.377256	0	1	0	0	CorrectCommission	0.056966	0.498046	1	0	1.758824e+01
195.795441	1.319533	city	9	1	1.223613	1.223613	0	1	0	0	CorrectCommission	0.478577	0.464119	1	0	1.855882e+01
197.121658	1.332893	mountain	4	0	0.000000	1.426443	1	0	0	0	CorrectOmission	0.228414	0.438610	1	0	1.952941e+01
198.434555	1.292921	city	6	1	1.644963	1.644963	0	1	0	0	CorrectCommission	0.990090	0.419818	1	0	2.050000e+01
199.734146	1.306262	city	1	1	1.538385	1.538385	0	1	0	0	CorrectCommission	0.618600	0.406188	1	0	2.147059e+01
201.026993	1.279431	city	10	1	1.424933	1.424933	0	1	0	0	CorrectCommission	0.223150	0.396593	1	0	2.244118e+01
202.306564	1.279701	city	8	1	1.578608	1.578608	0	1	0	0	CorrectCommission	0.758803	0.390405	1	0	2.341176e+01
203.599533	1.306239	city	7	0	0.000000	1.482736	0	0	0	1	OmissionError	0.424630	0.387457	1	0	2.438235e+01
204.892441	1.279575	city	5	1	1.358051	1.358051	0	1	0	0	CorrectCommission	0.009977	0.387964	1	0	2.535294e+01
206.178650	1.292826	city	4	1	1.425285	1.425285	0	1	0	0	CorrectCommission	0.224376	0.392410	1	0	2.632353e+01
207.471573	1.293023	city	9	1	1.382176	1.382176	0	1	0	0	CorrectCommission	0.074116	0.401360	1	0	2.729412e+01
208.764435	1.292721	city	2	1	1.361704	1.361704	0	1	0	0	CorrectCommission	0.002757	0.415318	1	0	2.826471e+01
210.063919	1.306233	city	7	1	1.550902	1.550902	0	1	0	0	CorrectCommission	0.662229	0.434601	1	0	2.923529e+01
211.376907	1.319747	city	5	1	1.538545	1.538545	0	1	0	0	CorrectCommission	0.619159	0.459271	1	0	3.020588e+01
212.683167	1.292758	city	3	1	1.386588	1.386588	0	1	0	0	CorrectCommission	0.089492	0.489106	1	0	3.117647e+01
213.982727	1.306366	city	7	1	1.607802	1.607802	0	1	0	0	CorrectCommission	0.860562	0.523593	1	0	3.214706e+01
215.315598	1.359392	city	3	1	1.230588	1.230588	0	1	0	0	CorrectCommission	0.454265	0.561850	1	0	3.311765e+01
216.641769	1.292931	city	1	1	1.196975	1.196975	0	1	0	0	CorrectCommission	0.571426	0.602700	1	0	3.408824e+01
217.934753	1.293051	city	9	1	1.155500	1.155500	0	1	0	0	CorrectCommission	0.715991	0.644611	1	0	3.505882e+01
219.227737	1.292924	city	2	1	1.159745	1.159745	0	1	0	0	CorrectCommission	0.701198	0.685734	1	0	3.602941e+01
219.874207	8.383741	break	0	0	0.000000	1.382896	0	0	0	0	ThoughtProbe	0.076624	0.723957	1	37	37
228.897812	1.279724	mountain	4	0	0.000000	1.605422	1	0	0	0	CorrectOmission	0.852265	0.757058	1	0	3.702500e+01
230.177383	1.279431	city	8	1	1.607789	1.607789	0	1	0	0	CorrectCommission	0.860514	0.782882	1	0	3.705000e+01
231.483536	1.332878	city	5	1	1.170463	1.170463	0	1	0	0	CorrectCommission	0.663837	0.799621	0	0	3.707500e+01
232.789856	1.279745	city	6	1	1.742969	1.742969	0	1	0	0	CorrectCommission	1.331703	0.806088	0	0	3.710000e+01
234.076096	1.292746	city	7	1	2.079678	2.079678	0	1	0	0	CorrectCommission	2.505345	0.801906	0	0	3.712500e+01
235.382278	1.319627	mountain	8	0	0.000000	1.803581	1	0	0	0	CorrectOmission	1.542972	0.787652	1	0	3.715000e+01
236.688614	1.293032	city	9	1	1.360541	1.360541	0	1	0	0	CorrectCommission	0.001297	0.764881	1	0	3.717500e+01
238.014908	1.359547	city	7	1	1.196425	1.196425	0	1	0	0	CorrectCommission	0.573342	0.735890	1	0	3.720000e+01
239.347702	1.306065	city	8	1	1.164043	1.164043	0	1	0	0	CorrectCommission	0.686216	0.703416	1	0	3.722500e+01
240.647278	1.293060	city	5	1	1.196755	1.196755	0	1	0	0	CorrectCommission	0.572193	0.670299	1	0	3.725000e+01
241.933594	1.279589	city	9	1	1.365794	1.365794	0	1	0	0	CorrectCommission	0.017014	0.639149	1	0	3.727500e+01
243.246490	1.346210	city	7	1	1.232483	1.232483	0	1	0	0	CorrectCommission	0.447659	0.612090	1	0	3.730000e+01
244.572708	1.306220	city	1	1	1.332262	1.332262	0	1	0	0	CorrectCommission	0.099867	0.590564	1	0	3.732500e+01
245.878860	1.306093	city	6	1	1.195443	1.195443	0	1	0	0	CorrectCommission	0.576766	0.575362	1	0	3.735000e+01
247.178452	1.293065	city	2	1	1.249840	1.249840	0	1	0	0	CorrectCommission	0.387159	0.566666	1	0	3.737500e+01
248.478104	1.306243	city	9	1	1.781946	1.781946	0	1	0	0	CorrectCommission	1.467560	0.564244	1	0	3.740000e+01
249.777679	1.292907	city	10	1	1.469789	1.469789	0	1	0	0	CorrectCommission	0.379502	0.567526	1	0	3.742500e+01
251.083908	1.319565	city	4	1	1.612712	1.612712	0	1	0	0	CorrectCommission	0.877677	0.575838	1	0	3.745000e+01
252.390076	1.292763	city	2	1	1.336047	1.336047	0	1	0	0	CorrectCommission	0.086672	0.588355	1	0	3.747500e+01
253.689575	1.306221	city	7	1	1.290673	1.290673	0	1	0	0	CorrectCommission	0.244831	0.604172	1	0	3.750000e+01
254.989151	1.292933	city	1	1	1.138592	1.138592	0	1	0	0	CorrectCommission	0.774928	0.622220	1	0	3.752500e+01
256.308716	1.346219	city	4	1	1.245053	1.245053	0	1	0	0	CorrectCommission	0.403843	0.641308	1	0	3.755000e+01
257.621613	1.279558	mountain	4	0	0.000000	1.301115	1	0	0	0	CorrectOmission	0.208434	0.660150	1	0	3.757500e+01
258.907837	1.292877	city	8	1	1.241551	1.241551	0	1	0	0	CorrectCommission	0.416050	0.677439	1	0	3.760000e+01
260.220825	1.333091	city	3	1	1.001137	1.001137	0	1	0	0	CorrectCommission	1.254043	0.692000	1	0	3.762500e+01
261.540405	1.306077	city	10	1	0.872681	0.872681	0	1	0	0	CorrectCommission	1.701791	0.702995	1	0	3.765000e+01
262.859955	1.333036	city	9	1	1.128942	1.128942	0	1	0	0	CorrectCommission	0.808564	0.710062	1	0	3.767500e+01
264.186249	1.319580	city	4	1	0.991800	0.991800	0	1	0	0	CorrectCommission	1.286589	0.713432	1	0	3.770000e+01
265.492493	1.292910	city	6	1	1.381616	1.381616	0	1	0	0	CorrectCommission	0.072161	0.713898	1	0	3.772500e+01
266.812073	1.346254	city	7	1	1.264017	1.264017	0	1	0	0	CorrectCommission	0.337743	0.712730	1	0	3.775000e+01
268.131653	1.292903	city	10	1	1.055565	1.055565	0	1	0	0	CorrectCommission	1.064327	0.711399	1	0	3.777500e+01
269.431244	1.306239	city	2	1	1.470929	1.470929	0	1	0	0	CorrectCommission	0.383473	0.711365	1	0	3.780000e+01
270.737457	1.306218	city	3	1	1.592872	1.592872	0	1	0	0	CorrectCommission	0.808520	0.713831	1	0	3.782500e+01
272.043701	1.306233	city	1	1	1.522719	1.522719	0	1	0	0	CorrectCommission	0.563993	0.719462	1	0	3.785000e+01
273.363251	1.332905	city	2	1	1.472662	1.472662	0	1	0	0	CorrectCommission	0.389516	0.728278	1	0	3.787500e+01
274.669495	1.279543	city	6	1	1.310753	1.310753	0	1	0	0	CorrectCommission	0.174841	0.739598	1	0	3.790000e+01
275.968964	1.319429	city	8	1	1.057433	1.057433	0	1	0	0	CorrectCommission	1.057818	0.752102	1	0	3.792500e+01
277.275146	1.292930	city	7	1	1.018738	1.018738	0	1	0	0	CorrectCommission	1.192693	0.763960	1	0	3.795000e+01
278.568146	1.293064	city	9	1	1.129593	1.129593	0	1	0	0	CorrectCommission	0.806296	0.773157	1	0	3.797500e+01
282.873383	7.317420	break	0	0	0.000000	1.397748	0	0	0	0	ThoughtProbe	0.128393	0.777747	1	38	38
287.178619	1.293066	city	5	1	1.696106	1.696106	0	1	0	0	CorrectCommission	1.168355	0.776177	1	0	3.721739e+01
288.498291	1.346246	city	3	1	1.897566	1.897566	0	1	0	0	CorrectCommission	1.870571	0.767493	1	0	3.643478e+01
289.831116	1.319429	mountain	2	0	0.000000	1.713333	1	0	0	0	CorrectOmission	1.228404	0.751564	1	0	3.565217e+01
291.137360	1.293020	city	6	0	0.000000	1.355439	0	0	0	1	OmissionError	0.019082	0.729174	1	0	3.486957e+01
292.423645	1.279601	city	4	0	0.000000	1.035914	0	0	0	1	OmissionError	1.132823	0.701952	1	0	3.408696e+01
293.743195	1.359481	city	10	1	0.966792	0.966792	0	1	0	0	CorrectCommission	1.373757	0.672144	1	0	3.330435e+01
295.082703	1.319525	city	8	1	1.360104	1.360104	0	1	0	0	CorrectCommission	0.002819	0.642409	1	0	3.252174e+01
296.402222	1.319499	city	1	1	1.337469	1.337469	0	1	0	0	CorrectCommission	0.081716	0.615535	1	0	3.173913e+01
297.708466	1.293009	city	8	1	1.243559	1.243559	0	1	0	0	CorrectCommission	0.409052	0.594104	1	0	3.095652e+01
298.994781	1.279638	mountain	6	0	0.000000	1.397620	1	0	0	0	CorrectOmission	0.127946	0.580233	1	0	3.017391e+01
300.274414	1.279596	city	5	1	1.558269	1.558269	0	1	0	0	CorrectCommission	0.687910	0.575439	1	0	2.939130e+01
301.580658	1.332875	city	8	1	1.484125	1.484125	0	1	0	0	CorrectCommission	0.429469	0.580484	1	0	2.860870e+01
302.926880	1.359584	city	4	1	1.222172	1.222172	0	1	0	0	CorrectCommission	0.483600	0.595367	1	0	2.782609e+01
304.246368	1.279415	city	3	1	1.313540	1.313540	0	1	0	0	CorrectCommission	0.165125	0.619342	1	0	2.704348e+01
305.545837	1.319537	city	5	1	1.625933	1.625933	0	1	0	0	CorrectCommission	0.923759	0.650990	1	0	2.626087e+01
306.872070	1.332909	mountain	10	0	0.000000	1.493866	1	0	0	0	CorrectOmission	0.463424	0.688295	1	0	2.547826e+01
308.198395	1.319707	city	2	1	1.213371	1.213371	0	1	0	0	CorrectCommission	0.514275	0.728815	1	0	2.469565e+01
309.504700	1.292932	city	6	0	0.000000	1.080481	0	0	0	1	OmissionError	0.977481	0.769755	1	0	2.391304e+01
310.797638	1.292912	city	9	1	1.055941	1.055941	0	1	0	0	CorrectCommission	1.063018	0.808168	0	0	2.313043e+01
312.097198	1.306213	city	3	1	1.100499	1.100499	0	1	0	0	CorrectCommission	0.907705	0.841140	0	0	2.234783e+01
313.390076	1.279581	city	9	1	1.476408	1.476408	0	1	0	0	CorrectCommission	0.402571	0.866018	0	0	2.156522e+01
314.703003	1.346250	city	5	1	1.665744	1.665744	0	1	0	0	CorrectCommission	1.062527	0.880686	0	0	2.078261e+01
316.022552	1.292876	city	4	0	0.000000	1.764574	0	0	0	1	OmissionError	1.407011	0.883803	0	0	20
317.322144	1.306295	city	9	1	1.800931	1.800931	0	1	0	0	CorrectCommission	1.533735	0.875014	0	0	1.921739e+01
318.628387	1.306210	city	7	0	0.000000	1.802846	0	0	0	1	OmissionError	1.540413	0.855109	0	0	1.843478e+01
319.921295	1.279556	city	1	1	1.752707	1.752707	0	1	0	0	CorrectCommission	1.365646	0.826047	0	0	1.765217e+01
321.234100	1.346057	city	2	1	1.632899	1.632899	0	1	0	0	CorrectCommission	0.948039	0.790781	1	0	1.686957e+01
322.560303	1.306400	mountain	9	0	0.000000	1.451165	1	0	0	0	CorrectOmission	0.314585	0.752949	1	0	1.608696e+01
323.859985	1.292929	city	10	0	0.000000	1.304376	0	0	0	1	OmissionError	0.197065	0.716521	1	0	1.530435e+01
325.146240	1.279563	city	6	1	1.289402	1.289402	0	1	0	0	CorrectCommission	0.249262	0.685264	1	0	1.452174e+01
326.432404	1.292762	city	7	1	1.503110	1.503110	0	1	0	0	CorrectCommission	0.495646	0.662289	1	0	1.373913e+01
327.751953	1.346365	city	3	1	1.202370	1.202370	0	1	0	0	CorrectCommission	0.552623	0.649701	1	0	1.295652e+01
329.064880	1.279467	city	7	1	1.406915	1.406915	0	1	0	0	CorrectCommission	0.160345	0.648363	1	0	1.217391e+01
330.364349	1.319523	city	3	1	1.358837	1.358837	0	1	0	0	CorrectCommission	0.007237	0.657829	1	0	1.139130e+01
331.670593	1.292906	city	4	1	1.262027	1.262027	0	1	0	0	CorrectCommission	0.344678	0.676478	1	0	1.060870e+01
332.976898	1.319752	city	2	1	1.043354	1.043354	0	1	0	0	CorrectCommission	1.106891	0.701750	1	0	9.826087e+00
334.283142	1.292714	city	5	1	1.358000	1.358000	0	1	0	0	CorrectCommission	0.010152	0.730514	1	0	9.043478e+00
335.596741	1.334487	city	7	1	1.899193	1.899193	0	1	0	0	CorrectCommission	1.876239	0.759561	1	0	8.260870e+00
336.923065	1.318157	city	2	1	1.780615	1.780615	0	1	0	0	CorrectCommission	1.462923	0.785889	1	0	7.478261e+00
338.255157	1.346051	city	5	1	1.559497	1.559497	0	1	0	0	CorrectCommission	0.692190	0.807108	0	0	6.695652e+00
339.614716	1.373066	city	10	1	1.271516	1.271516	0	1	0	0	CorrectCommission	0.311604	0.821612	0	0	5.913043e+00
340.961029	1.319540	city	9	1	0.790819	0.790819	0	1	0	0	CorrectCommission	1.987132	0.828646	0	0	5.130435e+00
342.300507	1.359406	city	1	1	1.658763	1.658763	0	1	0	0	CorrectCommission	1.038192	0.828238	0	0	4.347826e+00
343.633362	1.306299	city	2	1	1.471199	1.471199	0	1	0	0	CorrectCommission	0.384415	0.821124	0	0	3.565217e+00
344.959595	1.346192	city	7	1	1.250263	1.250263	0	1	0	0	CorrectCommission	0.385685	0.808495	0	0	2.782609e+00
345.632690	10.636460	break	0	1	1.062339	1.062339	0	0	0	0	ThoughtProbe	1.040715	0.791815	0	2	2
356.915710	1.293085	city	3	0	0.000000	1.428182	0	0	0	1	OmissionError	0.234473	0.772680	1	0	2.425000e+00
358.222015	1.319548	city	7	1	1.799514	1.799514	0	1	0	0	CorrectCommission	1.528796	0.752726	1	0	2.850000e+00
359.541565	1.319580	city	1	1	1.628059	1.628059	0	1	0	0	CorrectCommission	0.931169	0.733485	1	0	3.275000e+00
360.854492	1.306224	mountain	8	0	0.000000	1.502619	1	0	0	0	CorrectOmission	0.493934	0.716441	1	0	3.700000e+00
362.147369	1.279572	city	4	1	1.486772	1.486772	0	1	0	0	CorrectCommission	0.438696	0.702931	1	0	4.125000e+00
363.440277	1.306221	city	9	1	1.644095	1.644095	0	1	0	0	CorrectCommission	0.987064	0.694084	1	0	4.550000e+00
364.753174	1.319587	city	8	0	0.000000	1.355596	0	0	0	1	OmissionError	0.018534	0.690772	1	0	4.975000e+00
366.066101	1.306233	city	1	1	1.109281	1.109281	0	1	0	0	CorrectCommission	0.877095	0.693576	1	0	5.400000e+00
367.372284	1.306140	city	2	1	1.393156	1.393156	0	1	0	0	CorrectCommission	0.112385	0.702668	1	0	5.825000e+00
368.685120	1.319563	mountain	10	0	0.000000	1.284693	1	0	0	0	CorrectOmission	0.265674	0.717833	1	0	6.250000e+00
370.004669	1.319528	city	7	0	0.000000	1.040017	0	0	0	1	OmissionError	1.118524	0.738404	1	0	6.675000e+00
371.310883	1.292900	city	8	1	0.915249	0.915249	0	1	0	0	CorrectCommission	1.553416	0.763253	1	0	7.100000e+00
372.610443	1.306219	city	4	1	1.166514	1.166514	0	1	0	0	CorrectCommission	0.677601	0.790898	1	0	7.525000e+00
373.903351	1.279579	city	5	1	1.347101	1.347101	0	1	0	0	CorrectCommission	0.048145	0.819527	0	0	7.950000e+00
375.189606	1.292925	city	10	1	1.330915	1.330915	0	1	0	0	CorrectCommission	0.104563	0.847130	0	0	8.375000e+00
376.495850	1.319576	city	7	1	1.754157	1.754157	0	1	0	0	CorrectCommission	1.370701	0.871628	0	0	8.800000e+00
377.815491	1.319722	city	9	1	1.857838	1.857838	0	1	0	0	CorrectCommission	1.732092	0.891041	0	0	9.225000e+00
379.135071	1.319410	mountain	2	0	0.000000	1.675550	1	0	0	0	CorrectOmission	1.096706	0.903667	0	0	9.650000e+00
380.441315	1.293070	city	1	1	1.543030	1.543030	0	1	0	0	CorrectCommission	0.634792	0.908333	0	0	1.007500e+01
381.740875	1.306062	city	9	1	1.796015	1.796015	0	1	0	0	CorrectCommission	1.516599	0.904502	0	0	1.050000e+01
383.040436	1.293058	city	2	0	0.000000	1.693494	0	0	0	1	OmissionError	1.159251	0.892334	0	0	1.092500e+01
384.340027	1.306124	city	9	1	1.553644	1.553644	0	1	0	0	CorrectCommission	0.671789	0.872728	0	0	1.135000e+01
385.639526	1.292883	city	10	1	1.694642	1.694642	0	1	0	0	CorrectCommission	1.163253	0.847251	0	0	1.177500e+01
386.945831	1.319731	city	9	1	1.726343	1.726343	0	1	0	0	CorrectCommission	1.273750	0.817902	0	0	1.220000e+01
388.272064	1.332720	city	5	0	0.000000	1.480387	0	0	0	1	OmissionError	0.416440	0.786939	1	0	1.262500e+01
389.591614	1.306408	city	10	1	1.219765	1.219765	0	1	0	0	CorrectCommission	0.491990	0.756639	1	0	1.305000e+01
390.891266	1.292911	city	4	1	1.207467	1.207467	0	1	0	0	CorrectCommission	0.534855	0.729010	1	0	1.347500e+01
392.177521	1.279564	city	6	1	1.474325	1.474325	0	1	0	0	CorrectCommission	0.395312	0.705584	1	0	1.390000e+01
393.490326	1.346054	city	8	1	1.232522	1.232522	0	1	0	0	CorrectCommission	0.447522	0.687325	1	0	1.432500e+01
394.829865	1.333061	city	4	1	1.106151	1.106151	0	1	0	0	CorrectCommission	0.888004	0.674546	1	0	1.475000e+01
396.149445	1.306098	city	5	1	1.255552	1.255552	0	1	0	0	CorrectCommission	0.367250	0.667040	1	0	1.517500e+01
397.475677	1.346357	city	10	1	1.177405	1.177405	0	1	0	0	CorrectCommission	0.639641	0.664243	1	0	1.560000e+01
398.828552	1.359402	city	4	1	1.302889	1.302889	0	1	0	0	CorrectCommission	0.202251	0.665395	1	0	1.602500e+01
400.174713	1.332881	city	8	1	1.092631	1.092631	0	1	0	0	CorrectCommission	0.935129	0.669800	1	0	1.645000e+01
401.481018	1.279745	city	7	1	1.700424	1.700424	0	1	0	0	CorrectCommission	1.183407	0.677022	1	0	1.687500e+01
402.767365	1.292927	city	1	1	1.685752	1.685752	0	1	0	0	CorrectCommission	1.132267	0.686988	1	0	1.730000e+01
404.073578	1.319544	city	8	1	1.445700	1.445700	0	1	0	0	CorrectCommission	0.295534	0.700011	1	0	1.772500e+01
405.393066	1.319425	city	6	1	1.157554	1.157554	0	1	0	0	CorrectCommission	0.708833	0.716685	1	0	1.815000e+01
406.699310	1.293073	city	3	1	1.142768	1.142768	0	1	0	0	CorrectCommission	0.760371	0.737671	1	0	1.857500e+01
411.037994	7.384238	break	0	0	0.000000	1.175564	0	0	0	0	ThoughtProbe	0.646056	0.763488	1	19	19
415.369873	1.279559	city	5	1	1.284326	1.284326	0	1	0	0	CorrectCommission	0.266955	0.794259	0	0	1.912500e+01
416.649445	1.279547	city	3	1	1.497434	1.497434	0	1	0	0	CorrectCommission	0.475859	0.829499	0	0	1.925000e+01
417.929016	1.279608	city	10	1	1.444182	1.444182	0	1	0	0	CorrectCommission	0.290244	0.868053	0	0	1.937500e+01
419.208527	1.279432	city	1	1	1.244746	1.244746	0	1	0	0	CorrectCommission	0.404915	0.908196	0	0	1.950000e+01
420.494781	1.293065	city	7	0	0.000000	0.954367	0	0	0	1	OmissionError	1.417065	0.947793	0	0	1.962500e+01
421.781006	1.279421	city	6	1	0.750848	0.750848	0	1	0	0	CorrectCommission	2.126457	0.984565	0	0	1.975000e+01
423.060516	1.279572	mountain	6	0	0.000000	0.811989	1	0	0	0	CorrectOmission	1.913341	1.016416	0	0	1.987500e+01
424.340149	1.279689	city	7	0	0.000000	1.046025	0	0	0	1	OmissionError	1.097579	1.041694	0	0	20
425.619812	1.279622	mountain	9	0	0.000000	1.361190	1	0	0	0	CorrectOmission	0.000966	1.059352	0	0	2.012500e+01
426.899414	1.279596	city	10	1	1.665718	1.665718	0	1	0	0	CorrectCommission	1.062434	1.069035	0	0	2.025000e+01
428.178986	1.279563	city	6	0	0.000000	1.867842	0	0	0	1	OmissionError	1.766963	1.071027	0	0	2.037500e+01
429.458588	1.279602	city	9	1	1.761547	1.761547	0	1	0	0	CorrectCommission	1.396458	1.066187	0	0	2.050000e+01
430.738068	1.279411	city	1	0	0.000000	1.140817	0	0	0	1	OmissionError	0.767171	1.055837	0	0	2.062500e+01
432.017609	1.279655	city	6	1	0.804374	0.804374	0	1	0	0	CorrectCommission	1.939884	1.041616	0	0	2.075000e+01
433.297272	1.279647	city	5	1	1.550940	1.550940	0	1	0	0	CorrectCommission	0.662362	1.025284	0	0	2.087500e+01
434.576782	1.279414	city	2	1	1.418320	1.418320	0	1	0	0	CorrectCommission	0.200099	1.008660	0	0	21
435.856293	1.279586	mountain	8	0	0.000000	1.483641	1	0	0	0	CorrectOmission	0.427784	0.993464	0	0	2.112500e+01
437.135986	1.279779	city	5	1	1.657586	1.657586	0	1	0	0	CorrectCommission	1.034091	0.981265	0	0	2.125000e+01
438.415558	1.279398	city	1	0	0.000000	1.850837	0	0	0	1	OmissionError	1.707691	0.973440	0	0	2.137500e+01
439.695129	1.279718	city	5	1	1.875905	1.875905	0	1	0	0	CorrectCommission	1.795066	0.971101	0	0	2.150000e+01
440.981354	1.292751	city	10	0	0.000000	1.545299	0	0	0	1	OmissionError	0.642700	0.975031	0	0	2.162500e+01
442.274261	1.293068	city	4	1	1.265787	1.265787	0	1	0	0	CorrectCommission	0.331574	0.985594	0	0	2.175000e+01
443.560608	1.279580	city	8	1	1.444134	1.444134	0	1	0	0	CorrectCommission	0.290078	1.002593	0	0	2.187500e+01
444.840088	1.279436	city	6	1	1.178198	1.178198	0	1	0	0	CorrectCommission	0.636877	1.025189	0	0	22
446.119598	1.279577	city	2	1	1.125366	1.125366	0	1	0	0	CorrectCommission	0.821030	1.051870	0	0	2.212500e+01
447.399200	1.279583	city	7	0	0.000000	1.032289	0	0	0	1	OmissionError	1.145459	1.080583	0	0	2.225000e+01
448.678772	1.279567	city	2	0	0.000000	0.945316	0	0	0	1	OmissionError	1.448614	1.108921	0	0	2.237500e+01
449.958405	1.279730	city	8	1	0.910795	0.910795	0	1	0	0	CorrectCommission	1.568943	1.134378	0	0	2.250000e+01
451.244720	1.292910	city	3	1	0.975072	0.975072	0	1	0	0	CorrectCommission	1.344898	1.154702	0	0	2.262500e+01
452.530975	1.279592	city	8	1	1.847474	1.847474	0	1	0	0	CorrectCommission	1.695967	1.168195	0	0	2.275000e+01
453.810516	1.279496	city	6	0	0.000000	1.712450	0	0	0	1	OmissionError	1.225326	1.173917	0	0	2.287500e+01
455.090027	1.279510	city	4	1	1.445350	1.445350	0	1	0	0	CorrectCommission	0.294314	1.171779	0	0	23
456.369568	1.279565	city	3	1	1.921520	1.921520	0	1	0	0	CorrectCommission	1.954065	1.162530	0	0	2.312500e+01
457.649139	1.279590	city	1	0	0.000000	1.996897	0	0	0	1	OmissionError	2.216801	1.147522	0	0	2.325000e+01
458.928802	1.279720	city	5	1	1.817376	1.817376	0	1	0	0	CorrectCommission	1.591057	1.128522	0	0	2.337500e+01
460.208466	1.279595	city	1	0	0.000000	1.528850	0	0	0	1	OmissionError	0.585364	1.107312	0	0	2.350000e+01
461.487946	1.279400	city	10	1	1.296218	1.296218	0	1	0	0	CorrectCommission	0.225501	1.085365	0	0	2.362500e+01
462.767548	1.279760	city	9	1	1.284380	1.284380	0	1	0	0	CorrectCommission	0.266764	1.063543	0	0	2.375000e+01
464.047180	1.279559	city	10	1	1.229829	1.229829	0	1	0	0	CorrectCommission	0.456909	1.041968	0	0	2.387500e+01
468.345703	7.317484	break	0	0	0.000000	1.094624	0	0	0	0	ThoughtProbe	0.928183	1.020061	0	24	24
472.644257	1.279616	city	10	0	0.000000	0.934412	0	0	0	1	OmissionError	1.486622	0.996769	0	0	24
473.923889	1.279651	city	3	1	0.804840	0.804840	0	1	0	0	CorrectCommission	1.938262	0.970900	0	0	24
475.203491	1.279510	mountain	7	1	0.761554	0.761554	0	0	1	0	CommissionError	2.089140	0.941528	0	0	24
476.489716	1.292977	city	1	1	1.457106	1.457106	0	1	0	0	CorrectCommission	0.335293	0.908298	0	0	24
477.775940	1.279486	city	3	1	1.124246	1.124246	0	1	0	0	CorrectCommission	0.824932	0.871686	0	0	24
479.055542	1.279673	city	10	1	0.911868	0.911868	0	1	0	0	CorrectCommission	1.565203	0.832939	0	0	24
480.335144	1.279583	city	2	1	1.338481	1.338481	0	1	0	0	CorrectCommission	0.078191	0.794012	0	0	24
481.614746	1.279599	mountain	1	0	0.000000	1.273690	1	0	0	0	CorrectOmission	0.304026	0.757385	1	0	24
482.901001	1.292907	city	8	1	1.188604	1.188604	0	1	0	0	CorrectCommission	0.600606	0.725696	1	0	24
484.187225	1.279560	city	4	1	1.554329	1.554329	0	1	0	0	CorrectCommission	0.674174	0.701494	1	0	24
485.466797	1.279576	city	1	1	1.449850	1.449850	0	1	0	0	CorrectCommission	0.309999	0.686946	1	0	24
486.746307	1.279438	city	8	1	1.555013	1.555013	0	1	0	0	CorrectCommission	0.676557	0.683616	1	0	24
488.025848	1.279628	city	5	1	1.498143	1.498143	0	1	0	0	CorrectCommission	0.478331	0.692273	1	0	24
489.305511	1.279695	city	3	0	0.000000	1.525705	0	0	0	1	OmissionError	0.574402	0.712819	1	0	24
490.584991	1.279265	mountain	7	0	0.000000	1.544524	1	0	0	0	CorrectOmission	0.639997	0.744168	1	0	24
491.871185	1.293154	city	4	1	1.461424	1.461424	0	1	0	0	CorrectCommission	0.350341	0.784285	1	0	24
493.157593	1.279624	city	9	1	1.183229	1.183229	0	1	0	0	CorrectCommission	0.619339	0.830271	0	0	24
494.437103	1.279426	city	5	1	1.177575	1.177575	0	1	0	0	CorrectCommission	0.639047	0.878519	0	0	24
495.716705	1.279753	city	2	1	1.122162	1.122162	0	1	0	0	CorrectCommission	0.832198	0.925004	0	0	24
496.996277	1.279394	city	3	0	0.000000	1.055642	0	0	0	1	OmissionError	1.064060	0.965649	0	0	24
498.275848	1.279733	city	6	1	0.969959	0.969959	0	1	0	0	CorrectCommission	1.362717	0.996759	0	0	24
499.555511	1.279614	city	10	1	0.857058	0.857058	0	1	0	0	CorrectCommission	1.756249	1.015455	0	0	24
500.835114	1.279567	city	3	1	1.741762	1.741762	0	1	0	0	CorrectCommission	1.327496	1.020037	0	0	24
502.114685	1.279610	city	6	1	0.751043	0.751043	0	1	0	0	CorrectCommission	2.125776	1.010274	0	0	24
503.394257	1.279554	city	8	1	0.861653	0.861653	0	1	0	0	CorrectCommission	1.740231	0.987418	0	0	24
504.673737	1.279407	mountain	5	0	0.000000	1.063218	1	0	0	0	CorrectOmission	1.037653	0.954170	0	0	24
505.953247	1.279570	city	6	0	0.000000	1.242030	0	0	0	1	OmissionError	0.414383	0.914298	0	0	24
507.232910	1.279765	city	10	1	1.284381	1.284381	0	1	0	0	CorrectCommission	0.266762	0.872188	0	0	24
508.512512	1.279441	city	9	1	1.076565	1.076565	0	1	0	0	CorrectCommission	0.991131	0.832375	0	0	24
509.792084	1.279697	city	7	1	1.237143	1.237143	0	1	0	0	CorrectCommission	0.431418	0.799055	0	0	24
511.071716	1.279566	city	4	1	1.391828	1.391828	0	1	0	0	CorrectCommission	0.107758	0.775814	1	0	24
512.351196	1.279450	city	8	1	1.336952	1.336952	0	1	0	0	CorrectCommission	0.083519	0.765453	1	0	24
513.630798	1.279693	city	4	1	1.497603	1.497603	0	1	0	0	CorrectCommission	0.476451	0.770070	1	0	24
514.910339	1.279443	city	1	1	1.604243	1.604243	0	1	0	0	CorrectCommission	0.848155	0.791247	0	0	24
516.189880	1.279597	city	7	1	1.767818	1.767818	0	1	0	0	CorrectCommission	1.418315	0.830357	0	0	24
517.469543	1.279726	city	10	1	1.657422	1.657422	0	1	0	0	CorrectCommission	1.033518	0.888808	0	0	24
518.749146	1.279445	city	2	1	1.443832	1.443832	0	1	0	0	CorrectCommission	0.289026	0.968232	0	0	24
520.028687	1.279710	city	5	1	1.338450	1.338450	0	1	0	0	CorrectCommission	0.078297	1.070506	0	0	24
521.308289	1.279442	city	10	1	1.662437	1.662437	0	1	0	0	CorrectCommission	1.050998	1.197569	0	0	24
522.587830	1.279713	city	4	1	1.868287	1.868287	0	1	0	0	CorrectCommission	1.768513	1.351064	0	0	24
523.867432	1.279420	city	1	1	1.890108	1.890108	0	1	0	0	CorrectCommission	1.844573	1.531895	0	0	24
525.146912	1.279575	city	4	0	0.000000	1.559215	0	0	0	1	OmissionError	0.691206	1.739718	0	0	24
526.426514	1.279652	city	1	1	1.230556	1.230556	0	1	0	0	CorrectCommission	0.454377	1.972532	0	0	24
527.712769	1.292836	city	8	1	1.259076	1.259076	0	1	0	0	CorrectCommission	0.354967	2.226400	0	0	24
528.998962	1.279593	city	5	1	0.912247	0.912247	0	1	0	0	CorrectCommission	1.563880	2.495569	0	0	24
532.717957	6.158330	break	0	0	0.000000	0.565419	0	0	0	0	ThoughtProbe	2.772792	2.772792	0	24	24
