onset	duration	trial_type	image_type	Press	ReactionTime	ReactionTime_Interpolated	CorrectOmission	CorrectCommission	CommissionError	OmissionError	response_type	nonsmoothVarianceTimeCourse	VarianceTimeCourse	In_the_Zone	ThoughtProbe	ThoughtProbe_Interpolated
0.652953	1.279648	city	10	1	0.867397	0.867397	0	1	0	0	CorrectCommission	1.493588	1.493588	0	0	93
1.932569	1.279583	city	6	1	1.083522	1.083522	0	1	0	0	CorrectCommission	0.267603	1.336892	0	0	93
3.212160	1.279598	city	9	1	1.180655	1.180655	0	1	0	0	CorrectCommission	0.283394	1.184943	0	0	93
4.491736	1.279554	city	4	1	1.234383	1.234383	0	1	0	0	CorrectCommission	0.588168	1.042267	0	0	93
5.777899	1.292772	mountain	2	0	0.000000	1.307591	1	0	0	0	CorrectOmission	1.003450	0.912907	0	0	93
7.064144	1.279719	city	5	1	1.315998	1.315998	0	1	0	0	CorrectCommission	1.051140	0.800277	0	0	93
8.343796	1.279584	city	3	1	1.175321	1.175321	0	1	0	0	CorrectCommission	0.253137	0.707020	1	0	93
9.623376	1.279576	city	1	1	1.080423	1.080423	0	1	0	0	CorrectCommission	0.285183	0.634964	1	0	93
10.902916	1.279505	city	10	1	1.070942	1.070942	0	1	0	0	CorrectCommission	0.338961	0.584934	1	0	93
12.189167	1.292996	city	6	1	1.138140	1.138140	0	1	0	0	CorrectCommission	0.042222	0.556722	1	0	93
13.475455	1.279580	mountain	1	0	0.000000	1.131512	1	0	0	0	CorrectOmission	0.004628	0.549069	1	0	93
14.761691	1.292892	city	2	1	1.108101	1.108101	0	1	0	0	CorrectCommission	0.128176	0.559665	1	0	93
16.047850	1.279426	mountain	7	0	0.000000	1.124946	1	0	0	0	CorrectOmission	0.032623	0.585247	1	0	93
17.327368	1.279608	city	8	1	1.106848	1.106848	0	1	0	0	CorrectCommission	0.135280	0.621805	1	0	93
18.613604	1.292864	city	5	1	0.978612	0.978612	0	1	0	0	CorrectCommission	0.862714	0.664899	1	0	93
19.899908	1.279743	city	3	1	1.463204	1.463204	0	1	0	0	CorrectCommission	1.886175	0.710013	1	0	93
21.186235	1.292915	city	8	1	1.209960	1.209960	0	1	0	0	CorrectCommission	0.449630	0.752938	1	0	93
22.472490	1.279593	city	9	1	1.049019	1.049019	0	1	0	0	CorrectCommission	0.463325	0.790229	0	0	93
23.752073	1.279576	city	4	1	0.961683	0.961683	0	1	0	0	CorrectCommission	0.958744	0.819389	0	0	93
25.031609	1.279494	city	7	1	1.707930	1.707930	0	1	0	0	CorrectCommission	3.274404	0.839054	0	0	93
26.311180	1.279649	city	1	1	1.285141	1.285141	0	1	0	0	CorrectCommission	0.876098	0.848955	0	0	93
27.597458	1.292907	city	2	1	1.163330	1.163330	0	1	0	0	CorrectCommission	0.185119	0.849898	0	0	93
28.883711	1.279598	city	6	1	1.124236	1.124236	0	1	0	0	CorrectCommission	0.036649	0.843359	0	0	93
30.169954	1.292890	city	2	1	0.970409	0.970409	0	1	0	0	CorrectCommission	0.909242	0.831228	0	0	93
31.456116	1.279432	city	5	1	0.967287	0.967287	0	1	0	0	CorrectCommission	0.926954	0.815464	0	0	93
32.735611	1.279561	city	4	1	1.020598	1.020598	0	1	0	0	CorrectCommission	0.624541	0.797854	0	0	93
34.015217	1.279645	city	5	1	0.910763	0.910763	0	1	0	0	CorrectCommission	1.247593	0.779851	1	0	93
35.294792	1.279510	city	2	1	1.018988	1.018988	0	1	0	0	CorrectCommission	0.633673	0.762468	1	0	93
36.574432	1.279765	mountain	10	0	0.000000	1.194411	1	0	0	0	CorrectOmission	0.361425	0.746334	1	0	93
37.854027	1.279426	city	3	1	1.316858	1.316858	0	1	0	0	CorrectCommission	1.056015	0.731699	1	0	93
39.146938	1.306398	city	8	1	1.266157	1.266157	0	1	0	0	CorrectCommission	0.768411	0.718489	1	0	93
40.439831	1.279390	city	3	1	1.238901	1.238901	0	1	0	0	CorrectCommission	0.613798	0.706445	1	0	93
41.719398	1.279740	city	8	1	1.133943	1.133943	0	1	0	0	CorrectCommission	0.018417	0.695166	1	0	93
42.999035	1.279532	city	9	1	0.969823	0.969823	0	1	0	0	CorrectCommission	0.912565	0.684183	1	0	93
44.278561	1.279525	city	1	1	0.865140	0.865140	0	1	0	0	CorrectCommission	1.506388	0.672973	1	0	93
45.558132	1.279616	city	3	1	1.234624	1.234624	0	1	0	0	CorrectCommission	0.589537	0.661047	1	0	93
46.844429	1.292978	city	4	1	1.210714	1.210714	0	1	0	0	CorrectCommission	0.453908	0.648011	1	0	93
48.143993	1.306148	city	2	1	1.117002	1.117002	0	1	0	0	CorrectCommission	0.077686	0.633545	1	0	93
49.443565	1.293000	city	1	1	1.043387	1.043387	0	1	0	0	CorrectCommission	0.495271	0.617523	1	0	93
50.736511	1.292895	city	9	1	0.981578	0.981578	0	1	0	0	CorrectCommission	0.845887	0.600023	1	0	93
52.022747	1.279573	city	6	1	0.857838	0.857838	0	1	0	0	CorrectCommission	1.547814	0.581386	1	0	93
53.302338	1.279611	city	7	1	1.140381	1.140381	0	1	0	0	CorrectCommission	0.054936	0.562188	1	0	93
54.588596	1.292901	city	4	1	0.997288	0.997288	0	1	0	0	CorrectCommission	0.756771	0.543364	1	0	93
55.874828	1.279567	city	2	1	0.972469	0.972469	0	1	0	0	CorrectCommission	0.897558	0.526018	1	0	93
57.154400	1.279576	city	4	1	1.128227	1.128227	0	1	0	0	CorrectCommission	0.014010	0.511324	1	0	93
57.794189	10.489795	break	0	0	0.000000	1.135553	0	0	0	0	ThoughtProbe	0.027551	0.500430	1	93	93
68.923737	1.279503	city	7	1	1.078603	1.078603	0	1	0	0	CorrectCommission	0.295505	0.494266	1	0	9.297059e+01
70.209961	1.292941	city	4	1	1.041530	1.041530	0	1	0	0	CorrectCommission	0.505806	0.493463	1	0	9.294118e+01
71.509552	1.306244	city	1	1	1.037259	1.037259	0	1	0	0	CorrectCommission	0.530029	0.498275	1	0	9.291176e+01
72.802475	1.279603	city	2	1	1.142584	1.142584	0	1	0	0	CorrectCommission	0.067435	0.508622	1	0	9.288235e+01
74.088791	1.293031	city	1	1	1.044985	1.044985	0	1	0	0	CorrectCommission	0.486205	0.524142	1	0	9.285294e+01
75.375046	1.279487	city	9	1	0.974433	0.974433	0	1	0	0	CorrectCommission	0.886420	0.544225	1	0	9.282353e+01
76.661278	1.292977	city	2	1	0.999698	0.999698	0	1	0	0	CorrectCommission	0.743100	0.568154	1	0	9.279412e+01
77.947571	1.279599	city	9	1	1.085050	1.085050	0	1	0	0	CorrectCommission	0.258935	0.595218	1	0	9.276471e+01
79.227104	1.279468	mountain	3	0	0.000000	1.231482	1	0	0	0	CorrectOmission	0.571713	0.624760	1	0	9.273529e+01
80.513351	1.293025	city	6	1	1.268223	1.268223	0	1	0	0	CorrectCommission	0.780129	0.656158	1	0	9.270588e+01
81.799637	1.279554	city	8	1	1.024501	1.024501	0	1	0	0	CorrectCommission	0.602403	0.688822	1	0	9.267647e+01
83.079170	1.279511	city	9	1	0.973197	0.973197	0	1	0	0	CorrectCommission	0.893431	0.722167	1	0	9.264706e+01
84.358673	1.279497	city	1	1	0.972909	0.972909	0	1	0	0	CorrectCommission	0.895065	0.755527	1	0	9.261765e+01
85.638214	1.279579	city	7	1	1.075016	1.075016	0	1	0	0	CorrectCommission	0.315853	0.788141	0	0	9.258824e+01
86.931152	1.306301	city	2	1	1.124195	1.124195	0	1	0	0	CorrectCommission	0.036882	0.819090	0	0	9.255882e+01
88.230797	1.292983	mountain	7	0	0.000000	1.388235	1	0	0	0	CorrectOmission	1.460907	0.847361	0	0	9.252941e+01
89.517097	1.279615	city	2	1	1.496611	1.496611	0	1	0	0	CorrectCommission	2.075677	0.871839	0	0	9.250000e+01
90.796600	1.279394	city	4	1	1.078796	1.078796	0	1	0	0	CorrectCommission	0.294411	0.891473	0	0	9.247059e+01
92.089424	1.306253	city	5	1	0.931473	0.931473	0	1	0	0	CorrectCommission	1.130109	0.905397	0	0	9.244118e+01
93.389091	1.293079	city	1	1	1.004919	1.004919	0	1	0	0	CorrectCommission	0.713483	0.912994	0	0	9.241176e+01
94.688652	1.306043	city	2	1	0.979146	0.979146	0	1	0	0	CorrectCommission	0.859684	0.914065	0	0	9.238235e+01
96.008125	1.332909	city	4	1	0.991419	0.991419	0	1	0	0	CorrectCommission	0.790066	0.908903	0	0	9.235294e+01
97.321075	1.292997	city	6	1	0.838574	0.838574	0	1	0	0	CorrectCommission	1.657088	0.898359	0	0	9.232353e+01
98.614075	1.292996	city	4	1	1.457933	1.457933	0	1	0	0	CorrectCommission	1.856276	0.883804	0	0	9.229412e+01
99.900269	1.279392	city	9	1	1.028920	1.028920	0	1	0	0	CorrectCommission	0.577335	0.867058	0	0	9.226471e+01
101.179832	1.279739	city	7	1	1.136748	1.136748	0	1	0	0	CorrectCommission	0.034329	0.850260	0	0	9.223529e+01
102.466171	1.292931	city	2	1	0.995212	0.995212	0	1	0	0	CorrectCommission	0.768547	0.835595	0	0	9.220588e+01
103.779083	1.332896	city	1	1	0.975581	0.975581	0	1	0	0	CorrectCommission	0.879908	0.824977	0	0	9.217647e+01
105.091972	1.292884	city	2	1	0.974593	0.974593	0	1	0	0	CorrectCommission	0.885507	0.819870	0	0	9.214706e+01
106.378120	1.279418	city	7	1	1.033887	1.033887	0	1	0	0	CorrectCommission	0.549158	0.821035	0	0	9.211765e+01
107.657669	1.279668	city	10	1	1.078858	1.078858	0	1	0	0	CorrectCommission	0.294061	0.828393	0	0	9.208824e+01
108.937256	1.279514	city	8	1	1.075354	1.075354	0	1	0	0	CorrectCommission	0.313933	0.841006	0	0	9.205882e+01
110.216873	1.279717	city	10	1	0.914476	0.914476	0	1	0	0	CorrectCommission	1.226531	0.857211	0	0	9.202941e+01
114.242210	6.770953	break	0	1	1.138482	1.138482	0	0	0	0	ThoughtProbe	0.044164	0.874809	0	92	92
118.274216	1.293068	mountain	8	0	0.000000	1.372955	1	0	0	0	CorrectOmission	1.374231	0.891454	0	0	9.180435e+01
119.560493	1.279476	city	8	1	1.478167	1.478167	0	1	0	0	CorrectCommission	1.971053	0.904890	0	0	9.160870e+01
120.846733	1.293008	city	2	1	1.314389	1.314389	0	1	0	0	CorrectCommission	1.042010	0.913319	0	0	9.141304e+01
122.146385	1.306290	city	7	1	1.260008	1.260008	0	1	0	0	CorrectCommission	0.733532	0.915618	0	0	9.121739e+01
123.439301	1.279547	city	3	1	1.505020	1.505020	0	1	0	0	CorrectCommission	2.123378	0.911404	0	0	9.102174e+01
124.738770	1.319389	city	9	1	1.233804	1.233804	0	1	0	0	CorrectCommission	0.584883	0.901016	0	0	9.082609e+01
126.051590	1.306257	city	6	1	1.205034	1.205034	0	1	0	0	CorrectCommission	0.421686	0.885377	0	0	9.063043e+01
127.364571	1.319704	mountain	10	1	1.001927	1.001927	0	0	1	0	CommissionError	0.730457	0.865724	0	0	9.043478e+01
128.664261	1.279662	city	9	1	1.284733	1.284733	0	1	0	0	CorrectCommission	0.873783	0.843382	0	0	9.023913e+01
129.950424	1.292675	city	10	1	1.053418	1.053418	0	1	0	0	CorrectCommission	0.438370	0.819590	0	0	9.004348e+01
131.236649	1.279791	city	1	1	1.239350	1.239350	0	1	0	0	CorrectCommission	0.616346	0.795373	0	0	8.984783e+01
132.516312	1.279521	city	8	1	0.858189	0.858189	0	1	0	0	CorrectCommission	1.545819	0.771466	1	0	8.965217e+01
133.802521	1.292893	mountain	10	0	0.000000	1.110884	1	0	0	0	CorrectOmission	0.112389	0.748367	1	0	8.945652e+01
135.088684	1.279436	city	4	1	1.351590	1.351590	0	1	0	0	CorrectCommission	1.253039	0.726454	1	0	8.926087e+01
136.374924	1.293057	city	5	1	0.934466	0.934466	0	1	0	0	CorrectCommission	1.113134	0.705934	1	0	8.906522e+01
137.674545	1.306181	city	1	1	1.055177	1.055177	0	1	0	0	CorrectCommission	0.428393	0.686996	1	0	8.886957e+01
138.974121	1.292979	city	7	1	1.142850	1.142850	0	1	0	0	CorrectCommission	0.068944	0.669813	1	0	8.867391e+01
140.260391	1.279557	city	3	1	1.028257	1.028257	0	1	0	0	CorrectCommission	0.581094	0.654509	1	0	8.847826e+01
141.539978	1.279611	city	6	1	1.041353	1.041353	0	1	0	0	CorrectCommission	0.506808	0.641123	1	0	8.828261e+01
142.826172	1.292774	city	3	1	0.941963	0.941963	0	1	0	0	CorrectCommission	1.070609	0.629606	1	0	8.808696e+01
144.112411	1.279705	city	10	1	0.966028	0.966028	0	1	0	0	CorrectCommission	0.934096	0.619731	1	0	8.789130e+01
145.392044	1.279567	city	9	1	1.129699	1.129699	0	1	0	0	CorrectCommission	0.005657	0.611148	1	0	8.769565e+01
146.678253	1.292833	city	8	1	1.099464	1.099464	0	1	0	0	CorrectCommission	0.177170	0.603373	1	0	8.750000e+01
147.964508	1.279675	mountain	7	0	0.000000	1.265694	1	0	0	0	CorrectOmission	0.765784	0.595780	1	0	8.730435e+01
149.244125	1.279576	city	8	1	1.387340	1.387340	0	1	0	0	CorrectCommission	1.455834	0.587695	1	0	8.710870e+01
150.537033	1.306235	city	7	1	1.223354	1.223354	0	1	0	0	CorrectCommission	0.525610	0.578465	1	0	8.691304e+01
151.836609	1.292910	city	9	1	1.144108	1.144108	0	1	0	0	CorrectCommission	0.076077	0.567529	1	0	8.671739e+01
153.129440	1.292752	city	5	1	1.085331	1.085331	0	1	0	0	CorrectCommission	0.257338	0.554502	1	0	8.652174e+01
154.415680	1.279738	city	6	1	1.018244	1.018244	0	1	0	0	CorrectCommission	0.637899	0.539211	1	0	8.632609e+01
155.695297	1.279507	city	7	1	0.924766	0.924766	0	1	0	0	CorrectCommission	1.168157	0.521740	1	0	8.613043e+01
156.981537	1.292951	city	6	1	0.997957	0.997957	0	1	0	0	CorrectCommission	0.752975	0.502426	1	0	8.593478e+01
158.274429	1.292837	city	4	1	1.208156	1.208156	0	1	0	0	CorrectCommission	0.439398	0.481854	1	0	8.573913e+01
159.573914	1.306153	city	10	1	1.044865	1.044865	0	1	0	0	CorrectCommission	0.486884	0.460732	1	0	8.554348e+01
160.880219	1.306455	city	7	1	1.149684	1.149684	0	1	0	0	CorrectCommission	0.107707	0.439767	1	0	8.534783e+01
162.173203	1.279501	city	10	1	1.076236	1.076236	0	1	0	0	CorrectCommission	0.308931	0.419594	1	0	8.515217e+01
163.459335	1.292770	city	6	1	1.196632	1.196632	0	1	0	0	CorrectCommission	0.374022	0.400603	1	0	8.495652e+01
164.765549	1.319638	city	10	1	1.159827	1.159827	0	1	0	0	CorrectCommission	0.165248	0.382911	1	0	8.476087e+01
166.065155	1.279579	city	8	1	1.125611	1.125611	0	1	0	0	CorrectCommission	0.028847	0.366364	1	0	8.456522e+01
167.344696	1.279501	city	3	1	1.024445	1.024445	0	1	0	0	CorrectCommission	0.602722	0.350596	1	0	8.436957e+01
168.624237	1.279604	city	8	1	1.043195	1.043195	0	1	0	0	CorrectCommission	0.496362	0.335130	1	0	8.417391e+01
169.917145	1.306204	city	2	1	1.157879	1.157879	0	1	0	0	CorrectCommission	0.154194	0.319553	1	0	8.397826e+01
171.210175	1.279843	city	3	1	1.296704	1.296704	0	1	0	0	CorrectCommission	0.941692	0.303637	1	0	8.378261e+01
172.489777	1.279381	city	10	1	1.073598	1.073598	0	1	0	0	CorrectCommission	0.323895	0.287420	1	0	8.358696e+01
173.795975	1.333000	city	1	1	1.162695	1.162695	0	1	0	0	CorrectCommission	0.181514	0.271290	1	0	8.339130e+01
175.115524	1.306095	city	6	1	1.094008	1.094008	0	1	0	0	CorrectCommission	0.208117	0.255917	1	0	8.319565e+01
175.768570	11.196321	break	0	0	0.000000	1.098319	0	0	0	0	ThoughtProbe	0.183666	0.242151	1	83	83
187.604675	1.279570	city	1	1	1.129972	1.129972	0	1	0	0	CorrectCommission	0.004109	0.230900	1	0	8.322500e+01
188.890991	1.293054	mountain	1	0	0.000000	1.143315	1	0	0	0	CorrectOmission	0.071578	0.223008	1	0	8.345000e+01
190.183975	1.292933	city	10	1	1.136290	1.136290	0	1	0	0	CorrectCommission	0.031727	0.219110	1	0	8.367500e+01
191.476852	1.292809	city	8	1	1.106840	1.106840	0	1	0	0	CorrectCommission	0.135328	0.219550	1	0	8.390000e+01
192.776337	1.306149	city	2	1	1.193863	1.193863	0	1	0	0	CorrectCommission	0.358314	0.224326	1	0	8.412500e+01
194.069229	1.279649	city	5	1	1.132031	1.132031	0	1	0	0	CorrectCommission	0.007569	0.233097	1	0	8.435000e+01
195.362213	1.306329	city	4	1	1.144836	1.144836	0	1	0	0	CorrectCommission	0.080210	0.245267	1	0	8.457500e+01
196.668472	1.306164	city	9	1	1.044147	1.044147	0	1	0	0	CorrectCommission	0.490957	0.260016	1	0	8.480000e+01
197.968048	1.293001	city	4	1	1.078993	1.078993	0	1	0	0	CorrectCommission	0.293292	0.276405	1	0	8.502500e+01
199.267654	1.306213	city	6	1	1.208300	1.208300	0	1	0	0	CorrectCommission	0.440215	0.293466	1	0	8.525000e+01
200.560471	1.279425	city	1	1	1.149104	1.149104	0	1	0	0	CorrectCommission	0.104417	0.310290	1	0	8.547500e+01
201.859970	1.319560	city	9	1	1.156597	1.156597	0	1	0	0	CorrectCommission	0.146925	0.326103	1	0	8.570000e+01
203.159607	1.279731	city	3	1	1.024072	1.024072	0	1	0	0	CorrectCommission	0.604836	0.340288	1	0	8.592500e+01
204.452515	1.306081	city	9	1	1.048427	1.048427	0	1	0	0	CorrectCommission	0.466678	0.352490	1	0	8.615000e+01
205.745392	1.279677	mountain	10	0	0.000000	1.180362	1	0	0	0	CorrectOmission	0.281732	0.362634	1	0	8.637500e+01
207.038300	1.306139	city	10	1	1.269985	1.269985	0	1	0	0	CorrectCommission	0.790124	0.370952	1	0	8.660000e+01
208.351257	1.319751	city	5	1	1.167404	1.167404	0	1	0	0	CorrectCommission	0.208229	0.377980	1	0	8.682500e+01
209.657425	1.292588	city	8	1	1.029845	1.029845	0	1	0	0	CorrectCommission	0.572090	0.384564	1	0	8.705000e+01
210.956894	1.306372	city	7	1	1.107702	1.107702	0	1	0	0	CorrectCommission	0.130440	0.391755	1	0	8.727500e+01
212.249954	1.279746	city	9	1	1.189357	1.189357	0	1	0	0	CorrectCommission	0.332754	0.400755	1	0	8.750000e+01
213.529617	1.279580	city	3	1	1.197325	1.197325	0	1	0	0	CorrectCommission	0.377957	0.412752	1	0	8.772500e+01
214.815872	1.292919	city	5	1	1.191367	1.191367	0	1	0	0	CorrectCommission	0.344158	0.428787	1	0	8.795000e+01
216.102051	1.279428	city	2	1	1.231552	1.231552	0	1	0	0	CorrectCommission	0.572111	0.449613	1	0	8.817500e+01
217.381622	1.279738	city	6	1	1.189243	1.189243	0	1	0	0	CorrectCommission	0.332107	0.475549	1	0	8.840000e+01
218.661148	1.279298	city	2	1	1.143312	1.143312	0	1	0	0	CorrectCommission	0.071562	0.506357	1	0	8.862500e+01
219.954056	1.306515	city	6	1	1.266013	1.266013	0	1	0	0	CorrectCommission	0.767594	0.541197	1	0	8.885000e+01
221.247009	1.279395	city	10	1	1.125068	1.125068	0	1	0	0	CorrectCommission	0.031926	0.578637	1	0	8.907500e+01
222.539902	1.306381	city	9	1	1.208884	1.208884	0	1	0	0	CorrectCommission	0.443527	0.616837	1	0	8.930000e+01
223.832886	1.279584	city	6	1	1.139207	1.139207	0	1	0	0	CorrectCommission	0.048274	0.653716	1	0	8.952500e+01
225.119141	1.292948	mountain	5	0	0.000000	1.371416	1	0	0	0	CorrectOmission	1.365499	0.687246	1	0	8.975000e+01
226.412064	1.292883	city	9	1	1.495846	1.495846	0	1	0	0	CorrectCommission	2.071340	0.715703	1	0	8.997500e+01
227.711624	1.306235	city	4	1	1.102832	1.102832	0	1	0	0	CorrectCommission	0.158065	0.737970	1	0	9.020000e+01
229.004440	1.279417	city	9	1	0.862164	0.862164	0	1	0	0	CorrectCommission	1.523271	0.753742	1	0	9.042500e+01
230.284042	1.279777	city	3	1	0.911926	0.911926	0	1	0	0	CorrectCommission	1.240991	0.763437	1	0	9.065000e+01
231.570389	1.292904	city	2	1	1.043797	1.043797	0	1	0	0	CorrectCommission	0.492943	0.768179	1	0	9.087500e+01
232.856613	1.279549	city	6	1	1.093092	1.093092	0	1	0	0	CorrectCommission	0.213314	0.769566	1	0	9.110000e+01
234.142761	1.292758	city	7	1	1.311917	1.311917	0	1	0	0	CorrectCommission	1.027990	0.769371	1	0	9.132500e+01
235.442337	1.306392	city	8	1	1.057286	1.057286	0	1	0	0	CorrectCommission	0.416428	0.769211	1	0	9.155000e+01
236.735291	1.279504	city	4	1	1.017348	1.017348	0	1	0	0	CorrectCommission	0.642981	0.770406	1	0	9.177500e+01
237.375031	9.116914	break	0	0	0.000000	1.059513	0	0	0	0	ThoughtProbe	0.403794	0.773793	1	92	92
247.138489	1.293064	mountain	6	0	0.000000	1.164920	1	0	0	0	CorrectOmission	0.194138	0.779767	1	0	9.165000e+01
248.424805	1.279579	city	2	1	1.314708	1.314708	0	1	0	0	CorrectCommission	1.043818	0.788356	0	0	9.130000e+01
249.717712	1.306241	city	4	1	1.490013	1.490013	0	1	0	0	CorrectCommission	2.038251	0.799367	0	0	9.095000e+01
251.050613	1.359556	city	1	1	1.292108	1.292108	0	1	0	0	CorrectCommission	0.915619	0.812636	0	0	9.060000e+01
252.376846	1.292904	city	4	1	1.191149	1.191149	0	1	0	0	CorrectCommission	0.342921	0.828233	0	0	9.025000e+01
253.669708	1.292813	city	3	1	1.077674	1.077674	0	1	0	0	CorrectCommission	0.300777	0.846534	0	0	8.990000e+01
254.955948	1.279672	mountain	4	0	0.000000	1.246721	1	0	0	0	CorrectOmission	0.658157	0.868238	0	0	8.955000e+01
256.235504	1.279446	city	3	1	1.422564	1.422564	0	1	0	0	CorrectCommission	1.655644	0.894274	0	0	8.920000e+01
257.535004	1.319534	city	7	1	1.329478	1.329478	0	1	0	0	CorrectCommission	1.127603	0.925639	0	0	8.885000e+01
258.834625	1.279756	city	8	1	1.086003	1.086003	0	1	0	0	CorrectCommission	0.253528	0.963157	0	0	8.850000e+01
260.127594	1.306130	city	1	1	1.011552	1.011552	0	1	0	0	CorrectCommission	0.675858	1.007184	0	0	8.815000e+01
261.427155	1.293001	city	8	1	0.977878	0.977878	0	1	0	0	CorrectCommission	0.866873	1.057335	0	0	8.780000e+01
262.713440	1.279564	city	1	1	0.935885	0.935885	0	1	0	0	CorrectCommission	1.105082	1.112317	0	0	8.745000e+01
263.993042	1.279660	city	5	1	0.937573	0.937573	0	1	0	0	CorrectCommission	1.095509	1.169914	0	0	8.710000e+01
265.292572	1.319414	city	8	1	0.925748	0.925748	0	1	0	0	CorrectCommission	1.162585	1.226997	0	0	8.675000e+01
266.592041	1.279520	city	3	1	0.916704	0.916704	0	1	0	0	CorrectCommission	1.213887	1.279798	0	0	8.640000e+01
267.878357	1.293080	city	7	1	1.204357	1.204357	0	1	0	0	CorrectCommission	0.417847	1.324371	0	0	8.605000e+01
269.164581	1.279389	city	8	1	0.925533	0.925533	0	1	0	0	CorrectCommission	1.163809	1.357041	0	0	8.570000e+01
270.477386	1.346224	city	1	1	0.682284	0.682284	0	1	0	0	CorrectCommission	2.543658	1.374948	0	0	8.535000e+01
271.803711	1.306393	city	2	1	0.514259	0.514259	0	1	0	0	CorrectCommission	3.496792	1.376531	0	0	85
273.110016	1.306247	city	4	1	1.690977	1.690977	0	1	0	0	CorrectCommission	3.178235	1.361799	0	0	8.465000e+01
274.429596	1.332935	city	10	1	0.901490	0.901490	0	1	0	0	CorrectCommission	1.300193	1.332385	0	0	8.430000e+01
275.742493	1.292866	city	8	1	0.999667	0.999667	0	1	0	0	CorrectCommission	0.743277	1.291292	0	0	8.395000e+01
277.035400	1.292929	city	5	1	1.032089	1.032089	0	1	0	0	CorrectCommission	0.559358	1.242360	0	0	8.360000e+01
278.328247	1.292784	city	1	1	1.178391	1.178391	0	1	0	0	CorrectCommission	0.270551	1.189687	0	0	8.325000e+01
279.621185	1.293035	city	6	1	1.132975	1.132975	0	1	0	0	CorrectCommission	0.012927	1.137063	0	0	8.290000e+01
280.914062	1.292721	city	2	1	1.303247	1.303247	0	1	0	0	CorrectCommission	0.978805	1.087556	0	0	8.255000e+01
282.213623	1.306401	mountain	5	0	0.000000	1.471274	1	0	0	0	CorrectOmission	1.931951	1.043228	0	0	8.220000e+01
283.506622	1.279600	city	7	1	1.458217	1.458217	0	1	0	0	CorrectCommission	1.857887	1.005129	0	0	8.185000e+01
284.792786	1.292738	city	10	1	1.085238	1.085238	0	1	0	0	CorrectCommission	0.257867	0.973452	0	0	8.150000e+01
286.085602	1.292906	city	5	1	1.242077	1.242077	0	1	0	0	CorrectCommission	0.631816	0.947805	0	0	8.115000e+01
287.378540	1.292964	city	10	1	1.244087	1.244087	0	1	0	0	CorrectCommission	0.643216	0.927451	0	0	8.080000e+01
288.664795	1.279544	city	7	1	1.355483	1.355483	0	1	0	0	CorrectCommission	1.275122	0.911569	0	0	8.045000e+01
289.951080	1.293034	city	2	1	1.244249	1.244249	0	1	0	0	CorrectCommission	0.644135	0.899434	0	0	8.010000e+01
291.243988	1.292806	city	6	1	1.053538	1.053538	0	1	0	0	CorrectCommission	0.437686	0.890547	0	0	7.975000e+01
292.536896	1.293017	city	5	1	1.590914	1.590914	0	1	0	0	CorrectCommission	2.610622	0.884588	0	0	7.940000e+01
293.829865	1.292909	city	4	1	1.089253	1.089253	0	1	0	0	CorrectCommission	0.235093	0.881286	0	0	7.905000e+01
295.116119	1.279578	city	2	1	1.039649	1.039649	0	1	0	0	CorrectCommission	0.516477	0.880411	0	0	7.870000e+01
296.402283	1.292743	city	6	1	1.030275	1.030275	0	1	0	0	CorrectCommission	0.569647	0.881478	0	0	7.835000e+01
297.048645	14.595232	break	0	0	0.000000	1.153286	0	0	0	0	ThoughtProbe	0.128143	0.883686	0	78	78
312.283661	1.279545	city	9	1	1.288576	1.288576	0	1	0	0	CorrectCommission	0.895584	0.885876	0	0	7.832353e+01
313.563232	1.279585	city	3	1	1.316039	1.316039	0	1	0	0	CorrectCommission	1.051368	0.886545	0	0	7.864706e+01
314.862885	1.319739	mountain	2	0	0.000000	1.419770	1	0	0	0	CorrectOmission	1.639794	0.884103	0	0	7.897059e+01
316.162445	1.279396	city	3	1	1.418253	1.418253	0	1	0	0	CorrectCommission	1.631189	0.877102	0	0	7.929412e+01
317.468689	1.333063	city	6	1	1.129970	1.129970	0	1	0	0	CorrectCommission	0.004120	0.864482	0	0	7.961765e+01
318.781647	1.292897	city	7	1	0.978083	0.978083	0	1	0	0	CorrectCommission	0.865713	0.845853	0	0	7.994118e+01
320.074585	1.292940	city	8	1	0.887550	0.887550	0	1	0	0	CorrectCommission	1.379269	0.821541	0	0	8.026471e+01
321.367462	1.292862	city	3	1	0.912196	0.912196	0	1	0	0	CorrectCommission	1.239459	0.792696	0	0	8.058824e+01
322.666992	1.306143	city	10	1	0.937290	0.937290	0	1	0	0	CorrectCommission	1.097117	0.761168	1	0	8.091176e+01
323.966522	1.292912	city	2	1	1.040766	1.040766	0	1	0	0	CorrectCommission	0.510138	0.729236	1	0	8.123529e+01
325.252808	1.279690	city	10	1	0.984600	0.984600	0	1	0	0	CorrectCommission	0.828746	0.699317	1	0	8.155882e+01
326.539124	1.292932	city	3	1	1.148399	1.148399	0	1	0	0	CorrectCommission	0.100420	0.673582	1	0	8.188235e+01
327.838593	1.305993	city	10	1	1.124214	1.124214	0	1	0	0	CorrectCommission	0.036771	0.653616	1	0	8.220588e+01
329.144806	1.306479	city	5	1	1.217901	1.217901	0	1	0	0	CorrectCommission	0.494673	0.640134	1	0	8.252941e+01
330.437836	1.279586	city	9	1	1.146544	1.146544	0	1	0	0	CorrectCommission	0.089897	0.632854	1	0	8.285294e+01
331.717407	1.279554	city	4	1	1.144552	1.144552	0	1	0	0	CorrectCommission	0.078594	0.630636	1	0	8.317647e+01
333.003571	1.292759	city	2	1	1.258260	1.258260	0	1	0	0	CorrectCommission	0.723615	0.631708	1	0	8.350000e+01
334.303070	1.306223	city	6	1	1.279287	1.279287	0	1	0	0	CorrectCommission	0.842891	0.633983	1	0	8.382353e+01
335.609406	1.306423	mountain	9	0	0.000000	1.413123	1	0	0	0	CorrectOmission	1.602087	0.635576	1	0	8.414706e+01
336.909027	1.292879	city	7	1	1.433543	1.433543	0	1	0	0	CorrectCommission	1.717924	0.635097	1	0	8.447059e+01
338.208588	1.306239	city	8	1	1.114324	1.114324	0	1	0	0	CorrectCommission	0.092874	0.631941	1	0	8.479412e+01
339.501526	1.279581	city	3	1	1.250377	1.250377	0	1	0	0	CorrectCommission	0.678898	0.626378	1	0	8.511765e+01
340.781067	1.279513	city	6	1	1.289691	1.289691	0	1	0	0	CorrectCommission	0.901910	0.619384	1	0	8.544118e+01
342.060577	1.279499	city	8	1	1.134616	1.134616	0	1	0	0	CorrectCommission	0.022232	0.612424	1	0	8.576471e+01
343.353516	1.306411	city	1	1	1.045084	1.045084	0	1	0	0	CorrectCommission	0.485646	0.607140	1	0	8.608824e+01
344.653137	1.292797	city	4	1	1.134426	1.134426	0	1	0	0	CorrectCommission	0.021155	0.604987	1	0	8.641176e+01
345.946014	1.293014	city	3	1	1.213686	1.213686	0	1	0	0	CorrectCommission	0.470762	0.607022	1	0	8.673529e+01
347.238953	1.292820	city	7	1	1.308195	1.308195	0	1	0	0	CorrectCommission	1.006877	0.613664	1	0	8.705882e+01
348.551849	1.332992	city	10	1	1.118711	1.118711	0	1	0	0	CorrectCommission	0.067988	0.624714	1	0	8.738235e+01
349.864807	1.292899	city	9	1	1.211139	1.211139	0	1	0	0	CorrectCommission	0.456317	0.639453	1	0	8.770588e+01
351.164368	1.306224	city	3	1	1.263118	1.263118	0	1	0	0	CorrectCommission	0.751172	0.656761	1	0	8.802941e+01
352.457184	1.279405	city	6	1	1.367107	1.367107	0	1	0	0	CorrectCommission	1.341058	0.675370	1	0	8.835294e+01
353.776733	1.359697	city	1	1	1.313512	1.313512	0	1	0	0	CorrectCommission	1.037036	0.694022	1	0	8.867647e+01
354.456573	10.969742	break	0	0	0.000000	1.170394	0	0	0	0	ThoughtProbe	0.225190	0.711681	1	89	89
366.066010	1.279415	city	8	1	1.024419	1.024419	0	1	0	0	CorrectCommission	0.602871	0.727628	1	0	8.871739e+01
367.345612	1.279742	city	6	1	0.962248	0.962248	0	1	0	0	CorrectCommission	0.955538	0.741461	1	0	8.843478e+01
368.625214	1.279513	city	8	1	0.961683	0.961683	0	1	0	0	CorrectCommission	0.958744	0.753093	1	0	8.815217e+01
369.904755	1.279519	city	9	1	1.286711	1.286711	0	1	0	0	CorrectCommission	0.885003	0.762708	1	0	8.786957e+01
371.184296	1.279566	city	8	1	1.070372	1.070372	0	1	0	0	CorrectCommission	0.342194	0.770629	1	0	8.758696e+01
372.463898	1.279635	city	6	1	0.978140	0.978140	0	1	0	0	CorrectCommission	0.865389	0.777311	1	0	8.730435e+01
373.743561	1.279682	mountain	3	0	0.000000	1.208250	1	0	0	0	CorrectOmission	0.439927	0.783227	0	0	8.702174e+01
375.023071	1.279395	city	8	1	1.418372	1.418372	0	1	0	0	CorrectCommission	1.631861	0.788876	0	0	8.673913e+01
376.302673	1.279766	city	6	1	1.266176	1.266176	0	1	0	0	CorrectCommission	0.768518	0.794705	0	0	8.645652e+01
377.583008	1.280930	city	7	1	1.177771	1.177771	0	1	0	0	CorrectCommission	0.267034	0.801164	0	0	8.617391e+01
378.862518	1.278055	city	6	1	0.962925	0.962925	0	1	0	0	CorrectCommission	0.951697	0.808660	0	0	8.589130e+01
380.141418	1.279748	city	7	1	0.979982	0.979982	0	1	0	0	CorrectCommission	0.854943	0.817514	0	0	8.560870e+01
381.421051	1.279558	mountain	9	0	0.000000	1.162934	1	0	0	0	CorrectOmission	0.182870	0.828002	0	0	8.532609e+01
382.700562	1.279471	mountain	4	0	0.000000	1.339375	1	0	0	0	CorrectOmission	1.183746	0.840326	0	0	8.504348e+01
383.980072	1.279549	city	2	1	1.336897	1.336897	0	1	0	0	CorrectCommission	1.169690	0.854566	0	0	8.476087e+01
385.259705	1.279718	city	10	1	0.983093	0.983093	0	1	0	0	CorrectCommission	0.837295	0.870686	0	0	8.447826e+01
386.539276	1.279415	city	2	1	1.351908	1.351908	0	1	0	0	CorrectCommission	1.254839	0.888530	0	0	8.419565e+01
387.818787	1.279580	city	5	1	1.230870	1.230870	0	1	0	0	CorrectCommission	0.568242	0.907780	0	0	8.391304e+01
389.105103	1.293067	city	3	0	0.000000	1.130704	0	0	0	1	OmissionError	0.000044	0.927971	0	0	8.363043e+01
390.391449	1.279604	city	9	1	1.017600	1.017600	0	1	0	0	CorrectCommission	0.641549	0.948521	0	0	8.334783e+01
391.670959	1.279425	city	6	1	0.857747	0.857747	0	1	0	0	CorrectCommission	1.548330	0.968770	0	0	8.306522e+01
392.950531	1.279720	city	8	1	0.857825	0.857825	0	1	0	0	CorrectCommission	1.547887	0.988101	0	0	8.278261e+01
394.230164	1.279574	city	10	1	0.825705	0.825705	0	1	0	0	CorrectCommission	1.730091	1.005965	0	0	8.250000e+01
395.509766	1.279573	city	4	1	1.099683	1.099683	0	1	0	0	CorrectCommission	0.175927	1.021935	0	0	8.221739e+01
396.789276	1.279448	mountain	7	0	0.000000	1.285617	1	0	0	0	CorrectOmission	0.878797	1.035728	0	0	8.193478e+01
398.068848	1.279733	city	10	1	1.396274	1.396274	0	1	0	0	CorrectCommission	1.506508	1.047082	0	0	8.165217e+01
399.348419	1.279410	city	4	1	1.444422	1.444422	0	1	0	0	CorrectCommission	1.779634	1.055702	0	0	8.136957e+01
400.627899	1.279570	city	1	1	1.124672	1.124672	0	1	0	0	CorrectCommission	0.034177	1.061156	0	0	8.108696e+01
401.907562	1.279737	city	4	1	1.230284	1.230284	0	1	0	0	CorrectCommission	0.564920	1.062891	0	0	8.080435e+01
403.187134	1.279422	city	10	1	0.814525	0.814525	0	1	0	0	CorrectCommission	1.793509	1.060109	0	0	8.052174e+01
404.466736	1.279739	city	1	1	1.015409	1.015409	0	1	0	0	CorrectCommission	0.653975	1.051930	0	0	8.023913e+01
405.746338	1.279508	city	7	1	1.394348	1.394348	0	1	0	0	CorrectCommission	1.495586	1.037577	0	0	7.995652e+01
407.025940	1.279670	city	6	1	0.964798	0.964798	0	1	0	0	CorrectCommission	0.941072	1.016493	0	0	7.967391e+01
408.305542	1.279556	city	8	1	0.857677	0.857677	0	1	0	0	CorrectCommission	1.548728	0.988579	0	0	7.939130e+01
409.585114	1.279579	city	6	1	0.911073	0.911073	0	1	0	0	CorrectCommission	1.245834	0.954348	0	0	7.910870e+01
410.864624	1.279444	city	2	1	0.910979	0.910979	0	1	0	0	CorrectCommission	1.246367	0.914915	0	0	7.882609e+01
412.144135	1.279548	city	4	1	1.449950	1.449950	0	1	0	0	CorrectCommission	1.810993	0.871988	0	0	7.854348e+01
413.423767	1.279744	city	1	1	1.100126	1.100126	0	1	0	0	CorrectCommission	0.173412	0.827685	0	0	7.826087e+01
414.703430	1.279585	city	4	1	1.131915	1.131915	0	1	0	0	CorrectCommission	0.006914	0.784320	0	0	7.797826e+01
415.989624	1.292776	city	2	1	1.137506	1.137506	0	1	0	0	CorrectCommission	0.038627	0.744132	1	0	7.769565e+01
417.275787	1.279541	city	8	1	0.919835	0.919835	0	1	0	0	CorrectCommission	1.196128	0.709068	1	0	7.741304e+01
418.555420	1.279766	city	2	1	1.124441	1.124441	0	1	0	0	CorrectCommission	0.035485	0.680596	1	0	7.713043e+01
419.835022	1.279395	city	5	1	1.070175	1.070175	0	1	0	0	CorrectCommission	0.343313	0.659728	1	0	7.684783e+01
421.114532	1.279650	city	2	1	0.984023	0.984023	0	1	0	0	CorrectCommission	0.832019	0.646984	1	0	7.656522e+01
422.394104	1.279504	city	5	1	0.886811	0.886811	0	1	0	0	CorrectCommission	1.383458	0.642481	1	0	7.628261e+01
423.033875	16.327974	break	0	0	0.000000	0.985614	0	0	0	0	ThoughtProbe	0.822990	0.646015	1	76	76
440.001617	1.279565	mountain	4	0	0.000000	1.146620	1	0	0	0	CorrectOmission	0.090325	0.657115	1	0	7.629412e+01
441.281281	1.279764	city	9	1	1.236015	1.236015	0	1	0	0	CorrectCommission	0.597427	0.675025	1	0	7.658824e+01
442.580872	1.319428	city	1	1	1.119988	1.119988	0	1	0	0	CorrectCommission	0.060742	0.698658	1	0	7.688235e+01
443.887115	1.293028	city	6	1	1.032445	1.032445	0	1	0	0	CorrectCommission	0.557339	0.726626	1	0	7.717647e+01
445.220062	1.372907	city	4	1	1.116403	1.116403	0	1	0	0	CorrectCommission	0.081084	0.757220	1	0	7.747059e+01
446.546234	1.279417	city	9	1	0.934780	0.934780	0	1	0	0	CorrectCommission	1.111354	0.788520	0	0	7.776471e+01
447.825745	1.279605	city	4	1	0.988321	0.988321	0	1	0	0	CorrectCommission	0.807639	0.818509	0	0	7.805882e+01
449.105408	1.279693	city	6	1	1.609759	1.609759	0	1	0	0	CorrectCommission	2.717518	0.845321	0	0	7.835294e+01
450.385010	1.279518	city	1	1	1.078670	1.078670	0	1	0	0	CorrectCommission	0.295124	0.867370	0	0	7.864706e+01
451.677826	1.306158	city	8	1	0.955758	0.955758	0	1	0	0	CorrectCommission	0.992353	0.883617	0	0	7.894118e+01
452.970703	1.279553	city	3	1	0.979132	0.979132	0	1	0	0	CorrectCommission	0.859763	0.893534	0	0	7.923529e+01
454.263641	1.306326	city	9	1	1.095444	1.095444	0	1	0	0	CorrectCommission	0.199975	0.897214	0	0	7.952941e+01
455.576630	1.319640	city	6	1	0.874290	0.874290	0	1	0	0	CorrectCommission	1.454487	0.895314	0	0	7.982353e+01
456.876221	1.279583	city	9	1	0.863315	0.863315	0	1	0	0	CorrectCommission	1.516746	0.888941	0	0	8.011765e+01
458.155792	1.279518	city	2	1	0.979364	0.979364	0	1	0	0	CorrectCommission	0.858448	0.879550	0	0	8.041176e+01
459.441986	1.292913	city	9	1	0.991186	0.991186	0	1	0	0	CorrectCommission	0.791385	0.868749	0	0	8.070588e+01
460.768250	1.359606	city	10	1	0.994170	0.994170	0	1	0	0	CorrectCommission	0.774459	0.858059	0	0	81
462.087860	1.279601	city	7	1	1.298686	1.298686	0	1	0	0	CorrectCommission	0.952933	0.848758	0	0	8.129412e+01
463.387451	1.319573	city	4	1	1.126641	1.126641	0	1	0	0	CorrectCommission	0.023004	0.841680	0	0	8.158824e+01
464.693665	1.292876	city	1	1	1.030557	1.030557	0	1	0	0	CorrectCommission	0.568050	0.837144	0	0	8.188235e+01
466.013153	1.346064	city	9	1	1.005330	1.005330	0	1	0	0	CorrectCommission	0.711150	0.834860	0	0	8.217647e+01
467.345978	1.319631	city	1	1	0.847895	0.847895	0	1	0	0	CorrectCommission	1.604214	0.834025	0	0	8.247059e+01
468.652222	1.292845	city	2	1	1.045817	1.045817	0	1	0	0	CorrectCommission	0.481488	0.833450	0	0	8.276471e+01
469.938538	1.279759	mountain	3	0	0.000000	1.282960	1	0	0	0	CorrectOmission	0.863728	0.831794	0	0	8.305882e+01
471.218109	1.279421	city	9	1	1.372098	1.372098	0	1	0	0	CorrectCommission	1.369371	0.827708	0	0	8.335294e+01
472.530914	1.346199	city	7	1	1.126003	1.126003	0	1	0	0	CorrectCommission	0.026622	0.820132	0	0	8.364706e+01
473.863892	1.319748	city	3	1	0.951800	0.951800	0	1	0	0	CorrectCommission	1.014803	0.808515	0	0	8.394118e+01
475.176880	1.306222	city	9	1	0.885433	0.885433	0	1	0	0	CorrectCommission	1.391278	0.792848	0	0	8.423529e+01
476.489777	1.319584	city	10	1	0.838845	0.838845	0	1	0	0	CorrectCommission	1.655553	0.773811	1	0	8.452941e+01
477.809326	1.319481	city	2	1	1.263562	1.263562	0	1	0	0	CorrectCommission	0.753690	0.752651	1	0	8.482353e+01
479.135529	1.332956	city	3	1	1.188296	1.188296	0	1	0	0	CorrectCommission	0.326739	0.731125	1	0	8.511765e+01
480.441772	1.279540	city	1	1	1.178321	1.178321	0	1	0	0	CorrectCommission	0.270156	0.711207	1	0	8.541176e+01
481.728027	1.292948	city	9	1	1.076178	1.076178	0	1	0	0	CorrectCommission	0.309259	0.694791	1	0	8.570588e+01
482.374512	9.663331	break	0	1	1.004838	1.004838	0	0	0	0	ThoughtProbe	0.713944	0.683466	1	86	86
492.691040	1.306416	city	5	1	1.221317	1.221317	0	1	0	0	CorrectCommission	0.514049	0.678228	1	0	8.560000e+01
494.004028	1.319567	city	8	1	1.006156	1.006156	0	1	0	0	CorrectCommission	0.706465	0.679386	1	0	8.520000e+01
495.343597	1.359554	city	2	1	1.036653	1.036653	0	1	0	0	CorrectCommission	0.533472	0.686506	1	0	8.480000e+01
496.703125	1.359533	city	3	1	1.155723	1.155723	0	1	0	0	CorrectCommission	0.141968	0.698471	1	0	8.440000e+01
498.056000	1.346219	city	7	1	1.018373	1.018373	0	1	0	0	CorrectCommission	0.637163	0.713699	1	0	84
499.382263	1.306257	city	2	1	0.940500	0.940500	0	1	0	0	CorrectCommission	1.078905	0.730310	1	0	8.360000e+01
500.688446	1.306099	city	5	1	1.001449	1.001449	0	1	0	0	CorrectCommission	0.733169	0.746509	1	0	8.320000e+01
501.987946	1.292929	city	3	1	0.974451	0.974451	0	1	0	0	CorrectCommission	0.886315	0.760849	1	0	8.280000e+01
503.314240	1.359671	mountain	1	1	0.850374	0.850374	0	0	1	0	CommissionError	1.590153	0.772504	1	0	8.240000e+01
504.633881	1.279579	mountain	3	0	0.000000	1.132908	1	0	0	0	CorrectOmission	0.012546	0.781427	1	0	82
505.913361	1.279396	city	10	1	1.427163	1.427163	0	1	0	0	CorrectCommission	1.681728	0.788499	0	0	8.160000e+01
507.219604	1.333077	city	1	1	1.338245	1.338245	0	1	0	0	CorrectCommission	1.177337	0.795320	0	0	8.120000e+01
508.545929	1.319566	city	6	1	1.231272	1.231272	0	1	0	0	CorrectCommission	0.570523	0.804060	0	0	8.080000e+01
509.858826	1.306266	city	10	1	1.047458	1.047458	0	1	0	0	CorrectCommission	0.472176	0.817152	0	0	8.040000e+01
511.158386	1.292862	city	8	1	1.096791	1.096791	0	1	0	0	CorrectCommission	0.192334	0.836871	0	0	80
512.484558	1.359465	city	4	1	1.142559	1.142559	0	1	0	0	CorrectCommission	0.067293	0.864946	0	0	7.960000e+01
513.817444	1.306323	city	3	1	0.863452	0.863452	0	1	0	0	CorrectCommission	1.515965	0.902261	0	0	7.920000e+01
515.130432	1.319589	city	5	1	1.233958	1.233958	0	1	0	0	CorrectCommission	0.585759	0.948591	0	0	7.880000e+01
516.443237	1.306121	city	10	1	0.990652	0.990652	0	1	0	0	CorrectCommission	0.794414	1.002581	0	0	7.840000e+01
517.749390	1.306185	city	1	1	1.063354	1.063354	0	1	0	0	CorrectCommission	0.382005	1.061772	0	0	78
519.075684	1.346309	city	8	1	0.941804	0.941804	0	1	0	0	CorrectCommission	1.071510	1.122881	0	0	7.760000e+01
520.408630	1.319621	city	3	1	0.876662	0.876662	0	1	0	0	CorrectCommission	1.441030	1.182155	0	0	7.720000e+01
521.734863	1.332897	city	5	1	0.967044	0.967044	0	1	0	0	CorrectCommission	0.928335	1.235924	0	0	7.680000e+01
523.061096	1.319568	city	3	1	0.594229	0.594229	0	1	0	0	CorrectCommission	3.043157	1.281149	0	0	7.640000e+01
524.360657	1.279539	city	10	1	1.382367	1.382367	0	1	0	0	CorrectCommission	1.427623	1.315948	0	0	76
525.660278	1.319628	city	1	1	1.477070	1.477070	0	1	0	0	CorrectCommission	1.964830	1.340246	0	0	7.560000e+01
526.999817	1.359515	city	3	1	1.312440	1.312440	0	1	0	0	CorrectCommission	1.030954	1.356011	0	0	7.520000e+01
528.319397	1.279615	mountain	7	0	0.000000	1.336378	1	0	0	0	CorrectOmission	1.166745	1.367562	0	0	7.480000e+01
529.598999	1.279563	city	10	1	1.427961	1.427961	0	1	0	0	CorrectCommission	1.686258	1.381483	0	0	7.440000e+01
530.891785	1.306104	city	4	1	1.466266	1.466266	0	1	0	0	CorrectCommission	1.903544	1.406312	0	0	74
532.218018	1.346354	city	1	1	1.512431	1.512431	0	1	0	0	CorrectCommission	2.165418	1.451968	0	0	7.360000e+01
533.551025	1.319586	city	3	1	1.235228	1.235228	0	1	0	0	CorrectCommission	0.592963	1.528909	0	0	7.320000e+01
534.857239	1.292884	city	5	1	1.161435	1.161435	0	1	0	0	CorrectCommission	0.174365	1.647026	0	0	7.280000e+01
536.156738	1.306093	city	8	1	1.274620	1.274620	0	1	0	0	CorrectCommission	0.816419	1.814422	0	0	7.240000e+01
537.482971	1.346396	city	1	1	1.137967	1.137967	0	1	0	0	CorrectCommission	0.041243	2.036217	0	0	72
538.795959	1.279580	city	3	1	1.300457	1.300457	0	1	0	0	CorrectCommission	0.962982	2.313642	0	0	7.160000e+01
540.075439	1.279390	city	5	1	1.360490	1.360490	0	1	0	0	CorrectCommission	1.303520	2.643331	0	0	7.120000e+01
541.415039	1.399726	city	2	1	1.273504	1.273504	0	1	0	0	CorrectCommission	0.810087	3.017343	0	0	7.080000e+01
542.761230	1.292723	city	3	1	1.541162	1.541162	0	1	0	0	CorrectCommission	2.328402	3.423559	0	0	7.040000e+01
543.407593	18.500743	break	0	0	0.000000	1.808821	0	0	0	0	ThoughtProbe	3.846717	3.846717	0	70	70
