onset	duration	trial_type	image_type	Press	ReactionTime	ReactionTime_Interpolated	CorrectOmission	CorrectCommission	CommissionError	OmissionError	response_type	nonsmoothVarianceTimeCourse	VarianceTimeCourse	In_the_Zone	ThoughtProbe	ThoughtProbe_Interpolated
0.653208	1.279599	city	6	1	1.129533	1.129533	0	1	0	0	CorrectCommission	0.176267	0.176267	1	0	86
1.932785	1.279554	mountain	3	0	0.000000	1.202074	1	0	0	0	CorrectOmission	0.224215	0.226232	1	0	86
3.218934	1.292744	city	10	1	1.204986	1.204986	0	1	0	0	CorrectCommission	0.240292	0.275301	1	0	86
4.505180	1.279747	city	8	1	1.068640	1.068640	0	1	0	0	CorrectCommission	0.512442	0.322755	1	0	86
5.784841	1.279574	city	5	1	1.017514	1.017514	0	1	0	0	CorrectCommission	0.794694	0.368218	1	0	86
7.071093	1.292930	city	6	1	1.103090	1.103090	0	1	0	0	CorrectCommission	0.322250	0.411723	1	0	86
8.363998	1.292882	city	7	1	1.080486	1.080486	0	1	0	0	CorrectCommission	0.447040	0.453653	1	0	86
9.656821	1.292765	city	2	1	1.004753	1.004753	0	1	0	0	CorrectCommission	0.865144	0.494604	1	0	86
10.943026	1.279642	city	7	1	1.074742	1.074742	0	1	0	0	CorrectCommission	0.478754	0.535190	1	0	86
12.222691	1.279689	city	8	1	1.074449	1.074449	0	1	0	0	CorrectCommission	0.480369	0.575814	1	0	86
13.502325	1.279581	city	9	1	1.127174	1.127174	0	1	0	0	CorrectCommission	0.189286	0.616430	1	0	86
14.781823	1.279414	city	3	1	1.074304	1.074304	0	1	0	0	CorrectCommission	0.481170	0.656414	1	0	86
16.061399	1.279739	city	5	1	1.233993	1.233993	0	1	0	0	CorrectCommission	0.400429	0.694493	1	0	86
17.354389	1.306239	city	8	1	1.077042	1.077042	0	1	0	0	CorrectCommission	0.466056	0.728931	1	0	86
18.647287	1.279558	city	3	1	1.001690	1.001690	0	1	0	0	CorrectCommission	0.882052	0.757774	0	0	86
19.933521	1.292910	city	9	1	1.007185	1.007185	0	1	0	0	CorrectCommission	0.851715	0.779216	0	0	86
21.219765	1.279578	city	5	1	0.974688	0.974688	0	1	0	0	CorrectCommission	1.031125	0.792011	0	0	86
22.499266	1.279425	city	3	1	1.662705	1.662705	0	1	0	0	CorrectCommission	2.767236	0.795775	0	0	86
23.778797	1.279636	mountain	9	0	0.000000	1.543200	1	0	0	0	CorrectOmission	2.107480	0.791135	0	0	86
25.058453	1.279675	city	9	1	1.181758	1.181758	0	1	0	0	CorrectCommission	0.112056	0.779752	0	0	86
26.338078	1.279578	city	7	1	1.143966	1.143966	0	1	0	0	CorrectCommission	0.096587	0.764063	0	0	86
27.617657	1.279577	city	5	1	1.182970	1.182970	0	1	0	0	CorrectCommission	0.118747	0.746867	1	0	86
28.903816	1.292744	city	6	1	1.191699	1.191699	0	1	0	0	CorrectCommission	0.166938	0.730913	1	0	86
30.203392	1.306405	city	4	1	1.119612	1.119612	0	1	0	0	CorrectCommission	0.231039	0.718483	1	0	86
31.496391	1.279596	city	3	1	1.022878	1.022878	0	1	0	0	CorrectCommission	0.765080	0.711121	1	0	86
32.775902	1.279422	city	9	1	0.967744	0.967744	0	1	0	0	CorrectCommission	1.069457	0.709539	1	0	86
34.055470	1.279716	city	3	1	1.022594	1.022594	0	1	0	0	CorrectCommission	0.766646	0.713656	1	0	86
35.335117	1.279578	city	4	1	1.076475	1.076475	0	1	0	0	CorrectCommission	0.469182	0.722789	1	0	86
36.621296	1.292780	city	3	1	1.046567	1.046567	0	1	0	0	CorrectCommission	0.634298	0.735897	1	0	86
37.907455	1.279544	city	8	1	0.965174	0.965174	0	1	0	0	CorrectCommission	1.083647	0.751797	0	0	86
39.187035	1.279614	city	6	1	0.918763	0.918763	0	1	0	0	CorrectCommission	1.339871	0.769387	0	0	86
40.500023	1.346358	city	3	1	1.167195	1.167195	0	1	0	0	CorrectCommission	0.031659	0.787778	0	0	86
41.819664	1.292929	city	1	1	1.032960	1.032960	0	1	0	0	CorrectCommission	0.709421	0.806389	0	0	86
46.164818	7.397373	break	0	1	0.976860	0.976860	0	0	0	0	ThoughtProbe	1.019129	0.824845	0	86	86
50.516636	1.306268	city	5	1	1.040335	1.040335	0	1	0	0	CorrectCommission	0.668704	0.842955	0	0	8.608824e+01
51.829544	1.319542	city	2	1	0.914185	0.914185	0	1	0	0	CorrectCommission	1.365146	0.860608	0	0	8.617647e+01
53.129101	1.279574	city	7	1	0.981958	0.981958	0	1	0	0	CorrectCommission	0.990986	0.877614	0	0	8.626471e+01
54.408764	1.279754	city	2	1	0.985153	0.985153	0	1	0	0	CorrectCommission	0.973349	0.893651	0	0	8.635294e+01
55.708431	1.319579	city	8	1	1.208448	1.208448	0	1	0	0	CorrectCommission	0.259402	0.908173	0	0	8.644118e+01
57.008011	1.279581	city	7	1	1.143568	1.143568	0	1	0	0	CorrectCommission	0.098783	0.920396	0	0	8.652941e+01
58.294243	1.292883	mountain	4	0	0.000000	1.411254	1	0	0	0	CorrectOmission	1.379043	0.929378	0	0	8.661765e+01
59.587143	1.292920	city	4	1	1.514480	1.514480	0	1	0	0	CorrectCommission	1.948924	0.934125	0	0	8.670588e+01
60.886715	1.306221	city	3	1	0.956218	0.956218	0	1	0	0	CorrectCommission	1.133091	0.933772	0	0	8.679412e+01
62.199474	1.319300	mountain	9	0	0.000000	1.196577	1	0	0	0	CorrectOmission	0.193864	0.927752	0	0	8.688235e+01
63.499004	1.279755	city	4	1	1.445040	1.445040	0	1	0	0	CorrectCommission	1.565562	0.915907	0	0	8.697059e+01
64.785393	1.293023	city	10	1	0.911091	0.911091	0	1	0	0	CorrectCommission	1.382226	0.898494	0	0	8.705882e+01
66.071617	1.279422	city	5	1	1.300460	1.300460	0	1	0	0	CorrectCommission	0.767377	0.876258	0	0	8.714706e+01
67.351105	1.279566	city	1	1	1.331698	1.331698	0	1	0	0	CorrectCommission	0.939831	0.850310	0	0	8.723529e+01
68.664062	1.346347	city	3	1	1.300514	1.300514	0	1	0	0	CorrectCommission	0.767675	0.821964	0	0	8.732353e+01
69.977043	1.279603	city	5	1	1.068998	1.068998	0	1	0	0	CorrectCommission	0.510463	0.792589	0	0	8.741176e+01
71.256569	1.279448	city	7	1	1.071425	1.071425	0	1	0	0	CorrectCommission	0.497065	0.763433	0	0	8.750000e+01
72.562721	1.332864	city	6	1	1.006168	1.006168	0	1	0	0	CorrectCommission	0.857329	0.735471	1	0	8.758824e+01
73.882278	1.306256	city	8	1	1.024810	1.024810	0	1	0	0	CorrectCommission	0.754414	0.709337	1	0	8.767647e+01
75.201859	1.332891	city	1	1	1.227265	1.227265	0	1	0	0	CorrectCommission	0.363288	0.685344	1	0	8.776471e+01
76.514793	1.292989	city	6	1	1.090163	1.090163	0	1	0	0	CorrectCommission	0.393615	0.663505	1	0	8.785294e+01
77.807693	1.292809	city	7	1	1.300087	1.300087	0	1	0	0	CorrectCommission	0.765315	0.643608	1	0	8.794118e+01
79.093971	1.279743	city	6	1	1.351386	1.351386	0	1	0	0	CorrectCommission	1.048526	0.625351	1	0	8.802941e+01
80.386894	1.306101	city	8	1	1.332226	1.332226	0	1	0	0	CorrectCommission	0.942747	0.608419	1	0	8.811765e+01
81.686417	1.292949	city	6	1	1.089329	1.089329	0	1	0	0	CorrectCommission	0.398219	0.592568	1	0	8.820588e+01
82.992737	1.319687	city	1	1	1.041195	1.041195	0	1	0	0	CorrectCommission	0.663953	0.577646	1	0	8.829412e+01
84.312302	1.319442	city	7	1	1.165347	1.165347	0	1	0	0	CorrectCommission	0.021454	0.563605	1	0	8.838235e+01
85.645195	1.346343	city	3	1	1.215990	1.215990	0	1	0	0	CorrectCommission	0.301042	0.550514	1	0	8.847059e+01
86.971390	1.306051	city	8	1	1.025377	1.025377	0	1	0	0	CorrectCommission	0.751281	0.538541	1	0	8.855882e+01
88.270882	1.292929	city	3	1	1.018629	1.018629	0	1	0	0	CorrectCommission	0.788536	0.527979	1	0	8.864706e+01
89.570541	1.306399	city	6	1	1.109806	1.109806	0	1	0	0	CorrectCommission	0.285173	0.519283	1	0	8.873529e+01
90.903511	1.359534	city	10	1	1.074676	1.074676	0	1	0	0	CorrectCommission	0.479117	0.513144	1	0	8.882353e+01
92.222984	1.279415	city	8	1	1.038141	1.038141	0	1	0	0	CorrectCommission	0.680816	0.510392	1	0	8.891176e+01
96.108315	6.491244	break	0	0	0.000000	1.049532	0	0	0	0	ThoughtProbe	0.617929	0.512023	1	89	89
100.007034	1.306192	city	7	1	1.065092	1.065092	0	1	0	0	CorrectCommission	0.532029	0.519063	1	0	8.905882e+01
101.306587	1.292908	city	10	1	1.041062	1.041062	0	1	0	0	CorrectCommission	0.664687	0.532373	1	0	8.911765e+01
102.592911	1.279741	city	8	1	1.177562	1.177562	0	1	0	0	CorrectCommission	0.088892	0.552459	1	0	8.917647e+01
103.892502	1.319453	city	10	1	1.121961	1.121961	0	1	0	0	CorrectCommission	0.218066	0.579292	1	0	8.923529e+01
105.205399	1.306326	city	8	1	1.137240	1.137240	0	1	0	0	CorrectCommission	0.133716	0.612117	1	0	8.929412e+01
106.511703	1.306289	mountain	1	0	0.000000	1.141821	1	0	0	0	CorrectOmission	0.108425	0.649441	1	0	8.935294e+01
107.811287	1.292884	city	9	1	1.104572	1.104572	0	1	0	0	CorrectCommission	0.314070	0.689118	1	0	8.941176e+01
109.104103	1.292741	city	4	1	0.994358	0.994358	0	1	0	0	CorrectCommission	0.922531	0.728594	1	0	8.947059e+01
110.403671	1.306400	city	7	1	0.836460	0.836460	0	1	0	0	CorrectCommission	1.794240	0.765197	0	0	8.952941e+01
111.696594	1.279442	city	5	1	0.911776	0.911776	0	1	0	0	CorrectCommission	1.378444	0.796490	0	0	8.958824e+01
112.982758	1.292893	city	9	1	0.974209	0.974209	0	1	0	0	CorrectCommission	1.033765	0.820618	0	0	8.964706e+01
114.268997	1.279585	city	1	1	0.964912	0.964912	0	1	0	0	CorrectCommission	1.085093	0.836503	0	0	8.970588e+01
115.561981	1.306383	city	4	1	1.084980	1.084980	0	1	0	0	CorrectCommission	0.422228	0.843916	0	0	8.976471e+01
116.861549	1.292746	city	8	1	0.930593	0.930593	0	1	0	0	CorrectCommission	1.274561	0.843402	0	0	8.982353e+01
118.167786	1.319739	city	1	1	0.903045	0.903045	0	1	0	0	CorrectCommission	1.426643	0.836104	0	0	8.988235e+01
119.467453	1.279592	city	5	1	1.177643	1.177643	0	1	0	0	CorrectCommission	0.089339	0.823543	0	0	8.994118e+01
120.747025	1.279547	city	8	1	0.998449	0.998449	0	1	0	0	CorrectCommission	0.899945	0.807341	0	0	90
122.033257	1.292922	mountain	7	0	0.000000	1.200035	1	0	0	0	CorrectOmission	0.212960	0.788984	0	0	9.005882e+01
123.326111	1.292787	city	10	1	1.418142	1.418142	0	1	0	0	CorrectCommission	1.417066	0.769708	0	0	9.011765e+01
124.639000	1.332990	city	9	1	1.288507	1.288507	0	1	0	0	CorrectCommission	0.701387	0.750387	1	0	9.017647e+01
126.005302	1.399615	city	6	1	1.167878	1.167878	0	1	0	0	CorrectCommission	0.035427	0.731628	1	0	9.023529e+01
127.364868	1.319515	city	5	1	1.068675	1.068675	0	1	0	0	CorrectCommission	0.512246	0.713838	1	0	9.029412e+01
128.684418	1.319578	city	7	1	0.910566	0.910566	0	1	0	0	CorrectCommission	1.385121	0.697310	1	0	9.035294e+01
129.983978	1.279558	city	1	1	0.972018	0.972018	0	1	0	0	CorrectCommission	1.045860	0.682348	1	0	9.041176e+01
131.263519	1.279516	city	3	1	1.323219	1.323219	0	1	0	0	CorrectCommission	0.893021	0.669351	1	0	9.047059e+01
132.576431	1.346315	city	7	1	1.088807	1.088807	0	1	0	0	CorrectCommission	0.401105	0.658759	1	0	9.052941e+01
133.929398	1.359614	city	6	1	1.017017	1.017017	0	1	0	0	CorrectCommission	0.797438	0.650990	1	0	9.058824e+01
135.262283	1.306155	city	9	1	1.156721	1.156721	0	1	0	0	CorrectCommission	0.026169	0.646290	1	0	9.064706e+01
136.561768	1.292801	city	1	1	1.153323	1.153323	0	1	0	0	CorrectCommission	0.044926	0.644646	1	0	9.070588e+01
137.874588	1.332855	city	9	1	1.201004	1.201004	0	1	0	0	CorrectCommission	0.218305	0.645671	1	0	9.076471e+01
139.180878	1.279722	city	6	1	0.976832	0.976832	0	1	0	0	CorrectCommission	1.019286	0.648620	1	0	9.082353e+01
140.480453	1.319431	city	8	1	0.937517	0.937517	0	1	0	0	CorrectCommission	1.236332	0.652488	1	0	9.088235e+01
141.793365	1.306394	city	4	1	1.132676	1.132676	0	1	0	0	CorrectCommission	0.158913	0.656200	1	0	9.094118e+01
145.432175	5.971208	break	0	0	0.000000	0.988162	0	0	0	0	ThoughtProbe	0.956738	0.658808	1	91	91
149.090897	1.346253	city	8	1	0.876128	0.876128	0	1	0	0	CorrectCommission	1.575248	0.659610	1	0	9.107500e+01
150.403793	1.279526	mountain	6	0	0.000000	1.168728	1	0	0	0	CorrectOmission	0.040119	0.658351	1	0	9.115000e+01
151.690079	1.293043	city	1	1	1.418160	1.418160	0	1	0	0	CorrectCommission	1.417165	0.655250	1	0	9.122500e+01
152.989655	1.306104	city	9	1	1.176621	1.176621	0	1	0	0	CorrectCommission	0.083694	0.651007	1	0	9.130000e+01
154.295929	1.306448	city	8	1	1.115087	1.115087	0	1	0	0	CorrectCommission	0.256019	0.646662	1	0	9.137500e+01
155.595551	1.292792	city	2	1	1.257033	1.257033	0	1	0	0	CorrectCommission	0.527626	0.643493	1	0	9.145000e+01
156.881683	1.279483	city	3	1	1.342981	1.342981	0	1	0	0	CorrectCommission	1.002122	0.642866	1	0	9.152500e+01
158.194489	1.346141	city	10	1	1.272973	1.272973	0	1	0	0	CorrectCommission	0.615628	0.646124	1	0	9.160000e+01
159.514053	1.292987	city	1	1	1.300260	1.300260	0	1	0	0	CorrectCommission	0.766272	0.654467	1	0	9.167500e+01
160.807022	1.292935	city	6	1	1.221612	1.221612	0	1	0	0	CorrectCommission	0.332077	0.668829	1	0	9.175000e+01
162.093323	1.279677	city	2	1	1.125141	1.125141	0	1	0	0	CorrectCommission	0.200510	0.689797	1	0	9.182500e+01
163.386322	1.306315	city	6	1	1.250143	1.250143	0	1	0	0	CorrectCommission	0.489588	0.717581	1	0	9.190000e+01
164.685867	1.292764	city	9	1	1.341111	1.341111	0	1	0	0	CorrectCommission	0.991797	0.751945	0	0	9.197500e+01
166.012100	1.359715	city	7	1	1.300336	1.300336	0	1	0	0	CorrectCommission	0.766693	0.792215	0	0	9.205000e+01
167.331711	1.279524	mountain	9	0	0.000000	1.284509	1	0	0	0	CorrectOmission	0.679318	0.837303	0	0	9.212500e+01
168.611282	1.279605	city	7	1	1.292105	1.292105	0	1	0	0	CorrectCommission	0.721252	0.885709	0	0	9.220000e+01
169.890793	1.279409	city	5	1	1.321598	1.321598	0	1	0	0	CorrectCommission	0.884073	0.935565	0	0	9.227500e+01
171.177017	1.293052	mountain	5	0	0.000000	1.394556	1	0	0	0	CorrectOmission	1.286855	0.984751	0	0	9.235000e+01
172.470001	1.292911	city	10	1	1.381082	1.381082	0	1	0	0	CorrectCommission	1.212470	1.031009	0	0	9.242500e+01
173.782913	1.332897	city	9	1	1.151279	1.151279	0	1	0	0	CorrectCommission	0.056213	1.072124	0	0	9.250000e+01
175.089142	1.279573	city	5	1	0.826420	0.826420	0	1	0	0	CorrectCommission	1.849670	1.106172	0	0	9.257500e+01
176.375397	1.292935	city	6	1	1.072899	1.072899	0	1	0	0	CorrectCommission	0.488928	1.131597	0	0	9.265000e+01
177.674973	1.306206	city	5	1	1.898245	1.898245	0	1	0	0	CorrectCommission	4.067585	1.147488	0	0	9.272500e+01
178.987869	1.319592	city	9	1	1.068075	1.068075	0	1	0	0	CorrectCommission	0.515560	1.153541	0	0	9.280000e+01
180.307434	1.319553	city	7	1	1.113240	1.113240	0	1	0	0	CorrectCommission	0.266214	1.150233	0	0	9.287500e+01
181.633591	1.332742	city	4	1	0.956228	0.956228	0	1	0	0	CorrectCommission	1.133033	1.138571	0	0	9.295000e+01
182.939743	1.279578	city	8	1	0.772127	0.772127	0	1	0	0	CorrectCommission	2.149409	1.119913	0	0	9.302500e+01
184.219330	1.279604	city	10	1	1.398357	1.398357	0	1	0	0	CorrectCommission	1.307842	1.095711	0	0	9.310000e+01
185.512329	1.306380	city	2	1	1.383709	1.383709	0	1	0	0	CorrectCommission	1.226972	1.067305	0	0	9.317500e+01
186.825287	1.319547	city	8	1	1.164957	1.164957	0	1	0	0	CorrectCommission	0.019303	1.035663	0	0	9.325000e+01
188.144852	1.319566	city	4	1	1.058761	1.058761	0	1	0	0	CorrectCommission	0.566980	1.001312	0	0	9.332500e+01
189.444351	1.279436	city	7	1	1.176837	1.176837	0	1	0	0	CorrectCommission	0.084885	0.964326	0	0	9.340000e+01
190.737259	1.306403	city	4	1	1.325296	1.325296	0	1	0	0	CorrectCommission	0.904491	0.924551	0	0	9.347500e+01
192.043503	1.306085	city	2	1	1.591988	1.591988	0	1	0	0	CorrectCommission	2.376822	0.881818	0	0	9.355000e+01
193.356415	1.319716	city	9	1	1.556883	1.556883	0	1	0	0	CorrectCommission	2.183020	0.836250	0	0	9.362500e+01
194.675964	1.319381	city	3	1	1.277834	1.277834	0	1	0	0	CorrectCommission	0.642466	0.788556	0	0	9.370000e+01
195.982132	1.292980	city	8	1	1.261918	1.261918	0	1	0	0	CorrectCommission	0.554597	0.740150	1	0	9.377500e+01
197.275146	1.293027	city	3	1	1.242948	1.242948	0	1	0	0	CorrectCommission	0.449868	0.693058	1	0	9.385000e+01
198.567963	1.292621	city	1	1	1.179882	1.179882	0	1	0	0	CorrectCommission	0.101700	0.649765	1	0	9.392500e+01
202.453293	6.478043	break	0	0	0.000000	1.096245	0	0	0	0	ThoughtProbe	0.360041	0.612907	1	94	94
206.365494	1.346338	city	6	1	1.076843	1.076843	0	1	0	0	CorrectCommission	0.467150	0.584890	1	0	94
207.685104	1.292880	city	4	1	1.206488	1.206488	0	1	0	0	CorrectCommission	0.248581	0.567613	1	0	94
208.984589	1.306097	city	6	1	1.205148	1.205148	0	1	0	0	CorrectCommission	0.241183	0.562125	1	0	94
210.284164	1.293043	city	4	1	1.146368	1.146368	0	1	0	0	CorrectCommission	0.083326	0.568581	1	0	94
211.570389	1.279433	city	9	1	1.047808	1.047808	0	1	0	0	CorrectCommission	0.627447	0.586134	1	0	94
212.863235	1.306240	city	6	1	0.991525	0.991525	0	1	0	0	CorrectCommission	0.938170	0.613145	1	0	94
214.162750	1.292788	city	4	1	1.159039	1.159039	0	1	0	0	CorrectCommission	0.013368	0.647334	1	0	94
215.455719	1.293155	mountain	6	0	0.000000	1.239611	1	0	0	0	CorrectOmission	0.431446	0.686092	1	0	94
216.742020	1.279447	city	10	1	1.284557	1.284557	0	1	0	0	CorrectCommission	0.679583	0.726707	1	0	94
218.034927	1.306377	city	6	1	1.345196	1.345196	0	1	0	0	CorrectCommission	1.014352	0.766775	0	0	94
219.341248	1.306263	mountain	7	0	0.000000	1.413788	1	0	0	0	CorrectOmission	1.393027	0.804379	0	0	94
220.634171	1.279567	city	3	1	1.443413	1.443413	0	1	0	0	CorrectCommission	1.556579	0.838276	0	0	94
221.940384	1.332883	mountain	2	0	0.000000	1.387151	1	0	0	0	CorrectOmission	1.245975	0.867900	0	0	94
223.253296	1.292916	city	10	1	1.307951	1.307951	0	1	0	0	CorrectCommission	0.808731	0.893315	0	0	94
224.559540	1.319586	city	6	1	1.268759	1.268759	0	1	0	0	CorrectCommission	0.592364	0.915000	0	0	94
225.865784	1.292891	city	3	1	1.223339	1.223339	0	1	0	0	CorrectCommission	0.341611	0.933618	0	0	94
227.165344	1.306237	city	9	1	1.092224	1.092224	0	1	0	0	CorrectCommission	0.382239	0.949804	0	0	94
228.498154	1.359384	city	3	1	1.014605	1.014605	0	1	0	0	CorrectCommission	0.810754	0.964025	0	0	94
229.844360	1.333021	city	6	1	0.889506	0.889506	0	1	0	0	CorrectCommission	1.501387	0.976461	0	0	94
231.150681	1.279618	city	7	1	0.861636	0.861636	0	1	0	0	CorrectCommission	1.655251	0.986990	0	0	94
232.436935	1.292908	city	10	1	0.804772	0.804772	0	1	0	0	CorrectCommission	1.969183	0.995250	0	0	94
233.729874	1.292960	city	1	1	1.236232	1.236232	0	1	0	0	CorrectCommission	0.412793	1.000656	0	0	94
235.036026	1.319362	city	8	1	1.204687	1.204687	0	1	0	0	CorrectCommission	0.238642	1.002509	0	0	94
236.348923	1.306415	city	5	1	1.013136	1.013136	0	1	0	0	CorrectCommission	0.818859	1.000024	0	0	94
237.648575	1.292902	city	9	1	0.929558	0.929558	0	1	0	0	CorrectCommission	1.280273	0.992354	0	0	94
238.961395	1.332739	city	3	1	0.967771	0.967771	0	1	0	0	CorrectCommission	1.069309	0.978754	0	0	94
240.287628	1.319718	city	9	1	0.906090	0.906090	0	1	0	0	CorrectCommission	1.409835	0.958687	0	0	94
241.587234	1.279482	mountain	2	0	0.000000	1.239527	1	0	0	0	CorrectOmission	0.430982	0.931933	0	0	94
242.873398	1.292843	city	5	1	1.539384	1.539384	0	1	0	0	CorrectCommission	2.086412	0.898783	0	0	94
244.206253	1.372891	city	2	1	1.376963	1.376963	0	1	0	0	CorrectCommission	1.189727	0.860007	0	0	94
245.539185	1.292973	city	1	1	1.307516	1.307516	0	1	0	0	CorrectCommission	0.806333	0.816955	0	0	94
246.845413	1.319473	city	6	1	1.216364	1.216364	0	1	0	0	CorrectCommission	0.303105	0.771417	0	0	94
248.165024	1.319754	city	5	1	1.271976	1.271976	0	1	0	0	CorrectCommission	0.610126	0.725491	1	0	94
249.471359	1.292905	city	8	1	1.061550	1.061550	0	1	0	0	CorrectCommission	0.551581	0.681356	1	0	94
250.777588	1.319548	city	6	1	1.013391	1.013391	0	1	0	0	CorrectCommission	0.817457	0.641100	1	0	94
252.077057	1.279413	city	7	1	1.123174	1.123174	0	1	0	0	CorrectCommission	0.211371	0.606508	1	0	94
253.389969	1.346388	city	10	1	1.063505	1.063505	0	1	0	0	CorrectCommission	0.540787	0.578973	1	0	94
254.736191	1.346065	city	3	1	1.115602	1.115602	0	1	0	0	CorrectCommission	0.253175	0.559374	1	0	94
256.069000	1.319576	city	6	1	1.117454	1.117454	0	1	0	0	CorrectCommission	0.242950	0.548085	1	0	94
257.375336	1.293082	city	10	1	1.097863	1.097863	0	1	0	0	CorrectCommission	0.351108	0.545056	1	0	94
258.694977	1.346224	city	9	1	1.211147	1.211147	0	1	0	0	CorrectCommission	0.274301	0.549904	1	0	94
260.021210	1.306232	city	5	1	1.096266	1.096266	0	1	0	0	CorrectCommission	0.359921	0.562098	1	0	94
261.320770	1.292887	city	7	1	1.517371	1.517371	0	1	0	0	CorrectCommission	1.964885	0.581052	1	0	94
262.633667	1.332895	city	8	1	1.186473	1.186473	0	1	0	0	CorrectCommission	0.138087	0.606214	1	0	94
263.966492	1.332739	city	1	1	1.074941	1.074941	0	1	0	0	CorrectCommission	0.477651	0.637164	1	0	94
267.758514	6.251312	break	0	0	0.000000	1.080528	0	0	0	0	ThoughtProbe	0.446807	0.673465	1	94	94
271.537170	1.306014	city	8	1	1.162041	1.162041	0	1	0	0	CorrectCommission	0.003201	0.714610	1	0	9.402500e+01
272.830109	1.279842	mountain	4	0	0.000000	1.278286	1	0	0	0	CorrectOmission	0.644957	0.759912	0	0	9.405000e+01
274.116516	1.292991	city	6	1	1.353703	1.353703	0	1	0	0	CorrectCommission	1.061319	0.808364	0	0	9.407500e+01
275.436127	1.346216	city	1	1	1.312735	1.312735	0	1	0	0	CorrectCommission	0.835143	0.858639	0	0	9.410000e+01
276.749023	1.279605	city	7	1	1.356359	1.356359	0	1	0	0	CorrectCommission	1.075980	0.908998	0	0	9.412500e+01
278.041870	1.306058	city	5	1	1.422280	1.422280	0	1	0	0	CorrectCommission	1.439911	0.957383	0	0	9.415000e+01
279.368103	1.346408	city	10	1	1.013713	1.013713	0	1	0	0	CorrectCommission	0.815678	1.001549	0	0	9.417500e+01
280.694336	1.306073	city	5	1	1.037106	1.037106	0	1	0	0	CorrectCommission	0.686530	1.039234	0	0	9.420000e+01
282.000488	1.306239	city	10	1	1.092211	1.092211	0	1	0	0	CorrectCommission	0.382312	1.068354	0	0	9.422500e+01
283.293396	1.279563	mountain	5	0	0.000000	1.469449	1	0	0	0	CorrectOmission	1.700317	1.087283	0	0	9.425000e+01
284.586395	1.306415	city	5	1	1.606822	1.606822	0	1	0	0	CorrectCommission	2.458721	1.095042	0	0	9.427500e+01
285.906006	1.332796	city	8	1	0.942335	0.942335	0	1	0	0	CorrectCommission	1.209737	1.091574	0	0	9.430000e+01
287.225555	1.306308	city	5	1	1.470919	1.470919	0	1	0	0	CorrectCommission	1.708436	1.077813	0	0	9.432500e+01
288.538483	1.319568	city	9	1	0.990616	0.990616	0	1	0	0	CorrectCommission	0.943187	1.055619	0	0	9.435000e+01
289.851379	1.306234	city	4	1	0.911068	0.911068	0	1	0	0	CorrectCommission	1.382352	1.027626	0	0	9.437500e+01
291.157623	1.306256	city	5	1	0.981208	0.981208	0	1	0	0	CorrectCommission	0.995130	0.996880	0	0	9.440000e+01
292.483856	1.346203	city	7	1	1.105915	1.105915	0	1	0	0	CorrectCommission	0.306653	0.966489	0	0	9.442500e+01
293.816742	1.319562	mountain	10	0	0.000000	1.109127	1	0	0	0	CorrectOmission	0.288919	0.939249	0	0	9.445000e+01
295.122986	1.292931	city	2	1	1.054962	1.054962	0	1	0	0	CorrectCommission	0.587953	0.917239	0	0	9.447500e+01
296.435822	1.332727	city	9	1	1.007536	1.007536	0	1	0	0	CorrectCommission	0.849779	0.901667	0	0	9.450000e+01
297.782043	1.359701	city	3	1	1.072423	1.072423	0	1	0	0	CorrectCommission	0.491555	0.892784	0	0	9.452500e+01
299.121674	1.319613	city	7	1	1.008107	1.008107	0	1	0	0	CorrectCommission	0.846624	0.889971	0	0	9.455000e+01
300.454590	1.346175	city	1	1	0.801797	0.801797	0	1	0	0	CorrectCommission	1.985606	0.891897	0	0	9.457500e+01
301.767395	1.279425	city	5	1	1.071973	1.071973	0	1	0	0	CorrectCommission	0.494040	0.896749	0	0	9.460000e+01
303.093628	1.373040	city	4	1	1.156052	1.156052	0	1	0	0	CorrectCommission	0.029860	0.902568	0	0	9.462500e+01
304.433258	1.306237	city	9	1	0.874560	0.874560	0	1	0	0	CorrectCommission	1.583903	0.907449	0	0	9.465000e+01
305.732819	1.292907	city	4	1	0.944792	0.944792	0	1	0	0	CorrectCommission	1.196169	0.909705	0	0	9.467500e+01
307.039001	1.319429	city	3	1	0.955117	0.955117	0	1	0	0	CorrectCommission	1.139170	0.908110	0	0	9.470000e+01
308.345215	1.293021	city	2	1	0.974511	0.974511	0	1	0	0	CorrectCommission	1.032099	0.901913	0	0	9.472500e+01
309.658203	1.332922	city	7	1	1.088239	1.088239	0	1	0	0	CorrectCommission	0.404240	0.890910	0	0	9.475000e+01
310.984375	1.319430	city	9	1	0.892036	0.892036	0	1	0	0	CorrectCommission	1.487421	0.875456	0	0	9.477500e+01
312.290558	1.292949	city	8	1	1.053777	1.053777	0	1	0	0	CorrectCommission	0.594495	0.856349	0	0	9.480000e+01
313.610138	1.346214	city	4	1	0.952949	0.952949	0	1	0	0	CorrectCommission	1.151139	0.834887	0	0	9.482500e+01
314.956421	1.346345	city	3	1	0.994264	0.994264	0	1	0	0	CorrectCommission	0.923048	0.812773	0	0	9.485000e+01
316.282715	1.306235	city	1	1	1.066472	1.066472	0	1	0	0	CorrectCommission	0.524411	0.792010	0	0	9.487500e+01
317.622253	1.372862	city	4	1	1.186831	1.186831	0	1	0	0	CorrectCommission	0.140064	0.774814	0	0	9.490000e+01
318.955078	1.292777	city	9	1	0.918857	0.918857	0	1	0	0	CorrectCommission	1.339349	0.763491	0	0	9.492500e+01
320.261322	1.319699	city	1	1	0.947692	0.947692	0	1	0	0	CorrectCommission	1.180161	0.760215	0	0	9.495000e+01
321.574280	1.306239	city	7	1	1.137184	1.137184	0	1	0	0	CorrectCommission	0.134028	0.766877	0	0	9.497500e+01
322.227417	8.876930	break	0	0	0.000000	1.097207	0	0	0	0	ThoughtProbe	0.354727	0.784846	0	95	95
331.764191	1.319734	city	5	1	1.052746	1.052746	0	1	0	0	CorrectCommission	0.600185	0.814746	0	0	9.493478e+01
333.090424	1.332724	city	6	1	1.228784	1.228784	0	1	0	0	CorrectCommission	0.371670	0.856317	0	0	9.486957e+01
334.410004	1.306439	city	4	1	1.243046	1.243046	0	1	0	0	CorrectCommission	0.450408	0.908378	0	0	9.480435e+01
335.722900	1.319353	city	7	1	1.232908	1.232908	0	1	0	0	CorrectCommission	0.394443	0.968834	0	0	9.473913e+01
337.035767	1.306391	city	8	1	0.987531	0.987531	0	1	0	0	CorrectCommission	0.960222	1.034815	0	0	9.467391e+01
338.355438	1.332921	city	5	1	0.940914	0.940914	0	1	0	0	CorrectCommission	1.217577	1.102946	0	0	9.460870e+01
339.694916	1.346053	city	3	1	1.600017	1.600017	0	1	0	0	CorrectCommission	2.421152	1.169658	0	0	9.454348e+01
341.041138	1.346389	city	4	1	1.379847	1.379847	0	1	0	0	CorrectCommission	1.205653	1.231433	0	0	9.447826e+01
342.367371	1.306082	mountain	7	0	0.000000	1.477355	1	0	0	0	CorrectOmission	1.743968	1.285139	0	0	9.441304e+01
343.673615	1.306403	city	4	1	1.497557	1.497557	0	1	0	0	CorrectCommission	1.855495	1.328121	0	0	9.434783e+01
345.026489	1.399349	city	3	1	1.045467	1.045467	0	1	0	0	CorrectCommission	0.640370	1.358358	0	0	9.428261e+01
346.406036	1.359759	city	8	1	0.962253	0.962253	0	1	0	0	CorrectCommission	1.099774	1.374515	0	0	9.421739e+01
347.738953	1.306042	city	1	1	0.732593	0.732593	0	1	0	0	CorrectCommission	2.367664	1.375889	0	0	9.415217e+01
349.045135	1.306320	mountain	4	0	0.000000	0.924073	1	0	0	0	CorrectOmission	1.310553	1.362462	0	0	9.408696e+01
350.378113	1.359634	mountain	8	0	0.000000	1.299417	1	0	0	0	CorrectOmission	0.761620	1.334938	0	0	9.402174e+01
351.710968	1.306083	city	7	1	1.621348	1.621348	0	1	0	0	CorrectCommission	2.538915	1.294674	0	0	9.395652e+01
353.037170	1.346299	city	5	1	1.652590	1.652590	0	1	0	0	CorrectCommission	2.711392	1.243625	0	0	9.389130e+01
354.376801	1.332983	city	4	1	1.417133	1.417133	0	1	0	0	CorrectCommission	1.411495	1.184278	0	0	9.382609e+01
355.729645	1.372697	city	5	1	1.145262	1.145262	0	1	0	0	CorrectCommission	0.089431	1.119441	0	0	9.376087e+01
357.069031	1.306080	city	9	1	1.193600	1.193600	0	1	0	0	CorrectCommission	0.177430	1.052033	0	0	9.369565e+01
358.388702	1.333265	city	3	1	1.058091	1.058091	0	1	0	0	CorrectCommission	0.570679	0.984837	0	0	9.363043e+01
359.708435	1.306210	city	8	1	0.920924	0.920924	0	1	0	0	CorrectCommission	1.327939	0.920288	0	0	9.356522e+01
361.027985	1.332898	city	6	1	0.942902	0.942902	0	1	0	0	CorrectCommission	1.206607	0.860336	0	0	9.350000e+01
362.354126	1.319385	city	5	1	1.031073	1.031073	0	1	0	0	CorrectCommission	0.719838	0.806407	0	0	9.343478e+01
363.680267	1.332885	city	6	1	1.166100	1.166100	0	1	0	0	CorrectCommission	0.025612	0.759380	0	0	9.336957e+01
365.013153	1.332909	city	7	1	1.088757	1.088757	0	1	0	0	CorrectCommission	0.401379	0.719630	1	0	9.330435e+01
366.319489	1.279746	city	1	1	0.935215	0.935215	0	1	0	0	CorrectCommission	1.249040	0.687066	1	0	9.323913e+01
367.645813	1.372917	city	2	1	1.019546	1.019546	0	1	0	0	CorrectCommission	0.783473	0.661225	1	0	9.317391e+01
369.005310	1.346053	city	8	1	1.085690	1.085690	0	1	0	0	CorrectCommission	0.418308	0.641344	1	0	9.310870e+01
370.324860	1.293054	city	2	1	1.031597	1.031597	0	1	0	0	CorrectCommission	0.716941	0.626394	1	0	9.304348e+01
371.637756	1.332714	city	1	1	1.165080	1.165080	0	1	0	0	CorrectCommission	0.019980	0.615108	1	0	9.297826e+01
372.970612	1.332993	city	2	1	1.202761	1.202761	0	1	0	0	CorrectCommission	0.228005	0.606094	1	0	9.291304e+01
374.310272	1.346339	city	9	1	1.054177	1.054177	0	1	0	0	CorrectCommission	0.592285	0.597933	1	0	9.284783e+01
375.649780	1.332714	city	2	1	1.008198	1.008198	0	1	0	0	CorrectCommission	0.846126	0.589295	1	0	9.278261e+01
376.969238	1.306208	mountain	4	0	0.000000	1.229321	1	0	0	0	CorrectOmission	0.374638	0.579099	1	0	9.271739e+01
378.282135	1.319556	city	10	1	1.450631	1.450631	0	1	0	0	CorrectCommission	1.596431	0.566712	1	0	9.265217e+01
379.608429	1.333064	city	5	1	1.405210	1.405210	0	1	0	0	CorrectCommission	1.345675	0.552007	1	0	9.258696e+01
380.948090	1.346226	city	7	1	1.171399	1.171399	0	1	0	0	CorrectCommission	0.054867	0.535418	1	0	9.252174e+01
382.281006	1.319591	city	3	1	1.118947	1.118947	0	1	0	0	CorrectCommission	0.234709	0.517878	1	0	9.245652e+01
383.587189	1.292818	city	4	1	1.236195	1.236195	0	1	0	0	CorrectCommission	0.412585	0.500654	1	0	9.239130e+01
384.926758	1.386298	city	9	1	1.154148	1.154148	0	1	0	0	CorrectCommission	0.040373	0.485143	1	0	9.232609e+01
386.292999	1.346194	city	5	1	1.110747	1.110747	0	1	0	0	CorrectCommission	0.279977	0.472665	1	0	9.226087e+01
387.619141	1.306074	city	9	1	1.063271	1.063271	0	1	0	0	CorrectCommission	0.542082	0.464222	1	0	9.219565e+01
388.938690	1.333050	city	5	1	1.007018	1.007018	0	1	0	0	CorrectCommission	0.852636	0.460366	1	0	9.213043e+01
390.251678	1.292926	city	9	1	1.191046	1.191046	0	1	0	0	CorrectCommission	0.163333	0.461116	1	0	9.206522e+01
394.057037	6.317754	break	0	0	0.000000	1.151050	0	0	0	0	ThoughtProbe	0.057474	0.465997	1	92	92
397.895691	1.359563	city	5	1	1.126614	1.126614	0	1	0	0	CorrectCommission	0.192380	0.474040	1	0	9.195000e+01
399.228577	1.306217	city	7	1	1.357321	1.357321	0	1	0	0	CorrectCommission	1.081291	0.483934	1	0	9.190000e+01
400.568176	1.372984	city	6	1	1.177806	1.177806	0	1	0	0	CorrectCommission	0.090236	0.494209	1	0	9.185000e+01
401.921173	1.332977	city	7	1	1.170393	1.170393	0	1	0	0	CorrectCommission	0.049311	0.503483	1	0	9.180000e+01
403.234100	1.292911	mountain	10	0	0.000000	1.323936	1	0	0	0	CorrectOmission	0.896984	0.510645	1	0	9.175000e+01
404.533661	1.306211	city	3	1	1.437626	1.437626	0	1	0	0	CorrectCommission	1.524632	0.514997	1	0	9.170000e+01
405.859863	1.346201	city	5	1	1.310650	1.310650	0	1	0	0	CorrectCommission	0.823631	0.516418	1	0	9.165000e+01
407.199432	1.332940	city	1	1	1.244847	1.244847	0	1	0	0	CorrectCommission	0.460355	0.515379	1	0	9.160000e+01
408.518951	1.306069	city	8	1	1.115575	1.115575	0	1	0	0	CorrectCommission	0.253321	0.512809	1	0	9.155000e+01
409.818420	1.292901	mountain	7	0	0.000000	1.185255	1	0	0	0	CorrectOmission	0.131358	0.509969	1	0	9.150000e+01
411.138092	1.346395	city	3	1	1.257474	1.257474	0	1	0	0	CorrectCommission	0.530064	0.508213	1	0	9.145000e+01
412.477631	1.332713	city	6	1	1.135824	1.135824	0	1	0	0	CorrectCommission	0.141536	0.508773	1	0	9.140000e+01
413.817200	1.346415	city	10	1	1.009665	1.009665	0	1	0	0	CorrectCommission	0.838026	0.512591	1	0	9.135000e+01
415.136780	1.292738	city	7	1	1.132870	1.132870	0	1	0	0	CorrectCommission	0.157843	0.520220	1	0	9.130000e+01
416.436340	1.306396	city	8	1	1.061864	1.061864	0	1	0	0	CorrectCommission	0.549845	0.531768	1	0	9.125000e+01
417.769318	1.359536	city	9	1	1.118392	1.118392	0	1	0	0	CorrectCommission	0.237771	0.546886	1	0	9.120000e+01
419.128845	1.359541	city	10	1	1.054749	1.054749	0	1	0	0	CorrectCommission	0.589127	0.564927	1	0	9.115000e+01
420.488373	1.359492	mountain	10	1	1.249137	1.249137	0	0	1	0	CommissionError	0.484034	0.585050	1	0	9.110000e+01
421.814514	1.292819	city	9	1	1.429989	1.429989	0	1	0	0	CorrectCommission	1.482471	0.606382	1	0	9.105000e+01
423.134033	1.346221	city	10	1	1.193746	1.193746	0	1	0	0	CorrectCommission	0.178239	0.628122	1	0	91
424.453613	1.292935	city	3	1	1.157874	1.157874	0	1	0	0	CorrectCommission	0.019802	0.649743	1	0	9.095000e+01
425.746521	1.292883	city	4	1	1.435599	1.435599	0	1	0	0	CorrectCommission	1.513443	0.670977	1	0	9.090000e+01
427.072815	1.359724	city	6	1	1.288485	1.288485	0	1	0	0	CorrectCommission	0.701267	0.691802	1	0	9.085000e+01
428.392426	1.279442	city	7	1	1.351494	1.351494	0	1	0	0	CorrectCommission	1.049119	0.712424	1	0	9.080000e+01
429.731873	1.399512	city	8	1	1.177560	1.177560	0	1	0	0	CorrectCommission	0.088879	0.733127	1	0	9.075000e+01
431.098175	1.333077	city	7	1	1.062721	1.062721	0	1	0	0	CorrectCommission	0.545115	0.754152	0	0	9.070000e+01
432.431183	1.332934	city	2	1	0.947911	0.947911	0	1	0	0	CorrectCommission	1.178950	0.775477	0	0	9.065000e+01
433.757416	1.319496	city	6	1	1.243852	1.243852	0	1	0	0	CorrectCommission	0.454861	0.796695	0	0	9.060000e+01
435.076935	1.319571	city	4	1	1.431177	1.431177	0	1	0	0	CorrectCommission	1.489027	0.816984	0	0	9.055000e+01
436.423187	1.372908	city	10	1	1.175731	1.175731	0	1	0	0	CorrectCommission	0.078780	0.835033	0	0	9.050000e+01
437.769318	1.319376	city	7	1	1.276963	1.276963	0	1	0	0	CorrectCommission	0.637657	0.849201	0	0	9.045000e+01
439.108795	1.359556	city	10	1	1.207922	1.207922	0	1	0	0	CorrectCommission	0.256497	0.857633	0	0	9.040000e+01
440.428375	1.279626	city	3	1	1.544298	1.544298	0	1	0	0	CorrectCommission	2.113539	0.858576	0	0	9.035000e+01
441.734619	1.332879	city	7	1	1.445355	1.445355	0	1	0	0	CorrectCommission	1.567302	0.850621	0	0	9.030000e+01
443.074249	1.346351	city	9	1	1.057824	1.057824	0	1	0	0	CorrectCommission	0.572150	0.833069	0	0	9.025000e+01
444.440491	1.386167	city	2	1	1.332909	1.332909	0	1	0	0	CorrectCommission	0.946517	0.806157	0	0	9.020000e+01
445.780060	1.292953	city	6	1	1.465678	1.465678	0	1	0	0	CorrectCommission	1.679500	0.771108	0	0	9.015000e+01
447.086334	1.319590	city	7	1	1.374389	1.374389	0	1	0	0	CorrectCommission	1.175521	0.730115	1	0	9.010000e+01
448.425903	1.359558	city	6	1	1.204054	1.204054	0	1	0	0	CorrectCommission	0.235144	0.686171	1	0	9.005000e+01
449.105682	13.768619	break	0	0	0.000000	1.212184	0	0	0	0	ThoughtProbe	0.280028	0.642748	1	90	90
463.540833	1.333029	city	7	1	1.229491	1.229491	0	1	0	0	CorrectCommission	0.375576	0.603363	1	0	8.986957e+01
464.880463	1.346254	city	3	1	1.086687	1.086687	0	1	0	0	CorrectCommission	0.412808	0.571201	1	0	8.973913e+01
466.220032	1.332883	city	2	1	1.158006	1.158006	0	1	0	0	CorrectCommission	0.019074	0.548743	1	0	8.960870e+01
467.566254	1.359553	city	7	1	1.200159	1.200159	0	1	0	0	CorrectCommission	0.213643	0.537458	1	0	8.947826e+01
468.885834	1.279603	city	4	1	1.127833	1.127833	0	1	0	0	CorrectCommission	0.185652	0.537720	1	0	8.934783e+01
470.198730	1.346195	city	8	1	1.082067	1.082067	0	1	0	0	CorrectCommission	0.438310	0.548768	1	0	8.921739e+01
471.538269	1.332904	city	10	1	1.144204	1.144204	0	1	0	0	CorrectCommission	0.095272	0.568913	1	0	8.908696e+01
472.857849	1.306235	city	9	1	1.050209	1.050209	0	1	0	0	CorrectCommission	0.614189	0.595767	1	0	8.895652e+01
474.197388	1.372881	city	5	1	0.986249	0.986249	0	1	0	0	CorrectCommission	0.967296	0.626547	1	0	8.882609e+01
475.543640	1.319579	city	4	1	1.019238	1.019238	0	1	0	0	CorrectCommission	0.785173	0.658462	1	0	8.869565e+01
476.889862	1.372872	city	7	1	0.990256	0.990256	0	1	0	0	CorrectCommission	0.945177	0.688990	1	0	8.856522e+01
478.229340	1.306072	city	8	1	0.927242	0.927242	0	1	0	0	CorrectCommission	1.293057	0.716111	1	0	8.843478e+01
479.542175	1.319630	mountain	4	0	0.000000	1.029234	1	0	0	0	CorrectOmission	0.729987	0.738385	1	0	8.830435e+01
480.848450	1.292934	mountain	2	0	0.000000	1.202233	1	0	0	0	CorrectOmission	0.225091	0.755046	0	0	8.817391e+01
482.134705	1.279553	city	9	1	1.352239	1.352239	0	1	0	0	CorrectCommission	1.053233	0.765840	0	0	8.804348e+01
483.460907	1.372828	mountain	7	0	0.000000	1.385253	1	0	0	0	CorrectOmission	1.235494	0.770909	0	0	8.791304e+01
484.787140	1.279658	city	5	1	1.331645	1.331645	0	1	0	0	CorrectCommission	0.939539	0.770679	0	0	8.778261e+01
486.113434	1.372921	city	6	1	1.221784	1.221784	0	1	0	0	CorrectCommission	0.333028	0.765706	0	0	8.765217e+01
487.466278	1.332764	city	4	1	1.226493	1.226493	0	1	0	0	CorrectCommission	0.359026	0.756605	0	0	8.752174e+01
488.799164	1.332991	city	9	1	0.968684	0.968684	0	1	0	0	CorrectCommission	1.064267	0.743960	1	0	8.739130e+01
490.152130	1.372976	city	2	1	0.977713	0.977713	0	1	0	0	CorrectCommission	1.014425	0.728374	1	0	8.726087e+01
491.478333	1.279408	city	4	1	1.325819	1.325819	0	1	0	0	CorrectCommission	0.907377	0.710551	1	0	8.713043e+01
492.804565	1.373050	city	2	1	1.128207	1.128207	0	1	0	0	CorrectCommission	0.183586	0.691348	1	0	87
494.157440	1.332707	city	3	1	1.396501	1.396501	0	1	0	0	CorrectCommission	1.297595	0.671920	1	0	8.686957e+01
495.516876	1.386205	city	8	1	1.113209	1.113209	0	1	0	0	CorrectCommission	0.266384	0.653706	1	0	8.673913e+01
496.889862	1.359723	city	10	1	0.925815	0.925815	0	1	0	0	CorrectCommission	1.300940	0.638455	1	0	8.660870e+01
498.222839	1.306259	city	5	1	1.234896	1.234896	0	1	0	0	CorrectCommission	0.405418	0.628093	1	0	8.647826e+01
499.522400	1.292852	city	7	1	1.205088	1.205088	0	1	0	0	CorrectCommission	0.240852	0.624638	1	0	8.634783e+01
500.821869	1.306113	city	9	1	1.166709	1.166709	0	1	0	0	CorrectCommission	0.028976	0.629931	1	0	8.621739e+01
502.128143	1.306392	city	4	1	1.031847	1.031847	0	1	0	0	CorrectCommission	0.715565	0.645424	1	0	8.608696e+01
503.441101	1.319572	mountain	1	0	0.000000	1.105479	1	0	0	0	CorrectOmission	0.309062	0.671937	1	0	8.595652e+01
504.760620	1.319427	city	5	1	1.153298	1.153298	0	1	0	0	CorrectCommission	0.045067	0.709402	1	0	8.582609e+01
506.106842	1.373014	city	2	1	0.940995	0.940995	0	1	0	0	CorrectCommission	1.217131	0.756681	0	0	8.569565e+01
507.446381	1.306091	city	9	1	1.316125	1.316125	0	1	0	0	CorrectCommission	0.853857	0.811383	0	0	8.556522e+01
508.772614	1.346370	city	6	1	1.265313	1.265313	0	1	0	0	CorrectCommission	0.573341	0.869900	0	0	8.543478e+01
510.105499	1.319403	city	4	1	1.156625	1.156625	0	1	0	0	CorrectCommission	0.026696	0.927540	0	0	8.530435e+01
511.451660	1.372888	city	8	1	1.064532	1.064532	0	1	0	0	CorrectCommission	0.535118	0.978747	0	0	8.517391e+01
512.791321	1.306399	city	9	1	1.658873	1.658873	0	1	0	0	CorrectCommission	2.746078	1.017500	0	0	8.504348e+01
514.117615	1.346217	city	3	1	1.436347	1.436347	0	1	0	0	CorrectCommission	1.517571	1.037869	0	0	8.491304e+01
515.497131	1.412887	city	1	1	1.327624	1.327624	0	1	0	0	CorrectCommission	0.917344	1.034762	0	0	8.478261e+01
516.876648	1.346065	city	4	1	1.395640	1.395640	0	1	0	0	CorrectCommission	1.292840	1.004565	0	0	8.465217e+01
518.222839	1.346373	city	10	1	1.076033	1.076033	0	1	0	0	CorrectCommission	0.471626	0.945732	0	0	8.452174e+01
519.549133	1.306190	city	3	1	1.685267	1.685267	0	1	0	0	CorrectCommission	2.891790	0.859304	0	0	8.439130e+01
520.862061	1.319611	city	10	1	1.822165	1.822165	0	1	0	0	CorrectCommission	3.647566	0.748998	1	0	8.426087e+01
522.214966	1.386225	city	2	1	1.447989	1.447989	0	1	0	0	CorrectCommission	1.581843	0.621101	1	0	8.413043e+01
522.908081	11.875990	break	0	0	0.000000	1.073813	0	0	0	0	ThoughtProbe	0.483881	0.483881	1	84	84
