onset	duration	trial_type	image_type	Press	ReactionTime	ReactionTime_Interpolated	CorrectOmission	CorrectCommission	CommissionError	OmissionError	response_type	nonsmoothVarianceTimeCourse	VarianceTimeCourse	In_the_Zone	ThoughtProbe	ThoughtProbe_Interpolated
0.653223	1.279500	city	8	1	1.446308	1.446308	0	1	0	0	CorrectCommission	0.127097	0.127097	1	0	62
1.932747	1.279546	city	2	1	1.522880	1.522880	0	1	0	0	CorrectCommission	0.097992	0.270375	1	0	62
3.212234	1.279428	city	4	1	1.658032	1.658032	0	1	0	0	CorrectCommission	0.495278	0.404499	1	0	62
4.498487	1.293079	city	10	1	1.087837	1.087837	0	1	0	0	CorrectCommission	1.180839	0.521344	1	0	62
5.791389	1.292724	mountain	8	0	0.000000	0.700735	1	0	0	0	CorrectOmission	2.318745	0.614715	1	0	62
7.077620	1.279738	city	5	0	0.000000	0.593350	0	0	0	1	OmissionError	2.634406	0.680974	1	0	62
8.363955	1.292932	city	10	1	0.862308	0.862308	0	1	0	0	CorrectCommission	1.843792	0.719322	1	0	62
9.650130	1.279419	city	7	1	1.604233	1.604233	0	1	0	0	CorrectCommission	0.337132	0.731635	1	0	62
10.929616	1.279551	city	5	0	0.000000	1.746209	0	0	0	1	OmissionError	0.754476	0.722041	1	0	62
12.209278	1.279774	city	6	1	1.551862	1.551862	0	1	0	0	CorrectCommission	0.183184	0.696144	1	0	62
13.488985	1.279640	city	2	1	1.284819	1.284819	0	1	0	0	CorrectCommission	0.601800	0.660283	1	0	62
14.768560	1.279510	mountain	6	1	1.441700	1.441700	0	0	1	0	CommissionError	0.140642	0.620658	1	0	62
16.048109	1.279589	city	3	1	1.570077	1.570077	0	1	0	0	CorrectCommission	0.236728	0.582748	1	0	62
17.327702	1.279595	city	6	1	1.341166	1.341166	0	1	0	0	CorrectCommission	0.436167	0.550816	1	0	62
18.607273	1.279548	city	5	1	1.500435	1.500435	0	1	0	0	CorrectCommission	0.032014	0.527745	1	0	62
19.886837	1.279579	city	1	1	1.614617	1.614617	0	1	0	0	CorrectCommission	0.367655	0.515036	1	0	62
21.166407	1.279561	city	10	1	1.728858	1.728858	0	1	0	0	CorrectCommission	0.703472	0.512966	1	0	62
22.445896	1.279420	city	3	1	1.654874	1.654874	0	1	0	0	CorrectCommission	0.485993	0.520840	1	0	62
23.725412	1.279612	city	6	1	1.627079	1.627079	0	1	0	0	CorrectCommission	0.404288	0.537249	1	0	62
25.005032	1.279627	city	10	1	1.571615	1.571615	0	1	0	0	CorrectCommission	0.241248	0.560330	1	0	62
26.291349	1.293008	city	6	1	1.897567	1.897567	0	1	0	0	CorrectCommission	1.199400	0.587982	1	0	62
27.590950	1.306195	city	1	1	1.425969	1.425969	0	1	0	0	CorrectCommission	0.186882	0.617972	1	0	62
28.883785	1.279474	city	6	1	1.663505	1.663505	0	1	0	0	CorrectCommission	0.511365	0.648158	1	0	62
30.163294	1.279543	city	7	1	1.516348	1.516348	0	1	0	0	CorrectCommission	0.078791	0.676551	1	0	62
31.449530	1.292929	city	10	0	0.000000	1.056470	0	0	0	1	OmissionError	1.273044	0.701434	1	0	62
32.735786	1.279583	city	3	1	0.858670	0.858670	0	1	0	0	CorrectCommission	1.854485	0.721453	1	0	62
34.015434	1.279716	city	10	1	1.497751	1.497751	0	1	0	0	CorrectCommission	0.024124	0.735768	1	0	62
35.295013	1.279443	city	8	1	1.822430	1.822430	0	1	0	0	CorrectCommission	0.978532	0.744171	1	0	62
36.574528	1.279580	city	7	0	0.000000	1.317207	0	0	0	1	OmissionError	0.506595	0.746999	1	0	62
37.860756	1.292880	city	10	1	0.825241	0.825241	0	1	0	0	CorrectCommission	1.952752	0.745233	1	0	62
39.147011	1.279630	city	7	0	0.000000	1.189692	0	0	0	1	OmissionError	0.881433	0.740249	1	0	62
40.433334	1.293018	city	1	1	1.671961	1.671961	0	1	0	0	CorrectCommission	0.536223	0.733747	1	0	62
41.726498	1.293303	city	3	1	1.533454	1.533454	0	1	0	0	CorrectCommission	0.129074	0.727433	1	0	62
45.265263	5.784228	break	0	0	0.000000	1.563182	0	0	0	0	ThoughtProbe	0.216460	0.722781	1	62	62
48.797234	1.279717	city	2	1	1.667581	1.667581	0	1	0	0	CorrectCommission	0.523347	0.720846	1	0	6.170588e+01
50.090134	1.306085	mountain	5	0	0.000000	1.753088	1	0	0	0	CorrectOmission	0.774699	0.722090	1	0	6.141176e+01
51.383053	1.279754	city	5	1	1.743123	1.743123	0	1	0	0	CorrectCommission	0.745407	0.726381	1	0	6.111765e+01
52.662666	1.279473	city	1	1	1.561109	1.561109	0	1	0	0	CorrectCommission	0.210366	0.733042	1	0	6.082353e+01
53.942204	1.279596	city	4	0	0.000000	1.052356	0	0	0	1	OmissionError	1.285136	0.740982	1	0	6.052941e+01
55.235085	1.306171	city	3	1	0.834706	0.834706	0	1	0	0	CorrectCommission	1.924929	0.748822	1	0	6.023529e+01
56.534698	1.293054	city	6	1	1.525997	1.525997	0	1	0	0	CorrectCommission	0.107154	0.755118	1	0	5.994118e+01
57.827675	1.292901	city	4	1	1.527690	1.527690	0	1	0	0	CorrectCommission	0.112131	0.758539	1	0	5.964706e+01
59.113892	1.279531	city	9	1	1.871310	1.871310	0	1	0	0	CorrectCommission	1.122218	0.757926	1	0	5.935294e+01
60.400135	1.292954	city	3	1	1.642773	1.642773	0	1	0	0	CorrectCommission	0.450421	0.752431	1	0	5.905882e+01
61.699692	1.306165	city	10	0	0.000000	1.238679	0	0	0	1	OmissionError	0.737432	0.741636	1	0	5.876471e+01
62.999275	1.293001	city	6	0	0.000000	0.911430	0	0	0	1	OmissionError	1.699397	0.725575	1	0	5.847059e+01
64.285553	1.279559	city	8	1	0.913426	0.913426	0	1	0	0	CorrectCommission	1.693528	0.704719	1	0	5.817647e+01
65.565140	1.279601	city	9	1	1.497069	1.497069	0	1	0	0	CorrectCommission	0.022119	0.679982	1	0	5.788235e+01
66.844727	1.279579	city	1	1	1.698855	1.698855	0	1	0	0	CorrectCommission	0.615277	0.652658	1	0	5.758824e+01
68.137634	1.306237	mountain	7	0	0.000000	1.500943	1	0	0	0	CorrectOmission	0.033507	0.624188	1	0	5.729412e+01
69.430519	1.279536	city	3	1	1.392184	1.392184	0	1	0	0	CorrectCommission	0.286197	0.596137	1	0	57
70.730080	1.319587	city	2	1	1.861426	1.861426	0	1	0	0	CorrectCommission	1.093162	0.569982	1	0	5.670588e+01
72.042999	1.306239	city	1	0	0.000000	1.479340	0	0	0	1	OmissionError	0.029997	0.547067	1	0	5.641176e+01
73.355896	1.319563	city	8	1	1.059513	1.059513	0	1	0	0	CorrectCommission	1.264097	0.528574	1	0	5.611765e+01
74.655464	1.279576	city	4	1	1.415532	1.415532	0	1	0	0	CorrectCommission	0.217563	0.515414	1	0	5.582353e+01
75.968285	1.346062	city	5	1	1.455962	1.455962	0	1	0	0	CorrectCommission	0.098719	0.508319	1	0	5.552941e+01
77.301193	1.319750	city	1	1	1.601175	1.601175	0	1	0	0	CorrectCommission	0.328144	0.507771	1	0	5.523529e+01
78.614136	1.306145	city	10	0	0.000000	1.600191	0	0	0	1	OmissionError	0.325250	0.514008	1	0	5.494118e+01
79.907036	1.279655	city	6	1	1.614351	1.614351	0	1	0	0	CorrectCommission	0.366875	0.527011	1	0	5.464706e+01
81.193321	1.292902	city	7	1	1.804999	1.804999	0	1	0	0	CorrectCommission	0.927293	0.546489	1	0	5.435294e+01
82.506218	1.332895	city	5	1	1.379191	1.379191	0	1	0	0	CorrectCommission	0.324389	0.571791	1	0	5.405882e+01
83.832458	1.319593	city	10	1	1.751939	1.751939	0	1	0	0	CorrectCommission	0.771319	0.601923	1	0	5.376471e+01
85.145309	1.306108	city	7	1	1.603624	1.603624	0	1	0	0	CorrectCommission	0.335342	0.635491	1	0	5.347059e+01
86.451553	1.306370	city	5	1	1.594296	1.594296	0	1	0	0	CorrectCommission	0.307921	0.670731	1	0	5.317647e+01
87.744476	1.279482	city	8	1	1.678041	1.678041	0	1	0	0	CorrectCommission	0.554093	0.705537	1	0	5.288235e+01
89.023964	1.279487	city	1	0	0.000000	1.282218	0	0	0	1	OmissionError	0.609448	0.737638	1	0	5.258824e+01
90.310204	1.293001	city	2	1	0.952126	0.952126	0	1	0	0	CorrectCommission	1.579767	0.764814	1	0	5.229412e+01
94.188950	6.464496	break	0	0	0.000000	1.233066	0	0	0	0	ThoughtProbe	0.753932	0.785105	0	52	52
98.067711	1.293024	city	3	1	1.703051	1.703051	0	1	0	0	CorrectCommission	0.627611	0.797152	0	0	5.197500e+01
99.353935	1.279427	mountain	10	0	0.000000	1.940095	1	0	0	0	CorrectOmission	1.324413	0.800428	0	0	5.195000e+01
100.646790	1.306269	mountain	3	0	0.000000	2.003856	1	0	0	0	CorrectOmission	1.511844	0.795397	0	0	5.192500e+01
101.939774	1.279712	city	1	1	1.953995	1.953995	0	1	0	0	CorrectCommission	1.365275	0.783538	0	0	5.190000e+01
103.226013	1.292763	city	6	1	1.850170	1.850170	0	1	0	0	CorrectCommission	1.060075	0.767244	0	0	5.187500e+01
104.518898	1.292999	city	2	0	0.000000	1.542419	0	0	0	1	OmissionError	0.155427	0.749553	1	0	5.185000e+01
105.811806	1.292828	city	1	1	1.355616	1.355616	0	1	0	0	CorrectCommission	0.393690	0.733771	1	0	5.182500e+01
107.098038	1.279624	city	4	1	1.614633	1.614633	0	1	0	0	CorrectCommission	0.367704	0.722981	1	0	5.180000e+01
108.377602	1.279510	city	10	0	0.000000	1.616284	0	0	0	1	OmissionError	0.372557	0.719707	1	0	5.177500e+01
109.663841	1.292971	city	7	1	1.463777	1.463777	0	1	0	0	CorrectCommission	0.075745	0.725539	1	0	5.175000e+01
110.950165	1.279668	city	5	1	1.260320	1.260320	0	1	0	0	CorrectCommission	0.673817	0.740946	1	0	5.172500e+01
112.229790	1.279593	city	9	0	0.000000	1.612234	0	0	0	1	OmissionError	0.360650	0.765264	1	0	5.170000e+01
113.509369	1.279563	city	1	1	1.967958	1.967958	0	1	0	0	CorrectCommission	1.406319	0.796834	0	0	5.167500e+01
114.802200	1.306098	city	9	1	1.775934	1.775934	0	1	0	0	CorrectCommission	0.841854	0.833236	0	0	5.165000e+01
116.101776	1.293055	city	2	1	1.643341	1.643341	0	1	0	0	CorrectCommission	0.452091	0.871715	0	0	5.162500e+01
117.394691	1.292771	city	9	0	0.000000	1.384361	0	0	0	1	OmissionError	0.309191	0.909506	0	0	5.160000e+01
118.687607	1.293055	city	4	1	1.060027	1.060027	0	1	0	0	CorrectCommission	1.262588	0.944200	0	0	5.157500e+01
119.973923	1.279579	mountain	1	0	0.000000	0.731369	1	0	0	0	CorrectOmission	2.228694	0.974003	0	0	5.155000e+01
121.260155	1.292883	city	3	1	0.830603	0.830603	0	1	0	0	CorrectCommission	1.936990	0.997911	0	0	5.152500e+01
122.552963	1.292742	city	4	1	1.789947	1.789947	0	1	0	0	CorrectCommission	0.883046	1.015724	0	0	5.150000e+01
123.852455	1.306240	city	7	0	0.000000	1.370343	0	0	0	1	OmissionError	0.350398	1.027884	0	0	5.147500e+01
125.158691	1.306230	city	9	1	0.836902	0.836902	0	1	0	0	CorrectCommission	1.918473	1.035238	0	0	5.145000e+01
126.451599	1.279581	city	6	1	1.454733	1.454733	0	1	0	0	CorrectCommission	0.102331	1.038688	0	0	5.142500e+01
127.737930	1.293095	city	3	1	1.452175	1.452175	0	1	0	0	CorrectCommission	0.109851	1.039022	0	0	5.140000e+01
129.044189	1.319409	city	6	1	2.042067	2.042067	0	1	0	0	CorrectCommission	1.624167	1.036613	0	0	5.137500e+01
130.343674	1.279565	city	7	1	1.750227	1.750227	0	1	0	0	CorrectCommission	0.766289	1.031396	0	0	5.135000e+01
131.629913	1.292909	city	10	0	0.000000	1.197121	0	0	0	1	OmissionError	0.859592	1.022970	0	0	5.132500e+01
132.916153	1.279585	city	7	1	0.778761	0.778761	0	1	0	0	CorrectCommission	2.089384	1.010722	0	0	5.130000e+01
134.209152	1.306405	city	5	1	0.891156	0.891156	0	1	0	0	CorrectCommission	1.758993	0.994003	0	0	5.127500e+01
135.508728	1.292760	city	1	1	1.325936	1.325936	0	1	0	0	CorrectCommission	0.480936	0.972366	0	0	5.125000e+01
136.814880	1.319525	city	10	1	1.940627	1.940627	0	1	0	0	CorrectCommission	1.325978	0.945684	0	0	5.122500e+01
138.121094	1.292907	city	2	0	0.000000	1.602412	0	0	0	1	OmissionError	0.331780	0.914169	0	0	5.120000e+01
139.440765	1.346453	city	1	1	1.260191	1.260191	0	1	0	0	CorrectCommission	0.674195	0.878420	0	0	5.117500e+01
140.760345	1.292706	city	4	1	1.862863	1.862863	0	1	0	0	CorrectCommission	1.097387	0.839363	0	0	5.115000e+01
142.066544	1.319676	city	1	0	0.000000	1.926030	0	0	0	1	OmissionError	1.283071	0.798185	0	0	5.112500e+01
143.366180	1.279608	city	4	0	0.000000	1.674766	0	0	0	1	OmissionError	0.544466	0.756279	1	0	5.110000e+01
144.665771	1.319566	city	2	0	0.000000	1.334140	0	0	0	1	OmissionError	0.456819	0.715226	1	0	5.107500e+01
145.965271	1.279449	city	7	1	1.129225	1.129225	0	1	0	0	CorrectCommission	1.059177	0.676727	1	0	5.105000e+01
147.244858	1.279705	city	5	1	1.285091	1.285091	0	1	0	0	CorrectCommission	0.601000	0.642555	1	0	5.102500e+01
151.336838	6.904248	break	0	0	0.000000	1.526240	0	0	0	0	ThoughtProbe	0.107868	0.614532	1	51	51
155.428833	1.279748	city	1	1	1.684461	1.684461	0	1	0	0	CorrectCommission	0.572966	0.594488	1	0	5.102174e+01
156.715088	1.292762	city	6	1	1.591543	1.591543	0	1	0	0	CorrectCommission	0.299830	0.584126	1	0	5.104348e+01
158.021271	1.319597	city	8	1	1.277203	1.277203	0	1	0	0	CorrectCommission	0.624189	0.584968	1	0	5.106522e+01
159.320831	1.279527	mountain	9	0	0.000000	1.518590	1	0	0	0	CorrectOmission	0.085381	0.598114	1	0	5.108696e+01
160.600449	1.279724	city	6	1	1.794150	1.794150	0	1	0	0	CorrectCommission	0.895401	0.624157	1	0	5.110870e+01
161.913437	1.346245	mountain	8	0	0.000000	1.582326	1	0	0	0	CorrectOmission	0.272736	0.662927	1	0	5.113043e+01
163.226257	1.279397	city	8	1	1.388783	1.388783	0	1	0	0	CorrectCommission	0.296194	0.713392	1	0	5.115217e+01
164.539078	1.346229	city	2	1	1.719182	1.719182	0	1	0	0	CorrectCommission	0.675031	0.773582	0	0	5.117391e+01
165.872055	1.319748	mountain	7	0	0.000000	1.690015	1	0	0	0	CorrectOmission	0.589291	0.840596	0	0	5.119565e+01
167.178391	1.292902	city	5	1	1.605088	1.605088	0	1	0	0	CorrectCommission	0.339646	0.910781	0	0	5.121739e+01
168.471283	1.292909	city	7	0	0.000000	1.768213	0	0	0	1	OmissionError	0.819160	0.980048	0	0	5.123913e+01
169.757538	1.279586	city	8	1	1.677920	1.677920	0	1	0	0	CorrectCommission	0.553738	1.044330	0	0	5.126087e+01
171.050354	1.306043	city	2	1	0.832739	0.832739	0	1	0	0	CorrectCommission	1.930711	1.100053	0	0	5.128261e+01
172.349915	1.293076	city	7	1	0.504485	0.504485	0	1	0	0	CorrectCommission	2.895629	1.144599	0	0	5.130435e+01
173.642914	1.292924	city	3	1	0.818397	0.818397	0	1	0	0	CorrectCommission	1.972872	1.176642	0	0	5.132609e+01
174.929153	1.279563	city	2	1	0.932410	0.932410	0	1	0	0	CorrectCommission	1.637725	1.196311	0	0	5.134783e+01
176.208725	1.279580	city	6	0	0.000000	0.966329	0	0	0	1	OmissionError	1.538018	1.205037	0	0	5.136957e+01
177.501633	1.306230	city	2	1	1.094875	1.094875	0	1	0	0	CorrectCommission	1.160150	1.205237	0	0	5.139130e+01
178.807861	1.306232	city	6	1	1.492769	1.492769	0	1	0	0	CorrectCommission	0.009478	1.199804	0	0	5.141304e+01
180.107452	1.292937	city	9	1	1.792563	1.792563	0	1	0	0	CorrectCommission	0.890738	1.191583	0	0	5.143478e+01
181.393692	1.279556	city	3	1	1.449653	1.449653	0	1	0	0	CorrectCommission	0.117262	1.182853	0	0	5.145652e+01
182.686539	1.306139	city	8	0	0.000000	1.089408	0	0	0	1	OmissionError	1.176220	1.175153	0	0	5.147826e+01
184.012787	1.346339	city	10	1	0.873489	0.873489	0	1	0	0	CorrectCommission	1.810924	1.169089	0	0	5.150000e+01
185.339081	1.306243	city	2	1	0.963558	0.963558	0	1	0	0	CorrectCommission	1.546163	1.164514	0	0	5.152174e+01
186.638641	1.292883	city	10	1	1.155416	1.155416	0	1	0	0	CorrectCommission	0.982187	1.160779	0	0	5.154348e+01
187.924881	1.279607	city	5	0	0.000000	1.015564	0	0	0	1	OmissionError	1.393289	1.157072	0	0	5.156522e+01
189.217804	1.306232	city	1	1	0.876667	0.876667	0	1	0	0	CorrectCommission	1.801583	1.152664	0	0	5.158696e+01
190.523972	1.306125	city	6	1	1.071391	1.071391	0	1	0	0	CorrectCommission	1.229183	1.147178	0	0	5.160870e+01
191.823471	1.292854	city	10	1	1.744992	1.744992	0	1	0	0	CorrectCommission	0.750899	1.140673	0	0	5.163043e+01
193.123093	1.306380	city	2	0	0.000000	1.379891	0	0	0	1	OmissionError	0.322332	1.133612	0	0	5.165217e+01
194.416077	1.279603	city	5	1	1.095251	1.095251	0	1	0	0	CorrectCommission	1.159045	1.126763	0	0	5.167391e+01
195.695679	1.279583	city	3	1	2.010233	2.010233	0	1	0	0	CorrectCommission	1.530587	1.121009	0	0	5.169565e+01
196.988480	1.306043	city	5	0	0.000000	2.125659	0	0	0	1	OmissionError	1.869888	1.117152	0	0	5.171739e+01
198.294708	1.306403	mountain	3	0	0.000000	1.846846	1	0	0	0	CorrectOmission	1.050304	1.115708	0	0	5.173913e+01
199.587646	1.279465	city	1	1	1.579109	1.579109	0	1	0	0	CorrectCommission	0.263278	1.116733	0	0	5.176087e+01
200.880463	1.306191	city	3	0	0.000000	1.727763	0	0	0	1	OmissionError	0.700256	1.119688	0	0	5.178261e+01
202.173431	1.279744	city	5	1	1.929302	1.929302	0	1	0	0	CorrectCommission	1.292688	1.123415	0	0	5.180435e+01
203.459763	1.292906	city	9	1	1.820216	1.820216	0	1	0	0	CorrectCommission	0.972025	1.126232	0	0	5.182609e+01
204.752686	1.292931	city	2	1	1.859286	1.859286	0	1	0	0	CorrectCommission	1.086873	1.126127	0	0	5.184783e+01
206.038849	1.279393	city	6	0	0.000000	1.348699	0	0	0	1	OmissionError	0.414022	1.121048	0	0	5.186957e+01
207.338440	1.319812	city	5	1	0.784340	0.784340	0	1	0	0	CorrectCommission	2.072983	1.109302	0	0	5.189130e+01
208.644760	1.292822	city	6	0	0.000000	0.662094	0	0	0	1	OmissionError	2.432330	1.089749	0	0	5.191304e+01
209.944214	1.306082	city	1	1	0.857421	0.857421	0	1	0	0	CorrectCommission	1.858157	1.062181	0	0	5.193478e+01
211.250412	1.306312	city	8	1	1.245781	1.245781	0	1	0	0	CorrectCommission	0.716554	1.027382	0	0	5.195652e+01
212.549988	1.292827	city	10	1	1.318297	1.318297	0	1	0	0	CorrectCommission	0.503392	0.987080	0	0	5.197826e+01
213.196396	8.877210	break	0	0	0.000000	1.663813	0	0	0	0	ThoughtProbe	0.512271	0.943731	0	52	52
222.713348	1.279479	city	7	1	1.929541	1.929541	0	1	0	0	CorrectCommission	1.293389	0.900226	0	0	5.210000e+01
224.006271	1.306388	city	8	1	1.762688	1.762688	0	1	0	0	CorrectCommission	0.802917	0.859485	0	0	5.220000e+01
225.305908	1.292885	city	5	1	1.649831	1.649831	0	1	0	0	CorrectCommission	0.471168	0.824162	0	0	5.230000e+01
226.605484	1.306263	city	8	1	1.604349	1.604349	0	1	0	0	CorrectCommission	0.337473	0.796330	0	0	5.240000e+01
227.918396	1.319561	city	10	1	1.751522	1.751522	0	1	0	0	CorrectCommission	0.770094	0.777268	0	0	5.250000e+01
229.237961	1.319568	mountain	6	0	0.000000	1.723493	1	0	0	0	CorrectOmission	0.687702	0.767358	0	0	5.260000e+01
230.537460	1.279431	city	2	0	0.000000	1.587308	0	0	0	1	OmissionError	0.287379	0.766121	0	0	5.270000e+01
231.817032	1.279704	city	5	1	1.410011	1.410011	0	1	0	0	CorrectCommission	0.233792	0.772393	0	0	5.280000e+01
233.110016	1.306278	city	10	1	1.258649	1.258649	0	1	0	0	CorrectCommission	0.678729	0.784522	0	0	5.290000e+01
234.409561	1.292787	city	5	1	1.886532	1.886532	0	1	0	0	CorrectCommission	1.166963	0.800663	0	0	53
235.722366	1.332838	mountain	8	0	0.000000	2.010378	1	0	0	0	CorrectOmission	1.531016	0.819055	0	0	5.310000e+01
237.028580	1.279582	city	6	1	1.740394	1.740394	0	1	0	0	CorrectCommission	0.737384	0.838228	0	0	5.320000e+01
238.321564	1.306376	city	7	0	0.000000	1.186784	0	0	0	1	OmissionError	0.889978	0.857162	0	0	5.330000e+01
239.634460	1.319442	city	1	1	0.900921	0.900921	0	1	0	0	CorrectCommission	1.730288	0.875269	0	0	5.340000e+01
240.940628	1.292890	city	10	1	1.434175	1.434175	0	1	0	0	CorrectCommission	0.162763	0.892292	0	0	5.350000e+01
242.240189	1.306226	city	4	0	0.000000	1.332411	0	0	0	1	OmissionError	0.461901	0.908227	0	0	5.360000e+01
243.539856	1.293099	city	1	1	1.245459	1.245459	0	1	0	0	CorrectCommission	0.717502	0.923045	0	0	5.370000e+01
244.839493	1.306193	city	10	1	1.823145	1.823145	0	1	0	0	CorrectCommission	0.980633	0.936559	0	0	5.380000e+01
246.139053	1.292912	city	5	0	0.000000	1.989818	0	0	0	1	OmissionError	1.470577	0.948358	0	0	5.390000e+01
247.425293	1.279578	mountain	7	0	0.000000	1.864171	1	0	0	0	CorrectOmission	1.101233	0.957802	0	0	54
248.718140	1.306095	city	2	0	0.000000	1.564897	0	0	0	1	OmissionError	0.221503	0.964092	0	0	5.410000e+01
250.031052	1.319727	city	5	1	1.210689	1.210689	0	1	0	0	CorrectCommission	0.819711	0.966403	0	0	5.420000e+01
251.330612	1.279417	city	1	0	0.000000	0.920237	0	0	0	1	OmissionError	1.673506	0.964021	0	0	5.430000e+01
252.630188	1.319728	city	4	1	0.843727	0.843727	0	1	0	0	CorrectCommission	1.898413	0.956516	0	0	5.440000e+01
253.929764	1.279424	city	10	0	0.000000	1.131339	0	0	0	1	OmissionError	1.052962	0.943872	0	0	5.450000e+01
255.222672	1.306375	city	5	1	1.541271	1.541271	0	1	0	0	CorrectCommission	0.152052	0.926546	0	0	5.460000e+01
256.548950	1.346222	city	6	1	1.831718	1.831718	0	1	0	0	CorrectCommission	1.005835	0.905417	0	0	5.470000e+01
257.875153	1.306165	city	1	0	0.000000	1.922992	0	0	0	1	OmissionError	1.274140	0.881681	0	0	5.480000e+01
259.168030	1.279580	city	10	0	0.000000	1.860987	0	0	0	1	OmissionError	1.091873	0.856771	0	0	5.490000e+01
260.447571	1.279515	city	2	1	1.691596	1.691596	0	1	0	0	CorrectCommission	0.593940	0.832203	0	0	55
261.740448	1.306225	city	3	0	0.000000	1.460713	0	0	0	1	OmissionError	0.084753	0.809433	0	0	5.510000e+01
263.040009	1.292922	city	7	0	0.000000	1.254678	0	0	0	1	OmissionError	0.690403	0.789736	0	0	5.520000e+01
264.339661	1.306376	city	5	1	1.159832	1.159832	0	1	0	0	CorrectCommission	0.969205	0.774093	0	0	5.530000e+01
265.639221	1.292743	city	4	1	1.262517	1.262517	0	1	0	0	CorrectCommission	0.667357	0.763184	1	0	5.540000e+01
266.938812	1.306415	city	8	1	1.710477	1.710477	0	1	0	0	CorrectCommission	0.649441	0.757346	1	0	5.550000e+01
268.245056	1.306078	city	3	1	1.975912	1.975912	0	1	0	0	CorrectCommission	1.429702	0.756511	1	0	5.560000e+01
269.597931	1.399677	city	5	0	0.000000	1.648490	0	0	0	1	OmissionError	0.467228	0.760203	1	0	5.570000e+01
270.937531	1.279550	city	6	1	1.352477	1.352477	0	1	0	0	CorrectCommission	0.402915	0.767530	0	0	5.580000e+01
272.230469	1.306289	city	4	1	1.712143	1.712143	0	1	0	0	CorrectCommission	0.654337	0.777140	0	0	5.590000e+01
276.422363	7.077529	break	0	0	0.000000	1.618544	0	0	0	0	ThoughtProbe	0.379201	0.787314	0	56	56
280.607574	1.292861	city	4	1	1.531567	1.531567	0	1	0	0	CorrectCommission	0.123527	0.796101	0	0	5.580435e+01
281.927185	1.346388	city	6	1	1.911095	1.911095	0	1	0	0	CorrectCommission	1.239168	0.801566	0	0	5.560870e+01
283.253510	1.306263	city	4	1	1.941947	1.941947	0	1	0	0	CorrectCommission	1.329859	0.802036	0	0	5.541304e+01
284.559753	1.306210	city	1	0	0.000000	1.977428	0	0	0	1	OmissionError	1.434157	0.796392	0	0	5.521739e+01
285.865936	1.306146	city	9	1	1.972119	1.972119	0	1	0	0	CorrectCommission	1.418550	0.784291	0	0	5.502174e+01
287.172180	1.306333	city	4	1	1.880600	1.880600	0	1	0	0	CorrectCommission	1.149526	0.766284	0	0	5.482609e+01
288.485138	1.319615	city	8	0	0.000000	1.753029	0	0	0	1	OmissionError	0.774525	0.743788	1	0	5.463043e+01
289.784729	1.279528	city	4	1	1.632843	1.632843	0	1	0	0	CorrectCommission	0.421234	0.718908	1	0	5.443478e+01
291.090942	1.332918	city	2	1	1.563480	1.563480	0	1	0	0	CorrectCommission	0.217336	0.694107	1	0	5.423913e+01
292.430511	1.346220	mountain	10	0	0.000000	1.659840	1	0	0	0	CorrectOmission	0.500590	0.671847	1	0	5.404348e+01
293.756653	1.306054	city	6	1	1.695950	1.695950	0	1	0	0	CorrectCommission	0.606740	0.654220	1	0	5.384783e+01
295.069489	1.319655	city	2	1	1.445840	1.445840	0	1	0	0	CorrectCommission	0.128472	0.642674	1	0	5.365217e+01
296.395813	1.332976	city	5	1	1.478301	1.478301	0	1	0	0	CorrectCommission	0.033052	0.637860	1	0	5.345652e+01
297.702087	1.279574	city	10	0	0.000000	1.328350	0	0	0	1	OmissionError	0.473840	0.639582	1	0	5.326087e+01
298.981598	1.279438	city	1	0	0.000000	1.135368	0	0	0	1	OmissionError	1.041120	0.646882	1	0	5.306522e+01
300.261169	1.279718	city	2	1	1.038734	1.038734	0	1	0	0	CorrectCommission	1.325178	0.658234	1	0	5.286957e+01
301.540741	1.279419	city	9	1	1.177830	1.177830	0	1	0	0	CorrectCommission	0.916301	0.671777	1	0	5.267391e+01
302.820312	1.279742	city	6	1	1.406826	1.406826	0	1	0	0	CorrectCommission	0.243157	0.685557	1	0	5.247826e+01
304.139984	1.359549	mountain	9	0	0.000000	1.551642	1	0	0	0	CorrectOmission	0.182539	0.697795	1	0	5.228261e+01
305.459534	1.279577	city	5	1	1.475639	1.475639	0	1	0	0	CorrectCommission	0.040877	0.707054	1	0	5.208696e+01
306.759125	1.319588	mountain	4	0	0.000000	1.042173	1	0	0	0	CorrectOmission	1.315069	0.712433	1	0	5.189130e+01
308.071930	1.306054	city	9	1	0.769995	0.769995	0	1	0	0	CorrectCommission	2.115151	0.713629	1	0	5.169565e+01
309.378174	1.306443	city	10	1	1.177852	1.177852	0	1	0	0	CorrectCommission	0.916235	0.710969	1	0	5.150000e+01
310.671173	1.279559	city	9	1	1.736083	1.736083	0	1	0	0	CorrectCommission	0.724711	0.705391	1	0	5.130435e+01
311.957336	1.292721	city	8	0	0.000000	1.674712	0	0	0	1	OmissionError	0.544308	0.698189	1	0	5.110870e+01
313.250214	1.293038	city	5	1	1.460054	1.460054	0	1	0	0	CorrectCommission	0.086689	0.690853	1	0	5.091304e+01
314.543213	1.292964	city	3	0	0.000000	1.558424	0	0	0	1	OmissionError	0.202475	0.684840	1	0	5.071739e+01
315.842804	1.306254	city	8	1	1.747368	1.747368	0	1	0	0	CorrectCommission	0.757885	0.681323	1	0	5.052174e+01
317.142303	1.292735	city	1	1	1.804431	1.804431	0	1	0	0	CorrectCommission	0.925623	0.681035	1	0	5.032609e+01
318.441864	1.306400	mountain	6	0	0.000000	1.688824	1	0	0	0	CorrectOmission	0.585793	0.684269	1	0	5.013043e+01
319.748169	1.306205	city	7	0	0.000000	1.553512	0	0	0	1	OmissionError	0.188036	0.690894	1	0	4.993478e+01
321.041016	1.279485	city	5	1	1.551459	1.551459	0	1	0	0	CorrectCommission	0.181999	0.700463	1	0	4.973913e+01
322.341400	1.321283	city	2	1	1.835627	1.835627	0	1	0	0	CorrectCommission	1.017324	0.712375	1	0	4.954348e+01
323.647705	1.291286	city	5	1	2.051401	2.051401	0	1	0	0	CorrectCommission	1.651603	0.726061	1	0	4.934783e+01
324.953125	1.319570	city	8	0	0.000000	1.949508	0	0	0	1	OmissionError	1.352084	0.741072	1	0	4.915217e+01
326.252625	1.279433	city	5	0	0.000000	1.690788	0	0	0	1	OmissionError	0.591565	0.757122	1	0	4.895652e+01
327.532196	1.279726	city	8	1	1.436081	1.436081	0	1	0	0	CorrectCommission	0.157159	0.774062	0	0	4.876087e+01
328.845184	1.346246	city	6	0	0.000000	1.346226	0	0	0	1	OmissionError	0.421291	0.791753	0	0	4.856522e+01
330.158051	1.279481	city	2	1	1.475646	1.475646	0	1	0	0	CorrectCommission	0.040856	0.809974	0	0	4.836957e+01
331.444275	1.292979	city	1	0	0.000000	1.878760	0	0	0	1	OmissionError	1.144119	0.828366	0	0	4.817391e+01
332.730560	1.279593	city	3	1	2.011320	2.011320	0	1	0	0	CorrectCommission	1.533783	0.846341	0	0	4.797826e+01
334.016815	1.292907	city	2	0	0.000000	1.329074	0	0	0	1	OmissionError	0.471712	0.863142	0	0	4.778261e+01
335.329712	1.332906	city	9	1	0.839652	0.839652	0	1	0	0	CorrectCommission	1.910390	0.877969	0	0	4.758696e+01
336.649292	1.306216	city	5	1	1.550684	1.550684	0	1	0	0	CorrectCommission	0.179723	0.890027	0	0	4.739130e+01
337.982117	1.359418	city	1	0	0.000000	1.317342	0	0	0	1	OmissionError	0.506198	0.898820	0	0	4.719565e+01
342.333923	7.344236	break	0	1	0.908215	0.908215	0	0	0	0	ThoughtProbe	1.708847	0.904117	0	47	47
346.665833	1.319548	mountain	5	0	0.000000	1.091893	1	0	0	0	CorrectOmission	1.168917	0.906076	0	0	4.679412e+01
347.972137	1.293099	city	5	0	0.000000	1.550671	0	0	0	1	OmissionError	0.179683	0.905285	0	0	4.658824e+01
349.258423	1.279471	city	8	1	1.966844	1.966844	0	1	0	0	CorrectCommission	1.403043	0.902657	0	0	4.638235e+01
350.551239	1.306155	city	4	1	2.022707	2.022707	0	1	0	0	CorrectCommission	1.567256	0.899275	0	0	4.617647e+01
351.857513	1.306404	city	8	0	0.000000	1.640193	0	0	0	1	OmissionError	0.442839	0.896266	0	0	4.597059e+01
353.150452	1.279425	city	6	1	1.433600	1.433600	0	1	0	0	CorrectCommission	0.164452	0.894607	0	0	4.576471e+01
354.436676	1.293075	city	5	1	2.017225	2.017225	0	1	0	0	CorrectCommission	1.551141	0.894876	0	0	4.555882e+01
355.749603	1.332732	city	8	1	1.790438	1.790438	0	1	0	0	CorrectCommission	0.884491	0.897082	0	0	4.535294e+01
357.089142	1.346382	city	2	0	0.000000	1.496742	0	0	0	1	OmissionError	0.021156	0.900662	0	0	4.514706e+01
358.402130	1.279570	city	8	0	0.000000	1.305632	0	0	0	1	OmissionError	0.540619	0.904492	0	0	4.494118e+01
359.688354	1.292907	city	2	1	1.386606	1.386606	0	1	0	0	CorrectCommission	0.302593	0.907036	0	0	4.473529e+01
361.007904	1.346144	city	10	1	1.909159	1.909159	0	1	0	0	CorrectCommission	1.233477	0.906655	0	0	4.452941e+01
362.354126	1.346302	city	8	0	0.000000	2.304319	0	0	0	1	OmissionError	2.395068	0.901854	0	0	4.432353e+01
363.687042	1.319558	city	3	1	2.298433	2.298433	0	1	0	0	CorrectCommission	2.377767	0.891518	0	0	4.411765e+01
365.033173	1.372730	city	9	1	1.617852	1.617852	0	1	0	0	CorrectCommission	0.377166	0.875166	0	0	4.391176e+01
366.366028	1.292930	city	2	1	1.597244	1.597244	0	1	0	0	CorrectCommission	0.316587	0.852969	0	0	4.370588e+01
367.678986	1.333007	city	10	1	1.579492	1.579492	0	1	0	0	CorrectCommission	0.264406	0.825645	0	0	4.350000e+01
368.991882	1.292783	city	4	1	1.915259	1.915259	0	1	0	0	CorrectCommission	1.251409	0.794376	0	0	4.329412e+01
370.291473	1.306385	city	7	0	0.000000	1.526375	0	0	0	1	OmissionError	0.108265	0.760536	1	0	4.308824e+01
371.617767	1.346247	city	1	1	1.058791	1.058791	0	1	0	0	CorrectCommission	1.266220	0.725651	1	0	4.288235e+01
372.930603	1.279419	city	8	0	0.000000	1.158459	0	0	0	1	OmissionError	0.973243	0.691141	1	0	4.267647e+01
374.223511	1.306374	city	5	1	1.481876	1.481876	0	1	0	0	CorrectCommission	0.022541	0.658298	1	0	4.247059e+01
375.529816	1.306261	mountain	2	0	0.000000	1.685542	1	0	0	0	CorrectOmission	0.576145	0.628251	1	0	4.226471e+01
376.822662	1.279393	city	5	1	1.778232	1.778232	0	1	0	0	CorrectCommission	0.848610	0.601921	1	0	4.205882e+01
378.135559	1.346413	city	7	0	0.000000	1.768721	0	0	0	1	OmissionError	0.820651	0.580010	1	0	4.185294e+01
379.455200	1.292888	city	4	1	1.693994	1.693994	0	1	0	0	CorrectCommission	0.600989	0.562955	1	0	4.164706e+01
380.781433	1.359546	city	6	0	0.000000	1.591038	0	0	0	1	OmissionError	0.298345	0.550902	1	0	4.144118e+01
382.100983	1.279600	city	3	0	0.000000	1.504026	0	0	0	1	OmissionError	0.042569	0.543669	1	0	4.123529e+01
383.393890	1.306217	city	1	0	0.000000	1.477130	0	0	0	1	OmissionError	0.036494	0.540705	1	0	4.102941e+01
384.693481	1.292929	city	3	1	1.554522	1.554522	0	1	0	0	CorrectCommission	0.191005	0.541168	1	0	4.082353e+01
386.053040	1.426191	city	8	1	1.780376	1.780376	0	1	0	0	CorrectCommission	0.854912	0.544020	1	0	4.061765e+01
387.432495	1.332743	city	10	1	1.953387	1.953387	0	1	0	0	CorrectCommission	1.363486	0.548134	1	0	4.041176e+01
388.745392	1.293045	city	7	0	0.000000	1.510521	0	0	0	1	OmissionError	0.061662	0.552500	1	0	4.020588e+01
389.391907	8.918205	break	0	1	1.112379	1.112379	0	0	0	0	ThoughtProbe	1.108695	0.556382	1	40	40
398.982697	1.345128	mountain	6	0	0.000000	1.419561	1	0	0	0	CorrectOmission	0.205721	0.559316	1	0	4.012500e+01
400.301697	1.292857	city	9	1	1.835689	1.835689	0	1	0	0	CorrectCommission	1.017507	0.561221	1	0	4.025000e+01
401.601227	1.306212	city	8	0	0.000000	1.764387	0	0	0	1	OmissionError	0.807913	0.562304	1	0	4.037500e+01
402.900818	1.292994	city	1	1	1.578564	1.578564	0	1	0	0	CorrectCommission	0.261676	0.562968	1	0	4.050000e+01
404.207062	1.319514	city	10	1	1.651127	1.651127	0	1	0	0	CorrectCommission	0.474979	0.563633	1	0	4.062500e+01
405.533295	1.332923	city	6	0	0.000000	1.606708	0	0	0	1	OmissionError	0.344407	0.564566	1	0	4.075000e+01
406.839539	1.279575	city	8	0	0.000000	1.532987	0	0	0	1	OmissionError	0.127701	0.565857	1	0	4.087500e+01
408.125702	1.292736	mountain	5	0	0.000000	1.517645	1	0	0	0	CorrectOmission	0.082602	0.567362	1	0	41
409.411926	1.279752	city	2	1	1.648363	1.648363	0	1	0	0	CorrectCommission	0.466854	0.568779	1	0	4.112500e+01
410.711609	1.319563	city	9	1	2.012822	2.012822	0	1	0	0	CorrectCommission	1.538198	0.569775	1	0	4.125000e+01
412.031158	1.319553	city	10	0	0.000000	1.945209	0	0	0	1	OmissionError	1.339447	0.570089	1	0	4.137500e+01
413.337402	1.292921	city	6	1	1.724469	1.724469	0	1	0	0	CorrectCommission	0.690570	0.569658	1	0	4.150000e+01
414.623566	1.279451	city	7	0	0.000000	1.629544	0	0	0	1	OmissionError	0.411535	0.568613	1	0	4.162500e+01
415.909821	1.293035	city	6	0	0.000000	1.596658	0	0	0	1	OmissionError	0.314864	0.567208	1	0	4.175000e+01
417.202789	1.292930	city	8	1	1.562033	1.562033	0	1	0	0	CorrectCommission	0.213083	0.565708	1	0	4.187500e+01
418.529022	1.359510	city	9	0	0.000000	1.461893	0	0	0	1	OmissionError	0.081285	0.564264	1	0	42
419.855225	1.292910	city	7	1	1.472072	1.472072	0	1	0	0	CorrectCommission	0.051362	0.562798	1	0	4.212500e+01
421.148071	1.292793	mountain	5	0	0.000000	1.768407	1	0	0	0	CorrectOmission	0.819728	0.560997	1	0	4.225000e+01
422.441101	1.293236	city	5	1	1.985947	1.985947	0	1	0	0	CorrectCommission	1.459198	0.558346	1	0	4.237500e+01
423.747314	1.319186	city	3	0	0.000000	1.759743	0	0	0	1	OmissionError	0.794260	0.554257	1	0	4.250000e+01
425.073425	1.333058	city	9	0	0.000000	1.436622	0	0	0	1	OmissionError	0.155569	0.548278	1	0	4.262500e+01
426.386414	1.292927	city	3	1	1.363413	1.363413	0	1	0	0	CorrectCommission	0.370771	0.540162	1	0	4.275000e+01
427.679352	1.292915	city	5	1	1.886942	1.886942	0	1	0	0	CorrectCommission	1.168170	0.529993	1	0	4.287500e+01
428.985504	1.319417	city	3	0	0.000000	1.652986	0	0	0	1	OmissionError	0.480444	0.518184	1	0	43
430.291687	1.292902	city	9	1	1.334938	1.334938	0	1	0	0	CorrectCommission	0.454475	0.505513	1	0	4.312500e+01
431.604645	1.333028	city	10	1	1.606191	1.606191	0	1	0	0	CorrectCommission	0.342888	0.492977	1	0	4.325000e+01
432.937622	1.332945	city	4	0	0.000000	1.670869	0	0	0	1	OmissionError	0.533013	0.481682	1	0	4.337500e+01
434.243866	1.279546	city	9	0	0.000000	1.599376	0	0	0	1	OmissionError	0.322856	0.472690	1	0	4.350000e+01
435.530090	1.292886	city	10	0	0.000000	1.462116	0	0	0	1	OmissionError	0.080629	0.466941	1	0	4.362500e+01
436.829559	1.306087	city	8	1	1.329491	1.329491	0	1	0	0	CorrectCommission	0.470484	0.465151	1	0	4.375000e+01
438.149139	1.333061	city	5	1	1.271907	1.271907	0	1	0	0	CorrectCommission	0.639755	0.467740	1	0	4.387500e+01
439.462128	1.292892	city	6	1	1.569503	1.569503	0	1	0	0	CorrectCommission	0.235042	0.474857	1	0	44
440.768341	1.319570	city	3	1	1.536902	1.536902	0	1	0	0	CorrectCommission	0.139211	0.486432	1	0	4.412500e+01
442.087921	1.319593	city	9	0	0.000000	1.712475	0	0	0	1	OmissionError	0.655313	0.502215	1	0	4.425000e+01
443.400848	1.306207	city	8	1	1.816987	1.816987	0	1	0	0	CorrectCommission	0.962532	0.521820	1	0	4.437500e+01
444.713654	1.319410	city	2	1	1.571206	1.571206	0	1	0	0	CorrectCommission	0.240048	0.544769	1	0	4.450000e+01
446.026520	1.306329	city	4	1	1.316820	1.316820	0	1	0	0	CorrectCommission	0.507733	0.570536	1	0	4.462500e+01
447.332764	1.306167	city	5	1	1.701161	1.701161	0	1	0	0	CorrectCommission	0.622058	0.598496	1	0	4.475000e+01
448.632294	1.292885	city	6	1	1.673756	1.673756	0	1	0	0	CorrectCommission	0.541498	0.627906	1	0	4.487500e+01
453.044159	7.530852	break	0	0	0.000000	1.666939	0	0	0	0	ThoughtProbe	0.521458	0.657927	1	45	45
457.476105	1.333072	city	7	0	0.000000	1.676833	0	0	0	1	OmissionError	0.550544	0.687608	1	0	4.497826e+01
458.789032	1.292744	city	9	1	1.699563	1.699563	0	1	0	0	CorrectCommission	0.617360	0.715981	1	0	4.495652e+01
460.088531	1.306244	city	1	1	1.731252	1.731252	0	1	0	0	CorrectCommission	0.710511	0.742151	1	0	4.493478e+01
461.414825	1.346372	city	2	1	1.949367	1.949367	0	1	0	0	CorrectCommission	1.351670	0.765375	1	0	4.491304e+01
462.734314	1.292572	city	7	1	1.912657	1.912657	0	1	0	0	CorrectCommission	1.243759	0.785161	0	0	4.489130e+01
464.027130	1.293088	mountain	4	0	0.000000	1.792629	1	0	0	0	CorrectOmission	0.890932	0.801390	0	0	4.486957e+01
465.320190	1.293054	city	8	1	1.546390	1.546390	0	1	0	0	CorrectCommission	0.167101	0.814322	0	0	4.484783e+01
466.613098	1.292757	city	2	0	0.000000	1.131048	0	0	0	1	OmissionError	1.053817	0.824575	0	0	4.482609e+01
467.919342	1.319740	city	1	1	1.023311	1.023311	0	1	0	0	CorrectCommission	1.370516	0.832988	0	0	4.480435e+01
469.232239	1.306051	city	8	1	1.699888	1.699888	0	1	0	0	CorrectCommission	0.618313	0.840526	0	0	4.478261e+01
470.538422	1.306267	mountain	3	1	1.768072	1.768072	0	0	1	0	CommissionError	0.818744	0.848134	0	0	4.476087e+01
471.851318	1.319565	city	8	1	1.695542	1.695542	0	1	0	0	CorrectCommission	0.605538	0.856518	0	0	4.473913e+01
473.184296	1.346380	city	7	0	0.000000	1.719140	0	0	0	1	OmissionError	0.674907	0.866042	0	0	4.471739e+01
474.517181	1.319406	city	6	1	1.650858	1.650858	0	1	0	0	CorrectCommission	0.474187	0.876625	0	0	4.469565e+01
475.830078	1.306377	city	3	0	0.000000	1.302683	0	0	0	1	OmissionError	0.549288	0.887737	0	0	4.467391e+01
477.123077	1.279593	city	8	0	0.000000	0.952811	0	0	0	1	OmissionError	1.577753	0.898429	0	0	4.465217e+01
478.415924	1.306145	city	1	1	0.879436	0.879436	0	1	0	0	CorrectCommission	1.793443	0.907431	0	0	4.463043e+01
479.715424	1.292856	city	9	0	0.000000	1.360751	0	0	0	1	OmissionError	0.378594	0.913363	0	0	4.460870e+01
481.015015	1.306281	city	6	1	1.799101	1.799101	0	1	0	0	CorrectCommission	0.909955	0.914935	0	0	4.458696e+01
482.347870	1.359476	city	5	1	1.596828	1.596828	0	1	0	0	CorrectCommission	0.315366	0.911101	0	0	4.456522e+01
483.680756	1.306267	mountain	1	0	0.000000	1.132982	1	0	0	0	CorrectOmission	1.048132	0.901339	0	0	4.454348e+01
485.000397	1.333022	city	10	1	0.837177	0.837177	0	1	0	0	CorrectCommission	1.917666	0.885827	0	0	4.452174e+01
486.326691	1.319590	city	1	1	1.139028	1.139028	0	1	0	0	CorrectCommission	1.030360	0.865610	0	0	4.450000e+01
487.632935	1.292892	city	8	0	0.000000	1.203049	0	0	0	1	OmissionError	0.842166	0.842685	0	0	4.447826e+01
488.952515	1.346222	city	5	1	1.167842	1.167842	0	1	0	0	CorrectCommission	0.945660	0.819867	0	0	4.445652e+01
490.278656	1.306105	city	8	0	0.000000	1.172007	0	0	0	1	OmissionError	0.933416	0.800535	0	0	4.443478e+01
491.571594	1.279726	city	5	0	0.000000	1.219991	0	0	0	1	OmissionError	0.792367	0.788302	0	0	4.441304e+01
492.857880	1.292887	city	2	1	1.316238	1.316238	0	1	0	0	CorrectCommission	0.509443	0.786516	0	0	4.439130e+01
494.190796	1.372910	city	1	1	1.465195	1.465195	0	1	0	0	CorrectCommission	0.071578	0.797725	0	0	4.436957e+01
495.537018	1.319562	city	10	0	0.000000	1.546300	0	0	0	1	OmissionError	0.166835	0.823217	0	0	4.434783e+01
496.849915	1.306212	city	2	1	1.591723	1.591723	0	1	0	0	CorrectCommission	0.300359	0.862719	0	0	4.432609e+01
498.169403	1.332756	city	8	0	0.000000	1.633633	0	0	0	1	OmissionError	0.423555	0.914373	0	0	4.430435e+01
499.495636	1.319736	city	9	1	1.583657	1.583657	0	1	0	0	CorrectCommission	0.276648	0.974943	0	0	4.428261e+01
500.821960	1.332891	city	8	0	0.000000	1.353422	0	0	0	1	OmissionError	0.400140	1.040310	0	0	4.426087e+01
502.134857	1.292910	mountain	2	0	0.000000	1.036150	1	0	0	0	CorrectOmission	1.332776	1.106176	0	0	4.423913e+01
503.421082	1.279552	city	1	0	0.000000	0.725064	0	0	0	1	OmissionError	2.247228	1.168824	0	0	4.421739e+01
504.700592	1.279441	city	7	0	0.000000	0.513386	0	0	0	1	OmissionError	2.869465	1.225799	0	0	4.419565e+01
506.013489	1.346393	city	2	0	0.000000	0.494339	0	0	0	1	OmissionError	2.925455	1.276300	0	0	4.417391e+01
507.359711	1.346032	city	4	1	0.761145	0.761145	0	1	0	0	CorrectCommission	2.141165	1.321236	0	0	4.415217e+01
508.685852	1.306264	city	7	1	1.407027	1.407027	0	1	0	0	CorrectCommission	0.242565	1.362908	0	0	4.413043e+01
509.992126	1.306277	city	3	1	1.476559	1.476559	0	1	0	0	CorrectCommission	0.038171	1.404333	0	0	4.410870e+01
511.318359	1.346157	city	7	0	0.000000	1.277384	0	0	0	1	OmissionError	0.623655	1.448436	0	0	4.408696e+01
512.637878	1.292943	city	6	0	0.000000	1.059269	0	0	0	1	OmissionError	1.264817	1.497304	0	0	4.406522e+01
513.924133	1.279553	city	10	1	1.071979	1.071979	0	1	0	0	CorrectCommission	1.227454	1.551676	0	0	4.404348e+01
515.210449	1.293080	city	5	1	1.565283	1.565283	0	1	0	0	CorrectCommission	0.222635	1.610814	0	0	4.402174e+01
519.409241	7.104489	break	0	0	0.000000	2.058586	0	0	0	0	ThoughtProbe	1.672724	1.672724	0	44	44
