onset	duration	trial_type	image_type	Press	ReactionTime	ReactionTime_Interpolated	CorrectOmission	CorrectCommission	CommissionError	OmissionError	response_type	nonsmoothVarianceTimeCourse	VarianceTimeCourse	In_the_Zone	ThoughtProbe	ThoughtProbe_Interpolated
0.653077	1.279391	city	6	1	1.497572	1.497572	0	1	0	0	CorrectCommission	0.780685	0.780685	1	0	70
1.932589	1.279633	mountain	1	0	0.000000	1.248381	1	0	0	0	CorrectOmission	0.036848	0.733222	1	0	70
3.212168	1.279524	city	8	1	1.142936	1.142936	0	1	0	0	CorrectCommission	0.382786	0.687702	1	0	70
4.498466	1.293073	city	3	1	1.324984	1.324984	0	1	0	0	CorrectCommission	0.214466	0.645766	1	0	70
5.784737	1.279469	city	5	1	1.127709	1.127709	0	1	0	0	CorrectCommission	0.432741	0.608581	1	0	70
7.064314	1.279687	city	2	1	1.146013	1.146013	0	1	0	0	CorrectCommission	0.372691	0.576710	1	0	70
8.343947	1.279579	city	8	1	0.977129	0.977129	0	1	0	0	CorrectCommission	0.926757	0.550158	1	0	70
9.630123	1.292771	city	3	1	1.322541	1.322541	0	1	0	0	CorrectCommission	0.206453	0.528449	1	0	70
10.923041	1.293067	city	7	1	1.151670	1.151670	0	1	0	0	CorrectCommission	0.354131	0.510911	1	0	70
12.209273	1.279397	city	9	1	1.101868	1.101868	0	1	0	0	CorrectCommission	0.517520	0.496815	1	0	70
13.489341	1.280739	city	6	1	0.930110	0.930110	0	1	0	0	CorrectCommission	1.081016	0.485643	1	0	70
14.769002	1.278584	mountain	2	0	0.000000	1.018969	1	0	0	0	CorrectOmission	0.789491	0.477212	1	0	70
16.048082	1.279576	city	5	1	1.181509	1.181509	0	1	0	0	CorrectCommission	0.256239	0.471739	1	0	70
17.327583	1.279427	city	2	1	1.230792	1.230792	0	1	0	0	CorrectCommission	0.094552	0.469776	1	0	70
18.627169	1.319743	city	4	1	1.112317	1.112317	0	1	0	0	CorrectCommission	0.483240	0.472051	1	0	70
19.926819	1.279558	mountain	10	0	0.000000	1.114084	1	0	0	0	CorrectOmission	0.477443	0.479240	1	0	70
21.206394	1.279593	city	2	1	1.187114	1.187114	0	1	0	0	CorrectCommission	0.237850	0.491817	1	0	70
22.485956	1.279529	city	10	1	1.282427	1.282427	0	1	0	0	CorrectCommission	0.074848	0.509815	1	0	70
23.765512	1.279586	city	6	1	1.290217	1.290217	0	1	0	0	CorrectCommission	0.100407	0.532748	1	0	70
25.051775	1.292938	city	7	1	1.142725	1.142725	0	1	0	0	CorrectCommission	0.383479	0.559581	1	0	70
26.338055	1.279622	city	10	1	0.971454	0.971454	0	1	0	0	CorrectCommission	0.945376	0.588819	1	0	70
27.617554	1.279373	city	9	1	0.885232	0.885232	0	1	0	0	CorrectCommission	1.228248	0.618641	1	0	70
28.903767	1.293053	city	8	1	1.034726	1.034726	0	1	0	0	CorrectCommission	0.737795	0.647113	1	0	70
30.190100	1.279614	mountain	4	0	0.000000	1.158742	1	0	0	0	CorrectOmission	0.330929	0.672399	1	0	70
31.469685	1.279556	city	7	1	1.142661	1.142661	0	1	0	0	CorrectCommission	0.383687	0.692925	1	0	70
32.749207	1.279489	city	2	1	0.871864	0.871864	0	1	0	0	CorrectCommission	1.272105	0.707557	1	0	70
34.028793	1.279685	city	8	1	1.046843	1.046843	0	1	0	0	CorrectCommission	0.698043	0.715678	1	0	70
35.308418	1.279563	city	5	1	1.788040	1.788040	0	1	0	0	CorrectCommission	1.733637	0.717312	1	0	70
36.587990	1.279580	city	8	1	1.449592	1.449592	0	1	0	0	CorrectCommission	0.623276	0.713018	1	0	70
37.867580	1.279601	city	10	1	1.074356	1.074356	0	1	0	0	CorrectCommission	0.607780	0.703937	1	0	70
39.147160	1.279560	city	2	1	1.144585	1.144585	0	1	0	0	CorrectCommission	0.377377	0.691554	1	0	70
40.446640	1.319398	city	6	1	1.197308	1.197308	0	1	0	0	CorrectCommission	0.204404	0.677580	1	0	70
41.759556	1.306429	city	5	1	0.959785	0.959785	0	1	0	0	CorrectCommission	0.983657	0.663746	1	0	70
43.059170	1.292803	city	2	1	1.627093	1.627093	0	1	0	0	CorrectCommission	1.205612	0.651624	1	0	70
44.345329	1.279513	city	4	1	1.345186	1.345186	0	1	0	0	CorrectCommission	0.280744	0.642435	1	0	70
45.624866	1.279566	city	10	1	0.968905	0.968905	0	1	0	0	CorrectCommission	0.953737	0.636931	1	0	70
46.904438	1.279572	city	2	1	1.236553	1.236553	0	1	0	0	CorrectCommission	0.075652	0.635251	1	0	70
48.184025	1.279604	city	3	1	1.252481	1.252481	0	1	0	0	CorrectCommission	0.023397	0.636966	1	0	70
49.463699	1.279746	city	1	1	1.231037	1.231037	0	1	0	0	CorrectCommission	0.093748	0.641141	1	0	70
50.756607	1.306072	city	2	1	1.092657	1.092657	0	1	0	0	CorrectCommission	0.547738	0.646472	1	0	70
52.056179	1.293069	city	1	1	0.929795	0.929795	0	1	0	0	CorrectCommission	1.082047	0.651550	1	0	70
53.342461	1.279494	city	2	1	0.806746	0.806746	0	1	0	0	CorrectCommission	1.485742	0.655134	1	0	70
54.621971	1.279528	city	1	1	0.911711	0.911711	0	1	0	0	CorrectCommission	1.141377	0.656375	1	0	70
55.901546	1.279622	city	9	1	1.021782	1.021782	0	1	0	0	CorrectCommission	0.780262	0.654992	1	0	70
57.187859	1.292999	city	5	1	0.952273	0.952273	0	1	0	0	CorrectCommission	1.008303	0.651297	1	0	70
57.834358	9.050176	break	0	1	1.205830	1.205830	0	0	0	0	ThoughtProbe	0.176448	0.646106	1	70	70
67.524399	1.279736	city	3	1	1.143894	1.143894	0	1	0	0	CorrectCommission	0.379642	0.640585	1	0	6.917647e+01
68.804070	1.279599	city	2	1	1.250231	1.250231	0	1	0	0	CorrectCommission	0.030780	0.635961	1	0	6.835294e+01
70.084396	1.281051	mountain	10	1	0.967672	0.967672	0	0	1	0	CommissionError	0.957783	0.633384	1	0	6.752941e+01
71.363899	1.277955	city	8	1	1.251957	1.251957	0	1	0	0	CorrectCommission	0.025116	0.633689	1	0	6.670588e+01
72.642738	1.279731	city	7	1	1.351339	1.351339	0	1	0	0	CorrectCommission	0.300932	0.637426	1	0	6.588235e+01
73.922401	1.279591	city	6	1	1.449129	1.449129	0	1	0	0	CorrectCommission	0.621757	0.644810	1	0	6.505882e+01
75.208557	1.292727	city	10	1	1.949430	1.949430	0	1	0	0	CorrectCommission	2.263117	0.655762	1	0	6.423529e+01
76.514793	1.319740	city	4	1	1.501628	1.501628	0	1	0	0	CorrectCommission	0.793991	0.669996	1	0	6.341176e+01
77.814323	1.279321	city	9	1	1.259874	1.259874	0	1	0	0	CorrectCommission	0.000859	0.687112	1	0	6.258824e+01
79.093903	1.279836	city	6	1	1.187290	1.187290	0	1	0	0	CorrectCommission	0.237271	0.706578	1	0	6.176471e+01
80.373596	1.279555	mountain	8	1	1.253514	1.253514	0	0	1	0	CommissionError	0.020008	0.727790	1	0	6.094118e+01
81.659836	1.292925	city	2	1	1.680564	1.680564	0	1	0	0	CorrectCommission	1.381035	0.750096	1	0	6.011765e+01
82.946091	1.279582	city	6	1	1.309091	1.309091	0	1	0	0	CorrectCommission	0.162327	0.772859	1	0	5.929412e+01
84.225662	1.279560	city	8	1	1.025568	1.025568	0	1	0	0	CorrectCommission	0.767840	0.795657	0	0	5.847059e+01
85.505157	1.279426	city	3	1	0.756640	0.756640	0	1	0	0	CorrectCommission	1.650127	0.818301	0	0	5.764706e+01
86.791321	1.292894	city	6	1	0.867836	0.867836	0	1	0	0	CorrectCommission	1.285320	0.840938	0	0	5.682353e+01
88.077599	1.279676	city	10	1	1.663103	1.663103	0	1	0	0	CorrectCommission	1.323752	0.864081	0	0	56
89.357277	1.279666	city	6	1	1.398992	1.398992	0	1	0	0	CorrectCommission	0.457268	0.888462	0	0	5.517647e+01
90.656891	1.319570	city	10	1	1.461137	1.461137	0	1	0	0	CorrectCommission	0.661153	0.914857	0	0	5.435294e+01
91.983124	1.332898	city	6	1	1.479552	1.479552	0	1	0	0	CorrectCommission	0.721567	0.943780	0	0	5.352941e+01
93.302597	1.306051	city	4	1	1.115539	1.115539	0	1	0	0	CorrectCommission	0.472668	0.975183	0	0	5.270588e+01
94.595428	1.279602	city	6	1	0.919315	0.919315	0	1	0	0	CorrectCommission	1.116429	1.008287	0	0	5.188235e+01
95.875092	1.279738	city	9	1	1.077774	1.077774	0	1	0	0	CorrectCommission	0.596568	1.041431	0	0	5.105882e+01
97.161377	1.292820	city	4	1	1.089046	1.089046	0	1	0	0	CorrectCommission	0.559586	1.072247	0	0	5.023529e+01
98.448273	1.280985	city	8	1	0.753307	0.753307	0	1	0	0	CorrectCommission	1.661062	1.097830	0	0	4.941176e+01
99.727890	1.278241	city	3	1	0.983773	0.983773	0	1	0	0	CorrectCommission	0.904961	1.115175	0	0	4.858824e+01
101.006798	1.279581	city	2	1	0.654390	0.654390	0	1	0	0	CorrectCommission	1.985583	1.121724	0	0	4.776471e+01
102.286385	1.279591	city	9	1	0.699218	0.699218	0	1	0	0	CorrectCommission	1.838514	1.115749	0	0	4.694118e+01
103.565926	1.279480	city	4	1	0.721232	0.721232	0	1	0	0	CorrectCommission	1.766291	1.096736	0	0	4.611765e+01
104.852127	1.292925	city	7	1	0.576658	0.576658	0	1	0	0	CorrectCommission	2.240603	1.065572	0	0	4.529412e+01
106.138420	1.279670	city	3	1	1.629091	1.629091	0	1	0	0	CorrectCommission	1.212166	1.024485	0	0	4.447059e+01
107.424622	1.292722	city	10	1	1.259544	1.259544	0	1	0	0	CorrectCommission	0.000225	0.976777	0	0	4.364706e+01
108.737518	1.333075	city	1	1	1.111587	1.111587	0	1	0	0	CorrectCommission	0.485633	0.926395	0	0	4.282353e+01
109.404053	10.476539	break	0	1	1.081008	1.081008	0	0	0	0	ThoughtProbe	0.585958	0.877334	0	42	42
120.527046	1.292900	city	5	0	0.000000	1.092785	0	0	0	1	OmissionError	0.547317	0.833238	0	0	4.165000e+01
121.819962	1.292936	city	7	1	1.107747	1.107747	0	1	0	0	CorrectCommission	0.498234	0.796939	0	0	4.130000e+01
123.106224	1.279583	city	6	1	1.086716	1.086716	0	1	0	0	CorrectCommission	0.567229	0.770186	1	0	4.095000e+01
124.392456	1.292893	city	10	1	1.039793	1.039793	0	1	0	0	CorrectCommission	0.721172	0.753552	1	0	4.060000e+01
125.691933	1.306059	city	6	1	0.936931	0.936931	0	1	0	0	CorrectCommission	1.058638	0.746475	1	0	4.025000e+01
126.991524	1.293123	city	5	0	0.000000	1.208846	0	0	0	1	OmissionError	0.166551	0.747404	1	0	3.990000e+01
128.277847	1.279531	city	3	1	1.461188	1.461188	0	1	0	0	CorrectCommission	0.661318	0.754101	1	0	3.955000e+01
129.557343	1.279436	mountain	6	1	1.299602	1.299602	0	0	1	0	CommissionError	0.131197	0.763922	1	0	3.920000e+01
130.843506	1.292915	mountain	9	1	1.726835	1.726835	0	0	1	0	CommissionError	1.532841	0.774200	1	0	3.885000e+01
132.129837	1.279730	city	4	1	1.512977	1.512977	0	1	0	0	CorrectCommission	0.831226	0.782558	1	0	3.850000e+01
133.416077	1.292760	city	10	1	1.139165	1.139165	0	1	0	0	CorrectCommission	0.395156	0.787306	1	0	3.815000e+01
134.702286	1.279640	city	3	1	0.752608	0.752608	0	1	0	0	CorrectCommission	1.663354	0.787619	1	0	3.780000e+01
136.001923	1.319655	city	1	1	1.788832	1.788832	0	1	0	0	CorrectCommission	1.736236	0.783603	1	0	3.745000e+01
137.314789	1.306054	city	4	1	1.547325	1.547325	0	1	0	0	CorrectCommission	0.943911	0.776369	1	0	3.710000e+01
138.620956	1.306287	city	6	1	1.323387	1.323387	0	1	0	0	CorrectCommission	0.209229	0.767802	1	0	3.675000e+01
139.933884	1.319572	city	1	1	1.074075	1.074075	0	1	0	0	CorrectCommission	0.608703	0.760271	1	0	3.640000e+01
141.233521	1.279704	city	5	1	1.124338	1.124338	0	1	0	0	CorrectCommission	0.443802	0.756246	1	0	3.605000e+01
142.513092	1.279430	city	2	1	1.458213	1.458213	0	1	0	0	CorrectCommission	0.651558	0.757932	1	0	3.570000e+01
143.792664	1.279727	city	5	1	1.284355	1.284355	0	1	0	0	CorrectCommission	0.081172	0.766952	1	0	3.535000e+01
145.078888	1.292725	city	8	1	1.090855	1.090855	0	1	0	0	CorrectCommission	0.553651	0.784154	1	0	35
146.371765	1.293005	city	5	1	1.083921	1.083921	0	1	0	0	CorrectCommission	0.576399	0.809421	0	0	3.465000e+01
147.658081	1.279645	city	7	1	1.031860	1.031860	0	1	0	0	CorrectCommission	0.747200	0.841814	0	0	3.430000e+01
148.937622	1.279442	city	4	1	1.508827	1.508827	0	1	0	0	CorrectCommission	0.817611	0.879688	0	0	3.395000e+01
150.217209	1.279721	city	6	1	1.797691	1.797691	0	1	0	0	CorrectCommission	1.765301	0.920933	0	0	3.360000e+01
151.510178	1.306225	city	7	1	1.430128	1.430128	0	1	0	0	CorrectCommission	0.559419	0.963225	0	0	3.325000e+01
152.809738	1.292894	city	3	1	1.005339	1.005339	0	1	0	0	CorrectCommission	0.834206	1.004345	0	0	3.290000e+01
154.095947	1.279528	city	9	1	0.752667	0.752667	0	1	0	0	CorrectCommission	1.663159	1.042354	0	0	3.255000e+01
155.388885	1.306333	city	4	1	1.059970	1.059970	0	1	0	0	CorrectCommission	0.654977	1.075778	0	0	3.220000e+01
156.681778	1.279461	city	9	1	0.804209	0.804209	0	1	0	0	CorrectCommission	1.494063	1.103739	0	0	3.185000e+01
157.968018	1.293026	city	8	1	0.785950	0.785950	0	1	0	0	CorrectCommission	1.553966	1.125897	0	0	3.150000e+01
159.254227	1.279388	mountain	8	0	0.000000	0.924450	1	0	0	0	CorrectOmission	1.099585	1.142441	0	0	3.115000e+01
160.540390	1.292940	city	6	1	0.993726	0.993726	0	1	0	0	CorrectCommission	0.872307	1.153984	0	0	3.080000e+01
161.826721	1.279712	city	8	1	0.767799	0.767799	0	1	0	0	CorrectCommission	1.613518	1.161383	0	0	3.045000e+01
163.112946	1.292748	city	6	1	0.848133	0.848133	0	1	0	0	CorrectCommission	1.349961	1.165550	0	0	3.010000e+01
164.399109	1.279580	city	2	1	0.915965	0.915965	0	1	0	0	CorrectCommission	1.127421	1.167309	0	0	2.975000e+01
165.678696	1.279581	city	8	1	0.974541	0.974541	0	1	0	0	CorrectCommission	0.935247	1.167213	0	0	2.940000e+01
166.965012	1.293060	city	3	1	1.085040	1.085040	0	1	0	0	CorrectCommission	0.572727	1.165537	0	0	2.905000e+01
168.264618	1.306157	city	9	1	0.891275	0.891275	0	1	0	0	CorrectCommission	1.208422	1.162212	0	0	2.870000e+01
169.557541	1.279666	city	6	1	0.765386	0.765386	0	1	0	0	CorrectCommission	1.621433	1.156944	0	0	2.835000e+01
170.197372	9.343504	break	0	0	0.000000	1.236797	0	0	0	0	ThoughtProbe	0.074852	1.149382	0	28	28
180.187378	1.293017	city	6	1	1.793894	1.793894	0	1	0	0	CorrectCommission	1.752842	1.139365	0	0	2.835294e+01
181.473633	1.279487	city	4	0	0.000000	1.925060	0	0	0	1	OmissionError	2.183167	1.127004	0	0	2.870588e+01
182.753128	1.279485	city	2	1	1.804154	1.804154	0	1	0	0	CorrectCommission	1.786505	1.112860	0	0	2.905882e+01
184.052719	1.319717	city	6	1	1.605032	1.605032	0	1	0	0	CorrectCommission	1.133235	1.097931	0	0	2.941176e+01
185.352737	1.280304	city	7	1	1.236273	1.236273	0	1	0	0	CorrectCommission	0.076570	1.083529	0	0	2.976471e+01
186.645584	1.305386	city	3	1	0.938091	0.938091	0	1	0	0	CorrectCommission	1.054832	1.071084	0	0	3.011765e+01
187.951477	1.306398	city	6	1	1.059073	1.059073	0	1	0	0	CorrectCommission	0.657918	1.061832	0	0	3.047059e+01
189.251114	1.292888	city	4	1	0.880676	0.880676	0	1	0	0	CorrectCommission	1.243197	1.056661	0	0	3.082353e+01
190.537262	1.279421	mountain	2	0	0.000000	1.177483	1	0	0	0	CorrectOmission	0.269447	1.055922	0	0	3.117647e+01
191.823502	1.293034	city	6	1	1.549103	1.549103	0	1	0	0	CorrectCommission	0.949745	1.059463	0	0	3.152941e+01
193.123138	1.306252	city	5	1	1.595143	1.595143	0	1	0	0	CorrectCommission	1.100792	1.066653	0	0	3.188235e+01
194.416000	1.279479	city	9	1	1.040269	1.040269	0	1	0	0	CorrectCommission	0.719610	1.076601	0	0	3.223529e+01
195.702271	1.293046	city	2	1	1.882275	1.882275	0	1	0	0	CorrectCommission	2.042800	1.088358	0	0	3.258824e+01
196.988480	1.279393	city	6	1	1.887536	1.887536	0	1	0	0	CorrectCommission	2.060059	1.101070	0	0	3.294118e+01
198.267975	1.279602	city	8	1	1.311074	1.311074	0	1	0	0	CorrectCommission	0.168831	1.114098	0	0	3.329412e+01
199.560898	1.306235	city	5	1	1.826618	1.826618	0	1	0	0	CorrectCommission	1.860201	1.127034	0	0	3.364706e+01
200.867203	1.306378	mountain	5	0	0.000000	1.489171	1	0	0	0	CorrectOmission	0.753125	1.139477	0	0	34
202.166855	1.292907	city	3	1	0.992350	0.992350	0	1	0	0	CorrectCommission	0.876820	1.150993	0	0	3.435294e+01
203.453110	1.279604	city	6	1	1.029770	1.029770	0	1	0	0	CorrectCommission	0.754056	1.160860	0	0	3.470588e+01
204.732651	1.279482	city	9	1	1.348045	1.348045	0	1	0	0	CorrectCommission	0.290125	1.167996	0	0	3.505882e+01
206.038834	1.332878	city	3	1	1.802894	1.802894	0	1	0	0	CorrectCommission	1.782370	1.170968	0	0	3.541176e+01
207.365097	1.319657	city	2	1	1.716392	1.716392	0	1	0	0	CorrectCommission	1.498580	1.168145	0	0	3.576471e+01
208.678040	1.306236	city	6	1	1.648956	1.648956	0	1	0	0	CorrectCommission	1.277339	1.157960	0	0	3.611765e+01
209.984161	1.305994	city	8	1	1.685943	1.685943	0	1	0	0	CorrectCommission	1.398685	1.139217	0	0	3.647059e+01
211.283646	1.292991	city	9	1	2.112115	2.112115	0	1	0	0	CorrectCommission	2.796848	1.111367	0	0	3.682353e+01
212.590012	1.319725	city	7	1	1.615970	1.615970	0	1	0	0	CorrectCommission	1.169119	1.074710	0	0	3.717647e+01
213.902924	1.306116	city	3	1	1.205482	1.205482	0	1	0	0	CorrectCommission	0.177587	1.030582	0	0	3.752941e+01
215.195847	1.279717	city	9	1	0.915633	0.915633	0	1	0	0	CorrectCommission	1.128511	0.981177	0	0	3.788235e+01
216.488800	1.306184	city	4	1	1.098821	1.098821	0	1	0	0	CorrectCommission	0.527518	0.929376	0	0	3.823529e+01
217.795029	1.306273	city	8	1	0.939210	0.939210	0	1	0	0	CorrectCommission	1.051161	0.878504	0	0	3.858824e+01
219.114532	1.332756	city	2	1	1.675933	1.675933	0	1	0	0	CorrectCommission	1.365844	0.831942	0	0	3.894118e+01
220.434097	1.306373	city	1	1	1.200831	1.200831	0	1	0	0	CorrectCommission	0.192848	0.792762	0	0	3.929412e+01
221.733673	1.292774	city	8	1	1.088336	1.088336	0	1	0	0	CorrectCommission	0.561913	0.763413	1	0	3.964706e+01
225.732346	6.704575	break	0	1	1.097066	1.097066	0	0	0	0	ThoughtProbe	0.533274	0.745368	1	40	40
229.724457	1.279625	city	6	0	0.000000	1.221026	0	0	0	1	OmissionError	0.126592	0.738991	1	0	3.978261e+01
231.017288	1.306049	city	1	1	1.284606	1.284606	0	1	0	0	CorrectCommission	0.081999	0.743442	1	0	3.956522e+01
232.323517	1.306401	city	9	1	1.112196	1.112196	0	1	0	0	CorrectCommission	0.483637	0.756828	1	0	3.934783e+01
233.643158	1.332896	city	5	1	1.100396	1.100396	0	1	0	0	CorrectCommission	0.522349	0.776403	1	0	3.913043e+01
234.962662	1.306091	city	9	1	0.979990	0.979990	0	1	0	0	CorrectCommission	0.917369	0.799004	0	0	3.891304e+01
236.262161	1.292915	city	8	1	0.927671	0.927671	0	1	0	0	CorrectCommission	1.089018	0.821465	0	0	3.869565e+01
237.575150	1.333059	city	3	1	1.789785	1.789785	0	1	0	0	CorrectCommission	1.739364	0.841067	0	0	3.847826e+01
238.888046	1.292750	city	5	1	1.724677	1.724677	0	1	0	0	CorrectCommission	1.525760	0.855882	0	0	3.826087e+01
240.174286	1.279731	city	8	1	1.688371	1.688371	0	1	0	0	CorrectCommission	1.406650	0.864944	0	0	3.804348e+01
241.453934	1.279557	mountain	2	0	0.000000	1.432406	1	0	0	0	CorrectOmission	0.566891	0.868253	0	0	3.782609e+01
242.733505	1.279578	city	4	1	1.129640	1.129640	0	1	0	0	CorrectCommission	0.426409	0.866604	0	0	3.760870e+01
244.019669	1.292754	city	10	1	0.952931	0.952931	0	1	0	0	CorrectCommission	1.006143	0.861278	0	0	3.739130e+01
245.312592	1.293087	city	2	1	1.090921	1.090921	0	1	0	0	CorrectCommission	0.553433	0.853630	0	0	3.717391e+01
246.625488	1.332719	city	6	1	1.098155	1.098155	0	1	0	0	CorrectCommission	0.529700	0.844844	0	0	3.695652e+01
247.938339	1.292984	mountain	8	1	0.942827	0.942827	0	0	1	0	CommissionError	1.039293	0.835677	0	0	3.673913e+01
249.224670	1.279658	city	4	1	1.400364	1.400364	0	1	0	0	CorrectCommission	0.461771	0.826330	0	0	3.652174e+01
250.510956	1.292924	city	6	1	1.045484	1.045484	0	1	0	0	CorrectCommission	0.702501	0.816587	0	0	3.630435e+01
251.797195	1.279558	mountain	6	0	0.000000	0.918165	1	0	0	0	CorrectOmission	1.120203	0.805964	0	0	3.608696e+01
253.083389	1.292838	city	6	1	1.156803	1.156803	0	1	0	0	CorrectCommission	0.337293	0.794013	0	0	3.586957e+01
254.369644	1.279672	city	9	1	1.899793	1.899793	0	1	0	0	CorrectCommission	2.100271	0.780652	1	0	3.565217e+01
255.655945	1.292907	city	10	1	1.473911	1.473911	0	1	0	0	CorrectCommission	0.703060	0.766317	1	0	3.543478e+01
256.955505	1.306236	mountain	3	0	0.000000	1.118542	1	0	0	0	CorrectOmission	0.462818	0.752178	1	0	3.521739e+01
258.248322	1.279394	city	6	1	0.923839	0.923839	0	1	0	0	CorrectCommission	1.101588	0.739989	1	0	35
259.527893	1.279747	city	1	1	0.979958	0.979958	0	1	0	0	CorrectCommission	0.917476	0.731879	1	0	3.478261e+01
260.807587	1.279604	city	10	1	1.404549	1.404549	0	1	0	0	CorrectCommission	0.475500	0.730024	1	0	3.456522e+01
262.087158	1.279557	city	5	1	1.377716	1.377716	0	1	0	0	CorrectCommission	0.387469	0.736237	1	0	3.434783e+01
263.373322	1.292767	city	9	1	1.297737	1.297737	0	1	0	0	CorrectCommission	0.125078	0.751519	1	0	3.413043e+01
264.666229	1.293045	city	7	1	1.215788	1.215788	0	1	0	0	CorrectCommission	0.143776	0.775821	1	0	3.391304e+01
265.952545	1.279581	city	10	1	1.289254	1.289254	0	1	0	0	CorrectCommission	0.097248	0.807894	0	0	3.369565e+01
267.265411	1.346181	city	1	1	1.282936	1.282936	0	1	0	0	CorrectCommission	0.076519	0.845428	0	0	3.347826e+01
268.578308	1.279602	city	2	1	1.671958	1.671958	0	1	0	0	CorrectCommission	1.352801	0.885348	0	0	3.326087e+01
269.857849	1.279465	city	7	1	1.769323	1.769323	0	1	0	0	CorrectCommission	1.672234	0.924269	0	0	3.304348e+01
271.137390	1.279609	city	10	1	1.737451	1.737451	0	1	0	0	CorrectCommission	1.567667	0.959020	0	0	3.282609e+01
272.423615	1.292872	city	3	1	1.893444	1.893444	0	1	0	0	CorrectCommission	2.079441	0.987067	0	0	3.260870e+01
273.729919	1.319725	city	2	1	1.778504	1.778504	0	1	0	0	CorrectCommission	1.702353	1.006772	0	0	3.239130e+01
275.036163	1.292796	city	4	1	1.578099	1.578099	0	1	0	0	CorrectCommission	1.044875	1.017509	0	0	3.217391e+01
276.322418	1.279673	city	10	1	1.351911	1.351911	0	1	0	0	CorrectCommission	0.302810	1.019519	0	0	3.195652e+01
277.608643	1.292817	city	4	1	1.460819	1.460819	0	1	0	0	CorrectCommission	0.660107	1.013673	0	0	3.173913e+01
278.908234	1.306340	city	8	1	1.222778	1.222778	0	1	0	0	CorrectCommission	0.120844	1.001179	0	0	3.152174e+01
280.214508	1.306223	city	1	1	0.898472	0.898472	0	1	0	0	CorrectCommission	1.184810	0.983339	0	0	3.130435e+01
281.507324	1.279420	city	10	1	0.698132	0.698132	0	1	0	0	CorrectCommission	1.842077	0.961364	0	0	3.108696e+01
282.793579	1.293062	city	8	1	1.626578	1.626578	0	1	0	0	CorrectCommission	1.203921	0.936337	0	0	3.086957e+01
284.093231	1.306261	city	5	0	0.000000	1.516217	0	0	0	1	OmissionError	0.841855	0.909325	0	0	3.065217e+01
285.392761	1.292771	city	8	1	1.030655	1.030655	0	1	0	0	CorrectCommission	0.751150	0.881419	0	0	3.043478e+01
286.678894	1.279505	city	5	1	0.833500	0.833500	0	1	0	0	CorrectCommission	1.397967	0.853770	0	0	3.021739e+01
287.318634	8.037398	break	0	0	0.000000	1.156715	0	0	0	0	ThoughtProbe	0.337580	0.827670	0	30	30
295.995911	1.279724	city	1	1	1.530876	1.530876	0	1	0	0	CorrectCommission	0.889949	0.804543	0	0	3.020000e+01
297.282166	1.292768	city	10	1	1.486559	1.486559	0	1	0	0	CorrectCommission	0.744555	0.785814	1	0	3.040000e+01
298.574982	1.292908	city	4	1	1.418150	1.418150	0	1	0	0	CorrectCommission	0.520122	0.772797	1	0	3.060000e+01
299.867981	1.293047	city	2	1	1.199610	1.199610	0	1	0	0	CorrectCommission	0.196855	0.766559	1	0	3.080000e+01
301.160858	1.292762	city	8	1	1.022225	1.022225	0	1	0	0	CorrectCommission	0.778808	0.767793	1	0	31
302.460449	1.306408	city	1	1	1.100552	1.100552	0	1	0	0	CorrectCommission	0.521839	0.776719	1	0	3.120000e+01
303.753387	1.279429	city	2	1	0.978536	0.978536	0	1	0	0	CorrectCommission	0.922141	0.793041	0	0	3.140000e+01
305.046265	1.306376	city	6	1	1.085055	1.085055	0	1	0	0	CorrectCommission	0.572678	0.815946	0	0	3.160000e+01
306.345825	1.292740	city	7	1	0.993006	0.993006	0	1	0	0	CorrectCommission	0.874668	0.844212	0	0	3.180000e+01
307.638733	1.293069	city	9	1	1.525168	1.525168	0	1	0	0	CorrectCommission	0.871220	0.876226	0	0	32
308.931641	1.292738	city	2	1	1.115113	1.115113	0	1	0	0	CorrectCommission	0.474065	0.910175	0	0	3.220000e+01
310.231201	1.306403	city	4	1	1.768580	1.768580	0	1	0	0	CorrectCommission	1.669793	0.944174	0	0	3.240000e+01
311.544128	1.319434	mountain	5	0	0.000000	1.684877	1	0	0	0	CorrectOmission	1.395186	0.976371	0	0	3.260000e+01
312.843719	1.279729	mountain	1	1	1.301132	1.301132	0	0	1	0	CommissionError	0.136216	1.005122	0	0	3.280000e+01
314.129974	1.292775	city	3	0	0.000000	1.054472	0	0	0	1	OmissionError	0.673015	1.029193	0	0	33
315.429535	1.306372	city	9	1	0.833029	0.833029	0	1	0	0	CorrectCommission	1.399512	1.047772	0	0	3.320000e+01
316.742340	1.319247	city	7	1	0.524938	0.524938	0	1	0	0	CorrectCommission	2.410281	1.060628	0	0	3.340000e+01
318.055145	1.306373	city	2	1	1.058755	1.058755	0	1	0	0	CorrectCommission	0.658964	1.068156	0	0	3.360000e+01
319.354889	1.293110	city	8	1	0.779274	0.779274	0	1	0	0	CorrectCommission	1.575870	1.071431	0	0	3.380000e+01
320.647888	1.292880	mountain	9	1	0.978278	0.978278	0	0	1	0	CommissionError	0.922987	1.071962	0	0	34
321.940796	1.292922	city	5	1	1.750697	1.750697	0	1	0	0	CorrectCommission	1.611125	1.071594	0	0	3.420000e+01
323.233704	1.292907	city	3	1	1.403909	1.403909	0	1	0	0	CorrectCommission	0.473400	1.072205	0	0	3.440000e+01
324.533203	1.306078	city	9	1	1.167321	1.167321	0	1	0	0	CorrectCommission	0.302785	1.075474	0	0	3.460000e+01
325.852753	1.333050	city	1	1	1.133036	1.133036	0	1	0	0	CorrectCommission	0.415264	1.082575	0	0	3.480000e+01
327.159088	1.279582	city	10	1	0.866529	0.866529	0	1	0	0	CorrectCommission	1.289609	1.093991	0	0	35
328.445312	1.292880	city	9	1	0.884306	0.884306	0	1	0	0	CorrectCommission	1.231286	1.109420	0	0	3.520000e+01
329.744781	1.306075	city	6	1	0.874304	0.874304	0	1	0	0	CorrectCommission	1.264101	1.127765	0	0	3.540000e+01
331.070953	1.346235	city	5	1	0.624521	0.624521	0	1	0	0	CorrectCommission	2.083576	1.147207	0	0	3.560000e+01
332.397186	1.306231	city	1	1	1.142762	1.142762	0	1	0	0	CorrectCommission	0.383358	1.165318	0	0	3.580000e+01
333.690155	1.279743	city	5	1	1.568033	1.568033	0	1	0	0	CorrectCommission	1.011851	1.179332	0	0	36
334.976501	1.292921	city	3	1	1.670787	1.670787	0	1	0	0	CorrectCommission	1.348960	1.186285	0	0	3.620000e+01
336.269409	1.292890	city	7	1	1.574530	1.574530	0	1	0	0	CorrectCommission	1.033165	1.183376	0	0	3.640000e+01
337.568939	1.306158	city	1	1	1.427801	1.427801	0	1	0	0	CorrectCommission	0.551785	1.168323	0	0	3.660000e+01
338.881836	1.319666	city	8	1	2.033816	2.033816	0	1	0	0	CorrectCommission	2.539968	1.139637	0	0	3.680000e+01
340.188049	1.292726	city	9	1	1.893002	1.893002	0	1	0	0	CorrectCommission	2.077993	1.096889	0	0	37
341.494263	1.319728	city	4	1	1.839960	1.839960	0	1	0	0	CorrectCommission	1.903973	1.040971	0	0	3.720000e+01
342.820557	1.332866	city	6	1	1.575003	1.575003	0	1	0	0	CorrectCommission	1.034718	0.974039	0	0	3.740000e+01
344.153473	1.332943	city	3	1	1.685470	1.685470	0	1	0	0	CorrectCommission	1.397133	0.899340	0	0	3.760000e+01
345.493042	1.346220	city	8	1	1.250988	1.250988	0	1	0	0	CorrectCommission	0.028293	0.820817	0	0	3.780000e+01
346.166168	9.503521	break	0	0	0.000000	1.167226	0	0	0	0	ThoughtProbe	0.303096	0.742743	1	38	38
356.316071	1.292768	city	10	0	0.000000	1.269071	0	0	0	1	OmissionError	0.031031	0.669107	1	0	3.782353e+01
357.602264	1.279662	city	7	1	1.391409	1.391409	0	1	0	0	CorrectCommission	0.432393	0.603239	1	0	3.764706e+01
358.888550	1.292907	city	8	1	1.369129	1.369129	0	1	0	0	CorrectCommission	0.359296	0.547417	1	0	3.747059e+01
360.214752	1.359451	city	9	1	1.255319	1.255319	0	1	0	0	CorrectCommission	0.014084	0.502783	1	0	3.729412e+01
361.534332	1.279742	city	7	1	1.368997	1.368997	0	1	0	0	CorrectCommission	0.358862	0.469328	1	0	3.711765e+01
362.847321	1.346246	mountain	7	1	1.155617	1.155617	0	0	1	0	CommissionError	0.341183	0.446084	1	0	3.694118e+01
364.166809	1.292725	city	8	1	1.350523	1.350523	0	1	0	0	CorrectCommission	0.298253	0.431426	1	0	3.676471e+01
365.452972	1.279604	city	4	1	1.478215	1.478215	0	1	0	0	CorrectCommission	0.717179	0.423444	1	0	3.658824e+01
366.752625	1.319703	city	5	1	1.079110	1.079110	0	1	0	0	CorrectCommission	0.592182	0.420315	1	0	3.641176e+01
368.065643	1.306289	city	2	1	1.200942	1.200942	0	1	0	0	CorrectCommission	0.192483	0.420615	1	0	3.623529e+01
369.371857	1.306183	city	4	1	1.151534	1.151534	0	1	0	0	CorrectCommission	0.354577	0.423560	1	0	3.605882e+01
370.671417	1.292913	city	9	1	0.939259	0.939259	0	1	0	0	CorrectCommission	1.050998	0.429029	1	0	3.588235e+01
371.957581	1.279439	city	10	1	1.354847	1.354847	0	1	0	0	CorrectCommission	0.312440	0.437509	1	0	3.570588e+01
373.250488	1.306378	city	6	1	1.435315	1.435315	0	1	0	0	CorrectCommission	0.576435	0.449915	1	0	3.552941e+01
374.550140	1.292903	city	4	0	0.000000	1.282202	0	0	0	1	OmissionError	0.074110	0.467272	1	0	3.535294e+01
375.863037	1.332892	city	7	1	1.124077	1.124077	0	1	0	0	CorrectCommission	0.444658	0.490349	1	0	3.517647e+01
377.169250	1.279519	city	4	1	1.189509	1.189509	0	1	0	0	CorrectCommission	0.229992	0.519345	1	0	35
378.448761	1.279501	mountain	4	0	0.000000	1.258028	1	0	0	0	CorrectOmission	0.005198	0.553668	1	0	3.482353e+01
379.735016	1.293048	city	4	1	1.316625	1.316625	0	1	0	0	CorrectCommission	0.187042	0.591871	1	0	3.464706e+01
381.028015	1.292934	city	8	1	1.352288	1.352288	0	1	0	0	CorrectCommission	0.304045	0.631677	1	0	3.447059e+01
382.327515	1.306075	city	3	1	0.990380	0.990380	0	1	0	0	CorrectCommission	0.883284	0.670290	1	0	3.429412e+01
383.653717	1.346312	city	10	1	1.460795	1.460795	0	1	0	0	CorrectCommission	0.660029	0.704772	1	0	3.411765e+01
384.973358	1.292959	city	1	1	1.698279	1.698279	0	1	0	0	CorrectCommission	1.439156	0.732511	1	0	3.394118e+01
386.272949	1.306244	city	8	1	1.661327	1.661327	0	1	0	0	CorrectCommission	1.317926	0.751620	1	0	3.376471e+01
387.599152	1.346140	city	2	1	1.866564	1.866564	0	1	0	0	CorrectCommission	1.991256	0.761268	1	0	3.358824e+01
388.925293	1.306149	city	4	1	1.679705	1.679705	0	1	0	0	CorrectCommission	1.378217	0.761770	1	0	3.341176e+01
390.258240	1.359769	city	8	1	1.140464	1.140464	0	1	0	0	CorrectCommission	0.390898	0.754522	1	0	3.323529e+01
391.597900	1.319517	city	7	1	1.177200	1.177200	0	1	0	0	CorrectCommission	0.270375	0.741688	1	0	3.305882e+01
392.897369	1.279431	city	9	1	1.124713	1.124713	0	1	0	0	CorrectCommission	0.442570	0.725763	1	0	3.288235e+01
394.183533	1.292905	city	2	1	1.240614	1.240614	0	1	0	0	CorrectCommission	0.062328	0.709175	1	0	3.270588e+01
395.476501	1.293049	city	3	1	1.159346	1.159346	0	1	0	0	CorrectCommission	0.328948	0.693956	1	0	3.252941e+01
396.762787	1.279515	city	10	1	0.979857	0.979857	0	1	0	0	CorrectCommission	0.917806	0.681493	1	0	3.235294e+01
398.049042	1.292984	city	4	1	1.384286	1.384286	0	1	0	0	CorrectCommission	0.409024	0.672486	1	0	3.217647e+01
402.220978	7.050865	break	0	0	0.000000	1.563827	0	0	0	0	ThoughtProbe	0.998051	0.667038	1	32	32
406.392853	1.292893	mountain	9	0	0.000000	1.556223	1	0	0	0	CorrectOmission	0.973103	0.664831	1	0	3.165217e+01
407.699158	1.319749	city	8	1	1.399216	1.399216	0	1	0	0	CorrectCommission	0.458006	0.665317	1	0	3.130435e+01
409.025482	1.332894	city	1	1	1.130552	1.130552	0	1	0	0	CorrectCommission	0.423416	0.667926	1	0	3.095652e+01
410.351715	1.319560	city	6	1	1.698187	1.698187	0	1	0	0	CorrectCommission	1.438853	0.672160	1	0	3.060870e+01
411.671204	1.319440	city	8	1	1.485754	1.485754	0	1	0	0	CorrectCommission	0.741914	0.677603	1	0	3.026087e+01
412.977448	1.293019	mountain	5	1	1.298304	1.298304	0	0	1	0	CommissionError	0.126938	0.683917	1	0	2.991304e+01
414.263733	1.279576	city	4	1	1.550579	1.550579	0	1	0	0	CorrectCommission	0.954589	0.690763	1	0	2.956522e+01
415.543304	1.279532	city	2	1	1.237441	1.237441	0	1	0	0	CorrectCommission	0.072739	0.697718	1	0	2.921739e+01
416.836151	1.306167	city	9	1	1.156743	1.156743	0	1	0	0	CorrectCommission	0.337489	0.704323	1	0	2.886957e+01
418.142426	1.306389	city	6	1	1.164666	1.164666	0	1	0	0	CorrectCommission	0.311494	0.710103	1	0	2.852174e+01
419.441986	1.292711	city	5	1	1.044249	1.044249	0	1	0	0	CorrectCommission	0.706554	0.714725	1	0	2.817391e+01
420.728210	1.279764	city	8	1	1.924668	1.924668	0	1	0	0	CorrectCommission	2.181880	0.718170	1	0	2.782609e+01
422.014526	1.292883	city	5	0	0.000000	1.824466	0	0	0	1	OmissionError	1.853144	0.720812	1	0	2.747826e+01
423.307373	1.292823	city	4	1	1.374944	1.374944	0	1	0	0	CorrectCommission	0.378373	0.723520	1	0	2.713043e+01
424.600220	1.292834	city	1	1	1.207400	1.207400	0	1	0	0	CorrectCommission	0.171295	0.727552	1	0	2.678261e+01
425.899841	1.306405	city	2	1	1.103093	1.103093	0	1	0	0	CorrectCommission	0.513501	0.734277	1	0	2.643478e+01
427.199493	1.292903	mountain	6	0	0.000000	1.232555	1	0	0	0	CorrectOmission	0.088768	0.744896	1	0	2.608696e+01
428.492401	1.292926	city	7	1	1.394020	1.394020	0	1	0	0	CorrectCommission	0.440959	0.760202	1	0	2.573913e+01
429.791962	1.306206	city	4	1	1.385722	1.385722	0	1	0	0	CorrectCommission	0.413734	0.780300	1	0	2.539130e+01
431.104858	1.319599	city	9	1	1.645037	1.645037	0	1	0	0	CorrectCommission	1.264481	0.804522	0	0	2.504348e+01
432.411102	1.292889	city	3	1	1.372673	1.372673	0	1	0	0	CorrectCommission	0.370924	0.831479	0	0	2.469565e+01
433.717346	1.319584	city	4	1	1.410125	1.410125	0	1	0	0	CorrectCommission	0.493794	0.859266	0	0	2.434783e+01
435.036926	1.319567	city	6	1	1.818133	1.818133	0	1	0	0	CorrectCommission	1.832364	0.885679	0	0	24
436.363098	1.332783	city	8	0	0.000000	1.730706	0	0	0	1	OmissionError	1.545541	0.908527	0	0	2.365217e+01
437.669250	1.279534	city	6	0	0.000000	1.375294	0	0	0	1	OmissionError	0.379521	0.925961	0	0	2.330435e+01
438.968872	1.319697	city	3	1	0.979341	0.979341	0	1	0	0	CorrectCommission	0.919499	0.936651	0	0	2.295652e+01
440.268524	1.279603	city	7	1	0.770297	0.770297	0	1	0	0	CorrectCommission	1.605323	0.939847	0	0	2.260870e+01
441.554779	1.292907	city	2	1	0.695747	0.695747	0	1	0	0	CorrectCommission	1.849900	0.935437	0	0	2.226087e+01
442.840942	1.279419	mountain	8	0	0.000000	1.022290	1	0	0	0	CorrectOmission	0.778595	0.923824	0	0	2.191304e+01
444.147095	1.332859	city	9	1	1.302943	1.302943	0	1	0	0	CorrectCommission	0.142155	0.905859	0	0	2.156522e+01
445.460083	1.293115	city	8	1	1.090722	1.090722	0	1	0	0	CorrectCommission	0.554089	0.882617	0	0	2.121739e+01
446.759735	1.306206	city	2	1	1.010424	1.010424	0	1	0	0	CorrectCommission	0.817526	0.855278	0	0	2.086957e+01
448.065887	1.306099	city	1	1	0.943609	0.943609	0	1	0	0	CorrectCommission	1.036726	0.825085	0	0	2.052174e+01
449.365479	1.293070	city	7	1	0.879321	0.879321	0	1	0	0	CorrectCommission	1.247640	0.793328	0	0	2.017391e+01
450.665100	1.306215	city	5	1	0.986923	0.986923	0	1	0	0	CorrectCommission	0.894625	0.761397	1	0	1.982609e+01
451.977905	1.319402	city	4	1	1.071055	1.071055	0	1	0	0	CorrectCommission	0.618608	0.730802	1	0	1.947826e+01
453.310822	1.346410	city	7	1	0.951531	0.951531	0	1	0	0	CorrectCommission	1.010739	0.703147	1	0	1.913043e+01
454.637146	1.306211	city	1	1	1.004832	1.004832	0	1	0	0	CorrectCommission	0.835872	0.680054	1	0	1.878261e+01
455.949951	1.319411	city	7	1	1.278137	1.278137	0	1	0	0	CorrectCommission	0.060776	0.663069	1	0	1.843478e+01
457.256195	1.293061	city	10	1	1.191730	1.191730	0	1	0	0	CorrectCommission	0.222704	0.653484	1	0	1.808696e+01
458.575745	1.346066	city	9	1	1.178301	1.178301	0	1	0	0	CorrectCommission	0.266762	0.652149	1	0	1.773913e+01
459.895264	1.293000	city	6	1	1.193934	1.193934	0	1	0	0	CorrectCommission	0.215475	0.659336	1	0	1.739130e+01
461.194916	1.306305	city	7	1	1.154337	1.154337	0	1	0	0	CorrectCommission	0.345382	0.674683	1	0	1.704348e+01
462.494537	1.292934	city	4	1	1.580731	1.580731	0	1	0	0	CorrectCommission	1.053508	0.697182	1	0	1.669565e+01
463.809052	1.336045	city	1	1	1.699588	1.699588	0	1	0	0	CorrectCommission	1.443449	0.725248	1	0	1.634783e+01
467.880951	6.807775	break	0	0	0.000000	1.387337	0	0	0	0	ThoughtProbe	0.419033	0.756864	1	16	16
471.964691	1.359697	city	10	1	1.120465	1.120465	0	1	0	0	CorrectCommission	0.456507	0.789821	0	0	1.647500e+01
473.290985	1.292900	city	6	0	0.000000	1.375458	0	0	0	1	OmissionError	0.380061	0.821818	0	0	1.695000e+01
474.590576	1.306268	city	3	1	1.700274	1.700274	0	1	0	0	CorrectCommission	1.445699	0.850677	0	0	1.742500e+01
475.910065	1.332732	city	10	1	1.642869	1.642869	0	1	0	0	CorrectCommission	1.257369	0.874501	0	0	1.790000e+01
477.243011	1.333129	city	3	1	1.518064	1.518064	0	1	0	0	CorrectCommission	0.847916	0.891916	0	0	1.837500e+01
478.582581	1.346033	city	4	1	1.369147	1.369147	0	1	0	0	CorrectCommission	0.359357	0.902158	0	0	1.885000e+01
479.908752	1.306324	mountain	10	0	0.000000	0.835936	1	0	0	0	CorrectOmission	1.389975	0.905155	0	0	1.932500e+01
481.208344	1.292834	city	3	1	0.484781	0.484781	0	1	0	0	CorrectCommission	2.542028	0.901499	0	0	1.980000e+01
482.541168	1.372819	mountain	4	1	0.882030	0.882030	0	0	1	0	CommissionError	1.238752	0.892354	0	0	2.027500e+01
483.887421	1.319725	city	6	1	1.272218	1.272218	0	1	0	0	CorrectCommission	0.041355	0.879331	0	0	2.075000e+01
485.193665	1.292752	city	10	1	1.235664	1.235664	0	1	0	0	CorrectCommission	0.078570	0.864234	0	0	2.122500e+01
486.499817	1.319517	city	1	1	1.152845	1.152845	0	1	0	0	CorrectCommission	0.350277	0.848809	0	0	2.170000e+01
487.806061	1.292969	city	3	1	1.477997	1.477997	0	1	0	0	CorrectCommission	0.716465	0.834551	0	0	2.217500e+01
489.099060	1.293055	city	5	1	1.671400	1.671400	0	1	0	0	CorrectCommission	1.350970	0.822572	0	0	2.265000e+01
490.418701	1.346231	city	7	1	1.703691	1.703691	0	1	0	0	CorrectCommission	1.456911	0.813530	0	0	2.312500e+01
491.778168	1.372720	city	2	1	1.489796	1.489796	0	1	0	0	CorrectCommission	0.755175	0.807607	0	0	2.360000e+01
493.144318	1.359529	city	8	1	1.279087	1.279087	0	1	0	0	CorrectCommission	0.063890	0.804550	0	0	2.407500e+01
494.483917	1.319726	mountain	6	0	0.000000	1.103860	1	0	0	0	CorrectOmission	0.510984	0.803736	0	0	2.455000e+01
495.790253	1.292910	city	2	1	1.176839	1.176839	0	1	0	0	CorrectCommission	0.271560	0.804227	0	0	2.502500e+01
497.076477	1.279570	city	10	1	1.710744	1.710744	0	1	0	0	CorrectCommission	1.480051	0.804887	0	0	2.550000e+01
498.382660	1.332791	city	2	1	1.736580	1.736580	0	1	0	0	CorrectCommission	1.564811	0.804439	0	0	2.597500e+01
499.715576	1.333005	city	10	1	1.593396	1.593396	0	1	0	0	CorrectCommission	1.095060	0.801626	0	0	2.645000e+01
501.075195	1.386238	city	9	1	1.342808	1.342808	0	1	0	0	CorrectCommission	0.272945	0.795271	0	0	2.692500e+01
502.421417	1.306235	city	3	1	1.115497	1.115497	0	1	0	0	CorrectCommission	0.472807	0.784384	1	0	2.740000e+01
503.747559	1.346054	city	7	1	1.296212	1.296212	0	1	0	0	CorrectCommission	0.120075	0.768200	1	0	2.787500e+01
505.093781	1.346366	city	10	1	0.969927	0.969927	0	1	0	0	CorrectCommission	0.950385	0.746281	1	0	2.835000e+01
506.406769	1.279579	city	1	1	1.901288	1.901288	0	1	0	0	CorrectCommission	2.105175	0.718527	1	0	2.882500e+01
507.713013	1.332922	city	2	0	0.000000	1.647996	0	0	0	1	OmissionError	1.274190	0.685193	1	0	2.930000e+01
509.039246	1.319538	city	6	1	1.093635	1.093635	0	1	0	0	CorrectCommission	0.544530	0.646859	1	0	2.977500e+01
510.358795	1.319590	city	10	1	1.121785	1.121785	0	1	0	0	CorrectCommission	0.452178	0.604269	1	0	3.025000e+01
511.658386	1.279573	city	7	1	1.356035	1.356035	0	1	0	0	CorrectCommission	0.316337	0.558209	1	0	3.072500e+01
512.977966	1.359549	city	4	1	1.284339	1.284339	0	1	0	0	CorrectCommission	0.081120	0.509359	1	0	3.120000e+01
514.304199	1.292916	city	5	0	0.000000	1.337244	0	0	0	1	OmissionError	0.254689	0.458152	1	0	3.167500e+01
515.603638	1.306062	city	4	1	1.353047	1.353047	0	1	0	0	CorrectCommission	0.306535	0.404718	1	0	3.215000e+01
516.923218	1.333066	city	5	1	1.170045	1.170045	0	1	0	0	CorrectCommission	0.293850	0.348980	1	0	3.262500e+01
518.242859	1.306219	city	4	1	1.212735	1.212735	0	1	0	0	CorrectCommission	0.153793	0.290782	1	0	3.310000e+01
519.555786	1.319570	city	3	1	1.009457	1.009457	0	1	0	0	CorrectCommission	0.820698	0.230052	1	0	3.357500e+01
520.862000	1.292902	city	9	1	1.597176	1.597176	0	1	0	0	CorrectCommission	1.107462	0.166972	1	0	3.405000e+01
522.174805	1.332744	city	7	1	1.433901	1.433901	0	1	0	0	CorrectCommission	0.571797	0.102058	1	0	3.452500e+01
526.080200	6.478000	break	0	0	0.000000	1.270626	0	0	0	0	ThoughtProbe	0.036133	0.036133	1	35	35
