onset	duration	trial_type	image_type	Press	ReactionTime	ReactionTime_Interpolated	CorrectOmission	CorrectCommission	CommissionError	OmissionError	response_type	nonsmoothVarianceTimeCourse	VarianceTimeCourse	In_the_Zone	ThoughtProbe	ThoughtProbe_Interpolated
0.653149	1.279403	mountain	5	1	1.713925	1.713925	0	0	1	0	CommissionError	0.513379	0.513379	1	0	51
1.932626	1.279550	city	9	1	1.500046	1.500046	0	1	0	0	CorrectCommission	0.204503	0.495419	1	0	51
3.212275	1.279748	city	5	1	1.360098	1.360098	0	1	0	0	CorrectCommission	0.674236	0.478671	1	0	51
4.491867	1.279435	city	1	1	1.738575	1.738575	0	1	0	0	CorrectCommission	0.596118	0.464278	1	0	51
5.784782	1.306396	city	6	1	1.427960	1.427960	0	1	0	0	CorrectCommission	0.446457	0.453293	1	0	51
7.077771	1.279582	city	3	1	1.608647	1.608647	0	1	0	0	CorrectCommission	0.160018	0.446605	1	0	51
8.357340	1.279555	mountain	3	0	0.000000	1.606036	1	0	0	0	CorrectOmission	0.151252	0.444852	1	0	51
9.636907	1.279579	city	8	1	1.497670	1.497670	0	1	0	0	CorrectCommission	0.212475	0.448380	1	0	51
10.916486	1.279579	city	7	1	1.361096	1.361096	0	1	0	0	CorrectCommission	0.670886	0.457229	1	0	51
12.196085	1.279619	city	2	1	1.420645	1.420645	0	1	0	0	CorrectCommission	0.471009	0.471063	1	0	51
13.495657	1.319525	city	7	1	1.596351	1.596351	0	1	0	0	CorrectCommission	0.118746	0.489223	1	0	51
14.795221	1.279603	city	10	1	1.463110	1.463110	0	1	0	0	CorrectCommission	0.328477	0.510770	1	0	51
16.074814	1.279582	city	5	1	1.712137	1.712137	0	1	0	0	CorrectCommission	0.507378	0.534552	1	0	51
17.354340	1.279470	mountain	5	0	0.000000	1.830202	1	0	0	0	CorrectOmission	0.903661	0.559299	1	0	51
18.633909	1.279667	city	9	1	1.827418	1.827418	0	1	0	0	CorrectCommission	0.894317	0.583718	1	0	51
19.913460	1.279435	city	2	1	1.713898	1.713898	0	1	0	0	CorrectCommission	0.513289	0.606592	1	0	51
21.193039	1.279722	city	4	1	1.567730	1.567730	0	1	0	0	CorrectCommission	0.022677	0.626879	1	0	51
22.472687	1.279575	city	6	1	1.234446	1.234446	0	1	0	0	CorrectCommission	1.095984	0.643771	1	0	51
23.752274	1.279599	city	2	1	1.303656	1.303656	0	1	0	0	CorrectCommission	0.863681	0.656689	1	0	51
25.038534	1.292920	city	10	1	1.176118	1.176118	0	1	0	0	CorrectCommission	1.291761	0.665363	1	0	51
26.324699	1.279412	city	9	1	1.683495	1.683495	0	1	0	0	CorrectCommission	0.411241	0.669806	1	0	51
27.604185	1.279558	city	3	1	1.343508	1.343508	0	1	0	0	CorrectCommission	0.729919	0.670348	1	0	51
28.883753	1.279579	city	2	1	1.566252	1.566252	0	1	0	0	CorrectCommission	0.017719	0.667547	1	0	51
30.163328	1.279570	city	7	1	1.835049	1.835049	0	1	0	0	CorrectCommission	0.919931	0.662275	1	0	51
31.442911	1.279598	city	3	0	0.000000	1.876569	0	0	0	1	OmissionError	1.059292	0.655592	1	0	51
32.722492	1.279566	city	2	1	1.765925	1.765925	0	1	0	0	CorrectCommission	0.687917	0.648777	1	0	51
34.002159	1.279766	city	5	1	1.578230	1.578230	0	1	0	0	CorrectCommission	0.057921	0.643305	1	0	51
35.281830	1.279576	city	3	1	2.081345	2.081345	0	1	0	0	CorrectCommission	1.746622	0.640697	1	0	51
36.561363	1.279486	city	8	1	1.658039	1.658039	0	1	0	0	CorrectCommission	0.325800	0.642380	1	0	51
37.854187	1.306169	mountain	5	0	0.000000	1.515877	1	0	0	0	CorrectOmission	0.151364	0.649626	1	0	51
39.147118	1.279689	city	9	1	1.593909	1.593909	0	1	0	0	CorrectCommission	0.110547	0.663297	1	0	51
40.446674	1.319429	city	3	1	1.831181	1.831181	0	1	0	0	CorrectCommission	0.906949	0.683698	1	0	51
41.746181	1.279581	city	9	1	1.676178	1.676178	0	1	0	0	CorrectCommission	0.386683	0.710482	1	0	51
43.025841	1.279739	city	2	1	1.544727	1.544727	0	1	0	0	CorrectCommission	0.054532	0.742648	1	0	51
44.332161	1.332901	city	5	1	1.656008	1.656008	0	1	0	0	CorrectCommission	0.318983	0.778579	1	0	51
45.638409	1.279597	city	4	0	0.000000	1.171548	0	0	0	1	OmissionError	1.307100	0.816170	0	0	51
46.931236	1.306060	city	3	1	0.969970	0.969970	0	1	0	0	CorrectCommission	1.983694	0.853017	0	0	51
48.224136	1.279734	city	4	1	1.929897	1.929897	0	1	0	0	CorrectCommission	1.238289	0.886666	0	0	51
49.503803	1.279602	city	10	0	0.000000	1.713249	0	0	0	1	OmissionError	0.511110	0.914842	0	0	51
50.796715	1.306219	city	8	1	1.391626	1.391626	0	1	0	0	CorrectCommission	0.568413	0.935549	0	0	51
52.096210	1.292775	city	7	1	2.036630	2.036630	0	1	0	0	CorrectCommission	1.596536	0.947235	0	0	51
53.395718	1.306236	city	6	0	0.000000	1.505768	0	0	0	1	OmissionError	0.185297	0.948939	0	0	51
54.708691	1.319714	city	3	1	1.058507	1.058507	0	1	0	0	CorrectCommission	1.686522	0.940456	0	0	51
56.008339	1.279583	city	10	1	1.954318	1.954318	0	1	0	0	CorrectCommission	1.320255	0.922329	0	0	51
57.294491	1.292722	city	3	0	0.000000	1.374678	0	0	0	1	OmissionError	0.625297	0.895983	0	0	51
57.940853	8.077551	break	0	1	0.790546	0.790546	0	0	0	0	ThoughtProbe	2.585929	0.863660	0	51	51
66.658119	1.279424	city	6	1	1.672878	1.672878	0	1	0	0	CorrectCommission	0.375607	0.828213	0	0	5.108824e+01
67.937614	1.279577	city	10	1	1.461345	1.461345	0	1	0	0	CorrectCommission	0.334400	0.792995	1	0	5.117647e+01
69.217178	1.279552	city	8	1	1.419192	1.419192	0	1	0	0	CorrectCommission	0.475887	0.761382	1	0	5.126471e+01
70.516739	1.319557	city	9	1	1.820054	1.820054	0	1	0	0	CorrectCommission	0.869600	0.736358	1	0	5.135294e+01
71.816391	1.279751	city	4	1	1.591967	1.591967	0	1	0	0	CorrectCommission	0.104029	0.720144	1	0	5.144118e+01
73.109367	1.306212	mountain	2	0	0.000000	1.504498	1	0	0	0	CorrectOmission	0.189559	0.713855	1	0	5.152941e+01
74.408928	1.292908	city	9	1	1.473722	1.473722	0	1	0	0	CorrectCommission	0.292857	0.717267	1	0	5.161765e+01
75.695145	1.279518	city	10	1	1.415715	1.415715	0	1	0	0	CorrectCommission	0.487557	0.728822	1	0	5.170588e+01
76.987984	1.306163	city	1	1	1.610373	1.610373	0	1	0	0	CorrectCommission	0.165809	0.745835	1	0	5.179412e+01
78.287598	1.293062	city	5	1	1.628921	1.628921	0	1	0	0	CorrectCommission	0.228066	0.764897	1	0	5.188235e+01
79.573822	1.279396	city	6	0	0.000000	1.130081	0	0	0	1	OmissionError	1.446286	0.782365	1	0	5.197059e+01
80.853355	1.279665	city	5	1	0.763325	0.763325	0	1	0	0	CorrectCommission	2.677296	0.794875	1	0	5.205882e+01
82.139709	1.293044	city	2	1	1.178128	1.178128	0	1	0	0	CorrectCommission	1.285017	0.799853	0	0	5.214706e+01
83.426003	1.279542	city	5	1	1.662749	1.662749	0	1	0	0	CorrectCommission	0.341608	0.795910	1	0	5.223529e+01
84.705482	1.279417	city	1	1	1.940653	1.940653	0	1	0	0	CorrectCommission	1.274390	0.782951	1	0	5.232353e+01
85.991638	1.292887	city	3	1	1.776050	1.776050	0	1	0	0	CorrectCommission	0.721901	0.762032	1	0	5.241176e+01
87.284615	1.293074	city	4	1	1.869177	1.869177	0	1	0	0	CorrectCommission	1.034483	0.735184	1	0	5.250000e+01
88.577606	1.292911	city	6	0	0.000000	1.590368	0	0	0	1	OmissionError	0.098664	0.705074	1	0	5.258824e+01
89.863770	1.279410	city	3	1	1.362817	1.362817	0	1	0	0	CorrectCommission	0.665110	0.674592	1	0	5.267647e+01
91.143265	1.279582	city	9	1	1.609717	1.609717	0	1	0	0	CorrectCommission	0.163608	0.646495	1	0	5.276471e+01
92.422943	1.279776	city	3	1	1.679750	1.679750	0	1	0	0	CorrectCommission	0.398673	0.623169	1	0	5.285294e+01
93.702599	1.279542	city	6	1	1.670558	1.670558	0	1	0	0	CorrectCommission	0.367821	0.606395	1	0	5.294118e+01
94.982162	1.279580	mountain	6	0	0.000000	1.753565	1	0	0	0	CorrectOmission	0.646431	0.597334	1	0	5.302941e+01
96.268349	1.292797	city	1	1	1.830864	1.830864	0	1	0	0	CorrectCommission	0.905886	0.596467	1	0	5.311765e+01
97.574509	1.319525	city	4	1	1.804551	1.804551	0	1	0	0	CorrectCommission	0.817565	0.603627	1	0	5.320588e+01
98.874062	1.279568	city	10	1	1.502898	1.502898	0	1	0	0	CorrectCommission	0.194930	0.618021	1	0	5.329412e+01
100.160378	1.293076	city	5	1	1.743390	1.743390	0	1	0	0	CorrectCommission	0.612280	0.638283	1	0	5.338235e+01
101.466660	1.319483	city	8	0	0.000000	1.573821	0	0	0	1	OmissionError	0.043124	0.662482	1	0	5.347059e+01
102.773079	1.293352	city	6	1	1.428757	1.428757	0	1	0	0	CorrectCommission	0.443782	0.688282	1	0	5.355882e+01
104.072617	1.305727	city	5	1	1.742763	1.742763	0	1	0	0	CorrectCommission	0.610175	0.713053	1	0	5.364706e+01
105.372009	1.293054	city	10	1	1.724392	1.724392	0	1	0	0	CorrectCommission	0.548512	0.734118	1	0	5.373529e+01
106.658241	1.279417	city	7	1	1.905015	1.905015	0	1	0	0	CorrectCommission	1.154772	0.749113	1	0	5.382353e+01
107.951149	1.306399	city	1	0	0.000000	1.196180	0	0	0	1	OmissionError	1.224424	0.756276	1	0	5.391176e+01
112.596306	7.983904	break	0	1	0.770643	0.770643	0	0	0	0	ThoughtProbe	2.652734	0.754744	1	54	54
117.228111	1.279713	city	3	1	1.801160	1.801160	0	1	0	0	CorrectCommission	0.806183	0.744749	1	0	5.432353e+01
118.521019	1.306101	city	6	1	1.510952	1.510952	0	1	0	0	CorrectCommission	0.167895	0.727693	1	0	5.464706e+01
119.827263	1.306397	city	2	1	1.395990	1.395990	0	1	0	0	CorrectCommission	0.553765	0.705912	1	0	5.497059e+01
121.140167	1.319405	mountain	3	0	0.000000	1.648714	1	0	0	0	CorrectOmission	0.294501	0.682363	1	0	5.529412e+01
122.446350	1.292967	city	10	1	1.858276	1.858276	0	1	0	0	CorrectCommission	0.997894	0.660266	1	0	5.561765e+01
123.745911	1.306151	city	5	1	1.613828	1.613828	0	1	0	0	CorrectCommission	0.177406	0.642633	1	0	5.594118e+01
125.052200	1.306423	city	1	1	1.330052	1.330052	0	1	0	0	CorrectCommission	0.775086	0.631888	1	0	5.626471e+01
126.351776	1.292729	city	9	1	1.646370	1.646370	0	1	0	0	CorrectCommission	0.286633	0.629505	1	0	5.658824e+01
127.644684	1.293084	city	6	1	1.540541	1.540541	0	1	0	0	CorrectCommission	0.068580	0.635837	1	0	5.691176e+01
128.937592	1.292726	city	5	1	1.634499	1.634499	0	1	0	0	CorrectCommission	0.246787	0.650073	1	0	5.723529e+01
130.223831	1.279760	mountain	3	0	0.000000	1.680661	1	0	0	0	CorrectOmission	0.401730	0.670372	1	0	5.755882e+01
131.503448	1.279470	city	8	1	1.624578	1.624578	0	1	0	0	CorrectCommission	0.213490	0.694156	1	0	5.788235e+01
132.782974	1.279581	city	1	1	1.411801	1.411801	0	1	0	0	CorrectCommission	0.500695	0.718515	1	0	5.820588e+01
134.075867	1.306207	city	5	0	0.000000	0.961430	0	0	0	1	OmissionError	2.012361	0.740644	1	0	5.852941e+01
135.382080	1.306229	city	2	1	0.805692	0.805692	0	1	0	0	CorrectCommission	2.535092	0.758195	1	0	5.885294e+01
136.675064	1.279730	city	6	1	1.476816	1.476816	0	1	0	0	CorrectCommission	0.282473	0.769599	1	0	5.917647e+01
137.954712	1.279570	city	9	1	1.325644	1.325644	0	1	0	0	CorrectCommission	0.789882	0.774208	1	0	5.950000e+01
139.240936	1.292893	city	1	0	0.000000	1.418231	0	0	0	1	OmissionError	0.479113	0.772148	1	0	5.982353e+01
140.540466	1.306157	city	10	1	1.632228	1.632228	0	1	0	0	CorrectCommission	0.239167	0.764221	1	0	6.014706e+01
141.859955	1.332813	city	3	1	1.845287	1.845287	0	1	0	0	CorrectCommission	0.954296	0.751634	1	0	6.047059e+01
143.192932	1.333145	city	5	1	1.749342	1.749342	0	1	0	0	CorrectCommission	0.632256	0.735716	1	0	6.079412e+01
144.505829	1.292659	city	6	1	2.053696	2.053696	0	1	0	0	CorrectCommission	1.653816	0.717704	1	0	6.111765e+01
145.792053	1.279766	city	2	1	1.570054	1.570054	0	1	0	0	CorrectCommission	0.030480	0.698607	1	0	6.144118e+01
147.071732	1.279591	city	5	1	1.404764	1.404764	0	1	0	0	CorrectCommission	0.524314	0.679207	1	0	6.176471e+01
148.364624	1.306206	city	6	1	1.495179	1.495179	0	1	0	0	CorrectCommission	0.220839	0.659969	1	0	6.208824e+01
149.670761	1.306072	city	4	1	1.315679	1.315679	0	1	0	0	CorrectCommission	0.823326	0.641176	1	0	6.241176e+01
150.983627	1.319646	city	10	1	1.182906	1.182906	0	1	0	0	CorrectCommission	1.268979	0.623020	1	0	6.273529e+01
152.283279	1.279680	city	9	1	1.780274	1.780274	0	1	0	0	CorrectCommission	0.736082	0.605737	1	0	6.305882e+01
153.582932	1.319604	city	3	1	1.664164	1.664164	0	1	0	0	CorrectCommission	0.346358	0.589680	1	0	6.338235e+01
154.882462	1.279481	city	4	1	1.732652	1.732652	0	1	0	0	CorrectCommission	0.576237	0.575368	1	0	6.370588e+01
156.168610	1.292801	city	9	1	1.650900	1.650900	0	1	0	0	CorrectCommission	0.301839	0.563455	1	0	6.402941e+01
157.461548	1.293074	city	10	1	1.476484	1.476484	0	1	0	0	CorrectCommission	0.283586	0.554698	1	0	6.435294e+01
158.747787	1.279405	city	3	1	1.764129	1.764129	0	1	0	0	CorrectCommission	0.681890	0.549855	1	0	6.467647e+01
162.953033	7.131102	break	0	0	0.000000	1.805653	0	0	0	0	ThoughtProbe	0.821266	0.549576	1	65	65
167.171738	1.306300	mountain	4	0	0.000000	1.714099	1	0	0	0	CorrectOmission	0.513965	0.554277	1	0	6.484783e+01
168.477921	1.306073	city	6	1	1.602507	1.602507	0	1	0	0	CorrectCommission	0.139409	0.564079	1	0	6.469565e+01
169.784149	1.306376	city	7	1	1.583920	1.583920	0	1	0	0	CorrectCommission	0.077020	0.578708	1	0	6.454348e+01
171.083710	1.292752	city	6	1	1.447838	1.447838	0	1	0	0	CorrectCommission	0.379738	0.597525	1	0	6.439130e+01
172.383286	1.306400	city	5	1	1.217253	1.217253	0	1	0	0	CorrectCommission	1.153693	0.619531	1	0	6.423913e+01
173.676208	1.279433	city	9	1	1.351351	1.351351	0	1	0	0	CorrectCommission	0.703594	0.643466	1	0	6.408696e+01
174.955795	1.279739	city	2	1	1.469508	1.469508	0	1	0	0	CorrectCommission	0.307003	0.667937	1	0	6.393478e+01
176.248734	1.306146	mountain	3	0	0.000000	1.727028	1	0	0	0	CorrectOmission	0.557360	0.691549	1	0	6.378261e+01
177.541550	1.279494	mountain	7	0	0.000000	1.940650	1	0	0	0	CorrectOmission	1.274379	0.713089	1	0	6.363043e+01
178.821243	1.279870	city	7	1	1.927111	1.927111	0	1	0	0	CorrectCommission	1.228938	0.731630	1	0	6.347826e+01
180.107590	1.292826	city	8	0	0.000000	1.503151	0	0	0	1	OmissionError	0.194081	0.746709	1	0	6.332609e+01
181.393692	1.279389	city	6	1	1.285226	1.285226	0	1	0	0	CorrectCommission	0.925542	0.758350	1	0	6.317391e+01
182.673248	1.279738	city	9	1	1.889796	1.889796	0	1	0	0	CorrectCommission	1.103688	0.767036	1	0	6.302174e+01
183.966248	1.306238	city	7	1	1.810799	1.810799	0	1	0	0	CorrectCommission	0.838536	0.773676	1	0	6.286957e+01
185.285797	1.332872	city	4	0	0.000000	1.810063	0	0	0	1	OmissionError	0.836068	0.779468	1	0	6.271739e+01
186.591949	1.279420	city	1	1	1.737650	1.737650	0	1	0	0	CorrectCommission	0.593012	0.785723	1	0	6.256522e+01
187.884857	1.306418	city	8	1	1.443617	1.443617	0	1	0	0	CorrectCommission	0.393904	0.793671	1	0	6.241304e+01
189.191101	1.306064	city	9	1	1.847421	1.847421	0	1	0	0	CorrectCommission	0.961457	0.804230	0	0	6.226087e+01
190.510574	1.332888	city	10	1	1.914789	1.914789	0	1	0	0	CorrectCommission	1.187579	0.817804	0	0	6.210870e+01
191.836807	1.319567	city	4	0	0.000000	1.559096	0	0	0	1	OmissionError	0.006302	0.834160	0	0	6.195652e+01
193.163055	1.332923	city	3	1	1.233481	1.233481	0	1	0	0	CorrectCommission	1.099223	0.852402	0	0	6.180435e+01
194.469391	1.279752	city	6	1	1.391086	1.391086	0	1	0	0	CorrectCommission	0.570224	0.870967	0	0	6.165217e+01
195.755707	1.292891	city	2	1	1.563985	1.563985	0	1	0	0	CorrectCommission	0.010109	0.887867	0	0	6.150000e+01
197.048599	1.292878	city	5	0	0.000000	1.202641	0	0	0	1	OmissionError	1.202738	0.900934	0	0	6.134783e+01
198.348160	1.306243	city	7	1	0.889232	0.889232	0	1	0	0	CorrectCommission	2.254692	0.908147	0	0	6.119565e+01
199.660980	1.319402	city	1	1	1.205935	1.205935	0	1	0	0	CorrectCommission	1.191681	0.908061	0	0	6.104348e+01
200.960556	1.279757	city	10	1	1.346239	1.346239	0	1	0	0	CorrectCommission	0.720754	0.900148	0	0	6.089130e+01
202.253540	1.306219	city	2	0	0.000000	1.167251	0	0	0	1	OmissionError	1.321525	0.884978	0	0	6.073913e+01
203.586441	1.359578	city	5	1	1.177121	1.177121	0	1	0	0	CorrectCommission	1.288395	0.864268	0	0	6.058696e+01
204.912689	1.292903	city	3	1	1.884000	1.884000	0	1	0	0	CorrectCommission	1.084236	0.840785	0	0	6.043478e+01
206.205597	1.292910	city	5	0	0.000000	1.706985	0	0	0	1	OmissionError	0.490085	0.818009	0	0	6.028261e+01
207.491760	1.279413	city	6	1	1.410275	1.410275	0	1	0	0	CorrectCommission	0.505817	0.799690	0	0	6.013043e+01
208.777908	1.292898	city	9	1	1.758072	1.758072	0	1	0	0	CorrectCommission	0.661559	0.789311	1	0	5.997826e+01
210.084137	1.319548	city	1	1	1.463692	1.463692	0	1	0	0	CorrectCommission	0.326524	0.789548	1	0	5.982609e+01
211.397034	1.306249	city	10	1	1.526491	1.526491	0	1	0	0	CorrectCommission	0.115739	0.801834	0	0	5.967391e+01
212.723282	1.346253	city	8	1	1.661786	1.661786	0	1	0	0	CorrectCommission	0.338376	0.826094	0	0	5.952174e+01
214.042862	1.292892	mountain	8	0	0.000000	1.737119	1	0	0	0	CorrectOmission	0.591231	0.860626	0	0	5.936957e+01
215.335831	1.293049	city	10	1	1.697475	1.697475	0	1	0	0	CorrectCommission	0.458168	0.902294	0	0	5.921739e+01
216.628815	1.292939	city	2	0	0.000000	1.487839	0	0	0	1	OmissionError	0.245475	0.946923	0	0	5.906522e+01
217.914978	1.279385	city	1	1	1.183351	1.183351	0	1	0	0	CorrectCommission	1.267483	0.989820	0	0	5.891304e+01
219.194565	1.279774	city	7	0	0.000000	0.859155	0	0	0	1	OmissionError	2.355645	1.026368	0	0	5.876087e+01
220.480835	1.292765	city	6	1	0.773303	0.773303	0	1	0	0	CorrectCommission	2.643807	1.052649	0	0	5.860870e+01
221.767059	1.279682	city	3	1	1.183848	1.183848	0	1	0	0	CorrectCommission	1.265818	1.065853	0	0	5.845652e+01
223.066650	1.319501	city	4	1	1.784895	1.784895	0	1	0	0	CorrectCommission	0.751592	1.064599	0	0	5.830435e+01
224.372894	1.292984	city	10	0	0.000000	2.011547	0	0	0	1	OmissionError	1.512345	1.048906	0	0	5.815217e+01
225.019379	8.383749	break	0	0	0.000000	1.963475	0	0	0	0	ThoughtProbe	1.350992	1.020014	0	58	58
234.042923	1.279602	city	3	1	1.740352	1.740352	0	1	0	0	CorrectCommission	0.602084	0.980121	0	0	5.817500e+01
235.322556	1.279651	city	4	1	1.441852	1.441852	0	1	0	0	CorrectCommission	0.399829	0.932083	0	0	5.835000e+01
236.608810	1.292847	city	7	1	1.325342	1.325342	0	1	0	0	CorrectCommission	0.790894	0.879055	0	0	5.852500e+01
237.908417	1.306379	city	10	1	1.232258	1.232258	0	1	0	0	CorrectCommission	1.103327	0.824229	0	0	5.870000e+01
239.234634	1.346062	city	9	1	1.234303	1.234303	0	1	0	0	CorrectCommission	1.096465	0.770679	1	0	5.887500e+01
240.554199	1.293053	city	1	1	1.352027	1.352027	0	1	0	0	CorrectCommission	0.701325	0.721231	1	0	5.905000e+01
241.853851	1.306263	mountain	4	0	0.000000	1.388327	1	0	0	0	CorrectOmission	0.579484	0.678393	1	0	5.922500e+01
243.146759	1.279552	city	4	1	1.497932	1.497932	0	1	0	0	CorrectCommission	0.211599	0.644275	1	0	5.940000e+01
244.439682	1.306291	city	6	1	1.835567	1.835567	0	1	0	0	CorrectCommission	0.921671	0.620461	1	0	5.957500e+01
245.745926	1.306176	city	9	1	1.567252	1.567252	0	1	0	0	CorrectCommission	0.021073	0.607946	1	0	5.975000e+01
247.065399	1.332798	city	1	1	1.553838	1.553838	0	1	0	0	CorrectCommission	0.023949	0.607052	1	0	5.992500e+01
248.378311	1.293019	city	6	0	0.000000	1.504907	0	0	0	1	OmissionError	0.188185	0.617376	1	0	6.010000e+01
249.671204	1.292772	city	5	1	1.433650	1.433650	0	1	0	0	CorrectCommission	0.427360	0.637746	1	0	6.027500e+01
250.957367	1.279545	mountain	1	0	0.000000	1.353256	1	0	0	0	CorrectOmission	0.697201	0.666373	1	0	6.045000e+01
252.236938	1.279596	city	7	1	1.342094	1.342094	0	1	0	0	CorrectCommission	0.734667	0.701028	1	0	6.062500e+01
253.516617	1.279750	city	9	1	1.478532	1.478532	0	1	0	0	CorrectCommission	0.276713	0.739288	1	0	6.080000e+01
254.796265	1.279552	city	8	0	0.000000	1.165831	0	0	0	1	OmissionError	1.326290	0.778756	1	0	6.097500e+01
256.095825	1.319590	city	6	1	1.093426	1.093426	0	1	0	0	CorrectCommission	1.569318	0.817294	0	0	6.115000e+01
257.421997	1.332735	city	7	1	1.950752	1.950752	0	1	0	0	CorrectCommission	1.308286	0.853284	0	0	6.132500e+01
258.734894	1.293063	city	8	1	1.409882	1.409882	0	1	0	0	CorrectCommission	0.507135	0.885672	0	0	6.150000e+01
260.021118	1.279399	city	6	1	1.357940	1.357940	0	1	0	0	CorrectCommission	0.681480	0.913948	0	0	6.167500e+01
261.314026	1.306426	city	10	1	1.394300	1.394300	0	1	0	0	CorrectCommission	0.559436	0.938081	0	0	6.185000e+01
262.633667	1.332850	city	1	1	1.886460	1.886460	0	1	0	0	CorrectCommission	1.092492	0.958394	0	0	6.202500e+01
263.946503	1.292771	mountain	9	0	0.000000	2.043702	1	0	0	0	CorrectOmission	1.620273	0.975387	0	0	6.220000e+01
265.246063	1.306390	city	6	1	1.868946	1.868946	0	1	0	0	CorrectCommission	1.033705	0.989593	0	0	6.237500e+01
266.552399	1.306239	city	7	0	0.000000	1.365109	0	0	0	1	OmissionError	0.657416	1.001469	0	0	6.255000e+01
267.845306	1.279604	city	3	1	1.079028	1.079028	0	1	0	0	CorrectCommission	1.617642	1.011263	0	0	6.272500e+01
269.131470	1.292717	city	2	1	1.557539	1.557539	0	1	0	0	CorrectCommission	0.011527	1.018920	0	0	6.290000e+01
270.430939	1.306238	city	4	1	1.934759	1.934759	0	1	0	0	CorrectCommission	1.254608	1.024160	0	0	6.307500e+01
271.730560	1.292972	city	7	0	0.000000	1.328472	0	0	0	1	OmissionError	0.780388	1.026413	0	0	6.325000e+01
273.023560	1.293035	city	1	1	0.829693	0.829693	0	1	0	0	CorrectCommission	2.454533	1.024988	0	0	6.342500e+01
274.316498	1.292882	city	5	1	1.529440	1.529440	0	1	0	0	CorrectCommission	0.105843	1.019151	0	0	6.360000e+01
275.609406	1.292909	city	10	1	1.728254	1.728254	0	1	0	0	CorrectCommission	0.561475	1.008383	0	0	6.377500e+01
276.915558	1.319420	city	4	0	0.000000	1.199665	0	0	0	1	OmissionError	1.212726	0.992392	0	0	6.395000e+01
278.235138	1.319735	city	6	1	0.795961	0.795961	0	1	0	0	CorrectCommission	2.567754	0.971311	0	0	6.412500e+01
279.534790	1.279574	city	5	1	1.369429	1.369429	0	1	0	0	CorrectCommission	0.642917	0.945709	0	0	6.430000e+01
280.827667	1.306148	city	6	1	1.601801	1.601801	0	1	0	0	CorrectCommission	0.137036	0.916687	0	0	6.447500e+01
282.127167	1.292849	city	1	1	2.046114	2.046114	0	1	0	0	CorrectCommission	1.628367	0.885744	0	0	6.465000e+01
283.460052	1.372923	city	7	0	0.000000	1.907102	0	0	0	1	OmissionError	1.161777	0.854558	0	0	6.482500e+01
284.146515	9.064909	break	0	0	0.000000	1.535849	0	0	0	0	ThoughtProbe	0.084331	0.824916	0	65	65
293.850647	1.278443	city	2	1	1.283436	1.283436	0	1	0	0	CorrectCommission	0.931551	0.798491	0	0	6.476471e+01
295.149567	1.319407	city	5	1	1.500946	1.500946	0	1	0	0	CorrectCommission	0.201481	0.776629	1	0	6.452941e+01
296.482391	1.346259	city	9	1	1.540280	1.540280	0	1	0	0	CorrectCommission	0.069458	0.760306	1	0	6.429412e+01
297.795380	1.279729	city	7	1	1.417543	1.417543	0	1	0	0	CorrectCommission	0.481424	0.750038	1	0	6.405882e+01
299.081696	1.292906	mountain	1	0	0.000000	1.135540	1	0	0	0	CorrectOmission	1.427963	0.745859	1	0	6.382353e+01
300.381195	1.306080	city	3	1	1.036320	1.036320	0	1	0	0	CorrectCommission	1.760991	0.747390	1	0	6.358824e+01
301.687347	1.306204	city	5	1	1.461935	1.461935	0	1	0	0	CorrectCommission	0.332422	0.753920	1	0	6.335294e+01
303.000244	1.319572	city	1	1	1.658153	1.658153	0	1	0	0	CorrectCommission	0.326184	0.764472	1	0	6.311765e+01
304.299896	1.279731	city	6	1	1.499529	1.499529	0	1	0	0	CorrectCommission	0.206236	0.777774	1	0	6.288235e+01
305.579559	1.279610	city	10	1	1.716463	1.716463	0	1	0	0	CorrectCommission	0.521900	0.792427	1	0	6.264706e+01
306.879120	1.319530	city	1	1	1.835579	1.835579	0	1	0	0	CorrectCommission	0.921710	0.806884	0	0	6.241176e+01
308.185364	1.292949	city	7	1	1.903012	1.903012	0	1	0	0	CorrectCommission	1.148049	0.819671	0	0	6.217647e+01
309.484955	1.306234	city	9	0	0.000000	1.355471	0	0	0	1	OmissionError	0.689767	0.829450	0	0	6.194118e+01
310.777863	1.279555	city	8	1	1.017859	1.017859	0	1	0	0	CorrectCommission	1.822956	0.835279	0	0	6.170588e+01
312.070740	1.306234	city	7	1	1.715082	1.715082	0	1	0	0	CorrectCommission	0.517263	0.836662	0	0	6.147059e+01
313.363617	1.279510	city	5	0	0.000000	1.363719	0	0	0	1	OmissionError	0.662082	0.833702	0	0	6.123529e+01
314.656433	1.306152	city	6	1	0.925777	0.925777	0	1	0	0	CorrectCommission	2.132028	0.827014	0	0	61
315.955963	1.292898	city	4	1	1.363263	1.363263	0	1	0	0	CorrectCommission	0.663613	0.817677	0	0	6.076471e+01
317.248962	1.293087	city	5	0	0.000000	1.478072	0	0	0	1	OmissionError	0.278258	0.807136	0	0	6.052941e+01
318.541962	1.292917	mountain	2	0	0.000000	1.467370	1	0	0	0	CorrectOmission	0.314179	0.796887	1	0	6.029412e+01
319.828156	1.279480	city	10	1	1.528323	1.528323	0	1	0	0	CorrectCommission	0.109591	0.788306	1	0	6.005882e+01
321.134308	1.332831	city	7	1	1.858096	1.858096	0	1	0	0	CorrectCommission	0.997289	0.782544	1	0	5.982353e+01
322.453949	1.306400	city	9	1	1.981840	1.981840	0	1	0	0	CorrectCommission	1.412634	0.780354	1	0	5.958824e+01
323.780151	1.346031	city	10	0	0.000000	1.691839	0	0	0	1	OmissionError	0.439248	0.782090	1	0	5.935294e+01
325.106323	1.306305	city	4	0	0.000000	1.325300	0	0	0	1	OmissionError	0.791034	0.787744	1	0	5.911765e+01
326.419250	1.319523	city	1	1	1.219434	1.219434	0	1	0	0	CorrectCommission	1.146373	0.796928	1	0	5.888235e+01
327.732117	1.306249	city	2	1	1.711449	1.711449	0	1	0	0	CorrectCommission	0.505069	0.808962	0	0	5.864706e+01
329.051697	1.332913	city	3	1	1.581907	1.581907	0	1	0	0	CorrectCommission	0.070264	0.822969	0	0	5.841176e+01
330.371338	1.306350	city	6	1	1.958266	1.958266	0	1	0	0	CorrectCommission	1.333508	0.837961	0	0	5.817647e+01
331.664276	1.279554	city	2	0	0.000000	1.512447	0	0	0	1	OmissionError	0.162878	0.852886	0	0	5.794118e+01
332.943878	1.279622	city	4	1	1.022599	1.022599	0	1	0	0	CorrectCommission	1.807047	0.866806	0	0	5.770588e+01
334.243378	1.319381	city	5	1	1.266870	1.266870	0	1	0	0	CorrectCommission	0.987154	0.878914	0	0	5.747059e+01
335.549591	1.293063	city	7	1	1.846497	1.846497	0	1	0	0	CorrectCommission	0.958358	0.888708	0	0	5.723529e+01
336.196136	8.863615	break	0	0	0.000000	1.920559	0	0	0	0	ThoughtProbe	1.206944	0.896011	0	57	57
345.706268	1.293051	city	4	1	1.682005	1.682005	0	1	0	0	CorrectCommission	0.406242	0.900982	0	0	5.670000e+01
347.005920	1.306264	city	5	1	1.323788	1.323788	0	1	0	0	CorrectCommission	0.796108	0.904099	0	0	5.640000e+01
348.325409	1.332709	city	4	1	1.822889	1.822889	0	1	0	0	CorrectCommission	0.879116	0.906052	0	0	5.610000e+01
349.651642	1.319719	city	2	0	0.000000	1.990847	0	0	0	1	OmissionError	1.442867	0.907636	0	0	5.580000e+01
350.951202	1.279422	mountain	9	0	0.000000	1.908853	1	0	0	0	CorrectOmission	1.167654	0.909571	0	0	5.550000e+01
352.230774	1.279747	city	7	1	1.658094	1.658094	0	1	0	0	CorrectCommission	0.325984	0.912408	0	0	5.520000e+01
353.543701	1.346078	city	10	0	0.000000	1.319759	0	0	0	1	OmissionError	0.809633	0.916358	0	0	5.490000e+01
354.883179	1.332872	city	5	1	1.167651	1.167651	0	1	0	0	CorrectCommission	1.320183	0.921131	0	0	5.460000e+01
356.189392	1.279593	city	10	1	1.475571	1.475571	0	1	0	0	CorrectCommission	0.286653	0.926000	0	0	5.430000e+01
357.475739	1.293059	city	3	1	1.773217	1.773217	0	1	0	0	CorrectCommission	0.712394	0.929852	0	0	54
358.795288	1.346063	city	5	1	1.714365	1.714365	0	1	0	0	CorrectCommission	0.514857	0.931333	0	0	5.370000e+01
360.121429	1.306236	city	2	0	0.000000	1.243958	0	0	0	1	OmissionError	1.064059	0.929172	0	0	5.340000e+01
361.434357	1.319572	city	10	1	1.120652	1.120652	0	1	0	0	CorrectCommission	1.477934	0.922466	0	0	5.310000e+01
362.733948	1.279608	city	6	1	2.103103	2.103103	0	1	0	0	CorrectCommission	1.819650	0.910964	0	0	5.280000e+01
364.033569	1.319694	mountain	4	0	0.000000	2.098151	1	0	0	0	CorrectOmission	1.803030	0.895252	0	0	5.250000e+01
365.333130	1.279413	city	3	1	1.777924	1.777924	0	1	0	0	CorrectCommission	0.728192	0.876782	0	0	5.220000e+01
366.626038	1.306384	city	4	1	1.814550	1.814550	0	1	0	0	CorrectCommission	0.851128	0.857722	0	0	5.190000e+01
367.932404	1.306364	city	8	1	1.605823	1.605823	0	1	0	0	CorrectCommission	0.150539	0.840668	0	0	5.160000e+01
369.238586	1.306000	city	1	1	1.770829	1.770829	0	1	0	0	CorrectCommission	0.704377	0.828272	0	0	5.130000e+01
370.538116	1.293063	city	2	0	0.000000	1.577227	0	0	0	1	OmissionError	0.054554	0.822812	0	0	51
371.831116	1.292904	city	6	1	1.409823	1.409823	0	1	0	0	CorrectCommission	0.507334	0.825911	0	0	5.070000e+01
373.123932	1.292722	city	3	1	1.653424	1.653424	0	1	0	0	CorrectCommission	0.310310	0.838264	0	0	5.040000e+01
374.423462	1.306393	city	4	1	1.631629	1.631629	0	1	0	0	CorrectCommission	0.237153	0.859633	0	0	5.010000e+01
375.736481	1.319595	city	8	1	1.178121	1.178121	0	1	0	0	CorrectCommission	1.285038	0.888875	0	0	4.980000e+01
377.042725	1.292903	city	9	0	0.000000	0.969338	0	0	0	1	OmissionError	1.985815	0.924066	0	0	4.950000e+01
378.335602	1.292885	city	2	1	1.067412	1.067412	0	1	0	0	CorrectCommission	1.656631	0.962706	0	0	4.920000e+01
379.621857	1.279582	mountain	4	0	0.000000	1.534476	1	0	0	0	CorrectOmission	0.088938	1.001934	0	0	4.890000e+01
380.908081	1.292912	city	3	1	1.917861	1.917861	0	1	0	0	CorrectCommission	1.197890	1.038670	0	0	4.860000e+01
382.207642	1.306163	city	6	1	1.764901	1.764901	0	1	0	0	CorrectCommission	0.684480	1.069695	0	0	4.830000e+01
383.513794	1.306162	city	5	1	1.755080	1.755080	0	1	0	0	CorrectCommission	0.651518	1.091915	0	0	48
384.813416	1.293072	city	8	0	0.000000	1.431787	0	0	0	1	OmissionError	0.433613	1.102588	0	0	4.770000e+01
386.106415	1.292916	city	10	1	1.023564	1.023564	0	1	0	0	CorrectCommission	1.803808	1.099594	0	0	4.740000e+01
387.405975	1.306231	city	9	0	0.000000	0.758955	0	0	0	1	OmissionError	2.691963	1.081743	0	0	4.710000e+01
388.712219	1.306242	city	7	1	0.769813	0.769813	0	1	0	0	CorrectCommission	2.655518	1.049025	0	0	4.680000e+01
390.018433	1.306207	city	5	1	1.187990	1.187990	0	1	0	0	CorrectCommission	1.251915	1.002767	0	0	4.650000e+01
391.311279	1.279473	city	7	0	0.000000	1.345672	0	0	0	1	OmissionError	0.722658	0.945581	0	0	4.620000e+01
392.617523	1.333032	city	9	1	1.495390	1.495390	0	1	0	0	CorrectCommission	0.220131	0.881085	0	0	4.590000e+01
393.937073	1.306052	city	1	1	1.889674	1.889674	0	1	0	0	CorrectCommission	1.103279	0.813562	0	0	4.560000e+01
395.243317	1.306417	city	6	1	1.658022	1.658022	0	1	0	0	CorrectCommission	0.325741	0.747381	1	0	4.530000e+01
395.896515	9.530259	break	0	0	0.000000	1.542751	0	0	0	0	ThoughtProbe	0.061161	0.686643	1	45	45
406.079834	1.306090	city	5	1	1.543397	1.543397	0	1	0	0	CorrectCommission	0.058995	0.634703	1	0	4.517391e+01
407.386017	1.306305	mountain	4	0	0.000000	1.659492	1	0	0	0	CorrectOmission	0.330675	0.593965	1	0	4.534783e+01
408.685547	1.292768	city	6	1	1.733518	1.733518	0	1	0	0	CorrectCommission	0.579145	0.565780	1	0	4.552174e+01
409.985138	1.306404	city	8	1	1.607960	1.607960	0	1	0	0	CorrectCommission	0.157711	0.550527	1	0	4.569565e+01
411.291473	1.306237	city	5	1	1.646308	1.646308	0	1	0	0	CorrectCommission	0.286423	0.547812	1	0	4.586957e+01
412.610931	1.332706	city	9	1	1.966398	1.966398	0	1	0	0	CorrectCommission	1.360802	0.556622	1	0	4.604348e+01
413.937164	1.319752	city	8	0	0.000000	1.737723	0	0	0	1	OmissionError	0.593258	0.575529	1	0	4.621739e+01
415.250061	1.306054	city	1	1	1.450917	1.450917	0	1	0	0	CorrectCommission	0.369403	0.602878	1	0	4.639130e+01
416.562958	1.319750	city	4	1	1.596614	1.596614	0	1	0	0	CorrectCommission	0.119626	0.636864	1	0	4.656522e+01
417.862640	1.279576	city	3	1	1.434373	1.434373	0	1	0	0	CorrectCommission	0.424932	0.675502	1	0	4.673913e+01
419.155457	1.306069	city	10	1	1.641008	1.641008	0	1	0	0	CorrectCommission	0.268634	0.716653	1	0	4.691304e+01
420.494934	1.372892	city	5	1	1.940649	1.940649	0	1	0	0	CorrectCommission	1.274376	0.758054	1	0	4.708696e+01
421.841156	1.319545	city	10	1	1.802673	1.802673	0	1	0	0	CorrectCommission	0.811262	0.797374	1	0	4.726087e+01
423.147369	1.292910	mountain	8	0	0.000000	1.875989	1	0	0	0	CorrectOmission	1.057347	0.832363	0	0	4.743478e+01
424.440369	1.293067	city	7	1	1.816302	1.816302	0	1	0	0	CorrectCommission	0.857009	0.860967	0	0	4.760870e+01
425.760040	1.346270	city	4	0	0.000000	1.279318	0	0	0	1	OmissionError	0.945374	0.881584	0	0	4.778261e+01
427.092926	1.319491	city	10	1	0.997482	0.997482	0	1	0	0	CorrectCommission	1.891352	0.893268	0	0	4.795652e+01
428.392395	1.279467	city	2	1	1.703243	1.703243	0	1	0	0	CorrectCommission	0.477525	0.895839	0	0	4.813043e+01
429.705322	1.346362	city	4	0	0.000000	1.951794	0	0	0	1	OmissionError	1.311783	0.889999	0	0	4.830435e+01
431.024872	1.292754	city	6	1	1.949091	1.949091	0	1	0	0	CorrectCommission	1.302713	0.877230	0	0	4.847826e+01
432.351105	1.359726	mountain	3	0	0.000000	1.901092	1	0	0	0	CorrectOmission	1.141605	0.859746	0	0	4.865217e+01
433.677338	1.292724	city	2	1	1.791298	1.791298	0	1	0	0	CorrectCommission	0.773083	0.840251	0	0	4.882609e+01
434.976807	1.306236	city	8	1	1.603211	1.603211	0	1	0	0	CorrectCommission	0.141772	0.821640	0	0	49
436.289795	1.319762	city	4	1	1.788431	1.788431	0	1	0	0	CorrectCommission	0.763459	0.806664	0	0	4.917391e+01
437.609406	1.319400	city	7	1	1.642167	1.642167	0	1	0	0	CorrectCommission	0.272524	0.797594	1	0	4.934783e+01
438.942230	1.346263	city	8	1	1.376390	1.376390	0	1	0	0	CorrectCommission	0.619552	0.796016	1	0	4.952174e+01
440.275177	1.319663	mountain	8	0	0.000000	1.657854	1	0	0	0	CorrectOmission	0.325177	0.802632	0	0	4.969565e+01
441.574799	1.279580	city	9	1	1.987566	1.987566	0	1	0	0	CorrectCommission	1.431852	0.817185	0	0	4.986957e+01
442.867737	1.306262	city	8	0	0.000000	1.866535	0	0	0	1	OmissionError	1.025613	0.838465	0	0	5.004348e+01
444.173950	1.306204	city	3	1	1.635265	1.635265	0	1	0	0	CorrectCommission	0.249359	0.864480	0	0	5.021739e+01
445.486755	1.319408	city	5	1	1.634262	1.634262	0	1	0	0	CorrectCommission	0.245991	0.892636	0	0	5.039130e+01
446.806335	1.319752	city	1	1	1.846886	1.846886	0	1	0	0	CorrectCommission	0.959662	0.920003	0	0	5.056522e+01
448.126007	1.319542	city	8	1	2.036251	2.036251	0	1	0	0	CorrectCommission	1.595263	0.943658	0	0	5.073913e+01
449.425476	1.279413	city	4	0	0.000000	1.732967	0	0	0	1	OmissionError	0.577295	0.961029	0	0	5.091304e+01
450.738281	1.346229	city	8	1	1.228019	1.228019	0	1	0	0	CorrectCommission	1.117558	0.970283	0	0	5.108696e+01
452.051208	1.279575	city	4	0	0.000000	0.812389	0	0	0	1	OmissionError	2.512614	0.970500	0	0	5.126087e+01
453.350861	1.319754	city	9	1	0.808380	0.808380	0	1	0	0	CorrectCommission	2.526069	0.961797	0	0	5.143478e+01
454.650452	1.279430	city	6	1	1.538294	1.538294	0	1	0	0	CorrectCommission	0.076122	0.945352	0	0	5.160870e+01
455.936615	1.292896	city	4	1	1.620540	1.620540	0	1	0	0	CorrectCommission	0.199933	0.923198	0	0	5.178261e+01
457.242859	1.319582	city	9	1	1.521950	1.521950	0	1	0	0	CorrectCommission	0.130981	0.897875	0	0	5.195652e+01
458.562500	1.319691	city	4	1	1.922845	1.922845	0	1	0	0	CorrectCommission	1.214616	0.872068	0	0	5.213043e+01
459.875458	1.306242	city	1	0	0.000000	1.954507	0	0	0	1	OmissionError	1.320889	0.848223	0	0	5.230435e+01
461.174957	1.292736	city	8	1	1.761019	1.761019	0	1	0	0	CorrectCommission	0.671452	0.828281	0	0	5.247826e+01
462.494507	1.346413	city	2	1	1.486466	1.486466	0	1	0	0	CorrectCommission	0.250082	0.813471	0	0	5.265217e+01
463.847473	1.359525	city	1	0	0.000000	1.591841	0	0	0	1	OmissionError	0.103608	0.804156	0	0	5.282609e+01
464.527252	8.650342	break	0	0	0.000000	1.832861	0	0	0	0	ThoughtProbe	0.912589	0.799913	0	53	53
473.844025	1.332896	city	3	1	1.965243	1.965243	0	1	0	0	CorrectCommission	1.356927	0.799616	0	0	5.272500e+01
475.183685	1.346373	city	7	1	1.744704	1.744704	0	1	0	0	CorrectCommission	0.616689	0.801710	0	0	5.245000e+01
476.523315	1.332918	city	6	1	1.819037	1.819037	0	1	0	0	CorrectCommission	0.866189	0.804499	0	0	5.217500e+01
477.862885	1.346202	city	4	1	1.650364	1.650364	0	1	0	0	CorrectCommission	0.300039	0.806371	0	0	5.190000e+01
479.202362	1.332763	city	9	1	1.872753	1.872753	0	1	0	0	CorrectCommission	1.046485	0.806136	0	0	5.162500e+01
480.528625	1.319740	city	4	0	0.000000	1.941387	0	0	0	1	OmissionError	1.276855	0.803215	0	0	5.135000e+01
481.834839	1.292702	mountain	6	0	0.000000	1.924458	1	0	0	0	CorrectOmission	1.220033	0.797724	0	0	5.107500e+01
483.120972	1.279591	city	9	1	1.890159	1.890159	0	1	0	0	CorrectCommission	1.104906	0.790514	1	0	5.080000e+01
484.413971	1.306407	city	6	1	1.906680	1.906680	0	1	0	0	CorrectCommission	1.160359	0.783017	1	0	5.052500e+01
485.726868	1.319382	city	9	0	0.000000	1.615088	0	0	0	1	OmissionError	0.181635	0.777031	1	0	5.025000e+01
487.033112	1.293090	city	6	1	1.365940	1.365940	0	1	0	0	CorrectCommission	0.654627	0.774414	1	0	4.997500e+01
488.332764	1.306203	city	8	1	1.509792	1.509792	0	1	0	0	CorrectCommission	0.171789	0.776765	1	0	4.970000e+01
489.652313	1.332923	mountain	3	0	0.000000	1.651656	1	0	0	0	CorrectOmission	0.304376	0.785190	1	0	4.942500e+01
490.965210	1.292848	city	10	1	1.676757	1.676757	0	1	0	0	CorrectCommission	0.388625	0.800183	0	0	4.915000e+01
492.258118	1.292981	city	8	1	1.470317	1.470317	0	1	0	0	CorrectCommission	0.304286	0.821568	0	0	4.887500e+01
493.564392	1.319558	city	5	0	0.000000	1.938760	0	0	0	1	OmissionError	1.268035	0.848562	0	0	4.860000e+01
494.863953	1.279560	city	10	1	2.257923	2.257923	0	1	0	0	CorrectCommission	2.339302	0.879895	0	0	4.832500e+01
496.150085	1.292745	city	6	1	1.603646	1.603646	0	1	0	0	CorrectCommission	0.143231	0.914004	0	0	4.805000e+01
497.483002	1.373068	city	8	1	1.076260	1.076260	0	1	0	0	CorrectCommission	1.626933	0.949222	0	0	4.777500e+01
498.816010	1.292963	city	7	1	1.597768	1.597768	0	1	0	0	CorrectCommission	0.123502	0.983734	0	0	4.750000e+01
500.122162	1.319344	city	6	1	1.261973	1.261973	0	1	0	0	CorrectCommission	1.003590	1.015764	0	0	4.722500e+01
501.435028	1.306383	city	8	1	1.844006	1.844006	0	1	0	0	CorrectCommission	0.949995	1.043495	0	0	4.695000e+01
502.767914	1.359387	city	10	1	1.834788	1.834788	0	1	0	0	CorrectCommission	0.919056	1.065177	0	0	4.667500e+01
504.100830	1.306418	city	1	0	0.000000	1.225474	0	0	0	1	OmissionError	1.126098	1.079196	0	0	4.640000e+01
505.407166	1.306240	city	6	1	0.838151	0.838151	0	1	0	0	CorrectCommission	2.426144	1.084177	0	0	4.612500e+01
506.700043	1.279555	city	4	1	1.494904	1.494904	0	1	0	0	CorrectCommission	0.221761	1.079082	0	0	4.585000e+01
508.012939	1.346233	city	9	0	0.000000	1.981095	0	0	0	1	OmissionError	1.410132	1.063356	0	0	4.557500e+01
509.332428	1.292750	mountain	7	0	0.000000	2.210191	1	0	0	0	CorrectOmission	2.179091	1.036871	0	0	4.530000e+01
510.632019	1.306392	city	9	1	2.095662	2.095662	0	1	0	0	CorrectCommission	1.794675	0.999942	0	0	4.502500e+01
511.951599	1.332791	city	4	1	1.550975	1.550975	0	1	0	0	CorrectCommission	0.033560	0.953205	0	0	4.475000e+01
513.291199	1.346347	city	3	1	1.167217	1.167217	0	1	0	0	CorrectCommission	1.321639	0.897491	0	0	4.447500e+01
514.624023	1.319382	city	7	1	1.494380	1.494380	0	1	0	0	CorrectCommission	0.223520	0.833538	0	0	4.420000e+01
515.936890	1.306324	city	5	1	1.645329	1.645329	0	1	0	0	CorrectCommission	0.283140	0.761972	1	0	4.392500e+01
517.269836	1.359628	city	1	1	1.917648	1.917648	0	1	0	0	CorrectCommission	1.197175	0.683224	1	0	4.365000e+01
518.596069	1.292759	city	6	0	0.000000	1.620346	0	0	0	1	OmissionError	0.199282	0.597603	1	0	4.337500e+01
519.882324	1.279727	city	7	1	1.429461	1.429461	0	1	0	0	CorrectCommission	0.441419	0.505438	1	0	4.310000e+01
521.188538	1.332759	city	9	1	2.021035	2.021035	0	1	0	0	CorrectCommission	1.544190	0.407280	1	0	4.282500e+01
522.508057	1.306303	city	2	1	1.876422	1.876422	0	1	0	0	CorrectCommission	1.058801	0.304025	1	0	4.255000e+01
523.827637	1.332804	city	9	0	0.000000	1.731810	0	0	0	1	OmissionError	0.573412	0.197015	1	0	4.227500e+01
524.494019	9.783574	break	0	0	0.000000	1.587198	0	0	0	0	ThoughtProbe	0.088022	0.088022	1	42	42
