onset	duration	trial_type	image_type	Press	ReactionTime	ReactionTime_Interpolated	CorrectOmission	CorrectCommission	CommissionError	OmissionError	response_type	nonsmoothVarianceTimeCourse	VarianceTimeCourse	In_the_Zone	ThoughtProbe	ThoughtProbe_Interpolated
0.652972	1.279531	mountain	9	0	0.000000	1.597011	1	0	0	0	CorrectOmission	1.104425	1.104425	0	0	91
1.932484	1.279493	city	2	1	1.495911	1.495911	0	1	0	0	CorrectCommission	0.584556	1.063766	0	0	91
3.212072	1.279684	city	5	1	1.394810	1.394810	0	1	0	0	CorrectCommission	0.064688	1.024606	0	0	91
4.511667	1.319505	mountain	2	0	0.000000	1.518432	1	0	0	0	CorrectOmission	0.700365	0.988317	0	0	91
5.811147	1.279454	city	4	1	1.513464	1.513464	0	1	0	0	CorrectCommission	0.674817	0.956016	0	0	91
7.090753	1.279759	city	8	1	1.026591	1.026591	0	1	0	0	CorrectCommission	1.828728	0.928534	0	0	91
8.370343	1.279421	city	5	1	1.287949	1.287949	0	1	0	0	CorrectCommission	0.484800	0.906419	0	0	91
9.649850	1.279593	city	10	1	1.101956	1.101956	0	1	0	0	CorrectCommission	1.441195	0.890072	0	0	91
10.929496	1.279698	city	4	1	1.287102	1.287102	0	1	0	0	CorrectCommission	0.489154	0.879733	0	0	91
12.209145	1.279601	city	7	1	1.180889	1.180889	0	1	0	0	CorrectCommission	1.035311	0.875616	0	0	91
13.488661	1.279432	city	2	1	1.336913	1.336913	0	1	0	0	CorrectCommission	0.233026	0.877835	0	0	91
14.768172	1.279591	city	8	1	1.236446	1.236446	0	1	0	0	CorrectCommission	0.749636	0.886440	0	0	91
16.054436	1.292936	mountain	3	0	0.000000	1.494478	1	0	0	0	CorrectOmission	0.577192	0.901264	0	0	91
17.340664	1.279521	city	4	1	1.624322	1.624322	0	1	0	0	CorrectCommission	1.244860	0.921891	0	0	91
18.620222	1.279598	city	9	1	1.139287	1.139287	0	1	0	0	CorrectCommission	1.249233	0.947481	0	0	91
19.899837	1.279632	city	2	1	1.178686	1.178686	0	1	0	0	CorrectCommission	1.046644	0.976777	0	0	91
21.179424	1.279542	city	5	1	1.340811	1.340811	0	1	0	0	CorrectCommission	0.212981	1.008005	0	0	91
22.459051	1.279712	city	3	1	1.515320	1.515320	0	1	0	0	CorrectCommission	0.684363	1.039016	0	0	91
23.738722	1.279630	city	6	1	1.138037	1.138037	0	1	0	0	CorrectCommission	1.255663	1.067323	0	0	91
25.018305	1.279535	city	9	1	1.144978	1.144978	0	1	0	0	CorrectCommission	1.219974	1.090379	0	0	91
26.297771	1.279397	city	10	1	1.020529	1.020529	0	1	0	0	CorrectCommission	1.859902	1.105889	0	0	91
27.577349	1.279757	city	7	1	1.359672	1.359672	0	1	0	0	CorrectCommission	0.115997	1.112134	0	0	91
28.857016	1.279578	city	2	1	1.018515	1.018515	0	1	0	0	CorrectCommission	1.870256	1.108308	0	0	91
30.136597	1.279584	city	10	1	0.860973	0.860973	0	1	0	0	CorrectCommission	2.680353	1.094605	0	0	91
31.422760	1.292741	city	3	1	1.045255	1.045255	0	1	0	0	CorrectCommission	1.732756	1.072324	0	0	91
32.715614	1.292964	city	10	1	1.101133	1.101133	0	1	0	0	CorrectCommission	1.445428	1.043697	0	0	91
34.001858	1.279524	city	5	1	1.337247	1.337247	0	1	0	0	CorrectCommission	0.231305	1.011541	0	0	91
35.281490	1.279746	city	3	1	1.390448	1.390448	0	1	0	0	CorrectCommission	0.042260	0.978817	0	0	91
36.561127	1.279528	mountain	4	0	0.000000	1.324218	1	0	0	0	CorrectOmission	0.298302	0.948188	0	0	91
37.840652	1.279517	city	10	1	1.315262	1.315262	0	1	0	0	CorrectCommission	0.344353	0.921651	0	0	91
39.120228	1.279641	city	2	1	1.540287	1.540287	0	1	0	0	CorrectCommission	0.812745	0.900365	0	0	91
40.419834	1.319568	city	4	1	1.612458	1.612458	0	1	0	0	CorrectCommission	1.183855	0.884576	0	0	91
41.732761	1.306288	city	8	1	1.132966	1.132966	0	1	0	0	CorrectCommission	1.281738	0.873806	0	0	91
43.025608	1.279406	city	7	1	1.542406	1.542406	0	1	0	0	CorrectCommission	0.823641	0.867067	0	0	91
44.311798	1.292969	city	9	1	1.137094	1.137094	0	1	0	0	CorrectCommission	1.260512	0.863172	0	0	91
45.598099	1.279639	city	1	1	1.284811	1.284811	0	1	0	0	CorrectCommission	0.500935	0.860896	0	0	91
46.877663	1.279483	city	10	1	1.141388	1.141388	0	1	0	0	CorrectCommission	1.238431	0.859216	0	0	91
48.157192	1.279582	city	8	1	1.159470	1.159470	0	1	0	0	CorrectCommission	1.145452	0.857352	0	0	91
49.436760	1.279553	city	4	1	1.345016	1.345016	0	1	0	0	CorrectCommission	0.191355	0.854798	0	0	91
50.716393	1.279710	city	7	1	1.290213	1.290213	0	1	0	0	CorrectCommission	0.473158	0.851302	0	0	91
51.995972	1.279448	city	6	1	1.177555	1.177555	0	1	0	0	CorrectCommission	1.052457	0.846780	0	0	91
53.275414	1.279436	city	3	1	1.236061	1.236061	0	1	0	0	CorrectCommission	0.751613	0.841363	0	0	91
54.561745	1.293224	city	4	1	1.205553	1.205553	0	1	0	0	CorrectCommission	0.908488	0.835387	0	0	91
55.848141	1.279570	city	2	1	1.146217	1.146217	0	1	0	0	CorrectCommission	1.213600	0.829485	0	0	91
57.127666	1.279481	city	3	1	1.557553	1.557553	0	1	0	0	CorrectCommission	0.901529	0.824504	1	0	91
61.239635	6.944457	break	0	0	0.000000	1.653905	0	0	0	0	ThoughtProbe	1.396981	0.821538	1	91	91
65.351608	1.279486	city	9	0	0.000000	1.559584	0	0	0	1	OmissionError	0.911973	0.821774	1	0	8.977500e+01
66.631111	1.279519	city	6	1	1.398901	1.398901	0	1	0	0	CorrectCommission	0.085724	0.826382	0	0	8.855000e+01
67.910667	1.279599	city	9	1	1.296166	1.296166	0	1	0	0	CorrectCommission	0.442550	0.836260	0	0	8.732500e+01
69.190300	1.279670	city	3	1	1.251656	1.251656	0	1	0	0	CorrectCommission	0.671422	0.851801	0	0	8.610000e+01
70.469955	1.279633	city	1	1	1.399060	1.399060	0	1	0	0	CorrectCommission	0.086542	0.872776	0	0	8.487500e+01
71.749481	1.279430	city	8	1	1.237210	1.237210	0	1	0	0	CorrectCommission	0.745705	0.898274	0	0	8.365000e+01
73.029091	1.279784	city	3	1	1.178063	1.178063	0	1	0	0	CorrectCommission	1.049846	0.926712	0	0	8.242500e+01
74.308670	1.279377	city	10	1	0.973995	0.973995	0	1	0	0	CorrectCommission	2.099183	0.956031	0	0	8.120000e+01
75.588150	1.279571	city	1	1	1.519542	1.519542	0	1	0	0	CorrectCommission	0.706069	0.983895	0	0	7.997500e+01
76.867805	1.279742	city	6	1	1.308368	1.308368	0	1	0	0	CorrectCommission	0.379803	1.007997	0	0	7.875000e+01
78.147385	1.279421	city	4	1	1.022531	1.022531	0	1	0	0	CorrectCommission	1.849606	1.026254	0	0	7.752500e+01
79.453537	1.332877	city	2	1	1.117621	1.117621	0	1	0	0	CorrectCommission	1.360642	1.036978	0	0	7.630000e+01
80.759758	1.279576	mountain	9	1	1.127748	1.127748	0	0	1	0	CommissionError	1.308571	1.039065	0	0	7.507500e+01
82.046097	1.293096	city	5	1	1.525084	1.525084	0	1	0	0	CorrectCommission	0.734567	1.032051	0	0	7.385000e+01
83.339081	1.292874	mountain	5	0	0.000000	1.651052	1	0	0	0	CorrectOmission	1.382307	1.016151	0	0	7.262500e+01
84.631989	1.292941	city	2	1	1.482968	1.482968	0	1	0	0	CorrectCommission	0.518005	0.992176	0	0	7.140000e+01
85.931519	1.306118	city	5	1	0.998148	0.998148	0	1	0	0	CorrectCommission	1.974986	0.961518	0	0	7.017500e+01
87.224426	1.279699	city	6	1	1.506139	1.506139	0	1	0	0	CorrectCommission	0.637153	0.925980	0	0	6.895000e+01
88.504005	1.279460	city	8	1	1.132691	1.132691	0	1	0	0	CorrectCommission	1.283151	0.887717	0	0	6.772500e+01
89.783585	1.279697	city	7	1	1.399300	1.399300	0	1	0	0	CorrectCommission	0.087777	0.849021	0	0	6.650000e+01
91.063156	1.279445	city	5	1	1.078137	1.078137	0	1	0	0	CorrectCommission	1.563672	0.812186	1	0	6.527500e+01
92.342651	1.279544	city	1	1	1.303234	1.303234	0	1	0	0	CorrectCommission	0.406204	0.779241	1	0	6.405000e+01
93.622299	1.279748	city	7	1	1.397387	1.397387	0	1	0	0	CorrectCommission	0.077940	0.751883	1	0	6.282500e+01
94.901962	1.279581	city	3	1	1.199994	1.199994	0	1	0	0	CorrectCommission	0.937073	0.731263	1	0	6.160000e+01
96.181458	1.279410	mountain	1	0	0.000000	1.286720	1	0	0	0	CorrectOmission	0.491120	0.717873	1	0	6.037500e+01
97.461029	1.279740	city	6	1	1.401167	1.401167	0	1	0	0	CorrectCommission	0.097375	0.711568	1	0	5.915000e+01
98.767296	1.332794	city	10	1	1.286936	1.286936	0	1	0	0	CorrectCommission	0.490012	0.711588	1	0	5.792500e+01
100.073532	1.279672	city	3	1	1.572511	1.572511	0	1	0	0	CorrectCommission	0.978444	0.716651	1	0	5.670000e+01
101.353073	1.279416	city	4	1	1.306159	1.306159	0	1	0	0	CorrectCommission	0.391162	0.725126	1	0	5.547500e+01
102.645912	1.306252	city	5	1	1.050194	1.050194	0	1	0	0	CorrectCommission	1.707358	0.735218	1	0	5.425000e+01
103.938835	1.279593	city	10	1	1.186228	1.186228	0	1	0	0	CorrectCommission	1.007862	0.745102	1	0	5.302500e+01
105.218414	1.279566	city	9	1	1.395247	1.395247	0	1	0	0	CorrectCommission	0.066934	0.753138	1	0	5.180000e+01
106.497978	1.279563	city	5	1	1.230307	1.230307	0	1	0	0	CorrectCommission	0.781201	0.757911	1	0	5.057500e+01
107.777725	1.279936	city	4	1	1.583395	1.583395	0	1	0	0	CorrectCommission	1.034407	0.758296	1	0	4.935000e+01
109.063995	1.292602	city	7	1	1.514917	1.514917	0	1	0	0	CorrectCommission	0.682288	0.753509	1	0	4.812500e+01
110.350143	1.279700	city	9	1	1.587654	1.587654	0	1	0	0	CorrectCommission	1.056311	0.743184	1	0	4.690000e+01
111.636452	1.292915	city	6	1	1.200223	1.200223	0	1	0	0	CorrectCommission	0.935896	0.727321	1	0	4.567500e+01
112.929344	1.292867	city	1	1	1.363056	1.363056	0	1	0	0	CorrectCommission	0.098593	0.706392	1	0	4.445000e+01
114.215584	1.279620	city	10	1	1.078900	1.078900	0	1	0	0	CorrectCommission	1.559750	0.681290	1	0	4.322500e+01
114.855400	10.702975	break	0	0	0.000000	1.241385	0	0	0	0	ThoughtProbe	0.724235	0.653325	1	42	42
126.198174	1.279602	city	9	1	1.503152	1.503152	0	1	0	0	CorrectCommission	0.621790	0.624187	1	0	4.320000e+01
127.477829	1.279716	city	8	1	1.516838	1.516838	0	1	0	0	CorrectCommission	0.692168	0.595809	1	0	4.440000e+01
128.757477	1.279570	city	4	1	1.425044	1.425044	0	1	0	0	CorrectCommission	0.220152	0.570169	1	0	4.560000e+01
130.043716	1.292910	mountain	9	0	0.000000	1.319890	1	0	0	0	CorrectOmission	0.320557	0.549141	1	0	4.680000e+01
131.329956	1.279561	city	2	1	1.283000	1.283000	0	1	0	0	CorrectCommission	0.510248	0.534241	1	0	48
132.609482	1.279504	city	5	1	1.395996	1.395996	0	1	0	0	CorrectCommission	0.070784	0.526438	1	0	4.920000e+01
133.889038	1.279614	city	2	1	1.286688	1.286688	0	1	0	0	CorrectCommission	0.491284	0.526055	1	0	5.040000e+01
135.168686	1.279660	city	6	1	1.444781	1.444781	0	1	0	0	CorrectCommission	0.321643	0.532668	1	0	5.160000e+01
136.448212	1.279406	city	8	1	1.302486	1.302486	0	1	0	0	CorrectCommission	0.410053	0.545177	1	0	5.280000e+01
137.727783	1.279745	city	9	1	1.357424	1.357424	0	1	0	0	CorrectCommission	0.127554	0.561909	1	0	54
139.014053	1.292796	mountain	7	0	0.000000	1.297711	1	0	0	0	CorrectOmission	0.434606	0.580877	1	0	5.520000e+01
140.300278	1.279644	city	9	1	1.195728	1.195728	0	1	0	0	CorrectCommission	0.959008	0.600002	1	0	5.640000e+01
141.579819	1.279451	city	10	1	1.123861	1.123861	0	1	0	0	CorrectCommission	1.328556	0.617437	1	0	5.760000e+01
142.859421	1.279735	city	4	1	1.497628	1.497628	0	1	0	0	CorrectCommission	0.593387	0.631771	1	0	5.880000e+01
144.139008	1.279448	city	5	1	1.138011	1.138011	0	1	0	0	CorrectCommission	1.255797	0.642213	1	0	60
145.418533	1.279604	city	6	1	1.305134	1.305134	0	1	0	0	CorrectCommission	0.396432	0.648575	1	0	6.120000e+01
146.698120	1.279569	city	9	1	1.553362	1.553362	0	1	0	0	CorrectCommission	0.879975	0.651299	1	0	6.240000e+01
147.977676	1.279546	city	7	1	1.354765	1.354765	0	1	0	0	CorrectCommission	0.141229	0.651224	1	0	6.360000e+01
149.270584	1.306264	city	9	1	1.210382	1.210382	0	1	0	0	CorrectCommission	0.883660	0.649426	1	0	6.480000e+01
150.563400	1.279381	city	5	1	1.248578	1.248578	0	1	0	0	CorrectCommission	0.687250	0.646989	1	0	66
151.843048	1.279907	city	10	1	1.348058	1.348058	0	1	0	0	CorrectCommission	0.175716	0.644824	1	0	6.720000e+01
153.122787	1.279569	city	4	1	1.514787	1.514787	0	1	0	0	CorrectCommission	0.681621	0.643591	1	0	6.840000e+01
154.402298	1.279452	city	8	1	1.521849	1.521849	0	1	0	0	CorrectCommission	0.717934	0.643624	1	0	6.960000e+01
155.681839	1.279627	city	3	1	1.322291	1.322291	0	1	0	0	CorrectCommission	0.308209	0.645026	1	0	7.080000e+01
156.968155	1.293004	mountain	6	0	0.000000	1.489637	1	0	0	0	CorrectOmission	0.552299	0.647758	1	0	72
158.254364	1.279419	city	6	1	1.596765	1.596765	0	1	0	0	CorrectCommission	1.103161	0.651740	1	0	7.320000e+01
159.547180	1.306218	city	1	1	1.216553	1.216553	0	1	0	0	CorrectCommission	0.851924	0.656962	1	0	7.440000e+01
160.840164	1.279734	city	10	1	1.192540	1.192540	0	1	0	0	CorrectCommission	0.975404	0.663540	1	0	7.560000e+01
162.126419	1.292772	city	8	1	1.268105	1.268105	0	1	0	0	CorrectCommission	0.586842	0.671674	1	0	7.680000e+01
163.419342	1.293069	city	2	1	1.375683	1.375683	0	1	0	0	CorrectCommission	0.033663	0.681596	1	0	78
164.712234	1.292736	city	4	1	1.490774	1.490774	0	1	0	0	CorrectCommission	0.558143	0.693409	1	0	7.920000e+01
166.011810	1.306423	city	10	1	1.097225	1.097225	0	1	0	0	CorrectCommission	1.465520	0.706953	1	0	8.040000e+01
167.304718	1.279382	city	2	1	1.415164	1.415164	0	1	0	0	CorrectCommission	0.169349	0.721696	1	0	8.160000e+01
168.617599	1.346374	city	10	1	1.433894	1.433894	0	1	0	0	CorrectCommission	0.265660	0.736788	1	0	8.280000e+01
169.943863	1.306156	city	9	1	1.427841	1.427841	0	1	0	0	CorrectCommission	0.234537	0.751085	1	0	84
171.243454	1.293016	city	2	1	1.197584	1.197584	0	1	0	0	CorrectCommission	0.949466	0.763380	1	0	8.520000e+01
172.529663	1.279427	city	10	1	1.084599	1.084599	0	1	0	0	CorrectCommission	1.530448	0.772645	1	0	8.640000e+01
173.809250	1.279743	city	8	1	1.187816	1.187816	0	1	0	0	CorrectCommission	0.999695	0.778283	1	0	8.760000e+01
175.088898	1.279553	city	7	1	1.134516	1.134516	0	1	0	0	CorrectCommission	1.273768	0.780342	1	0	8.880000e+01
179.087540	6.717727	break	0	0	0.000000	1.124339	0	0	0	0	ThoughtProbe	1.326101	0.779606	1	90	90
183.086227	1.279642	city	9	1	1.202421	1.202421	0	1	0	0	CorrectCommission	0.924595	0.777476	1	0	8.878261e+01
184.379181	1.306262	mountain	8	0	0.000000	1.413900	1	0	0	0	CorrectOmission	0.162850	0.775797	1	0	8.756522e+01
185.672104	1.279581	city	2	1	1.534911	1.534911	0	1	0	0	CorrectCommission	0.785102	0.776512	1	0	8.634783e+01
186.971573	1.319374	city	8	1	1.341591	1.341591	0	1	0	0	CorrectCommission	0.208970	0.781211	1	0	8.513043e+01
188.271149	1.279756	city	3	1	1.407804	1.407804	0	1	0	0	CorrectCommission	0.131503	0.790860	1	0	8.391304e+01
189.557388	1.292733	city	4	1	1.520826	1.520826	0	1	0	0	CorrectCommission	0.712673	0.805543	1	0	8.269565e+01
190.843613	1.279726	city	9	1	1.348692	1.348692	0	1	0	0	CorrectCommission	0.172453	0.824378	1	0	8.147826e+01
192.123230	1.279487	city	10	1	1.510177	1.510177	0	1	0	0	CorrectCommission	0.657918	0.845671	0	0	8.026087e+01
193.402740	1.279552	mountain	9	0	0.000000	1.724112	1	0	0	0	CorrectOmission	1.757991	0.867123	0	0	7.904348e+01
194.682388	1.279737	city	9	1	1.674100	1.674100	0	1	0	0	CorrectCommission	1.500824	0.886163	0	0	7.782609e+01
195.968689	1.292876	city	6	1	1.043744	1.043744	0	1	0	0	CorrectCommission	1.740524	0.900335	0	0	7.660870e+01
197.261581	1.292914	city	1	1	1.267042	1.267042	0	1	0	0	CorrectCommission	0.592307	0.907584	0	0	7.539130e+01
198.547791	1.279498	city	2	1	1.294213	1.294213	0	1	0	0	CorrectCommission	0.452593	0.906482	0	0	7.417391e+01
199.834061	1.293029	city	10	1	1.211981	1.211981	0	1	0	0	CorrectCommission	0.875434	0.896316	0	0	7.295652e+01
201.120270	1.279397	city	3	1	1.245531	1.245531	0	1	0	0	CorrectCommission	0.702918	0.877138	0	0	7.173913e+01
202.399841	1.279752	city	4	1	1.842067	1.842067	0	1	0	0	CorrectCommission	2.364522	0.849728	0	0	7.052174e+01
203.679413	1.279386	city	10	1	1.230447	1.230447	0	1	0	0	CorrectCommission	0.780481	0.815467	1	0	6.930435e+01
204.958954	1.279707	city	8	1	1.348063	1.348063	0	1	0	0	CorrectCommission	0.175690	0.776247	1	0	6.808696e+01
206.258621	1.319630	city	6	1	1.167133	1.167133	0	1	0	0	CorrectCommission	1.106049	0.734235	1	0	6.686957e+01
207.558136	1.279392	mountain	8	0	0.000000	1.336732	1	0	0	0	CorrectOmission	0.233955	0.691723	1	0	6.565217e+01
208.837723	1.279764	city	10	1	1.563196	1.563196	0	1	0	0	CorrectCommission	0.930542	0.650960	1	0	6.443478e+01
210.117386	1.279582	city	3	1	1.552859	1.552859	0	1	0	0	CorrectCommission	0.877391	0.613918	1	0	6.321739e+01
211.396881	1.279393	city	6	1	1.383005	1.383005	0	1	0	0	CorrectCommission	0.003985	0.582194	1	0	62
212.683121	1.293093	city	1	1	1.367961	1.367961	0	1	0	0	CorrectCommission	0.073372	0.556931	1	0	6.078261e+01
213.976135	1.292938	city	3	1	1.416069	1.416069	0	1	0	0	CorrectCommission	0.174004	0.538684	1	0	5.956522e+01
215.262283	1.279358	city	8	1	1.348837	1.348837	0	1	0	0	CorrectCommission	0.171711	0.527519	1	0	5.834783e+01
216.541855	1.279771	city	4	1	1.558938	1.558938	0	1	0	0	CorrectCommission	0.908648	0.523024	1	0	5.713043e+01
217.821426	1.279385	city	3	1	1.566976	1.566976	0	1	0	0	CorrectCommission	0.949982	0.524417	1	0	5.591304e+01
219.100922	1.279610	mountain	7	0	0.000000	1.478454	1	0	0	0	CorrectOmission	0.494791	0.530677	1	0	5.469565e+01
220.387268	1.293066	city	10	1	1.421589	1.421589	0	1	0	0	CorrectCommission	0.202388	0.540679	1	0	5.347826e+01
221.674026	1.280449	city	6	1	1.524601	1.524601	0	1	0	0	CorrectCommission	0.732083	0.553211	1	0	5.226087e+01
222.966980	1.305474	city	9	1	1.319806	1.319806	0	1	0	0	CorrectCommission	0.320989	0.567110	1	0	5.104348e+01
224.266022	1.292615	city	5	1	1.265608	1.265608	0	1	0	0	CorrectCommission	0.599678	0.581338	1	0	4.982609e+01
225.552216	1.279751	city	1	1	1.345482	1.345482	0	1	0	0	CorrectCommission	0.188960	0.595020	1	0	4.860870e+01
226.831818	1.279460	city	7	1	1.453597	1.453597	0	1	0	0	CorrectCommission	0.366977	0.607558	1	0	4.739130e+01
228.111404	1.279720	city	2	1	1.727168	1.727168	0	1	0	0	CorrectCommission	1.773705	0.618621	1	0	4.617391e+01
229.411026	1.319507	city	8	1	1.547013	1.547013	0	1	0	0	CorrectCommission	0.847330	0.628242	1	0	4.495652e+01
230.717178	1.292798	city	5	1	1.363766	1.363766	0	1	0	0	CorrectCommission	0.094944	0.636816	1	0	4.373913e+01
232.010025	1.292898	city	2	1	1.136233	1.136233	0	1	0	0	CorrectCommission	1.264940	0.645059	1	0	4.252174e+01
233.303009	1.293067	city	9	1	1.254065	1.254065	0	1	0	0	CorrectCommission	0.659038	0.653854	1	0	4.130435e+01
234.589249	1.279436	city	1	1	1.357934	1.357934	0	1	0	0	CorrectCommission	0.124932	0.664128	1	0	4.008696e+01
235.868835	1.279733	city	5	1	1.425057	1.425057	0	1	0	0	CorrectCommission	0.220221	0.676697	1	0	3.886957e+01
237.155136	1.292878	city	1	1	1.527487	1.527487	0	1	0	0	CorrectCommission	0.746927	0.692088	1	0	3.765217e+01
238.441315	1.279455	city	10	1	1.349679	1.349679	0	1	0	0	CorrectCommission	0.167381	0.710474	1	0	3.643478e+01
239.720901	1.279717	city	2	1	1.666992	1.666992	0	1	0	0	CorrectCommission	1.464272	0.731662	1	0	3.521739e+01
240.360748	10.663127	break	0	0	0.000000	1.461795	0	0	0	0	ThoughtProbe	0.409129	0.755053	1	34	34
251.663696	1.279618	city	3	1	1.187237	1.187237	0	1	0	0	CorrectCommission	1.002671	0.779818	1	0	3.388235e+01
252.943207	1.279421	city	2	1	1.296469	1.296469	0	1	0	0	CorrectCommission	0.440988	0.804917	1	0	3.376471e+01
254.222702	1.279575	city	1	1	1.731295	1.731295	0	1	0	0	CorrectCommission	1.794922	0.829229	0	0	3.364706e+01
255.502289	1.279591	city	10	1	1.360950	1.360950	0	1	0	0	CorrectCommission	0.109423	0.851621	0	0	3.352941e+01
256.788605	1.293062	city	6	1	1.524824	1.524824	0	1	0	0	CorrectCommission	0.733231	0.871113	0	0	3.341176e+01
258.074921	1.279540	city	3	1	1.089686	1.089686	0	1	0	0	CorrectCommission	1.504286	0.886838	0	0	3.329412e+01
259.354462	1.279561	city	4	1	1.537856	1.537856	0	1	0	0	CorrectCommission	0.800245	0.898104	0	0	3.317647e+01
260.674042	1.359613	city	8	1	1.106832	1.106832	0	1	0	0	CorrectCommission	1.416124	0.904468	0	0	3.305882e+01
261.993622	1.279539	mountain	8	0	0.000000	1.370413	1	0	0	0	CorrectOmission	0.060764	0.905708	0	0	3.294118e+01
263.273193	1.279597	city	1	1	1.621685	1.621685	0	1	0	0	CorrectCommission	1.231299	0.901884	0	0	3.282353e+01
264.559448	1.292890	city	2	1	1.153732	1.153732	0	1	0	0	CorrectCommission	1.174960	0.893313	0	0	3.270588e+01
265.852264	1.292780	city	9	1	1.612398	1.612398	0	1	0	0	CorrectCommission	1.183545	0.880579	0	0	3.258824e+01
267.165192	1.333043	city	10	1	1.116539	1.116539	0	1	0	0	CorrectCommission	1.366209	0.864519	0	0	3.247059e+01
268.471436	1.279458	city	4	1	1.538231	1.538231	0	1	0	0	CorrectCommission	0.802171	0.846188	0	0	3.235294e+01
269.777679	1.333020	city	7	1	1.341960	1.341960	0	1	0	0	CorrectCommission	0.207070	0.826751	0	0	3.223529e+01
271.090576	1.292748	city	2	1	1.337677	1.337677	0	1	0	0	CorrectCommission	0.229097	0.807408	1	0	3.211765e+01
272.390076	1.306256	city	3	1	1.644968	1.644968	0	1	0	0	CorrectCommission	1.351024	0.789289	1	0	32
273.682983	1.279579	city	6	1	1.515019	1.515019	0	1	0	0	CorrectCommission	0.682811	0.773374	1	0	3.188235e+01
274.962555	1.279577	city	2	1	1.300780	1.300780	0	1	0	0	CorrectCommission	0.418822	0.760461	1	0	3.176471e+01
276.248840	1.293012	city	8	1	1.160515	1.160515	0	1	0	0	CorrectCommission	1.140078	0.751107	1	0	3.164706e+01
277.535187	1.279623	city	3	1	1.631306	1.631306	0	1	0	0	CorrectCommission	1.280774	0.745587	1	0	3.152941e+01
278.814697	1.279411	city	10	1	1.404382	1.404382	0	1	0	0	CorrectCommission	0.113909	0.743949	1	0	3.141176e+01
280.094269	1.279749	city	9	1	1.417276	1.417276	0	1	0	0	CorrectCommission	0.180210	0.746006	1	0	3.129412e+01
281.373932	1.279567	city	7	1	1.464936	1.464936	0	1	0	0	CorrectCommission	0.425285	0.751355	1	0	3.117647e+01
282.660156	1.292891	mountain	10	1	1.217095	1.217095	0	0	1	0	CommissionError	0.849139	0.759390	1	0	3.105882e+01
283.946411	1.279644	city	2	1	1.190018	1.190018	0	1	0	0	CorrectCommission	0.988370	0.769461	1	0	3.094118e+01
285.225952	1.279408	city	8	1	1.584105	1.584105	0	1	0	0	CorrectCommission	1.038058	0.780892	1	0	3.082353e+01
286.518768	1.306214	city	7	1	1.666358	1.666358	0	1	0	0	CorrectCommission	1.461014	0.793035	1	0	3.070588e+01
287.818390	1.293055	city	6	0	0.000000	1.351094	0	0	0	1	OmissionError	0.160106	0.805324	1	0	3.058824e+01
289.104706	1.279579	city	10	1	1.132662	1.132662	0	1	0	0	CorrectCommission	1.283302	0.817321	1	0	3.047059e+01
290.384308	1.279602	city	9	1	1.505414	1.505414	0	1	0	0	CorrectCommission	0.633424	0.828640	0	0	3.035294e+01
291.663879	1.279545	city	3	1	1.350718	1.350718	0	1	0	0	CorrectCommission	0.162036	0.838971	0	0	3.023529e+01
292.950043	1.292766	city	7	1	1.525689	1.525689	0	1	0	0	CorrectCommission	0.737679	0.848073	0	0	3.011765e+01
293.596405	11.023191	break	0	0	0.000000	1.582378	0	0	0	0	ThoughtProbe	1.029180	0.855761	0	30	30
305.259399	1.279570	city	9	1	1.577293	1.577293	0	1	0	0	CorrectCommission	1.003034	0.861996	0	0	3.112500e+01
306.538971	1.279611	city	4	1	1.566942	1.566942	0	1	0	0	CorrectCommission	0.949808	0.866909	0	0	3.225000e+01
307.818512	1.279449	city	5	1	1.730423	1.730423	0	1	0	0	CorrectCommission	1.790439	0.870805	0	0	3.337500e+01
309.111359	1.306259	city	9	1	1.648056	1.648056	0	1	0	0	CorrectCommission	1.366903	0.874115	0	0	3.450000e+01
310.404266	1.279531	city	4	1	1.405833	1.405833	0	1	0	0	CorrectCommission	0.121369	0.877279	0	0	3.562500e+01
311.690491	1.292903	city	10	1	1.269955	1.269955	0	1	0	0	CorrectCommission	0.577328	0.880632	0	0	3.675000e+01
312.976776	1.279724	city	8	1	1.514119	1.514119	0	1	0	0	CorrectCommission	0.678188	0.884191	0	0	3.787500e+01
314.256378	1.279436	city	2	1	1.300390	1.300390	0	1	0	0	CorrectCommission	0.420830	0.887579	0	0	39
315.535950	1.279733	mountain	5	0	0.000000	1.233127	1	0	0	0	CorrectOmission	0.766703	0.890029	0	0	4.012500e+01
316.815613	1.279555	city	8	1	1.371251	1.371251	0	1	0	0	CorrectCommission	0.056454	0.890486	0	0	4.125000e+01
318.121765	1.332774	city	4	1	1.773684	1.773684	0	1	0	0	CorrectCommission	2.012893	0.887808	0	0	4.237500e+01
319.428040	1.279789	mountain	2	0	0.000000	1.779624	1	0	0	0	CorrectOmission	2.043437	0.880954	0	0	4.350000e+01
320.707672	1.279492	city	6	1	1.608287	1.608287	0	1	0	0	CorrectCommission	1.162406	0.869287	0	0	4.462500e+01
321.993896	1.292934	city	1	1	1.478890	1.478890	0	1	0	0	CorrectCommission	0.497033	0.852698	0	0	4.575000e+01
323.286804	1.292868	city	7	1	1.599592	1.599592	0	1	0	0	CorrectCommission	1.117696	0.831644	0	0	4.687500e+01
324.592987	1.319486	city	6	1	1.533886	1.533886	0	1	0	0	CorrectCommission	0.779829	0.807030	1	0	48
325.912476	1.319537	city	7	1	1.459423	1.459423	0	1	0	0	CorrectCommission	0.396934	0.780107	1	0	4.912500e+01
327.218689	1.292881	city	3	1	1.262712	1.262712	0	1	0	0	CorrectCommission	0.614573	0.752230	1	0	5.025000e+01
328.504974	1.279700	city	10	1	1.395342	1.395342	0	1	0	0	CorrectCommission	0.067424	0.724671	1	0	5.137500e+01
329.797913	1.306172	city	6	1	1.575617	1.575617	0	1	0	0	CorrectCommission	0.994415	0.698519	1	0	5.250000e+01
331.144196	1.386356	city	5	1	1.210007	1.210007	0	1	0	0	CorrectCommission	0.885585	0.674560	1	0	5.362500e+01
332.477051	1.279371	city	10	1	1.313260	1.313260	0	1	0	0	CorrectCommission	0.354648	0.653330	1	0	5.475000e+01
333.756592	1.279724	city	4	1	1.622464	1.622464	0	1	0	0	CorrectCommission	1.235308	0.635177	1	0	5.587500e+01
335.042938	1.292948	city	8	0	0.000000	1.468916	0	0	0	1	OmissionError	0.445745	0.620293	1	0	57
336.349091	1.319383	city	6	1	1.243663	1.243663	0	1	0	0	CorrectCommission	0.712522	0.608790	1	0	5.812500e+01
337.648651	1.279724	city	8	1	1.337757	1.337757	0	1	0	0	CorrectCommission	0.228682	0.600707	1	0	5.925000e+01
338.941589	1.306123	city	3	1	1.322910	1.322910	0	1	0	0	CorrectCommission	0.305030	0.596039	1	0	6.037500e+01
340.247772	1.306253	mountain	9	0	0.000000	1.468380	1	0	0	0	CorrectOmission	0.442992	0.594639	1	0	6.150000e+01
341.540741	1.279719	city	9	1	1.568399	1.568399	0	1	0	0	CorrectCommission	0.957298	0.596227	1	0	6.262500e+01
342.827057	1.292910	city	6	1	1.417197	1.417197	0	1	0	0	CorrectCommission	0.179801	0.600339	1	0	6.375000e+01
344.126556	1.306052	city	5	1	1.222543	1.222543	0	1	0	0	CorrectCommission	0.821127	0.606345	1	0	6.487500e+01
345.419373	1.279598	city	8	1	1.245820	1.245820	0	1	0	0	CorrectCommission	0.701432	0.613473	1	0	66
346.698975	1.279629	city	4	1	1.305455	1.305455	0	1	0	0	CorrectCommission	0.394786	0.620879	1	0	6.712500e+01
347.978546	1.279509	city	2	1	1.231005	1.231005	0	1	0	0	CorrectCommission	0.777611	0.627713	1	0	6.825000e+01
349.258179	1.279743	city	4	1	1.537633	1.537633	0	1	0	0	CorrectCommission	0.799097	0.633262	1	0	6.937500e+01
350.544434	1.292763	city	8	0	0.000000	1.424128	0	0	0	1	OmissionError	0.215444	0.637059	1	0	7.050000e+01
351.843994	1.306387	city	6	1	1.206894	1.206894	0	1	0	0	CorrectCommission	0.901593	0.638976	1	0	7.162500e+01
353.136993	1.279599	city	1	1	1.202336	1.202336	0	1	0	0	CorrectCommission	0.925033	0.639279	1	0	7.275000e+01
354.423218	1.292850	city	7	1	1.572745	1.572745	0	1	0	0	CorrectCommission	0.979648	0.638672	1	0	7.387500e+01
357.995361	5.851442	break	0	0	0.000000	1.541357	0	0	0	0	ThoughtProbe	0.818244	0.638191	1	75	75
361.560822	1.279438	city	5	1	1.410976	1.410976	0	1	0	0	CorrectCommission	0.147813	0.639126	1	0	7.476471e+01
362.840302	1.279578	mountain	3	0	0.000000	1.484408	1	0	0	0	CorrectOmission	0.525410	0.642809	1	0	7.452941e+01
364.119965	1.279741	city	9	1	1.548651	1.548651	0	1	0	0	CorrectCommission	0.855751	0.650390	1	0	7.429412e+01
365.399628	1.279568	city	7	1	1.390699	1.390699	0	1	0	0	CorrectCommission	0.043548	0.662657	1	0	7.405882e+01
366.679138	1.279435	city	6	1	1.283617	1.283617	0	1	0	0	CorrectCommission	0.507077	0.679890	1	0	7.382353e+01
367.958649	1.279582	city	3	1	1.228162	1.228162	0	1	0	0	CorrectCommission	0.792232	0.701709	1	0	7.358824e+01
369.238281	1.279710	city	6	1	1.397785	1.397785	0	1	0	0	CorrectCommission	0.079985	0.727090	1	0	7.335294e+01
370.517853	1.279436	city	2	1	1.179127	1.179127	0	1	0	0	CorrectCommission	1.044375	0.754505	1	0	7.311765e+01
371.797455	1.279746	city	1	1	1.550268	1.550268	0	1	0	0	CorrectCommission	0.864070	0.782028	1	0	7.288235e+01
373.077087	1.279530	city	2	0	0.000000	1.292963	0	0	0	1	OmissionError	0.459020	0.807649	1	0	7.264706e+01
374.356598	1.279475	mountain	7	1	1.143942	1.143942	0	0	1	0	CommissionError	1.225297	0.829481	0	0	7.241176e+01
375.636200	1.279733	city	9	1	1.839939	1.839939	0	1	0	0	CorrectCommission	2.353583	0.846013	0	0	7.217647e+01
376.915771	1.279425	city	4	1	1.301535	1.301535	0	1	0	0	CorrectCommission	0.414939	0.856297	0	0	7.194118e+01
378.195282	1.279601	city	2	1	1.192968	1.192968	0	1	0	0	CorrectCommission	0.973200	0.860178	0	0	7.170588e+01
379.474915	1.279635	city	6	1	1.444309	1.444309	0	1	0	0	CorrectCommission	0.319215	0.858186	0	0	7.147059e+01
380.754547	1.279649	city	5	1	1.284171	1.284171	0	1	0	0	CorrectCommission	0.504226	0.851626	0	0	7.123529e+01
382.034058	1.279398	city	3	0	0.000000	1.123847	0	0	0	1	OmissionError	1.328629	0.842372	0	0	71
383.313599	1.279643	city	7	1	1.071383	1.071383	0	1	0	0	CorrectCommission	1.598405	0.832715	0	0	7.076471e+01
384.593262	1.279677	city	6	1	1.234826	1.234826	0	1	0	0	CorrectCommission	0.757966	0.825141	1	0	7.052941e+01
385.872833	1.279469	city	9	1	1.228443	1.228443	0	1	0	0	CorrectCommission	0.790787	0.822045	1	0	7.029412e+01
387.152405	1.279711	city	6	1	1.289886	1.289886	0	1	0	0	CorrectCommission	0.474842	0.825394	1	0	7.005882e+01
388.432068	1.279579	city	9	1	1.336986	1.336986	0	1	0	0	CorrectCommission	0.232648	0.836440	0	0	6.982353e+01
389.711639	1.279580	city	1	1	1.390540	1.390540	0	1	0	0	CorrectCommission	0.042731	0.855478	0	0	6.958824e+01
390.991241	1.279624	city	2	1	1.625745	1.625745	0	1	0	0	CorrectCommission	1.252174	0.881696	0	0	6.935294e+01
392.270721	1.279368	city	3	1	1.443215	1.443215	0	1	0	0	CorrectCommission	0.313591	0.913175	0	0	6.911765e+01
393.550262	1.279704	city	6	1	1.390536	1.390536	0	1	0	0	CorrectCommission	0.042710	0.947141	0	0	6.888235e+01
394.829926	1.279620	city	4	1	1.602216	1.602216	0	1	0	0	CorrectCommission	1.131190	0.980222	0	0	6.864706e+01
396.109436	1.279420	city	5	1	1.017239	1.017239	0	1	0	0	CorrectCommission	1.876815	1.008874	0	0	6.841176e+01
397.388977	1.279620	city	10	1	0.815549	0.815549	0	1	0	0	CorrectCommission	2.913925	1.029869	0	0	6.817647e+01
398.668579	1.279580	city	3	1	1.714480	1.714480	0	1	0	0	CorrectCommission	1.708459	1.040607	0	0	6.794118e+01
399.948151	1.279554	city	1	1	1.284285	1.284285	0	1	0	0	CorrectCommission	0.503639	1.039451	0	0	6.770588e+01
401.227753	1.279697	city	2	1	1.399729	1.399729	0	1	0	0	CorrectCommission	0.089983	1.025821	0	0	6.747059e+01
402.507385	1.279567	city	7	1	1.657002	1.657002	0	1	0	0	CorrectCommission	1.412902	1.000199	0	0	6.723529e+01
405.379822	4.465258	break	0	0	0.000000	1.303012	0	0	0	0	ThoughtProbe	0.407346	0.963946	0	67	67
408.252167	1.279451	city	1	1	0.928432	0.928432	0	1	0	0	CorrectCommission	2.333473	0.919295	0	0	6.619565e+01
409.531677	1.279556	city	8	1	1.123932	1.123932	0	1	0	0	CorrectCommission	1.328189	0.869025	0	0	6.539130e+01
410.811218	1.279560	city	1	1	1.471412	1.471412	0	1	0	0	CorrectCommission	0.458580	0.816360	1	0	6.458696e+01
412.090851	1.279678	city	3	1	1.550334	1.550334	0	1	0	0	CorrectCommission	0.864407	0.764668	1	0	6.378261e+01
413.370392	1.279441	city	6	1	1.336885	1.336885	0	1	0	0	CorrectCommission	0.233169	0.717203	1	0	6.297826e+01
414.649994	1.279756	mountain	9	0	0.000000	1.298688	1	0	0	0	CorrectOmission	0.429582	0.676891	1	0	6.217391e+01
415.929657	1.279580	mountain	10	0	0.000000	1.351501	1	0	0	0	CorrectOmission	0.158012	0.646078	1	0	6.136957e+01
417.209259	1.279590	city	6	1	1.411082	1.411082	0	1	0	0	CorrectCommission	0.148359	0.626358	1	0	6.056522e+01
418.488800	1.279524	city	3	1	1.393189	1.393189	0	1	0	0	CorrectCommission	0.056352	0.618483	1	0	5.976087e+01
419.768372	1.279607	city	9	1	1.603993	1.603993	0	1	0	0	CorrectCommission	1.140327	0.622325	1	0	5.895652e+01
421.047882	1.279430	mountain	2	0	0.000000	1.550314	1	0	0	0	CorrectOmission	0.864302	0.636945	1	0	5.815217e+01
422.327393	1.279583	city	6	1	1.390959	1.390959	0	1	0	0	CorrectCommission	0.044887	0.660729	1	0	5.734783e+01
423.607056	1.279746	city	5	1	1.284740	1.284740	0	1	0	0	CorrectCommission	0.501304	0.691565	1	0	5.654348e+01
424.886719	1.279573	city	8	1	1.190737	1.190737	0	1	0	0	CorrectCommission	0.984675	0.727083	1	0	5.573913e+01
426.166321	1.279586	city	7	1	1.301852	1.301852	0	1	0	0	CorrectCommission	0.413308	0.764877	1	0	5.493478e+01
427.445862	1.279544	city	2	1	1.336888	1.336888	0	1	0	0	CorrectCommission	0.233151	0.802835	1	0	5.413043e+01
428.725433	1.279596	city	1	1	1.551028	1.551028	0	1	0	0	CorrectCommission	0.867973	0.839311	0	0	5.332609e+01
430.004944	1.279417	city	3	1	1.924218	1.924218	0	1	0	0	CorrectCommission	2.786954	0.873341	0	0	5.252174e+01
431.284454	1.279581	city	10	0	0.000000	1.646855	0	0	0	1	OmissionError	1.360729	0.904722	0	0	5.171739e+01
432.564026	1.279584	city	1	1	1.337030	1.337030	0	1	0	0	CorrectCommission	0.232421	0.934018	0	0	5.091304e+01
433.843658	1.279690	city	5	1	1.612833	1.612833	0	1	0	0	CorrectCommission	1.185784	0.962296	0	0	5.010870e+01
435.123352	1.279661	city	1	1	1.496974	1.496974	0	1	0	0	CorrectCommission	0.590025	0.990849	0	0	4.930435e+01
436.402893	1.279419	city	7	0	0.000000	1.326790	0	0	0	1	OmissionError	0.285078	1.020855	0	0	4.850000e+01
437.682373	1.279560	city	3	1	1.177445	1.177445	0	1	0	0	CorrectCommission	1.053024	1.053047	0	0	4.769565e+01
438.962006	1.279718	city	10	1	1.124103	1.124103	0	1	0	0	CorrectCommission	1.327314	1.087454	0	0	4.689130e+01
440.241669	1.279593	city	5	1	1.550223	1.550223	0	1	0	0	CorrectCommission	0.863837	1.123278	0	0	4.608696e+01
441.521210	1.279467	city	10	1	1.283466	1.283466	0	1	0	0	CorrectCommission	0.507855	1.158933	0	0	4.528261e+01
442.800720	1.279581	city	5	1	1.676042	1.676042	0	1	0	0	CorrectCommission	1.510806	1.192211	0	0	4.447826e+01
444.080353	1.279695	city	4	1	1.621086	1.621086	0	1	0	0	CorrectCommission	1.228219	1.220594	0	0	4.367391e+01
445.359894	1.279408	city	10	1	1.779365	1.779365	0	1	0	0	CorrectCommission	2.042104	1.241690	0	0	4.286957e+01
446.639404	1.279571	city	6	1	1.817095	1.817095	0	1	0	0	CorrectCommission	2.236116	1.253581	0	0	4.206522e+01
447.919037	1.279697	city	3	0	0.000000	1.314734	0	0	0	1	OmissionError	0.347072	1.255201	0	0	4.126087e+01
449.198639	1.279496	city	10	1	1.015587	1.015587	0	1	0	0	CorrectCommission	1.885313	1.246590	0	0	4.045652e+01
450.478241	1.279735	city	4	1	1.662959	1.662959	0	1	0	0	CorrectCommission	1.443536	1.228883	0	0	3.965217e+01
451.757812	1.279431	mountain	2	0	0.000000	1.793836	1	0	0	0	CorrectOmission	2.116514	1.204311	0	0	3.884783e+01
453.037323	1.279588	city	4	1	1.601824	1.601824	0	1	0	0	CorrectCommission	1.129175	1.175834	0	0	3.804348e+01
454.316956	1.279662	city	8	0	0.000000	1.280534	0	0	0	1	OmissionError	0.522928	1.146816	0	0	3.723913e+01
455.596619	1.279623	city	7	1	1.144876	1.144876	0	1	0	0	CorrectCommission	1.220496	1.120512	0	0	3.643478e+01
456.876129	1.279410	city	3	1	1.509760	1.509760	0	1	0	0	CorrectCommission	0.655770	1.099558	0	0	3.563043e+01
458.155701	1.279750	city	9	1	1.497701	1.497701	0	1	0	0	CorrectCommission	0.593763	1.085591	0	0	3.482609e+01
459.435272	1.279413	city	8	1	1.506037	1.506037	0	1	0	0	CorrectCommission	0.636629	1.079010	0	0	3.402174e+01
460.714813	1.279622	city	6	0	0.000000	1.432313	0	0	0	1	OmissionError	0.257531	1.078928	0	0	3.321739e+01
461.994354	1.279506	city	8	1	1.443878	1.443878	0	1	0	0	CorrectCommission	0.316998	1.083322	0	0	3.241304e+01
463.273987	1.279738	city	6	1	1.708081	1.708081	0	1	0	0	CorrectCommission	1.675557	1.089374	0	0	3.160870e+01
464.553680	1.279676	city	4	1	1.889049	1.889049	0	1	0	0	CorrectCommission	2.606110	1.093911	0	0	3.080435e+01
465.193542	16.421154	break	0	0	0.000000	1.740936	0	0	0	0	ThoughtProbe	1.844499	1.093933	0	30	30
482.254486	1.279622	city	1	1	1.550239	1.550239	0	1	0	0	CorrectCommission	0.863920	1.087058	0	0	3.182353e+01
483.534088	1.279581	city	10	1	1.603456	1.603456	0	1	0	0	CorrectCommission	1.137566	1.071819	0	0	3.364706e+01
484.813599	1.279405	city	2	1	1.604429	1.604429	0	1	0	0	CorrectCommission	1.142566	1.047793	0	0	3.547059e+01
486.093170	1.279753	city	1	1	1.230306	1.230306	0	1	0	0	CorrectCommission	0.781209	1.015603	0	0	3.729412e+01
487.372833	1.279578	mountain	10	0	0.000000	1.123543	1	0	0	0	CorrectOmission	1.330193	0.976814	0	0	3.911765e+01
488.652405	1.279584	city	2	1	1.230313	1.230313	0	1	0	0	CorrectCommission	0.781171	0.933670	0	0	4.094118e+01
489.931915	1.279441	city	9	1	1.496789	1.496789	0	1	0	0	CorrectCommission	0.589072	0.888890	0	0	4.276471e+01
491.211517	1.279706	city	3	1	1.719430	1.719430	0	1	0	0	CorrectCommission	1.733915	0.845394	0	0	4.458824e+01
492.491150	1.279589	city	7	1	1.550171	1.550171	0	1	0	0	CorrectCommission	0.863568	0.805929	1	0	4.641176e+01
493.770721	1.279542	city	1	0	0.000000	1.376611	0	0	0	1	OmissionError	0.028895	0.772905	1	0	4.823529e+01
495.050201	1.279460	city	4	1	1.305656	1.305656	0	1	0	0	CorrectCommission	0.393750	0.748134	1	0	5.005882e+01
496.329742	1.279593	city	6	1	1.444215	1.444215	0	1	0	0	CorrectCommission	0.318730	0.732600	1	0	5.188235e+01
497.609711	1.280346	city	5	1	1.337068	1.337068	0	1	0	0	CorrectCommission	0.232229	0.726439	1	0	5.370588e+01
498.889374	1.278958	city	1	1	1.443778	1.443778	0	1	0	0	CorrectCommission	0.316488	0.728917	1	0	5.552941e+01
500.168610	1.279515	city	10	1	1.547955	1.547955	0	1	0	0	CorrectCommission	0.852172	0.738611	1	0	5.735294e+01
501.448120	1.279496	mountain	4	0	0.000000	1.637401	1	0	0	0	CorrectOmission	1.312110	0.753639	1	0	5.917647e+01
502.727722	1.279723	city	4	1	1.603288	1.603288	0	1	0	0	CorrectCommission	1.136703	0.771959	1	0	61
504.007355	1.279560	city	2	1	1.336791	1.336791	0	1	0	0	CorrectCommission	0.233650	0.791755	1	0	6.282353e+01
505.286926	1.279589	city	6	1	1.551243	1.551243	0	1	0	0	CorrectCommission	0.869080	0.811765	1	0	6.464706e+01
506.566528	1.279587	city	9	1	1.230829	1.230829	0	1	0	0	CorrectCommission	0.778519	0.831601	0	0	6.647059e+01
507.846100	1.279550	city	7	1	1.601893	1.601893	0	1	0	0	CorrectCommission	1.129528	0.851997	0	0	6.829412e+01
509.125671	1.279608	city	10	1	1.121902	1.121902	0	1	0	0	CorrectCommission	1.338629	0.874932	0	0	7.011765e+01
510.405212	1.279461	city	5	1	1.657362	1.657362	0	1	0	0	CorrectCommission	1.414755	0.903636	0	0	7.194118e+01
511.684723	1.279591	city	8	1	1.230775	1.230775	0	1	0	0	CorrectCommission	0.778796	0.942379	0	0	7.376471e+01
512.964355	1.279686	city	1	1	1.442604	1.442604	0	1	0	0	CorrectCommission	0.310451	0.996128	0	0	7.558824e+01
514.243958	1.279540	city	6	1	1.496949	1.496949	0	1	0	0	CorrectCommission	0.589896	1.070036	0	0	7.741176e+01
515.523560	1.279611	city	8	1	1.230735	1.230735	0	1	0	0	CorrectCommission	0.779002	1.168827	0	0	7.923529e+01
516.803101	1.279476	city	9	1	1.444158	1.444158	0	1	0	0	CorrectCommission	0.318441	1.296203	0	0	8.105882e+01
518.082642	1.279649	city	6	1	1.338165	1.338165	0	1	0	0	CorrectCommission	0.226585	1.454278	0	0	8.288235e+01
519.362244	1.279515	city	3	1	1.816942	1.816942	0	1	0	0	CorrectCommission	2.235328	1.643082	0	0	8.470588e+01
520.641846	1.279705	city	4	1	1.550585	1.550585	0	1	0	0	CorrectCommission	0.865699	1.860308	0	0	8.652941e+01
521.921448	1.279547	city	10	1	1.202912	1.202912	0	1	0	0	CorrectCommission	0.922068	2.101396	0	0	8.835294e+01
523.200989	1.279431	city	4	1	1.548013	1.548013	0	1	0	0	CorrectCommission	0.852474	2.359691	0	0	9.017647e+01
527.559570	7.437829	break	0	0	0.000000	1.893115	0	0	0	0	ThoughtProbe	2.627016	2.627016	0	92	92
