onset	duration	trial_type	image_type	Press	ReactionTime	ReactionTime_Interpolated	CorrectOmission	CorrectCommission	CommissionError	OmissionError	response_type	nonsmoothVarianceTimeCourse	VarianceTimeCourse	In_the_Zone	ThoughtProbe	ThoughtProbe_Interpolated
0.653039	1.279733	city	2	1	0.978793	0.978793	0	1	0	0	CorrectCommission	0.058542	0.058542	1	0	91
1.932686	1.279561	city	4	1	0.941363	0.941363	0	1	0	0	CorrectCommission	0.360628	0.126588	1	0	91
3.212264	1.279595	city	2	1	0.910185	0.910185	0	1	0	0	CorrectCommission	0.612261	0.192394	1	0	91
4.491766	1.279409	city	5	1	0.942097	0.942097	0	1	0	0	CorrectCommission	0.354706	0.253977	1	0	91
5.771287	1.279634	city	3	1	0.911231	0.911231	0	1	0	0	CorrectCommission	0.603814	0.309806	1	0	91
7.064273	1.306338	mountain	4	0	0.000000	1.025103	1	0	0	0	CorrectOmission	0.315220	0.358932	1	0	91
8.363812	1.292740	city	4	1	1.106259	1.106259	0	1	0	0	CorrectCommission	0.970211	0.401078	1	0	91
9.656734	1.293104	city	7	1	0.977246	0.977246	0	1	0	0	CorrectCommission	0.071027	0.436561	1	0	91
10.943062	1.279549	city	8	1	0.887888	0.887888	0	1	0	0	CorrectCommission	0.792212	0.466271	1	0	91
12.222559	1.279447	mountain	7	0	0.000000	1.019603	1	0	0	0	CorrectOmission	0.270825	0.491413	1	0	91
13.502139	1.279714	city	1	1	1.133880	1.133880	0	1	0	0	CorrectCommission	1.193133	0.513372	1	0	91
14.781749	1.279506	city	8	1	0.992211	0.992211	0	1	0	0	CorrectCommission	0.049757	0.533450	1	0	91
16.061340	1.279676	city	5	1	0.996205	0.996205	0	1	0	0	CorrectCommission	0.081986	0.552759	1	0	91
17.340881	1.279406	mountain	6	0	0.000000	1.071436	1	0	0	0	CorrectOmission	0.689157	0.571962	1	0	91
18.620445	1.279725	city	8	1	1.101367	1.101367	0	1	0	0	CorrectCommission	0.930727	0.591229	1	0	91
19.900101	1.279584	city	9	1	0.969462	0.969462	0	1	0	0	CorrectCommission	0.133850	0.610183	1	0	91
21.179680	1.279575	city	1	1	0.910905	0.910905	0	1	0	0	CorrectCommission	0.606449	0.628007	1	0	91
22.465933	1.292932	city	9	1	1.032008	1.032008	0	1	0	0	CorrectCommission	0.370949	0.643483	1	0	91
23.758841	1.292885	city	4	1	0.874777	0.874777	0	1	0	0	CorrectCommission	0.898029	0.655216	1	0	91
25.051739	1.292910	city	10	1	0.781340	0.781340	0	1	0	0	CorrectCommission	1.652133	0.661797	1	0	91
26.337906	1.279423	city	3	1	0.910912	0.910912	0	1	0	0	CorrectCommission	0.606391	0.662029	1	0	91
27.617401	1.279567	city	1	1	0.914174	0.914174	0	1	0	0	CorrectCommission	0.580062	0.655126	1	0	91
28.897068	1.279766	city	8	1	0.928764	0.928764	0	1	0	0	CorrectCommission	0.462309	0.640796	1	0	91
30.183392	1.292884	city	2	1	0.892484	0.892484	0	1	0	0	CorrectCommission	0.755123	0.619345	1	0	91
31.469625	1.279581	city	4	1	0.865952	0.865952	0	1	0	0	CorrectCommission	0.969252	0.591689	1	0	91
32.749126	1.279421	city	7	1	0.860026	0.860026	0	1	0	0	CorrectCommission	1.017084	0.559324	1	0	91
34.028622	1.279570	city	8	1	0.914473	0.914473	0	1	0	0	CorrectCommission	0.577652	0.524222	1	0	91
35.308281	1.279746	city	6	1	0.913186	0.913186	0	1	0	0	CorrectCommission	0.588037	0.488636	1	0	91
36.607899	1.319490	city	9	1	0.990794	0.990794	0	1	0	0	CorrectCommission	0.038315	0.454881	1	0	91
37.907391	1.279497	city	7	1	0.986523	0.986523	0	1	0	0	CorrectCommission	0.003851	0.425156	1	0	91
39.186893	1.279505	city	9	1	0.964649	0.964649	0	1	0	0	CorrectCommission	0.172695	0.401293	1	0	91
40.486462	1.319636	city	6	1	1.011485	1.011485	0	1	0	0	CorrectCommission	0.205310	0.384635	1	0	91
41.799480	1.306402	city	1	1	0.993844	0.993844	0	1	0	0	CorrectCommission	0.062932	0.375915	1	0	91
43.092472	1.279580	city	2	1	0.923647	0.923647	0	1	0	0	CorrectCommission	0.503611	0.375291	1	0	91
44.378712	1.292901	mountain	7	0	0.000000	1.001270	1	0	0	0	CorrectOmission	0.122868	0.382334	1	0	91
45.671631	1.292937	city	1	1	1.060829	1.060829	0	1	0	0	CorrectCommission	0.603551	0.396165	1	0	91
46.971169	1.306135	city	10	1	0.936438	0.936438	0	1	0	0	CorrectCommission	0.400378	0.415558	1	0	91
48.270687	1.292905	city	7	1	0.999429	0.999429	0	1	0	0	CorrectCommission	0.108009	0.439094	1	0	91
49.576969	1.319662	city	8	1	0.959501	0.959501	0	1	0	0	CorrectCommission	0.214242	0.465262	1	0	91
50.876514	1.279428	city	2	1	0.862452	0.862452	0	1	0	0	CorrectCommission	0.997499	0.492577	1	0	91
52.156082	1.279708	city	4	1	1.087499	1.087499	0	1	0	0	CorrectCommission	0.818801	0.519640	1	0	91
53.449078	1.306284	city	10	1	0.920559	0.920559	0	1	0	0	CorrectCommission	0.528529	0.545228	1	0	91
54.755318	1.306192	city	9	1	0.983486	0.983486	0	1	0	0	CorrectCommission	0.020663	0.568344	1	0	91
56.048149	1.279468	city	5	1	0.937220	0.937220	0	1	0	0	CorrectCommission	0.394066	0.588261	1	0	91
57.327740	1.279713	city	3	1	0.916162	0.916162	0	1	0	0	CorrectCommission	0.564022	0.604529	1	0	91
60.886623	5.838056	break	0	1	1.254660	1.254660	0	0	0	0	ThoughtProbe	2.167919	0.617012	1	91	91
64.458771	1.306239	city	1	1	0.900855	0.900855	0	1	0	0	CorrectCommission	0.687557	0.625812	1	0	9.102500e+01
65.765007	1.306237	city	6	1	0.948733	0.948733	0	1	0	0	CorrectCommission	0.301144	0.631302	1	0	9.105000e+01
67.064499	1.292744	city	3	1	1.001796	1.001796	0	1	0	0	CorrectCommission	0.127116	0.633972	1	0	9.107500e+01
68.350739	1.279743	city	8	1	0.931116	0.931116	0	1	0	0	CorrectCommission	0.443330	0.634337	1	0	9.110000e+01
69.657074	1.332913	city	6	1	1.071752	1.071752	0	1	0	0	CorrectCommission	0.691712	0.632837	1	0	9.112500e+01
70.976639	1.306230	city	5	1	1.060810	1.060810	0	1	0	0	CorrectCommission	0.603397	0.629768	1	0	9.115000e+01
72.309532	1.359546	city	6	1	1.165794	1.165794	0	1	0	0	CorrectCommission	1.450699	0.625252	1	0	9.117500e+01
73.642357	1.306102	city	3	1	1.020055	1.020055	0	1	0	0	CorrectCommission	0.274475	0.619254	1	0	9.120000e+01
74.941925	1.293040	city	5	1	1.017826	1.017826	0	1	0	0	CorrectCommission	0.256486	0.611676	1	0	9.122500e+01
76.228149	1.279414	city	2	1	0.868272	0.868272	0	1	0	0	CorrectCommission	0.950525	0.602394	1	0	9.125000e+01
77.534393	1.333062	city	10	1	0.946056	0.946056	0	1	0	0	CorrectCommission	0.322756	0.591403	1	0	9.127500e+01
78.860703	1.319561	city	2	1	1.023826	1.023826	0	1	0	0	CorrectCommission	0.304916	0.578953	1	0	9.130000e+01
80.160202	1.279441	mountain	6	0	0.000000	1.098192	1	0	0	0	CorrectOmission	0.905103	0.565606	1	0	9.132500e+01
81.439781	1.279712	mountain	7	0	0.000000	1.138610	1	0	0	0	CorrectOmission	1.231303	0.552282	1	0	9.135000e+01
82.746086	1.332902	city	10	1	1.114536	1.114536	0	1	0	0	CorrectCommission	1.037015	0.540238	1	0	9.137500e+01
84.052330	1.279578	city	9	1	0.995430	0.995430	0	1	0	0	CorrectCommission	0.075736	0.530910	1	0	9.140000e+01
85.331902	1.279578	city	7	1	0.982911	0.982911	0	1	0	0	CorrectCommission	0.025306	0.525768	1	0	9.142500e+01
86.624825	1.306254	city	8	1	0.980606	0.980606	0	1	0	0	CorrectCommission	0.043906	0.526042	1	0	9.145000e+01
87.937737	1.319571	city	1	1	0.908693	0.908693	0	1	0	0	CorrectCommission	0.624303	0.532516	1	0	9.147500e+01
89.250626	1.306219	city	7	1	1.018310	1.018310	0	1	0	0	CorrectCommission	0.260394	0.545335	1	0	9.150000e+01
90.543533	1.279598	city	3	1	0.977413	0.977413	0	1	0	0	CorrectCommission	0.069676	0.564004	1	0	9.152500e+01
91.829712	1.292751	city	7	1	0.929808	0.929808	0	1	0	0	CorrectCommission	0.453882	0.587387	1	0	9.155000e+01
93.135948	1.319726	city	1	1	0.884580	0.884580	0	1	0	0	CorrectCommission	0.818909	0.613915	1	0	9.157500e+01
94.442169	1.292720	city	6	1	0.874769	0.874769	0	1	0	0	CorrectCommission	0.898095	0.641803	1	0	9.160000e+01
95.741730	1.306399	city	5	1	0.911549	0.911549	0	1	0	0	CorrectCommission	0.601253	0.669420	1	0	9.162500e+01
97.034668	1.279468	mountain	5	0	0.000000	1.073111	1	0	0	0	CorrectOmission	0.702683	0.695599	1	0	9.165000e+01
98.334198	1.319601	city	8	1	1.195406	1.195406	0	1	0	0	CorrectCommission	1.689697	0.719846	1	0	9.167500e+01
99.647148	1.306298	city	5	1	1.114383	1.114383	0	1	0	0	CorrectCommission	1.035772	0.742469	1	0	9.170000e+01
100.946686	1.292776	city	7	1	1.057202	1.057202	0	1	0	0	CorrectCommission	0.574281	0.764604	0	0	9.172500e+01
102.239517	1.292889	city	5	1	1.037192	1.037192	0	1	0	0	CorrectCommission	0.412785	0.787978	0	0	9.175000e+01
103.525841	1.279751	city	3	1	1.036843	1.036843	0	1	0	0	CorrectCommission	0.409968	0.814660	0	0	9.177500e+01
104.805466	1.279506	city	7	1	1.022227	1.022227	0	1	0	0	CorrectCommission	0.292007	0.846639	0	0	9.180000e+01
106.111626	1.332814	city	5	1	1.129400	1.129400	0	1	0	0	CorrectCommission	1.156975	0.885438	0	0	9.182500e+01
107.444489	1.332909	city	6	1	1.198400	1.198400	0	1	0	0	CorrectCommission	1.713854	0.931744	0	0	9.185000e+01
108.764046	1.306212	city	4	1	1.061260	1.061260	0	1	0	0	CorrectCommission	0.607036	0.985145	0	0	9.187500e+01
110.057030	1.279757	city	3	1	0.930065	0.930065	0	1	0	0	CorrectCommission	0.451811	1.044015	0	0	9.190000e+01
111.336632	1.279436	city	8	1	0.943689	0.943689	0	1	0	0	CorrectCommission	0.341859	1.105549	0	0	9.192500e+01
112.622879	1.293067	city	9	1	0.999097	0.999097	0	1	0	0	CorrectCommission	0.105328	1.166085	0	0	9.195000e+01
113.929184	1.319532	city	7	1	1.005445	1.005445	0	1	0	0	CorrectCommission	0.156559	1.221595	0	0	9.197500e+01
117.528000	5.878106	break	0	1	1.266720	1.266720	0	0	0	0	ThoughtProbe	2.265256	1.268337	0	92	92
121.114105	1.294099	mountain	8	0	0.000000	1.488863	1	0	0	0	CorrectOmission	4.058121	1.303438	0	0	9.185294e+01
122.400246	1.278193	city	4	1	1.495620	1.495620	0	1	0	0	CorrectCommission	4.112651	1.325483	0	0	9.170588e+01
123.705872	1.333049	city	5	1	1.110736	1.110736	0	1	0	0	CorrectCommission	1.006345	1.334743	0	0	9.155882e+01
125.018860	1.292934	city	7	1	0.932849	0.932849	0	1	0	0	CorrectCommission	0.429340	1.333117	0	0	9.141176e+01
126.311768	1.292882	city	10	1	0.865729	0.865729	0	1	0	0	CorrectCommission	0.971054	1.323598	0	0	9.126471e+01
127.631332	1.346249	city	1	1	1.041058	1.041058	0	1	0	0	CorrectCommission	0.443985	1.309639	0	0	9.111765e+01
128.944229	1.279553	city	6	1	0.936976	0.936976	0	1	0	0	CorrectCommission	0.396033	1.294462	0	0	9.097059e+01
130.237137	1.306241	city	10	1	0.726908	0.726908	0	1	0	0	CorrectCommission	2.091444	1.280370	0	0	9.082353e+01
131.543365	1.306221	city	7	1	0.988581	0.988581	0	1	0	0	CorrectCommission	0.020461	1.268266	0	0	9.067647e+01
132.836212	1.279465	mountain	2	0	0.000000	1.178739	1	0	0	0	CorrectOmission	1.555179	1.257679	0	0	9.052941e+01
134.129074	1.306276	city	1	1	1.191502	1.191502	0	1	0	0	CorrectCommission	1.658188	1.246825	0	0	9.038235e+01
135.435410	1.306384	city	2	1	0.920993	0.920993	0	1	0	0	CorrectCommission	0.525032	1.233117	0	0	9.023529e+01
136.728363	1.279542	city	8	1	0.835301	0.835301	0	1	0	0	CorrectCommission	1.216628	1.213795	0	0	9.008824e+01
138.014603	1.292911	city	7	1	0.662877	0.662877	0	1	0	0	CorrectCommission	2.608226	1.186523	0	0	8.994118e+01
139.320831	1.319567	city	9	1	0.731531	0.731531	0	1	0	0	CorrectCommission	2.054132	1.149962	0	0	8.979412e+01
140.633728	1.306213	city	7	1	0.760760	0.760760	0	1	0	0	CorrectCommission	1.818233	1.104181	0	0	8.964706e+01
141.933197	1.292744	city	10	1	0.835486	0.835486	0	1	0	0	CorrectCommission	1.215140	1.050749	0	0	8.950000e+01
143.239456	1.319749	city	5	1	1.043947	1.043947	0	1	0	0	CorrectCommission	0.467304	0.992569	0	0	8.935294e+01
144.552368	1.306075	city	8	1	1.072569	1.072569	0	1	0	0	CorrectCommission	0.698305	0.933501	0	0	8.920588e+01
145.858536	1.306277	city	3	1	1.028890	1.028890	0	1	0	0	CorrectCommission	0.345785	0.877792	0	0	8.905882e+01
147.158203	1.293062	city	10	1	0.863272	0.863272	0	1	0	0	CorrectCommission	0.990885	0.829526	0	0	8.891176e+01
148.451172	1.292857	city	2	1	0.983225	0.983225	0	1	0	0	CorrectCommission	0.022772	0.792057	0	0	8.876471e+01
149.744049	1.292908	city	3	1	0.985454	0.985454	0	1	0	0	CorrectCommission	0.004778	0.767652	0	0	8.861765e+01
151.030182	1.279348	city	4	1	0.934871	0.934871	0	1	0	0	CorrectCommission	0.413024	0.757268	0	0	8.847059e+01
152.323074	1.306457	city	7	1	0.894790	0.894790	0	1	0	0	CorrectCommission	0.736508	0.760578	0	0	8.832353e+01
153.622787	1.292965	city	8	1	0.876217	0.876217	0	1	0	0	CorrectCommission	0.886405	0.776112	0	0	8.817647e+01
154.915634	1.292721	city	9	1	0.873739	0.873739	0	1	0	0	CorrectCommission	0.906409	0.801480	0	0	8.802941e+01
156.215500	1.306994	city	4	1	0.929924	0.929924	0	1	0	0	CorrectCommission	0.452947	0.833778	0	0	8.788235e+01
157.515121	1.292265	city	2	1	0.910674	0.910674	0	1	0	0	CorrectCommission	0.608315	0.869957	0	0	8.773529e+01
158.800995	1.279466	city	8	1	0.758516	0.758516	0	1	0	0	CorrectCommission	1.836340	0.907061	0	0	8.758824e+01
160.113831	1.346207	city	3	1	0.865858	0.865858	0	1	0	0	CorrectCommission	0.970013	0.942585	0	0	8.744118e+01
161.486771	1.399692	city	5	1	0.906736	0.906736	0	1	0	0	CorrectCommission	0.640097	0.974655	0	0	8.729412e+01
162.839752	1.306263	city	2	1	0.865705	0.865705	0	1	0	0	CorrectCommission	0.971244	1.002087	0	0	8.714706e+01
166.485214	5.984665	break	0	1	0.804336	0.804336	0	0	0	0	ThoughtProbe	1.466542	1.024413	0	87	87
170.157242	1.359398	city	5	1	0.800094	0.800094	0	1	0	0	CorrectCommission	1.500777	1.041797	0	0	8.738235e+01
171.510147	1.346411	city	1	1	0.818447	0.818447	0	1	0	0	CorrectCommission	1.352652	1.054898	0	0	8.776471e+01
172.849747	1.332772	city	8	1	0.884975	0.884975	0	1	0	0	CorrectCommission	0.815722	1.064662	0	0	8.814706e+01
174.155914	1.279561	city	2	1	0.858369	0.858369	0	1	0	0	CorrectCommission	1.030453	1.072096	0	0	8.852941e+01
175.442139	1.292906	city	9	1	0.870732	0.870732	0	1	0	0	CorrectCommission	0.930677	1.078011	0	0	8.891176e+01
176.741776	1.306370	mountain	5	0	0.000000	1.042239	1	0	0	0	CorrectOmission	0.453517	1.082852	0	0	8.929412e+01
178.054657	1.319388	city	3	1	1.136376	1.136376	0	1	0	0	CorrectCommission	1.213275	1.086583	0	0	8.967647e+01
179.354187	1.279655	city	6	1	0.916628	0.916628	0	1	0	0	CorrectCommission	0.560258	1.088637	0	0	9.005882e+01
180.653748	1.319488	city	2	1	0.800199	0.800199	0	1	0	0	CorrectCommission	1.499933	1.088010	0	0	9.044118e+01
181.966614	1.306237	city	5	1	0.782019	0.782019	0	1	0	0	CorrectCommission	1.646658	1.083404	0	0	9.082353e+01
183.292862	1.346253	city	10	1	0.725965	0.725965	0	1	0	0	CorrectCommission	2.099058	1.073459	0	0	9.120588e+01
184.632431	1.332903	city	3	1	0.963420	0.963420	0	1	0	0	CorrectCommission	0.182610	1.056929	0	0	9.158824e+01
185.958755	1.319721	city	4	1	0.880453	0.880453	0	1	0	0	CorrectCommission	0.852218	1.032941	0	0	9.197059e+01
187.265060	1.292896	city	10	1	0.779812	0.779812	0	1	0	0	CorrectCommission	1.664472	1.001063	0	0	9.235294e+01
188.564636	1.306250	city	7	1	1.061844	1.061844	0	1	0	0	CorrectCommission	0.611750	0.961458	0	0	9.273529e+01
189.857452	1.279385	city	6	1	1.129152	1.129152	0	1	0	0	CorrectCommission	1.154976	0.914978	0	0	9.311765e+01
191.137024	1.279767	mountain	5	0	0.000000	1.170626	1	0	0	0	CorrectOmission	1.489704	0.863059	0	0	9.350000e+01
192.429932	1.306049	city	9	1	1.153419	1.153419	0	1	0	0	CorrectCommission	1.350828	0.807657	0	0	9.388235e+01
193.736160	1.306403	city	8	1	1.044683	1.044683	0	1	0	0	CorrectCommission	0.473242	0.751085	0	0	9.426471e+01
195.055801	1.332894	city	4	1	1.007203	1.007203	0	1	0	0	CorrectCommission	0.170750	0.695799	1	0	9.464706e+01
196.368713	1.292909	city	10	1	0.888891	0.888891	0	1	0	0	CorrectCommission	0.784119	0.644103	1	0	9.502941e+01
197.654877	1.279415	city	3	1	0.964874	0.964874	0	1	0	0	CorrectCommission	0.170879	0.597930	1	0	9.541176e+01
198.961029	1.332917	city	8	1	0.976314	0.976314	0	1	0	0	CorrectCommission	0.078548	0.558672	1	0	9.579412e+01
200.267288	1.279590	city	4	1	0.997859	0.997859	0	1	0	0	CorrectCommission	0.095335	0.527057	1	0	9.617647e+01
201.586853	1.359533	city	2	1	1.008378	1.008378	0	1	0	0	CorrectCommission	0.180234	0.503175	1	0	9.655882e+01
202.933075	1.332911	city	6	1	0.883617	0.883617	0	1	0	0	CorrectCommission	0.826681	0.486583	1	0	9.694118e+01
204.239395	1.279731	city	2	1	0.858710	0.858710	0	1	0	0	CorrectCommission	1.027697	0.476453	1	0	9.732353e+01
205.547165	1.335794	city	9	1	0.983392	0.983392	0	1	0	0	CorrectCommission	0.021422	0.471800	1	0	9.770588e+01
206.893372	1.356633	city	3	1	1.023655	1.023655	0	1	0	0	CorrectCommission	0.303536	0.471629	1	0	9.808824e+01
208.224823	1.306257	city	5	1	0.856010	0.856010	0	1	0	0	CorrectCommission	1.049489	0.475042	1	0	9.847059e+01
209.517731	1.279564	city	9	1	0.913100	0.913100	0	1	0	0	CorrectCommission	0.588734	0.481273	1	0	9.885294e+01
210.803894	1.292765	city	2	1	0.959761	0.959761	0	1	0	0	CorrectCommission	0.212141	0.489720	1	0	9.923529e+01
212.116714	1.332884	city	5	1	0.991096	0.991096	0	1	0	0	CorrectCommission	0.040759	0.499820	1	0	9.961765e+01
215.782181	5.998030	break	0	0	0.000000	0.958536	0	0	0	0	ThoughtProbe	0.222032	0.511042	1	100	100
219.447708	1.333042	city	2	1	0.917889	0.917889	0	1	0	0	CorrectCommission	0.550084	0.522761	1	0	9.978261e+01
220.768509	1.308549	city	8	1	0.924966	0.924966	0	1	0	0	CorrectCommission	0.492965	0.534262	1	0	9.956522e+01
222.081406	1.317257	city	10	1	0.816341	0.816341	0	1	0	0	CorrectCommission	1.369649	0.544802	1	0	9.934783e+01
223.393158	1.306232	city	2	1	1.051423	1.051423	0	1	0	0	CorrectCommission	0.527642	0.553598	1	0	9.913043e+01
224.692642	1.292742	city	6	1	1.031562	1.031562	0	1	0	0	CorrectCommission	0.367349	0.559998	1	0	9.891304e+01
225.985474	1.292939	city	4	1	0.978528	0.978528	0	1	0	0	CorrectCommission	0.060679	0.563502	1	0	9.869565e+01
227.278442	1.292998	city	3	1	0.809462	0.809462	0	1	0	0	CorrectCommission	1.425168	0.563870	1	0	9.847826e+01
228.591339	1.332793	city	7	1	0.878971	0.878971	0	1	0	0	CorrectCommission	0.864178	0.561125	1	0	9.826087e+01
229.904266	1.293059	mountain	5	0	0.000000	0.969568	1	0	0	0	CorrectOmission	0.132992	0.555620	1	0	9.804348e+01
231.210587	1.319584	city	8	1	0.999364	0.999364	0	1	0	0	CorrectCommission	0.107482	0.547995	1	0	9.782609e+01
232.516830	1.292900	city	1	1	0.886469	0.886469	0	1	0	0	CorrectCommission	0.803664	0.539127	1	0	9.760870e+01
233.829681	1.332808	city	10	1	0.894594	0.894594	0	1	0	0	CorrectCommission	0.738092	0.530063	1	0	9.739130e+01
235.155914	1.319643	city	6	1	1.128778	1.128778	0	1	0	0	CorrectCommission	1.151958	0.521911	1	0	9.717391e+01
236.475510	1.319562	city	1	1	1.010513	1.010513	0	1	0	0	CorrectCommission	0.197469	0.515731	1	0	9.695652e+01
237.788406	1.306232	mountain	6	0	0.000000	0.988108	1	0	0	0	CorrectOmission	0.016639	0.512481	1	0	9.673913e+01
239.087982	1.292912	city	3	1	1.017725	1.017725	0	1	0	0	CorrectCommission	0.255671	0.512856	1	0	9.652174e+01
240.387482	1.306075	city	1	1	1.055527	1.055527	0	1	0	0	CorrectCommission	0.560767	0.517258	1	0	9.630435e+01
241.687073	1.293102	city	6	1	0.977000	0.977000	0	1	0	0	CorrectCommission	0.073007	0.525773	1	0	9.608696e+01
242.993378	1.319537	city	2	1	0.902996	0.902996	0	1	0	0	CorrectCommission	0.670280	0.538223	1	0	9.586957e+01
244.306274	1.306239	city	5	1	1.006221	1.006221	0	1	0	0	CorrectCommission	0.162822	0.554197	1	0	9.565217e+01
245.599106	1.279424	mountain	9	0	0.000000	1.109969	1	0	0	0	CorrectOmission	1.000154	0.573182	1	0	9.543478e+01
246.898621	1.319608	city	7	1	1.143393	1.143393	0	1	0	0	CorrectCommission	1.269905	0.594578	1	0	9.521739e+01
248.211563	1.306263	city	1	1	1.035641	1.035641	0	1	0	0	CorrectCommission	0.400270	0.617761	1	0	95
249.537857	1.346332	city	6	1	1.083824	1.083824	0	1	0	0	CorrectCommission	0.789144	0.642067	1	0	9.478261e+01
250.877441	1.332853	city	3	1	0.930696	0.930696	0	1	0	0	CorrectCommission	0.446721	0.666686	1	0	9.456522e+01
252.190292	1.292840	city	7	1	0.969073	0.969073	0	1	0	0	CorrectCommission	0.136985	0.690669	1	0	9.434783e+01
253.503128	1.332834	city	3	1	0.926723	0.926723	0	1	0	0	CorrectCommission	0.478781	0.712895	1	0	9.413043e+01
254.809402	1.279726	city	5	1	1.069446	1.069446	0	1	0	0	CorrectCommission	0.673097	0.732070	1	0	9.391304e+01
256.102325	1.306109	city	10	1	0.925273	0.925273	0	1	0	0	CorrectCommission	0.490490	0.746882	0	0	9.369565e+01
257.415222	1.319694	mountain	2	0	0.000000	1.135278	1	0	0	0	CorrectOmission	1.204413	0.756219	0	0	9.347826e+01
258.748108	1.346067	city	6	1	1.305448	1.305448	0	1	0	0	CorrectCommission	2.577816	0.759374	0	0	9.326087e+01
260.094330	1.346380	city	5	1	1.041769	1.041769	0	1	0	0	CorrectCommission	0.449728	0.756230	0	0	9.304348e+01
261.420654	1.306274	city	4	1	1.026100	1.026100	0	1	0	0	CorrectCommission	0.323269	0.747465	0	0	9.282609e+01
262.720154	1.292710	city	7	1	1.171385	1.171385	0	1	0	0	CorrectCommission	1.495830	0.734462	1	0	9.260870e+01
264.026398	1.319784	city	5	1	0.978076	0.978076	0	1	0	0	CorrectCommission	0.064326	0.719204	1	0	9.239130e+01
265.346069	1.319531	city	4	1	1.051140	1.051140	0	1	0	0	CorrectCommission	0.525359	0.704162	1	0	9.217391e+01
266.698914	1.386213	city	1	1	0.871550	0.871550	0	1	0	0	CorrectCommission	0.924076	0.691914	1	0	9.195652e+01
268.071808	1.359529	city	7	1	0.919136	0.919136	0	1	0	0	CorrectCommission	0.540020	0.684876	1	0	9.173913e+01
269.424652	1.346179	city	8	1	0.962534	0.962534	0	1	0	0	CorrectCommission	0.189765	0.685007	1	0	9.152174e+01
270.750793	1.306115	city	3	1	0.945685	0.945685	0	1	0	0	CorrectCommission	0.325747	0.693547	1	0	9.130435e+01
272.070374	1.333064	city	6	1	0.900000	0.900000	0	1	0	0	CorrectCommission	0.694462	0.710825	1	0	9.108696e+01
273.403320	1.332821	city	10	1	0.861285	0.861285	0	1	0	0	CorrectCommission	1.006920	0.736218	1	0	9.086957e+01
274.722839	1.306184	city	9	1	0.978596	0.978596	0	1	0	0	CorrectCommission	0.060132	0.768151	0	0	9.065217e+01
276.035675	1.319528	city	7	1	0.964180	0.964180	0	1	0	0	CorrectCommission	0.176478	0.804295	0	0	9.043478e+01
277.381897	1.372878	city	2	1	0.900179	0.900179	0	1	0	0	CorrectCommission	0.693016	0.841772	0	0	9.021739e+01
280.867401	5.598169	break	0	1	0.698344	0.698344	0	0	0	0	ThoughtProbe	2.321975	0.877466	0	90	90
284.306396	1.279766	city	7	1	0.911015	0.911015	0	1	0	0	CorrectCommission	0.605563	0.908355	0	0	9.029412e+01
285.599335	1.306119	city	8	1	0.863492	0.863492	0	1	0	0	CorrectCommission	0.989105	0.931948	0	0	9.058824e+01
286.898865	1.292990	city	5	1	1.127492	1.127492	0	1	0	0	CorrectCommission	1.141577	0.946425	0	0	9.088235e+01
288.185089	1.279448	mountain	3	0	0.000000	1.185598	1	0	0	0	CorrectOmission	1.610534	0.950876	0	0	9.117647e+01
289.491364	1.333081	city	9	1	1.158126	1.158126	0	1	0	0	CorrectCommission	1.388816	0.945354	0	0	9.147059e+01
290.810913	1.306039	city	7	1	1.165394	1.165394	0	1	0	0	CorrectCommission	1.447474	0.930809	0	0	9.176471e+01
292.123840	1.319772	city	1	1	1.114882	1.114882	0	1	0	0	CorrectCommission	1.039803	0.908851	0	0	9.205882e+01
293.450104	1.332764	city	9	1	1.006635	1.006635	0	1	0	0	CorrectCommission	0.166164	0.881563	0	0	9.235294e+01
294.769623	1.306308	city	6	1	0.966037	0.966037	0	1	0	0	CorrectCommission	0.161488	0.851228	0	0	9.264706e+01
296.089233	1.332917	city	1	1	0.919720	0.919720	0	1	0	0	CorrectCommission	0.535303	0.820015	0	0	9.294118e+01
297.428650	1.345877	city	7	1	1.141829	1.141829	0	1	0	0	CorrectCommission	1.257290	0.789842	0	0	9.323529e+01
298.741455	1.279756	mountain	10	0	0.000000	1.157138	1	0	0	0	CorrectOmission	1.380846	0.762286	0	0	9.352941e+01
300.041199	1.319720	city	5	1	1.062315	1.062315	0	1	0	0	CorrectCommission	0.615544	0.738540	1	0	9.382353e+01
301.374084	1.346052	city	9	1	0.954025	0.954025	0	1	0	0	CorrectCommission	0.258435	0.719476	1	0	9.411765e+01
302.713593	1.332995	city	10	1	0.899651	0.899651	0	1	0	0	CorrectCommission	0.697280	0.705720	1	0	9.441176e+01
304.033264	1.306302	city	5	1	0.989383	0.989383	0	1	0	0	CorrectCommission	0.026926	0.697637	1	0	9.470588e+01
305.372772	1.372742	city	6	1	1.087196	1.087196	0	1	0	0	CorrectCommission	0.816359	0.695465	1	0	95
306.712341	1.306398	city	1	1	0.885963	0.885963	0	1	0	0	CorrectCommission	0.807748	0.699286	1	0	9.529412e+01
308.011932	1.292791	city	6	1	1.110038	1.110038	0	1	0	0	CorrectCommission	1.000709	0.709046	1	0	9.558824e+01
309.311523	1.306347	city	5	1	1.051577	1.051577	0	1	0	0	CorrectCommission	0.528884	0.724538	1	0	9.588235e+01
310.657684	1.386030	city	4	1	1.111931	1.111931	0	1	0	0	CorrectCommission	1.015989	0.745309	0	0	9.617647e+01
311.997253	1.293108	city	7	1	1.012671	1.012671	0	1	0	0	CorrectCommission	0.214882	0.770577	0	0	9.647059e+01
313.290283	1.292901	city	4	1	0.951686	0.951686	0	1	0	0	CorrectCommission	0.277317	0.799280	0	0	9.676471e+01
314.609833	1.346202	city	2	1	0.893096	0.893096	0	1	0	0	CorrectCommission	0.750182	0.829965	0	0	9.705882e+01
315.929321	1.292789	city	5	1	0.855186	0.855186	0	1	0	0	CorrectCommission	1.056140	0.860893	0	0	9.735294e+01
317.248901	1.346352	city	7	1	0.882145	0.882145	0	1	0	0	CorrectCommission	0.838561	0.890189	0	0	9.764706e+01
318.568420	1.292740	city	4	1	0.936639	0.936639	0	1	0	0	CorrectCommission	0.398758	0.916025	0	0	9.794118e+01
319.874664	1.319724	city	8	1	0.725432	0.725432	0	1	0	0	CorrectCommission	2.103360	0.936837	0	0	9.823529e+01
321.194305	1.319578	city	1	1	0.749621	0.749621	0	1	0	0	CorrectCommission	1.908131	0.951459	0	0	9.852941e+01
322.527130	1.346048	city	8	1	1.066991	1.066991	0	1	0	0	CorrectCommission	0.653285	0.959312	0	0	9.882353e+01
323.846710	1.293092	city	7	1	1.169575	1.169575	0	1	0	0	CorrectCommission	1.481219	0.960429	0	0	9.911765e+01
325.159668	1.332868	city	4	1	1.016276	1.016276	0	1	0	0	CorrectCommission	0.243973	0.955344	0	0	9.941176e+01
326.479187	1.306124	city	8	1	0.990788	0.990788	0	1	0	0	CorrectCommission	0.038267	0.945009	0	0	9.970588e+01
330.157898	6.051300	break	0	1	1.281169	1.281169	0	0	0	0	ThoughtProbe	2.381871	0.930608	0	100	100
333.849976	1.332891	city	2	1	0.933234	0.933234	0	1	0	0	CorrectCommission	0.426233	0.913363	0	0	100
335.182953	1.333056	city	7	1	0.912376	0.912376	0	1	0	0	CorrectCommission	0.594575	0.894521	0	0	100
336.495880	1.292761	city	3	1	0.781393	0.781393	0	1	0	0	CorrectCommission	1.651706	0.875118	0	0	100
337.802094	1.319714	mountain	5	0	0.000000	0.981764	1	0	0	0	CorrectOmission	0.034562	0.855938	0	0	100
339.108429	1.292908	city	5	1	1.173309	1.173309	0	1	0	0	CorrectCommission	1.511358	0.837535	0	0	100
340.421326	1.332894	city	3	1	1.015852	1.015852	0	1	0	0	CorrectCommission	0.240555	0.820106	0	0	100
341.727478	1.279415	city	4	1	0.912271	0.912271	0	1	0	0	CorrectCommission	0.595420	0.803620	0	0	100
343.013733	1.293114	city	3	1	0.804308	0.804308	0	1	0	0	CorrectCommission	1.466770	0.787768	0	0	100
344.326721	1.332879	city	9	1	0.953780	0.953780	0	1	0	0	CorrectCommission	0.260416	0.772045	0	0	100
345.659607	1.332869	city	4	1	1.037299	1.037299	0	1	0	0	CorrectCommission	0.413650	0.755885	0	0	100
346.985840	1.319588	city	7	1	1.138578	1.138578	0	1	0	0	CorrectCommission	1.231048	0.738670	1	0	100
348.305328	1.319384	city	1	1	0.881095	0.881095	0	1	0	0	CorrectCommission	0.847034	0.719878	1	0	100
349.638214	1.346377	city	4	1	1.099013	1.099013	0	1	0	0	CorrectCommission	0.911729	0.699220	1	0	100
350.951141	1.279501	mountain	1	0	0.000000	1.088754	1	0	0	0	CorrectOmission	0.828934	0.676664	1	0	100
352.250702	1.319648	city	8	1	0.980894	0.980894	0	1	0	0	CorrectCommission	0.041582	0.652543	1	0	100
353.590302	1.359514	city	9	1	0.906007	0.906007	0	1	0	0	CorrectCommission	0.645977	0.627582	1	0	100
354.963135	1.386181	city	1	1	0.784554	0.784554	0	1	0	0	CorrectCommission	1.626198	0.602871	1	0	100
356.316040	1.319641	city	5	1	1.022430	1.022430	0	1	0	0	CorrectCommission	0.293646	0.579840	1	0	100
357.628998	1.306262	city	4	1	1.026952	1.026952	0	1	0	0	CorrectCommission	0.330144	0.560176	1	0	100
358.935242	1.306208	city	7	1	0.997049	0.997049	0	1	0	0	CorrectCommission	0.088801	0.545636	1	0	100
360.254791	1.332896	city	3	1	1.008001	1.008001	0	1	0	0	CorrectCommission	0.177188	0.537910	1	0	100
361.580963	1.319421	city	4	1	1.075941	1.075941	0	1	0	0	CorrectCommission	0.725517	0.538392	1	0	100
362.913818	1.346324	city	5	1	0.919415	0.919415	0	1	0	0	CorrectCommission	0.537763	0.548058	1	0	100
364.233459	1.292959	city	10	1	0.904169	0.904169	0	1	0	0	CorrectCommission	0.660816	0.567343	1	0	100
365.552979	1.346071	city	1	1	1.003156	1.003156	0	1	0	0	CorrectCommission	0.138091	0.595935	1	0	100
366.899200	1.346370	city	9	1	1.010367	1.010367	0	1	0	0	CorrectCommission	0.196289	0.632851	1	0	100
368.238831	1.332917	city	1	1	0.991884	0.991884	0	1	0	0	CorrectCommission	0.047119	0.676400	1	0	100
369.571747	1.332871	city	6	1	1.097523	1.097523	0	1	0	0	CorrectCommission	0.899706	0.724383	1	0	100
370.911194	1.346067	city	3	1	1.092316	1.092316	0	1	0	0	CorrectCommission	0.857677	0.774286	0	0	100
372.257355	1.346247	city	5	1	0.995552	0.995552	0	1	0	0	CorrectCommission	0.076720	0.823562	0	0	100
373.576996	1.293041	mountain	7	0	0.000000	1.188092	1	0	0	0	CorrectOmission	1.630667	0.869969	0	0	100
374.869904	1.292765	city	2	1	1.341871	1.341871	0	1	0	0	CorrectCommission	2.871779	0.911693	0	0	100
376.189484	1.346371	city	1	1	1.128823	1.128823	0	1	0	0	CorrectCommission	1.152317	0.947501	0	0	100
377.515778	1.306237	city	2	1	0.980267	0.980267	0	1	0	0	CorrectCommission	0.046644	0.976828	0	0	100
378.835327	1.332825	city	1	1	0.911476	0.911476	0	1	0	0	CorrectCommission	0.601841	0.999551	0	0	100
380.168152	1.332826	city	4	1	0.834929	0.834929	0	1	0	0	CorrectCommission	1.219636	1.015773	0	0	100
381.487762	1.306395	city	9	1	0.848259	0.848259	0	1	0	0	CorrectCommission	1.112050	1.025647	0	0	100
382.807434	1.332948	city	10	1	0.814607	0.814607	0	1	0	0	CorrectCommission	1.383642	1.029191	0	0	100
384.153625	1.359479	city	6	1	1.072471	1.072471	0	1	0	0	CorrectCommission	0.697515	1.026176	0	0	100
387.645782	5.624789	break	0	0	0.000000	0.949844	0	0	0	0	ThoughtProbe	0.292177	1.016237	0	100	100
391.131287	1.346248	city	9	1	0.837782	0.837782	0	1	0	0	CorrectCommission	1.196606	0.998953	0	0	9.962500e+01
392.450867	1.292932	mountain	7	0	0.000000	1.127339	1	0	0	0	CorrectOmission	1.140338	0.974067	0	0	9.925000e+01
393.743805	1.292907	city	4	1	1.367635	1.367635	0	1	0	0	CorrectCommission	3.079716	0.941748	0	0	9.887500e+01
395.056671	1.332871	city	9	1	1.107792	1.107792	0	1	0	0	CorrectCommission	0.982583	0.902665	0	0	9.850000e+01
396.382812	1.319402	city	1	1	1.070526	1.070526	0	1	0	0	CorrectCommission	0.681813	0.858171	0	0	9.812500e+01
397.709015	1.332973	city	5	1	1.063950	1.063950	0	1	0	0	CorrectCommission	0.628746	0.810113	0	0	9.775000e+01
399.056458	1.361926	city	7	1	0.960404	0.960404	0	1	0	0	CorrectCommission	0.206950	0.760688	0	0	9.737500e+01
400.402740	1.330630	city	5	1	0.941625	0.941625	0	1	0	0	CorrectCommission	0.358516	0.712214	1	0	97
401.721161	1.306220	city	4	1	0.993628	0.993628	0	1	0	0	CorrectCommission	0.061187	0.666868	1	0	9.662500e+01
403.020721	1.292929	city	10	1	0.858499	0.858499	0	1	0	0	CorrectCommission	1.029408	0.626537	1	0	9.625000e+01
404.306976	1.279578	mountain	2	0	0.000000	0.888615	1	0	0	0	CorrectOmission	0.786346	0.592686	1	0	9.587500e+01
405.606567	1.319551	city	8	1	0.995963	0.995963	0	1	0	0	CorrectCommission	0.080035	0.566420	1	0	9.550000e+01
406.926117	1.319585	city	1	1	1.092529	1.092529	0	1	0	0	CorrectCommission	0.859399	0.548449	1	0	9.512500e+01
408.259033	1.346219	city	9	1	0.920480	0.920480	0	1	0	0	CorrectCommission	0.529170	0.539109	1	0	9.475000e+01
409.578491	1.292727	city	3	1	0.969470	0.969470	0	1	0	0	CorrectCommission	0.133782	0.538503	1	0	9.437500e+01
410.891418	1.333105	city	4	1	0.949605	0.949605	0	1	0	0	CorrectCommission	0.294108	0.546428	1	0	94
412.211060	1.306182	city	9	1	0.945140	0.945140	0	1	0	0	CorrectCommission	0.330145	0.562335	1	0	9.362500e+01
413.530609	1.332899	city	6	1	0.905923	0.905923	0	1	0	0	CorrectCommission	0.646657	0.585266	1	0	9.325000e+01
414.876831	1.359553	city	8	1	0.850123	0.850123	0	1	0	0	CorrectCommission	1.097002	0.613824	1	0	9.287500e+01
416.203064	1.292911	city	10	1	0.992013	0.992013	0	1	0	0	CorrectCommission	0.048160	0.646100	1	0	9.250000e+01
417.509216	1.319399	city	8	1	1.015877	1.015877	0	1	0	0	CorrectCommission	0.240760	0.679814	1	0	9.212500e+01
418.815430	1.293070	city	1	1	1.069115	1.069115	0	1	0	0	CorrectCommission	0.670425	0.712353	1	0	9.175000e+01
420.128418	1.332884	city	4	1	1.040837	1.040837	0	1	0	0	CorrectCommission	0.442200	0.741011	1	0	9.137500e+01
421.447998	1.306273	city	3	1	0.876296	0.876296	0	1	0	0	CorrectCommission	0.885768	0.763361	0	0	91
422.767609	1.332925	city	4	1	0.783667	0.783667	0	1	0	0	CorrectCommission	1.633352	0.777512	0	0	9.062500e+01
424.093781	1.319428	city	3	1	0.757633	0.757633	0	1	0	0	CorrectCommission	1.843467	0.782488	0	0	9.025000e+01
425.439972	1.372969	mountain	10	1	0.765850	0.765850	0	0	1	0	CommissionError	1.777152	0.778393	0	0	8.987500e+01
426.799591	1.346241	city	2	1	0.930371	0.930371	0	1	0	0	CorrectCommission	0.449342	0.766466	0	0	8.950000e+01
428.152435	1.359501	city	9	1	0.940442	0.940442	0	1	0	0	CorrectCommission	0.368058	0.748979	0	0	8.912500e+01
429.472015	1.279628	city	8	1	0.948608	0.948608	0	1	0	0	CorrectCommission	0.302158	0.728854	1	0	8.875000e+01
430.778259	1.332880	city	6	1	0.870630	0.870630	0	1	0	0	CorrectCommission	0.931499	0.709323	1	0	8.837500e+01
432.104492	1.319582	city	8	1	0.978363	0.978363	0	1	0	0	CorrectCommission	0.062006	0.693448	1	0	88
433.430725	1.332896	city	7	1	0.958225	0.958225	0	1	0	0	CorrectCommission	0.224537	0.683772	1	0	8.762500e+01
434.763641	1.332899	city	6	1	0.831565	0.831565	0	1	0	0	CorrectCommission	1.246782	0.681980	1	0	8.725000e+01
436.096527	1.332902	city	4	1	0.960333	0.960333	0	1	0	0	CorrectCommission	0.207524	0.688673	1	0	8.687500e+01
437.429413	1.332864	city	5	1	1.037454	1.037454	0	1	0	0	CorrectCommission	0.414899	0.703394	1	0	8.650000e+01
438.755646	1.319564	city	7	1	0.971815	0.971815	0	1	0	0	CorrectCommission	0.114858	0.724682	1	0	8.612500e+01
440.075226	1.319636	city	10	1	0.858719	0.858719	0	1	0	0	CorrectCommission	1.027632	0.750300	0	0	8.575000e+01
441.408112	1.346151	city	6	1	0.984403	0.984403	0	1	0	0	CorrectCommission	0.013261	0.777482	0	0	8.537500e+01
444.680267	5.198135	break	0	1	1.232032	1.232032	0	0	0	0	ThoughtProbe	1.985296	0.803400	0	85	85
447.939148	1.319603	city	1	1	0.818929	0.818929	0	1	0	0	CorrectCommission	1.348761	0.825404	0	0	8.515217e+01
449.252045	1.306230	city	7	1	1.052845	1.052845	0	1	0	0	CorrectCommission	0.539120	0.841482	0	0	8.530435e+01
450.551697	1.293036	city	3	1	0.815900	0.815900	0	1	0	0	CorrectCommission	1.373208	0.850435	0	0	8.545652e+01
451.851166	1.305917	city	10	1	0.853684	0.853684	0	1	0	0	CorrectCommission	1.068268	0.851938	0	0	8.560870e+01
453.150726	1.293228	city	7	1	1.125580	1.125580	0	1	0	0	CorrectCommission	1.126148	0.846638	0	0	8.576087e+01
454.470398	1.346089	city	8	1	0.967852	0.967852	0	1	0	0	CorrectCommission	0.146842	0.835939	0	0	8.591304e+01
455.809967	1.333057	city	3	1	0.876164	0.876164	0	1	0	0	CorrectCommission	0.886838	0.821801	0	0	8.606522e+01
457.136200	1.319400	city	7	1	0.778143	0.778143	0	1	0	0	CorrectCommission	1.677939	0.806442	0	0	8.621739e+01
458.469055	1.346345	city	1	1	0.901589	0.901589	0	1	0	0	CorrectCommission	0.681633	0.792020	0	0	8.636957e+01
459.815308	1.346122	city	9	1	0.924790	0.924790	0	1	0	0	CorrectCommission	0.494381	0.780404	0	0	8.652174e+01
461.128204	1.279703	mountain	5	0	0.000000	0.957059	1	0	0	0	CorrectOmission	0.233949	0.772854	0	0	8.667391e+01
462.427795	1.319446	city	10	1	1.002697	1.002697	0	1	0	0	CorrectCommission	0.134388	0.769914	0	0	8.682609e+01
463.747284	1.319517	city	2	1	1.066008	1.066008	0	1	0	0	CorrectCommission	0.645356	0.771323	0	0	8.697826e+01
465.066833	1.319605	city	5	1	0.941364	0.941364	0	1	0	0	CorrectCommission	0.360622	0.776153	0	0	8.713043e+01
466.386475	1.319694	mountain	7	1	1.031284	1.031284	0	0	1	0	CommissionError	0.365100	0.783018	0	0	8.728261e+01
467.692780	1.292903	mountain	6	0	0.000000	1.210639	1	0	0	0	CorrectOmission	1.812640	0.790331	0	0	8.743478e+01
469.005585	1.332734	city	4	1	1.281934	1.281934	0	1	0	0	CorrectCommission	2.388042	0.796575	0	0	8.758696e+01
470.318512	1.293124	city	9	1	1.047670	1.047670	0	1	0	0	CorrectCommission	0.497351	0.800575	0	0	8.773913e+01
471.638184	1.346169	city	3	1	0.889063	0.889063	0	1	0	0	CorrectCommission	0.782728	0.801633	0	0	8.789130e+01
472.970947	1.319407	city	8	1	0.935692	0.935692	0	1	0	0	CorrectCommission	0.406401	0.799460	0	0	8.804348e+01
474.283813	1.306283	city	2	1	0.965244	0.965244	0	1	0	0	CorrectCommission	0.167887	0.794209	0	0	8.819565e+01
475.610046	1.346188	city	4	1	0.919597	0.919597	0	1	0	0	CorrectCommission	0.536295	0.786336	0	0	8.834783e+01
476.963013	1.359727	city	10	1	0.970317	0.970317	0	1	0	0	CorrectCommission	0.126945	0.776534	0	0	8.850000e+01
478.295990	1.306231	city	2	1	1.274599	1.274599	0	1	0	0	CorrectCommission	2.328844	0.765666	0	0	8.865217e+01
479.628876	1.359533	city	4	1	1.189564	1.189564	0	1	0	0	CorrectCommission	1.642545	0.754635	0	0	8.880435e+01
480.961761	1.306265	city	2	1	0.997064	0.997064	0	1	0	0	CorrectCommission	0.088919	0.744514	0	0	8.895652e+01
482.287903	1.346050	city	1	1	1.086136	1.086136	0	1	0	0	CorrectCommission	0.807804	0.736414	1	0	8.910870e+01
483.627777	1.333676	city	8	1	0.977150	0.977150	0	1	0	0	CorrectCommission	0.071800	0.731409	1	0	8.926087e+01
484.940765	1.292296	mountain	6	0	0.000000	0.951914	1	0	0	0	CorrectOmission	0.275476	0.730571	1	0	8.941304e+01
486.253296	1.332737	city	10	1	1.017406	1.017406	0	1	0	0	CorrectCommission	0.253096	0.734849	1	0	8.956522e+01
487.586121	1.332914	city	8	1	1.180605	1.180605	0	1	0	0	CorrectCommission	1.570237	0.745138	0	0	8.971739e+01
488.945740	1.386325	city	10	1	1.069558	1.069558	0	1	0	0	CorrectCommission	0.674002	0.762324	0	0	8.986957e+01
490.291931	1.306104	city	4	1	1.064155	1.064155	0	1	0	0	CorrectCommission	0.630394	0.787457	0	0	9.002174e+01
491.604767	1.319548	city	6	1	0.938954	0.938954	0	1	0	0	CorrectCommission	0.380072	0.821789	0	0	9.017391e+01
492.917664	1.306226	city	10	1	0.868962	0.868962	0	1	0	0	CorrectCommission	0.944960	0.866864	0	0	9.032609e+01
494.243896	1.346281	city	7	1	1.085119	1.085119	0	1	0	0	CorrectCommission	0.799589	0.924519	0	0	9.047826e+01
495.578003	1.321903	city	10	1	1.180421	1.180421	0	1	0	0	CorrectCommission	1.568756	0.996860	0	0	9.063043e+01
496.890961	1.304005	city	1	1	1.075500	1.075500	0	1	0	0	CorrectCommission	0.721964	1.086014	0	0	9.078261e+01
498.196075	1.306263	city	9	1	0.957127	0.957127	0	1	0	0	CorrectCommission	0.233401	1.193949	0	0	9.093478e+01
499.508972	1.319504	city	1	1	1.018839	1.018839	0	1	0	0	CorrectCommission	0.264664	1.322150	0	0	9.108696e+01
500.828491	1.319561	city	4	1	1.172785	1.172785	0	1	0	0	CorrectCommission	1.507127	1.471267	0	0	9.123913e+01
502.161346	1.346135	city	1	1	1.301203	1.301203	0	1	0	0	CorrectCommission	2.543556	1.640802	0	0	9.139130e+01
503.487610	1.306368	city	4	1	1.089743	1.089743	0	1	0	0	CorrectCommission	0.836913	1.828977	0	0	9.154348e+01
504.800507	1.319426	city	8	1	1.004093	1.004093	0	1	0	0	CorrectCommission	0.145653	2.032687	0	0	9.169565e+01
506.133392	1.346379	city	5	1	1.256637	1.256637	0	1	0	0	CorrectCommission	2.183873	2.247593	0	0	9.184783e+01
509.692291	5.771420	break	0	0	1.291881	1.291881	0	0	0	0	ThoughtProbe	2.468321	2.468321	0	92	92
