onset	duration	trial_type	image_type	Press	ReactionTime	ReactionTime_Interpolated	CorrectOmission	CorrectCommission	CommissionError	OmissionError	response_type	nonsmoothVarianceTimeCourse	VarianceTimeCourse	In_the_Zone	ThoughtProbe	ThoughtProbe_Interpolated
0.653078	1.279563	city	7	1	1.401539	1.401539	0	1	0	0	CorrectCommission	0.940612	0.940612	0	0	71
1.939325	1.292932	city	1	1	1.148055	1.148055	0	1	0	0	CorrectCommission	0.006624	0.867132	0	0	71
3.225580	1.279578	city	7	1	1.127301	1.127301	0	1	0	0	CorrectCommission	0.069847	0.796580	0	0	71
4.505158	1.279576	city	4	1	1.177730	1.177730	0	1	0	0	CorrectCommission	0.115966	0.731501	1	0	71
5.784737	1.279582	city	3	1	1.042806	1.042806	0	1	0	0	CorrectCommission	0.381176	0.673809	1	0	71
7.064314	1.279572	city	5	1	0.911861	0.911861	0	1	0	0	CorrectCommission	0.863660	0.624656	1	0	71
8.343841	1.279481	mountain	2	0	0.000000	1.182573	1	0	0	0	CorrectOmission	0.133809	0.584407	1	0	71
9.623406	1.279651	city	10	1	1.391443	1.391443	0	1	0	0	CorrectCommission	0.903414	0.552842	1	0	71
10.902956	1.279448	city	8	1	1.074971	1.074971	0	1	0	0	CorrectCommission	0.262663	0.529303	1	0	71
12.182549	1.279740	city	4	1	0.967434	0.967434	0	1	0	0	CorrectCommission	0.658895	0.513004	1	0	71
13.475537	1.306235	city	10	1	0.883951	0.883951	0	1	0	0	CorrectCommission	0.966498	0.503126	1	0	71
14.768443	1.279578	city	1	1	1.022799	1.022799	0	1	0	0	CorrectCommission	0.454895	0.498961	1	0	71
16.048029	1.279594	city	8	1	1.039584	1.039584	0	1	0	0	CorrectCommission	0.393048	0.499890	1	0	71
17.327599	1.279545	city	4	1	1.076676	1.076676	0	1	0	0	CorrectCommission	0.256382	0.505289	1	0	71
18.607172	1.279603	city	8	1	1.141827	1.141827	0	1	0	0	CorrectCommission	0.016326	0.514409	1	0	71
19.886747	1.279544	city	10	1	1.017177	1.017177	0	1	0	0	CorrectCommission	0.475611	0.526289	1	0	71
21.166325	1.279612	city	2	1	1.141749	1.141749	0	1	0	0	CorrectCommission	0.016612	0.539708	1	0	71
22.445908	1.279555	city	6	1	1.046535	1.046535	0	1	0	0	CorrectCommission	0.367438	0.553284	1	0	71
23.725471	1.279573	mountain	10	1	0.974188	0.974188	0	0	1	0	CommissionError	0.634010	0.565600	1	0	71
25.004988	1.279457	city	9	1	1.515679	1.515679	0	1	0	0	CorrectCommission	1.361172	0.575422	1	0	71
26.284582	1.279733	mountain	3	0	0.000000	1.595000	1	0	0	0	CorrectOmission	1.653441	0.581908	1	0	71
27.564238	1.279576	city	2	1	1.394348	1.394348	0	1	0	0	CorrectCommission	0.914117	0.584754	1	0	71
28.843765	1.279479	city	5	1	1.095918	1.095918	0	1	0	0	CorrectCommission	0.185480	0.584225	1	0	71
30.123331	1.279654	city	3	1	1.183120	1.183120	0	1	0	0	CorrectCommission	0.135824	0.581060	1	0	71
31.402958	1.279598	city	8	1	0.916513	0.916513	0	1	0	0	CorrectCommission	0.846520	0.576256	1	0	71
32.682541	1.279566	mountain	6	1	1.138394	1.138394	0	0	1	0	CommissionError	0.028974	0.570858	1	0	71
33.962097	1.279545	city	9	1	1.142986	1.142986	0	1	0	0	CorrectCommission	0.012055	0.565778	1	0	71
35.241673	1.279606	city	3	1	1.055593	1.055593	0	1	0	0	CorrectCommission	0.334063	0.561637	1	0	71
36.521267	1.279583	city	8	1	0.750977	0.750977	0	1	0	0	CorrectCommission	1.456452	0.558706	1	0	71
37.800858	1.279596	city	3	1	1.020661	1.020661	0	1	0	0	CorrectCommission	0.462772	0.556914	1	0	71
39.080437	1.279569	city	1	1	1.391583	1.391583	0	1	0	0	CorrectCommission	0.903929	0.556035	1	0	71
40.360012	1.279581	city	2	1	1.189838	1.189838	0	1	0	0	CorrectCommission	0.160578	0.555694	1	0	71
41.639519	1.279431	city	5	1	1.027962	1.027962	0	1	0	0	CorrectCommission	0.435871	0.555556	1	0	71
42.919094	1.279721	city	10	1	0.919328	0.919328	0	1	0	0	CorrectCommission	0.836147	0.555347	1	0	71
44.212082	1.306252	city	3	1	1.043092	1.043092	0	1	0	0	CorrectCommission	0.380123	0.554912	1	0	71
45.504990	1.279562	city	10	1	0.875858	0.875858	0	1	0	0	CorrectCommission	0.996314	0.554218	1	0	71
46.784569	1.279598	city	6	1	1.228115	1.228115	0	1	0	0	CorrectCommission	0.301612	0.553271	1	0	71
48.064163	1.279588	city	7	1	1.244922	1.244922	0	1	0	0	CorrectCommission	0.363539	0.552097	1	0	71
49.343693	1.279477	city	6	1	1.192348	1.192348	0	1	0	0	CorrectCommission	0.169825	0.550688	1	0	71
50.623268	1.279672	city	7	1	0.978438	0.978438	0	1	0	0	CorrectCommission	0.618348	0.548952	1	0	71
51.902882	1.279557	city	10	1	0.803504	0.803504	0	1	0	0	CorrectCommission	1.262910	0.546706	1	0	71
53.182415	1.279507	city	6	1	1.296782	1.296782	0	1	0	0	CorrectCommission	0.554626	0.543696	1	0	71
54.468567	1.292797	city	1	1	1.254341	1.254341	0	1	0	0	CorrectCommission	0.398245	0.539669	1	0	71
55.761536	1.293137	city	10	1	1.179297	1.179297	0	1	0	0	CorrectCommission	0.121738	0.534424	1	0	71
57.047871	1.279536	city	2	1	1.302780	1.302780	0	1	0	0	CorrectCommission	0.576724	0.527857	1	0	71
61.453049	7.530823	break	0	1	1.151397	1.151397	0	0	0	0	ThoughtProbe	0.018938	0.520041	1	71	71
65.858269	1.279612	city	2	1	1.627132	1.627132	0	1	0	0	CorrectCommission	1.771834	0.511277	1	0	71
67.137863	1.279576	city	6	1	1.309382	1.309382	0	1	0	0	CorrectCommission	0.601049	0.502074	1	0	71
68.424110	1.292923	city	5	1	1.102414	1.102414	0	1	0	0	CorrectCommission	0.161547	0.493213	1	0	71
69.710320	1.279496	city	10	1	0.972292	0.972292	0	1	0	0	CorrectCommission	0.640995	0.485590	1	0	71
70.989891	1.279650	city	1	1	1.139664	1.139664	0	1	0	0	CorrectCommission	0.024295	0.480084	1	0	71
72.276108	1.292772	city	7	1	1.272446	1.272446	0	1	0	0	CorrectCommission	0.464954	0.477487	1	0	71
73.562271	1.279564	mountain	10	1	1.141971	1.141971	0	0	1	0	CommissionError	0.015795	0.478309	1	0	71
74.841888	1.279664	city	10	1	1.248059	1.248059	0	1	0	0	CorrectCommission	0.375100	0.482728	1	0	71
76.121536	1.279644	city	4	1	1.362766	1.362766	0	1	0	0	CorrectCommission	0.797750	0.490528	1	0	71
77.401161	1.279604	mountain	9	0	0.000000	1.303620	1	0	0	0	CorrectOmission	0.579820	0.501114	1	0	71
78.680756	1.279575	city	8	1	1.124133	1.124133	0	1	0	0	CorrectCommission	0.081519	0.513658	1	0	71
79.960274	1.279467	city	5	1	0.877816	0.877816	0	1	0	0	CorrectCommission	0.989100	0.527217	1	0	71
81.239769	1.279520	city	10	1	1.071622	1.071622	0	1	0	0	CorrectCommission	0.275002	0.540872	1	0	71
82.526062	1.293062	city	6	1	1.218642	1.218642	0	1	0	0	CorrectCommission	0.266708	0.553979	1	0	71
83.812386	1.279588	city	10	1	0.983806	0.983806	0	1	0	0	CorrectCommission	0.598569	0.566229	1	0	71
85.091957	1.279556	mountain	8	0	0.000000	1.379333	1	0	0	0	CorrectOmission	0.858792	0.577747	1	0	71
86.371544	1.279614	city	4	1	1.660637	1.660637	0	1	0	0	CorrectCommission	1.895287	0.589117	1	0	71
87.651138	1.279578	city	3	1	1.083133	1.083133	0	1	0	0	CorrectCommission	0.232587	0.601270	1	0	71
88.930702	1.279554	city	10	1	0.976706	0.976706	0	1	0	0	CorrectCommission	0.624732	0.615382	1	0	71
90.210251	1.279547	city	2	1	1.142146	1.142146	0	1	0	0	CorrectCommission	0.015147	0.632529	1	0	71
91.496498	1.292948	city	9	1	1.150931	1.150931	0	1	0	0	CorrectCommission	0.017222	0.653538	1	0	71
92.789413	1.292874	city	8	1	1.051916	1.051916	0	1	0	0	CorrectCommission	0.347613	0.678798	1	0	71
94.088943	1.306191	city	5	1	1.054155	1.054155	0	1	0	0	CorrectCommission	0.339360	0.708144	1	0	71
95.381866	1.279649	city	10	1	0.929765	0.929765	0	1	0	0	CorrectCommission	0.797690	0.741025	1	0	71
96.681488	1.319593	city	2	1	0.897740	0.897740	0	1	0	0	CorrectCommission	0.915688	0.776607	1	0	71
97.981056	1.279553	city	6	1	0.705269	0.705269	0	1	0	0	CorrectCommission	1.624868	0.813994	0	0	71
99.260551	1.279432	city	7	1	0.871794	0.871794	0	1	0	0	CorrectCommission	1.011289	0.852429	0	0	71
100.546799	1.293058	city	2	1	1.563035	1.563035	0	1	0	0	CorrectCommission	1.535661	0.891463	0	0	71
101.833054	1.279451	city	4	1	1.255123	1.255123	0	1	0	0	CorrectCommission	0.401127	0.930972	0	0	71
103.112633	1.279722	city	8	1	1.035854	1.035854	0	1	0	0	CorrectCommission	0.406794	0.971085	0	0	71
104.398941	1.292895	city	5	1	0.879095	0.879095	0	1	0	0	CorrectCommission	0.984390	1.011978	0	0	71
105.698532	1.306280	city	3	1	0.960974	0.960974	0	1	0	0	CorrectCommission	0.682698	1.053683	0	0	71
106.991440	1.279536	city	8	1	1.671321	1.671321	0	1	0	0	CorrectCommission	1.934652	1.095947	0	0	71
108.270958	1.279506	city	4	1	1.356287	1.356287	0	1	0	0	CorrectCommission	0.773877	1.138029	0	0	71
109.563881	1.306340	city	3	1	1.113112	1.113112	0	1	0	0	CorrectCommission	0.122129	1.178773	0	0	71
110.856827	1.279549	city	10	1	0.756225	0.756225	0	1	0	0	CorrectCommission	1.437118	1.216621	0	0	71
112.136406	1.279598	city	6	1	0.716027	0.716027	0	1	0	0	CorrectCommission	1.585231	1.249705	0	0	71
113.422638	1.292874	city	9	1	0.494337	0.494337	0	1	0	0	CorrectCommission	2.402069	1.276117	0	0	71
114.708870	1.279589	city	1	1	0.769467	0.769467	0	1	0	0	CorrectCommission	1.388325	1.294048	0	0	71
119.194069	7.690809	break	0	1	0.696510	0.696510	0	0	0	0	ThoughtProbe	1.657141	1.302045	0	71	71
123.685928	1.292905	city	3	0	0.000000	0.780997	0	0	0	1	OmissionError	1.345840	1.299024	0	0	7.076087e+01
124.972191	1.279630	city	9	1	1.095502	1.095502	0	1	0	0	CorrectCommission	0.187015	1.284422	0	0	7.052174e+01
126.251770	1.279524	city	6	1	1.712598	1.712598	0	1	0	0	CorrectCommission	2.086742	1.258218	0	0	7.028261e+01
127.531334	1.279602	city	7	1	1.718078	1.718078	0	1	0	0	CorrectCommission	2.106936	1.220845	0	0	7.004348e+01
128.810867	1.279462	city	2	1	1.507434	1.507434	0	1	0	0	CorrectCommission	1.330795	1.173311	0	0	6.980435e+01
130.123764	1.346324	city	1	1	1.253036	1.253036	0	1	0	0	CorrectCommission	0.393436	1.117122	0	0	6.956522e+01
131.436722	1.279596	city	3	1	0.976404	0.976404	0	1	0	0	CorrectCommission	0.625844	1.054260	0	0	6.932609e+01
132.722961	1.292885	city	4	1	1.725239	1.725239	0	1	0	0	CorrectCommission	2.133321	0.987117	0	0	6.908696e+01
134.009186	1.279580	city	3	1	1.565665	1.565665	0	1	0	0	CorrectCommission	1.545352	0.918383	0	0	6.884783e+01
135.295441	1.292926	city	5	1	1.422223	1.422223	0	1	0	0	CorrectCommission	1.016827	0.850966	0	0	6.860870e+01
136.581696	1.279565	city	10	1	1.130196	1.130196	0	1	0	0	CorrectCommission	0.059179	0.787752	0	0	6.836957e+01
137.861252	1.279565	mountain	1	0	0.000000	1.094098	1	0	0	0	CorrectOmission	0.192186	0.731399	1	0	6.813043e+01
139.140839	1.279588	mountain	5	0	0.000000	1.150863	1	0	0	0	CorrectOmission	0.016969	0.684073	1	0	6.789130e+01
140.427094	1.292926	city	8	1	1.137424	1.137424	0	1	0	0	CorrectCommission	0.032548	0.647360	1	0	6.765217e+01
141.719955	1.292801	city	5	1	0.890715	0.890715	0	1	0	0	CorrectCommission	0.941574	0.622105	1	0	6.741304e+01
143.006119	1.279529	city	7	1	1.104860	1.104860	0	1	0	0	CorrectCommission	0.152532	0.608455	1	0	6.717391e+01
144.285751	1.279724	city	3	1	1.004047	1.004047	0	1	0	0	CorrectCommission	0.523991	0.605957	1	0	6.693478e+01
145.572006	1.292787	mountain	1	1	0.818705	0.818705	0	0	1	0	CommissionError	1.206900	0.613585	1	0	6.669565e+01
146.858246	1.279697	city	9	1	1.405528	1.405528	0	1	0	0	CorrectCommission	0.955310	0.629877	1	0	6.645652e+01
148.144547	1.292906	city	6	1	1.084761	1.084761	0	1	0	0	CorrectCommission	0.226590	0.653031	1	0	6.621739e+01
149.430786	1.279583	city	3	1	1.090397	1.090397	0	1	0	0	CorrectCommission	0.205822	0.680956	1	0	6.597826e+01
150.717041	1.292914	city	5	1	1.000513	1.000513	0	1	0	0	CorrectCommission	0.537010	0.711286	1	0	6.573913e+01
152.003311	1.279619	city	3	1	1.150465	1.150465	0	1	0	0	CorrectCommission	0.015502	0.741447	1	0	6.550000e+01
153.289551	1.292861	city	1	1	0.771338	0.771338	0	1	0	0	CorrectCommission	1.381431	0.768839	1	0	6.526087e+01
154.575729	1.279505	city	9	1	0.857636	0.857636	0	1	0	0	CorrectCommission	1.063457	0.790899	0	0	6.502174e+01
155.868637	1.306303	city	3	1	0.935917	0.935917	0	1	0	0	CorrectCommission	0.775021	0.805430	0	0	6.478261e+01
157.168259	1.292939	city	4	1	0.666697	0.666697	0	1	0	0	CorrectCommission	1.766993	0.810827	0	0	6.454348e+01
158.461166	1.292882	city	2	1	0.930101	0.930101	0	1	0	0	CorrectCommission	0.796451	0.806276	0	0	6.430435e+01
159.747406	1.279600	city	6	1	0.772834	0.772834	0	1	0	0	CorrectCommission	1.375920	0.791947	0	0	6.406522e+01
161.040329	1.306238	city	4	1	0.899695	0.899695	0	1	0	0	CorrectCommission	0.908486	0.768936	1	0	6.382609e+01
162.346573	1.306271	city	10	1	0.890375	0.890375	0	1	0	0	CorrectCommission	0.942827	0.739255	1	0	6.358696e+01
163.646133	1.292855	city	5	1	1.052093	1.052093	0	1	0	0	CorrectCommission	0.346958	0.705556	1	0	6.334783e+01
164.932373	1.279596	city	10	1	0.872095	0.872095	0	1	0	0	CorrectCommission	1.010181	0.670852	1	0	6.310870e+01
166.211945	1.279560	city	3	1	1.123060	1.123060	0	1	0	0	CorrectCommission	0.085472	0.638104	1	0	6.286957e+01
167.498184	1.292921	city	5	1	1.254997	1.254997	0	1	0	0	CorrectCommission	0.400662	0.609928	1	0	6.263043e+01
168.784363	1.279431	mountain	7	0	0.000000	1.193155	1	0	0	0	CorrectOmission	0.172798	0.588239	1	0	6.239130e+01
170.063934	1.279719	city	2	1	1.075863	1.075863	0	1	0	0	CorrectCommission	0.259375	0.574099	1	0	6.215217e+01
171.363571	1.319560	city	9	1	1.041452	1.041452	0	1	0	0	CorrectCommission	0.386167	0.567683	1	0	6.191304e+01
172.669846	1.292968	city	10	1	0.930642	0.930642	0	1	0	0	CorrectCommission	0.794457	0.568320	1	0	6.167391e+01
173.956131	1.279607	city	3	1	1.083985	1.083985	0	1	0	0	CorrectCommission	0.229448	0.574689	1	0	6.143478e+01
175.249008	1.306150	city	1	1	1.007454	1.007454	0	1	0	0	CorrectCommission	0.511437	0.585141	1	0	6.119565e+01
176.541748	1.279341	city	5	1	1.250498	1.250498	0	1	0	0	CorrectCommission	0.384087	0.597998	1	0	6.095652e+01
177.821259	1.279679	city	7	1	1.474648	1.474648	0	1	0	0	CorrectCommission	1.209992	0.611844	1	0	6.071739e+01
179.114227	1.306240	city	4	1	1.442502	1.442502	0	1	0	0	CorrectCommission	1.091544	0.625734	1	0	6.047826e+01
180.413788	1.292904	city	9	1	1.361016	1.361016	0	1	0	0	CorrectCommission	0.791302	0.639365	1	0	6.023913e+01
183.866074	5.611647	break	0	0	0.000000	1.338609	0	0	0	0	ThoughtProbe	0.708740	0.652997	1	60	60
187.318253	1.292734	city	6	1	1.318613	1.318613	0	1	0	0	CorrectCommission	0.635061	0.667322	1	0	60
188.611069	1.292884	city	7	1	1.244360	1.244360	0	1	0	0	CorrectCommission	0.361470	0.683222	1	0	60
189.904083	1.293135	city	10	1	1.219368	1.219368	0	1	0	0	CorrectCommission	0.269386	0.701433	1	0	60
191.197067	1.292855	city	3	1	1.320049	1.320049	0	1	0	0	CorrectCommission	0.640352	0.722303	1	0	60
192.503296	1.319585	city	7	1	1.267971	1.267971	0	1	0	0	CorrectCommission	0.448468	0.745521	1	0	60
193.802887	1.279596	mountain	5	0	0.000000	1.332696	1	0	0	0	CorrectOmission	0.686954	0.770065	1	0	60
195.082458	1.279554	city	1	1	1.412911	1.412911	0	1	0	0	CorrectCommission	0.982512	0.794222	0	0	60
196.375351	1.306230	city	4	1	1.407302	1.407302	0	1	0	0	CorrectCommission	0.961846	0.815782	0	0	60
197.681503	1.306083	city	9	1	1.045010	1.045010	0	1	0	0	CorrectCommission	0.373057	0.832306	0	0	60
198.974411	1.279729	city	4	1	0.928747	0.928747	0	1	0	0	CorrectCommission	0.801441	0.841535	0	0	60
200.274094	1.319641	city	2	1	0.576237	0.576237	0	1	0	0	CorrectCommission	2.100300	0.841662	0	0	60
201.580353	1.292858	city	4	1	0.768556	0.768556	0	1	0	0	CorrectCommission	1.391680	0.831668	0	0	60
202.899872	1.346203	city	8	1	0.881043	0.881043	0	1	0	0	CorrectCommission	0.977211	0.811546	0	0	60
204.219437	1.292906	mountain	6	1	0.930082	0.930082	0	0	1	0	CommissionError	0.796520	0.782293	0	0	60
205.512268	1.292775	city	5	1	1.531904	1.531904	0	1	0	0	CorrectCommission	1.420957	0.745789	1	0	60
206.811752	1.306201	city	2	1	1.261757	1.261757	0	1	0	0	CorrectCommission	0.425571	0.704543	1	0	60
208.118057	1.306407	city	5	1	1.103329	1.103329	0	1	0	0	CorrectCommission	0.158174	0.661394	1	0	60
209.410995	1.279464	city	7	1	1.249148	1.249148	0	1	0	0	CorrectCommission	0.379110	0.619109	1	0	60
210.697235	1.293023	city	2	1	1.098846	1.098846	0	1	0	0	CorrectCommission	0.174691	0.580062	1	0	60
211.983536	1.279577	city	4	1	1.090147	1.090147	0	1	0	0	CorrectCommission	0.206747	0.546017	1	0	60
213.263123	1.279577	city	9	1	0.968594	0.968594	0	1	0	0	CorrectCommission	0.654621	0.518008	1	0	60
214.542679	1.279549	city	4	1	1.075563	1.075563	0	1	0	0	CorrectCommission	0.260481	0.496314	1	0	60
215.855591	1.346265	city	1	1	0.852572	0.852572	0	1	0	0	CorrectCommission	1.082116	0.480575	1	0	60
217.168518	1.279589	city	8	1	1.076016	1.076016	0	1	0	0	CorrectCommission	0.258810	0.469889	1	0	60
218.448090	1.279562	city	7	1	1.125042	1.125042	0	1	0	0	CorrectCommission	0.078170	0.463032	1	0	60
219.734238	1.292742	city	6	1	0.988190	0.988190	0	1	0	0	CorrectCommission	0.582416	0.458580	1	0	60
221.020493	1.279747	city	7	1	1.036510	1.036510	0	1	0	0	CorrectCommission	0.404375	0.455065	1	0	60
222.306824	1.292924	city	9	1	1.080530	1.080530	0	1	0	0	CorrectCommission	0.242180	0.451136	1	0	60
223.593063	1.279569	city	8	1	0.874861	0.874861	0	1	0	0	CorrectCommission	0.999990	0.445675	1	0	60
224.872650	1.279590	mountain	5	0	0.000000	1.130352	1	0	0	0	CorrectOmission	0.058604	0.437862	1	0	60
226.198883	1.372876	city	4	1	1.323731	1.323731	0	1	0	0	CorrectCommission	0.653921	0.427330	1	0	60
227.525040	1.279437	city	6	1	0.931724	0.931724	0	1	0	0	CorrectCommission	0.790471	0.414156	1	0	60
228.824524	1.319529	city	1	1	0.954753	0.954753	0	1	0	0	CorrectCommission	0.705618	0.398905	1	0	60
230.137421	1.306265	city	9	1	1.043834	1.043834	0	1	0	0	CorrectCommission	0.377389	0.382595	1	0	60
231.430420	1.279737	city	10	1	1.145714	1.145714	0	1	0	0	CorrectCommission	0.002003	0.366628	1	0	60
232.736649	1.332711	city	2	1	1.197102	1.197102	0	1	0	0	CorrectCommission	0.187341	0.352653	1	0	60
234.042877	1.279762	city	4	1	1.087444	1.087444	0	1	0	0	CorrectCommission	0.216704	0.342391	1	0	60
235.322464	1.279409	city	2	1	1.036764	1.036764	0	1	0	0	CorrectCommission	0.403442	0.337466	1	0	60
236.622025	1.319720	city	5	1	1.054680	1.054680	0	1	0	0	CorrectCommission	0.337425	0.339240	1	0	60
240.827301	7.090837	break	0	0	0.000000	1.115291	0	0	0	0	ThoughtProbe	0.114100	0.348613	1	60	60
245.012604	1.279762	city	1	1	1.177232	1.177232	0	1	0	0	CorrectCommission	0.114130	0.365908	1	0	60
246.292267	1.279570	city	3	1	1.199141	1.199141	0	1	0	0	CorrectCommission	0.194855	0.390762	1	0	60
247.578552	1.292980	city	2	1	1.196316	1.196316	0	1	0	0	CorrectCommission	0.184448	0.422124	1	0	60
248.871368	1.292661	city	4	1	1.148233	1.148233	0	1	0	0	CorrectCommission	0.007279	0.458343	1	0	60
250.164230	1.293067	city	8	1	1.004347	1.004347	0	1	0	0	CorrectCommission	0.522885	0.497318	1	0	60
251.457230	1.292928	mountain	6	1	0.996710	0.996710	0	0	1	0	CommissionError	0.551022	0.536724	1	0	60
252.756805	1.306238	mountain	5	0	0.000000	1.324110	1	0	0	0	CorrectOmission	0.655318	0.574331	1	0	60
254.049713	1.279564	city	4	1	1.583023	1.583023	0	1	0	0	CorrectCommission	1.609311	0.608233	1	0	60
255.335953	1.292926	city	5	0	0.000000	1.369927	0	0	0	1	OmissionError	0.824134	0.637100	1	0	60
256.628815	1.292805	city	1	1	1.031985	1.031985	0	1	0	0	CorrectCommission	0.421049	0.660353	1	0	60
257.915009	1.279536	city	3	1	0.916361	0.916361	0	1	0	0	CorrectCommission	0.847078	0.678158	1	0	60
259.221283	1.333012	city	2	1	0.738737	0.738737	0	1	0	0	CorrectCommission	1.501552	0.691412	1	0	60
260.534241	1.292935	city	6	1	1.042734	1.042734	0	1	0	0	CorrectCommission	0.381442	0.701534	1	0	60
261.820404	1.279414	city	5	1	1.039640	1.039640	0	1	0	0	CorrectCommission	0.392843	0.710271	1	0	60
263.126648	1.333036	city	9	1	1.196808	1.196808	0	1	0	0	CorrectCommission	0.186261	0.719441	1	0	60
264.439606	1.292914	city	1	1	0.942502	0.942502	0	1	0	0	CorrectCommission	0.750758	0.730728	1	0	60
265.732513	1.292910	city	9	1	1.138807	1.138807	0	1	0	0	CorrectCommission	0.027452	0.745467	1	0	60
267.018768	1.279595	city	6	1	0.804203	0.804203	0	1	0	0	CorrectCommission	1.260335	0.764597	1	0	60
268.311615	1.306087	mountain	3	1	0.804060	0.804060	0	0	1	0	CommissionError	1.260864	0.788531	0	0	60
269.604462	1.279574	city	4	1	1.466171	1.466171	0	1	0	0	CorrectCommission	1.178755	0.817171	0	0	60
270.897339	1.306217	city	9	1	1.026424	1.026424	0	1	0	0	CorrectCommission	0.441538	0.849901	0	0	60
272.196899	1.292901	city	7	1	1.258207	1.258207	0	1	0	0	CorrectCommission	0.412490	0.885617	0	0	60
273.489899	1.293090	city	2	1	1.076558	1.076558	0	1	0	0	CorrectCommission	0.256816	0.922736	0	0	60
274.782837	1.292802	city	9	1	1.383492	1.383492	0	1	0	0	CorrectCommission	0.874116	0.959305	0	0	60
276.082397	1.306321	city	3	1	0.948162	0.948162	0	1	0	0	CorrectCommission	0.729905	0.993136	0	0	60
277.375366	1.279579	city	2	1	0.644529	0.644529	0	1	0	0	CorrectCommission	1.848673	1.022048	0	0	60
278.668274	1.306236	city	6	1	0.673398	0.673398	0	1	0	0	CorrectCommission	1.742302	1.044049	0	0	60
279.974518	1.306241	city	1	1	1.722801	1.722801	0	1	0	0	CorrectCommission	2.124336	1.057604	0	0	60
281.287415	1.319551	city	3	1	1.332921	1.332921	0	1	0	0	CorrectCommission	0.687781	1.061781	0	0	60
282.600220	1.306113	city	8	1	1.104357	1.104357	0	1	0	0	CorrectCommission	0.154385	1.056357	0	0	60
283.893158	1.279712	city	4	1	1.638172	1.638172	0	1	0	0	CorrectCommission	1.812513	1.041805	0	0	60
285.179413	1.292837	city	1	0	0.000000	1.571076	0	0	0	1	OmissionError	1.565291	1.019196	0	0	60
286.465668	1.279674	city	4	1	1.200563	1.200563	0	1	0	0	CorrectCommission	0.200096	0.990165	0	0	60
287.751862	1.292719	city	6	1	0.824127	0.824127	0	1	0	0	CorrectCommission	1.186925	0.956754	0	0	60
289.038116	1.279770	city	10	1	1.658503	1.658503	0	1	0	0	CorrectCommission	1.887423	0.921203	0	0	60
290.317780	1.279582	city	5	1	1.212901	1.212901	0	1	0	0	CorrectCommission	0.245555	0.885827	0	0	60
291.597382	1.279575	city	8	1	1.342145	1.342145	0	1	0	0	CorrectCommission	0.721769	0.852939	0	0	60
292.883606	1.292888	city	3	1	1.359311	1.359311	0	1	0	0	CorrectCommission	0.785017	0.824608	0	0	60
294.169769	1.279452	city	10	1	1.142747	1.142747	0	1	0	0	CorrectCommission	0.012936	0.802635	0	0	60
298.608246	7.597496	break	0	0	0.000000	1.267665	0	0	0	0	ThoughtProbe	0.447341	0.788423	0	60	60
303.053528	1.293073	city	10	1	1.469516	1.469516	0	1	0	0	CorrectCommission	1.191082	0.782908	0	0	5.997059e+01
304.346436	1.292730	mountain	4	0	0.000000	1.483749	1	0	0	0	CorrectOmission	1.243522	0.786551	0	0	5.994118e+01
305.632660	1.279741	city	3	1	1.349473	1.349473	0	1	0	0	CorrectCommission	0.748771	0.799335	0	0	5.991176e+01
306.925659	1.306219	city	8	1	1.105802	1.105802	0	1	0	0	CorrectCommission	0.149063	0.820735	0	0	5.988235e+01
308.225128	1.292765	city	4	1	1.076325	1.076325	0	1	0	0	CorrectCommission	0.257673	0.849710	0	0	5.985294e+01
309.511353	1.279654	city	7	1	0.992402	0.992402	0	1	0	0	CorrectCommission	0.566897	0.884758	0	0	5.982353e+01
310.797607	1.292879	city	2	1	0.927363	0.927363	0	1	0	0	CorrectCommission	0.806539	0.924025	0	0	5.979412e+01
312.090546	1.293002	city	7	1	0.772098	0.772098	0	1	0	0	CorrectCommission	1.378630	0.965406	0	0	5.976471e+01
313.383484	1.292836	city	9	1	0.770650	0.770650	0	1	0	0	CorrectCommission	1.383965	1.006776	0	0	5.973529e+01
314.669647	1.279504	city	6	1	0.826978	0.826978	0	1	0	0	CorrectCommission	1.176418	1.046140	0	0	5.970588e+01
315.955933	1.293082	city	4	1	0.877465	0.877465	0	1	0	0	CorrectCommission	0.990395	1.081800	0	0	5.967647e+01
317.242279	1.279573	city	5	1	0.805071	0.805071	0	1	0	0	CorrectCommission	1.257139	1.112489	0	0	5.964706e+01
318.541840	1.319549	city	9	1	1.702745	1.702745	0	1	0	0	CorrectCommission	2.050439	1.137373	0	0	5.961765e+01
319.841339	1.279445	city	5	1	1.466934	1.466934	0	1	0	0	CorrectCommission	1.181567	1.156071	0	0	5.958824e+01
321.134247	1.306390	city	3	1	1.220580	1.220580	0	1	0	0	CorrectCommission	0.273851	1.168656	0	0	5.955882e+01
322.433899	1.292925	city	4	1	0.888776	0.888776	0	1	0	0	CorrectCommission	0.948716	1.175516	0	0	5.952941e+01
323.726807	1.292894	city	9	1	0.728720	0.728720	0	1	0	0	CorrectCommission	1.538460	1.177282	0	0	5.950000e+01
325.026306	1.306072	city	4	1	1.701810	1.701810	0	1	0	0	CorrectCommission	2.046992	1.174833	0	0	5.947059e+01
326.325867	1.293051	city	5	1	1.409650	1.409650	0	1	0	0	CorrectCommission	0.970497	1.169238	0	0	5.944118e+01
327.618774	1.292769	city	6	1	1.000864	1.000864	0	1	0	0	CorrectCommission	0.535719	1.161778	0	0	5.941176e+01
328.911682	1.293045	city	9	1	0.814925	0.814925	0	1	0	0	CorrectCommission	1.220829	1.153827	0	0	5.938235e+01
330.204651	1.292895	city	7	1	1.705867	1.705867	0	1	0	0	CorrectCommission	2.061944	1.146757	0	0	5.935294e+01
331.490875	1.279587	city	9	1	1.593422	1.593422	0	1	0	0	CorrectCommission	1.647625	1.141791	0	0	5.932353e+01
332.790466	1.319571	city	6	1	1.161247	1.161247	0	1	0	0	CorrectCommission	0.055233	1.139881	0	0	5.929412e+01
334.090027	1.279577	mountain	8	0	0.000000	1.283523	1	0	0	0	CorrectOmission	0.505770	1.141533	0	0	5.926471e+01
335.382935	1.306239	city	6	1	1.427016	1.427016	0	1	0	0	CorrectCommission	1.034486	1.146615	0	0	5.923529e+01
336.695831	1.319503	city	8	1	1.058494	1.058494	0	1	0	0	CorrectCommission	0.323373	1.154315	0	0	5.920588e+01
337.995392	1.279637	city	9	1	1.734460	1.734460	0	1	0	0	CorrectCommission	2.167297	1.163229	0	0	5.917647e+01
339.288330	1.306238	city	4	1	1.639962	1.639962	0	1	0	0	CorrectCommission	1.819109	1.171462	0	0	5.914706e+01
340.621155	1.359420	city	10	1	1.269471	1.269471	0	1	0	0	CorrectCommission	0.453993	1.176972	0	0	5.911765e+01
341.960724	1.319698	city	1	1	0.956051	0.956051	0	1	0	0	CorrectCommission	0.700834	1.177863	0	0	5.908824e+01
343.267029	1.292915	city	6	1	0.746768	0.746768	0	1	0	0	CorrectCommission	1.471960	1.172659	0	0	5.905882e+01
344.559937	1.292902	city	7	1	0.506727	0.506727	0	1	0	0	CorrectCommission	2.356418	1.160614	0	0	5.902941e+01
345.206390	8.397208	break	0	1	0.587274	0.587274	0	0	0	0	ThoughtProbe	2.059635	1.141843	0	59	59
354.243378	1.279607	city	1	1	1.415269	1.415269	0	1	0	0	CorrectCommission	0.991203	1.117347	0	0	5.915217e+01
355.529602	1.292818	city	3	1	1.470836	1.470836	0	1	0	0	CorrectCommission	1.195946	1.088918	0	0	5.930435e+01
356.829132	1.306239	city	5	1	1.227279	1.227279	0	1	0	0	CorrectCommission	0.298531	1.058824	0	0	5.945652e+01
358.155487	1.346447	mountain	7	1	1.077332	1.077332	0	0	1	0	CommissionError	0.253962	1.029524	0	0	5.960870e+01
359.481750	1.306124	city	4	1	1.608986	1.608986	0	1	0	0	CorrectCommission	1.704975	1.003245	0	0	5.976087e+01
360.807831	1.346037	city	1	1	1.326046	1.326046	0	1	0	0	CorrectCommission	0.662450	0.981692	0	0	5.991304e+01
362.120728	1.279733	city	7	1	1.308371	1.308371	0	1	0	0	CorrectCommission	0.597324	0.965924	0	0	6.006522e+01
363.413666	1.306140	city	10	1	1.107494	1.107494	0	1	0	0	CorrectCommission	0.142829	0.956173	0	0	6.021739e+01
364.713226	1.292968	city	1	1	1.404911	1.404911	0	1	0	0	CorrectCommission	0.953038	0.951943	0	0	6.036957e+01
366.006195	1.292979	city	5	1	1.582925	1.582925	0	1	0	0	CorrectCommission	1.608950	0.952082	0	0	6.052174e+01
367.312469	1.319574	city	6	1	1.647354	1.647354	0	1	0	0	CorrectCommission	1.846345	0.955051	0	0	6.067391e+01
368.652039	1.359562	city	7	1	1.320570	1.320570	0	1	0	0	CorrectCommission	0.642272	0.959177	0	0	6.082609e+01
369.984924	1.306197	city	8	1	1.150735	1.150735	0	1	0	0	CorrectCommission	0.016499	0.962869	0	0	6.097826e+01
371.297791	1.319571	city	10	1	0.915435	0.915435	0	1	0	0	CorrectCommission	0.850491	0.964744	0	0	6.113043e+01
372.604004	1.292824	city	5	1	0.804743	0.804743	0	1	0	0	CorrectCommission	1.258346	0.963831	0	0	6.128261e+01
373.903503	1.306188	mountain	7	1	0.784610	0.784610	0	0	1	0	CommissionError	1.332528	0.959615	0	0	6.143478e+01
375.196442	1.279713	city	10	1	1.468069	1.468069	0	1	0	0	CorrectCommission	1.185749	0.952098	0	0	6.158696e+01
376.482727	1.292832	mountain	8	0	0.000000	1.648399	1	0	0	0	CorrectOmission	1.850195	0.941742	0	0	6.173913e+01
377.775574	1.292847	city	8	1	1.491035	1.491035	0	1	0	0	CorrectCommission	1.270370	0.929281	0	0	6.189130e+01
379.081757	1.319534	city	1	1	1.161409	1.161409	0	1	0	0	CorrectCommission	0.055829	0.915566	0	0	6.204348e+01
380.408051	1.333055	city	6	1	1.266332	1.266332	0	1	0	0	CorrectCommission	0.442427	0.901332	0	0	6.219565e+01
381.721039	1.292902	city	5	1	1.076220	1.076220	0	1	0	0	CorrectCommission	0.258060	0.886995	0	0	6.234783e+01
383.013947	1.292936	city	4	1	1.456453	1.456453	0	1	0	0	CorrectCommission	1.142948	0.872582	0	0	6.250000e+01
384.300171	1.279506	city	9	1	1.108883	1.108883	0	1	0	0	CorrectCommission	0.137709	0.857678	0	0	6.265217e+01
385.593079	1.306315	city	4	1	0.805383	0.805383	0	1	0	0	CorrectCommission	1.255988	0.841626	0	0	6.280435e+01
386.892700	1.292909	city	9	1	0.617701	0.617701	0	1	0	0	CorrectCommission	1.947522	0.823610	0	0	6.295652e+01
388.185516	1.292734	city	7	1	0.924965	0.924965	0	1	0	0	CorrectCommission	0.815375	0.802920	0	0	6.310870e+01
389.485046	1.306322	city	1	1	0.720584	0.720584	0	1	0	0	CorrectCommission	1.568440	0.779204	1	0	6.326087e+01
390.784668	1.292946	city	5	1	1.100748	1.100748	0	1	0	0	CorrectCommission	0.167684	0.752483	1	0	6.341304e+01
392.077606	1.292949	city	2	1	1.157242	1.157242	0	1	0	0	CorrectCommission	0.040473	0.723303	1	0	6.356522e+01
393.363892	1.279569	mountain	7	0	0.000000	1.380073	1	0	0	0	CorrectOmission	0.861518	0.692650	1	0	6.371739e+01
394.643402	1.279463	city	4	1	1.475944	1.475944	0	1	0	0	CorrectCommission	1.214767	0.661872	1	0	6.386957e+01
395.949615	1.333006	city	3	1	1.151559	1.151559	0	1	0	0	CorrectCommission	0.019535	0.632648	1	0	6.402174e+01
397.269257	1.306237	city	7	1	0.943085	0.943085	0	1	0	0	CorrectCommission	0.748612	0.606925	1	0	6.417391e+01
398.575470	1.306235	city	5	1	1.017582	1.017582	0	1	0	0	CorrectCommission	0.474117	0.586752	1	0	6.432609e+01
399.875061	1.292935	city	3	1	0.994994	0.994994	0	1	0	0	CorrectCommission	0.557347	0.574166	1	0	6.447826e+01
401.181335	1.319572	city	2	1	0.933908	0.933908	0	1	0	0	CorrectCommission	0.782424	0.571017	1	0	6.463043e+01
402.500885	1.319541	city	3	1	1.048960	1.048960	0	1	0	0	CorrectCommission	0.358503	0.578757	1	0	6.478261e+01
403.813751	1.306199	city	2	1	1.133968	1.133968	0	1	0	0	CorrectCommission	0.045283	0.598225	1	0	6.493478e+01
405.106659	1.279630	city	10	1	1.106768	1.106768	0	1	0	0	CorrectCommission	0.145504	0.629363	1	0	6.508696e+01
406.386261	1.279577	city	4	1	1.327783	1.327783	0	1	0	0	CorrectCommission	0.668850	0.671070	1	0	6.523913e+01
407.692444	1.332803	city	5	1	1.003452	1.003452	0	1	0	0	CorrectCommission	0.526181	0.721105	1	0	6.539130e+01
409.018677	1.319638	city	8	1	1.183932	1.183932	0	1	0	0	CorrectCommission	0.138815	0.776179	1	0	6.554348e+01
410.358276	1.359576	city	10	1	0.937949	0.937949	0	1	0	0	CorrectCommission	0.767535	0.832198	0	0	6.569565e+01
411.697845	1.319548	city	8	1	1.136493	1.136493	0	1	0	0	CorrectCommission	0.035978	0.884644	0	0	6.584783e+01
416.203003	7.690779	break	0	0	0.000000	1.505921	0	0	0	0	ThoughtProbe	1.325220	0.929203	0	66	66
420.694855	1.292928	city	2	1	1.792541	1.792541	0	1	0	0	CorrectCommission	2.381302	0.962287	0	0	6.597059e+01
421.994476	1.306266	mountain	8	0	0.000000	1.742660	1	0	0	0	CorrectOmission	2.197511	0.981639	0	0	6.594118e+01
423.294037	1.292884	city	5	1	1.635741	1.635741	0	1	0	0	CorrectCommission	1.803555	0.986746	0	0	6.591176e+01
424.606934	1.332896	city	6	1	1.751245	1.751245	0	1	0	0	CorrectCommission	2.229143	0.978887	0	0	6.588235e+01
425.939758	1.332751	city	1	1	1.263415	1.263415	0	1	0	0	CorrectCommission	0.431679	0.960978	0	0	6.585294e+01
427.292633	1.373020	city	6	1	1.111496	1.111496	0	1	0	0	CorrectCommission	0.128081	0.937158	0	0	6.582353e+01
428.632233	1.306196	city	5	1	1.106817	1.106817	0	1	0	0	CorrectCommission	0.145322	0.912101	0	0	6.579412e+01
429.931824	1.292954	city	2	1	0.996667	0.996667	0	1	0	0	CorrectCommission	0.551181	0.890385	0	0	6.576471e+01
431.224762	1.292931	city	6	1	1.017792	1.017792	0	1	0	0	CorrectCommission	0.473344	0.875917	0	0	6.573529e+01
432.517700	1.292928	city	9	1	0.996592	0.996592	0	1	0	0	CorrectCommission	0.551459	0.871507	0	0	6.570588e+01
433.810577	1.292859	city	5	1	0.887007	0.887007	0	1	0	0	CorrectCommission	0.955236	0.878655	0	0	6.567647e+01
435.116791	1.319551	city	2	1	0.829855	0.829855	0	1	0	0	CorrectCommission	1.165820	0.897534	0	0	6.564706e+01
436.436371	1.319594	city	10	1	1.182386	1.182386	0	1	0	0	CorrectCommission	0.133120	0.927133	0	0	6.561765e+01
437.749268	1.306225	city	5	1	0.924954	0.924954	0	1	0	0	CorrectCommission	0.815418	0.965551	0	0	6.558824e+01
439.068848	1.332915	city	4	1	1.025539	1.025539	0	1	0	0	CorrectCommission	0.444802	1.010239	0	0	6.555882e+01
440.381744	1.292891	city	7	1	0.698347	0.698347	0	1	0	0	CorrectCommission	1.650374	1.058429	0	0	6.552941e+01
441.694641	1.332910	mountain	8	1	0.577061	0.577061	0	0	1	0	CommissionError	2.097264	1.107256	0	0	6.550000e+01
443.007538	1.292888	city	9	1	1.689561	1.689561	0	1	0	0	CorrectCommission	2.001861	1.154035	0	0	6.547059e+01
444.307098	1.306229	city	6	1	1.277564	1.277564	0	1	0	0	CorrectCommission	0.483815	1.196395	0	0	6.544118e+01
445.640015	1.359586	city	5	1	1.084050	1.084050	0	1	0	0	CorrectCommission	0.229211	1.232367	0	0	6.541176e+01
446.972839	1.306077	city	3	1	0.924588	0.924588	0	1	0	0	CorrectCommission	0.816766	1.260440	0	0	6.538235e+01
448.305725	1.359689	city	9	1	0.723304	0.723304	0	1	0	0	CorrectCommission	1.558418	1.279603	0	0	6.535294e+01
449.631958	1.292768	city	4	1	1.648097	1.648097	0	1	0	0	CorrectCommission	1.849083	1.289469	0	0	6.532353e+01
450.924866	1.293068	city	6	1	1.849562	1.849562	0	1	0	0	CorrectCommission	2.591401	1.290357	0	0	6.529412e+01
452.231171	1.319548	city	10	1	1.723183	1.723183	0	1	0	0	CorrectCommission	2.125744	1.283305	0	0	6.526471e+01
453.544067	1.306259	city	2	1	1.586277	1.586277	0	1	0	0	CorrectCommission	1.621298	1.269945	0	0	6.523529e+01
454.850250	1.306101	city	8	1	1.457466	1.457466	0	1	0	0	CorrectCommission	1.146683	1.252312	0	0	6.520588e+01
456.156464	1.306279	city	6	1	1.188856	1.188856	0	1	0	0	CorrectCommission	0.156960	1.232504	0	0	6.517647e+01
457.449432	1.279681	city	5	1	1.092435	1.092435	0	1	0	0	CorrectCommission	0.198313	1.212338	0	0	6.514706e+01
458.749023	1.319473	city	7	1	0.966498	0.966498	0	1	0	0	CorrectCommission	0.662343	1.193051	0	0	6.511765e+01
460.068542	1.319623	city	5	1	1.595434	1.595434	0	1	0	0	CorrectCommission	1.655041	1.175136	0	0	6.508824e+01
461.374847	1.292936	city	1	1	1.547876	1.547876	0	1	0	0	CorrectCommission	1.479808	1.158374	0	0	6.505882e+01
462.694397	1.346205	city	10	1	1.424896	1.424896	0	1	0	0	CorrectCommission	1.026673	1.142026	0	0	6.502941e+01
467.279480	7.823954	break	0	1	1.084207	1.084207	0	0	0	0	ThoughtProbe	0.228631	1.125153	0	65	65
471.851318	1.319725	city	10	1	2.040360	2.040360	0	1	0	0	CorrectCommission	3.294418	1.106944	0	0	6.488235e+01
473.170898	1.319410	city	8	1	1.559495	1.559495	0	1	0	0	CorrectCommission	1.522619	1.086901	0	0	6.476471e+01
474.503693	1.346194	city	2	1	1.253209	1.253209	0	1	0	0	CorrectCommission	0.394073	1.065196	0	0	6.464706e+01
475.843323	1.333043	city	9	1	1.016196	1.016196	0	1	0	0	CorrectCommission	0.479227	1.042534	0	0	6.452941e+01
477.176239	1.332831	city	10	1	0.896171	0.896171	0	1	0	0	CorrectCommission	0.921470	1.020036	0	0	6.441176e+01
478.502411	1.319508	city	8	1	1.609102	1.609102	0	1	0	0	CorrectCommission	1.705400	0.999014	0	0	6.429412e+01
479.835266	1.346213	city	7	1	1.310571	1.310571	0	1	0	0	CorrectCommission	0.605431	0.980686	0	0	6.417647e+01
481.154907	1.293054	city	2	1	0.968299	0.968299	0	1	0	0	CorrectCommission	0.655706	0.965898	0	0	6.405882e+01
482.447906	1.292928	mountain	2	0	0.000000	1.257232	1	0	0	0	CorrectOmission	0.408900	0.954839	0	0	6.394118e+01
483.740784	1.292822	city	8	1	1.495237	1.495237	0	1	0	0	CorrectCommission	1.285854	0.946949	0	0	6.382353e+01
485.066986	1.359621	city	5	1	1.000181	1.000181	0	1	0	0	CorrectCommission	0.538236	0.940934	0	0	6.370588e+01
486.393250	1.292904	city	4	1	1.032547	1.032547	0	1	0	0	CorrectCommission	0.418979	0.934981	0	0	6.358824e+01
487.679504	1.279605	city	10	1	0.875888	0.875888	0	1	0	0	CorrectCommission	0.996204	0.927018	0	0	6.347059e+01
488.965759	1.292908	city	6	1	0.856317	0.856317	0	1	0	0	CorrectCommission	1.068316	0.915065	0	0	6.335294e+01
490.258636	1.292815	city	10	1	0.538274	0.538274	0	1	0	0	CorrectCommission	2.240179	0.897607	0	0	6.323529e+01
491.571533	1.332961	city	8	1	0.733847	0.733847	0	1	0	0	CorrectCommission	1.519571	0.873833	0	0	6.311765e+01
492.891113	1.306229	city	3	1	1.541071	1.541071	0	1	0	0	CorrectCommission	1.454732	0.843806	0	0	63
494.224030	1.359583	city	7	1	1.145606	1.145606	0	1	0	0	CorrectCommission	0.002401	0.808382	0	0	6.288235e+01
495.550171	1.292727	city	9	1	0.936711	0.936711	0	1	0	0	CorrectCommission	0.772096	0.769055	1	0	6.276471e+01
496.849731	1.306400	mountain	7	0	0.000000	1.122777	1	0	0	0	CorrectOmission	0.086516	0.727612	1	0	6.264706e+01
498.162659	1.319443	city	4	1	1.253461	1.253461	0	1	0	0	CorrectCommission	0.395003	0.685871	1	0	6.252941e+01
499.488861	1.332954	city	1	1	0.878420	0.878420	0	1	0	0	CorrectCommission	0.986874	0.645384	1	0	6.241176e+01
500.821808	1.332962	city	3	1	1.032053	1.032053	0	1	0	0	CorrectCommission	0.420798	0.607170	1	0	6.229412e+01
502.148071	1.319553	city	10	1	1.057424	1.057424	0	1	0	0	CorrectCommission	0.327316	0.571748	1	0	6.217647e+01
503.460999	1.306265	city	4	1	0.988739	0.988739	0	1	0	0	CorrectCommission	0.580394	0.539109	1	0	6.205882e+01
504.760559	1.292885	city	7	1	0.916421	0.916421	0	1	0	0	CorrectCommission	0.846856	0.508810	1	0	6.194118e+01
506.060120	1.306240	city	6	1	1.038144	1.038144	0	1	0	0	CorrectCommission	0.398355	0.480119	1	0	6.182353e+01
507.373047	1.319578	city	1	1	0.980112	0.980112	0	1	0	0	CorrectCommission	0.612180	0.452206	1	0	6.170588e+01
508.685944	1.306221	city	5	1	1.133926	1.133926	0	1	0	0	CorrectCommission	0.045435	0.424291	1	0	6.158824e+01
509.978821	1.279580	city	4	1	1.236503	1.236503	0	1	0	0	CorrectCommission	0.332518	0.395757	1	0	6.147059e+01
511.271667	1.306098	city	3	1	0.992052	0.992052	0	1	0	0	CorrectCommission	0.568187	0.366250	1	0	6.135294e+01
512.571228	1.293070	city	1	1	1.328527	1.328527	0	1	0	0	CorrectCommission	0.671591	0.335663	1	0	6.123529e+01
513.877502	1.319380	city	4	1	1.274328	1.274328	0	1	0	0	CorrectCommission	0.471891	0.304181	1	0	6.111765e+01
517.942810	6.811305	break	0	0	0.000000	1.220130	0	0	0	0	ThoughtProbe	0.272191	0.272191	1	61	61
