onset	duration	trial_type	image_type	Press	ReactionTime	ReactionTime_Interpolated	CorrectOmission	CorrectCommission	CommissionError	OmissionError	response_type	nonsmoothVarianceTimeCourse	VarianceTimeCourse	In_the_Zone	ThoughtProbe	ThoughtProbe_Interpolated
0.652751	1.279543	mountain	2	0	0.000000	1.643973	1	0	0	0	CorrectOmission	1.692407	1.692407	0	0	67
1.959042	1.333040	city	6	1	1.550175	1.550175	0	1	0	0	CorrectCommission	1.302856	1.502490	0	0	67
3.265269	1.279413	city	8	1	1.456377	1.456377	0	1	0	0	CorrectCommission	0.913304	1.319360	0	0	67
4.544772	1.279593	city	2	1	1.396633	1.396633	0	1	0	0	CorrectCommission	0.665180	1.149286	0	0	67
5.824449	1.279760	city	1	1	1.208177	1.208177	0	1	0	0	CorrectCommission	0.117493	0.997533	0	0	67
7.104021	1.279384	mountain	3	1	1.162753	1.162753	0	0	1	0	CommissionError	0.306143	0.867976	0	0	67
8.383514	1.279603	city	5	1	1.314787	1.314787	0	1	0	0	CorrectCommission	0.325267	0.762870	0	0	67
9.676426	1.306221	city	7	1	1.363517	1.363517	0	1	0	0	CorrectCommission	0.527650	0.682744	1	0	67
10.969373	1.279671	city	4	1	1.177641	1.177641	0	1	0	0	CorrectCommission	0.244310	0.626462	1	0	67
12.248960	1.279505	city	1	1	1.234416	1.234416	0	1	0	0	CorrectCommission	0.008521	0.591413	1	0	67
13.528506	1.279586	city	6	1	1.229675	1.229675	0	1	0	0	CorrectCommission	0.028211	0.573808	1	0	67
14.814757	1.292915	city	3	1	1.367067	1.367067	0	1	0	0	CorrectCommission	0.542390	0.569116	1	0	67
16.107700	1.292970	city	10	1	1.244324	1.244324	0	1	0	0	CorrectCommission	0.032629	0.572524	1	0	67
17.394014	1.279659	city	2	1	1.523139	1.523139	0	1	0	0	CorrectCommission	1.190571	0.579470	1	0	67
18.673544	1.279398	city	4	1	1.678665	1.678665	0	1	0	0	CorrectCommission	1.836487	0.586050	1	0	67
19.959738	1.292991	city	2	1	1.418972	1.418972	0	1	0	0	CorrectCommission	0.757956	0.589428	1	0	67
21.245985	1.279501	city	4	1	1.402032	1.402032	0	1	0	0	CorrectCommission	0.687603	0.588054	1	0	67
22.525616	1.279761	city	10	1	1.288310	1.288310	0	1	0	0	CorrectCommission	0.215307	0.581687	1	0	67
23.805191	1.279389	mountain	9	0	0.000000	1.416873	1	0	0	0	CorrectOmission	0.749239	0.571303	1	0	67
25.091339	1.292907	city	7	1	1.511368	1.511368	0	1	0	0	CorrectCommission	1.141688	0.558794	1	0	67
26.417570	1.359554	city	10	1	1.295447	1.295447	0	1	0	0	CorrectCommission	0.244946	0.546609	1	0	67
27.737162	1.279628	city	9	1	1.282190	1.282190	0	1	0	0	CorrectCommission	0.189890	0.537353	1	0	67
29.030151	1.306351	city	3	1	1.168570	1.168570	0	1	0	0	CorrectCommission	0.281984	0.533330	1	0	67
30.323124	1.279596	city	2	1	1.347321	1.347321	0	1	0	0	CorrectCommission	0.460384	0.536170	1	0	67
31.602703	1.279562	city	8	1	1.234685	1.234685	0	1	0	0	CorrectCommission	0.007401	0.546630	1	0	67
32.882221	1.279471	city	7	1	1.283144	1.283144	0	1	0	0	CorrectCommission	0.193850	0.564497	1	0	67
34.168407	1.292908	city	1	1	1.137659	1.137659	0	1	0	0	CorrectCommission	0.410359	0.588666	1	0	67
35.461372	1.293018	city	6	1	1.298166	1.298166	0	1	0	0	CorrectCommission	0.256238	0.617408	1	0	67
36.747681	1.279598	city	2	1	1.444757	1.444757	0	1	0	0	CorrectCommission	0.865047	0.648742	1	0	67
38.027180	1.279399	city	7	1	1.502111	1.502111	0	1	0	0	CorrectCommission	1.103240	0.680804	1	0	67
39.306686	1.279618	city	5	1	1.507044	1.507044	0	1	0	0	CorrectCommission	1.123728	0.712267	1	0	67
40.586266	1.279536	city	1	1	1.515976	1.515976	0	1	0	0	CorrectCommission	1.160826	0.742600	1	0	67
41.872578	1.293094	city	9	1	1.465958	1.465958	0	1	0	0	CorrectCommission	0.953093	0.772114	0	0	67
43.158825	1.279393	city	3	1	1.505336	1.505336	0	1	0	0	CorrectCommission	1.116634	0.801860	0	0	67
44.445065	1.293092	city	9	1	1.513525	1.513525	0	1	0	0	CorrectCommission	1.150647	0.833322	0	0	67
45.731407	1.279589	city	6	1	1.249281	1.249281	0	1	0	0	CorrectCommission	0.053216	0.867930	0	0	67
47.024250	1.306098	city	2	1	1.216728	1.216728	0	1	0	0	CorrectCommission	0.081978	0.906663	0	0	67
48.323814	1.293032	city	4	1	1.082263	1.082263	0	1	0	0	CorrectCommission	0.640424	0.949618	0	0	67
49.610115	1.279568	city	5	1	1.293998	1.293998	0	1	0	0	CorrectCommission	0.238929	0.995796	0	0	67
50.249897	12.862459	break	0	1	1.130302	1.130302	0	0	0	0	ThoughtProbe	0.440916	1.043178	0	67	67
63.752079	1.279448	city	2	1	1.568006	1.568006	0	1	0	0	CorrectCommission	1.376910	1.088948	0	0	6.754348e+01
65.058327	1.333039	city	5	1	1.827326	1.827326	0	1	0	0	CorrectCommission	2.453889	1.129941	0	0	6.808696e+01
66.371300	1.292914	city	10	1	1.636738	1.636738	0	1	0	0	CorrectCommission	1.662361	1.163178	0	0	6.863043e+01
67.657494	1.279471	city	3	1	1.767782	1.767782	0	1	0	0	CorrectCommission	2.206596	1.186381	0	0	6.917391e+01
68.937050	1.279636	mountain	9	0	0.000000	1.579359	1	0	0	0	CorrectOmission	1.424060	1.198245	0	0	6.971739e+01
70.223251	1.292776	city	9	1	1.407356	1.407356	0	1	0	0	CorrectCommission	0.709717	1.198644	0	0	7.026087e+01
71.509430	1.279569	city	2	1	1.587660	1.587660	0	1	0	0	CorrectCommission	1.458533	1.188522	0	0	7.080435e+01
72.802322	1.306220	city	6	1	1.638425	1.638425	0	1	0	0	CorrectCommission	1.669364	1.169612	0	0	7.134783e+01
74.095314	1.279762	city	10	1	1.416338	1.416338	0	1	0	0	CorrectCommission	0.747020	1.144097	0	0	7.189130e+01
75.374969	1.279559	city	5	1	1.390986	1.390986	0	1	0	0	CorrectCommission	0.641728	1.114244	0	0	7.243478e+01
76.654541	1.279577	city	8	1	1.569536	1.569536	0	1	0	0	CorrectCommission	1.383263	1.082020	0	0	7.297826e+01
77.954063	1.319470	city	10	1	1.289745	1.289745	0	1	0	0	CorrectCommission	0.221267	1.048886	0	0	7.352174e+01
79.253624	1.279646	mountain	5	0	0.000000	1.460010	1	0	0	0	CorrectOmission	0.928393	1.015784	0	0	7.406522e+01
80.533249	1.279607	city	4	1	1.629405	1.629405	0	1	0	0	CorrectCommission	1.631906	0.983124	0	0	7.460870e+01
81.812859	1.279606	city	5	1	1.347004	1.347004	0	1	0	0	CorrectCommission	0.459070	0.951008	0	0	7.515217e+01
83.092445	1.279580	city	3	1	1.614150	1.614150	0	1	0	0	CorrectCommission	1.568551	0.919462	0	0	7.569565e+01
84.371933	1.279396	mountain	4	0	0.000000	1.597964	1	0	0	0	CorrectOmission	1.501327	0.888541	0	0	7.623913e+01
85.651505	1.279736	city	5	1	1.402937	1.402937	0	1	0	0	CorrectCommission	0.691365	0.858532	0	0	7.678261e+01
86.931129	1.279514	city	4	1	1.133564	1.133564	0	1	0	0	CorrectCommission	0.427369	0.829940	0	0	7.732609e+01
88.210693	1.279626	city	6	1	1.137034	1.137034	0	1	0	0	CorrectCommission	0.412956	0.803365	0	0	7.786957e+01
89.490311	1.279595	city	8	1	0.981347	0.981347	0	1	0	0	CorrectCommission	1.059537	0.779383	0	0	7.841304e+01
90.769814	1.279425	city	7	1	1.087188	1.087188	0	1	0	0	CorrectCommission	0.619972	0.758352	0	0	7.895652e+01
92.049232	1.279413	city	2	1	1.086194	1.086194	0	1	0	0	CorrectCommission	0.624099	0.740277	1	0	7.950000e+01
93.328819	1.279754	city	4	1	1.186851	1.186851	0	1	0	0	CorrectCommission	0.206062	0.724696	1	0	8.004348e+01
94.608521	1.279652	city	10	1	1.027886	1.027886	0	1	0	0	CorrectCommission	0.866259	0.710750	1	0	8.058696e+01
95.888100	1.279500	city	8	1	1.138632	1.138632	0	1	0	0	CorrectCommission	0.406318	0.697222	1	0	8.113043e+01
97.167725	1.279754	city	10	1	1.029238	1.029238	0	1	0	0	CorrectCommission	0.860641	0.682816	1	0	8.167391e+01
98.447319	1.279427	city	1	1	1.042902	1.042902	0	1	0	0	CorrectCommission	0.803894	0.666357	1	0	8.221739e+01
99.740219	1.306384	city	6	1	0.969867	0.969867	0	1	0	0	CorrectCommission	1.107214	0.647038	1	0	8.276087e+01
101.039864	1.292896	city	10	1	0.971581	0.971581	0	1	0	0	CorrectCommission	1.100098	0.624588	1	0	8.330435e+01
102.332695	1.292769	city	1	1	1.040415	1.040415	0	1	0	0	CorrectCommission	0.814222	0.599381	1	0	8.384783e+01
103.618935	1.279718	city	8	1	1.039710	1.039710	0	1	0	0	CorrectCommission	0.817152	0.572399	1	0	8.439130e+01
104.898506	1.279413	city	5	1	1.240242	1.240242	0	1	0	0	CorrectCommission	0.015677	0.545070	1	0	8.493478e+01
106.178078	1.279742	mountain	9	0	0.000000	1.304673	1	0	0	0	CorrectOmission	0.283264	0.519075	1	0	8.547826e+01
107.471077	1.306247	city	7	1	1.264367	1.264367	0	1	0	0	CorrectCommission	0.115867	0.496044	1	0	8.602174e+01
108.803978	1.359567	city	10	1	1.150687	1.150687	0	1	0	0	CorrectCommission	0.356253	0.477323	1	0	8.656522e+01
110.136826	1.306119	city	1	1	1.152589	1.152589	0	1	0	0	CorrectCommission	0.348356	0.463816	1	0	8.710870e+01
111.429733	1.279696	city	4	1	1.363147	1.363147	0	1	0	0	CorrectCommission	0.526110	0.455894	1	0	8.765217e+01
112.729286	1.319413	city	1	1	1.208697	1.208697	0	1	0	0	CorrectCommission	0.115333	0.453360	1	0	8.819565e+01
114.035522	1.293058	city	8	1	1.163679	1.163679	0	1	0	0	CorrectCommission	0.302298	0.455601	1	0	8.873913e+01
115.321831	1.279563	city	4	1	1.032009	1.032009	0	1	0	0	CorrectCommission	0.849132	0.461647	1	0	8.928261e+01
116.608078	1.292928	city	2	1	1.097426	1.097426	0	1	0	0	CorrectCommission	0.577451	0.470357	1	0	8.982609e+01
117.907646	1.306210	city	7	1	1.152811	1.152811	0	1	0	0	CorrectCommission	0.347432	0.480573	1	0	9.036957e+01
119.200500	1.279492	city	10	1	1.079404	1.079404	0	1	0	0	CorrectCommission	0.652299	0.491236	1	0	9.091304e+01
120.486748	1.293014	city	8	1	1.249688	1.249688	0	1	0	0	CorrectCommission	0.054906	0.501462	1	0	9.145652e+01
121.133255	12.142526	break	0	0	0.000000	1.371502	0	0	0	0	ThoughtProbe	0.560809	0.510634	1	92	92
133.915665	1.279760	city	3	0	0.000000	1.440936	0	0	0	1	OmissionError	0.849177	0.518372	1	0	9.144118e+01
135.195312	1.279533	city	6	1	1.454083	1.454083	0	1	0	0	CorrectCommission	0.903778	0.524576	1	0	9.088235e+01
136.474823	1.279486	city	1	1	1.407034	1.407034	0	1	0	0	CorrectCommission	0.708380	0.529369	1	0	9.032353e+01
137.754379	1.279644	city	7	1	1.236009	1.236009	0	1	0	0	CorrectCommission	0.001906	0.533068	1	0	8.976471e+01
139.033997	1.279598	mountain	10	1	1.228951	1.228951	0	0	1	0	CommissionError	0.031218	0.536105	1	0	8.920588e+01
140.320267	1.292937	city	9	1	1.513904	1.513904	0	1	0	0	CorrectCommission	1.152218	0.538950	1	0	8.864706e+01
141.613113	1.292741	city	5	1	1.331254	1.331254	0	1	0	0	CorrectCommission	0.393659	0.542052	1	0	8.808824e+01
142.905914	1.292870	city	4	1	1.472405	1.472405	0	1	0	0	CorrectCommission	0.979871	0.545814	1	0	8.752941e+01
144.238892	1.373089	city	2	1	1.293547	1.293547	0	1	0	0	CorrectCommission	0.237058	0.550490	1	0	8.697059e+01
145.565231	1.279576	city	8	1	1.196128	1.196128	0	1	0	0	CorrectCommission	0.167535	0.556200	1	0	8.641176e+01
146.844803	1.279579	city	9	1	1.500416	1.500416	0	1	0	0	CorrectCommission	1.096202	0.562886	1	0	8.585294e+01
148.124298	1.279393	city	3	1	1.244898	1.244898	0	1	0	0	CorrectCommission	0.035012	0.570338	1	0	8.529412e+01
149.403793	1.279607	city	2	1	1.445238	1.445238	0	1	0	0	CorrectCommission	0.867041	0.578281	1	0	8.473529e+01
150.683441	1.279689	city	10	1	1.246529	1.246529	0	1	0	0	CorrectCommission	0.041788	0.586394	1	0	8.417647e+01
151.963089	1.279604	city	9	1	1.122345	1.122345	0	1	0	0	CorrectCommission	0.473962	0.594543	1	0	8.361765e+01
153.249359	1.292929	city	5	1	0.930290	0.930290	0	1	0	0	CorrectCommission	1.271582	0.602806	1	0	8.305882e+01
154.535599	1.279557	city	2	1	0.976787	0.976787	0	1	0	0	CorrectCommission	1.078475	0.611586	1	0	8.250000e+01
155.815079	1.279425	city	7	1	1.077932	1.077932	0	1	0	0	CorrectCommission	0.658413	0.621680	1	0	8.194118e+01
157.094589	1.279570	mountain	3	0	0.000000	1.114378	1	0	0	0	CorrectOmission	0.507049	0.634218	1	0	8.138235e+01
158.374252	1.279764	city	4	1	1.191359	1.191359	0	1	0	0	CorrectCommission	0.187340	0.650529	1	0	8.082353e+01
159.653915	1.279575	city	10	1	1.414107	1.414107	0	1	0	0	CorrectCommission	0.737753	0.671969	1	0	8.026471e+01
160.946823	1.306219	city	6	1	1.320851	1.320851	0	1	0	0	CorrectCommission	0.350454	0.699680	1	0	7.970588e+01
162.239655	1.279449	city	9	1	1.461172	1.461172	0	1	0	0	CorrectCommission	0.933218	0.734393	1	0	7.914706e+01
163.519180	1.279623	city	1	1	1.250212	1.250212	0	1	0	0	CorrectCommission	0.057082	0.776228	0	0	7.858824e+01
164.798843	1.279687	city	9	1	1.187435	1.187435	0	1	0	0	CorrectCommission	0.203636	0.824617	0	0	7.802941e+01
166.078461	1.279557	city	8	1	0.965374	0.965374	0	1	0	0	CorrectCommission	1.125874	0.878247	0	0	7.747059e+01
167.364700	1.292926	city	5	1	0.950096	0.950096	0	1	0	0	CorrectCommission	1.189326	0.935131	0	0	7.691176e+01
168.650955	1.279581	city	7	1	1.034824	1.034824	0	1	0	0	CorrectCommission	0.837445	0.992746	0	0	7.635294e+01
169.957108	1.332715	city	9	1	0.946834	0.946834	0	1	0	0	CorrectCommission	1.202873	1.048270	0	0	7.579412e+01
171.263336	1.279733	city	3	1	0.921184	0.921184	0	1	0	0	CorrectCommission	1.309401	1.098744	0	0	7.523529e+01
172.542984	1.279585	city	8	1	0.702447	0.702447	0	1	0	0	CorrectCommission	2.217837	1.141351	0	0	7.467647e+01
173.822586	1.279602	city	2	1	1.027557	1.027557	0	1	0	0	CorrectCommission	0.867624	1.173613	0	0	7.411765e+01
175.108826	1.292892	city	3	1	1.200781	1.200781	0	1	0	0	CorrectCommission	0.148209	1.193656	0	0	7.355882e+01
175.755280	10.489778	break	0	0	0.000000	1.635520	0	0	0	0	ThoughtProbe	1.657303	1.200340	0	73	73
186.891571	1.293029	city	3	1	1.701110	1.701110	0	1	0	0	CorrectCommission	1.929702	1.193382	0	0	7.322500e+01
188.184525	1.292888	city	4	1	0.766885	0.766885	0	1	0	0	CorrectCommission	1.950216	1.173571	0	0	7.345000e+01
189.470749	1.279557	city	1	1	0.770348	0.770348	0	1	0	0	CorrectCommission	1.935836	1.142714	0	0	7.367500e+01
190.750259	1.279462	city	9	1	1.550208	1.550208	0	1	0	0	CorrectCommission	1.302993	1.103525	0	0	7.390000e+01
192.029846	1.279707	mountain	7	0	0.000000	1.516302	1	0	0	0	CorrectOmission	1.162179	1.059426	0	0	7.412500e+01
193.309509	1.279614	city	8	1	1.188806	1.188806	0	1	0	0	CorrectCommission	0.197940	1.014192	0	0	7.435000e+01
194.589020	1.279421	city	5	1	1.087897	1.087897	0	1	0	0	CorrectCommission	0.617026	0.971504	0	0	7.457500e+01
195.868591	1.279709	city	3	1	1.190585	1.190585	0	1	0	0	CorrectCommission	0.190554	0.934543	0	0	7.480000e+01
197.148239	1.279579	city	9	1	1.042664	1.042664	0	1	0	0	CorrectCommission	0.804882	0.905624	0	0	7.502500e+01
198.434479	1.292910	mountain	1	0	0.000000	1.017928	1	0	0	0	CorrectOmission	0.907612	0.885940	0	0	7.525000e+01
199.727386	1.292900	city	7	1	1.038070	1.038070	0	1	0	0	CorrectCommission	0.823963	0.875491	0	0	7.547500e+01
201.013626	1.279580	city	8	1	1.024781	1.024781	0	1	0	0	CorrectCommission	0.879154	0.873148	0	0	7.570000e+01
202.306534	1.306256	city	2	1	1.321720	1.321720	0	1	0	0	CorrectCommission	0.354059	0.876820	0	0	7.592500e+01
203.599411	1.279478	city	4	1	1.406151	1.406151	0	1	0	0	CorrectCommission	0.704711	0.883805	0	0	7.615000e+01
204.885651	1.292999	city	6	1	1.101056	1.101056	0	1	0	0	CorrectCommission	0.562375	0.891132	0	0	7.637500e+01
206.178589	1.292891	city	8	1	1.021812	1.021812	0	1	0	0	CorrectCommission	0.891485	0.896045	0	0	7.660000e+01
207.478180	1.306279	city	7	1	0.835703	0.835703	0	1	0	0	CorrectCommission	1.664411	0.896353	0	0	7.682500e+01
208.771027	1.279417	city	8	1	0.541242	0.541242	0	1	0	0	CorrectCommission	2.887333	0.890730	0	0	7.705000e+01
210.050507	1.279552	city	7	1	1.032740	1.032740	0	1	0	0	CorrectCommission	0.846099	0.878854	0	0	7.727500e+01
211.330078	1.279573	city	10	1	1.242275	1.242275	0	1	0	0	CorrectCommission	0.024119	0.861490	0	0	7.750000e+01
212.609665	1.279615	city	6	1	0.972090	0.972090	0	1	0	0	CorrectCommission	1.097984	0.840251	0	0	7.772500e+01
213.889328	1.279712	city	4	1	1.340685	1.340685	0	1	0	0	CorrectCommission	0.432826	0.817293	0	0	7.795000e+01
215.168976	1.279597	mountain	9	0	0.000000	1.218493	1	0	0	0	CorrectOmission	0.074648	0.795131	0	0	7.817500e+01
216.455139	1.292725	city	2	1	1.148657	1.148657	0	1	0	0	CorrectCommission	0.364686	0.776255	0	0	7.840000e+01
217.741318	1.279622	city	9	1	1.674318	1.674318	0	1	0	0	CorrectCommission	1.818432	0.762884	0	0	7.862500e+01
219.020920	1.279582	city	5	1	1.300908	1.300908	0	1	0	0	CorrectCommission	0.267629	0.756788	0	0	7.885000e+01
220.300552	1.279690	city	3	1	1.469921	1.469921	0	1	0	0	CorrectCommission	0.969554	0.759219	0	0	7.907500e+01
221.586700	1.292603	city	4	1	1.332470	1.332470	0	1	0	0	CorrectCommission	0.398706	0.770717	0	0	7.930000e+01
222.879623	1.293236	city	3	1	1.261425	1.261425	0	1	0	0	CorrectCommission	0.103651	0.791106	0	0	7.952500e+01
224.165970	1.279456	city	9	1	1.035580	1.035580	0	1	0	0	CorrectCommission	0.834304	0.819451	0	0	7.975000e+01
225.452209	1.293015	city	6	1	0.932629	0.932629	0	1	0	0	CorrectCommission	1.261867	0.854005	0	0	7.997500e+01
226.765091	1.332753	city	1	1	1.137315	1.137315	0	1	0	0	CorrectCommission	0.411788	0.892290	0	0	8.020000e+01
228.071259	1.279581	city	3	1	1.458596	1.458596	0	1	0	0	CorrectCommission	0.922518	0.931269	0	0	8.042500e+01
229.364197	1.306307	city	9	1	1.170009	1.170009	0	1	0	0	CorrectCommission	0.276006	0.967517	0	0	8.065000e+01
230.657089	1.279482	city	4	1	1.033981	1.033981	0	1	0	0	CorrectCommission	0.840945	0.997613	0	0	8.087500e+01
231.936630	1.279599	city	9	1	0.814154	0.814154	0	1	0	0	CorrectCommission	1.753906	1.018455	0	0	8.110000e+01
233.222900	1.292932	city	8	1	0.768104	0.768104	0	1	0	0	CorrectCommission	1.945154	1.027702	0	0	8.132500e+01
234.515793	1.292867	city	2	1	1.761180	1.761180	0	1	0	0	CorrectCommission	2.179178	1.024105	0	0	8.155000e+01
235.808762	1.293067	city	5	1	1.616853	1.616853	0	1	0	0	CorrectCommission	1.579774	1.007743	0	0	8.177500e+01
236.455292	11.529386	break	0	0	0.000000	1.385948	0	0	0	0	ThoughtProbe	0.620805	0.980037	0	82	82
248.631149	1.292941	city	5	1	1.322913	1.322913	0	1	0	0	CorrectCommission	0.359018	0.943637	0	0	8.164706e+01
249.944138	1.333030	city	8	1	1.682199	1.682199	0	1	0	0	CorrectCommission	1.851163	0.902067	0	0	8.129412e+01
251.263702	1.306080	city	9	1	1.382829	1.382829	0	1	0	0	CorrectCommission	0.607855	0.859206	0	0	8.094118e+01
252.576599	1.319732	mountain	6	0	0.000000	1.230114	1	0	0	0	CorrectOmission	0.026388	0.818883	0	0	8.058824e+01
253.876251	1.279579	city	9	1	1.138062	1.138062	0	1	0	0	CorrectCommission	0.408685	0.784325	0	0	8.023529e+01
255.155838	1.279566	city	8	1	1.020686	1.020686	0	1	0	0	CorrectCommission	0.896159	0.757748	0	0	7.988235e+01
256.475311	1.359403	city	2	1	1.274543	1.274543	0	1	0	0	CorrectCommission	0.158130	0.740132	1	0	7.952941e+01
257.794861	1.279699	city	4	1	1.243025	1.243025	0	1	0	0	CorrectCommission	0.027234	0.731226	1	0	7.917647e+01
259.074524	1.279604	city	10	1	0.976514	0.976514	0	1	0	0	CorrectCommission	1.079609	0.729611	1	0	7.882353e+01
260.374023	1.319406	city	3	1	1.057398	1.057398	0	1	0	0	CorrectCommission	0.743691	0.733017	1	0	7.847059e+01
261.673523	1.279576	city	4	1	1.177692	1.177692	0	1	0	0	CorrectCommission	0.244102	0.738786	1	0	7.811765e+01
262.953094	1.279587	city	8	1	1.017630	1.017630	0	1	0	0	CorrectCommission	0.908851	0.744329	1	0	7.776471e+01
264.232666	1.279580	city	5	1	0.917426	0.917426	0	1	0	0	CorrectCommission	1.325006	0.747514	0	0	7.741176e+01
265.518921	1.292894	city	1	1	0.832561	0.832561	0	1	0	0	CorrectCommission	1.677459	0.747060	1	0	7.705882e+01
266.805237	1.279759	city	3	1	1.517161	1.517161	0	1	0	0	CorrectCommission	1.165747	0.742674	1	0	7.670588e+01
268.084839	1.279420	mountain	4	0	0.000000	1.464954	1	0	0	0	CorrectOmission	0.948926	0.735057	1	0	7.635294e+01
269.364288	1.279467	city	1	1	1.245535	1.245535	0	1	0	0	CorrectCommission	0.037659	0.725641	1	0	76
270.650604	1.293163	city	9	1	1.428499	1.428499	0	1	0	0	CorrectCommission	0.797525	0.716266	1	0	7.564706e+01
271.943634	1.292914	city	2	1	1.337402	1.337402	0	1	0	0	CorrectCommission	0.419189	0.708744	1	0	7.529412e+01
273.269867	1.359573	city	8	1	1.217696	1.217696	0	1	0	0	CorrectCommission	0.077959	0.704507	1	0	7.494118e+01
274.589447	1.279573	city	3	1	1.289824	1.289824	0	1	0	0	CorrectCommission	0.221592	0.704339	1	0	7.458824e+01
275.875610	1.292743	city	9	1	1.088855	1.088855	0	1	0	0	CorrectCommission	0.613047	0.708257	1	0	7.423529e+01
277.188477	1.332992	city	6	1	1.090173	1.090173	0	1	0	0	CorrectCommission	0.607573	0.715566	1	0	7.388235e+01
278.528076	1.346251	city	3	1	0.994454	0.994454	0	1	0	0	CorrectCommission	1.005104	0.725047	1	0	7.352941e+01
279.840942	1.279459	city	2	1	1.407863	1.407863	0	1	0	0	CorrectCommission	0.711822	0.735234	1	0	7.317647e+01
281.147217	1.333062	city	4	1	1.636148	1.636148	0	1	0	0	CorrectCommission	1.659907	0.744722	1	0	7.282353e+01
282.460083	1.292662	city	3	1	1.527259	1.527259	0	1	0	0	CorrectCommission	1.207682	0.752333	0	0	7.247059e+01
283.746216	1.279662	city	7	1	1.395992	1.395992	0	1	0	0	CorrectCommission	0.662519	0.757273	0	0	7.211765e+01
285.025848	1.279577	city	4	1	1.376560	1.376560	0	1	0	0	CorrectCommission	0.581817	0.759127	0	0	7.176471e+01
286.318787	1.306300	city	2	1	1.256796	1.256796	0	1	0	0	CorrectCommission	0.084426	0.757769	0	0	7.141176e+01
287.611755	1.279654	city	9	1	1.517394	1.517394	0	1	0	0	CorrectCommission	1.166711	0.753255	0	0	7.105882e+01
288.898041	1.292908	city	2	1	1.365520	1.365520	0	1	0	0	CorrectCommission	0.535967	0.745723	1	0	7.070588e+01
290.184265	1.279551	city	6	1	1.296655	1.296655	0	1	0	0	CorrectCommission	0.249962	0.735388	1	0	7.035294e+01
290.824066	8.530399	break	0	0	0.000000	1.444591	0	0	0	0	ThoughtProbe	0.864356	0.722577	1	70	70
300.000977	1.293064	city	4	1	1.564896	1.564896	0	1	0	0	CorrectCommission	1.363995	0.707841	1	0	6.936957e+01
301.287231	1.279417	city	10	1	1.413138	1.413138	0	1	0	0	CorrectCommission	0.733728	0.692048	1	0	6.873913e+01
302.586792	1.319732	mountain	2	0	0.000000	1.492333	1	0	0	0	CorrectOmission	1.062634	0.676541	1	0	6.810870e+01
303.886414	1.279513	city	8	1	1.538794	1.538794	0	1	0	0	CorrectCommission	1.255590	0.663040	1	0	6.747826e+01
305.185974	1.319580	city	5	1	1.288832	1.288832	0	1	0	0	CorrectCommission	0.217474	0.653560	1	0	6.684783e+01
306.518799	1.346109	city	3	1	1.294043	1.294043	0	1	0	0	CorrectCommission	0.239117	0.650149	1	0	6.621739e+01
307.831665	1.279595	city	1	1	1.284113	1.284113	0	1	0	0	CorrectCommission	0.197875	0.654535	1	0	6.558696e+01
309.111328	1.279741	city	10	1	1.299114	1.299114	0	1	0	0	CorrectCommission	0.260177	0.667854	1	0	6.495652e+01
310.390900	1.279416	city	8	1	1.125304	1.125304	0	1	0	0	CorrectCommission	0.461672	0.690350	1	0	6.432609e+01
311.677094	1.292941	city	10	1	1.244523	1.244523	0	1	0	0	CorrectCommission	0.033455	0.721284	1	0	6.369565e+01
312.976654	1.306198	city	5	1	1.142928	1.142928	0	1	0	0	CorrectCommission	0.388480	0.759012	0	0	6.306522e+01
314.282959	1.306390	city	10	1	0.994462	0.994462	0	1	0	0	CorrectCommission	1.005069	0.801199	0	0	6.243478e+01
315.589264	1.306230	city	8	1	0.929455	0.929455	0	1	0	0	CorrectCommission	1.275049	0.845183	0	0	6.180435e+01
316.882141	1.279525	mountain	3	0	0.000000	0.963897	1	0	0	0	CorrectOmission	1.132011	0.888411	0	0	6.117391e+01
318.168396	1.292969	city	2	1	0.986264	0.986264	0	1	0	0	CorrectCommission	1.039117	0.928833	0	0	6.054348e+01
319.461334	1.292907	city	1	1	0.885035	0.885035	0	1	0	0	CorrectCommission	1.459529	0.965163	0	0	5.991304e+01
320.774231	1.332913	city	5	1	0.665425	0.665425	0	1	0	0	CorrectCommission	2.371591	0.996948	0	0	5.928261e+01
322.087158	1.292925	city	8	1	1.308301	1.308301	0	1	0	0	CorrectCommission	0.298331	1.024508	0	0	5.865217e+01
323.380005	1.292780	city	3	1	1.092874	1.092874	0	1	0	0	CorrectCommission	0.596356	1.048712	0	0	5.802174e+01
324.679474	1.306177	mountain	9	1	0.830834	0.830834	0	0	1	0	CommissionError	1.684633	1.070563	0	0	5.739130e+01
325.972473	1.279775	city	5	1	1.247039	1.247039	0	1	0	0	CorrectCommission	0.043903	1.090844	0	0	5.676087e+01
327.272034	1.319388	city	8	1	1.059851	1.059851	0	1	0	0	CorrectCommission	0.733502	1.109868	0	0	5.613043e+01
328.571564	1.279630	city	1	1	1.086985	1.086985	0	1	0	0	CorrectCommission	0.620813	1.127236	0	0	5.550000e+01
329.864532	1.306350	city	8	1	0.957392	0.957392	0	1	0	0	CorrectCommission	1.159026	1.141947	0	0	5.486957e+01
331.164154	1.292865	city	4	1	0.855813	0.855813	0	1	0	0	CorrectCommission	1.580894	1.152567	0	0	5.423913e+01
332.483704	1.346258	city	5	1	0.876166	0.876166	0	1	0	0	CorrectCommission	1.496365	1.157492	0	0	5.360870e+01
333.803284	1.292891	city	2	1	0.538329	0.538329	0	1	0	0	CorrectCommission	2.899434	1.155329	0	0	5.297826e+01
335.102783	1.306084	city	7	1	0.899137	0.899137	0	1	0	0	CorrectCommission	1.400965	1.145094	0	0	5.234783e+01
336.415588	1.319568	city	10	1	0.992117	0.992117	0	1	0	0	CorrectCommission	1.014809	1.126439	0	0	5.171739e+01
337.721924	1.293080	city	6	1	1.152581	1.152581	0	1	0	0	CorrectCommission	0.348387	1.099614	0	0	5.108696e+01
339.008240	1.279580	city	5	1	1.464663	1.464663	0	1	0	0	CorrectCommission	0.947716	1.065410	0	0	5.045652e+01
340.287750	1.279390	city	6	1	1.302894	1.302894	0	1	0	0	CorrectCommission	0.275875	1.025048	0	0	4.982609e+01
341.580627	1.306399	city	2	1	1.524048	1.524048	0	1	0	0	CorrectCommission	1.194346	0.980080	0	0	4.919565e+01
342.873566	1.279468	mountain	7	0	0.000000	1.686412	1	0	0	0	CorrectOmission	1.868659	0.932176	0	0	4.856522e+01
344.153168	1.279711	city	6	1	1.671833	1.671833	0	1	0	0	CorrectCommission	1.808112	0.883171	0	0	4.793478e+01
345.432800	1.279557	city	1	1	1.362158	1.362158	0	1	0	0	CorrectCommission	0.522004	0.834946	0	0	4.730435e+01
346.719025	1.292931	city	4	1	1.313486	1.313486	0	1	0	0	CorrectCommission	0.319863	0.789425	0	0	4.667391e+01
348.025269	1.319564	city	7	1	1.229814	1.229814	0	1	0	0	CorrectCommission	0.027632	0.748435	0	0	4.604348e+01
349.344757	1.319387	city	8	1	1.392591	1.392591	0	1	0	0	CorrectCommission	0.648395	0.713680	1	0	4.541304e+01
350.644318	1.279745	city	3	1	1.475848	1.475848	0	1	0	0	CorrectCommission	0.994169	0.686665	1	0	4.478261e+01
351.937317	1.306258	city	6	1	1.161929	1.161929	0	1	0	0	CorrectCommission	0.309563	0.668624	1	0	4.415217e+01
353.230164	1.279401	city	5	1	1.236183	1.236183	0	1	0	0	CorrectCommission	0.001180	0.660475	1	0	4.352174e+01
354.522980	1.306230	city	8	1	1.168689	1.168689	0	1	0	0	CorrectCommission	0.281491	0.662817	1	0	4.289130e+01
355.815887	1.279580	city	6	1	0.819206	0.819206	0	1	0	0	CorrectCommission	1.732925	0.675852	1	0	4.226087e+01
357.102203	1.293065	city	8	1	1.143995	1.143995	0	1	0	0	CorrectCommission	0.384047	0.699325	1	0	4.163043e+01
357.748718	12.289135	break	0	0	0.000000	1.360174	0	0	0	0	ThoughtProbe	0.513766	0.732520	1	41	41
370.691010	1.306265	city	5	1	1.431531	1.431531	0	1	0	0	CorrectCommission	0.810117	0.774082	0	0	4.273529e+01
372.003967	1.319709	city	1	0	0.000000	1.321852	0	0	0	1	OmissionError	0.354609	0.821990	0	0	4.447059e+01
373.303619	1.279590	city	5	0	0.000000	1.202303	0	0	0	1	OmissionError	0.141888	0.873544	0	0	4.620588e+01
374.589844	1.292862	mountain	5	1	1.244052	1.244052	0	0	1	0	CommissionError	0.031498	0.925518	0	0	4.794118e+01
375.876099	1.279605	city	1	1	1.618265	1.618265	0	1	0	0	CorrectCommission	1.585638	0.974355	0	0	4.967647e+01
377.155670	1.279580	city	10	1	0.644281	0.644281	0	1	0	0	CorrectCommission	2.459403	1.016512	0	0	5.141176e+01
378.435181	1.279427	city	7	1	1.180839	1.180839	0	1	0	0	CorrectCommission	0.231030	1.048879	0	0	5.314706e+01
379.721436	1.293079	city	2	1	0.592616	0.592616	0	1	0	0	CorrectCommission	2.673971	1.069292	0	0	5.488235e+01
381.014435	1.292909	city	5	1	0.969628	0.969628	0	1	0	0	CorrectCommission	1.108210	1.076700	0	0	5.661765e+01
382.320587	1.319405	city	8	1	0.846779	0.846779	0	1	0	0	CorrectCommission	1.618410	1.071546	0	0	5.835294e+01
383.620087	1.279564	city	10	1	1.139456	1.139456	0	1	0	0	CorrectCommission	0.402896	1.055641	0	0	6.008824e+01
384.913055	1.306404	city	1	1	1.727711	1.727711	0	1	0	0	CorrectCommission	2.040179	1.032051	0	0	6.182353e+01
386.239410	1.346273	city	7	1	1.580923	1.580923	0	1	0	0	CorrectCommission	1.430554	1.004545	0	0	6.355882e+01
387.552277	1.279511	city	10	1	1.031802	1.031802	0	1	0	0	CorrectCommission	0.849995	0.977218	0	0	6.529412e+01
388.851776	1.319488	city	8	1	1.254708	1.254708	0	1	0	0	CorrectCommission	0.075754	0.953817	0	0	6.702941e+01
390.159607	1.296176	city	10	1	1.234064	1.234064	0	1	0	0	CorrectCommission	0.009982	0.937211	0	0	6.876471e+01
391.445892	1.276367	mountain	8	0	0.000000	1.332182	1	0	0	0	CorrectOmission	0.397511	0.929012	0	0	7.050000e+01
392.730560	1.292950	city	8	1	1.336319	1.336319	0	1	0	0	CorrectCommission	0.414691	0.929366	0	0	7.223529e+01
394.043396	1.332732	city	6	1	1.033731	1.033731	0	1	0	0	CorrectCommission	0.841982	0.937042	0	0	7.397059e+01
395.356293	1.293055	city	10	1	0.978610	0.978610	0	1	0	0	CorrectCommission	1.070906	0.949677	0	0	7.570588e+01
396.682556	1.359475	city	4	1	0.967782	0.967782	0	1	0	0	CorrectCommission	1.115875	0.964296	0	0	7.744118e+01
398.015381	1.306187	city	1	1	0.992806	0.992806	0	1	0	0	CorrectCommission	1.011949	0.977803	0	0	7.917647e+01
399.308350	1.279724	city	4	1	0.716881	0.716881	0	1	0	0	CorrectCommission	2.157891	0.987488	0	0	8.091176e+01
400.594574	1.292733	city	1	1	0.812278	0.812278	0	1	0	0	CorrectCommission	1.761697	0.991343	0	0	8.264706e+01
401.900726	1.319603	city	5	1	1.642347	1.642347	0	1	0	0	CorrectCommission	1.685653	0.988289	0	0	8.438235e+01
403.227051	1.333036	city	9	1	1.358526	1.358526	0	1	0	0	CorrectCommission	0.506922	0.978097	0	0	8.611765e+01
404.546692	1.306232	city	3	1	1.224587	1.224587	0	1	0	0	CorrectCommission	0.049339	0.961236	0	0	8.785294e+01
405.866241	1.332897	city	7	1	1.187149	1.187149	0	1	0	0	CorrectCommission	0.204823	0.938575	0	0	8.958824e+01
407.185760	1.306099	city	2	1	0.982861	0.982861	0	1	0	0	CorrectCommission	1.053252	0.911205	0	0	9.132353e+01
408.485321	1.293029	city	8	1	0.923744	0.923744	0	1	0	0	CorrectCommission	1.298767	0.880178	0	0	9.305882e+01
409.791534	1.319392	city	5	1	1.671283	1.671283	0	1	0	0	CorrectCommission	1.805830	0.846511	0	0	9.479412e+01
411.117737	1.333060	city	8	1	1.231699	1.231699	0	1	0	0	CorrectCommission	0.019806	0.811139	0	0	9.652941e+01
412.437408	1.306252	city	10	1	0.973637	0.973637	0	1	0	0	CorrectCommission	1.091559	0.775061	0	0	9.826471e+01
413.090546	8.023863	break	0	1	0.978817	0.978817	0	0	0	0	ThoughtProbe	1.070046	0.739252	1	100	100
421.754211	1.279618	city	1	1	1.349909	1.349909	0	1	0	0	CorrectCommission	0.471134	0.704781	1	0	9.882500e+01
423.033875	1.279711	city	4	1	1.489523	1.489523	0	1	0	0	CorrectCommission	1.050961	0.672762	1	0	9.765000e+01
424.333405	1.319385	city	6	1	1.177985	1.177985	0	1	0	0	CorrectCommission	0.242883	0.644211	1	0	9.647500e+01
425.639679	1.293120	mountain	3	0	0.000000	1.171191	1	0	0	0	CorrectOmission	0.271097	0.619943	1	0	9.530000e+01
426.926025	1.279615	city	5	1	1.287910	1.287910	0	1	0	0	CorrectCommission	0.213647	0.600392	1	0	9.412500e+01
428.232178	1.332649	city	6	1	1.346911	1.346911	0	1	0	0	CorrectCommission	0.458680	0.585576	1	0	9.295000e+01
429.565033	1.333104	city	7	1	1.209682	1.209682	0	1	0	0	CorrectCommission	0.111241	0.575062	1	0	9.177500e+01
430.884644	1.306117	city	8	1	1.034151	1.034151	0	1	0	0	CorrectCommission	0.840237	0.568086	1	0	9.060000e+01
432.204193	1.332971	city	9	1	1.063321	1.063321	0	1	0	0	CorrectCommission	0.719095	0.563672	1	0	8.942500e+01
433.523743	1.306105	mountain	6	1	0.994737	0.994737	0	0	1	0	CommissionError	1.003929	0.560880	1	0	8.825000e+01
434.816559	1.279554	city	1	1	1.343818	1.343818	0	1	0	0	CorrectCommission	0.445836	0.558991	1	0	8.707500e+01
436.129517	1.346374	city	3	1	1.388068	1.388068	0	1	0	0	CorrectCommission	0.629611	0.557693	1	0	8.590000e+01
437.462494	1.319568	city	4	1	1.395086	1.395086	0	1	0	0	CorrectCommission	0.658757	0.557097	1	0	8.472500e+01
438.762024	1.279498	city	5	1	1.342827	1.342827	0	1	0	0	CorrectCommission	0.441722	0.557786	1	0	8.355000e+01
440.061554	1.319556	city	6	1	1.440749	1.440749	0	1	0	0	CorrectCommission	0.848398	0.560661	1	0	8.237500e+01
441.361176	1.279695	city	1	1	1.300232	1.300232	0	1	0	0	CorrectCommission	0.264820	0.566754	1	0	8.120000e+01
442.647491	1.292906	city	4	1	1.352943	1.352943	0	1	0	0	CorrectCommission	0.483735	0.577002	1	0	8.002500e+01
443.980377	1.372858	city	10	1	1.174119	1.174119	0	1	0	0	CorrectCommission	0.258939	0.591996	1	0	7.885000e+01
445.319916	1.306213	city	6	1	1.340574	1.340574	0	1	0	0	CorrectCommission	0.432365	0.611817	1	0	7.767500e+01
446.666046	1.386078	city	9	1	1.233808	1.233808	0	1	0	0	CorrectCommission	0.011045	0.635936	1	0	7.650000e+01
447.998871	1.279572	city	7	1	1.087736	1.087736	0	1	0	0	CorrectCommission	0.617694	0.663196	1	0	7.532500e+01
449.278442	1.279584	city	8	1	0.975852	0.975852	0	1	0	0	CorrectCommission	1.082361	0.691888	1	0	7.415000e+01
450.591461	1.346406	city	2	1	0.982494	0.982494	0	1	0	0	CorrectCommission	1.054776	0.719960	1	0	7.297500e+01
451.917816	1.306337	city	4	1	1.373555	1.373555	0	1	0	0	CorrectCommission	0.569337	0.745221	1	0	7.180000e+01
453.230743	1.319486	city	9	1	1.488628	1.488628	0	1	0	0	CorrectCommission	1.047245	0.765620	0	0	7.062500e+01
454.556854	1.332764	city	2	1	1.475664	1.475664	0	1	0	0	CorrectCommission	0.993406	0.779445	0	0	6.945000e+01
455.876404	1.306326	city	4	1	1.515926	1.515926	0	1	0	0	CorrectCommission	1.160617	0.785553	0	0	6.827500e+01
457.182617	1.306104	mountain	7	0	0.000000	1.389327	1	0	0	0	CorrectOmission	0.634838	0.783473	0	0	6.710000e+01
458.488861	1.306368	city	8	1	1.148924	1.148924	0	1	0	0	CorrectCommission	0.363577	0.773513	0	0	6.592500e+01
459.795166	1.306258	city	2	1	0.847775	0.847775	0	1	0	0	CorrectCommission	1.614276	0.756721	0	0	6.475000e+01
461.127991	1.359376	city	7	1	1.638417	1.638417	0	1	0	0	CorrectCommission	1.669332	0.734786	1	0	6.357500e+01
462.460785	1.306249	city	10	1	1.251995	1.251995	0	1	0	0	CorrectCommission	0.064489	0.709904	1	0	6.240000e+01
463.753693	1.279569	city	4	1	1.391563	1.391563	0	1	0	0	CorrectCommission	0.644125	0.684587	1	0	6.122500e+01
465.079926	1.372895	city	8	1	1.249827	1.249827	0	1	0	0	CorrectCommission	0.055484	0.661288	1	0	6.005000e+01
466.419403	1.306055	city	7	1	1.035642	1.035642	0	1	0	0	CorrectCommission	0.834047	0.642213	1	0	5.887500e+01
467.712372	1.279888	city	8	1	1.348175	1.348175	0	1	0	0	CorrectCommission	0.463933	0.629017	1	0	5.770000e+01
469.025452	1.346256	city	7	1	1.294602	1.294602	0	1	0	0	CorrectCommission	0.241438	0.622621	1	0	5.652500e+01
470.351654	1.306148	city	3	1	1.122052	1.122052	0	1	0	0	CorrectCommission	0.475176	0.623129	1	0	5.535000e+01
471.657806	1.306144	city	6	1	1.196675	1.196675	0	1	0	0	CorrectCommission	0.165261	0.629823	1	0	5.417500e+01
472.310883	9.983392	break	0	0	0.000000	1.134907	0	0	0	0	ThoughtProbe	0.421790	0.641314	1	53	53
482.934082	1.279624	city	8	0	0.000000	1.029253	0	0	0	1	OmissionError	0.860582	0.655745	1	0	5.236957e+01
484.213684	1.279567	city	1	0	0.000000	0.972217	0	0	0	1	OmissionError	1.097455	0.671073	1	0	5.173913e+01
485.513214	1.319534	city	6	1	1.056305	1.056305	0	1	0	0	CorrectCommission	0.748229	0.685370	1	0	5.110870e+01
486.812866	1.279732	city	5	1	1.374022	1.374022	0	1	0	0	CorrectCommission	0.571278	0.697089	1	0	5.047826e+01
488.105835	1.306254	city	8	1	1.470642	1.470642	0	1	0	0	CorrectCommission	0.972550	0.705225	1	0	4.984783e+01
489.398682	1.279429	city	7	1	1.595947	1.595947	0	1	0	0	CorrectCommission	1.492950	0.709403	1	0	4.921739e+01
490.691620	1.306397	city	3	1	1.402495	1.402495	0	1	0	0	CorrectCommission	0.689527	0.709810	1	0	4.858696e+01
491.997925	1.306258	city	7	1	1.378514	1.378514	0	1	0	0	CorrectCommission	0.589932	0.707094	1	0	4.795652e+01
493.290833	1.279534	city	4	1	1.078354	1.078354	0	1	0	0	CorrectCommission	0.656661	0.702092	1	0	4.732609e+01
494.577026	1.292844	mountain	5	0	0.000000	1.079700	1	0	0	0	CorrectOmission	0.651071	0.695605	1	0	4.669565e+01
495.876587	1.306294	mountain	2	0	0.000000	1.220303	1	0	0	0	CorrectOmission	0.067134	0.688213	1	0	4.606522e+01
497.182861	1.306260	city	9	1	1.337914	1.337914	0	1	0	0	CorrectCommission	0.421317	0.680152	1	0	4.543478e+01
498.522369	1.372723	city	8	1	1.270285	1.270285	0	1	0	0	CorrectCommission	0.140448	0.671309	1	0	4.480435e+01
499.868561	1.319707	city	4	1	1.009879	1.009879	0	1	0	0	CorrectCommission	0.941044	0.661376	1	0	4.417391e+01
501.201447	1.346058	city	6	1	1.701675	1.701675	0	1	0	0	CorrectCommission	1.932048	0.649983	1	0	4.354348e+01
502.540955	1.332919	city	7	1	1.446767	1.446767	0	1	0	0	CorrectCommission	0.873392	0.636911	1	0	4.291304e+01
503.887177	1.359532	mountain	9	1	1.124427	1.124427	0	0	1	0	CommissionError	0.465315	0.622280	1	0	4.228261e+01
505.206757	1.279670	city	1	1	1.420572	1.420572	0	1	0	0	CorrectCommission	0.764603	0.606591	1	0	4.165217e+01
506.506409	1.319638	city	10	1	1.276460	1.276460	0	1	0	0	CorrectCommission	0.166094	0.590666	1	0	4.102174e+01
507.812622	1.292769	city	2	1	1.050399	1.050399	0	1	0	0	CorrectCommission	0.772759	0.575559	1	0	4.039130e+01
509.105438	1.292882	city	4	1	1.256089	1.256089	0	1	0	0	CorrectCommission	0.081491	0.562357	1	0	3.976087e+01
510.438416	1.373063	city	6	1	1.294047	1.294047	0	1	0	0	CorrectCommission	0.239131	0.552035	1	0	3.913043e+01
511.784729	1.319547	city	1	1	1.055583	1.055583	0	1	0	0	CorrectCommission	0.751231	0.545302	1	0	3.850000e+01
513.130981	1.372914	city	4	1	1.290520	1.290520	0	1	0	0	CorrectCommission	0.224485	0.542513	1	0	3.786957e+01
514.470459	1.306062	mountain	3	0	0.000000	1.381039	1	0	0	0	CorrectOmission	0.600418	0.543763	1	0	3.723913e+01
515.770020	1.293049	city	4	1	1.307355	1.307355	0	1	0	0	CorrectCommission	0.294401	0.548941	1	0	3.660870e+01
517.096313	1.359579	city	1	1	1.049683	1.049683	0	1	0	0	CorrectCommission	0.775735	0.557931	1	0	3.597826e+01
518.435791	1.319406	city	9	1	1.009633	1.009633	0	1	0	0	CorrectCommission	0.942065	0.570763	1	0	3.534783e+01
519.761963	1.332868	city	3	1	1.091410	1.091410	0	1	0	0	CorrectCommission	0.602436	0.587827	1	0	3.471739e+01
521.068176	1.279605	city	4	1	1.324545	1.324545	0	1	0	0	CorrectCommission	0.365796	0.610039	1	0	3.408696e+01
522.381165	1.346410	city	5	1	1.124188	1.124188	0	1	0	0	CorrectCommission	0.466307	0.638956	1	0	3.345652e+01
523.714172	1.319543	city	6	1	1.047207	1.047207	0	1	0	0	CorrectCommission	0.786015	0.676922	1	0	3.282609e+01
525.033691	1.319558	city	9	1	1.141716	1.141716	0	1	0	0	CorrectCommission	0.393512	0.727145	1	0	3.219565e+01
526.339966	1.292885	city	1	1	1.027610	1.027610	0	1	0	0	CorrectCommission	0.867403	0.793749	0	0	3.156522e+01
527.652832	1.332908	city	7	1	1.193930	1.193930	0	1	0	0	CorrectCommission	0.176660	0.881700	0	0	3.093478e+01
528.972412	1.306242	city	9	1	1.112655	1.112655	0	1	0	0	CorrectCommission	0.514204	0.996698	0	0	3.030435e+01
530.271973	1.292893	city	2	1	0.946218	0.946218	0	1	0	0	CorrectCommission	1.205433	1.144862	0	0	2.967391e+01
531.584900	1.332916	city	7	1	1.044710	1.044710	0	1	0	0	CorrectCommission	0.796386	1.332341	0	0	2.904348e+01
532.917786	1.332891	city	10	1	1.086817	1.086817	0	1	0	0	CorrectCommission	0.621513	1.564725	0	0	2.841304e+01
534.237366	1.306224	city	3	1	0.886208	0.886208	0	1	0	0	CorrectCommission	1.454659	1.846302	0	0	2.778261e+01
535.563538	1.346106	city	4	1	0.874576	0.874576	0	1	0	0	CorrectCommission	1.502967	2.179255	0	0	2.715217e+01
536.882996	1.292878	city	8	1	0.751085	0.751085	0	1	0	0	CorrectCommission	2.015838	2.562946	0	0	2.652174e+01
538.175964	1.293051	city	9	1	1.116793	1.116793	0	1	0	0	CorrectCommission	0.497018	2.993362	0	0	2.589130e+01
539.488892	1.332813	city	3	1	1.017416	1.017416	0	1	0	0	CorrectCommission	0.909741	3.462959	0	0	2.526087e+01
540.808472	1.306323	city	7	1	1.665527	1.665527	0	1	0	0	CorrectCommission	1.781923	3.960845	0	0	2.463043e+01
544.820618	6.717951	break	0	0	0.000000	2.313638	0	0	0	0	ThoughtProbe	4.473588	4.473588	0	24	24
