onset	duration	trial_type	image_type	Press	ReactionTime	ReactionTime_Interpolated	CorrectOmission	CorrectCommission	CommissionError	OmissionError	response_type	nonsmoothVarianceTimeCourse	VarianceTimeCourse	In_the_Zone	ThoughtProbe	ThoughtProbe_Interpolated
0.659670	1.292902	mountain	8	0	0.000000	1.521085	1	0	0	0	CorrectOmission	2.271996	2.271996	0	0	71
1.945842	1.279441	city	9	1	1.249640	1.249640	0	1	0	0	CorrectCommission	1.001708	2.016318	0	0	71
3.231994	1.292865	city	1	1	0.978194	0.978194	0	1	0	0	CorrectCommission	0.268579	1.768434	0	0	71
4.518311	1.279767	city	3	1	0.964259	0.964259	0	1	0	0	CorrectCommission	0.333793	1.535325	0	0	71
5.797925	1.279463	city	5	1	0.968168	0.968168	0	1	0	0	CorrectCommission	0.315496	1.322544	0	0	71
7.077492	1.279672	city	2	1	0.875438	0.875438	0	1	0	0	CorrectCommission	0.749451	1.133813	0	0	71
8.357045	1.279433	city	4	1	0.814407	0.814407	0	1	0	0	CorrectCommission	1.035058	0.970926	0	0	71
9.636621	1.279720	city	3	1	0.808155	0.808155	0	1	0	0	CorrectCommission	1.064313	0.833921	0	0	71
10.916283	1.279601	city	8	1	0.862889	0.862889	0	1	0	0	CorrectCommission	0.808173	0.721425	1	0	71
12.195866	1.279565	city	7	1	1.042603	1.042603	0	1	0	0	CorrectCommission	0.032837	0.631126	1	0	71
13.475437	1.279578	city	3	1	1.036031	1.036031	0	1	0	0	CorrectCommission	0.002079	0.560267	1	0	71
14.755022	1.279593	city	5	1	0.981446	0.981446	0	1	0	0	CorrectCommission	0.253362	0.506004	1	0	71
16.034527	1.279416	city	3	1	0.914026	0.914026	0	1	0	0	CorrectCommission	0.568868	0.465770	1	0	71
17.320780	1.293092	city	10	1	0.922549	0.922549	0	1	0	0	CorrectCommission	0.528984	0.437509	1	0	71
18.607031	1.279409	city	5	1	1.127147	1.127147	0	1	0	0	CorrectCommission	0.428476	0.419832	1	0	71
19.886541	1.279612	city	7	1	1.083868	1.083868	0	1	0	0	CorrectCommission	0.225947	0.412024	1	0	71
21.172857	1.293021	city	2	1	0.903035	0.903035	0	1	0	0	CorrectCommission	0.620300	0.413978	1	0	71
22.499062	1.359387	city	1	1	1.028355	1.028355	0	1	0	0	CorrectCommission	0.033842	0.426022	1	0	71
23.818632	1.279756	city	9	1	1.068124	1.068124	0	1	0	0	CorrectCommission	0.152266	0.448742	1	0	71
25.098253	1.279485	city	4	1	1.020738	1.020738	0	1	0	0	CorrectCommission	0.069484	0.482682	1	0	71
26.377762	1.279532	mountain	8	0	0.000000	1.161897	1	0	0	0	CorrectOmission	0.591100	0.528066	1	0	71
27.657375	1.279696	city	7	1	1.257225	1.257225	0	1	0	0	CorrectCommission	1.037208	0.584501	1	0	71
28.937023	1.279600	city	1	1	1.072346	1.072346	0	1	0	0	CorrectCommission	0.172025	0.650762	1	0	71
30.216537	1.279426	city	7	1	1.124429	1.124429	0	1	0	0	CorrectCommission	0.415761	0.724610	1	0	71
31.496056	1.279612	city	10	1	1.015536	1.015536	0	1	0	0	CorrectCommission	0.093829	0.802733	0	0	71
32.775707	1.279694	city	3	1	1.046553	1.046553	0	1	0	0	CorrectCommission	0.051323	0.880888	0	0	71
34.055271	1.279430	city	8	1	0.768170	0.768170	0	1	0	0	CorrectCommission	1.251431	0.954189	0	0	71
35.334774	1.279575	city	7	1	0.827068	0.827068	0	1	0	0	CorrectCommission	0.975804	1.017590	0	0	71
36.614441	1.279758	city	8	1	0.646433	0.646433	0	1	0	0	CorrectCommission	1.821126	1.066473	0	0	71
37.894089	1.279539	city	7	1	1.726846	1.726846	0	1	0	0	CorrectCommission	3.234900	1.097208	0	0	71
39.180229	1.292744	city	2	1	1.493284	1.493284	0	1	0	0	CorrectCommission	2.141895	1.107630	0	0	71
40.486385	1.319563	city	1	1	1.281012	1.281012	0	1	0	0	CorrectCommission	1.148524	1.097383	0	0	71
41.785973	1.279613	city	2	1	1.238279	1.238279	0	1	0	0	CorrectCommission	0.948546	1.067915	0	0	71
42.425777	8.184109	break	0	0	0.000000	1.261937	0	0	0	0	ThoughtProbe	1.059259	1.022245	0	71	71
51.249603	1.279432	mountain	9	0	0.000000	1.285976	1	0	0	0	CorrectOmission	1.171755	0.964556	0	0	7.105882e+01
52.535763	1.292887	city	7	1	1.244387	1.244387	0	1	0	0	CorrectCommission	0.977128	0.899680	0	0	7.111765e+01
53.822006	1.279602	city	1	1	1.071159	1.071159	0	1	0	0	CorrectCommission	0.166472	0.832512	0	0	7.117647e+01
55.108284	1.292951	city	9	1	1.155015	1.155015	0	1	0	0	CorrectCommission	0.558893	0.767514	0	0	7.123529e+01
56.394623	1.279725	city	2	1	1.123826	1.123826	0	1	0	0	CorrectCommission	0.412937	0.708302	1	0	7.129412e+01
57.680912	1.292855	city	7	1	1.093357	1.093357	0	1	0	0	CorrectCommission	0.270352	0.657468	1	0	7.135294e+01
58.967133	1.279584	city	5	1	0.991746	0.991746	0	1	0	0	CorrectCommission	0.205160	0.616480	1	0	7.141176e+01
60.266705	1.319565	city	1	1	0.762268	0.762268	0	1	0	0	CorrectCommission	1.279050	0.585796	1	0	7.147059e+01
61.566277	1.279579	city	7	1	1.026889	1.026889	0	1	0	0	CorrectCommission	0.040699	0.565042	1	0	7.152941e+01
62.845776	1.279417	city	8	1	1.121723	1.121723	0	1	0	0	CorrectCommission	0.403096	0.553335	1	0	7.158824e+01
64.125290	1.279603	mountain	3	0	0.000000	1.135354	1	0	0	0	CorrectOmission	0.466885	0.549557	1	0	7.164706e+01
65.404877	1.279577	city	9	1	1.027854	1.027854	0	1	0	0	CorrectCommission	0.036186	0.552662	1	0	7.170588e+01
66.684525	1.279721	city	5	1	0.759294	0.759294	0	1	0	0	CorrectCommission	1.292968	0.561904	1	0	7.176471e+01
67.964172	1.279577	city	3	1	0.964101	0.964101	0	1	0	0	CorrectCommission	0.334532	0.576953	1	0	7.182353e+01
69.270370	1.332810	city	2	1	0.837817	0.837817	0	1	0	0	CorrectCommission	0.925505	0.597963	1	0	7.188235e+01
70.589897	1.306250	city	10	1	0.866747	0.866747	0	1	0	0	CorrectCommission	0.790121	0.625420	1	0	7.194118e+01
71.882858	1.279676	city	3	1	1.079570	1.079570	0	1	0	0	CorrectCommission	0.205830	0.659982	1	0	72
73.162392	1.279388	city	7	1	0.932855	0.932855	0	1	0	0	CorrectCommission	0.480753	0.702174	1	0	7.205882e+01
74.441963	1.279758	city	9	1	0.925814	0.925814	0	1	0	0	CorrectCommission	0.513705	0.752066	0	0	7.211765e+01
75.721596	1.279495	city	4	1	0.972209	0.972209	0	1	0	0	CorrectCommission	0.296586	0.809004	0	0	7.217647e+01
77.007751	1.292825	city	8	1	0.795819	0.795819	0	1	0	0	CorrectCommission	1.122043	0.871398	0	0	7.223529e+01
78.300613	1.292901	city	5	1	0.939770	0.939770	0	1	0	0	CorrectCommission	0.448393	0.936624	0	0	7.229412e+01
79.606895	1.319660	city	3	1	1.000293	1.000293	0	1	0	0	CorrectCommission	0.165162	1.001181	0	0	7.235294e+01
80.913139	1.292822	city	8	1	0.793910	0.793910	0	1	0	0	CorrectCommission	1.130978	1.060955	0	0	7.241176e+01
82.199417	1.279741	city	10	1	0.611675	0.611675	0	1	0	0	CorrectCommission	1.983783	1.111667	0	0	7.247059e+01
83.485664	1.292751	city	5	1	0.676983	0.676983	0	1	0	0	CorrectCommission	1.678159	1.149371	0	0	7.252941e+01
84.771904	1.279725	city	1	1	0.594653	0.594653	0	1	0	0	CorrectCommission	2.063444	1.171014	0	0	7.258824e+01
86.051552	1.279579	city	8	1	0.553695	0.553695	0	1	0	0	CorrectCommission	2.255114	1.174878	0	0	7.264706e+01
87.331131	1.279570	city	7	1	0.767990	0.767990	0	1	0	0	CorrectCommission	1.252273	1.160899	0	0	7.270588e+01
88.610718	1.279611	city	4	1	0.804552	0.804552	0	1	0	0	CorrectCommission	1.081177	1.130742	0	0	7.276471e+01
89.890305	1.279565	city	8	1	0.726975	0.726975	0	1	0	0	CorrectCommission	1.444214	1.087690	0	0	7.282353e+01
91.176468	1.292752	city	5	1	0.882365	0.882365	0	1	0	0	CorrectCommission	0.717033	1.036290	0	0	7.288235e+01
92.462700	1.279719	city	7	1	0.764461	0.764461	0	1	0	0	CorrectCommission	1.268789	0.981906	0	0	7.294118e+01
93.102562	9.023706	break	0	1	0.816172	0.816172	0	0	0	0	ThoughtProbe	1.026798	0.930080	0	73	73
102.766068	1.279602	mountain	7	0	0.000000	0.965521	1	0	0	0	CorrectOmission	0.327884	0.885894	0	0	73
104.045654	1.279565	mountain	5	0	0.000000	1.115598	1	0	0	0	CorrectOmission	0.374431	0.853402	0	0	73
105.345177	1.319489	city	8	1	1.169489	1.169489	0	1	0	0	CorrectCommission	0.626626	0.835079	0	0	73
106.644691	1.279540	city	3	1	1.030282	1.030282	0	1	0	0	CorrectCommission	0.024821	0.831495	0	0	73
107.930969	1.293019	city	2	1	1.036244	1.036244	0	1	0	0	CorrectCommission	0.003080	0.841262	0	0	73
109.217262	1.279569	city	5	1	0.969302	0.969302	0	1	0	0	CorrectCommission	0.310191	0.861171	0	0	73
110.496780	1.279459	city	4	1	1.186956	1.186956	0	1	0	0	CorrectCommission	0.708366	0.886636	0	0	73
111.776352	1.279692	city	1	1	0.913935	0.913935	0	1	0	0	CorrectCommission	0.569291	0.912376	0	0	73
113.056007	1.279620	city	8	1	0.707623	0.707623	0	1	0	0	CorrectCommission	1.534774	0.933199	0	0	73
114.335526	1.279404	city	1	1	1.715048	1.715048	0	1	0	0	CorrectCommission	3.179686	0.944763	0	0	73
115.615013	1.279569	city	6	0	0.000000	1.503066	0	0	0	1	OmissionError	2.187674	0.944238	0	0	73
116.894684	1.279778	city	7	1	0.919444	0.919444	0	1	0	0	CorrectCommission	0.543513	0.930701	0	0	73
118.180946	1.292753	city	6	1	0.811945	0.811945	0	1	0	0	CorrectCommission	1.046577	0.905183	0	0	73
119.467178	1.279705	city	8	1	0.756740	0.756740	0	1	0	0	CorrectCommission	1.304921	0.870331	0	0	73
120.753403	1.292741	mountain	7	0	0.000000	0.918249	1	0	0	0	CorrectOmission	0.549104	0.829939	0	0	73
122.039566	1.279596	city	8	1	1.080517	1.080517	0	1	0	0	CorrectCommission	0.210262	0.788241	0	0	73
123.319229	1.279716	city	6	1	1.027587	1.027587	0	1	0	0	CorrectCommission	0.037434	0.749216	0	0	73
124.598877	1.279579	city	7	1	0.966328	0.966328	0	1	0	0	CorrectCommission	0.324109	0.715983	1	0	73
125.878471	1.279609	city	9	1	0.916310	0.916310	0	1	0	0	CorrectCommission	0.558180	0.690379	1	0	73
127.184708	1.332863	city	5	1	0.986768	0.986768	0	1	0	0	CorrectCommission	0.228455	0.672842	1	0	73
128.490845	1.279419	city	10	1	0.920663	0.920663	0	1	0	0	CorrectCommission	0.537809	0.662503	1	0	73
129.770416	1.279729	city	6	1	1.242818	1.242818	0	1	0	0	CorrectCommission	0.969786	0.657479	1	0	73
131.056747	1.292923	city	7	1	0.972512	0.972512	0	1	0	0	CorrectCommission	0.295170	0.655345	1	0	73
132.342941	1.279458	mountain	9	0	0.000000	0.820482	1	0	0	0	CorrectOmission	1.006628	0.653627	1	0	73
133.622513	1.279701	city	3	1	0.761043	0.761043	0	1	0	0	CorrectCommission	1.284783	0.650206	1	0	73
134.908752	1.292759	city	10	1	0.768513	0.768513	0	1	0	0	CorrectCommission	1.249825	0.643720	1	0	73
136.208328	1.306400	city	6	1	0.886974	0.886974	0	1	0	0	CorrectCommission	0.695462	0.633690	1	0	73
137.507965	1.292892	city	1	1	0.892307	0.892307	0	1	0	0	CorrectCommission	0.670505	0.620631	1	0	73
138.807541	1.306238	city	7	1	1.022716	1.022716	0	1	0	0	CorrectCommission	0.060229	0.605809	1	0	73
140.100449	1.279575	city	8	1	0.871339	0.871339	0	1	0	0	CorrectCommission	0.768629	0.591101	1	0	73
141.386688	1.292904	city	7	1	1.030895	1.030895	0	1	0	0	CorrectCommission	0.021952	0.578672	1	0	73
142.672928	1.279581	city	8	1	0.866528	0.866528	0	1	0	0	CorrectCommission	0.791142	0.570755	1	0	73
143.952438	1.279447	city	10	1	1.030060	1.030060	0	1	0	0	CorrectCommission	0.025861	0.569399	1	0	73
145.238602	1.292879	city	3	1	1.212040	1.212040	0	1	0	0	CorrectCommission	0.825752	0.576362	1	0	73
146.524979	1.279888	city	4	1	1.074367	1.074367	0	1	0	0	CorrectCommission	0.181485	0.592884	1	0	73
147.824646	1.319419	city	2	1	0.901837	0.901837	0	1	0	0	CorrectCommission	0.625907	0.619649	1	0	73
149.137466	1.306236	city	1	1	0.854757	0.854757	0	1	0	0	CorrectCommission	0.846227	0.656638	1	0	73
150.430298	1.279433	city	8	1	0.916466	0.916466	0	1	0	0	CorrectCommission	0.557447	0.703061	1	0	73
151.709824	1.279612	city	9	1	1.085156	1.085156	0	1	0	0	CorrectCommission	0.231974	0.757298	0	0	73
152.989395	1.279531	city	5	1	0.964966	0.964966	0	1	0	0	CorrectCommission	0.330482	0.816847	0	0	73
154.269028	1.279745	city	3	1	0.925113	0.925113	0	1	0	0	CorrectCommission	0.516985	0.878407	0	0	73
155.561981	1.306163	city	5	1	0.783979	0.783979	0	1	0	0	CorrectCommission	1.177452	0.938058	0	0	73
156.854904	1.279672	city	6	1	0.806561	0.806561	0	1	0	0	CorrectCommission	1.071771	0.991561	0	0	73
158.141205	1.292936	city	3	1	0.765046	0.765046	0	1	0	0	CorrectCommission	1.266050	1.034782	0	0	73
159.427353	1.279364	city	5	1	0.652566	0.652566	0	1	0	0	CorrectCommission	1.792423	1.064164	0	0	73
160.067047	8.290797	break	0	1	1.122290	1.122290	0	0	0	0	ThoughtProbe	0.405751	1.077169	0	73	73
168.997543	1.279424	city	3	1	1.820022	1.820022	0	1	0	0	CorrectCommission	3.670936	1.072705	0	0	7.270000e+01
170.277115	1.279709	city	5	1	1.391505	1.391505	0	1	0	0	CorrectCommission	1.665596	1.051182	0	0	7.240000e+01
171.563385	1.292832	mountain	3	0	0.000000	1.261440	1	0	0	0	CorrectOmission	1.056930	1.014709	0	0	7.210000e+01
172.849640	1.279667	city	6	1	1.180263	1.180263	0	1	0	0	CorrectCommission	0.677046	0.966700	0	0	7.180000e+01
174.142502	1.306069	mountain	4	1	0.898410	0.898410	0	0	1	0	CommissionError	0.641947	0.911496	0	0	7.150000e+01
175.448654	1.306227	city	10	1	1.161764	1.161764	0	1	0	0	CorrectCommission	0.590476	0.853781	0	0	7.120000e+01
176.741638	1.279755	city	7	1	1.140854	1.140854	0	1	0	0	CorrectCommission	0.492621	0.798067	0	0	7.090000e+01
178.021240	1.279423	city	10	1	0.980572	0.980572	0	1	0	0	CorrectCommission	0.257453	0.748143	0	0	7.060000e+01
179.300720	1.279546	city	4	1	1.141995	1.141995	0	1	0	0	CorrectCommission	0.497962	0.706736	1	0	7.030000e+01
180.580383	1.279788	city	5	1	1.131771	1.131771	0	1	0	0	CorrectCommission	0.450117	0.675308	1	0	70
181.860046	1.279539	city	9	1	1.084161	1.084161	0	1	0	0	CorrectCommission	0.227317	0.654093	1	0	6.970000e+01
183.146286	1.292929	city	5	1	0.838117	0.838117	0	1	0	0	CorrectCommission	0.924101	0.642251	1	0	6.940000e+01
184.452515	1.319551	city	10	1	1.011990	1.011990	0	1	0	0	CorrectCommission	0.110424	0.638159	1	0	6.910000e+01
185.752090	1.279598	city	2	1	0.889699	0.889699	0	1	0	0	CorrectCommission	0.682712	0.639834	1	0	6.880000e+01
187.038345	1.292900	city	9	1	0.873621	0.873621	0	1	0	0	CorrectCommission	0.757950	0.645277	1	0	6.850000e+01
188.324585	1.279572	city	8	1	0.822659	0.822659	0	1	0	0	CorrectCommission	0.996438	0.652795	1	0	6.820000e+01
189.604156	1.279576	city	9	1	1.287149	1.287149	0	1	0	0	CorrectCommission	1.177244	0.661219	1	0	6.790000e+01
190.890396	1.292897	city	1	1	1.177350	1.177350	0	1	0	0	CorrectCommission	0.663412	0.669963	1	0	6.760000e+01
192.176559	1.279424	city	6	1	1.199091	1.199091	0	1	0	0	CorrectCommission	0.765155	0.678978	1	0	6.730000e+01
193.469391	1.306246	city	7	1	1.188949	1.188949	0	1	0	0	CorrectCommission	0.717694	0.688553	1	0	67
194.762375	1.279735	city	8	1	1.082655	1.082655	0	1	0	0	CorrectCommission	0.220267	0.699022	1	0	6.670000e+01
196.055283	1.306073	mountain	9	1	0.947490	0.947490	0	0	1	0	CommissionError	0.412266	0.710594	1	0	6.640000e+01
197.348206	1.279769	city	10	1	1.134781	1.134781	0	1	0	0	CorrectCommission	0.464203	0.723002	1	0	6.610000e+01
198.634537	1.292904	city	5	1	0.918168	0.918168	0	1	0	0	CorrectCommission	0.549484	0.735538	1	0	6.580000e+01
199.927429	1.292885	city	8	1	0.944912	0.944912	0	1	0	0	CorrectCommission	0.424330	0.747057	0	0	6.550000e+01
201.233658	1.319570	city	10	1	0.732420	0.732420	0	1	0	0	CorrectCommission	1.418730	0.756145	0	0	6.520000e+01
202.559860	1.332821	city	5	1	0.801836	0.801836	0	1	0	0	CorrectCommission	1.093883	0.761328	0	0	6.490000e+01
203.872681	1.292821	city	9	1	0.891150	0.891150	0	1	0	0	CorrectCommission	0.675919	0.761401	0	0	6.460000e+01
205.192215	1.346251	city	7	1	0.761654	0.761654	0	1	0	0	CorrectCommission	1.281927	0.755637	0	0	6.430000e+01
206.511856	1.293043	city	4	1	0.711422	0.711422	0	1	0	0	CorrectCommission	1.516997	0.743915	0	0	64
207.824753	1.332727	city	5	1	0.878043	0.878043	0	1	0	0	CorrectCommission	0.737257	0.726763	1	0	6.370000e+01
209.137558	1.292910	city	3	1	1.096163	1.096163	0	1	0	0	CorrectCommission	0.283481	0.705271	1	0	6.340000e+01
210.430481	1.292933	city	1	1	0.993851	0.993851	0	1	0	0	CorrectCommission	0.195307	0.680887	1	0	6.310000e+01
211.736801	1.319704	city	6	1	1.243486	1.243486	0	1	0	0	CorrectCommission	0.972912	0.655158	1	0	6.280000e+01
213.036407	1.279508	city	2	1	1.140351	1.140351	0	1	0	0	CorrectCommission	0.490270	0.629510	1	0	6.250000e+01
214.322632	1.292946	city	5	1	0.925250	0.925250	0	1	0	0	CorrectCommission	0.516344	0.605094	1	0	6.220000e+01
215.615601	1.292984	city	7	1	0.995288	0.995288	0	1	0	0	CorrectCommission	0.188585	0.582646	1	0	6.190000e+01
216.901871	1.279549	city	9	1	0.976592	0.976592	0	1	0	0	CorrectCommission	0.276076	0.562480	1	0	6.160000e+01
218.188034	1.292776	city	3	1	1.295436	1.295436	0	1	0	0	CorrectCommission	1.216021	0.544577	1	0	6.130000e+01
222.706543	7.744239	break	0	1	1.109882	1.109882	0	0	0	0	ThoughtProbe	0.347681	0.528690	1	61	61
227.218414	1.279512	city	3	1	1.257613	1.257613	0	1	0	0	CorrectCommission	1.039022	0.514557	1	0	6.129412e+01
228.524658	1.332973	city	9	1	1.045579	1.045579	0	1	0	0	CorrectCommission	0.046764	0.501967	1	0	6.158824e+01
229.830933	1.279564	city	3	1	1.031681	1.031681	0	1	0	0	CorrectCommission	0.018274	0.490954	1	0	6.188235e+01
231.110504	1.279578	city	2	1	0.870029	0.870029	0	1	0	0	CorrectCommission	0.774760	0.481834	1	0	6.217647e+01
232.403336	1.306092	city	3	1	0.835683	0.835683	0	1	0	0	CorrectCommission	0.935489	0.475192	1	0	6.247059e+01
233.709518	1.306283	city	7	1	1.123800	1.123800	0	1	0	0	CorrectCommission	0.412815	0.471860	1	0	6.276471e+01
235.002472	1.279612	city	1	1	0.975526	0.975526	0	1	0	0	CorrectCommission	0.281067	0.472838	1	0	6.305882e+01
236.295380	1.306214	city	7	1	0.982074	0.982074	0	1	0	0	CorrectCommission	0.250424	0.479146	1	0	6.335294e+01
237.588333	1.279694	mountain	9	0	0.000000	0.958460	1	0	0	0	CorrectOmission	0.360931	0.491625	1	0	6.364706e+01
238.881302	1.306233	city	4	1	0.976040	0.976040	0	1	0	0	CorrectCommission	0.278661	0.510832	1	0	6.394118e+01
240.187454	1.306061	city	1	1	1.106170	1.106170	0	1	0	0	CorrectCommission	0.330314	0.536913	1	0	6.423529e+01
241.487015	1.293065	city	8	1	1.097929	1.097929	0	1	0	0	CorrectCommission	0.291746	0.569520	1	0	6.452941e+01
242.786606	1.306141	city	3	1	0.942291	0.942291	0	1	0	0	CorrectCommission	0.436594	0.607807	1	0	6.482353e+01
244.079529	1.279701	city	2	1	0.927269	0.927269	0	1	0	0	CorrectCommission	0.506894	0.650490	1	0	6.511765e+01
245.365738	1.292721	city	10	1	0.762860	0.762860	0	1	0	0	CorrectCommission	1.276280	0.695906	1	0	6.541176e+01
246.651917	1.279626	city	6	1	1.246613	1.246613	0	1	0	0	CorrectCommission	0.987546	0.742114	0	0	6.570588e+01
247.938202	1.292936	city	4	1	1.048947	1.048947	0	1	0	0	CorrectCommission	0.062526	0.787109	0	0	66
249.224457	1.279581	city	8	1	0.820504	0.820504	0	1	0	0	CorrectCommission	1.006526	0.828897	0	0	6.629412e+01
250.504074	1.279660	city	2	1	0.818802	0.818802	0	1	0	0	CorrectCommission	1.014489	0.865604	0	0	6.658824e+01
251.810379	1.332939	mountain	7	1	0.700558	0.700558	0	0	1	0	CommissionError	1.567836	0.895637	0	0	6.688235e+01
253.116592	1.279473	city	9	1	0.824525	0.824525	0	1	0	0	CorrectCommission	0.987708	0.917726	0	0	6.717647e+01
254.409485	1.306316	city	4	1	0.947591	0.947591	0	1	0	0	CorrectCommission	0.411792	0.931069	0	0	6.747059e+01
255.709091	1.292905	city	1	1	0.659604	0.659604	0	1	0	0	CorrectCommission	1.759488	0.935306	0	0	6.776471e+01
257.001923	1.292761	city	7	1	1.298267	1.298267	0	1	0	0	CorrectCommission	1.229273	0.930531	0	0	6.805882e+01
258.294830	1.293057	city	3	1	1.102965	1.102965	0	1	0	0	CorrectCommission	0.315314	0.917348	0	0	6.835294e+01
259.587769	1.292825	city	1	1	1.190757	1.190757	0	1	0	0	CorrectCommission	0.726154	0.896791	0	0	6.864706e+01
260.880615	1.292884	city	10	1	1.628120	1.628120	0	1	0	0	CorrectCommission	2.772889	0.870229	0	0	6.894118e+01
262.173492	1.292837	city	2	1	0.940766	0.940766	0	1	0	0	CorrectCommission	0.443733	0.839239	0	0	6.923529e+01
263.466431	1.293066	city	6	1	1.035926	1.035926	0	1	0	0	CorrectCommission	0.001588	0.805590	0	0	6.952941e+01
264.752686	1.279421	city	5	1	0.922963	0.922963	0	1	0	0	CorrectCommission	0.527043	0.770969	0	0	6.982353e+01
266.032257	1.279739	city	6	1	1.193730	1.193730	0	1	0	0	CorrectCommission	0.740068	0.736861	0	0	7.011765e+01
267.338593	1.332919	city	9	1	0.955358	0.955358	0	1	0	0	CorrectCommission	0.375445	0.704462	1	0	7.041176e+01
268.644745	1.279394	city	10	1	0.751712	0.751712	0	1	0	0	CorrectCommission	1.328450	0.674595	1	0	7.070588e+01
272.310150	6.051392	break	0	0	0.000000	0.906309	0	0	0	0	ThoughtProbe	0.604983	0.647646	1	71	71
275.989014	1.306348	city	3	1	1.036126	1.036126	0	1	0	0	CorrectCommission	0.002524	0.623612	1	0	7.082500e+01
277.281891	1.279410	city	10	1	0.758142	0.758142	0	1	0	0	CorrectCommission	1.298359	0.602113	1	0	7.065000e+01
278.561401	1.279603	city	3	1	1.087309	1.087309	0	1	0	0	CorrectCommission	0.242046	0.582433	1	0	7.047500e+01
279.840973	1.279559	city	4	1	1.054686	1.054686	0	1	0	0	CorrectCommission	0.089382	0.563714	1	0	7.030000e+01
281.127258	1.292995	city	3	1	0.991483	0.991483	0	1	0	0	CorrectCommission	0.206389	0.545071	1	0	7.012500e+01
282.420258	1.292989	mountain	8	0	0.000000	1.159236	1	0	0	0	CorrectOmission	0.578645	0.525719	1	0	6.995000e+01
283.746429	1.359384	city	6	1	1.326944	1.326944	0	1	0	0	CorrectCommission	1.363473	0.505186	1	0	6.977500e+01
285.066010	1.279744	mountain	5	0	0.000000	1.263610	1	0	0	0	CorrectOmission	1.067086	0.483423	1	0	6.960000e+01
286.358917	1.306101	city	1	1	1.103228	1.103228	0	1	0	0	CorrectCommission	0.316542	0.460922	1	0	6.942500e+01
287.651825	1.279712	city	5	1	0.979792	0.979792	0	1	0	0	CorrectCommission	0.261103	0.438733	1	0	6.925000e+01
288.951477	1.319572	city	4	1	0.996990	0.996990	0	1	0	0	CorrectCommission	0.180618	0.418265	1	0	6.907500e+01
290.264343	1.306160	city	10	1	0.885051	0.885051	0	1	0	0	CorrectCommission	0.704460	0.401173	1	0	6.890000e+01
291.570526	1.306236	city	1	1	1.043210	1.043210	0	1	0	0	CorrectCommission	0.035677	0.389108	1	0	6.872500e+01
292.870117	1.292949	city	4	1	1.045460	1.045460	0	1	0	0	CorrectCommission	0.046206	0.383494	1	0	6.855000e+01
294.163025	1.292853	city	10	1	1.034896	1.034896	0	1	0	0	CorrectCommission	0.003232	0.385283	1	0	6.837500e+01
295.469238	1.319586	city	1	1	0.999144	0.999144	0	1	0	0	CorrectCommission	0.170537	0.394821	1	0	6.820000e+01
296.782196	1.306306	city	4	1	0.991113	0.991113	0	1	0	0	CorrectCommission	0.208123	0.411826	1	0	6.802500e+01
298.081787	1.292907	city	8	1	0.981330	0.981330	0	1	0	0	CorrectCommission	0.253903	0.435409	1	0	6.785000e+01
299.381317	1.306131	city	4	1	1.223307	1.223307	0	1	0	0	CorrectCommission	0.878479	0.464204	1	0	6.767500e+01
300.680817	1.292853	city	5	1	1.149865	1.149865	0	1	0	0	CorrectCommission	0.534790	0.496569	1	0	6.750000e+01
301.973663	1.292853	city	4	1	1.098536	1.098536	0	1	0	0	CorrectCommission	0.294589	0.530794	1	0	6.732500e+01
303.266663	1.293142	city	6	1	0.882053	0.882053	0	1	0	0	CorrectCommission	0.718492	0.565328	1	0	6.715000e+01
304.579681	1.332882	city	2	1	0.938745	0.938745	0	1	0	0	CorrectCommission	0.453191	0.598960	1	0	6.697500e+01
305.885895	1.279595	city	1	1	0.765415	0.765415	0	1	0	0	CorrectCommission	1.264325	0.630884	1	0	6.680000e+01
307.192169	1.332895	city	7	1	1.124707	1.124707	0	1	0	0	CorrectCommission	0.417058	0.660760	1	0	6.662500e+01
308.505066	1.292914	city	9	1	0.825345	0.825345	0	1	0	0	CorrectCommission	0.983868	0.688685	1	0	6.645000e+01
309.797913	1.292815	mountain	6	0	0.000000	0.911282	1	0	0	0	CorrectOmission	0.581709	0.715009	1	0	6.627500e+01
311.104156	1.319629	city	5	1	1.163557	1.163557	0	1	0	0	CorrectCommission	0.598867	0.740207	0	0	6.610000e+01
312.403748	1.279568	city	4	1	1.363211	1.363211	0	1	0	0	CorrectCommission	1.533189	0.764642	0	0	6.592500e+01
313.689911	1.292787	city	5	1	1.093592	1.093592	0	1	0	0	CorrectCommission	0.271449	0.788360	0	0	6.575000e+01
314.982849	1.293049	city	1	1	0.973208	0.973208	0	1	0	0	CorrectCommission	0.291914	0.811035	0	0	6.557500e+01
316.282471	1.306235	city	2	1	1.096437	1.096437	0	1	0	0	CorrectCommission	0.284764	0.831886	0	0	6.540000e+01
317.582062	1.292906	city	5	1	1.097530	1.097530	0	1	0	0	CorrectCommission	0.289877	0.849742	0	0	6.522500e+01
318.868317	1.279601	city	3	1	1.634442	1.634442	0	1	0	0	CorrectCommission	2.802473	0.863268	0	0	6.505000e+01
320.174469	1.332758	city	5	1	0.976181	0.976181	0	1	0	0	CorrectCommission	0.278000	0.871188	0	0	6.487500e+01
321.480713	1.279717	city	1	1	0.805388	0.805388	0	1	0	0	CorrectCommission	1.077262	0.872701	0	0	6.470000e+01
322.766937	1.292741	city	10	1	0.712107	0.712107	0	1	0	0	CorrectCommission	1.513791	0.867548	0	0	6.452500e+01
324.053131	1.279612	city	8	1	0.767599	0.767599	0	1	0	0	CorrectCommission	1.254103	0.856220	0	0	6.435000e+01
325.339355	1.292871	city	6	1	0.792481	0.792481	0	1	0	0	CorrectCommission	1.137664	0.839939	0	0	6.417500e+01
325.985809	8.757121	break	0	1	1.124305	1.124305	0	0	0	0	ThoughtProbe	0.415181	0.820471	0	64	64
335.389435	1.293046	city	9	1	1.109251	1.109251	0	1	0	0	CorrectCommission	0.344728	0.799854	0	0	6.458696e+01
336.689087	1.306254	city	5	1	0.754324	0.754324	0	1	0	0	CorrectCommission	1.316228	0.780028	0	0	6.517391e+01
337.988708	1.292939	city	6	1	1.096370	1.096370	0	1	0	0	CorrectCommission	0.284452	0.762479	0	0	6.576087e+01
339.281616	1.292883	city	4	1	1.129450	1.129450	0	1	0	0	CorrectCommission	0.439256	0.748009	0	0	6.634783e+01
340.567749	1.279426	city	5	1	1.087793	1.087793	0	1	0	0	CorrectCommission	0.244312	0.736561	0	0	6.693478e+01
341.867340	1.319722	city	9	1	1.040544	1.040544	0	1	0	0	CorrectCommission	0.023200	0.727246	1	0	6.752174e+01
343.173645	1.292879	city	3	1	0.872715	0.872715	0	1	0	0	CorrectCommission	0.762190	0.718574	1	0	6.810870e+01
344.466553	1.292933	city	7	1	0.727070	0.727070	0	1	0	0	CorrectCommission	1.443768	0.708733	1	0	6.869565e+01
345.759460	1.292897	city	5	1	0.781079	0.781079	0	1	0	0	CorrectCommission	1.191020	0.696029	1	0	6.928261e+01
347.045654	1.279496	mountain	2	0	0.000000	1.211600	1	0	0	0	CorrectOmission	0.823693	0.679278	1	0	6.986957e+01
348.325226	1.279680	city	7	1	1.465756	1.465756	0	1	0	0	CorrectCommission	2.013074	0.658036	1	0	7.045652e+01
349.624878	1.319595	city	3	1	0.990674	0.990674	0	1	0	0	CorrectCommission	0.210174	0.632724	1	0	7.104348e+01
350.937714	1.306099	city	6	1	1.061800	1.061800	0	1	0	0	CorrectCommission	0.122675	0.604644	1	0	7.163043e+01
352.230621	1.279689	city	8	1	0.927407	0.927407	0	1	0	0	CorrectCommission	0.506248	0.575647	1	0	7.221739e+01
353.516907	1.292860	city	4	1	0.925269	0.925269	0	1	0	0	CorrectCommission	0.516252	0.547884	1	0	7.280435e+01
354.829803	1.332943	mountain	3	0	0.000000	1.014094	1	0	0	0	CorrectOmission	0.100576	0.523386	1	0	7.339130e+01
356.136047	1.279578	mountain	1	0	0.000000	1.111196	1	0	0	0	CorrectOmission	0.353834	0.503824	1	0	7.397826e+01
357.415527	1.279391	city	8	1	1.133890	1.133890	0	1	0	0	CorrectCommission	0.460032	0.490218	1	0	7.456522e+01
358.708313	1.306164	city	7	1	0.999488	0.999488	0	1	0	0	CorrectCommission	0.168928	0.482857	1	0	7.515217e+01
360.034607	1.346394	city	4	1	0.959097	0.959097	0	1	0	0	CorrectCommission	0.357947	0.481340	1	0	7.573913e+01
361.347626	1.279646	city	7	1	0.968211	0.968211	0	1	0	0	CorrectCommission	0.315297	0.484712	1	0	7.632609e+01
362.647217	1.319570	city	10	1	0.956933	0.956933	0	1	0	0	CorrectCommission	0.368074	0.491705	1	0	7.691304e+01
363.946747	1.279465	city	8	1	1.146588	1.146588	0	1	0	0	CorrectCommission	0.519455	0.501048	1	0	7.750000e+01
365.232910	1.292855	city	6	1	1.237311	1.237311	0	1	0	0	CorrectCommission	0.944015	0.511730	1	0	7.808696e+01
366.525818	1.292986	city	9	1	1.254069	1.254069	0	1	0	0	CorrectCommission	1.022438	0.523247	1	0	7.867391e+01
367.812103	1.279582	mountain	7	0	0.000000	1.196387	1	0	0	0	CorrectOmission	0.752501	0.535714	1	0	7.926087e+01
369.098328	1.292829	city	1	1	1.125371	1.125371	0	1	0	0	CorrectCommission	0.420166	0.549861	1	0	7.984783e+01
370.404602	1.319734	city	3	1	1.102128	1.102128	0	1	0	0	CorrectCommission	0.311398	0.566899	1	0	8.043478e+01
371.710907	1.292900	city	10	1	1.154953	1.154953	0	1	0	0	CorrectCommission	0.558601	0.588247	1	0	8.102174e+01
372.997162	1.279602	city	5	1	1.032027	1.032027	0	1	0	0	CorrectCommission	0.016656	0.615224	1	0	8.160870e+01
374.276733	1.279557	city	1	1	1.097678	1.097678	0	1	0	0	CorrectCommission	0.290571	0.648767	1	0	8.219565e+01
375.569641	1.306251	city	4	1	1.219950	1.219950	0	1	0	0	CorrectCommission	0.862771	0.689125	1	0	8.278261e+01
376.882538	1.319553	city	8	1	0.997583	0.997583	0	1	0	0	CorrectCommission	0.177847	0.735666	0	0	8.336957e+01
378.182037	1.279443	city	10	1	0.765034	0.765034	0	1	0	0	CorrectCommission	1.266108	0.786917	0	0	8.395652e+01
379.461578	1.279636	city	1	1	0.823271	0.823271	0	1	0	0	CorrectCommission	0.993576	0.840561	0	0	8.454348e+01
380.761139	1.319487	city	8	1	1.027608	1.027608	0	1	0	0	CorrectCommission	0.037337	0.893706	0	0	8.513043e+01
382.067352	1.292930	city	2	1	1.154758	1.154758	0	1	0	0	CorrectCommission	0.557689	0.943217	0	0	8.571739e+01
383.353607	1.279550	city	3	1	1.297449	1.297449	0	1	0	0	CorrectCommission	1.225442	0.986072	0	0	8.630435e+01
384.639832	1.292910	city	2	1	1.458253	1.458253	0	1	0	0	CorrectCommission	1.977959	1.019783	0	0	8.689130e+01
385.932739	1.292948	city	4	1	1.501569	1.501569	0	1	0	0	CorrectCommission	2.180665	1.042726	0	0	8.747826e+01
387.232361	1.306236	city	7	1	1.272375	1.272375	0	1	0	0	CorrectCommission	1.108105	1.054382	0	0	8.806522e+01
388.531921	1.292894	city	4	1	1.330118	1.330118	0	1	0	0	CorrectCommission	1.378326	1.055326	0	0	8.865217e+01
389.818237	1.279742	city	2	1	1.409886	1.409886	0	1	0	0	CorrectCommission	1.751615	1.047033	0	0	8.923913e+01
391.117859	1.319537	city	8	1	1.262446	1.262446	0	1	0	0	CorrectCommission	1.061640	1.031566	0	0	8.982609e+01
392.417358	1.279421	city	6	1	1.131847	1.131847	0	1	0	0	CorrectCommission	0.450471	1.011136	0	0	9.041304e+01
396.549255	6.984375	break	0	0	0.000000	1.034758	0	0	0	0	ThoughtProbe	0.003875	0.987673	0	91	91
400.681213	1.279568	city	8	1	0.966989	0.966989	0	1	0	0	CorrectCommission	0.321015	0.962507	0	0	9.030000e+01
401.974213	1.306423	city	3	1	0.924347	0.924347	0	1	0	0	CorrectCommission	0.520570	0.936251	0	0	8.960000e+01
403.267212	1.279580	mountain	10	1	1.283495	1.283495	0	0	1	0	CommissionError	1.160143	0.908876	0	0	8.890000e+01
404.546783	1.279557	city	5	1	1.444736	1.444736	0	1	0	0	CorrectCommission	1.914704	0.879958	0	0	8.820000e+01
405.866333	1.359561	city	10	1	1.314305	1.314305	0	1	0	0	CorrectCommission	1.304322	0.849027	0	0	8.750000e+01
407.185852	1.279467	city	3	1	1.246021	1.246021	0	1	0	0	CorrectCommission	0.984774	0.815953	0	0	8.680000e+01
408.465393	1.279592	mountain	5	0	0.000000	1.274122	1	0	0	0	CorrectOmission	1.116278	0.781151	0	0	8.610000e+01
409.758362	1.306351	city	2	1	1.275132	1.275132	0	1	0	0	CorrectCommission	1.121004	0.745628	0	0	8.540000e+01
411.091217	1.359366	city	5	1	1.125576	1.125576	0	1	0	0	CorrectCommission	0.421126	0.710910	1	0	8.470000e+01
412.417450	1.293073	city	3	1	1.088291	1.088291	0	1	0	0	CorrectCommission	0.246642	0.678765	1	0	84
413.710419	1.292907	city	10	1	1.038564	1.038564	0	1	0	0	CorrectCommission	0.013937	0.650871	1	0	8.330000e+01
415.009918	1.306099	city	7	1	1.047179	1.047179	0	1	0	0	CorrectCommission	0.054249	0.628505	1	0	8.260000e+01
416.316101	1.306236	city	3	1	1.003955	1.003955	0	1	0	0	CorrectCommission	0.148027	0.612305	1	0	8.190000e+01
417.615753	1.293054	city	5	1	0.751700	0.751700	0	1	0	0	CorrectCommission	1.328509	0.602149	1	0	8.120000e+01
418.902069	1.279592	city	1	1	1.070836	1.070836	0	1	0	0	CorrectCommission	0.164960	0.597262	1	0	8.050000e+01
420.194977	1.306243	city	10	1	0.933867	0.933867	0	1	0	0	CorrectCommission	0.476015	0.596440	1	0	7.980000e+01
421.487793	1.279401	city	6	1	1.320086	1.320086	0	1	0	0	CorrectCommission	1.331377	0.598304	1	0	7.910000e+01
422.807312	1.359603	city	3	1	1.160948	1.160948	0	1	0	0	CorrectCommission	0.586659	0.601598	1	0	7.840000e+01
424.133514	1.292844	city	10	1	0.921893	0.921893	0	1	0	0	CorrectCommission	0.532053	0.605513	1	0	7.770000e+01
425.439819	1.319730	city	7	1	1.132167	1.132167	0	1	0	0	CorrectCommission	0.451970	0.609875	1	0	77
426.739380	1.279415	city	10	1	1.291167	1.291167	0	1	0	0	CorrectCommission	1.196047	0.615192	1	0	7.630000e+01
428.025543	1.292910	city	4	1	1.199800	1.199800	0	1	0	0	CorrectCommission	0.768474	0.622628	1	0	7.560000e+01
429.338470	1.332898	city	9	1	1.082004	1.082004	0	1	0	0	CorrectCommission	0.217220	0.633829	1	0	7.490000e+01
430.678040	1.346295	city	10	1	0.995170	0.995170	0	1	0	0	CorrectCommission	0.189136	0.650654	1	0	7.420000e+01
431.997711	1.293013	city	1	1	0.948090	0.948090	0	1	0	0	CorrectCommission	0.409459	0.674827	1	0	7.350000e+01
433.290558	1.292710	city	2	1	1.259356	1.259356	0	1	0	0	CorrectCommission	1.047178	0.707589	1	0	7.280000e+01
434.596802	1.319764	city	10	1	1.167141	1.167141	0	1	0	0	CorrectCommission	0.615638	0.749379	0	0	7.210000e+01
435.909790	1.306213	mountain	5	0	0.000000	1.093975	1	0	0	0	CorrectOmission	0.273242	0.799625	0	0	7.140000e+01
437.216034	1.306263	city	8	1	1.090282	1.090282	0	1	0	0	CorrectCommission	0.255959	0.856557	0	0	7.070000e+01
438.528839	1.319386	city	7	1	1.206485	1.206485	0	1	0	0	CorrectCommission	0.799759	0.917234	0	0	70
439.848328	1.319573	city	5	1	1.209628	1.209628	0	1	0	0	CorrectCommission	0.814464	0.977772	0	0	6.930000e+01
441.148010	1.279793	city	4	1	1.338005	1.338005	0	1	0	0	CorrectCommission	1.415235	1.033696	0	0	6.860000e+01
442.454285	1.332769	city	8	1	1.063034	1.063034	0	1	0	0	CorrectCommission	0.128450	1.080423	0	0	6.790000e+01
443.773834	1.306303	city	6	1	0.516607	0.516607	0	1	0	0	CorrectCommission	2.428676	1.113888	0	0	6.720000e+01
445.086700	1.319420	city	3	1	0.576256	0.576256	0	1	0	0	CorrectCommission	2.149536	1.131002	0	0	6.650000e+01
446.399567	1.306319	city	7	1	0.524402	0.524402	0	1	0	0	CorrectCommission	2.392198	1.130183	0	0	6.580000e+01
447.719208	1.332974	city	2	1	0.727076	0.727076	0	1	0	0	CorrectCommission	1.443739	1.111563	0	0	6.510000e+01
449.058807	1.346203	city	3	1	0.834969	0.834969	0	1	0	0	CorrectCommission	0.938832	1.076992	0	0	6.440000e+01
450.385040	1.306271	city	1	1	0.620647	0.620647	0	1	0	0	CorrectCommission	1.941798	1.029744	0	0	6.370000e+01
453.077423	4.078472	break	0	1	0.981154	0.981154	0	0	0	0	ThoughtProbe	0.254728	0.974043	0	63	63
455.769714	1.306159	city	2	1	1.262809	1.262809	0	1	0	0	CorrectCommission	1.063335	0.914527	0	0	6.271739e+01
457.069397	1.293167	city	6	1	1.047953	1.047953	0	1	0	0	CorrectCommission	0.057871	0.855554	0	0	6.243478e+01
458.362335	1.292736	city	4	1	1.051166	1.051166	0	1	0	0	CorrectCommission	0.072910	0.800766	0	0	6.215217e+01
459.675079	1.332735	city	8	1	0.994359	0.994359	0	1	0	0	CorrectCommission	0.192933	0.752686	0	0	6.186957e+01
460.981293	1.279730	city	4	1	0.919139	0.919139	0	1	0	0	CorrectCommission	0.544942	0.712652	1	0	6.158696e+01
462.260956	1.279574	mountain	8	0	0.000000	1.160680	1	0	0	0	CorrectOmission	0.585405	0.680907	1	0	6.130435e+01
463.540619	1.279756	city	9	1	1.365158	1.365158	0	1	0	0	CorrectCommission	1.542304	0.656873	1	0	6.102174e+01
464.860291	1.359563	city	4	1	1.178747	1.178747	0	1	0	0	CorrectCommission	0.669951	0.639570	1	0	6.073913e+01
466.199768	1.319409	city	2	1	1.057122	1.057122	0	1	0	0	CorrectCommission	0.100783	0.628048	1	0	6.045652e+01
467.519257	1.319565	city	9	1	0.767448	0.767448	0	1	0	0	CorrectCommission	1.254809	0.621686	1	0	6.017391e+01
468.832153	1.306208	mountain	9	0	0.000000	0.877307	1	0	0	0	CorrectOmission	0.740702	0.620428	1	0	5.989130e+01
470.151733	1.332986	city	1	1	1.065151	1.065151	0	1	0	0	CorrectCommission	0.138354	0.624923	1	0	5.960870e+01
471.484711	1.332957	city	10	1	1.009433	1.009433	0	1	0	0	CorrectCommission	0.122389	0.636464	1	0	5.932609e+01
472.790985	1.279591	mountain	5	0	0.000000	1.155249	1	0	0	0	CorrectOmission	0.559987	0.656745	1	0	5.904348e+01
474.083801	1.306074	city	2	1	1.283547	1.283547	0	1	0	0	CorrectCommission	1.160384	0.687612	1	0	5.876087e+01
475.396729	1.319770	city	4	1	1.175275	1.175275	0	1	0	0	CorrectCommission	0.653702	0.730650	1	0	5.847826e+01
476.729767	1.346280	city	3	1	0.982067	0.982067	0	1	0	0	CorrectCommission	0.250453	0.786837	0	0	5.819565e+01
478.082672	1.359513	city	2	1	0.901148	0.901148	0	1	0	0	CorrectCommission	0.629131	0.856169	0	0	5.791304e+01
479.422089	1.319345	city	6	1	0.942473	0.942473	0	1	0	0	CorrectCommission	0.435744	0.937342	0	0	5.763043e+01
480.728302	1.293071	city	4	1	0.996836	0.996836	0	1	0	0	CorrectCommission	0.181342	1.027662	0	0	5.734783e+01
482.021271	1.292907	city	2	1	0.938478	0.938478	0	1	0	0	CorrectCommission	0.454441	1.123065	0	0	5.706522e+01
483.314178	1.292911	city	9	1	0.698938	0.698938	0	1	0	0	CorrectCommission	1.575417	1.218438	0	0	5.678261e+01
484.613770	1.306241	city	2	1	0.754265	0.754265	0	1	0	0	CorrectCommission	1.316505	1.308073	0	0	5.650000e+01
485.926605	1.319410	city	4	1	0.609467	0.609467	0	1	0	0	CorrectCommission	1.994117	1.386347	0	0	5.621739e+01
487.252838	1.333062	city	5	1	0.513309	0.513309	0	1	0	0	CorrectCommission	2.444109	1.448336	0	0	5.593478e+01
488.559052	1.279400	city	10	1	0.750877	0.750877	0	1	0	0	CorrectCommission	1.332357	1.490456	0	0	5.565217e+01
489.865295	1.333061	city	1	1	1.807165	1.807165	0	1	0	0	CorrectCommission	3.610770	1.510910	0	0	5.536957e+01
491.198181	1.332727	mountain	2	0	0.000000	1.715043	1	0	0	0	CorrectOmission	3.179662	1.509761	0	0	5.508696e+01
492.504333	1.279574	city	3	1	1.249988	1.249988	0	1	0	0	CorrectCommission	1.003337	1.488907	0	0	5.480435e+01
493.783997	1.279757	city	1	1	1.187479	1.187479	0	1	0	0	CorrectCommission	0.710815	1.451686	0	0	5.452174e+01
495.090240	1.332750	city	8	1	1.226055	1.226055	0	1	0	0	CorrectCommission	0.891339	1.402257	0	0	5.423913e+01
496.416473	1.319697	city	3	1	1.405294	1.405294	0	1	0	0	CorrectCommission	1.730128	1.344996	0	0	5.395652e+01
497.729370	1.306081	city	4	1	1.222213	1.222213	0	1	0	0	CorrectCommission	0.873359	1.283928	0	0	5.367391e+01
499.028961	1.293090	city	8	1	1.126503	1.126503	0	1	0	0	CorrectCommission	0.425467	1.222374	0	0	5.339130e+01
500.321869	1.292723	city	9	1	1.244810	1.244810	0	1	0	0	CorrectCommission	0.979108	1.162696	0	0	5.310870e+01
501.621368	1.306274	city	2	1	1.213981	1.213981	0	1	0	0	CorrectCommission	0.834837	1.106279	0	0	5.282609e+01
502.914307	1.279615	city	3	1	1.529775	1.529775	0	1	0	0	CorrectCommission	2.312663	1.053750	0	0	5.254348e+01
504.247192	1.386144	city	2	1	1.325659	1.325659	0	1	0	0	CorrectCommission	1.357459	1.005154	0	0	5.226087e+01
505.613464	1.346407	city	6	1	1.222944	1.222944	0	1	0	0	CorrectCommission	0.876780	0.960284	0	0	5.197826e+01
506.939697	1.306067	city	2	1	1.122248	1.122248	0	1	0	0	CorrectCommission	0.405550	0.918786	0	0	5.169565e+01
508.265930	1.346388	city	1	1	1.061356	1.061356	0	1	0	0	CorrectCommission	0.120597	0.880280	0	0	5.141304e+01
509.578857	1.279485	city	8	1	1.338549	1.338549	0	1	0	0	CorrectCommission	1.417779	0.844410	0	0	5.113043e+01
510.885010	1.332802	city	2	1	1.235026	1.235026	0	1	0	0	CorrectCommission	0.933321	0.810782	0	0	5.084783e+01
512.217957	1.333104	city	4	1	1.116205	1.116205	0	1	0	0	CorrectCommission	0.377273	0.778967	0	0	5.056522e+01
513.537598	1.306214	city	9	1	1.152670	1.152670	0	1	0	0	CorrectCommission	0.547920	0.748439	0	0	5.028261e+01
517.316528	6.251661	break	0	0	0.000000	1.189136	0	0	0	0	ThoughtProbe	0.718568	0.718568	1	50	50
