onset	duration	trial_type	image_type	Press	ReactionTime	ReactionTime_Interpolated	CorrectOmission	CorrectCommission	CommissionError	OmissionError	response_type	nonsmoothVarianceTimeCourse	VarianceTimeCourse	In_the_Zone	ThoughtProbe	ThoughtProbe_Interpolated
0.666476	1.306274	city	10	1	0.857953	0.857953	0	1	0	0	CorrectCommission	1.203182	1.203182	0	0	63
1.972735	1.306245	city	7	1	0.946672	0.946672	0	1	0	0	CorrectCommission	0.740201	1.100647	0	0	63
3.278935	1.306154	mountain	5	0	0.000000	0.920135	1	0	0	0	CorrectOmission	0.878681	1.002203	0	0	63
4.571765	1.279506	city	5	1	0.933293	0.933293	0	1	0	0	CorrectCommission	0.810017	0.911603	0	0	63
5.858049	1.293063	city	4	1	1.141095	1.141095	0	1	0	0	CorrectCommission	0.274398	0.832006	0	0	63
7.144356	1.279550	city	6	1	1.071325	1.071325	0	1	0	0	CorrectCommission	0.089698	0.765780	1	0	63
8.423926	1.279592	city	10	1	0.980223	0.980223	0	1	0	0	CorrectCommission	0.565114	0.714344	1	0	63
9.703521	1.279597	city	6	1	1.019193	1.019193	0	1	0	0	CorrectCommission	0.361747	0.678128	1	0	63
10.989710	1.292783	city	3	1	1.037027	1.037027	0	1	0	0	CorrectCommission	0.268684	0.656667	1	0	63
12.275921	1.279639	city	1	1	0.925973	0.925973	0	1	0	0	CorrectCommission	0.848219	0.648690	1	0	63
13.555552	1.279625	city	10	1	0.911055	0.911055	0	1	0	0	CorrectCommission	0.926067	0.652260	1	0	63
14.835091	1.279451	mountain	3	0	0.000000	0.997991	1	0	0	0	CorrectOmission	0.472389	0.664970	1	0	63
16.114672	1.279713	city	6	1	1.049499	1.049499	0	1	0	0	CorrectCommission	0.203597	0.684101	1	0	63
17.394327	1.279598	city	9	1	0.928295	0.928295	0	1	0	0	CorrectCommission	0.836102	0.706772	1	0	63
18.673918	1.279582	city	7	1	1.028882	1.028882	0	1	0	0	CorrectCommission	0.311189	0.730101	1	0	63
19.953403	1.279388	city	6	1	0.968679	0.968679	0	1	0	0	CorrectCommission	0.625355	0.751436	1	0	63
21.232971	1.279746	city	10	1	0.818073	0.818073	0	1	0	0	CorrectCommission	1.411294	0.768553	1	0	63
22.512550	1.279412	city	3	1	0.817393	0.817393	0	1	0	0	CorrectCommission	1.414846	0.779844	0	0	63
23.792093	1.279676	city	8	1	0.918913	0.918913	0	1	0	0	CorrectCommission	0.885061	0.784488	0	0	63
25.071686	1.279510	city	2	1	0.923336	0.923336	0	1	0	0	CorrectCommission	0.861981	0.782613	0	0	63
26.357994	1.293105	city	10	1	0.877124	0.877124	0	1	0	0	CorrectCommission	1.103134	0.775259	0	0	63
27.644243	1.279396	city	5	1	0.908481	0.908481	0	1	0	0	CorrectCommission	0.939502	0.764356	1	0	63
28.930490	1.293095	city	1	1	1.168653	1.168653	0	1	0	0	CorrectCommission	0.418208	0.752480	1	0	63
30.216764	1.279453	city	4	1	1.232088	1.232088	0	1	0	0	CorrectCommission	0.749245	0.742636	1	0	63
31.496229	1.279478	city	10	1	0.914743	0.914743	0	1	0	0	CorrectCommission	0.906822	0.737867	1	0	63
32.782505	1.293073	city	4	1	1.024409	1.024409	0	1	0	0	CorrectCommission	0.334531	0.740918	1	0	63
34.075497	1.292910	city	7	1	1.071721	1.071721	0	1	0	0	CorrectCommission	0.087628	0.753923	1	0	63
35.368343	1.292783	city	5	1	0.983768	0.983768	0	1	0	0	CorrectCommission	0.546614	0.778103	0	0	63
36.674591	1.319710	city	7	1	1.071748	1.071748	0	1	0	0	CorrectCommission	0.087492	0.813559	0	0	63
37.974224	1.279559	city	10	1	1.194396	1.194396	0	1	0	0	CorrectCommission	0.552549	0.859248	0	0	63
39.253792	1.279575	mountain	5	0	0.000000	1.320313	1	0	0	0	CorrectOmission	1.209648	0.912995	0	0	63
40.533333	1.279510	city	1	1	1.364744	1.364744	0	1	0	0	CorrectCommission	1.441513	0.971640	0	0	63
41.846165	1.346156	city	4	1	1.242936	1.242936	0	1	0	0	CorrectCommission	0.805854	1.031315	0	0	63
43.199024	1.359558	city	9	1	0.894985	0.894985	0	1	0	0	CorrectCommission	1.009931	1.087779	0	0	63
44.538616	1.319627	city	10	1	0.952754	0.952754	0	1	0	0	CorrectCommission	0.708462	1.136724	0	0	63
45.858261	1.319667	city	5	1	0.730835	0.730835	0	1	0	0	CorrectCommission	1.866546	1.174193	0	0	63
47.157833	1.279476	city	1	1	0.589235	0.589235	0	1	0	0	CorrectCommission	2.605490	1.196919	0	0	63
48.457310	1.319476	city	9	1	0.993571	0.993571	0	1	0	0	CorrectCommission	0.495455	1.202680	0	0	63
49.776913	1.319732	city	1	1	0.796874	0.796874	0	1	0	0	CorrectCommission	1.521922	1.190582	0	0	63
53.362492	5.851423	break	0	0	0.000000	1.304128	0	0	0	0	ThoughtProbe	1.125188	1.161117	0	63	63
56.941292	1.306176	city	6	1	1.727966	1.727966	0	1	0	0	CorrectCommission	3.336990	1.116252	0	0	6.294118e+01
58.260834	1.332912	city	1	1	1.281021	1.281021	0	1	0	0	CorrectCommission	1.004601	1.059148	0	0	6.288235e+01
59.573681	1.292784	city	7	1	1.319122	1.319122	0	1	0	0	CorrectCommission	1.203432	0.993980	0	0	6.282353e+01
60.859871	1.279592	mountain	4	0	0.000000	1.207035	1	0	0	0	CorrectOmission	0.618506	0.925324	0	0	6.276471e+01
62.146198	1.293063	city	1	1	1.090859	1.090859	0	1	0	0	CorrectCommission	0.012240	0.857735	0	0	6.270588e+01
63.452446	1.319431	city	6	1	1.116692	1.116692	0	1	0	0	CorrectCommission	0.147049	0.795206	0	0	6.264706e+01
64.751923	1.279531	city	9	1	1.104385	1.104385	0	1	0	0	CorrectCommission	0.082828	0.740747	1	0	6.258824e+01
66.031570	1.279765	city	3	1	1.023816	1.023816	0	1	0	0	CorrectCommission	0.337622	0.696253	1	0	6.252941e+01
67.311157	1.279396	city	5	1	1.018823	1.018823	0	1	0	0	CorrectCommission	0.363681	0.662440	1	0	6.247059e+01
68.604057	1.306416	city	10	1	0.887609	0.887609	0	1	0	0	CorrectCommission	1.048419	0.639027	1	0	6.241176e+01
69.910393	1.306243	city	2	1	0.948873	0.948873	0	1	0	0	CorrectCommission	0.728715	0.625034	1	0	6.235294e+01
71.216553	1.306080	city	1	1	0.921460	0.921460	0	1	0	0	CorrectCommission	0.871771	0.619103	1	0	6.229412e+01
72.516113	1.293048	city	10	1	1.303321	1.303321	0	1	0	0	CorrectCommission	1.120977	0.619771	1	0	6.223529e+01
73.809105	1.292931	city	9	1	1.094391	1.094391	0	1	0	0	CorrectCommission	0.030673	0.625670	1	0	6.217647e+01
75.108604	1.306067	city	4	1	1.003464	1.003464	0	1	0	0	CorrectCommission	0.443831	0.635610	1	0	6.211765e+01
76.401421	1.279575	city	8	1	0.974384	0.974384	0	1	0	0	CorrectCommission	0.595586	0.648517	1	0	6.205882e+01
77.694412	1.306400	city	4	1	0.941943	0.941943	0	1	0	0	CorrectCommission	0.764878	0.663390	1	0	62
79.020699	1.346170	city	3	1	1.063062	1.063062	0	1	0	0	CorrectCommission	0.132820	0.679190	1	0	6.194118e+01
80.346931	1.306296	city	4	1	0.943140	0.943140	0	1	0	0	CorrectCommission	0.758633	0.694781	1	0	6.188235e+01
81.639854	1.279560	city	10	1	0.861145	0.861145	0	1	0	0	CorrectCommission	1.186524	0.708960	1	0	6.182353e+01
82.932671	1.306069	city	1	1	1.050648	1.050648	0	1	0	0	CorrectCommission	0.197602	0.720548	1	0	6.176471e+01
84.232201	1.292992	city	4	1	1.258955	1.258955	0	1	0	0	CorrectCommission	0.889450	0.728620	1	0	6.170588e+01
85.525215	1.293032	city	9	1	0.972688	0.972688	0	1	0	0	CorrectCommission	0.604437	0.732572	1	0	6.164706e+01
86.824875	1.306291	mountain	1	0	0.000000	0.762117	1	0	0	0	CorrectOmission	1.703300	0.732435	1	0	6.158824e+01
88.117760	1.279479	city	1	1	0.756209	0.756209	0	1	0	0	CorrectCommission	1.734133	0.728861	1	0	6.152941e+01
89.423950	1.332898	city	2	1	1.083928	1.083928	0	1	0	0	CorrectCommission	0.023928	0.723123	1	0	6.147059e+01
90.750214	1.319625	city	3	1	1.275787	1.275787	0	1	0	0	CorrectCommission	0.977287	0.716988	1	0	6.141176e+01
92.056404	1.292769	city	10	1	1.032064	1.032064	0	1	0	0	CorrectCommission	0.294582	0.712353	1	0	6.135294e+01
93.349297	1.293010	city	8	1	1.064771	1.064771	0	1	0	0	CorrectCommission	0.123900	0.710984	1	0	6.129412e+01
94.648834	1.306059	city	6	1	0.941727	0.941727	0	1	0	0	CorrectCommission	0.766007	0.714163	1	0	6.123529e+01
95.961723	1.319721	city	10	1	1.079605	1.079605	0	1	0	0	CorrectCommission	0.046486	0.722416	1	0	6.117647e+01
97.261337	1.279509	city	9	1	0.964699	0.964699	0	1	0	0	CorrectCommission	0.646126	0.735438	1	0	6.111765e+01
98.547508	1.292836	city	8	1	0.875039	0.875039	0	1	0	0	CorrectCommission	1.114016	0.752054	1	0	6.105882e+01
102.159683	5.931510	break	0	0	0.000000	1.090461	0	0	0	0	ThoughtProbe	0.010162	0.770440	1	61	61
105.798477	1.346075	city	7	1	1.208097	1.208097	0	1	0	0	CorrectCommission	0.624046	0.788432	0	0	6.091304e+01
107.118080	1.293129	city	10	1	0.825080	0.825080	0	1	0	0	CorrectCommission	1.374728	0.803815	0	0	6.082609e+01
108.404411	1.279543	city	1	1	0.661667	0.661667	0	1	0	0	CorrectCommission	2.227501	0.814701	0	0	6.073913e+01
109.690559	1.292755	city	3	1	1.373087	1.373087	0	1	0	0	CorrectCommission	1.485050	0.819801	0	0	6.065217e+01
110.983429	1.292972	city	6	1	1.144555	1.144555	0	1	0	0	CorrectCommission	0.292455	0.818607	0	0	6.056522e+01
112.269775	1.279732	mountain	1	0	0.000000	1.157977	1	0	0	0	CorrectOmission	0.362499	0.811424	0	0	6.047826e+01
113.562637	1.305985	city	1	1	1.216199	1.216199	0	1	0	0	CorrectCommission	0.666329	0.799295	0	0	6.039130e+01
114.862091	1.292918	city	7	1	1.122066	1.122066	0	1	0	0	CorrectCommission	0.175095	0.783871	0	0	6.030435e+01
116.154991	1.292896	mountain	6	0	0.000000	1.324484	1	0	0	0	CorrectOmission	1.231415	0.767273	1	0	6.021739e+01
117.447899	1.292910	city	6	1	1.416953	1.416953	0	1	0	0	CorrectCommission	1.713964	0.751811	1	0	6.013043e+01
118.774208	1.359718	city	2	1	0.992972	0.992972	0	1	0	0	CorrectCommission	0.498584	0.739838	1	0	6.004348e+01
120.100525	1.292910	city	4	1	0.991925	0.991925	0	1	0	0	CorrectCommission	0.504047	0.733492	1	0	5.995652e+01
121.393448	1.292928	city	9	1	0.952291	0.952291	0	1	0	0	CorrectCommission	0.710877	0.734406	1	0	5.986957e+01
122.692947	1.306073	city	1	1	1.074388	1.074388	0	1	0	0	CorrectCommission	0.073712	0.743502	1	0	5.978261e+01
123.992424	1.292888	city	5	1	1.143428	1.143428	0	1	0	0	CorrectCommission	0.286572	0.760771	1	0	5.969565e+01
125.292000	1.306261	city	9	1	1.071331	1.071331	0	1	0	0	CorrectCommission	0.089667	0.785154	0	0	5.960870e+01
126.598236	1.306207	city	8	1	0.872636	0.872636	0	1	0	0	CorrectCommission	1.126556	0.814559	0	0	5.952174e+01
127.918175	1.333673	city	6	1	1.008703	1.008703	0	1	0	0	CorrectCommission	0.416491	0.845990	0	0	5.943478e+01
129.231155	1.292301	mountain	5	0	0.000000	1.309746	1	0	0	0	CorrectOmission	1.154502	0.875918	0	0	5.934783e+01
130.517105	1.279594	city	4	1	1.419804	1.419804	0	1	0	0	CorrectCommission	1.728845	0.900611	0	0	5.926087e+01
131.829926	1.346045	city	9	1	0.982920	0.982920	0	1	0	0	CorrectCommission	0.551039	0.916623	0	0	5.917391e+01
133.156158	1.306418	city	8	1	0.834416	0.834416	0	1	0	0	CorrectCommission	1.326008	0.921292	0	0	5.908696e+01
134.462418	1.306113	mountain	7	0	0.000000	0.736153	1	0	0	0	CorrectOmission	1.838794	0.913006	0	0	59
135.761871	1.292796	city	1	1	0.762545	0.762545	0	1	0	0	CorrectCommission	1.701071	0.891463	0	0	5.891304e+01
137.048096	1.279649	city	7	1	0.988004	0.988004	0	1	0	0	CorrectCommission	0.524509	0.857707	0	0	5.882609e+01
138.334473	1.293078	city	9	1	0.874531	0.874531	0	1	0	0	CorrectCommission	1.116669	0.814010	0	0	5.873913e+01
139.634125	1.306225	city	3	1	0.839165	0.839165	0	1	0	0	CorrectCommission	1.301226	0.763521	1	0	5.865217e+01
140.947006	1.319565	city	8	1	1.155706	1.155706	0	1	0	0	CorrectCommission	0.350646	0.709875	1	0	5.856522e+01
142.246582	1.279588	city	7	1	1.093510	1.093510	0	1	0	0	CorrectCommission	0.026076	0.656771	1	0	5.847826e+01
143.559433	1.346089	city	10	1	1.048004	1.048004	0	1	0	0	CorrectCommission	0.211397	0.607520	1	0	5.839130e+01
144.878983	1.293021	city	6	1	1.036252	1.036252	0	1	0	0	CorrectCommission	0.272728	0.564729	1	0	5.830435e+01
146.178574	1.306174	city	8	1	1.033531	1.033531	0	1	0	0	CorrectCommission	0.286923	0.530131	1	0	5.821739e+01
147.484756	1.306173	city	7	1	1.073486	1.073486	0	1	0	0	CorrectCommission	0.078419	0.504595	1	0	5.813043e+01
148.811035	1.346379	city	10	1	1.029142	1.029142	0	1	0	0	CorrectCommission	0.309828	0.488204	1	0	5.804348e+01
150.130661	1.292879	city	9	1	0.901317	0.901317	0	1	0	0	CorrectCommission	0.976884	0.480438	1	0	5.795652e+01
151.430222	1.306237	city	6	1	1.003026	1.003026	0	1	0	0	CorrectCommission	0.446117	0.480399	1	0	5.786957e+01
152.743042	1.319405	city	10	1	0.924001	0.924001	0	1	0	0	CorrectCommission	0.858508	0.486988	1	0	5.778261e+01
154.055862	1.306238	city	3	1	1.210197	1.210197	0	1	0	0	CorrectCommission	0.635006	0.498998	1	0	5.769565e+01
155.368759	1.319560	city	10	1	1.137410	1.137410	0	1	0	0	CorrectCommission	0.255166	0.515140	1	0	5.760870e+01
156.675079	1.293076	city	2	1	1.092444	1.092444	0	1	0	0	CorrectCommission	0.020513	0.534045	1	0	5.752174e+01
157.974716	1.306216	city	9	1	1.077311	1.077311	0	1	0	0	CorrectCommission	0.058459	0.554200	1	0	5.743478e+01
159.287628	1.319612	city	10	1	1.020624	1.020624	0	1	0	0	CorrectCommission	0.354283	0.573953	1	0	5.734783e+01
160.600540	1.306213	city	3	1	0.932936	0.932936	0	1	0	0	CorrectCommission	0.811881	0.591592	1	0	5.726087e+01
161.893448	1.279577	city	5	1	0.918294	0.918294	0	1	0	0	CorrectCommission	0.888291	0.605460	1	0	5.717391e+01
163.206253	1.346057	city	1	1	1.301856	1.301856	0	1	0	0	CorrectCommission	1.113331	0.614152	1	0	5.708696e+01
166.798340	5.838109	break	0	0	0.000000	1.292078	0	0	0	0	ThoughtProbe	1.062302	0.616678	1	57	57
170.390488	1.346197	city	1	1	1.204723	1.204723	0	1	0	0	CorrectCommission	0.606440	0.612658	1	0	5.691176e+01
171.716736	1.306272	city	7	1	1.355556	1.355556	0	1	0	0	CorrectCommission	1.393563	0.602328	1	0	5.682353e+01
173.049713	1.359703	city	8	1	1.007598	1.007598	0	1	0	0	CorrectCommission	0.422257	0.586507	1	0	5.673529e+01
174.375931	1.292716	mountain	9	0	0.000000	1.016090	1	0	0	0	CorrectOmission	0.377941	0.566535	1	0	5.664706e+01
175.688828	1.333087	city	3	1	1.140014	1.140014	0	1	0	0	CorrectCommission	0.268756	0.543990	1	0	5.655882e+01
177.001785	1.292816	city	7	1	1.138351	1.138351	0	1	0	0	CorrectCommission	0.260080	0.520558	1	0	5.647059e+01
178.301361	1.306346	city	4	1	1.106727	1.106727	0	1	0	0	CorrectCommission	0.095051	0.497864	1	0	5.638235e+01
179.594223	1.279384	city	9	1	1.158799	1.158799	0	1	0	0	CorrectCommission	0.366789	0.477371	1	0	5.629412e+01
180.907043	1.346257	city	8	1	0.907286	0.907286	0	1	0	0	CorrectCommission	0.945736	0.460368	1	0	5.620588e+01
182.253357	1.346371	city	1	1	0.985122	0.985122	0	1	0	0	CorrectCommission	0.539547	0.447949	1	0	5.611765e+01
183.586304	1.319520	city	3	1	1.206656	1.206656	0	1	0	0	CorrectCommission	0.616529	0.441046	1	0	5.602941e+01
184.912521	1.332923	city	10	1	0.988854	0.988854	0	1	0	0	CorrectCommission	0.520071	0.440429	1	0	5.594118e+01
186.285339	1.412705	city	9	1	1.088331	1.088331	0	1	0	0	CorrectCommission	0.000952	0.446664	1	0	5.585294e+01
187.644867	1.306334	city	4	1	1.089814	1.089814	0	1	0	0	CorrectCommission	0.006788	0.460040	1	0	5.576471e+01
188.957764	1.319487	city	10	1	1.028159	1.028159	0	1	0	0	CorrectCommission	0.314959	0.480440	1	0	5.567647e+01
190.264038	1.293038	city	3	1	1.061322	1.061322	0	1	0	0	CorrectCommission	0.141896	0.507301	1	0	5.558824e+01
191.576920	1.332741	city	1	1	1.003868	1.003868	0	1	0	0	CorrectCommission	0.441721	0.539559	1	0	5.550000e+01
192.896408	1.306238	city	4	1	1.272805	1.272805	0	1	0	0	CorrectCommission	0.961727	0.575675	1	0	5.541176e+01
194.209320	1.319567	city	8	1	1.063305	1.063305	0	1	0	0	CorrectCommission	0.131550	0.613807	1	0	5.532353e+01
195.535645	1.333092	city	7	1	0.918583	0.918583	0	1	0	0	CorrectCommission	0.886783	0.651992	1	0	5.523529e+01
196.855209	1.306036	city	2	1	1.046895	1.046895	0	1	0	0	CorrectCommission	0.217186	0.688334	1	0	5.514706e+01
198.154678	1.292906	mountain	8	0	0.000000	1.367239	1	0	0	0	CorrectOmission	1.454534	0.721309	1	0	5.505882e+01
199.454269	1.306258	city	3	1	1.502201	1.502201	0	1	0	0	CorrectCommission	2.158831	0.749892	1	0	5.497059e+01
200.773911	1.333037	city	6	1	1.074364	1.074364	0	1	0	0	CorrectCommission	0.073840	0.773677	0	0	5.488235e+01
202.086899	1.292932	city	9	1	0.985496	0.985496	0	1	0	0	CorrectCommission	0.537595	0.792926	0	0	5.479412e+01
203.399750	1.332771	city	1	1	0.915931	0.915931	0	1	0	0	CorrectCommission	0.900621	0.808363	0	0	5.470588e+01
204.752625	1.372988	city	5	1	1.195457	1.195457	0	1	0	0	CorrectCommission	0.558089	0.821035	0	0	5.461765e+01
206.078857	1.279469	city	6	1	1.392494	1.392494	0	1	0	0	CorrectCommission	1.586324	0.832080	0	0	5.452941e+01
207.398422	1.359652	city	8	1	1.289390	1.289390	0	1	0	0	CorrectCommission	1.048279	0.842432	0	0	5.444118e+01
208.738052	1.319623	city	3	1	1.103427	1.103427	0	1	0	0	CorrectCommission	0.077825	0.852662	0	0	5.435294e+01
210.050964	1.306210	city	4	1	1.101177	1.101177	0	1	0	0	CorrectCommission	0.066084	0.862834	0	0	5.426471e+01
211.357162	1.306187	city	8	1	0.914193	0.914193	0	1	0	0	CorrectCommission	0.909693	0.872458	0	0	5.417647e+01
212.676712	1.332913	city	9	1	0.847263	0.847263	0	1	0	0	CorrectCommission	1.258969	0.880612	0	0	5.408824e+01
215.868942	5.051538	break	0	0	0.000000	1.173461	0	0	0	0	ThoughtProbe	0.443300	0.886163	0	54	54
219.041229	1.293048	city	6	1	1.472739	1.472739	0	1	0	0	CorrectCommission	2.005085	0.888063	0	0	5.384783e+01
220.360840	1.346174	city	10	1	1.325048	1.325048	0	1	0	0	CorrectCommission	1.234358	0.885515	0	0	5.369565e+01
221.680389	1.292923	city	3	1	1.032557	1.032557	0	1	0	0	CorrectCommission	0.292010	0.878258	0	0	5.354348e+01
222.979935	1.306144	mountain	9	1	0.676303	0.676303	0	0	1	0	CommissionError	2.151124	0.866666	0	0	5.339130e+01
224.272797	1.279583	city	4	1	1.241353	1.241353	0	1	0	0	CorrectCommission	0.797596	0.851651	0	0	5.323913e+01
225.565704	1.306225	city	8	1	1.074189	1.074189	0	1	0	0	CorrectCommission	0.074754	0.834636	0	0	5.308696e+01
226.878662	1.319701	mountain	10	1	1.018188	1.018188	0	0	1	0	CommissionError	0.366993	0.817283	0	0	5.293478e+01
228.184891	1.292766	city	5	1	1.277830	1.277830	0	1	0	0	CorrectCommission	0.987953	0.801206	0	0	5.278261e+01
229.484467	1.306366	city	6	1	1.349672	1.349672	0	1	0	0	CorrectCommission	1.362861	0.787780	0	0	5.263043e+01
230.804108	1.332938	city	1	1	1.138964	1.138964	0	1	0	0	CorrectCommission	0.263279	0.777926	0	0	5.247826e+01
232.117035	1.292905	mountain	9	0	0.000000	1.095804	1	0	0	0	CorrectOmission	0.038048	0.772043	1	0	5.232609e+01
233.423248	1.319539	city	9	1	1.167895	1.167895	0	1	0	0	CorrectCommission	0.414252	0.769986	1	0	5.217391e+01
234.729401	1.292763	city	10	1	1.302938	1.302938	0	1	0	0	CorrectCommission	1.118976	0.771116	1	0	5.202174e+01
236.062302	1.373039	city	6	1	1.318713	1.318713	0	1	0	0	CorrectCommission	1.201299	0.774422	0	0	5.186957e+01
237.428604	1.359567	city	5	1	1.308258	1.308258	0	1	0	0	CorrectCommission	1.146740	0.778740	0	0	5.171739e+01
238.801483	1.386191	city	6	1	1.298467	1.298467	0	1	0	0	CorrectCommission	1.095643	0.782844	0	0	5.156522e+01
240.134399	1.279618	city	7	1	1.048925	1.048925	0	1	0	0	CorrectCommission	0.206593	0.785633	0	0	5.141304e+01
241.447205	1.346012	city	9	1	1.050386	1.050386	0	1	0	0	CorrectCommission	0.198966	0.786269	0	0	5.126087e+01
242.793411	1.346385	city	7	1	0.944538	0.944538	0	1	0	0	CorrectCommission	0.751337	0.784203	0	0	5.110870e+01
244.139740	1.346264	city	10	1	0.746377	0.746377	0	1	0	0	CorrectCommission	1.785442	0.779282	0	0	5.095652e+01
245.479218	1.332695	city	8	1	0.860269	0.860269	0	1	0	0	CorrectCommission	1.191097	0.771776	1	0	5.080435e+01
246.812088	1.333061	city	5	1	1.091110	1.091110	0	1	0	0	CorrectCommission	0.013553	0.762486	1	0	5.065217e+01
248.144928	1.332617	city	9	1	1.228916	1.228916	0	1	0	0	CorrectCommission	0.732694	0.752652	1	0	5.050000e+01
249.451157	1.279848	mountain	5	0	0.000000	1.302725	1	0	0	0	CorrectOmission	1.117868	0.743853	1	0	5.034783e+01
250.730881	1.279593	city	4	1	1.295005	1.295005	0	1	0	0	CorrectCommission	1.077579	0.737905	1	0	5.019565e+01
252.037125	1.332889	city	5	1	1.188222	1.188222	0	1	0	0	CorrectCommission	0.520333	0.736603	1	0	5.004348e+01
253.396667	1.386211	city	8	1	1.142395	1.142395	0	1	0	0	CorrectCommission	0.281182	0.741482	1	0	4.989130e+01
254.736237	1.292918	city	7	1	0.975957	0.975957	0	1	0	0	CorrectCommission	0.587374	0.753631	1	0	4.973913e+01
256.029144	1.292915	city	10	1	1.141793	1.141793	0	1	0	0	CorrectCommission	0.278042	0.773323	0	0	4.958696e+01
257.322021	1.292835	city	8	1	1.231123	1.231123	0	1	0	0	CorrectCommission	0.744207	0.799998	0	0	4.943478e+01
258.614838	1.292811	city	5	1	1.157582	1.157582	0	1	0	0	CorrectCommission	0.360435	0.832242	0	0	4.928261e+01
259.901031	1.279566	city	9	1	1.207137	1.207137	0	1	0	0	CorrectCommission	0.619038	0.867967	0	0	4.913043e+01
261.220612	1.359555	city	2	1	0.995762	0.995762	0	1	0	0	CorrectCommission	0.484021	0.904672	0	0	4.897826e+01
262.553528	1.306283	city	5	1	1.396372	1.396372	0	1	0	0	CorrectCommission	1.606564	0.939831	0	0	4.882609e+01
263.886414	1.359500	city	1	1	1.340811	1.340811	0	1	0	0	CorrectCommission	1.316616	0.971217	0	0	4.867391e+01
265.239349	1.346376	city	5	1	1.435526	1.435526	0	1	0	0	CorrectCommission	1.810890	0.997271	0	0	4.852174e+01
266.585632	1.346174	city	7	1	1.542930	1.542930	0	1	0	0	CorrectCommission	2.371377	1.017226	0	0	4.836957e+01
267.905121	1.292831	city	10	1	1.192378	1.192378	0	1	0	0	CorrectCommission	0.542021	1.031087	0	0	4.821739e+01
269.204651	1.306213	city	4	1	1.265757	1.265757	0	1	0	0	CorrectCommission	0.924946	1.039507	0	0	4.806522e+01
270.530945	1.346392	city	7	1	1.029753	1.029753	0	1	0	0	CorrectCommission	0.306641	1.043370	0	0	4.791304e+01
271.863922	1.319537	city	8	1	0.940080	0.940080	0	1	0	0	CorrectCommission	0.774598	1.043511	0	0	4.776087e+01
273.183472	1.319591	city	4	1	0.901742	0.901742	0	1	0	0	CorrectCommission	0.974667	1.040369	0	0	4.760870e+01
274.482971	1.279415	city	1	1	0.915716	0.915716	0	1	0	0	CorrectCommission	0.901742	1.033879	0	0	4.745652e+01
275.789215	1.333059	city	9	1	0.986602	0.986602	0	1	0	0	CorrectCommission	0.531825	1.023535	0	0	4.730435e+01
277.128876	1.346233	city	3	1	0.832466	0.832466	0	1	0	0	CorrectCommission	1.336187	1.008583	0	0	4.715217e+01
281.420715	7.237477	break	0	1	1.059065	1.059065	0	0	0	0	ThoughtProbe	0.153677	0.988298	0	47	47
285.705963	1.333013	city	6	1	2.007478	2.007478	0	1	0	0	CorrectCommission	4.795624	0.962434	0	0	4.712500e+01
287.025604	1.306276	city	10	1	1.204468	1.204468	0	1	0	0	CorrectCommission	0.605109	0.931295	0	0	4.725000e+01
288.351807	1.346087	city	6	1	1.103596	1.103596	0	1	0	0	CorrectCommission	0.078709	0.896152	0	0	4.737500e+01
289.691254	1.332843	city	4	1	1.221071	1.221071	0	1	0	0	CorrectCommission	0.691752	0.858954	0	0	4.750000e+01
291.004211	1.293072	city	8	1	1.032189	1.032189	0	1	0	0	CorrectCommission	0.293928	0.822193	0	0	4.762500e+01
292.323853	1.346228	city	5	1	1.021209	1.021209	0	1	0	0	CorrectCommission	0.351230	0.788621	0	0	4.775000e+01
293.663361	1.332731	city	8	1	0.859814	0.859814	0	1	0	0	CorrectCommission	1.193469	0.760871	1	0	4.787500e+01
294.989563	1.319722	mountain	1	0	0.000000	0.982586	1	0	0	0	CorrectOmission	0.552781	0.741097	1	0	48
296.295898	1.292939	city	9	1	1.122334	1.122334	0	1	0	0	CorrectCommission	0.176495	0.730782	1	0	4.812500e+01
297.595490	1.306210	city	6	1	1.011867	1.011867	0	1	0	0	CorrectCommission	0.399982	0.730540	1	0	4.825000e+01
298.941711	1.386238	city	5	1	1.000367	1.000367	0	1	0	0	CorrectCommission	0.459992	0.740081	1	0	4.837500e+01
300.281189	1.292713	city	3	1	0.930482	0.930482	0	1	0	0	CorrectCommission	0.824690	0.758271	1	0	4.850000e+01
301.614075	1.373102	city	8	1	0.915618	0.915618	0	1	0	0	CorrectCommission	0.902258	0.783242	0	0	4.862500e+01
302.946991	1.292691	mountain	3	0	0.000000	0.878561	1	0	0	0	CorrectOmission	1.095639	0.812626	0	0	4.875000e+01
304.246521	1.306369	city	8	1	0.914116	0.914116	0	1	0	0	CorrectCommission	0.910093	0.843776	0	0	4.887500e+01
305.546173	1.292946	city	4	1	1.117088	1.117088	0	1	0	0	CorrectCommission	0.149120	0.874032	0	0	49
306.845703	1.306142	city	7	1	1.017742	1.017742	0	1	0	0	CorrectCommission	0.369319	0.900999	0	0	4.912500e+01
308.165283	1.332985	city	9	1	0.794883	0.794883	0	1	0	0	CorrectCommission	1.532312	0.922772	0	0	4.925000e+01
309.498138	1.332730	city	5	1	0.876530	0.876530	0	1	0	0	CorrectCommission	1.106235	0.938185	0	0	4.937500e+01
310.817627	1.306233	mountain	8	1	0.553279	0.553279	0	0	1	0	CommissionError	2.793124	0.946934	0	0	4.950000e+01
312.110535	1.279586	city	6	1	1.345917	1.345917	0	1	0	0	CorrectCommission	1.343261	0.949495	0	0	4.962500e+01
313.403473	1.306283	city	2	1	1.168710	1.168710	0	1	0	0	CorrectCommission	0.418508	0.947163	0	0	4.975000e+01
314.703125	1.293024	city	6	1	1.035212	1.035212	0	1	0	0	CorrectCommission	0.278154	0.941611	0	0	4.987500e+01
316.022644	1.346058	city	4	1	0.944105	0.944105	0	1	0	0	CorrectCommission	0.753593	0.934705	0	0	50
317.348877	1.306416	city	3	1	0.888902	0.888902	0	1	0	0	CorrectCommission	1.041673	0.928118	0	0	5.012500e+01
318.655121	1.306056	city	9	1	0.913931	0.913931	0	1	0	0	CorrectCommission	0.911057	0.923063	0	0	5.025000e+01
319.968018	1.319749	city	10	1	1.062524	1.062524	0	1	0	0	CorrectCommission	0.135626	0.920120	0	0	5.037500e+01
321.314362	1.372900	city	2	1	1.074327	1.074327	0	1	0	0	CorrectCommission	0.074032	0.919243	0	0	5.050000e+01
322.653870	1.306143	city	3	1	1.327508	1.327508	0	1	0	0	CorrectCommission	1.247196	0.919851	0	0	5.062500e+01
323.966766	1.319642	city	2	1	1.416611	1.416611	0	1	0	0	CorrectCommission	1.712180	0.921031	0	0	5.075000e+01
325.279694	1.306240	city	5	1	1.439173	1.439173	0	1	0	0	CorrectCommission	1.829922	0.921818	0	0	5.087500e+01
326.572571	1.279461	city	4	1	1.344382	1.344382	0	1	0	0	CorrectCommission	1.335251	0.921415	0	0	51
327.932129	1.439699	city	9	1	1.150564	1.150564	0	1	0	0	CorrectCommission	0.323812	0.919254	0	0	5.112500e+01
329.305054	1.306159	city	10	1	0.858033	0.858033	0	1	0	0	CorrectCommission	1.202766	0.915052	0	0	5.125000e+01
330.637939	1.359559	city	8	1	1.020472	1.020472	0	1	0	0	CorrectCommission	0.355073	0.908702	0	0	5.137500e+01
332.004120	1.372858	city	6	1	1.115686	1.115686	0	1	0	0	CorrectCommission	0.141802	0.900260	0	0	5.150000e+01
333.343689	1.306278	city	10	1	1.095465	1.095465	0	1	0	0	CorrectCommission	0.036277	0.889808	0	0	5.162500e+01
334.643219	1.292736	city	6	1	1.542700	1.542700	0	1	0	0	CorrectCommission	2.370174	0.877455	0	0	5.175000e+01
335.962677	1.346217	city	4	1	1.405864	1.405864	0	1	0	0	CorrectCommission	1.656098	0.863303	0	0	5.187500e+01
340.574585	7.877588	break	0	1	1.222550	1.222550	0	0	0	0	ThoughtProbe	0.699470	0.847587	0	52	52
345.213135	1.399515	city	9	1	0.924939	0.924939	0	1	0	0	CorrectCommission	0.853615	0.830729	0	0	5.191176e+01
346.572693	1.319570	city	5	1	1.206147	1.206147	0	1	0	0	CorrectCommission	0.613873	0.813274	0	0	5.182353e+01
347.878906	1.292891	city	6	1	1.073638	1.073638	0	1	0	0	CorrectCommission	0.077629	0.795985	0	0	5.173529e+01
349.191803	1.332895	mountain	3	1	0.955871	0.955871	0	0	1	0	CommissionError	0.692195	0.779764	0	0	5.164706e+01
350.517975	1.319416	city	7	1	1.418385	1.418385	0	1	0	0	CorrectCommission	1.721440	0.765525	1	0	5.155882e+01
351.870911	1.386490	city	8	1	1.218884	1.218884	0	1	0	0	CorrectCommission	0.680341	0.754080	1	0	5.147059e+01
353.230469	1.332621	city	7	1	1.016308	1.016308	0	1	0	0	CorrectCommission	0.376805	0.746106	1	0	5.138235e+01
354.563293	1.333054	city	1	1	0.957953	0.957953	0	1	0	0	CorrectCommission	0.681331	0.742002	1	0	5.129412e+01
355.896271	1.332891	city	10	1	1.106004	1.106004	0	1	0	0	CorrectCommission	0.091276	0.741848	1	0	5.120588e+01
357.215851	1.306258	city	1	1	1.088600	1.088600	0	1	0	0	CorrectCommission	0.000454	0.745460	1	0	5.111765e+01
358.515350	1.292726	city	7	1	1.486281	1.486281	0	1	0	0	CorrectCommission	2.075754	0.752339	1	0	5.102941e+01
359.848236	1.373064	city	2	1	0.998036	0.998036	0	1	0	0	CorrectCommission	0.472159	0.761795	1	0	5.094118e+01
361.194519	1.319463	city	9	1	0.982122	0.982122	0	1	0	0	CorrectCommission	0.555203	0.773184	1	0	5.085294e+01
362.500732	1.293014	city	7	1	0.955150	0.955150	0	1	0	0	CorrectCommission	0.695958	0.785894	0	0	5.076471e+01
363.827026	1.359571	city	5	1	0.794826	0.794826	0	1	0	0	CorrectCommission	1.532612	0.799505	0	0	5.067647e+01
365.166901	1.320175	city	10	1	0.930042	0.930042	0	1	0	0	CorrectCommission	0.826983	0.813760	0	0	5.058824e+01
366.493042	1.332086	city	9	1	0.965378	0.965378	0	1	0	0	CorrectCommission	0.642585	0.828631	0	0	5.050000e+01
367.805542	1.292903	city	2	1	0.979184	0.979184	0	1	0	0	CorrectCommission	0.570537	0.844163	0	0	5.041176e+01
369.118530	1.333084	city	4	1	1.185036	1.185036	0	1	0	0	CorrectCommission	0.503706	0.860393	0	0	5.032353e+01
370.458191	1.346267	city	1	1	0.876848	0.876848	0	1	0	0	CorrectCommission	1.104579	0.877225	0	0	5.023529e+01
371.804413	1.346156	city	7	1	1.186261	1.186261	0	1	0	0	CorrectCommission	0.510098	0.894405	0	0	5.014706e+01
373.157318	1.359630	city	6	1	1.310115	1.310115	0	1	0	0	CorrectCommission	1.156432	0.911525	0	0	5.005882e+01
374.483551	1.292852	mountain	8	0	0.000000	1.366186	1	0	0	0	CorrectOmission	1.449038	0.927988	0	0	4.997059e+01
375.783081	1.306235	city	2	1	1.321070	1.321070	0	1	0	0	CorrectCommission	1.213600	0.943113	0	0	4.988235e+01
377.102631	1.332831	city	9	1	1.141364	1.141364	0	1	0	0	CorrectCommission	0.275804	0.956223	0	0	4.979412e+01
378.435425	1.332785	city	3	1	0.980460	0.980460	0	1	0	0	CorrectCommission	0.563875	0.966732	0	0	4.970588e+01
379.755035	1.306392	city	8	1	0.879888	0.879888	0	1	0	0	CorrectCommission	1.088714	0.974178	0	0	4.961765e+01
381.081329	1.346253	city	9	1	0.848499	0.848499	0	1	0	0	CorrectCommission	1.252516	0.978341	0	0	4.952941e+01
382.414246	1.319560	city	10	1	0.596940	0.596940	0	1	0	0	CorrectCommission	2.565280	0.979255	0	0	4.944118e+01
383.747131	1.346222	city	4	1	1.022946	1.022946	0	1	0	0	CorrectCommission	0.342164	0.977171	0	0	4.935294e+01
385.133270	1.426013	city	2	1	1.208849	1.208849	0	1	0	0	CorrectCommission	0.627975	0.972530	0	0	4.926471e+01
386.486145	1.279740	city	3	1	1.396211	1.396211	0	1	0	0	CorrectCommission	1.605723	0.965769	0	0	4.917647e+01
387.792389	1.332747	city	9	1	1.109740	1.109740	0	1	0	0	CorrectCommission	0.110770	0.957213	0	0	4.908824e+01
391.977600	7.037698	break	0	0	0.000000	1.035605	0	0	0	0	ThoughtProbe	0.276105	0.947099	0	49	49
396.162872	1.332866	city	5	1	1.160111	1.160111	0	1	0	0	CorrectCommission	0.373632	0.935446	0	0	4.905000e+01
397.469177	1.279741	city	2	1	1.469564	1.469564	0	1	0	0	CorrectCommission	1.988514	0.922160	0	0	4.910000e+01
398.748810	1.279513	mountain	9	0	0.000000	1.441514	1	0	0	0	CorrectOmission	1.842139	0.907071	0	0	4.915000e+01
400.061737	1.346322	city	2	1	1.283558	1.283558	0	1	0	0	CorrectCommission	1.017845	0.890138	0	0	4.920000e+01
401.414673	1.359544	city	4	1	1.203291	1.203291	0	1	0	0	CorrectCommission	0.598969	0.871474	0	0	4.925000e+01
402.767456	1.346058	city	8	1	0.918752	0.918752	0	1	0	0	CorrectCommission	0.885900	0.851347	0	0	4.930000e+01
404.113708	1.346399	city	5	1	0.980930	0.980930	0	1	0	0	CorrectCommission	0.561423	0.830139	0	0	4.935000e+01
405.446594	1.319421	city	8	1	1.030980	1.030980	0	1	0	0	CorrectCommission	0.300239	0.808251	0	0	4.940000e+01
406.786194	1.359779	city	1	1	1.254138	1.254138	0	1	0	0	CorrectCommission	0.864316	0.786024	0	0	4.945000e+01
408.125824	1.319462	city	10	1	0.899945	0.899945	0	1	0	0	CorrectCommission	0.984045	0.763594	1	0	4.950000e+01
409.425262	1.279408	city	9	1	1.305299	1.305299	0	1	0	0	CorrectCommission	1.131296	0.740886	1	0	4.955000e+01
410.738159	1.346401	city	6	1	1.177262	1.177262	0	1	0	0	CorrectCommission	0.463136	0.717617	1	0	4.960000e+01
412.051086	1.279428	mountain	1	0	0.000000	1.157150	1	0	0	0	CorrectOmission	0.358180	0.693371	1	0	4.965000e+01
413.390625	1.399677	city	5	1	1.061077	1.061077	0	1	0	0	CorrectCommission	0.143179	0.667676	1	0	4.970000e+01
414.756866	1.332822	city	7	1	0.705156	0.705156	0	1	0	0	CorrectCommission	2.000552	0.640137	1	0	4.975000e+01
416.083130	1.319675	city	1	1	1.165810	1.165810	0	1	0	0	CorrectCommission	0.403372	0.610534	1	0	4.980000e+01
417.402588	1.319232	city	7	1	1.104150	1.104150	0	1	0	0	CorrectCommission	0.081600	0.578983	1	0	4.985000e+01
418.715393	1.306378	city	4	1	1.317163	1.317163	0	1	0	0	CorrectCommission	1.193212	0.545969	1	0	4.990000e+01
420.048370	1.359557	city	10	1	0.930880	0.930880	0	1	0	0	CorrectCommission	0.822609	0.512288	1	0	4.995000e+01
421.394653	1.333048	city	5	1	1.116218	1.116218	0	1	0	0	CorrectCommission	0.144577	0.479014	1	0	50
422.740875	1.359405	city	7	1	1.122283	1.122283	0	1	0	0	CorrectCommission	0.176227	0.447396	1	0	5.005000e+01
424.107117	1.373046	city	9	1	1.067116	1.067116	0	1	0	0	CorrectCommission	0.111663	0.418641	1	0	5.010000e+01
425.453400	1.319550	city	10	1	0.958319	0.958319	0	1	0	0	CorrectCommission	0.679418	0.393809	1	0	5.015000e+01
426.766296	1.306237	city	3	1	1.135387	1.135387	0	1	0	0	CorrectCommission	0.244610	0.373628	1	0	5.020000e+01
428.085876	1.332901	city	4	1	1.091281	1.091281	0	1	0	0	CorrectCommission	0.014442	0.358462	1	0	5.025000e+01
429.412109	1.319560	mountain	10	0	0.000000	1.058484	1	0	0	0	CorrectOmission	0.156708	0.348305	1	0	5.030000e+01
430.731689	1.319601	city	2	1	1.083360	1.083360	0	1	0	0	CorrectCommission	0.026890	0.342820	1	0	5.035000e+01
432.044586	1.306199	city	6	1	1.212274	1.212274	0	1	0	0	CorrectCommission	0.645844	0.341444	1	0	5.040000e+01
433.350800	1.306260	city	1	1	1.133987	1.133987	0	1	0	0	CorrectCommission	0.237304	0.343518	1	0	5.045000e+01
434.657043	1.306215	city	10	1	1.191362	1.191362	0	1	0	0	CorrectCommission	0.536715	0.348436	1	0	5.050000e+01
435.976532	1.332749	city	7	1	1.231507	1.231507	0	1	0	0	CorrectCommission	0.746216	0.355707	1	0	5.055000e+01
437.309357	1.332878	city	2	1	1.079043	1.079043	0	1	0	0	CorrectCommission	0.049423	0.365010	1	0	5.060000e+01
438.628937	1.306334	city	6	1	1.012560	1.012560	0	1	0	0	CorrectCommission	0.396365	0.376187	1	0	5.065000e+01
439.941925	1.319647	city	1	1	1.018212	1.018212	0	1	0	0	CorrectCommission	0.366867	0.389153	1	0	5.070000e+01
441.268127	1.332718	city	6	1	1.171724	1.171724	0	1	0	0	CorrectCommission	0.434238	0.403794	1	0	5.075000e+01
442.594360	1.319736	city	9	1	1.109575	1.109575	0	1	0	0	CorrectCommission	0.109911	0.419854	1	0	5.080000e+01
443.900696	1.292926	city	4	1	1.015667	1.015667	0	1	0	0	CorrectCommission	0.380150	0.436859	1	0	5.085000e+01
445.200165	1.306045	city	9	1	1.043521	1.043521	0	1	0	0	CorrectCommission	0.234791	0.454119	1	0	5.090000e+01
446.546387	1.386401	city	8	1	1.033924	1.033924	0	1	0	0	CorrectCommission	0.284875	0.470812	1	0	5.095000e+01
450.565155	6.651101	break	0	0	0.000000	0.963241	0	0	0	0	ThoughtProbe	0.653733	0.486058	1	51	51
454.563751	1.346105	city	9	1	1.010695	1.010695	0	1	0	0	CorrectCommission	0.406097	0.499103	1	0	5.104348e+01
455.889923	1.306231	city	2	1	1.355506	1.355506	0	1	0	0	CorrectCommission	1.393303	0.509495	1	0	5.108696e+01
457.236206	1.386330	city	4	1	1.314953	1.314953	0	1	0	0	CorrectCommission	1.181677	0.517132	1	0	5.113043e+01
458.642578	1.426437	city	3	1	1.112676	1.112676	0	1	0	0	CorrectCommission	0.126095	0.522339	1	0	5.117391e+01
460.022125	1.332681	city	6	1	1.013590	1.013590	0	1	0	0	CorrectCommission	0.390989	0.525754	1	0	5.121739e+01
461.354828	1.332730	city	5	1	0.996420	0.996420	0	1	0	0	CorrectCommission	0.480591	0.528176	1	0	5.126087e+01
462.707733	1.373048	city	10	1	1.041775	1.041775	0	1	0	0	CorrectCommission	0.243902	0.530391	1	0	5.130435e+01
464.054047	1.319563	city	6	1	0.967561	0.967561	0	1	0	0	CorrectCommission	0.631193	0.532992	1	0	5.134783e+01
465.366943	1.306257	mountain	6	0	0.000000	1.082954	1	0	0	0	CorrectOmission	0.029010	0.536234	1	0	5.139130e+01
466.679810	1.319454	city	2	1	1.174046	1.174046	0	1	0	0	CorrectCommission	0.446354	0.540018	1	0	5.143478e+01
467.992706	1.306355	city	5	1	1.026926	1.026926	0	1	0	0	CorrectCommission	0.321392	0.543945	1	0	5.147826e+01
469.338989	1.386192	city	4	1	1.199693	1.199693	0	1	0	0	CorrectCommission	0.580190	0.547435	1	0	5.152174e+01
470.678436	1.292735	mountain	6	0	0.000000	1.338843	1	0	0	0	CorrectOmission	1.306349	0.549909	1	0	5.156522e+01
471.978058	1.306512	city	6	1	1.343954	1.343954	0	1	0	0	CorrectCommission	1.333020	0.550961	1	0	5.160870e+01
473.310974	1.359288	city	1	1	1.114601	1.114601	0	1	0	0	CorrectCommission	0.136139	0.550518	1	0	5.165217e+01
474.663727	1.346219	city	5	1	1.243954	1.243954	0	1	0	0	CorrectCommission	0.811168	0.548884	1	0	5.169565e+01
475.983368	1.293090	city	2	1	1.072013	1.072013	0	1	0	0	CorrectCommission	0.086108	0.546663	1	0	5.173913e+01
477.296265	1.332720	city	3	1	1.207613	1.207613	0	1	0	0	CorrectCommission	0.621525	0.544747	1	0	5.178261e+01
478.629181	1.333070	city	7	1	1.108707	1.108707	0	1	0	0	CorrectCommission	0.105380	0.544204	1	0	5.182609e+01
479.982086	1.372775	city	8	1	1.079180	1.079180	0	1	0	0	CorrectCommission	0.048705	0.546245	1	0	5.186957e+01
481.314819	1.292679	mountain	10	0	0.000000	1.180070	1	0	0	0	CorrectOmission	0.477788	0.552177	1	0	5.191304e+01
482.614441	1.306573	mountain	9	0	0.000000	1.298559	1	0	0	0	CorrectOmission	1.096127	0.563357	1	0	5.195652e+01
483.907501	1.279559	city	7	1	1.321832	1.321832	0	1	0	0	CorrectCommission	1.217577	0.581214	1	0	52
485.260315	1.426056	city	1	1	1.137072	1.137072	0	1	0	0	CorrectCommission	0.253405	0.607117	1	0	5.204348e+01
486.659790	1.372879	city	8	1	0.985848	0.985848	0	1	0	0	CorrectCommission	0.535761	0.642284	1	0	5.208696e+01
488.006104	1.319726	city	5	1	1.037254	1.037254	0	1	0	0	CorrectCommission	0.267499	0.687536	1	0	5.213043e+01
489.325745	1.319565	city	10	1	1.003027	1.003027	0	1	0	0	CorrectCommission	0.446109	0.743086	1	0	5.217391e+01
490.631958	1.292895	city	7	1	1.129834	1.129834	0	1	0	0	CorrectCommission	0.215631	0.808308	0	0	5.221739e+01
491.951447	1.346080	city	8	1	1.004754	1.004754	0	1	0	0	CorrectCommission	0.437101	0.881594	0	0	5.226087e+01
493.284332	1.319705	city	10	1	0.805078	0.805078	0	1	0	0	CorrectCommission	1.479111	0.960349	0	0	5.230435e+01
494.623962	1.359558	city	7	1	1.032147	1.032147	0	1	0	0	CorrectCommission	0.294148	1.041163	0	0	5.234783e+01
495.976868	1.346221	city	9	1	1.015793	1.015793	0	1	0	0	CorrectCommission	0.379493	1.120277	0	0	5.239130e+01
497.316345	1.332732	city	5	1	0.919902	0.919902	0	1	0	0	CorrectCommission	0.879901	1.194016	0	0	5.243478e+01
498.649170	1.332948	city	7	1	1.637757	1.637757	0	1	0	0	CorrectCommission	2.866231	1.259413	0	0	5.247826e+01
499.988831	1.346354	city	3	1	1.711376	1.711376	0	1	0	0	CorrectCommission	3.250412	1.314662	0	0	5.252174e+01
501.328430	1.332861	city	10	1	1.621692	1.621692	0	1	0	0	CorrectCommission	2.782396	1.359538	0	0	5.256522e+01
502.661224	1.332699	city	9	0	0.000000	1.246079	0	0	0	1	OmissionError	0.822257	1.395430	0	0	5.260870e+01
504.014130	1.373087	city	6	1	0.925727	0.925727	0	1	0	0	CorrectCommission	0.849503	1.425139	0	0	5.265217e+01
505.367126	1.332923	city	9	1	1.001825	1.001825	0	1	0	0	CorrectCommission	0.452381	1.452361	0	0	5.269565e+01
506.700012	1.332872	city	3	1	0.835507	0.835507	0	1	0	0	CorrectCommission	1.320317	1.481111	0	0	5.273913e+01
508.046143	1.359403	city	1	1	1.292811	1.292811	0	1	0	0	CorrectCommission	1.066131	1.514995	0	0	5.278261e+01
509.392395	1.333050	city	4	1	1.531219	1.531219	0	1	0	0	CorrectCommission	2.310262	1.556655	0	0	5.282609e+01
510.745331	1.372873	city	9	1	0.880167	0.880167	0	1	0	0	CorrectCommission	1.087258	1.607264	0	0	5.286957e+01
512.111450	1.359386	city	4	1	1.236183	1.236183	0	1	0	0	CorrectCommission	0.770616	1.666462	0	0	5.291304e+01
513.464355	1.346351	city	3	1	0.989697	0.989697	0	1	0	0	CorrectCommission	0.515671	1.732369	0	0	5.295652e+01
517.123413	5.971813	break	0	0	0.000000	0.743212	0	0	0	0	ThoughtProbe	1.801959	1.801959	0	53	53
