onset	duration	trial_type	image_type	Press	ReactionTime	ReactionTime_Interpolated	CorrectOmission	CorrectCommission	CommissionError	OmissionError	response_type	nonsmoothVarianceTimeCourse	VarianceTimeCourse	In_the_Zone	ThoughtProbe	ThoughtProbe_Interpolated
0.653069	1.279434	city	7	1	1.234287	1.234287	0	1	0	0	CorrectCommission	0.286310	0.286310	1	0	91
1.932653	1.279734	city	8	1	1.087822	1.087822	0	1	0	0	CorrectCommission	0.665251	0.344753	1	0	91
3.212305	1.279569	city	7	1	1.033100	1.033100	0	1	0	0	CorrectCommission	1.020776	0.402555	1	0	91
4.491850	1.279522	city	10	1	1.128145	1.128145	0	1	0	0	CorrectCommission	0.403282	0.459093	1	0	91
5.778057	1.292892	city	6	1	1.113056	1.113056	0	1	0	0	CorrectCommission	0.501313	0.513764	1	0	91
7.064269	1.279530	city	2	1	1.072645	1.072645	0	1	0	0	CorrectCommission	0.763859	0.565947	1	0	91
8.343895	1.279724	city	9	1	1.121967	1.121967	0	1	0	0	CorrectCommission	0.443418	0.614932	1	0	91
9.623461	1.279408	mountain	9	0	0.000000	1.230687	1	0	0	0	CorrectOmission	0.262923	0.659902	1	0	91
10.903034	1.279739	city	1	1	1.235381	1.235381	0	1	0	0	CorrectCommission	0.293418	0.699910	1	0	91
12.182704	1.279601	city	6	1	0.972625	0.972625	0	1	0	0	CorrectCommission	1.413675	0.733882	1	0	91
13.462288	1.279567	city	2	1	1.015551	1.015551	0	1	0	0	CorrectCommission	1.134787	0.760695	1	0	91
14.741867	1.279591	city	9	1	1.074701	1.074701	0	1	0	0	CorrectCommission	0.750501	0.779367	1	0	91
16.021441	1.279556	city	5	1	1.088417	1.088417	0	1	0	0	CorrectCommission	0.661384	0.789214	0	0	91
17.301018	1.279598	city	7	1	0.972907	0.972907	0	1	0	0	CorrectCommission	1.411841	0.789996	0	0	91
18.580523	1.279412	mountain	1	0	0.000000	1.007937	1	0	0	0	CorrectOmission	1.184257	0.782018	0	0	91
19.860012	1.279567	city	1	1	1.074834	1.074834	0	1	0	0	CorrectCommission	0.749632	0.766223	1	0	91
21.139669	1.279746	mountain	10	0	0.000000	1.054927	1	0	0	0	CorrectOmission	0.878967	0.744137	1	0	91
22.419294	1.279505	city	3	1	1.032256	1.032256	0	1	0	0	CorrectCommission	1.026260	0.717721	1	0	91
23.698879	1.279666	city	5	1	1.090861	1.090861	0	1	0	0	CorrectCommission	0.645509	0.689195	1	0	91
24.978504	1.279582	city	3	1	1.133045	1.133045	0	1	0	0	CorrectCommission	0.371443	0.660827	1	0	91
26.258011	1.279434	city	10	1	1.236687	1.236687	0	1	0	0	CorrectCommission	0.301905	0.634675	1	0	91
27.537569	1.279681	city	2	1	1.230646	1.230646	0	1	0	0	CorrectCommission	0.262655	0.612404	1	0	91
28.817162	1.279503	city	9	1	1.103151	1.103151	0	1	0	0	CorrectCommission	0.565665	0.595194	1	0	91
30.096727	1.279628	mountain	3	0	0.000000	1.195548	1	0	0	0	CorrectOmission	0.034627	0.583738	1	0	91
31.376366	1.279648	city	8	1	1.311468	1.311468	0	1	0	0	CorrectCommission	0.787748	0.578302	1	0	91
32.662548	1.292721	city	4	1	1.254543	1.254543	0	1	0	0	CorrectCommission	0.417914	0.578866	1	0	91
33.948795	1.279770	city	2	1	1.074485	1.074485	0	1	0	0	CorrectCommission	0.751902	0.585286	1	0	91
35.241776	1.306194	city	10	1	0.942139	0.942139	0	1	0	0	CorrectCommission	1.611740	0.597349	1	0	91
36.534626	1.279501	city	5	1	1.143376	1.143376	0	1	0	0	CorrectCommission	0.304328	0.614846	1	0	91
37.827457	1.306168	city	8	1	1.153586	1.153586	0	1	0	0	CorrectCommission	0.237992	0.637560	1	0	91
39.120426	1.279767	city	9	1	1.186577	1.186577	0	1	0	0	CorrectCommission	0.023655	0.665082	1	0	91
40.406731	1.292840	city	1	1	1.106644	1.106644	0	1	0	0	CorrectCommission	0.542970	0.696717	1	0	91
41.692883	1.279462	city	2	1	1.141180	1.141180	0	1	0	0	CorrectCommission	0.318591	0.731381	1	0	91
42.999153	1.333079	city	3	1	1.050580	1.050580	0	1	0	0	CorrectCommission	0.907213	0.767590	1	0	91
44.312141	1.292903	city	4	1	0.993946	0.993946	0	1	0	0	CorrectCommission	1.275156	0.803487	0	0	91
45.598366	1.279542	city	3	1	1.040236	1.040236	0	1	0	0	CorrectCommission	0.974415	0.836989	0	0	91
46.877853	1.279438	city	7	1	1.127834	1.127834	0	1	0	0	CorrectCommission	0.405300	0.866009	0	0	91
48.157387	1.279630	city	1	1	1.034121	1.034121	0	1	0	0	CorrectCommission	1.014144	0.888716	0	0	91
49.450367	1.306330	city	8	1	0.889341	0.889341	0	1	0	0	CorrectCommission	1.954759	0.903676	0	0	91
50.756660	1.306258	city	10	1	0.988961	0.988961	0	1	0	0	CorrectCommission	1.307544	0.910044	0	0	91
52.062840	1.306100	city	5	1	1.274164	1.274164	0	1	0	0	CorrectCommission	0.545386	0.907723	0	0	91
53.355690	1.279599	city	9	1	1.340804	1.340804	0	1	0	0	CorrectCommission	0.978340	0.897270	0	0	91
54.635345	1.279709	city	7	1	1.443418	1.443418	0	1	0	0	CorrectCommission	1.645008	0.879848	0	0	91
55.934967	1.319534	city	1	1	1.267502	1.267502	0	1	0	0	CorrectCommission	0.502104	0.857091	0	0	91
57.234528	1.279587	city	7	1	1.088517	1.088517	0	1	0	0	CorrectCommission	0.660736	0.830974	0	0	91
57.874321	13.875446	break	0	0	0.000000	1.083102	0	0	0	0	ThoughtProbe	0.695915	0.803594	0	91	91
72.389565	1.279597	city	6	1	1.190760	1.190760	0	1	0	0	CorrectCommission	0.003521	0.777030	1	0	9.052500e+01
73.682480	1.306229	mountain	8	0	0.000000	1.350992	1	0	0	0	CorrectOmission	1.044530	0.753242	1	0	9.005000e+01
74.975304	1.279418	city	6	1	1.417727	1.417727	0	1	0	0	CorrectCommission	1.478100	0.733929	1	0	8.957500e+01
76.261475	1.292935	city	7	1	1.244893	1.244893	0	1	0	0	CorrectCommission	0.355219	0.720443	1	0	8.910000e+01
77.567703	1.319517	city	1	1	1.302262	1.302262	0	1	0	0	CorrectCommission	0.727934	0.713744	1	0	8.862500e+01
78.867340	1.279756	city	4	1	1.284819	1.284819	0	1	0	0	CorrectCommission	0.614614	0.714245	1	0	8.815000e+01
80.147018	1.279594	city	8	1	1.263077	1.263077	0	1	0	0	CorrectCommission	0.473356	0.721712	1	0	8.767500e+01
81.426544	1.279467	mountain	9	0	0.000000	1.229663	1	0	0	0	CorrectOmission	0.256271	0.735198	1	0	8.720000e+01
82.706123	1.279682	city	3	1	1.201503	1.201503	0	1	0	0	CorrectCommission	0.073317	0.753086	1	0	8.672500e+01
83.985748	1.279577	city	10	1	1.195520	1.195520	0	1	0	0	CorrectCommission	0.034450	0.773211	1	0	8.625000e+01
85.265327	1.279583	city	8	1	1.433361	1.433361	0	1	0	0	CorrectCommission	1.579668	0.793093	0	0	8.577500e+01
86.578239	1.346227	city	10	1	1.356291	1.356291	0	1	0	0	CorrectCommission	1.078958	0.810238	0	0	8.530000e+01
87.891052	1.279411	city	1	1	1.371643	1.371643	0	1	0	0	CorrectCommission	1.178699	0.822576	0	0	8.482500e+01
89.203865	1.346211	city	7	1	1.607467	1.607467	0	1	0	0	CorrectCommission	2.710815	0.828689	0	0	8.435000e+01
90.530182	1.306419	city	2	1	1.221935	1.221935	0	1	0	0	CorrectCommission	0.206060	0.828004	0	0	8.387500e+01
91.823174	1.279572	city	1	1	1.098388	1.098388	0	1	0	0	CorrectCommission	0.596609	0.820939	0	0	8.340000e+01
93.102745	1.279571	city	4	1	1.085829	1.085829	0	1	0	0	CorrectCommission	0.678204	0.808689	0	0	8.292500e+01
94.382240	1.279411	city	6	1	1.050967	1.050967	0	1	0	0	CorrectCommission	0.904697	0.793023	0	0	8.245000e+01
95.681808	1.319724	city	5	1	1.075642	1.075642	0	1	0	0	CorrectCommission	0.744387	0.775949	1	0	8.197500e+01
96.981468	1.279604	city	3	1	1.076474	1.076474	0	1	0	0	CorrectCommission	0.738977	0.759420	1	0	8.150000e+01
98.267708	1.292871	mountain	8	0	0.000000	1.219769	1	0	0	0	CorrectOmission	0.191993	0.745023	1	0	8.102500e+01
99.560616	1.292939	city	8	1	1.307775	1.307775	0	1	0	0	CorrectCommission	0.763757	0.733793	1	0	8.055000e+01
100.853455	1.292748	city	10	1	1.142741	1.142741	0	1	0	0	CorrectCommission	0.308450	0.726093	1	0	8.007500e+01
102.153023	1.306387	city	3	1	1.208721	1.208721	0	1	0	0	CorrectCommission	0.120210	0.721670	1	0	7.960000e+01
103.466003	1.319581	city	6	1	0.900262	0.900262	0	1	0	0	CorrectCommission	1.883809	0.719804	1	0	7.912500e+01
104.765503	1.279411	city	1	1	1.037809	1.037809	0	1	0	0	CorrectCommission	0.990183	0.719492	1	0	7.865000e+01
106.051735	1.293047	city	6	1	1.241574	1.241574	0	1	0	0	CorrectCommission	0.333653	0.719748	1	0	7.817500e+01
107.351349	1.306185	city	7	1	1.232965	1.232965	0	1	0	0	CorrectCommission	0.277720	0.719799	1	0	7.770000e+01
108.644180	1.279482	city	3	1	1.038314	1.038314	0	1	0	0	CorrectCommission	0.986901	0.719301	1	0	7.722500e+01
109.930389	1.292933	city	1	1	1.041577	1.041577	0	1	0	0	CorrectCommission	0.965701	0.718457	1	0	7.675000e+01
111.216713	1.279710	city	8	1	1.071637	1.071637	0	1	0	0	CorrectCommission	0.770404	0.718090	1	0	7.627500e+01
112.502953	1.292769	city	5	1	1.031655	1.031655	0	1	0	0	CorrectCommission	1.030166	0.719563	1	0	7.580000e+01
113.802528	1.306383	city	10	1	1.103136	1.103136	0	1	0	0	CorrectCommission	0.565760	0.724584	1	0	7.532500e+01
115.095505	1.279573	city	4	1	1.363306	1.363306	0	1	0	0	CorrectCommission	1.124530	0.735002	1	0	7.485000e+01
116.388351	1.306123	city	3	1	1.219671	1.219671	0	1	0	0	CorrectCommission	0.191356	0.752477	1	0	7.437500e+01
117.681259	1.279692	city	1	1	1.132142	1.132142	0	1	0	0	CorrectCommission	0.377313	0.778120	1	0	7.390000e+01
118.960892	1.279581	city	6	1	1.148568	1.148568	0	1	0	0	CorrectCommission	0.270596	0.812242	0	0	7.342500e+01
120.247139	1.292911	city	5	1	1.210597	1.210597	0	1	0	0	CorrectCommission	0.132398	0.854153	0	0	7.295000e+01
121.586670	1.386145	city	10	1	1.244074	1.244074	0	1	0	0	CorrectCommission	0.349899	0.902123	0	0	7.247500e+01
125.252045	5.944615	break	0	0	0.000000	1.401847	0	0	0	0	ThoughtProbe	1.374927	0.953476	0	72	72
128.877518	1.306329	city	1	1	1.500296	1.500296	0	1	0	0	CorrectCommission	2.014539	1.004859	0	0	7.245652e+01
130.177124	1.292877	mountain	8	0	0.000000	1.355804	1	0	0	0	CorrectOmission	1.075791	1.052618	0	0	7.291304e+01
131.483398	1.319678	city	10	1	1.249945	1.249945	0	1	0	0	CorrectCommission	0.388040	1.093219	0	0	7.336957e+01
132.783035	1.279587	city	8	1	1.464295	1.464295	0	1	0	0	CorrectCommission	1.780643	1.123594	0	0	7.382609e+01
134.062622	1.279582	mountain	1	0	0.000000	1.512624	1	0	0	0	CorrectOmission	2.094633	1.141449	0	0	7.428261e+01
135.342148	1.279468	city	2	1	1.445116	1.445116	0	1	0	0	CorrectCommission	1.656040	1.145540	0	0	7.473913e+01
136.654922	1.346079	city	9	1	1.311952	1.311952	0	1	0	0	CorrectCommission	0.790890	1.135690	0	0	7.519565e+01
137.967865	1.279831	city	2	1	0.966827	0.966827	0	1	0	0	CorrectCommission	1.451345	1.112800	0	0	7.565217e+01
139.254227	1.292885	city	7	1	0.983550	0.983550	0	1	0	0	CorrectCommission	1.342695	1.078646	0	0	7.610870e+01
140.547073	1.292798	city	1	1	0.950568	0.950568	0	1	0	0	CorrectCommission	1.556978	1.035684	0	0	7.656522e+01
141.839996	1.293044	city	4	1	1.297995	1.297995	0	1	0	0	CorrectCommission	0.700216	0.986722	0	0	7.702174e+01
143.132950	1.292872	city	6	1	1.250773	1.250773	0	1	0	0	CorrectCommission	0.393422	0.934664	0	0	7.747826e+01
144.425858	1.292942	city	1	1	1.153720	1.153720	0	1	0	0	CorrectCommission	0.237119	0.882263	0	0	7.793478e+01
145.712097	1.279555	city	7	1	1.463536	1.463536	0	1	0	0	CorrectCommission	1.775713	0.831878	0	0	7.839130e+01
146.991684	1.279602	city	3	1	1.289806	1.289806	0	1	0	0	CorrectCommission	0.647011	0.785375	0	0	7.884783e+01
148.271271	1.279573	city	2	1	1.149986	1.149986	0	1	0	0	CorrectCommission	0.261381	0.744138	1	0	7.930435e+01
149.577515	1.332903	city	5	1	1.118765	1.118765	0	1	0	0	CorrectCommission	0.464223	0.709069	1	0	7.976087e+01
150.890396	1.292885	city	9	1	1.071230	1.071230	0	1	0	0	CorrectCommission	0.773046	0.680605	1	0	8.021739e+01
152.183319	1.292941	city	5	1	1.146485	1.146485	0	1	0	0	CorrectCommission	0.284125	0.658866	1	0	8.067391e+01
153.469574	1.279571	mountain	2	0	0.000000	1.285225	1	0	0	0	CorrectOmission	0.617250	0.643767	1	0	8.113043e+01
154.749130	1.279557	city	7	1	1.360458	1.360458	0	1	0	0	CorrectCommission	1.106029	0.635060	1	0	8.158696e+01
156.048615	1.319399	city	3	1	1.245193	1.245193	0	1	0	0	CorrectCommission	0.357164	0.632404	1	0	8.204348e+01
157.354767	1.292901	city	6	1	1.143520	1.143520	0	1	0	0	CorrectCommission	0.303390	0.635407	1	0	8.250000e+01
158.641098	1.279774	city	2	1	1.076660	1.076660	0	1	0	0	CorrectCommission	0.737773	0.643606	1	0	8.295652e+01
159.920776	1.279576	city	8	1	1.017757	1.017757	0	1	0	0	CorrectCommission	1.120455	0.656424	1	0	8.341304e+01
161.213684	1.306238	city	2	1	1.208214	1.208214	0	1	0	0	CorrectCommission	0.116920	0.673098	1	0	8.386957e+01
162.519913	1.306213	city	8	1	1.165761	1.165761	0	1	0	0	CorrectCommission	0.158894	0.692701	1	0	8.432609e+01
163.812744	1.279447	mountain	4	0	0.000000	1.262403	1	0	0	0	CorrectOmission	0.468977	0.714118	1	0	8.478261e+01
165.092239	1.279560	city	4	1	1.369012	1.369012	0	1	0	0	CorrectCommission	1.161604	0.736123	1	0	8.523913e+01
166.371857	1.279664	city	7	1	1.356461	1.356461	0	1	0	0	CorrectCommission	1.080061	0.757441	1	0	8.569565e+01
167.651398	1.279417	city	3	1	1.259623	1.259623	0	1	0	0	CorrectCommission	0.450917	0.776946	1	0	8.615217e+01
168.937668	1.293144	city	1	1	1.484487	1.484487	0	1	0	0	CorrectCommission	1.911830	0.793769	0	0	8.660870e+01
170.257355	1.346218	city	5	1	1.239857	1.239857	0	1	0	0	CorrectCommission	0.322500	0.807360	0	0	8.706522e+01
171.570251	1.279583	city	8	1	1.097474	1.097474	0	1	0	0	CorrectCommission	0.602545	0.817634	0	0	8.752174e+01
172.849854	1.279602	city	5	1	1.071132	1.071132	0	1	0	0	CorrectCommission	0.773683	0.824859	0	0	8.797826e+01
174.129425	1.279555	city	6	1	1.449547	1.449547	0	1	0	0	CorrectCommission	1.684829	0.829573	0	0	8.843478e+01
175.442245	1.346084	city	5	1	1.133655	1.133655	0	1	0	0	CorrectCommission	0.367482	0.832496	0	0	8.889130e+01
176.761810	1.293039	city	4	1	1.092122	1.092122	0	1	0	0	CorrectCommission	0.637318	0.834383	0	0	8.934783e+01
178.054703	1.292753	city	8	1	0.998089	0.998089	0	1	0	0	CorrectCommission	1.248237	0.835765	0	0	8.980435e+01
179.340881	1.279601	city	4	1	1.303578	1.303578	0	1	0	0	CorrectCommission	0.736488	0.836846	0	0	9.026087e+01
180.633835	1.306311	city	7	1	1.265595	1.265595	0	1	0	0	CorrectCommission	0.489715	0.837456	0	0	9.071739e+01
181.933472	1.292963	city	9	1	1.143101	1.143101	0	1	0	0	CorrectCommission	0.306114	0.837017	0	0	9.117391e+01
183.226425	1.292939	city	8	1	1.048036	1.048036	0	1	0	0	CorrectCommission	0.923736	0.834638	0	0	9.163043e+01
184.512665	1.279540	city	6	1	1.050640	1.050640	0	1	0	0	CorrectCommission	0.906818	0.829304	0	0	9.208696e+01
185.798904	1.292950	city	4	1	1.061584	1.061584	0	1	0	0	CorrectCommission	0.835717	0.820103	0	0	9.254348e+01
186.445389	8.143811	break	0	0	0.000000	0.986945	0	0	0	0	ThoughtProbe	1.320639	0.806478	0	93	93
195.242340	1.306281	mountain	10	0	0.000000	0.921133	1	0	0	0	CorrectOmission	1.748214	0.788369	0	0	9.275000e+01
196.548569	1.306195	city	3	1	0.958557	0.958557	0	1	0	0	CorrectCommission	1.505074	0.766337	1	0	9.250000e+01
197.841476	1.279595	city	5	1	1.193627	1.193627	0	1	0	0	CorrectCommission	0.022148	0.741511	1	0	9.225000e+01
199.134659	1.306784	city	9	1	1.254647	1.254647	0	1	0	0	CorrectCommission	0.418587	0.715447	1	0	92
200.427582	1.279069	city	4	1	1.253718	1.253718	0	1	0	0	CorrectCommission	0.412552	0.689796	1	0	9.175000e+01
201.713623	1.293006	city	7	1	1.225164	1.225164	0	1	0	0	CorrectCommission	0.227043	0.666093	1	0	9.150000e+01
203.006577	1.292906	city	3	1	1.109311	1.109311	0	1	0	0	CorrectCommission	0.525643	0.645555	1	0	9.125000e+01
204.292770	1.279475	city	5	1	1.252988	1.252988	0	1	0	0	CorrectCommission	0.407811	0.628899	1	0	91
205.572281	1.279543	city	6	1	1.178531	1.178531	0	1	0	0	CorrectCommission	0.075930	0.616384	1	0	9.075000e+01
206.858582	1.293076	city	2	1	0.942263	0.942263	0	1	0	0	CorrectCommission	1.610931	0.607823	1	0	9.050000e+01
208.144913	1.279571	mountain	1	0	0.000000	1.001222	1	0	0	0	CorrectOmission	1.227880	0.602704	1	0	9.025000e+01
209.424469	1.279537	city	2	1	1.155655	1.155655	0	1	0	0	CorrectCommission	0.224552	0.600366	1	0	90
210.704041	1.279623	city	7	1	1.205806	1.205806	0	1	0	0	CorrectCommission	0.101277	0.600138	1	0	8.975000e+01
211.990311	1.292913	city	6	1	1.222987	1.222987	0	1	0	0	CorrectCommission	0.212897	0.601418	1	0	8.950000e+01
213.289886	1.306233	city	9	1	1.111874	1.111874	0	1	0	0	CorrectCommission	0.508992	0.603717	1	0	8.925000e+01
214.582794	1.279580	city	8	1	1.035872	1.035872	0	1	0	0	CorrectCommission	1.002768	0.606723	1	0	89
215.869034	1.292889	city	9	1	0.979408	0.979408	0	1	0	0	CorrectCommission	1.369605	0.610302	1	0	8.875000e+01
217.181854	1.332748	city	3	1	1.162014	1.162014	0	1	0	0	CorrectCommission	0.183237	0.614475	1	0	8.850000e+01
218.488083	1.279721	city	9	1	1.073531	1.073531	0	1	0	0	CorrectCommission	0.758097	0.619361	1	0	8.825000e+01
219.774353	1.292832	city	2	1	1.159851	1.159851	0	1	0	0	CorrectCommission	0.197288	0.625105	1	0	88
221.080612	1.319662	city	5	1	1.220713	1.220713	0	1	0	0	CorrectCommission	0.198126	0.631851	1	0	8.775000e+01
222.380127	1.279392	city	1	1	1.264527	1.264527	0	1	0	0	CorrectCommission	0.482777	0.639693	1	0	8.750000e+01
223.659714	1.279761	city	4	1	1.441095	1.441095	0	1	0	0	CorrectCommission	1.629918	0.648647	1	0	8.725000e+01
224.959351	1.319514	city	6	1	1.325246	1.325246	0	1	0	0	CorrectCommission	0.877264	0.658618	1	0	87
226.272171	1.306122	city	7	1	1.155817	1.155817	0	1	0	0	CorrectCommission	0.223501	0.669525	1	0	8.675000e+01
227.565094	1.279733	mountain	7	0	0.000000	1.194467	1	0	0	0	CorrectOmission	0.027609	0.681292	1	0	8.650000e+01
228.844604	1.279287	city	2	1	1.306899	1.306899	0	1	0	0	CorrectCommission	0.758064	0.693918	1	0	8.625000e+01
230.130844	1.293199	city	7	1	1.358812	1.358812	0	1	0	0	CorrectCommission	1.095336	0.707550	1	0	86
231.450562	1.346240	city	6	1	1.124951	1.124951	0	1	0	0	CorrectCommission	0.424031	0.722526	1	0	8.575000e+01
232.790131	1.332901	city	9	1	1.005996	1.005996	0	1	0	0	CorrectCommission	1.196866	0.739417	1	0	8.550000e+01
234.123016	1.332868	city	2	1	1.019952	1.019952	0	1	0	0	CorrectCommission	1.106195	0.758905	1	0	8.525000e+01
235.435913	1.292910	city	4	1	1.236532	1.236532	0	1	0	0	CorrectCommission	0.300899	0.781693	0	0	85
236.742142	1.319564	city	8	1	1.021204	1.021204	0	1	0	0	CorrectCommission	1.098065	0.808353	0	0	8.475000e+01
238.048325	1.292777	city	7	1	1.129446	1.129446	0	1	0	0	CorrectCommission	0.394830	0.839065	0	0	8.450000e+01
239.361145	1.332864	city	3	1	1.132062	1.132062	0	1	0	0	CorrectCommission	0.377833	0.873462	0	0	8.425000e+01
240.667435	1.279737	city	8	1	1.031859	1.031859	0	1	0	0	CorrectCommission	1.028839	0.910483	0	0	84
241.967102	1.319591	city	6	1	1.016918	1.016918	0	1	0	0	CorrectCommission	1.125910	0.948332	0	0	8.375000e+01
243.266693	1.279586	city	4	1	1.187529	1.187529	0	1	0	0	CorrectCommission	0.017469	0.984649	0	0	8.350000e+01
244.559509	1.306042	city	5	1	1.085073	1.085073	0	1	0	0	CorrectCommission	0.683115	1.016787	0	0	8.325000e+01
245.212524	8.690493	break	0	0	0.000000	1.291179	0	0	0	0	ThoughtProbe	0.655932	1.042171	0	83	83
254.542877	1.279725	mountain	4	0	0.000000	1.575707	1	0	0	0	CorrectOmission	2.504479	1.058726	0	0	8.290000e+01
255.822464	1.279424	city	5	1	1.708518	1.708518	0	1	0	0	CorrectCommission	3.367329	1.065199	0	0	8.280000e+01
257.128693	1.333049	city	6	1	1.459469	1.459469	0	1	0	0	CorrectCommission	1.749290	1.061353	0	0	8.270000e+01
258.454926	1.319432	city	9	1	1.292749	1.292749	0	1	0	0	CorrectCommission	0.666133	1.048021	0	0	8.260000e+01
259.774506	1.319704	city	10	1	1.114976	1.114976	0	1	0	0	CorrectCommission	0.488836	1.026766	0	0	8.250000e+01
261.080811	1.292932	mountain	3	0	0.000000	1.182999	1	0	0	0	CorrectOmission	0.046899	0.999565	0	0	8.240000e+01
262.380402	1.306239	city	2	1	1.291794	1.291794	0	1	0	0	CorrectCommission	0.659928	0.968409	0	0	8.230000e+01
263.673309	1.279568	city	4	1	1.236337	1.236337	0	1	0	0	CorrectCommission	0.299633	0.934939	0	0	8.220000e+01
264.966125	1.306087	city	1	1	1.395747	1.395747	0	1	0	0	CorrectCommission	1.335300	0.900319	0	0	8.210000e+01
266.299011	1.359684	city	6	1	1.310277	1.310277	0	1	0	0	CorrectCommission	0.780008	0.865123	0	0	82
267.638611	1.319505	city	4	1	1.023596	1.023596	0	1	0	0	CorrectCommission	1.082521	0.829631	0	0	8.190000e+01
268.944794	1.292861	city	10	1	0.935835	0.935835	0	1	0	0	CorrectCommission	1.652693	0.793963	0	0	8.180000e+01
270.231079	1.279688	city	7	1	1.391684	1.391684	0	1	0	0	CorrectCommission	1.308901	0.758366	1	0	8.170000e+01
271.523956	1.306080	city	1	1	1.146158	1.146158	0	1	0	0	CorrectCommission	0.286255	0.723412	1	0	8.160000e+01
272.816895	1.279791	city	7	1	1.322940	1.322940	0	1	0	0	CorrectCommission	0.862281	0.690040	1	0	8.150000e+01
274.116547	1.319511	city	6	1	1.223134	1.223134	0	1	0	0	CorrectCommission	0.213853	0.659525	1	0	8.140000e+01
275.416016	1.279418	city	1	1	1.134143	1.134143	0	1	0	0	CorrectCommission	0.364311	0.633307	1	0	8.130000e+01
276.708832	1.306255	city	7	1	1.204398	1.204398	0	1	0	0	CorrectCommission	0.092130	0.612789	1	0	8.120000e+01
278.008514	1.293077	city	6	1	1.218354	1.218354	0	1	0	0	CorrectCommission	0.182799	0.599191	1	0	8.110000e+01
279.328156	1.346203	city	9	1	1.134165	1.134165	0	1	0	0	CorrectCommission	0.364171	0.593420	1	0	81
280.641022	1.279540	city	3	1	0.978438	0.978438	0	1	0	0	CorrectCommission	1.375906	0.595959	1	0	8.090000e+01
281.933929	1.306293	city	6	1	1.222439	1.222439	0	1	0	0	CorrectCommission	0.209339	0.606863	1	0	8.080000e+01
283.233521	1.292886	city	4	1	0.978815	0.978815	0	1	0	0	CorrectCommission	1.373457	0.625738	1	0	8.070000e+01
284.552979	1.346007	city	8	1	1.152912	1.152912	0	1	0	0	CorrectCommission	0.242371	0.651715	1	0	8.060000e+01
285.872498	1.293060	city	4	1	1.191642	1.191642	0	1	0	0	CorrectCommission	0.009255	0.683552	1	0	8.050000e+01
287.165466	1.292823	city	10	1	1.171807	1.171807	0	1	0	0	CorrectCommission	0.119610	0.719605	1	0	8.040000e+01
288.458405	1.293054	city	9	1	1.206916	1.206916	0	1	0	0	CorrectCommission	0.108488	0.757892	1	0	8.030000e+01
289.744720	1.279580	city	7	1	1.523006	1.523006	0	1	0	0	CorrectCommission	2.162086	0.796239	0	0	8.020000e+01
291.050964	1.332918	city	2	1	1.123894	1.123894	0	1	0	0	CorrectCommission	0.430897	0.832356	0	0	8.010000e+01
292.357208	1.279571	mountain	10	0	0.000000	0.944497	1	0	0	0	CorrectOmission	1.596419	0.864174	0	0	80
293.636780	1.279571	city	2	1	1.016062	1.016062	0	1	0	0	CorrectCommission	1.131472	0.889842	0	0	7.990000e+01
294.929688	1.306255	city	6	1	1.369835	1.369835	0	1	0	0	CorrectCommission	1.166952	0.908000	0	0	7.980000e+01
296.229187	1.292733	city	8	1	1.171149	1.171149	0	1	0	0	CorrectCommission	0.123890	0.917854	0	0	7.970000e+01
297.528748	1.306392	city	10	1	1.120787	1.120787	0	1	0	0	CorrectCommission	0.451086	0.919227	0	0	7.960000e+01
298.821747	1.279601	city	7	1	1.688632	1.688632	0	1	0	0	CorrectCommission	3.238138	0.912524	0	0	7.950000e+01
300.114655	1.306220	city	4	1	1.359864	1.359864	0	1	0	0	CorrectCommission	1.102167	0.898619	0	0	7.940000e+01
301.414215	1.292920	city	8	1	1.224813	1.224813	0	1	0	0	CorrectCommission	0.224758	0.878849	0	0	7.930000e+01
302.707062	1.292737	city	2	1	1.172600	1.172600	0	1	0	0	CorrectCommission	0.114458	0.854773	0	0	7.920000e+01
304.006622	1.306408	city	9	1	1.105570	1.105570	0	1	0	0	CorrectCommission	0.549946	0.828022	0	0	7.910000e+01
304.659821	10.396414	break	0	0	0.000000	1.303856	0	0	0	0	ThoughtProbe	0.738295	0.800182	0	79	79
315.696106	1.279740	city	4	1	1.452244	1.452244	0	1	0	0	CorrectCommission	1.702350	0.772762	1	0	7.941176e+01
317.009003	1.346047	city	8	1	1.235517	1.235517	0	1	0	0	CorrectCommission	0.294304	0.747053	1	0	7.982353e+01
318.335236	1.306402	city	4	1	0.997474	0.997474	0	1	0	0	CorrectCommission	1.252235	0.724212	1	0	8.023529e+01
319.628235	1.279597	mountain	7	0	0.000000	1.080355	1	0	0	0	CorrectOmission	0.713768	0.705149	1	0	8.064706e+01
320.934448	1.332861	city	8	1	1.229446	1.229446	0	1	0	0	CorrectCommission	0.254860	0.690550	1	0	8.105882e+01
322.247284	1.292823	city	9	1	1.190034	1.190034	0	1	0	0	CorrectCommission	0.001194	0.680863	1	0	8.147059e+01
323.580200	1.372983	city	10	1	1.132064	1.132064	0	1	0	0	CorrectCommission	0.377816	0.676238	1	0	8.188235e+01
324.913055	1.292733	city	5	1	1.094655	1.094655	0	1	0	0	CorrectCommission	0.620857	0.676513	1	0	8.229412e+01
326.205963	1.293077	city	3	1	1.399079	1.399079	0	1	0	0	CorrectCommission	1.356944	0.681257	1	0	8.270588e+01
327.505554	1.306083	city	8	1	1.328552	1.328552	0	1	0	0	CorrectCommission	0.898737	0.689720	1	0	8.311765e+01
328.805145	1.293094	mountain	3	0	0.000000	1.179692	1	0	0	0	CorrectOmission	0.068386	0.701020	1	0	8.352941e+01
330.131409	1.359446	city	8	1	1.069275	1.069275	0	1	0	0	CorrectCommission	0.785751	0.714135	1	0	8.394118e+01
331.470947	1.319661	city	10	1	1.114076	1.114076	0	1	0	0	CorrectCommission	0.494685	0.727973	1	0	8.435294e+01
332.770569	1.279566	city	7	1	1.380314	1.380314	0	1	0	0	CorrectCommission	1.235029	0.741483	1	0	8.476471e+01
334.076691	1.332694	city	1	1	1.284974	1.284974	0	1	0	0	CorrectCommission	0.615620	0.753730	1	0	8.517647e+01
335.389618	1.293127	city	6	1	1.092509	1.092509	0	1	0	0	CorrectCommission	0.634801	0.764008	1	0	8.558824e+01
336.682617	1.292883	city	3	1	1.042240	1.042240	0	1	0	0	CorrectCommission	0.961394	0.771798	1	0	86
337.975525	1.292933	city	1	1	1.071610	1.071610	0	1	0	0	CorrectCommission	0.770580	0.776936	1	0	8.641176e+01
339.281769	1.319534	city	3	1	1.125906	1.125906	0	1	0	0	CorrectCommission	0.417827	0.779609	1	0	8.682353e+01
340.594635	1.306246	city	7	1	0.826514	0.826514	0	1	0	0	CorrectCommission	2.362937	0.780309	0	0	8.723529e+01
341.954193	1.412862	city	2	1	1.201294	1.201294	0	1	0	0	CorrectCommission	0.071963	0.779755	1	0	8.764706e+01
343.300446	1.279643	city	5	1	1.018108	1.018108	0	1	0	0	CorrectCommission	1.118175	0.778887	1	0	8.805882e+01
344.593384	1.306196	city	9	1	1.232365	1.232365	0	1	0	0	CorrectCommission	0.273824	0.778595	1	0	8.847059e+01
345.892822	1.292722	city	5	1	1.174283	1.174283	0	1	0	0	CorrectCommission	0.103529	0.779726	1	0	8.888235e+01
347.179077	1.279766	city	1	1	1.076902	1.076902	0	1	0	0	CorrectCommission	0.736199	0.782903	0	0	8.929412e+01
348.458740	1.279585	city	4	1	1.283545	1.283545	0	1	0	0	CorrectCommission	0.606337	0.788497	0	0	8.970588e+01
349.744965	1.292849	city	1	1	1.323582	1.323582	0	1	0	0	CorrectCommission	0.866450	0.796647	0	0	9.011765e+01
351.071167	1.359571	city	10	1	1.471633	1.471633	0	1	0	0	CorrectCommission	1.828320	0.807281	0	0	9.052941e+01
352.390686	1.279434	city	1	1	1.284618	1.284618	0	1	0	0	CorrectCommission	0.613306	0.820132	0	0	9.094118e+01
353.736847	1.412882	city	4	1	1.311627	1.311627	0	1	0	0	CorrectCommission	0.788783	0.834817	0	0	9.135294e+01
355.109833	1.333082	city	2	1	1.064932	1.064932	0	1	0	0	CorrectCommission	0.813969	0.850760	0	0	9.176471e+01
356.436066	1.319435	city	4	1	1.123247	1.123247	0	1	0	0	CorrectCommission	0.435104	0.867205	0	0	9.217647e+01
357.748871	1.306160	city	1	1	1.195488	1.195488	0	1	0	0	CorrectCommission	0.034239	0.883209	0	0	9.258824e+01
358.401947	9.037037	break	0	0	0.000000	1.359618	0	0	0	0	ThoughtProbe	1.100575	0.897626	0	93	93
368.085541	1.293087	city	5	1	1.459443	1.459443	0	1	0	0	CorrectCommission	1.749120	0.909154	0	0	9.252174e+01
369.385193	1.306219	city	2	1	1.338765	1.338765	0	1	0	0	CorrectCommission	0.965095	0.916446	0	0	9.204348e+01
370.684753	1.292923	city	10	1	0.981603	0.981603	0	1	0	0	CorrectCommission	1.355346	0.918305	0	0	9.156522e+01
371.970917	1.279413	mountain	2	0	0.000000	1.009380	1	0	0	0	CorrectOmission	1.174881	0.913778	0	0	9.108696e+01
373.270508	1.319719	city	1	1	1.210321	1.210321	0	1	0	0	CorrectCommission	0.130605	0.902342	0	0	9.060870e+01
374.570129	1.279552	city	3	1	1.372649	1.372649	0	1	0	0	CorrectCommission	1.185230	0.884038	0	0	9.013043e+01
375.856445	1.293105	city	5	1	1.329204	1.329204	0	1	0	0	CorrectCommission	0.902974	0.859533	0	0	8.965217e+01
377.149384	1.292757	mountain	4	0	0.000000	1.400258	1	0	0	0	CorrectOmission	1.364606	0.830203	0	0	8.917391e+01
378.435486	1.279409	city	6	1	1.375248	1.375248	0	1	0	0	CorrectCommission	1.202116	0.798112	0	0	8.869565e+01
379.748383	1.346393	city	8	1	1.043607	1.043607	0	1	0	0	CorrectCommission	0.952511	0.765892	1	0	8.821739e+01
381.068024	1.292882	city	5	1	1.085177	1.085177	0	1	0	0	CorrectCommission	0.682435	0.736569	1	0	8.773913e+01
382.374237	1.319587	city	10	1	1.175370	1.175370	0	1	0	0	CorrectCommission	0.096462	0.713251	1	0	8.726087e+01
383.693787	1.319476	city	5	1	1.226075	1.226075	0	1	0	0	CorrectCommission	0.232961	0.698820	1	0	8.678261e+01
385.053253	1.399455	city	9	1	1.254408	1.254408	0	1	0	0	CorrectCommission	0.417038	0.695575	1	0	8.630435e+01
386.406189	1.306415	city	6	1	1.218769	1.218769	0	1	0	0	CorrectCommission	0.185492	0.704991	1	0	8.582609e+01
387.719177	1.319573	city	1	1	1.291232	1.291232	0	1	0	0	CorrectCommission	0.656279	0.727443	1	0	8.534783e+01
389.032074	1.306215	city	10	1	1.272856	1.272856	0	1	0	0	CorrectCommission	0.536891	0.762155	1	0	8.486957e+01
390.344879	1.319388	city	9	1	1.272094	1.272094	0	1	0	0	CorrectCommission	0.531942	0.807221	0	0	8.439130e+01
391.651062	1.292984	mountain	2	0	0.000000	1.305797	1	0	0	0	CorrectOmission	0.750905	0.859754	0	0	8.391304e+01
392.944031	1.292973	city	3	1	1.320640	1.320640	0	1	0	0	CorrectCommission	0.847337	0.916166	0	0	8.343478e+01
394.250244	1.319452	city	2	1	1.263299	1.263299	0	1	0	0	CorrectCommission	0.474798	0.972499	0	0	8.295652e+01
395.556427	1.292924	city	1	1	0.981236	0.981236	0	1	0	0	CorrectCommission	1.357732	1.024818	0	0	8.247826e+01
396.869446	1.333096	city	10	1	0.902523	0.902523	0	1	0	0	CorrectCommission	1.869120	1.069585	0	0	82
398.195740	1.319489	mountain	10	1	0.857899	0.857899	0	0	1	0	CommissionError	2.159035	1.104016	0	0	8.152174e+01
399.495209	1.279445	city	1	1	1.384711	1.384711	0	1	0	0	CorrectCommission	1.263597	1.126307	0	0	8.104348e+01
400.801361	1.332889	city	5	1	1.065380	1.065380	0	1	0	0	CorrectCommission	0.811058	1.135778	0	0	8.056522e+01
402.140991	1.346364	city	2	1	0.914462	0.914462	0	1	0	0	CorrectCommission	1.791554	1.132831	0	0	8.008696e+01
403.533875	1.439386	city	4	1	1.075093	1.075093	0	1	0	0	CorrectCommission	0.747952	1.118742	0	0	7.960870e+01
404.900055	1.292960	city	10	1	0.967999	0.967999	0	1	0	0	CorrectCommission	1.443729	1.095617	0	0	7.913043e+01
406.199677	1.306325	city	4	1	0.936072	0.936072	0	1	0	0	CorrectCommission	1.651152	1.065970	0	0	7.865217e+01
407.499298	1.292908	city	2	1	1.104237	1.104237	0	1	0	0	CorrectCommission	0.558605	1.032565	0	0	7.817391e+01
408.805511	1.319485	city	7	1	1.268708	1.268708	0	1	0	0	CorrectCommission	0.509939	0.998209	0	0	7.769565e+01
410.118408	1.306315	city	2	1	1.169572	1.169572	0	1	0	0	CorrectCommission	0.134136	0.965523	0	0	7.721739e+01
411.431335	1.319564	city	3	1	0.844194	0.844194	0	1	0	0	CorrectCommission	2.248073	0.936841	0	0	7.673913e+01
412.737549	1.292875	city	10	1	1.086179	1.086179	0	1	0	0	CorrectCommission	0.675929	0.914064	0	0	7.626087e+01
414.037140	1.306273	city	4	1	1.115562	1.115562	0	1	0	0	CorrectCommission	0.485027	0.898652	0	0	7.578261e+01
415.363342	1.346162	city	6	1	1.283481	1.283481	0	1	0	0	CorrectCommission	0.605920	0.891478	0	0	7.530435e+01
416.682831	1.292821	city	4	1	1.102870	1.102870	0	1	0	0	CorrectCommission	0.567487	0.892744	0	0	7.482609e+01
417.975800	1.293081	city	8	1	0.927022	0.927022	0	1	0	0	CorrectCommission	1.709953	0.901932	0	0	7.434783e+01
419.262054	1.279418	city	4	1	1.245229	1.245229	0	1	0	0	CorrectCommission	0.357401	0.917759	0	0	7.386957e+01
420.568268	1.333026	city	2	1	1.201322	1.201322	0	1	0	0	CorrectCommission	0.072144	0.938272	0	0	7.339130e+01
421.887817	1.306104	city	6	1	1.331064	1.331064	0	1	0	0	CorrectCommission	0.915058	0.960877	0	0	7.291304e+01
423.220703	1.359624	city	1	1	1.278773	1.278773	0	1	0	0	CorrectCommission	0.575333	0.982613	0	0	7.243478e+01
424.560333	1.319636	city	2	1	1.048400	1.048400	0	1	0	0	CorrectCommission	0.921371	1.000531	0	0	7.195652e+01
425.893250	1.346226	city	8	1	0.859363	0.859363	0	1	0	0	CorrectCommission	2.149520	1.012057	0	0	7.147826e+01
426.566376	8.343760	break	0	0	0.000000	0.876698	0	0	0	0	ThoughtProbe	2.036902	1.015363	0	71	71
435.556610	1.292979	city	10	1	1.130136	1.130136	0	1	0	0	CorrectCommission	0.390347	1.009726	0	0	7.132353e+01
436.842865	1.279502	city	7	1	1.649410	1.649410	0	1	0	0	CorrectCommission	2.983315	0.995645	0	0	7.164706e+01
438.142426	1.319665	city	2	1	1.345232	1.345232	0	1	0	0	CorrectCommission	1.007107	0.974590	0	0	7.197059e+01
439.462006	1.319467	mountain	10	1	1.156502	1.156502	0	0	1	0	CommissionError	0.219048	0.948953	0	0	7.229412e+01
440.768280	1.293069	city	7	1	1.231305	1.231305	0	1	0	0	CorrectCommission	0.266941	0.921475	0	0	7.261765e+01
442.067902	1.306191	city	3	1	1.237131	1.237131	0	1	0	0	CorrectCommission	0.304786	0.894789	0	0	7.294118e+01
443.387482	1.332950	city	2	1	1.223796	1.223796	0	1	0	0	CorrectCommission	0.218156	0.871046	0	0	7.326471e+01
444.700317	1.292739	city	4	1	1.434522	1.434522	0	1	0	0	CorrectCommission	1.587211	0.851574	0	0	7.358824e+01
445.993225	1.293075	city	7	1	1.303485	1.303485	0	1	0	0	CorrectCommission	0.735884	0.836754	0	0	7.391176e+01
447.286224	1.292911	city	6	1	1.311998	1.311998	0	1	0	0	CorrectCommission	0.791193	0.826093	0	0	7.423529e+01
448.612366	1.359401	city	1	1	1.147879	1.147879	0	1	0	0	CorrectCommission	0.275068	0.818415	0	0	7.455882e+01
449.951874	1.319598	city	5	1	1.208084	1.208084	0	1	0	0	CorrectCommission	0.116076	0.812182	0	0	7.488235e+01
451.264862	1.306390	mountain	8	0	0.000000	1.436549	1	0	0	0	CorrectOmission	1.600380	0.805829	0	0	7.520588e+01
452.577820	1.319527	city	3	1	1.566413	1.566413	0	1	0	0	CorrectCommission	2.444094	0.798027	0	0	7.552941e+01
453.910614	1.346058	city	5	1	1.330819	1.330819	0	1	0	0	CorrectCommission	0.913466	0.787934	0	0	7.585294e+01
455.263519	1.359772	city	8	1	1.197664	1.197664	0	1	0	0	CorrectCommission	0.048375	0.775358	1	0	7.617647e+01
456.596497	1.306182	city	2	1	1.108714	1.108714	0	1	0	0	CorrectCommission	0.529518	0.760668	1	0	7.650000e+01
457.895966	1.292758	city	6	1	1.278469	1.278469	0	1	0	0	CorrectCommission	0.573359	0.744651	1	0	7.682353e+01
459.195435	1.306151	city	1	1	1.220606	1.220606	0	1	0	0	CorrectCommission	0.197430	0.728425	1	0	7.714706e+01
460.501740	1.306488	city	5	1	1.342120	1.342120	0	1	0	0	CorrectCommission	0.986892	0.713246	1	0	7.747059e+01
461.814697	1.319404	city	4	1	1.417493	1.417493	0	1	0	0	CorrectCommission	1.476579	0.700306	1	0	7.779412e+01
463.140930	1.333061	city	10	1	1.248176	1.248176	0	1	0	0	CorrectCommission	0.376544	0.690652	1	0	7.811765e+01
464.467163	1.319390	city	8	1	1.269759	1.269759	0	1	0	0	CorrectCommission	0.516769	0.685128	1	0	7.844118e+01
465.766663	1.279650	city	6	1	1.269392	1.269392	0	1	0	0	CorrectCommission	0.514383	0.684152	1	0	7.876471e+01
467.079651	1.346302	city	10	1	1.167679	1.167679	0	1	0	0	CorrectCommission	0.146431	0.687784	1	0	7.908824e+01
468.399261	1.292907	city	7	1	1.335414	1.335414	0	1	0	0	CorrectCommission	0.943324	0.695663	1	0	7.941176e+01
469.692139	1.292847	city	8	1	1.105870	1.105870	0	1	0	0	CorrectCommission	0.547998	0.706984	1	0	7.973529e+01
470.998322	1.319520	city	2	1	1.089221	1.089221	0	1	0	0	CorrectCommission	0.656165	0.720599	1	0	8.005882e+01
472.304596	1.293051	city	5	1	1.372274	1.372274	0	1	0	0	CorrectCommission	1.182796	0.735108	1	0	8.038235e+01
473.624207	1.346143	city	1	1	1.236717	1.236717	0	1	0	0	CorrectCommission	0.302097	0.749012	1	0	8.070588e+01
474.943726	1.292933	city	8	1	1.235024	1.235024	0	1	0	0	CorrectCommission	0.291099	0.760994	1	0	8.102941e+01
476.229980	1.279541	city	5	1	1.385613	1.385613	0	1	0	0	CorrectCommission	1.269456	0.770069	1	0	8.135294e+01
477.549469	1.359457	city	6	1	1.320440	1.320440	0	1	0	0	CorrectCommission	0.846037	0.775827	1	0	8.167647e+01
478.229187	8.024056	break	0	0	0.000000	1.391744	0	0	0	0	ThoughtProbe	1.309289	0.778552	1	82	82
486.913116	1.319724	city	10	1	1.452243	1.452243	0	1	0	0	CorrectCommission	1.702346	0.779206	1	0	8.170588e+01
488.232697	1.319401	city	8	1	1.354658	1.354658	0	1	0	0	CorrectCommission	1.068345	0.779322	1	0	8.141176e+01
489.558899	1.333054	city	2	1	1.146137	1.146137	0	1	0	0	CorrectCommission	0.286385	0.780791	0	0	8.111765e+01
490.865143	1.279393	city	5	1	1.163358	1.163358	0	1	0	0	CorrectCommission	0.174503	0.785482	0	0	8.082353e+01
492.171356	1.333067	city	10	1	1.181723	1.181723	0	1	0	0	CorrectCommission	0.055192	0.794864	0	0	8.052941e+01
493.490936	1.306084	city	1	1	1.195464	1.195464	0	1	0	0	CorrectCommission	0.034085	0.809673	0	0	8.023529e+01
494.790497	1.293058	city	4	1	1.364166	1.364166	0	1	0	0	CorrectCommission	1.130120	0.829739	0	0	7.994118e+01
496.096771	1.319468	mountain	3	0	0.000000	1.364262	1	0	0	0	CorrectOmission	1.130746	0.853902	0	0	7.964706e+01
497.402954	1.292867	city	6	1	1.234629	1.234629	0	1	0	0	CorrectCommission	0.288536	0.880239	0	0	7.935294e+01
498.715881	1.333027	city	2	1	1.014143	1.014143	0	1	0	0	CorrectCommission	1.143937	0.906397	0	0	7.905882e+01
500.035522	1.306261	city	7	1	1.385591	1.385591	0	1	0	0	CorrectCommission	1.269316	0.929882	0	0	7.876471e+01
501.341736	1.306131	city	9	1	1.447317	1.447317	0	1	0	0	CorrectCommission	1.670343	0.948525	0	0	7.847059e+01
502.641235	1.292861	city	7	1	1.396475	1.396475	0	1	0	0	CorrectCommission	1.340026	0.960788	0	0	7.817647e+01
503.974091	1.372856	city	4	1	1.333348	1.333348	0	1	0	0	CorrectCommission	0.929897	0.965955	0	0	7.788235e+01
505.307068	1.293110	city	7	1	1.047240	1.047240	0	1	0	0	CorrectCommission	0.928906	0.964194	0	0	7.758824e+01
506.613403	1.319541	city	9	1	1.017531	1.017531	0	1	0	0	CorrectCommission	1.121925	0.956435	0	0	7.729412e+01
507.932922	1.319542	city	10	1	1.094954	1.094954	0	1	0	0	CorrectCommission	0.618917	0.944135	0	0	77
509.239166	1.292938	city	6	1	1.526142	1.526142	0	1	0	0	CorrectCommission	2.182458	0.929012	0	0	7.670588e+01
510.538666	1.306044	city	3	1	1.138542	1.138542	0	1	0	0	CorrectCommission	0.335732	0.912637	0	0	7.641176e+01
511.851562	1.319739	city	6	1	1.147570	1.147570	0	1	0	0	CorrectCommission	0.277079	0.896214	0	0	7.611765e+01
513.177856	1.332918	mountain	10	1	1.151685	1.151685	0	0	1	0	CommissionError	0.250340	0.880329	0	0	7.582353e+01
514.504089	1.319523	city	3	1	1.255577	1.255577	0	1	0	0	CorrectCommission	0.424632	0.864905	0	0	7.552941e+01
515.850342	1.372896	city	5	1	1.145751	1.145751	0	1	0	0	CorrectCommission	0.288894	0.849255	0	0	7.523529e+01
517.196533	1.319517	city	6	1	0.883920	0.883920	0	1	0	0	CorrectCommission	1.989979	0.832329	0	0	7.494118e+01
518.522766	1.332959	city	1	1	0.897890	0.897890	0	1	0	0	CorrectCommission	1.899215	0.812923	0	0	7.464706e+01
519.842346	1.306222	city	5	1	0.948563	0.948563	0	1	0	0	CorrectCommission	1.570000	0.790018	0	0	7.435294e+01
521.161865	1.332751	city	10	1	1.192587	1.192587	0	1	0	0	CorrectCommission	0.015393	0.762912	1	0	7.405882e+01
522.468079	1.279718	city	5	1	1.162601	1.162601	0	1	0	0	CorrectCommission	0.179424	0.731349	1	0	7.376471e+01
523.781006	1.346117	city	3	1	1.033645	1.033645	0	1	0	0	CorrectCommission	1.017237	0.695439	1	0	7.347059e+01
525.133789	1.359502	city	8	1	1.134719	1.134719	0	1	0	0	CorrectCommission	0.360572	0.655615	1	0	7.317647e+01
526.480103	1.333069	city	1	1	1.275645	1.275645	0	1	0	0	CorrectCommission	0.555008	0.612544	1	0	7.288235e+01
527.793091	1.292922	city	8	1	1.035250	1.035250	0	1	0	0	CorrectCommission	1.006807	0.567008	1	0	7.258824e+01
529.085999	1.292882	city	5	1	1.076424	1.076424	0	1	0	0	CorrectCommission	0.739302	0.519816	1	0	7.229412e+01
532.551575	5.638293	break	0	0	0.000000	1.117599	0	0	0	0	ThoughtProbe	0.471798	0.471798	1	72	72
