onset	duration	trial_type	image_type	Press	ReactionTime	ReactionTime_Interpolated	CorrectOmission	CorrectCommission	CommissionError	OmissionError	response_type	nonsmoothVarianceTimeCourse	VarianceTimeCourse	In_the_Zone	ThoughtProbe	ThoughtProbe_Interpolated
0.653157	1.279580	city	3	1	1.711019	1.711019	0	1	0	0	CorrectCommission	0.992747	0.992747	0	0	17
1.932734	1.279574	city	7	0	0.000000	0.994671	0	0	0	1	OmissionError	1.244059	0.995321	0	0	17
3.212310	1.279578	city	5	1	0.859252	0.859252	0	1	0	0	CorrectCommission	1.666905	0.995775	0	0	17
4.491889	1.279581	city	2	1	1.885692	1.885692	0	1	0	0	CorrectCommission	1.538167	0.992251	0	0	17
5.771470	1.279580	city	6	0	0.000000	1.473463	0	0	0	1	OmissionError	0.250977	0.983427	0	0	17
7.057711	1.292903	city	7	1	0.808099	0.808099	0	1	0	0	CorrectCommission	1.826633	0.968708	0	0	17
8.343883	1.279441	city	6	1	1.075130	1.075130	0	1	0	0	CorrectCommission	0.992823	0.948222	0	0	17
9.623390	1.279575	mountain	10	0	0.000000	1.151926	1	0	0	0	CorrectOmission	0.753029	0.922899	0	0	17
10.903009	1.279662	city	2	1	1.122167	1.122167	0	1	0	0	CorrectCommission	0.845951	0.894315	0	0	17
12.182674	1.279668	city	10	1	1.069537	1.069537	0	1	0	0	CorrectCommission	1.010289	0.864516	0	0	17
13.462284	1.279551	city	6	1	1.716017	1.716017	0	1	0	0	CorrectCommission	1.008354	0.835813	0	0	17
14.741784	1.279450	city	4	0	0.000000	1.435878	0	0	0	1	OmissionError	0.133616	0.810510	0	0	17
16.021370	1.279720	city	9	1	1.018262	1.018262	0	1	0	0	CorrectCommission	1.170397	0.790687	0	0	17
17.301018	1.279577	mountain	2	0	0.000000	1.252309	1	0	0	0	CorrectOmission	0.439580	0.777892	0	0	17
18.580511	1.279410	city	1	1	1.607702	1.607702	0	1	0	0	CorrectCommission	0.670140	0.772989	1	0	17
19.860006	1.279579	city	2	1	1.554121	1.554121	0	1	0	0	CorrectCommission	0.502832	0.775966	0	0	17
21.139597	1.279601	city	4	0	0.000000	1.509893	0	0	0	1	OmissionError	0.364728	0.785894	0	0	17
22.419199	1.279604	city	5	1	1.513668	1.513668	0	1	0	0	CorrectCommission	0.376516	0.800977	0	0	17
23.698776	1.279549	city	9	1	1.604096	1.604096	0	1	0	0	CorrectCommission	0.658881	0.818722	0	0	17
24.978329	1.279556	city	3	1	1.624859	1.624859	0	1	0	0	CorrectCommission	0.723711	0.836256	0	0	17
26.264578	1.292944	city	7	1	1.685180	1.685180	0	1	0	0	CorrectCommission	0.912066	0.850749	0	0	17
27.550919	1.279736	city	1	1	2.179269	2.179269	0	1	0	0	CorrectCommission	2.454867	0.859754	0	0	17
28.843906	1.306240	mountain	4	0	0.000000	1.806714	1	0	0	0	CorrectOmission	1.291557	0.861610	0	0	17
30.143469	1.292889	city	1	1	1.236323	1.236323	0	1	0	0	CorrectCommission	0.489497	0.855789	0	0	17
31.429653	1.279477	city	2	1	1.136906	1.136906	0	1	0	0	CorrectCommission	0.799928	0.842961	0	0	17
32.709225	1.279671	city	7	1	0.980119	0.980119	0	1	0	0	CorrectCommission	1.289496	0.824911	0	0	17
33.988850	1.279580	city	9	1	1.127865	1.127865	0	1	0	0	CorrectCommission	0.828159	0.804354	0	0	17
35.268440	1.279598	city	2	1	1.090497	1.090497	0	1	0	0	CorrectCommission	0.944842	0.784531	0	0	17
36.561348	1.306219	city	8	1	1.646003	1.646003	0	1	0	0	CorrectCommission	0.789734	0.768737	1	0	17
37.860828	1.292742	city	6	1	1.308186	1.308186	0	1	0	0	CorrectCommission	0.265104	0.759864	1	0	17
39.146992	1.279581	city	9	1	1.394768	1.394768	0	1	0	0	CorrectCommission	0.005250	0.759993	1	0	17
40.426666	1.279769	city	6	1	1.391944	1.391944	0	1	0	0	CorrectCommission	0.003570	0.770147	1	0	17
41.712994	1.292885	city	10	1	1.303007	1.303007	0	1	0	0	CorrectCommission	0.281276	0.790209	0	0	17
43.005806	1.292741	city	9	1	1.259921	1.259921	0	1	0	0	CorrectCommission	0.415811	0.819081	0	0	17
44.318653	1.332951	city	10	1	0.969188	0.969188	0	1	0	0	CorrectCommission	1.323629	0.854978	0	0	17
45.631634	1.293015	city	7	0	0.000000	0.904146	0	0	0	1	OmissionError	1.526724	0.895877	0	0	17
46.924583	1.292885	city	1	1	1.183093	1.183093	0	1	0	0	CorrectCommission	0.655709	0.939944	0	0	17
48.210827	1.279597	city	7	1	1.924326	1.924326	0	1	0	0	CorrectCommission	1.658802	0.985860	0	0	17
49.503746	1.306244	city	10	1	0.998961	0.998961	0	1	0	0	CorrectCommission	1.230663	1.032909	0	0	17
50.156868	8.143996	break	0	1	0.513354	0.513354	0	0	0	0	ThoughtProbe	2.746979	1.080932	0	17	17
58.940659	1.279589	city	2	1	1.367085	1.367085	0	1	0	0	CorrectCommission	0.081192	1.129972	0	0	1.673913e+01
60.240192	1.319479	city	3	1	1.380858	1.380858	0	1	0	0	CorrectCommission	0.038185	1.179981	0	0	1.647826e+01
61.546341	1.292819	city	4	1	1.310439	1.310439	0	1	0	0	CorrectCommission	0.258070	1.230284	0	0	1.621739e+01
62.859280	1.333059	city	10	1	1.086640	1.086640	0	1	0	0	CorrectCommission	0.956883	1.279332	0	0	1.595652e+01
64.178955	1.306286	city	1	0	0.000000	0.992215	0	0	0	1	OmissionError	1.251727	1.324659	0	0	1.569565e+01
65.491814	1.319442	city	2	1	0.885398	0.885398	0	1	0	0	CorrectCommission	1.585264	1.363084	0	0	1.543478e+01
66.804688	1.306303	city	8	1	0.624425	0.624425	0	1	0	0	CorrectCommission	2.400158	1.391106	0	0	1.517391e+01
68.117622	1.319565	city	5	1	0.740611	0.740611	0	1	0	0	CorrectCommission	2.037364	1.405434	0	0	1.491304e+01
69.430458	1.306109	mountain	8	1	0.780628	0.780628	0	0	1	0	CommissionError	1.912410	1.403602	0	0	1.465217e+01
70.729973	1.292913	city	3	1	1.920706	1.920706	0	1	0	0	CorrectCommission	1.647498	1.384386	0	0	1.439130e+01
72.029617	1.306383	city	5	0	0.000000	2.252485	0	0	0	1	OmissionError	2.683485	1.348049	0	0	1.413043e+01
73.322594	1.279568	mountain	3	0	0.000000	2.080709	1	0	0	0	CorrectOmission	2.147110	1.296300	0	0	1.386957e+01
74.622169	1.319584	city	3	1	1.710117	1.710117	0	1	0	0	CorrectCommission	0.989932	1.232060	0	0	1.360870e+01
75.935066	1.306208	city	2	1	1.445452	1.445452	0	1	0	0	CorrectCommission	0.163510	1.159020	0	0	1.334783e+01
77.281288	1.386239	city	10	1	1.229658	1.229658	0	1	0	0	CorrectCommission	0.510310	1.081103	0	0	1.308696e+01
78.620850	1.292879	city	2	1	1.139085	1.139085	0	1	0	0	CorrectCommission	0.793126	1.001978	0	0	1.282609e+01
79.927086	1.319587	city	5	1	1.271933	1.271933	0	1	0	0	CorrectCommission	0.378305	0.924718	0	0	1.256522e+01
81.239960	1.306163	mountain	3	1	1.029746	1.029746	0	0	1	0	CommissionError	1.134537	0.851657	0	0	1.230435e+01
82.552864	1.319647	city	2	1	1.168616	1.168616	0	1	0	0	CorrectCommission	0.700913	0.784373	0	0	1.204348e+01
83.865738	1.306112	city	7	1	1.046579	1.046579	0	1	0	0	CorrectCommission	1.081977	0.723836	1	0	1.178261e+01
85.165298	1.293010	city	9	1	1.053705	1.053705	0	1	0	0	CorrectCommission	1.059725	0.670606	1	0	1.152174e+01
86.458229	1.292841	city	7	1	1.273033	1.273033	0	1	0	0	CorrectCommission	0.374869	0.624966	1	0	1.126087e+01
87.757820	1.306344	city	8	1	1.244523	1.244523	0	1	0	0	CorrectCommission	0.463892	0.587109	1	0	11
89.057365	1.292752	city	2	1	1.263250	1.263250	0	1	0	0	CorrectCommission	0.405416	0.557074	1	0	1.073913e+01
90.370247	1.333007	city	4	1	1.394696	1.394696	0	1	0	0	CorrectCommission	0.005026	0.534694	1	0	1.047826e+01
91.683167	1.292821	city	8	1	1.261348	1.261348	0	1	0	0	CorrectCommission	0.411356	0.519508	1	0	1.021739e+01
92.982658	1.306168	city	7	1	1.340418	1.340418	0	1	0	0	CorrectCommission	0.164458	0.510654	1	0	9.956522e+00
94.275604	1.279733	city	1	1	1.355357	1.355357	0	1	0	0	CorrectCommission	0.117813	0.506870	1	0	9.695652e+00
95.575272	1.319594	city	6	1	1.543907	1.543907	0	1	0	0	CorrectCommission	0.470939	0.506541	1	0	9.434783e+00
96.874863	1.279581	city	5	1	1.660799	1.660799	0	1	0	0	CorrectCommission	0.835937	0.507847	1	0	9.173913e+00
98.161087	1.292876	city	1	1	1.729017	1.729017	0	1	0	0	CorrectCommission	1.048946	0.508967	1	0	8.913043e+00
99.447319	1.279590	city	3	0	0.000000	1.493284	0	0	0	1	OmissionError	0.312866	0.508307	1	0	8.652174e+00
100.733604	1.292975	city	9	1	1.192596	1.192596	0	1	0	0	CorrectCommission	0.626034	0.504690	1	0	8.391304e+00
102.039841	1.319494	city	6	1	1.065951	1.065951	0	1	0	0	CorrectCommission	1.021487	0.497474	1	0	8.130435e+00
103.366043	1.332912	city	9	1	1.127655	1.127655	0	1	0	0	CorrectCommission	0.828815	0.486581	1	0	7.869565e+00
104.672195	1.279393	mountain	2	0	0.000000	1.342304	1	0	0	0	CorrectOmission	0.158571	0.472463	1	0	7.608696e+00
105.951767	1.279748	city	1	1	1.514317	1.514317	0	1	0	0	CorrectCommission	0.378542	0.455955	1	0	7.347826e+00
107.231422	1.279575	city	2	1	1.448113	1.448113	0	1	0	0	CorrectCommission	0.171821	0.438067	1	0	7.086957e+00
108.524254	1.306081	city	4	1	1.423224	1.423224	0	1	0	0	CorrectCommission	0.094104	0.419871	1	0	6.826087e+00
109.830505	1.306416	city	6	1	1.597188	1.597188	0	1	0	0	CorrectCommission	0.637309	0.402327	1	0	6.565217e+00
111.123497	1.279576	city	4	1	1.475918	1.475918	0	1	0	0	CorrectCommission	0.258641	0.386245	1	0	6.304348e+00
112.423073	1.319565	city	6	1	1.205163	1.205163	0	1	0	0	CorrectCommission	0.586794	0.372255	1	0	6.043478e+00
113.722572	1.279445	city	10	1	1.232140	1.232140	0	1	0	0	CorrectCommission	0.502557	0.360820	1	0	5.782609e+00
115.028717	1.332847	city	9	1	1.407777	1.407777	0	1	0	0	CorrectCommission	0.045869	0.352320	1	0	5.521739e+00
116.361679	1.333076	city	2	1	1.271923	1.271923	0	1	0	0	CorrectCommission	0.378337	0.347101	1	0	5.260870e+00
117.028221	9.063587	break	0	0	0.000000	1.296373	0	0	0	0	ThoughtProbe	0.301989	0.345470	1	5	5
126.744919	1.306231	city	5	1	1.409085	1.409085	0	1	0	0	CorrectCommission	0.049955	0.347732	1	0	5.764706e+00
128.057800	1.319537	city	6	1	1.538014	1.538014	0	1	0	0	CorrectCommission	0.452539	0.354150	1	0	6.529412e+00
129.364075	1.292993	city	4	1	1.581701	1.581701	0	1	0	0	CorrectCommission	0.588951	0.364882	1	0	7.294118e+00
130.663620	1.306104	city	8	0	0.000000	1.498102	0	0	0	1	OmissionError	0.327913	0.379923	1	0	8.058824e+00
131.969879	1.306402	mountain	4	0	0.000000	1.400845	1	0	0	0	CorrectOmission	0.024226	0.399025	1	0	8.823529e+00
133.262878	1.279603	city	1	1	1.403557	1.403557	0	1	0	0	CorrectCommission	0.032692	0.421642	1	0	9.588235e+00
134.562439	1.319537	city	3	1	1.619864	1.619864	0	1	0	0	CorrectCommission	0.708115	0.446911	1	0	1.035294e+01
135.921982	1.399549	city	4	1	1.447363	1.447363	0	1	0	0	CorrectCommission	0.169479	0.473707	1	0	1.111765e+01
137.268143	1.292758	city	5	1	1.477421	1.477421	0	1	0	0	CorrectCommission	0.263334	0.500733	1	0	1.188235e+01
138.554382	1.279722	city	9	1	1.755514	1.755514	0	1	0	0	CorrectCommission	1.131684	0.526612	1	0	1.264706e+01
139.847321	1.306147	city	7	1	1.607185	1.607185	0	1	0	0	CorrectCommission	0.668524	0.550112	1	0	1.341176e+01
141.146820	1.292863	city	9	1	1.650019	1.650019	0	1	0	0	CorrectCommission	0.802276	0.570309	1	0	1.417647e+01
142.473129	1.359754	city	8	0	0.000000	1.276339	0	0	0	1	OmissionError	0.364546	0.586739	1	0	1.494118e+01
143.799423	1.292827	city	4	1	0.978641	0.978641	0	1	0	0	CorrectCommission	1.294112	0.599495	1	0	1.570588e+01
145.125534	1.359404	city	6	1	1.249424	1.249424	0	1	0	0	CorrectCommission	0.448589	0.609220	1	0	1.647059e+01
146.451767	1.293065	city	9	1	1.489183	1.489183	0	1	0	0	CorrectCommission	0.300062	0.617112	1	0	1.723529e+01
147.764755	1.332900	city	5	1	1.256988	1.256988	0	1	0	0	CorrectCommission	0.424970	0.624769	1	0	18
149.077667	1.292936	city	8	1	1.754567	1.754567	0	1	0	0	CorrectCommission	1.128726	0.634034	1	0	1.876471e+01
150.383835	1.319397	mountain	2	0	0.000000	1.691005	1	0	0	0	CorrectOmission	0.930255	0.646755	1	0	1.952941e+01
151.683319	1.279575	city	6	1	1.471030	1.471030	0	1	0	0	CorrectCommission	0.243378	0.664566	1	0	2.029412e+01
153.002884	1.359530	city	4	1	1.499365	1.499365	0	1	0	0	CorrectCommission	0.331855	0.688612	1	0	2.105882e+01
154.362411	1.359551	city	9	1	1.553994	1.553994	0	1	0	0	CorrectCommission	0.502435	0.719331	1	0	2.182353e+01
155.681992	1.279581	city	10	1	1.527712	1.527712	0	1	0	0	CorrectCommission	0.420369	0.756299	1	0	2.258824e+01
156.988312	1.333059	city	1	0	0.000000	1.462374	0	0	0	1	OmissionError	0.216350	0.798194	0	0	2.335294e+01
158.294556	1.279439	city	6	0	0.000000	1.316082	0	0	0	1	OmissionError	0.240448	0.842877	0	0	2.411765e+01
159.580795	1.293048	city	5	1	1.046938	1.046938	0	1	0	0	CorrectCommission	1.080854	0.887604	0	0	2.488235e+01
160.867035	1.279434	city	9	1	0.613044	0.613044	0	1	0	0	CorrectCommission	2.435695	0.929318	0	0	2.564706e+01
162.173203	1.332893	city	7	1	0.836238	0.836238	0	1	0	0	CorrectCommission	1.738769	0.964976	0	0	2.641176e+01
163.479538	1.279779	city	8	1	1.414190	1.414190	0	1	0	0	CorrectCommission	0.065894	0.991938	0	0	2.717647e+01
164.805832	1.372824	city	4	1	1.881214	1.881214	0	1	0	0	CorrectCommission	1.524186	1.008240	0	0	2.794118e+01
166.145370	1.306245	city	2	0	0.000000	1.414105	0	0	0	1	OmissionError	0.065629	1.012719	0	0	2.870588e+01
167.444870	1.292744	city	4	1	0.780059	0.780059	0	1	0	0	CorrectCommission	1.914189	1.005239	0	0	2.947059e+01
168.751022	1.319562	city	3	1	0.746274	0.746274	0	1	0	0	CorrectCommission	2.019684	0.986584	0	0	3.023529e+01
172.523132	6.224647	break	0	1	0.885550	0.885550	0	0	0	0	ThoughtProbe	1.584791	0.958409	0	31	31
176.288605	1.306308	city	9	1	1.051486	1.051486	0	1	0	0	CorrectCommission	1.066653	0.923047	0	0	3.052500e+01
177.581589	1.279659	city	10	1	1.378888	1.378888	0	1	0	0	CorrectCommission	0.044335	0.883157	0	0	3.005000e+01
178.887863	1.332883	city	3	1	1.187145	1.187145	0	1	0	0	CorrectCommission	0.643056	0.841475	0	0	2.957500e+01
180.214081	1.319566	city	9	1	1.234784	1.234784	0	1	0	0	CorrectCommission	0.494302	0.800441	0	0	2.910000e+01
181.520279	1.292840	mountain	2	0	0.000000	1.329962	1	0	0	0	CorrectOmission	0.197107	0.762025	1	0	2.862500e+01
182.806458	1.279491	city	9	1	1.287182	1.287182	0	1	0	0	CorrectCommission	0.330689	0.727587	1	0	2.815000e+01
184.112717	1.333055	city	6	1	0.920946	0.920946	0	1	0	0	CorrectCommission	1.474265	0.697860	1	0	2.767500e+01
185.439026	1.319562	city	8	1	1.103542	1.103542	0	1	0	0	CorrectCommission	0.904108	0.673025	1	0	2.720000e+01
186.758560	1.319493	city	2	1	1.154084	1.154084	0	1	0	0	CorrectCommission	0.746290	0.652892	1	0	2.672500e+01
188.071472	1.306321	city	3	1	1.423081	1.423081	0	1	0	0	CorrectCommission	0.093656	0.637019	1	0	2.625000e+01
189.371002	1.292754	city	7	1	1.301396	1.301396	0	1	0	0	CorrectCommission	0.286306	0.624879	1	0	2.577500e+01
190.677170	1.319586	mountain	3	0	0.000000	1.125710	1	0	0	0	CorrectOmission	0.834889	0.615945	1	0	2.530000e+01
191.996826	1.319712	city	3	1	1.172565	1.172565	0	1	0	0	CorrectCommission	0.688581	0.609739	1	0	2.482500e+01
193.316299	1.319235	city	6	1	1.718508	1.718508	0	1	0	0	CorrectCommission	1.016132	0.605873	1	0	2.435000e+01
194.642441	1.333067	city	7	1	1.526029	1.526029	0	1	0	0	CorrectCommission	0.415114	0.603991	1	0	2.387500e+01
195.962158	1.306342	city	3	1	1.368924	1.368924	0	1	0	0	CorrectCommission	0.075449	0.603774	1	0	2.340000e+01
197.295120	1.359581	city	1	1	1.539362	1.539362	0	1	0	0	CorrectCommission	0.456747	0.604938	1	0	2.292500e+01
198.641357	1.332912	city	7	1	1.720610	1.720610	0	1	0	0	CorrectCommission	1.022696	0.607090	1	0	2.245000e+01
199.954193	1.292743	city	6	0	0.000000	1.319498	0	0	0	1	OmissionError	0.229782	0.609853	1	0	2.197500e+01
201.240433	1.279741	city	10	1	1.023084	1.023084	0	1	0	0	CorrectCommission	1.155340	0.612812	1	0	2.150000e+01
202.540070	1.319549	city	1	1	1.518425	1.518425	0	1	0	0	CorrectCommission	0.391369	0.615554	1	0	2.102500e+01
203.872879	1.346072	mountain	8	0	0.000000	1.663429	1	0	0	0	CorrectOmission	0.844148	0.617765	1	0	2.055000e+01
205.185791	1.279728	city	9	1	1.565350	1.565350	0	1	0	0	CorrectCommission	0.537894	0.619240	1	0	2.007500e+01
206.485443	1.319588	city	4	0	0.000000	1.331439	0	0	0	1	OmissionError	0.192496	0.619966	1	0	1.960000e+01
207.804962	1.319440	city	7	1	1.122138	1.122138	0	1	0	0	CorrectCommission	0.846041	0.620062	1	0	1.912500e+01
209.111191	1.293016	city	1	1	1.097888	1.097888	0	1	0	0	CorrectCommission	0.921762	0.619807	1	0	1.865000e+01
210.417480	1.319562	city	5	1	1.140808	1.140808	0	1	0	0	CorrectCommission	0.787745	0.619612	1	0	1.817500e+01
211.717041	1.279584	city	8	1	1.216458	1.216458	0	1	0	0	CorrectCommission	0.551527	0.619969	1	0	1.770000e+01
213.009872	1.306077	city	6	1	1.265559	1.265559	0	1	0	0	CorrectCommission	0.398208	0.621339	1	0	1.722500e+01
214.309464	1.293089	city	1	1	1.244915	1.244915	0	1	0	0	CorrectCommission	0.462670	0.624098	1	0	1.675000e+01
215.635773	1.359526	city	3	1	1.138271	1.138271	0	1	0	0	CorrectCommission	0.795665	0.628454	1	0	1.627500e+01
216.961945	1.292811	city	7	1	1.474524	1.474524	0	1	0	0	CorrectCommission	0.254289	0.634390	1	0	1.580000e+01
218.268112	1.319526	city	4	1	1.558471	1.558471	0	1	0	0	CorrectCommission	0.516415	0.641700	1	0	1.532500e+01
219.567734	1.279739	city	5	1	1.608151	1.608151	0	1	0	0	CorrectCommission	0.671541	0.649979	1	0	1.485000e+01
220.867310	1.319408	city	1	1	1.501325	1.501325	0	1	0	0	CorrectCommission	0.337975	0.658736	1	0	1.437500e+01
222.173462	1.292899	city	5	1	1.962798	1.962798	0	1	0	0	CorrectCommission	1.778931	0.667506	1	0	1.390000e+01
223.473129	1.306413	city	9	0	0.000000	1.469715	0	0	0	1	OmissionError	0.239271	0.675947	1	0	1.342500e+01
224.799423	1.346192	city	7	1	0.977668	0.977668	0	1	0	0	CorrectCommission	1.297150	0.684012	1	0	1.295000e+01
226.118896	1.292745	city	3	1	1.442252	1.442252	0	1	0	0	CorrectCommission	0.153520	0.691888	1	0	1.247500e+01
230.184143	6.837761	break	0	0	0.000000	1.565711	0	0	0	0	ThoughtProbe	0.539021	0.700112	1	12	12
234.256241	1.306418	city	8	1	1.396438	1.396438	0	1	0	0	CorrectCommission	0.010465	0.709455	1	0	1.267647e+01
235.569214	1.319538	mountain	1	0	0.000000	0.982827	1	0	0	0	CorrectOmission	1.281041	0.720861	1	0	1.335294e+01
236.895370	1.332783	city	8	1	0.810978	0.810978	0	1	0	0	CorrectCommission	1.817644	0.735297	1	0	1.402941e+01
238.201538	1.279540	city	2	1	1.366989	1.366989	0	1	0	0	CorrectCommission	0.081490	0.753593	1	0	1.470588e+01
239.487778	1.292929	city	5	1	1.594387	1.594387	0	1	0	0	CorrectCommission	0.628564	0.776327	0	0	1.538235e+01
240.787415	1.306367	city	10	0	0.000000	1.314055	0	0	0	1	OmissionError	0.246779	0.803562	0	0	1.605882e+01
242.093689	1.306166	city	3	1	1.100826	1.100826	0	1	0	0	CorrectCommission	0.912588	0.834773	0	0	1.673529e+01
243.386505	1.279488	city	2	1	1.529536	1.529536	0	1	0	0	CorrectCommission	0.426066	0.868775	0	0	1.741176e+01
244.672806	1.293112	city	5	1	1.521415	1.521415	0	1	0	0	CorrectCommission	0.400707	0.903817	0	0	1.808824e+01
245.985718	1.332689	city	8	1	1.739967	1.739967	0	1	0	0	CorrectCommission	1.083140	0.937752	0	0	1.876471e+01
247.298553	1.293005	city	3	1	1.627586	1.627586	0	1	0	0	CorrectCommission	0.732228	0.968294	0	0	1.944118e+01
248.624878	1.359634	city	4	1	2.082259	2.082259	0	1	0	0	CorrectCommission	2.151951	0.993331	0	0	2.011765e+01
249.971130	1.332854	city	2	0	0.000000	2.064455	0	0	0	1	OmissionError	2.096356	1.011204	0	0	2.079412e+01
251.284027	1.292961	mountain	4	0	0.000000	1.822824	1	0	0	0	CorrectOmission	1.341861	1.020988	0	0	2.147059e+01
252.570297	1.279557	city	5	1	1.606018	1.606018	0	1	0	0	CorrectCommission	0.664881	1.022606	0	0	2.214706e+01
253.849792	1.279444	city	2	0	0.000000	1.662688	0	0	0	1	OmissionError	0.841833	1.016756	0	0	2.282353e+01
255.129395	1.279757	city	4	1	1.651852	1.651852	0	1	0	0	CorrectCommission	0.808000	1.004850	0	0	2.350000e+01
256.415619	1.292719	city	6	0	0.000000	1.232531	0	0	0	1	OmissionError	0.501338	0.988811	0	0	2.417647e+01
257.701752	1.279555	city	2	1	0.886492	0.886492	0	1	0	0	CorrectCommission	1.581849	0.970913	0	0	2.485294e+01
258.988098	1.293087	city	8	1	1.095506	1.095506	0	1	0	0	CorrectCommission	0.929200	0.953498	0	0	2.552941e+01
260.314331	1.359429	city	10	1	1.078992	1.078992	0	1	0	0	CorrectCommission	0.980765	0.938869	0	0	2.620588e+01
261.640533	1.292974	city	7	1	1.759496	1.759496	0	1	0	0	CorrectCommission	1.144118	0.929021	0	0	2.688235e+01
262.933472	1.292900	city	6	0	0.000000	1.591620	0	0	0	1	OmissionError	0.619924	0.925502	0	0	2.755882e+01
264.246399	1.332954	city	1	1	1.188222	1.188222	0	1	0	0	CorrectCommission	0.639694	0.929274	0	0	2.823529e+01
265.579346	1.332892	city	5	0	0.000000	1.162157	0	0	0	1	OmissionError	0.721082	0.940603	0	0	2.891176e+01
266.898804	1.306045	city	7	1	1.258727	1.258727	0	1	0	0	CorrectCommission	0.419542	0.959037	0	0	2.958824e+01
268.211700	1.319776	city	6	1	1.223231	1.223231	0	1	0	0	CorrectCommission	0.530377	0.983449	0	0	3.026471e+01
269.538055	1.332933	city	1	1	1.272620	1.272620	0	1	0	0	CorrectCommission	0.376159	1.012212	0	0	3.094118e+01
270.850952	1.292850	city	10	0	0.000000	1.895263	0	0	0	1	OmissionError	1.568052	1.043407	0	0	3.161765e+01
272.143829	1.292909	city	8	1	2.173814	2.173814	0	1	0	0	CorrectCommission	2.437831	1.075068	0	0	3.229412e+01
273.436676	1.292743	city	5	1	1.190926	1.190926	0	1	0	0	CorrectCommission	0.631248	1.105447	0	0	3.297059e+01
274.736145	1.306238	city	3	0	0.000000	0.971402	0	0	0	1	OmissionError	1.316718	1.133253	0	0	3.364706e+01
276.049133	1.319726	city	8	1	0.965290	0.965290	0	1	0	0	CorrectCommission	1.335803	1.157628	0	0	3.432353e+01
276.708984	12.302462	break	0	1	0.622641	0.622641	0	0	0	0	ThoughtProbe	2.405729	1.178127	0	35	35
289.657990	1.293062	city	1	1	1.311128	1.311128	0	1	0	0	CorrectCommission	0.255918	1.194560	0	0	3.502500e+01
290.970978	1.332904	city	8	1	1.248490	1.248490	0	1	0	0	CorrectCommission	0.451506	1.206902	0	0	3.505000e+01
292.310547	1.346245	city	3	1	1.102254	1.102254	0	1	0	0	CorrectCommission	0.908130	1.215005	0	0	3.507500e+01
293.623474	1.279577	city	2	1	1.674878	1.674878	0	1	0	0	CorrectCommission	0.879898	1.218498	0	0	3.510000e+01
294.909607	1.292734	city	3	0	0.000000	1.995514	0	0	0	1	OmissionError	1.881087	1.216806	0	0	3.512500e+01
296.202484	1.293014	mountain	4	0	0.000000	2.078283	1	0	0	0	CorrectOmission	2.139534	1.209207	0	0	3.515000e+01
297.495392	1.292789	mountain	5	0	0.000000	1.937307	1	0	0	0	CorrectOmission	1.699335	1.194999	0	0	3.517500e+01
298.781586	1.279608	city	1	1	1.586709	1.586709	0	1	0	0	CorrectCommission	0.604588	1.173682	0	0	3.520000e+01
300.061249	1.279734	city	6	0	0.000000	1.040611	0	0	0	1	OmissionError	1.100611	1.145139	0	0	3.522500e+01
301.340912	1.279585	city	4	1	0.756490	0.756490	0	1	0	0	CorrectCommission	1.987782	1.109657	0	0	3.525000e+01
302.633820	1.306238	city	8	1	1.191823	1.191823	0	1	0	0	CorrectCommission	0.628449	1.068037	0	0	3.527500e+01
303.933319	1.292746	city	7	1	1.528352	1.528352	0	1	0	0	CorrectCommission	0.422367	1.021635	0	0	3.530000e+01
305.252808	1.346220	city	5	1	1.859925	1.859925	0	1	0	0	CorrectCommission	1.457708	0.972228	0	0	3.532500e+01
306.579102	1.306344	city	1	0	0.000000	1.911915	0	0	0	1	OmissionError	1.620048	0.921915	0	0	3.535000e+01
307.878754	1.292959	city	8	1	1.742256	1.742256	0	1	0	0	CorrectCommission	1.090287	0.872980	0	0	3.537500e+01
309.198334	1.346210	city	7	0	0.000000	1.408883	0	0	0	1	OmissionError	0.049324	0.827720	0	0	3.540000e+01
310.551208	1.359553	city	6	1	1.155645	1.155645	0	1	0	0	CorrectCommission	0.741414	0.788240	0	0	3.542500e+01
311.870697	1.279462	city	5	0	0.000000	1.226394	0	0	0	1	OmissionError	0.520500	0.756191	1	0	3.545000e+01
313.150299	1.279743	city	7	0	0.000000	1.392800	0	0	0	1	OmissionError	0.000894	0.732701	1	0	3.547500e+01
314.429871	1.279371	city	1	1	1.426535	1.426535	0	1	0	0	CorrectCommission	0.104443	0.718246	1	0	3.550000e+01
315.729431	1.319721	city	8	0	0.000000	1.099269	0	0	0	1	OmissionError	0.917451	0.712610	1	0	3.552500e+01
317.049072	1.319590	city	9	1	0.870073	0.870073	0	1	0	0	CorrectCommission	1.633119	0.714885	1	0	3.555000e+01
318.368561	1.319380	city	6	1	1.198018	1.198018	0	1	0	0	CorrectCommission	0.609105	0.723657	1	0	3.557500e+01
319.674805	1.293106	city	10	1	1.329742	1.329742	0	1	0	0	CorrectCommission	0.197794	0.737134	1	0	3.560000e+01
320.974457	1.306221	mountain	10	1	1.375833	1.375833	0	0	1	0	CommissionError	0.053876	0.753256	1	0	3.562500e+01
322.280640	1.306116	city	3	1	1.673663	1.673663	0	1	0	0	CorrectCommission	0.876104	0.769913	1	0	3.565000e+01
323.580139	1.292896	city	5	0	0.000000	1.112299	0	0	0	1	OmissionError	0.876764	0.785086	0	0	3.567500e+01
324.874207	1.295249	city	1	1	0.751937	0.751937	0	1	0	0	CorrectCommission	2.002001	0.797092	0	0	3.570000e+01
326.160431	1.277187	city	3	1	1.652771	1.652771	0	1	0	0	CorrectCommission	0.810869	0.804651	0	0	3.572500e+01
327.458893	1.319751	city	4	0	0.000000	1.521135	0	0	0	1	OmissionError	0.399833	0.807090	0	0	3.575000e+01
328.785126	1.332709	city	2	1	1.075384	1.075384	0	1	0	0	CorrectCommission	0.992030	0.804279	0	0	3.577500e+01
330.137970	1.372964	city	10	1	1.033877	1.033877	0	1	0	0	CorrectCommission	1.121638	0.796605	0	0	3.580000e+01
331.470947	1.293012	city	9	1	1.806022	1.806022	0	1	0	0	CorrectCommission	1.289396	0.784954	0	0	3.582500e+01
332.803925	1.372916	city	1	1	1.322056	1.322056	0	1	0	0	CorrectCommission	0.221796	0.770564	1	0	3.585000e+01
334.143402	1.306072	city	5	0	0.000000	1.454606	0	0	0	1	OmissionError	0.192096	0.754880	1	0	3.587500e+01
335.449585	1.306282	city	6	1	1.740856	1.740856	0	1	0	0	CorrectCommission	1.085915	0.739379	1	0	3.590000e+01
336.755890	1.306303	city	10	1	1.717987	1.717987	0	1	0	0	CorrectCommission	1.014505	0.725441	1	0	3.592500e+01
338.068756	1.319425	city	7	0	0.000000	1.378917	0	0	0	1	OmissionError	0.044246	0.714286	1	0	3.595000e+01
339.381653	1.306378	city	5	1	1.059729	1.059729	0	1	0	0	CorrectCommission	1.040914	0.706842	1	0	3.597500e+01
340.034821	8.663676	break	0	0	0.000000	1.096506	0	0	0	0	ThoughtProbe	0.926077	0.703622	1	36	36
349.344971	1.292902	city	7	0	0.000000	1.324690	0	0	0	1	OmissionError	0.213571	0.704731	1	0	3.643478e+01
350.631287	1.279716	mountain	3	0	0.000000	1.579721	1	0	0	0	CorrectOmission	0.582768	0.709827	1	0	3.686957e+01
351.924255	1.306245	city	6	1	1.697042	1.697042	0	1	0	0	CorrectCommission	0.949105	0.718109	1	0	3.730435e+01
353.237091	1.319433	city	5	0	0.000000	1.512094	0	0	0	1	OmissionError	0.371602	0.728427	1	0	3.773913e+01
354.536652	1.279707	city	8	0	0.000000	1.305217	0	0	0	1	OmissionError	0.274374	0.739434	1	0	3.817391e+01
355.829559	1.306094	city	1	1	1.356751	1.356751	0	1	0	0	CorrectCommission	0.113460	0.749780	1	0	3.860870e+01
357.142456	1.319712	city	7	1	1.947035	1.947035	0	1	0	0	CorrectCommission	1.729710	0.758406	1	0	3.904348e+01
358.462036	1.319407	city	5	1	0.950980	0.950980	0	1	0	0	CorrectCommission	1.380484	0.764703	1	0	3.947826e+01
359.761536	1.279592	city	1	1	0.858770	0.858770	0	1	0	0	CorrectCommission	1.668412	0.768781	1	0	3.991304e+01
361.054474	1.306293	city	3	1	1.165148	1.165148	0	1	0	0	CorrectCommission	0.711742	0.771448	1	0	4.034783e+01
362.354034	1.292849	city	2	1	1.511799	1.511799	0	1	0	0	CorrectCommission	0.370681	0.774207	0	0	4.078261e+01
363.653656	1.306402	city	4	1	1.501746	1.501746	0	1	0	0	CorrectCommission	0.339291	0.778989	0	0	4.121739e+01
364.959961	1.306220	city	8	1	1.129150	1.129150	0	1	0	0	CorrectCommission	0.824148	0.787839	0	0	4.165217e+01
366.259552	1.292909	city	7	1	1.612810	1.612810	0	1	0	0	CorrectCommission	0.686088	0.802542	0	0	4.208696e+01
367.572357	1.332740	mountain	1	1	1.279145	1.279145	0	0	1	0	CommissionError	0.355786	0.824290	0	0	4.252174e+01
368.885193	1.292916	city	10	1	1.420554	1.420554	0	1	0	0	CorrectCommission	0.085766	0.853407	0	0	4.295652e+01
370.198090	1.332877	city	4	1	1.657737	1.657737	0	1	0	0	CorrectCommission	0.826375	0.889211	0	0	4.339130e+01
371.517731	1.306391	city	10	0	0.000000	1.738065	0	0	0	1	OmissionError	1.077201	0.929946	0	0	4.382609e+01
372.817383	1.292918	city	6	0	0.000000	1.730146	0	0	0	1	OmissionError	1.052473	0.972950	0	0	4.426087e+01
374.116882	1.306087	city	7	0	0.000000	1.702587	0	0	0	1	OmissionError	0.966419	1.014947	0	0	4.469565e+01
375.416382	1.292918	mountain	7	0	0.000000	1.723996	1	0	0	0	CorrectOmission	1.033268	1.052324	0	0	4.513043e+01
376.709351	1.293048	city	6	1	1.862980	1.862980	0	1	0	0	CorrectCommission	1.467248	1.081552	0	0	4.556522e+01
378.015686	1.319586	city	8	1	2.188147	2.188147	0	1	0	0	CorrectCommission	2.482586	1.099540	0	0	46
379.328583	1.306236	city	7	1	1.151004	1.151004	0	1	0	0	CorrectCommission	0.755906	1.103968	0	0	4.643478e+01
380.634766	1.306086	city	1	0	0.000000	1.383062	0	0	0	1	OmissionError	0.031301	1.093616	0	0	4.686957e+01
381.940918	1.306235	city	3	1	1.998971	1.998971	0	1	0	0	CorrectCommission	1.891882	1.068486	0	0	4.730435e+01
383.273895	1.359702	city	5	0	0.000000	2.113380	0	0	0	1	OmissionError	2.249125	1.029819	0	0	4.773913e+01
384.600189	1.292892	city	2	1	1.959447	1.959447	0	1	0	0	CorrectCommission	1.768469	0.980097	0	0	4.817391e+01
385.899750	1.306234	mountain	8	0	0.000000	1.770332	1	0	0	0	CorrectOmission	1.177954	0.922770	0	0	4.860870e+01
387.205994	1.306240	city	3	0	0.000000	1.581179	0	0	0	1	OmissionError	0.587322	0.861926	0	0	4.904348e+01
388.498901	1.279600	city	8	0	0.000000	1.427134	0	0	0	1	OmissionError	0.106312	0.801812	0	0	4.947826e+01
389.778412	1.279418	city	6	1	1.343340	1.343340	0	1	0	0	CorrectCommission	0.155336	0.746379	1	0	4.991304e+01
391.064636	1.293053	city	2	1	1.364942	1.364942	0	1	0	0	CorrectCommission	0.087881	0.698844	1	0	5.034783e+01
392.390961	1.359567	city	5	1	1.313008	1.313008	0	1	0	0	CorrectCommission	0.250048	0.661394	1	0	5.078261e+01
393.730530	1.319568	city	1	1	1.403870	1.403870	0	1	0	0	CorrectCommission	0.033670	0.634998	1	0	5.121739e+01
395.036743	1.292879	city	7	1	1.816004	1.816004	0	1	0	0	CorrectCommission	1.320566	0.619445	1	0	5.165217e+01
396.342896	1.319434	city	2	0	0.000000	1.702783	0	0	0	1	OmissionError	0.967032	0.613484	1	0	5.208696e+01
397.649139	1.293064	city	1	1	1.398083	1.398083	0	1	0	0	CorrectCommission	0.015602	0.615119	1	0	5.252174e+01
398.955383	1.319393	city	6	0	0.000000	1.235782	0	0	0	1	OmissionError	0.491187	0.621946	1	0	5.295652e+01
400.261536	1.292917	city	3	1	1.328649	1.328649	0	1	0	0	CorrectCommission	0.201207	0.631413	1	0	5.339130e+01
401.587830	1.359696	city	7	1	1.789457	1.789457	0	1	0	0	CorrectCommission	1.237672	0.641203	1	0	5.382609e+01
402.914154	1.292911	city	8	1	1.721152	1.721152	0	1	0	0	CorrectCommission	1.024390	0.649422	1	0	5.426087e+01
404.233734	1.346243	city	3	0	0.000000	1.669173	0	0	0	1	OmissionError	0.862084	0.654805	1	0	5.469565e+01
405.553284	1.292892	city	7	0	0.000000	1.631488	0	0	0	1	OmissionError	0.744411	0.656764	1	0	5.513043e+01
406.866089	1.332725	city	10	0	0.000000	1.606065	0	0	0	1	OmissionError	0.665028	0.655357	1	0	5.556522e+01
407.532471	18.367426	break	0	0	0.000000	1.590873	0	0	0	0	ThoughtProbe	0.617589	0.651211	1	56	56
426.546265	1.292772	city	3	1	1.583880	1.583880	0	1	0	0	CorrectCommission	0.595754	0.645342	1	0	5.647059e+01
427.852478	1.319641	city	1	1	1.583054	1.583054	0	1	0	0	CorrectCommission	0.593177	0.638923	1	0	5.694118e+01
429.185516	1.346406	city	5	1	1.666430	1.666430	0	1	0	0	CorrectCommission	0.853518	0.633072	1	0	5.741176e+01
430.531769	1.346132	mountain	4	0	0.000000	1.558356	1	0	0	0	CorrectOmission	0.516057	0.628686	1	0	5.788235e+01
431.851288	1.292912	city	4	1	1.384058	1.384058	0	1	0	0	CorrectCommission	0.028191	0.626298	1	0	5.835294e+01
433.157562	1.319652	city	8	1	1.268761	1.268761	0	1	0	0	CorrectCommission	0.388209	0.625986	1	0	5.882353e+01
434.463806	1.292819	city	9	1	1.689817	1.689817	0	1	0	0	CorrectCommission	0.926545	0.627374	1	0	5.929412e+01
435.809998	1.399544	city	6	1	1.618630	1.618630	0	1	0	0	CorrectCommission	0.704262	0.629698	1	0	5.976471e+01
437.156219	1.292910	city	10	1	1.307455	1.307455	0	1	0	0	CorrectCommission	0.267387	0.631949	1	0	6.023529e+01
438.455811	1.306257	city	7	1	1.834628	1.834628	0	1	0	0	CorrectCommission	1.378720	0.633026	1	0	6.070588e+01
439.768616	1.319393	city	9	0	0.000000	1.400583	0	0	0	1	OmissionError	0.023408	0.631901	1	0	6.117647e+01
441.094910	1.333156	city	3	1	0.963432	0.963432	0	1	0	0	CorrectCommission	1.341604	0.627845	1	0	6.164706e+01
442.414551	1.306121	city	5	1	1.481286	1.481286	0	1	0	0	CorrectCommission	0.275403	0.620485	1	0	6.211765e+01
443.727386	1.319566	city	3	1	1.714170	1.714170	0	1	0	0	CorrectCommission	1.002587	0.609969	1	0	6.258824e+01
445.053528	1.332730	city	7	1	1.686752	1.686752	0	1	0	0	CorrectCommission	0.916975	0.596924	1	0	6.305882e+01
446.386444	1.333085	city	8	1	1.578535	1.578535	0	1	0	0	CorrectCommission	0.579064	0.582465	1	0	6.352941e+01
447.719421	1.332890	city	6	1	1.429535	1.429535	0	1	0	0	CorrectCommission	0.113811	0.568101	1	0	64
449.058960	1.346204	city	3	1	1.178555	1.178555	0	1	0	0	CorrectCommission	0.669878	0.555605	1	0	6.447059e+01
450.371826	1.279480	mountain	10	0	0.000000	1.244099	1	0	0	0	CorrectOmission	0.465217	0.546840	1	0	6.494118e+01
451.664734	1.306361	city	7	1	1.444191	1.444191	0	1	0	0	CorrectCommission	0.159573	0.543588	1	0	6.541176e+01
452.964355	1.292904	city	9	1	1.596856	1.596856	0	1	0	0	CorrectCommission	0.636272	0.547353	1	0	6.588235e+01
454.263947	1.306236	city	8	0	0.000000	1.352336	0	0	0	1	OmissionError	0.127245	0.559142	1	0	6.635294e+01
455.583435	1.332736	city	3	1	1.097064	1.097064	0	1	0	0	CorrectCommission	0.924337	0.579357	1	0	6.682353e+01
456.896332	1.293048	city	2	0	0.000000	1.217471	0	0	0	1	OmissionError	0.548363	0.607593	1	0	6.729412e+01
458.202576	1.319490	city	9	1	1.384262	1.384262	0	1	0	0	CorrectCommission	0.027556	0.642618	1	0	6.776471e+01
459.508789	1.292890	city	8	0	0.000000	1.268139	0	0	0	1	OmissionError	0.390150	0.682376	1	0	6.823529e+01
460.835052	1.359647	city	10	1	1.144357	1.144357	0	1	0	0	CorrectCommission	0.776663	0.724088	1	0	6.870588e+01
462.161285	1.292816	city	3	0	0.000000	1.288168	0	0	0	1	OmissionError	0.327612	0.764497	1	0	6.917647e+01
463.454193	1.293019	city	5	1	1.536379	1.536379	0	1	0	0	CorrectCommission	0.447431	0.800241	0	0	6.964706e+01
464.767151	1.332873	city	8	1	1.725797	1.725797	0	1	0	0	CorrectCommission	1.038893	0.828251	0	0	7.011765e+01
466.099945	1.332757	city	4	1	0.737643	0.737643	0	1	0	0	CorrectCommission	2.046632	0.846177	0	0	7.058824e+01
467.406189	1.279722	city	5	1	0.535847	0.535847	0	1	0	0	CorrectCommission	2.676743	0.852696	0	0	7.105882e+01
468.685852	1.279567	city	4	1	1.710931	1.710931	0	1	0	0	CorrectCommission	0.992474	0.847745	0	0	7.152941e+01
469.325623	10.916269	break	0	0	0.000000	1.745649	0	0	0	0	ThoughtProbe	1.100879	0.832508	0	72	72
480.888428	1.293054	city	6	1	1.360141	1.360141	0	1	0	0	CorrectCommission	0.102874	0.809188	0	0	7.165217e+01
482.234711	1.399559	mountain	5	0	0.000000	1.274550	1	0	0	0	CorrectOmission	0.370134	0.780675	0	0	7.130435e+01
483.587555	1.306089	city	3	1	1.410705	1.410705	0	1	0	0	CorrectCommission	0.055015	0.750091	1	0	7.095652e+01
484.907074	1.332956	city	4	1	1.690439	1.690439	0	1	0	0	CorrectCommission	0.928486	0.720427	1	0	7.060870e+01
486.246613	1.346145	city	3	1	1.236627	1.236627	0	1	0	0	CorrectCommission	0.488548	0.694250	1	0	7.026087e+01
487.599548	1.359726	city	1	1	1.145397	1.145397	0	1	0	0	CorrectCommission	0.773414	0.673531	1	0	6.991304e+01
488.925873	1.292885	city	8	1	1.444194	1.444194	0	1	0	0	CorrectCommission	0.159584	0.659583	1	0	6.956522e+01
490.245422	1.346224	city	1	1	1.803383	1.803383	0	1	0	0	CorrectCommission	1.281155	0.653142	1	0	6.921739e+01
491.578247	1.319434	city	3	0	0.000000	1.586580	0	0	0	1	OmissionError	0.604185	0.654397	1	0	6.886957e+01
492.904388	1.332865	city	2	1	1.251993	1.251993	0	1	0	0	CorrectCommission	0.440569	0.663175	1	0	6.852174e+01
494.224030	1.306383	city	5	1	1.257828	1.257828	0	1	0	0	CorrectCommission	0.422347	0.678942	1	0	6.817391e+01
495.543640	1.332829	city	10	1	1.268681	1.268681	0	1	0	0	CorrectCommission	0.388458	0.700849	1	0	6.782609e+01
496.856537	1.292991	city	5	1	1.503042	1.503042	0	1	0	0	CorrectCommission	0.343337	0.727772	1	0	6.747826e+01
498.162842	1.319605	mountain	7	0	0.000000	1.669622	1	0	0	0	CorrectOmission	0.863486	0.758290	1	0	6.713043e+01
499.462341	1.279420	mountain	2	0	0.000000	1.757390	1	0	0	0	CorrectOmission	1.137543	0.790699	0	0	6.678261e+01
500.755157	1.306201	city	8	0	0.000000	1.755313	0	0	0	1	OmissionError	1.131058	0.823081	0	0	6.643478e+01
502.054779	1.293059	city	10	1	1.652359	1.652359	0	1	0	0	CorrectCommission	0.809583	0.853398	0	0	6.608696e+01
503.354370	1.306103	city	1	1	1.437496	1.437496	0	1	0	0	CorrectCommission	0.138669	0.879665	0	0	6.573913e+01
504.680603	1.346358	city	2	0	0.000000	1.603490	0	0	0	1	OmissionError	0.656988	0.900174	0	0	6.539130e+01
506.000153	1.292744	city	5	0	0.000000	1.891811	0	0	0	1	OmissionError	1.557275	0.913695	0	0	6.504348e+01
507.293060	1.293072	city	10	1	2.043928	2.043928	0	1	0	0	CorrectCommission	2.032261	0.919766	0	0	6.469565e+01
508.599335	1.319475	city	1	1	1.801310	1.801310	0	1	0	0	CorrectCommission	1.274682	0.918863	0	0	6.434783e+01
509.925476	1.332839	city	3	0	0.000000	1.300800	0	0	0	1	OmissionError	0.288168	0.912474	0	0	64
511.258392	1.332948	city	8	1	0.910059	0.910059	0	1	0	0	CorrectCommission	1.508261	0.902991	0	0	6.365217e+01
512.591370	1.333012	city	10	1	0.996748	0.996748	0	1	0	0	CorrectCommission	1.237573	0.893425	0	0	6.330435e+01
513.930969	1.346207	mountain	9	0	0.000000	1.140657	1	0	0	0	CorrectOmission	0.788216	0.887031	0	0	6.295652e+01
515.263855	1.319560	city	2	0	0.000000	1.305757	0	0	0	1	OmissionError	0.272688	0.886835	0	0	6.260870e+01
516.570068	1.292903	city	6	0	0.000000	1.456021	0	0	0	1	OmissionError	0.196513	0.895108	0	0	6.226087e+01
517.862915	1.292797	city	1	1	1.555420	1.555420	0	1	0	0	CorrectCommission	0.506889	0.912927	0	0	6.191304e+01
519.182495	1.346339	city	9	1	1.567927	1.567927	0	1	0	0	CorrectCommission	0.545942	0.939896	0	0	6.156522e+01
520.515381	1.319439	city	7	0	0.000000	1.382373	0	0	0	1	OmissionError	0.033454	0.974124	0	0	6.121739e+01
521.828186	1.306206	city	9	1	1.134020	1.134020	0	1	0	0	CorrectCommission	0.808939	1.012384	0	0	6.086957e+01
523.134521	1.306421	city	5	1	0.958132	0.958132	0	1	0	0	CorrectCommission	1.358154	1.050477	0	0	6.052174e+01
524.454163	1.332872	city	8	1	2.033262	2.033262	0	1	0	0	CorrectCommission	1.998958	1.083752	0	0	6.017391e+01
525.787048	1.332907	city	4	1	2.060258	2.060258	0	1	0	0	CorrectCommission	2.083251	1.107661	0	0	5.982609e+01
527.153259	1.399523	city	7	1	1.857744	1.857744	0	1	0	0	CorrectCommission	1.450900	1.118279	0	0	5.947826e+01
528.512817	1.319593	city	9	1	1.846559	1.846559	0	1	0	0	CorrectCommission	1.415973	1.112673	0	0	5.913043e+01
529.845703	1.346183	city	7	1	0.857705	0.857705	0	1	0	0	CorrectCommission	1.671738	1.089077	0	0	5.878261e+01
531.178650	1.319607	city	1	1	1.041107	1.041107	0	1	0	0	CorrectCommission	1.099062	1.046922	0	0	5.843478e+01
532.491516	1.306234	city	4	1	1.211098	1.211098	0	1	0	0	CorrectCommission	0.568263	0.986760	0	0	5.808696e+01
533.817749	1.346204	city	1	1	0.953043	0.953043	0	1	0	0	CorrectCommission	1.374043	0.910028	0	0	5.773913e+01
535.143921	1.306072	city	4	1	1.156383	1.156383	0	1	0	0	CorrectCommission	0.739112	0.818799	0	0	5.739130e+01
536.456787	1.319725	city	7	1	1.039295	1.039295	0	1	0	0	CorrectCommission	1.104720	0.715609	1	0	5.704348e+01
537.763062	1.292773	city	1	1	0.988110	0.988110	0	1	0	0	CorrectCommission	1.264545	0.603262	1	0	5.669565e+01
539.055847	1.292891	city	4	1	1.342229	1.342229	0	1	0	0	CorrectCommission	0.158805	0.484750	1	0	5.634783e+01
543.328003	7.251349	break	0	0	1.276787	1.276787	0	0	0	0	ThoughtProbe	0.363149	0.363149	1	56	56
