onset	duration	trial_type	image_type	Press	ReactionTime	ReactionTime_Interpolated	CorrectOmission	CorrectCommission	CommissionError	OmissionError	response_type	nonsmoothVarianceTimeCourse	VarianceTimeCourse	In_the_Zone	ThoughtProbe	ThoughtProbe_Interpolated
0.666416	1.306246	city	5	1	1.080238	1.080238	0	1	0	0	CorrectCommission	0.063228	0.063228	1	0	45
1.959233	1.279388	city	9	1	0.921084	0.921084	0	1	0	0	CorrectCommission	0.593708	0.253341	1	0	45
3.238807	1.279759	mountain	5	0	0.000000	0.881001	1	0	0	0	CorrectOmission	0.727308	0.437801	1	0	45
4.518394	1.279417	city	10	1	0.912563	0.912563	0	1	0	0	CorrectCommission	0.622111	0.611047	1	0	45
5.797981	1.279755	city	3	1	0.968341	0.968341	0	1	0	0	CorrectCommission	0.436195	0.767781	1	0	45
7.077558	1.279398	city	8	1	0.697466	0.697466	0	1	0	0	CorrectCommission	1.339055	0.903252	0	0	45
8.357041	1.279569	city	10	1	0.751150	0.751150	0	1	0	0	CorrectCommission	1.160118	1.013504	0	0	45
9.636617	1.279580	city	1	1	1.511800	1.511800	0	1	0	0	CorrectCommission	1.375220	1.095854	0	0	45
10.916194	1.279577	city	6	1	1.889201	1.889201	0	1	0	0	CorrectCommission	2.633143	1.149276	0	0	45
12.195859	1.279752	city	5	1	1.930460	1.930460	0	1	0	0	CorrectCommission	2.770664	1.174645	0	0	45
13.475439	1.279408	city	10	1	1.880083	1.880083	0	1	0	0	CorrectCommission	2.602754	1.174884	0	0	45
14.754951	1.279616	mountain	7	0	0.000000	1.567947	1	0	0	0	CorrectOmission	1.562364	1.154767	0	0	45
16.041275	1.293033	city	2	1	1.209582	1.209582	0	1	0	0	CorrectCommission	0.367890	1.120424	0	0	45
17.327497	1.279415	city	3	1	1.020521	1.020521	0	1	0	0	CorrectCommission	0.262272	1.078678	0	0	45
18.613741	1.293071	city	2	1	1.003765	1.003765	0	1	0	0	CorrectCommission	0.318123	1.036217	0	0	45
19.906742	1.292931	city	6	1	0.901207	0.901207	0	1	0	0	CorrectCommission	0.659962	0.998819	0	0	45
21.192995	1.279573	city	4	1	1.021117	1.021117	0	1	0	0	CorrectCommission	0.260287	0.970761	0	0	45
22.472481	1.279400	city	3	1	0.808557	0.808557	0	1	0	0	CorrectCommission	0.968773	0.954460	0	0	45
23.752050	1.279742	mountain	9	0	0.000000	0.875160	1	0	0	0	CorrectOmission	0.746777	0.950343	0	0	45
25.031630	1.279416	city	3	1	0.978196	0.978196	0	1	0	0	CorrectCommission	0.403347	0.957125	0	0	45
26.317884	1.293091	city	1	1	0.874934	0.874934	0	1	0	0	CorrectCommission	0.747530	0.972205	0	0	45
27.604212	1.279564	city	4	1	0.646638	0.646638	0	1	0	0	CorrectCommission	1.508470	0.992245	0	0	45
28.883699	1.279412	city	7	1	1.348292	1.348292	0	1	0	0	CorrectCommission	0.830228	1.013792	0	0	45
30.163204	1.279598	city	3	1	1.362678	1.362678	0	1	0	0	CorrectCommission	0.878179	1.033900	0	0	45
31.442879	1.279748	city	4	1	1.979139	1.979139	0	1	0	0	CorrectCommission	2.932919	1.050503	0	0	45
32.722446	1.279390	city	1	1	1.660889	1.660889	0	1	0	0	CorrectCommission	1.872151	1.062627	0	0	45
34.001976	1.279669	mountain	7	0	0.000000	1.145089	1	0	0	0	CorrectOmission	0.152927	1.070483	0	0	45
35.281639	1.279656	city	5	1	0.803183	0.803183	0	1	0	0	CorrectCommission	0.986687	1.075200	0	0	45
36.581261	1.319586	city	1	1	1.006615	1.006615	0	1	0	0	CorrectCommission	0.308623	1.078420	0	0	45
37.880840	1.279575	city	9	1	0.714178	0.714178	0	1	0	0	CorrectCommission	1.283352	1.081945	0	0	45
39.160408	1.279562	city	4	1	0.595903	0.595903	0	1	0	0	CorrectCommission	1.677575	1.087204	0	0	45
40.453300	1.306220	city	5	1	1.089118	1.089118	0	1	0	0	CorrectCommission	0.033631	1.095022	0	0	45
41.752884	1.292948	city	10	1	0.888060	0.888060	0	1	0	0	CorrectCommission	0.703782	1.105463	0	0	45
43.039135	1.279548	city	9	1	0.783565	0.783565	0	1	0	0	CorrectCommission	1.052076	1.117750	0	0	45
44.338615	1.319419	city	5	1	0.750352	0.750352	0	1	0	0	CorrectCommission	1.162777	1.130476	0	0	45
45.638111	1.279566	city	8	1	0.497879	0.497879	0	1	0	0	CorrectCommission	2.004301	1.141832	0	0	45
46.917690	1.279599	city	7	1	0.722337	0.722337	0	1	0	0	CorrectCommission	1.256156	1.149964	0	0	45
48.197392	1.279801	city	5	1	0.767040	0.767040	0	1	0	0	CorrectCommission	1.107157	1.153350	0	0	45
49.490379	1.306169	city	4	1	0.643594	0.643594	0	1	0	0	CorrectCommission	1.518618	1.151058	0	0	45
50.809902	1.332883	city	5	1	0.804810	0.804810	0	1	0	0	CorrectCommission	0.981262	1.142908	0	0	45
52.116096	1.279503	city	1	1	0.712007	0.712007	0	1	0	0	CorrectCommission	1.290588	1.129622	0	0	45
53.408974	1.306248	city	4	1	0.729795	0.729795	0	1	0	0	CorrectCommission	1.231299	1.112735	0	0	45
54.715214	1.306233	city	6	1	1.642888	1.642888	0	1	0	0	CorrectCommission	1.812152	1.094425	0	0	45
56.008167	1.279677	city	7	1	1.410290	1.410290	0	1	0	0	CorrectCommission	1.036874	1.077205	0	0	45
57.294456	1.292900	city	3	1	1.350901	1.350901	0	1	0	0	CorrectCommission	0.838925	1.063633	0	0	45
60.933228	5.984640	break	0	1	1.148156	1.148156	0	0	0	0	ThoughtProbe	0.163150	1.055905	0	45	45
64.565277	1.279462	city	4	1	1.242914	1.242914	0	1	0	0	CorrectCommission	0.478991	1.055555	0	0	4.497500e+01
65.851463	1.292903	city	6	1	0.817826	0.817826	0	1	0	0	CorrectCommission	0.937881	1.063199	0	0	4.495000e+01
67.157707	1.319595	city	10	1	1.512099	1.512099	0	1	0	0	CorrectCommission	1.376216	1.078473	0	0	4.492500e+01
68.477287	1.319569	city	8	1	1.164796	1.164796	0	1	0	0	CorrectCommission	0.218615	1.100035	0	0	4.490000e+01
69.783600	1.293045	city	7	1	0.858519	0.858519	0	1	0	0	CorrectCommission	0.802244	1.125843	0	0	4.487500e+01
71.096565	1.332888	city	1	1	0.558408	0.558408	0	1	0	0	CorrectCommission	1.802550	1.153342	0	0	4.485000e+01
72.402832	1.279640	city	4	1	1.695730	1.695730	0	1	0	0	CorrectCommission	1.988282	1.179833	0	0	4.482500e+01
73.709061	1.332821	mountain	8	0	0.000000	1.687277	1	0	0	0	CorrectOmission	1.960107	1.202842	0	0	4.480000e+01
75.015190	1.279442	city	7	1	1.191613	1.191613	0	1	0	0	CorrectCommission	0.307996	1.220326	0	0	4.477500e+01
76.294731	1.279643	city	4	1	0.867300	0.867300	0	1	0	0	CorrectCommission	0.772978	1.230919	0	0	4.475000e+01
77.581017	1.292917	city	10	1	1.724521	1.724521	0	1	0	0	CorrectCommission	2.084245	1.233935	0	0	4.472500e+01
78.893921	1.332898	city	9	0	0.000000	1.737255	0	0	0	1	OmissionError	2.126688	1.229364	0	0	4.470000e+01
80.200195	1.279645	mountain	2	0	0.000000	1.298857	1	0	0	0	CorrectOmission	0.665455	1.217896	0	0	4.467500e+01
81.479729	1.279422	city	3	1	0.802683	0.802683	0	1	0	0	CorrectCommission	0.988354	1.200780	0	0	4.465000e+01
82.772644	1.306420	city	8	1	0.642088	0.642088	0	1	0	0	CorrectCommission	1.523637	1.179602	0	0	4.462500e+01
84.078964	1.306213	city	10	1	1.512508	1.512508	0	1	0	0	CorrectCommission	1.377580	1.156154	0	0	4.460000e+01
85.405106	1.346077	city	2	1	1.424500	1.424500	0	1	0	0	CorrectCommission	1.084239	1.132278	0	0	4.457500e+01
86.731255	1.306221	city	8	1	1.254159	1.254159	0	1	0	0	CorrectCommission	0.516471	1.109671	0	0	4.455000e+01
88.024246	1.279761	city	4	1	1.018123	1.018123	0	1	0	0	CorrectCommission	0.270264	1.089743	0	0	4.452500e+01
89.303909	1.279556	city	9	1	1.713785	1.713785	0	1	0	0	CorrectCommission	2.048462	1.073491	0	0	4.450000e+01
90.583473	1.279581	city	4	1	1.616026	1.616026	0	1	0	0	CorrectCommission	1.722618	1.061344	0	0	4.447500e+01
91.869659	1.292785	city	6	1	1.325706	1.325706	0	1	0	0	CorrectCommission	0.754946	1.053193	0	0	4.445000e+01
93.162567	1.293036	mountain	3	0	0.000000	1.080179	1	0	0	0	CorrectOmission	0.063426	1.048360	0	0	4.442500e+01
94.448914	1.279651	city	7	1	0.917103	0.917103	0	1	0	0	CorrectCommission	0.606978	1.045640	0	0	4.440000e+01
95.741776	1.306084	city	3	1	0.874136	0.874136	0	1	0	0	CorrectCommission	0.750192	1.043443	0	0	4.437500e+01
97.047989	1.306339	city	10	1	0.680399	0.680399	0	1	0	0	CorrectCommission	1.395940	1.040069	0	0	4.435000e+01
98.340950	1.279573	city	6	1	0.653693	0.653693	0	1	0	0	CorrectCommission	1.484955	1.033944	0	0	4.432500e+01
99.620529	1.279588	city	2	1	0.818943	0.818943	0	1	0	0	CorrectCommission	0.934156	1.023924	0	0	4.430000e+01
100.913437	1.306233	city	6	1	1.768318	1.768318	0	1	0	0	CorrectCommission	2.230225	1.009524	0	0	4.427500e+01
102.212914	1.292723	city	2	1	1.642931	1.642931	0	1	0	0	CorrectCommission	1.812296	0.990963	0	0	4.425000e+01
103.505821	1.293094	city	10	0	0.000000	1.195640	0	0	0	1	OmissionError	0.321420	0.969201	0	0	4.422500e+01
104.812088	1.319430	city	7	1	0.823094	0.823094	0	1	0	0	CorrectCommission	0.920320	0.945704	0	0	4.420000e+01
106.118233	1.292861	city	8	1	0.921945	0.921945	0	1	0	0	CorrectCommission	0.590839	0.922097	0	0	4.417500e+01
107.411224	1.293132	city	1	1	0.952005	0.952005	0	1	0	0	CorrectCommission	0.490644	0.899913	0	0	4.415000e+01
108.697556	1.279519	city	2	1	1.075814	1.075814	0	1	0	0	CorrectCommission	0.077974	0.880313	0	0	4.412500e+01
109.997093	1.319567	city	7	1	0.841231	0.841231	0	1	0	0	CorrectCommission	0.859868	0.863953	0	0	4.410000e+01
111.303246	1.292740	city	6	1	0.937124	0.937124	0	1	0	0	CorrectCommission	0.540246	0.850979	0	0	4.407500e+01
112.609436	1.319642	city	3	1	0.755741	0.755741	0	1	0	0	CorrectCommission	1.144817	0.841188	0	0	4.405000e+01
113.929031	1.319536	city	1	1	1.605135	1.605135	0	1	0	0	CorrectCommission	1.686317	0.834204	0	0	4.402500e+01
117.154694	5.131792	break	0	0	0.000000	1.431687	0	0	0	0	ThoughtProbe	1.108195	0.829739	0	44	44
120.380302	1.319430	city	10	1	0.932599	0.932599	0	1	0	0	CorrectCommission	0.555327	0.827777	0	0	4.391176e+01
121.686455	1.292876	mountain	10	1	0.805071	0.805071	0	0	1	0	CommissionError	0.980394	0.828586	0	0	4.382353e+01
122.972763	1.279732	city	5	1	0.942217	0.942217	0	1	0	0	CorrectCommission	0.523268	0.832620	0	0	4.373529e+01
124.265747	1.306236	city	8	1	1.415805	1.415805	0	1	0	0	CorrectCommission	1.055256	0.840419	0	0	4.364706e+01
125.565277	1.292825	city	7	1	1.198847	1.198847	0	1	0	0	CorrectCommission	0.332110	0.852343	0	0	4.355882e+01
126.864761	1.306146	city	4	1	1.045354	1.045354	0	1	0	0	CorrectCommission	0.179502	0.868397	0	0	4.347059e+01
128.157715	1.279761	city	3	1	0.924920	0.924920	0	1	0	0	CorrectCommission	0.580923	0.888063	0	0	4.338235e+01
129.470612	1.346042	city	5	1	0.841695	0.841695	0	1	0	0	CorrectCommission	0.858322	0.910284	0	0	4.329412e+01
130.790176	1.293071	city	10	1	0.666503	0.666503	0	1	0	0	CorrectCommission	1.442257	0.933585	0	0	4.320588e+01
132.089844	1.306280	city	7	1	0.751413	0.751413	0	1	0	0	CorrectCommission	1.159241	0.956273	0	0	4.311765e+01
133.396011	1.306056	city	8	1	0.833016	0.833016	0	1	0	0	CorrectCommission	0.887251	0.976675	0	0	4.302941e+01
134.695572	1.293061	city	3	1	0.666886	0.666886	0	1	0	0	CorrectCommission	1.440980	0.993363	0	0	4.294118e+01
136.008469	1.332742	city	10	1	1.622350	1.622350	0	1	0	0	CorrectCommission	1.743697	1.005359	0	0	4.285294e+01
137.314621	1.279557	city	5	1	1.231452	1.231452	0	1	0	0	CorrectCommission	0.440786	1.012162	0	0	4.276471e+01
138.600876	1.292931	city	3	1	0.892636	0.892636	0	1	0	0	CorrectCommission	0.688528	1.013803	0	0	4.267647e+01
139.893860	1.293063	city	2	1	1.693815	1.693815	0	1	0	0	CorrectCommission	1.981900	1.010669	0	0	4.258824e+01
141.186844	1.292909	city	9	1	1.476015	1.476015	0	1	0	0	CorrectCommission	1.255944	1.003360	0	0	4.250000e+01
142.479767	1.292917	city	4	1	1.153868	1.153868	0	1	0	0	CorrectCommission	0.182190	0.992560	0	0	4.241176e+01
143.765961	1.279481	city	6	1	0.981498	0.981498	0	1	0	0	CorrectCommission	0.392342	0.978867	0	0	4.232353e+01
145.052109	1.292814	city	10	1	0.857478	0.857478	0	1	0	0	CorrectCommission	0.805714	0.962691	0	0	4.223529e+01
146.345001	1.292961	mountain	1	1	0.498727	0.498727	0	0	1	0	CommissionError	2.001476	0.944231	0	0	4.214706e+01
147.644669	1.306366	city	4	1	0.932529	0.932529	0	1	0	0	CorrectCommission	0.555560	0.923552	0	0	4.205882e+01
148.937546	1.279410	city	1	1	0.867924	0.867924	0	1	0	0	CorrectCommission	0.770897	0.900748	0	0	4.197059e+01
150.223785	1.293058	city	10	1	0.649168	0.649168	0	1	0	0	CorrectCommission	1.500039	0.875931	0	0	4.188235e+01
151.516708	1.292803	city	1	1	1.564516	1.564516	0	1	0	0	CorrectCommission	1.550929	0.849341	0	0	4.179412e+01
152.802887	1.279531	city	3	1	1.291269	1.291269	0	1	0	0	CorrectCommission	0.640163	0.821346	0	0	4.170588e+01
154.089096	1.292908	city	4	1	1.192440	1.192440	0	1	0	0	CorrectCommission	0.310754	0.792459	0	0	4.161765e+01
155.375427	1.279733	city	7	1	1.090527	1.090527	0	1	0	0	CorrectCommission	0.028935	0.763236	1	0	4.152941e+01
156.668411	1.306260	city	6	1	0.993696	0.993696	0	1	0	0	CorrectCommission	0.351685	0.734249	1	0	4.144118e+01
157.961334	1.279576	city	1	1	0.763125	0.763125	0	1	0	0	CorrectCommission	1.120205	0.706021	1	0	4.135294e+01
159.260818	1.319401	city	5	1	0.847047	0.847047	0	1	0	0	CorrectCommission	0.840481	0.679035	1	0	4.126471e+01
160.567062	1.293076	city	3	1	1.625523	1.625523	0	1	0	0	CorrectCommission	1.754274	0.653768	1	0	4.117647e+01
161.860001	1.292795	city	9	1	1.196126	1.196126	0	1	0	0	CorrectCommission	0.323039	0.630672	1	0	4.108824e+01
165.305511	5.598244	break	0	1	1.032549	1.032549	0	0	0	0	ThoughtProbe	0.222183	0.610172	1	41	41
168.744446	1.279606	mountain	2	0	0.000000	1.152349	1	0	0	0	CorrectOmission	0.177128	0.592592	1	0	4.104348e+01
170.044037	1.319594	city	7	1	1.213980	1.213980	0	1	0	0	CorrectCommission	0.382551	0.578116	1	0	4.108696e+01
171.363602	1.319517	city	8	1	0.875894	0.875894	0	1	0	0	CorrectCommission	0.744333	0.566723	1	0	4.113043e+01
172.676407	1.306093	city	2	1	1.005582	1.005582	0	1	0	0	CorrectCommission	0.312067	0.558158	1	0	4.117391e+01
173.982651	1.306400	city	10	1	0.837395	0.837395	0	1	0	0	CorrectCommission	0.872655	0.551991	1	0	4.121739e+01
175.282227	1.292748	city	5	1	1.089210	1.089210	0	1	0	0	CorrectCommission	0.033323	0.547697	1	0	4.126087e+01
176.581802	1.306401	city	6	1	1.131649	1.131649	0	1	0	0	CorrectCommission	0.108129	0.544813	1	0	4.130435e+01
177.881439	1.292884	city	3	1	0.779837	0.779837	0	1	0	0	CorrectCommission	1.064503	0.543063	1	0	4.134783e+01
179.174347	1.292927	city	4	1	0.715912	0.715912	0	1	0	0	CorrectCommission	1.277570	0.542423	1	0	4.139130e+01
180.460556	1.279495	city	6	1	0.768713	0.768713	0	1	0	0	CorrectCommission	1.101579	0.543270	1	0	4.143478e+01
181.740051	1.279484	city	3	1	1.090048	1.090048	0	1	0	0	CorrectCommission	0.030532	0.546319	1	0	4.147826e+01
183.019669	1.279763	mountain	6	0	0.000000	1.070936	1	0	0	0	CorrectOmission	0.094234	0.552523	1	0	4.152174e+01
184.319321	1.319551	mountain	4	1	1.050757	1.050757	0	0	1	0	CommissionError	0.161494	0.562877	1	0	4.156522e+01
185.618896	1.279592	city	8	1	1.368889	1.368889	0	1	0	0	CorrectCommission	0.898882	0.578249	1	0	4.160870e+01
186.911819	1.306239	city	6	1	1.138192	1.138192	0	1	0	0	CorrectCommission	0.129940	0.599126	1	0	4.165217e+01
188.217972	1.306065	city	7	1	0.997162	0.997162	0	1	0	0	CorrectCommission	0.340132	0.625557	1	0	4.169565e+01
189.550766	1.359539	city	4	1	0.993750	0.993750	0	1	0	0	CorrectCommission	0.351504	0.657008	1	0	4.173913e+01
190.877045	1.293002	city	1	1	0.727980	0.727980	0	1	0	0	CorrectCommission	1.237347	0.692414	1	0	4.178261e+01
192.183289	1.319502	city	4	1	1.144741	1.144741	0	1	0	0	CorrectCommission	0.151767	0.730292	1	0	4.182609e+01
193.496155	1.306215	city	6	1	1.480912	1.480912	0	1	0	0	CorrectCommission	1.272266	0.768948	1	0	4.186957e+01
194.795792	1.293061	city	4	1	1.384782	1.384782	0	1	0	0	CorrectCommission	0.951855	0.806595	0	0	4.191304e+01
196.115433	1.346242	city	7	1	0.849190	0.849190	0	1	0	0	CorrectCommission	0.833340	0.841595	0	0	4.195652e+01
197.428345	1.279581	city	1	1	0.714772	0.714772	0	1	0	0	CorrectCommission	1.281370	0.872588	0	0	42
198.707916	1.279549	city	4	1	0.974630	0.974630	0	1	0	0	CorrectCommission	0.415231	0.898599	0	0	4.204348e+01
199.987396	1.279424	city	7	1	0.828382	0.828382	0	1	0	0	CorrectCommission	0.902694	0.919129	0	0	4.208696e+01
201.273636	1.293050	city	9	1	0.761028	0.761028	0	1	0	0	CorrectCommission	1.127196	0.934097	0	0	4.213043e+01
202.573624	1.306928	city	2	1	1.740576	1.740576	0	1	0	0	CorrectCommission	2.137759	0.943838	0	0	4.217391e+01
203.866486	1.278796	city	8	1	1.416695	1.416695	0	1	0	0	CorrectCommission	1.058224	0.948976	0	0	4.221739e+01
205.159103	1.306425	city	6	1	1.261757	1.261757	0	1	0	0	CorrectCommission	0.541796	0.950358	0	0	4.226087e+01
206.478729	1.332823	city	2	1	1.020886	1.020886	0	1	0	0	CorrectCommission	0.261057	0.948871	0	0	4.230435e+01
207.791519	1.292761	city	6	1	0.994346	0.994346	0	1	0	0	CorrectCommission	0.349518	0.945338	0	0	4.234783e+01
209.091080	1.306380	city	8	1	0.754578	0.754578	0	1	0	0	CorrectCommission	1.148693	0.940455	0	0	4.239130e+01
210.397385	1.306230	mountain	10	1	0.533749	0.533749	0	0	1	0	CommissionError	1.884744	0.934754	0	0	4.243478e+01
211.690277	1.279550	city	9	1	0.874739	0.874739	0	1	0	0	CorrectCommission	0.748181	0.928607	0	0	4.247826e+01
212.969864	1.279615	city	1	1	1.504799	1.504799	0	1	0	0	CorrectCommission	1.351886	0.922273	0	0	4.252174e+01
214.249390	1.279442	city	4	1	1.364047	1.364047	0	1	0	0	CorrectCommission	0.882742	0.915839	0	0	4.256522e+01
215.535828	1.293436	city	5	1	0.994961	0.994961	0	1	0	0	CorrectCommission	0.347468	0.909296	0	0	4.260870e+01
216.842133	1.319163	city	2	1	0.980323	0.980323	0	1	0	0	CorrectCommission	0.396257	0.902471	0	0	4.265217e+01
218.154770	1.306110	city	1	1	1.541022	1.541022	0	1	0	0	CorrectCommission	1.472622	0.895048	0	0	4.269565e+01
219.447693	1.279732	city	5	1	1.353747	1.353747	0	1	0	0	CorrectCommission	0.848410	0.886567	0	0	4.273913e+01
220.753922	1.332736	city	4	1	1.254764	1.254764	0	1	0	0	CorrectCommission	0.518488	0.876582	0	0	4.278261e+01
222.080093	1.319612	city	7	1	0.853473	0.853473	0	1	0	0	CorrectCommission	0.819064	0.864704	0	0	4.282609e+01
223.399689	1.319561	city	9	1	0.653282	0.653282	0	1	0	0	CorrectCommission	1.486325	0.850739	0	0	4.286957e+01
224.725983	1.333029	city	1	1	1.550888	1.550888	0	1	0	0	CorrectCommission	1.505506	0.834851	0	0	4.291304e+01
226.052261	1.319533	city	8	1	1.179924	1.179924	0	1	0	0	CorrectCommission	0.269035	0.817691	0	0	4.295652e+01
228.751297	4.078547	break	0	1	0.821842	0.821842	0	0	0	0	ThoughtProbe	0.924494	0.800483	0	43	43
231.443680	1.306212	city	3	1	1.269589	1.269589	0	1	0	0	CorrectCommission	0.567900	0.784935	1	0	4.258824e+01
232.743286	1.293006	city	2	1	0.929060	0.929060	0	1	0	0	CorrectCommission	0.567122	0.773191	1	0	4.217647e+01
234.029617	1.279648	mountain	9	0	0.000000	0.780544	1	0	0	0	CorrectOmission	1.062146	0.767615	1	0	4.176471e+01
235.322556	1.306220	city	10	1	0.887582	0.887582	0	1	0	0	CorrectCommission	0.705376	0.770563	1	0	4.135294e+01
236.622025	1.292745	city	7	1	1.313718	1.313718	0	1	0	0	CorrectCommission	0.714989	0.784097	1	0	4.094118e+01
237.908279	1.279755	city	6	1	1.020468	1.020468	0	1	0	0	CorrectCommission	0.262449	0.809608	0	0	4.052941e+01
239.187958	1.279584	city	10	1	0.964996	0.964996	0	1	0	0	CorrectCommission	0.447343	0.847541	0	0	4.011765e+01
240.467529	1.279567	city	1	1	1.139873	1.139873	0	1	0	0	CorrectCommission	0.135542	0.897156	0	0	3.970588e+01
241.760437	1.306250	city	2	1	0.853260	0.853260	0	1	0	0	CorrectCommission	0.819773	0.956460	0	0	3.929412e+01
243.059998	1.292877	city	10	1	0.731662	0.731662	0	1	0	0	CorrectCommission	1.225073	1.022243	0	0	3.888235e+01
244.346146	1.279413	city	2	1	1.036143	1.036143	0	1	0	0	CorrectCommission	0.210201	1.090327	0	0	3.847059e+01
245.625671	1.279636	city	9	1	0.886836	0.886836	0	1	0	0	CorrectCommission	0.707860	1.156026	0	0	3.805882e+01
246.912003	1.293035	city	2	1	1.723807	1.723807	0	1	0	0	CorrectCommission	2.081865	1.214635	0	0	3.764706e+01
248.198303	1.279579	city	6	1	1.833508	1.833508	0	1	0	0	CorrectCommission	2.447514	1.261949	0	0	3.723529e+01
249.484558	1.292905	city	2	1	1.995534	1.995534	0	1	0	0	CorrectCommission	2.987565	1.294780	0	0	3.682353e+01
250.770782	1.279564	city	8	0	0.000000	1.467927	0	0	0	1	OmissionError	1.228985	1.311313	0	0	3.641176e+01
252.063614	1.306101	city	3	1	0.833490	0.833490	0	1	0	0	CorrectCommission	0.885668	1.311302	0	0	36
253.363190	1.293044	city	6	1	0.675030	0.675030	0	1	0	0	CorrectCommission	1.413836	1.295932	0	0	3.558824e+01
254.649551	1.279666	city	7	1	0.596212	0.596212	0	1	0	0	CorrectCommission	1.676546	1.267584	0	0	3.517647e+01
255.942444	1.306124	city	4	1	1.608714	1.608714	0	1	0	0	CorrectCommission	1.698248	1.229465	0	0	3.476471e+01
257.255310	1.319590	city	7	1	1.345833	1.345833	0	1	0	0	CorrectCommission	0.822032	1.185175	0	0	3.435294e+01
258.588196	1.346237	city	10	1	0.911899	0.911899	0	1	0	0	CorrectCommission	0.624322	1.138231	0	0	3.394118e+01
259.907776	1.292897	city	7	1	0.836284	0.836284	0	1	0	0	CorrectCommission	0.876356	1.091653	0	0	3.352941e+01
261.194031	1.279579	mountain	4	1	0.621492	0.621492	0	0	1	0	CommissionError	1.592284	1.047701	0	0	3.311765e+01
262.500214	1.332787	city	4	1	1.274621	1.274621	0	1	0	0	CorrectCommission	0.584673	1.007696	0	0	3.270588e+01
263.833099	1.333003	city	6	1	1.117418	1.117418	0	1	0	0	CorrectCommission	0.060698	0.972068	0	0	3.229412e+01
265.166046	1.332920	city	1	1	0.937374	0.937374	0	1	0	0	CorrectCommission	0.539411	0.940449	0	0	3.188235e+01
266.485596	1.306168	city	10	1	1.711990	1.711990	0	1	0	0	CorrectCommission	2.042477	0.911950	0	0	3.147059e+01
267.791779	1.306167	city	1	1	1.388683	1.388683	0	1	0	0	CorrectCommission	0.964857	0.885472	0	0	3.105882e+01
269.091370	1.293042	city	4	1	1.199495	1.199495	0	1	0	0	CorrectCommission	0.334269	0.860149	0	0	3.064706e+01
270.390930	1.306053	city	5	1	0.943776	0.943776	0	1	0	0	CorrectCommission	0.518074	0.835575	0	0	3.023529e+01
271.703735	1.319567	city	8	1	1.793553	1.793553	0	1	0	0	CorrectCommission	2.314337	0.812052	0	0	2.982353e+01
273.029999	1.332978	city	2	1	1.419732	1.419732	0	1	0	0	CorrectCommission	1.068346	0.790662	0	0	2.941176e+01
276.535522	5.678059	break	0	1	1.044356	1.044356	0	0	0	0	ThoughtProbe	0.182826	0.773248	1	29	29
280.027740	1.306404	city	6	1	1.181543	1.181543	0	1	0	0	CorrectCommission	0.274433	0.762104	1	0	2.967500e+01
281.333984	1.306072	mountain	8	0	0.000000	1.264131	1	0	0	0	CorrectOmission	0.549711	0.759621	1	0	3.035000e+01
282.626831	1.279583	city	3	1	1.300292	1.300292	0	1	0	0	CorrectCommission	0.670239	0.767870	1	0	3.102500e+01
283.913147	1.293072	city	1	1	1.298196	1.298196	0	1	0	0	CorrectCommission	0.663252	0.788214	0	0	3.170000e+01
285.212708	1.306069	city	7	1	1.202099	1.202099	0	1	0	0	CorrectCommission	0.342949	0.820933	0	0	3.237500e+01
286.525604	1.319710	city	6	1	1.176710	1.176710	0	1	0	0	CorrectCommission	0.258324	0.864995	0	0	3.305000e+01
287.838501	1.306079	city	4	1	0.984763	0.984763	0	1	0	0	CorrectCommission	0.381458	0.917978	0	0	3.372500e+01
289.151337	1.319599	city	1	1	1.065357	1.065357	0	1	0	0	CorrectCommission	0.112829	0.976230	0	0	3.440000e+01
290.450989	1.279714	city	5	1	0.650197	0.650197	0	1	0	0	CorrectCommission	1.496607	1.035231	0	0	3.507500e+01
291.750641	1.319594	city	3	1	0.505622	0.505622	0	1	0	0	CorrectCommission	1.978492	1.090004	0	0	3.575000e+01
293.070221	1.319562	city	2	1	0.616636	0.616636	0	1	0	0	CorrectCommission	1.608470	1.135707	0	0	3.642500e+01
294.389771	1.319537	city	10	1	0.670575	0.670575	0	1	0	0	CorrectCommission	1.428687	1.168160	0	0	3.710000e+01
295.695984	1.292880	city	8	1	0.485031	0.485031	0	1	0	0	CorrectCommission	2.047125	1.184293	0	0	3.777500e+01
296.982178	1.279481	city	7	1	0.503326	0.503326	0	1	0	0	CorrectCommission	1.986146	1.182417	0	0	3.845000e+01
298.268433	1.293072	mountain	2	1	0.566526	0.566526	0	0	1	0	CommissionError	1.775492	1.162360	0	0	3.912500e+01
299.561401	1.292872	city	6	1	1.084054	1.084054	0	1	0	0	CorrectCommission	0.050509	1.125353	0	0	3.980000e+01
300.854309	1.292908	city	8	1	0.805067	0.805067	0	1	0	0	CorrectCommission	0.980408	1.073905	0	0	4.047500e+01
302.147247	1.292952	city	1	1	0.610376	0.610376	0	1	0	0	CorrectCommission	1.629335	1.011377	0	0	4.115000e+01
303.433502	1.279560	city	10	1	1.528846	1.528846	0	1	0	0	CorrectCommission	1.432037	0.941678	0	0	4.182500e+01
304.719727	1.292901	city	2	1	1.475454	1.475454	0	1	0	0	CorrectCommission	1.254073	0.868856	0	0	4.250000e+01
306.032471	1.332609	city	4	1	1.231538	1.231538	0	1	0	0	CorrectCommission	0.441074	0.796780	0	0	4.317500e+01
307.338623	1.279713	mountain	6	0	0.000000	1.100169	1	0	0	0	CorrectOmission	0.003205	0.728833	1	0	4.385000e+01
308.625000	1.293039	city	3	1	1.089112	1.089112	0	1	0	0	CorrectCommission	0.033651	0.667665	1	0	4.452500e+01
309.931244	1.319405	city	10	1	1.206132	1.206132	0	1	0	0	CorrectCommission	0.356391	0.615053	1	0	4.520000e+01
311.270721	1.359546	city	6	1	1.325118	1.325118	0	1	0	0	CorrectCommission	0.752985	0.571876	1	0	4.587500e+01
312.623627	1.346311	city	8	1	1.076111	1.076111	0	1	0	0	CorrectCommission	0.076985	0.538194	1	0	4.655000e+01
313.943298	1.293014	city	2	1	1.047837	1.047837	0	1	0	0	CorrectCommission	0.171224	0.513433	1	0	4.722500e+01
315.242950	1.306288	city	7	1	0.859273	0.859273	0	1	0	0	CorrectCommission	0.799732	0.496545	1	0	4.790000e+01
316.549194	1.306172	city	4	1	0.773892	0.773892	0	1	0	0	CorrectCommission	1.084317	0.486204	1	0	4.857500e+01
317.848724	1.292898	city	2	1	0.930656	0.930656	0	1	0	0	CorrectCommission	0.561802	0.480995	1	0	4.925000e+01
319.154938	1.319560	city	8	1	1.002882	1.002882	0	1	0	0	CorrectCommission	0.321067	0.479534	1	0	4.992500e+01
320.481079	1.332703	city	7	1	1.060249	1.060249	0	1	0	0	CorrectCommission	0.129856	0.480506	1	0	5.060000e+01
321.793915	1.292985	city	10	1	1.086775	1.086775	0	1	0	0	CorrectCommission	0.041441	0.482745	1	0	5.127500e+01
323.100189	1.319522	city	9	1	1.205091	1.205091	0	1	0	0	CorrectCommission	0.352923	0.485261	1	0	5.195000e+01
324.406494	1.293097	city	1	1	1.133939	1.133939	0	1	0	0	CorrectCommission	0.115764	0.487275	1	0	5.262500e+01
325.692780	1.279481	city	4	1	1.508642	1.508642	0	1	0	0	CorrectCommission	1.364695	0.488297	1	0	5.330000e+01
326.978943	1.292852	city	7	1	1.426628	1.426628	0	1	0	0	CorrectCommission	1.091331	0.488144	1	0	5.397500e+01
328.271820	1.292896	city	3	1	1.326896	1.326896	0	1	0	0	CorrectCommission	0.758913	0.487035	1	0	5.465000e+01
329.571411	1.306307	city	6	1	1.031556	1.031556	0	1	0	0	CorrectCommission	0.225490	0.485476	1	0	5.532500e+01
333.190247	5.931378	break	0	0	0.000000	1.019441	0	0	0	0	ThoughtProbe	0.265872	0.484168	1	56	56
336.802429	1.292981	city	1	1	1.143990	1.143990	0	1	0	0	CorrectCommission	0.149266	0.483860	1	0	56
338.102051	1.306252	city	8	1	1.258645	1.258645	0	1	0	0	CorrectCommission	0.531422	0.485164	1	0	56
339.408295	1.306222	city	3	1	0.955998	0.955998	0	1	0	0	CorrectCommission	0.477336	0.488383	1	0	56
340.701141	1.279474	city	8	1	1.068631	1.068631	0	1	0	0	CorrectCommission	0.101916	0.493436	1	0	56
342.000702	1.319671	city	2	1	1.088937	1.088937	0	1	0	0	CorrectCommission	0.034232	0.499842	1	0	56
343.320312	1.319537	city	10	1	0.929282	0.929282	0	1	0	0	CorrectCommission	0.566384	0.506778	1	0	56
344.626556	1.292944	mountain	4	1	0.817564	0.817564	0	0	1	0	CommissionError	0.938753	0.513227	1	0	56
345.919464	1.292903	city	9	1	1.432981	1.432981	0	1	0	0	CorrectCommission	1.112506	0.518195	1	0	56
347.232300	1.332732	city	5	1	0.965627	0.965627	0	1	0	0	CorrectCommission	0.445240	0.520873	1	0	56
348.558533	1.319722	city	1	1	0.832782	0.832782	0	1	0	0	CorrectCommission	0.888030	0.520789	1	0	56
349.871460	1.306127	city	7	1	1.048524	1.048524	0	1	0	0	CorrectCommission	0.168936	0.517839	1	0	56
351.170959	1.292891	city	9	1	0.920732	0.920732	0	1	0	0	CorrectCommission	0.594880	0.512321	1	0	56
352.477264	1.319725	city	10	1	0.929204	0.929204	0	1	0	0	CorrectCommission	0.566644	0.504809	1	0	56
353.790253	1.306226	city	5	1	0.930630	0.930630	0	1	0	0	CorrectCommission	0.561890	0.496052	1	0	56
355.083069	1.279401	mountain	10	1	1.071281	1.071281	0	0	1	0	CommissionError	0.093084	0.486813	1	0	56
356.382599	1.319716	city	8	1	1.259698	1.259698	0	1	0	0	CorrectCommission	0.534934	0.477748	1	0	56
357.695557	1.306159	city	6	1	0.914120	0.914120	0	1	0	0	CorrectCommission	0.616919	0.469314	1	0	56
359.001801	1.306358	city	8	1	1.015009	1.015009	0	1	0	0	CorrectCommission	0.280645	0.461713	1	0	56
360.321442	1.332886	city	10	1	1.111533	1.111533	0	1	0	0	CorrectCommission	0.041082	0.454943	1	0	56
361.647644	1.319541	mountain	9	1	0.843752	0.843752	0	0	1	0	CommissionError	0.851466	0.448855	1	0	56
362.953857	1.292912	city	7	1	1.312279	1.312279	0	1	0	0	CorrectCommission	0.710193	0.443224	1	0	56
364.246796	1.292907	city	3	1	1.190990	1.190990	0	1	0	0	CorrectCommission	0.305921	0.437896	1	0	56
365.559692	1.332896	city	8	1	1.171448	1.171448	0	1	0	0	CorrectCommission	0.240786	0.432854	1	0	56
366.885834	1.319400	city	4	1	1.286379	1.286379	0	1	0	0	CorrectCommission	0.623864	0.428253	1	0	56
368.198669	1.306257	city	3	1	0.987870	0.987870	0	1	0	0	CorrectCommission	0.371102	0.424449	1	0	56
369.511597	1.319642	city	1	1	0.942782	0.942782	0	1	0	0	CorrectCommission	0.521386	0.421992	1	0	56
370.831238	1.319634	city	9	1	1.287146	1.287146	0	1	0	0	CorrectCommission	0.626421	0.421521	1	0	56
372.157440	1.332738	city	10	1	1.043699	1.043699	0	1	0	0	CorrectCommission	0.185018	0.423689	1	0	56
373.496979	1.346378	city	5	1	1.024218	1.024218	0	1	0	0	CorrectCommission	0.249950	0.429100	1	0	56
374.843292	1.346250	city	2	1	1.011396	1.011396	0	1	0	0	CorrectCommission	0.292689	0.438174	1	0	56
376.156250	1.279613	city	7	1	1.045221	1.045221	0	1	0	0	CorrectCommission	0.179943	0.451144	1	0	56
377.442505	1.292905	city	6	1	1.052285	1.052285	0	1	0	0	CorrectCommission	0.156399	0.468019	1	0	56
378.788696	1.399501	city	1	1	0.928194	0.928194	0	1	0	0	CorrectCommission	0.570009	0.488626	1	0	56
380.141479	1.306060	city	8	1	1.259581	1.259581	0	1	0	0	CorrectCommission	0.534545	0.512610	1	0	56
381.441040	1.293064	city	2	1	1.298377	1.298377	0	1	0	0	CorrectCommission	0.663855	0.539495	1	0	56
382.727356	1.279586	city	8	1	1.498246	1.498246	0	1	0	0	CorrectCommission	1.330044	0.568677	1	0	56
384.026886	1.319430	mountain	5	0	0.000000	1.314051	1	0	0	0	CorrectOmission	0.716099	0.599408	1	0	56
385.353027	1.332864	city	8	1	1.061336	1.061336	0	1	0	0	CorrectCommission	0.126232	0.630739	1	0	56
386.679230	1.319575	city	5	1	1.055645	1.055645	0	1	0	0	CorrectCommission	0.145201	0.661470	1	0	56
387.992218	1.306394	city	8	1	1.108512	1.108512	0	1	0	0	CorrectCommission	0.031011	0.690114	1	0	56
389.298492	1.306135	city	7	1	0.837258	0.837258	0	1	0	0	CorrectCommission	0.873111	0.714978	1	0	56
390.604645	1.306186	city	2	1	0.776172	0.776172	0	1	0	0	CorrectCommission	1.076716	0.734276	1	0	56
391.910919	1.306374	city	4	1	0.825988	0.825988	0	1	0	0	CorrectCommission	0.910676	0.746371	1	0	56
393.237152	1.346080	city	9	1	0.663946	0.663946	0	1	0	0	CorrectCommission	1.450780	0.750041	1	0	56
394.563354	1.306327	city	1	1	0.573512	0.573512	0	1	0	0	CorrectCommission	1.752209	0.744650	1	0	56
397.955597	5.478118	break	0	0	0.000000	0.877919	0	0	0	0	ThoughtProbe	0.737582	0.730290	1	56	56
401.361084	1.332915	mountain	9	0	0.000000	1.272245	1	0	0	0	CorrectOmission	0.576754	0.707868	1	0	5.529412e+01
402.680756	1.306388	city	4	1	1.451565	1.451565	0	1	0	0	CorrectCommission	1.174449	0.678900	1	0	5.458824e+01
404.000397	1.332884	city	5	1	1.110955	1.110955	0	1	0	0	CorrectCommission	0.039155	0.645332	1	0	5.388235e+01
405.333282	1.332911	city	2	1	1.079409	1.079409	0	1	0	0	CorrectCommission	0.065993	0.609358	1	0	5.317647e+01
406.659454	1.319405	city	5	1	0.999011	0.999011	0	1	0	0	CorrectCommission	0.333968	0.573116	1	0	5.247059e+01
407.965668	1.293039	city	2	1	0.813990	0.813990	0	1	0	0	CorrectCommission	0.950667	0.538509	1	0	5.176471e+01
409.271973	1.319576	city	10	1	0.914031	0.914031	0	1	0	0	CorrectCommission	0.617216	0.507102	1	0	5.105882e+01
410.584808	1.306106	city	2	1	1.154528	1.154528	0	1	0	0	CorrectCommission	0.184389	0.480075	1	0	5.035294e+01
411.891052	1.306356	city	10	1	1.003867	1.003867	0	1	0	0	CorrectCommission	0.317784	0.458203	1	0	4.964706e+01
413.197266	1.306085	city	6	1	1.310616	1.310616	0	1	0	0	CorrectCommission	0.704649	0.441882	1	0	4.894118e+01
414.516754	1.332908	city	10	1	1.061926	1.061926	0	1	0	0	CorrectCommission	0.124266	0.431180	1	0	4.823529e+01
415.829742	1.293072	city	4	1	0.931770	0.931770	0	1	0	0	CorrectCommission	0.558092	0.425876	1	0	4.752941e+01
417.122681	1.292797	mountain	5	0	0.000000	1.033519	1	0	0	0	CorrectOmission	0.218948	0.425461	1	0	4.682353e+01
418.422180	1.306177	city	8	1	1.129643	1.129643	0	1	0	0	CorrectCommission	0.101445	0.429223	1	0	4.611765e+01
419.741730	1.332956	city	6	1	0.982609	0.982609	0	1	0	0	CorrectCommission	0.388636	0.436261	1	0	4.541176e+01
421.054688	1.292927	city	9	1	1.052112	1.052112	0	1	0	0	CorrectCommission	0.156976	0.445561	1	0	4.470588e+01
422.360870	1.319482	city	6	1	0.887657	0.887657	0	1	0	0	CorrectCommission	0.705125	0.456093	1	0	44
423.673828	1.306405	city	5	1	0.945203	0.945203	0	1	0	0	CorrectCommission	0.513316	0.466944	1	0	4.329412e+01
424.973480	1.292910	city	1	1	1.077408	1.077408	0	1	0	0	CorrectCommission	0.072660	0.477450	1	0	4.258824e+01
426.259644	1.279422	city	9	1	1.682355	1.682355	0	1	0	0	CorrectCommission	1.943700	0.487259	1	0	4.188235e+01
427.559235	1.319731	city	1	1	0.931585	0.931585	0	1	0	0	CorrectCommission	0.558707	0.496301	1	0	4.117647e+01
428.885498	1.332798	city	3	1	1.132398	1.132398	0	1	0	0	CorrectCommission	0.110627	0.504873	1	0	4.047059e+01
430.218292	1.332804	city	2	1	1.058508	1.058508	0	1	0	0	CorrectCommission	0.135656	0.513447	1	0	3.976471e+01
431.557831	1.346296	city	5	1	1.190609	1.190609	0	1	0	0	CorrectCommission	0.304651	0.522517	1	0	3.905882e+01
432.884186	1.306361	city	8	1	1.093261	1.093261	0	1	0	0	CorrectCommission	0.019820	0.532469	1	0	3.835294e+01
434.183807	1.292904	city	9	1	1.393823	1.393823	0	1	0	0	CorrectCommission	0.981988	0.543481	1	0	3.764706e+01
435.529968	1.399414	city	10	1	1.313752	1.313752	0	1	0	0	CorrectCommission	0.715101	0.555415	1	0	3.694118e+01
436.902832	1.346350	city	4	1	1.265541	1.265541	0	1	0	0	CorrectCommission	0.554410	0.567868	1	0	3.623529e+01
438.242462	1.332886	city	3	1	1.205204	1.205204	0	1	0	0	CorrectCommission	0.353297	0.580219	1	0	3.552941e+01
439.561920	1.306049	city	9	1	1.365441	1.365441	0	1	0	0	CorrectCommission	0.887389	0.591725	1	0	3.482353e+01
440.888153	1.346401	city	4	1	1.284973	1.284973	0	1	0	0	CorrectCommission	0.619178	0.601642	1	0	3.411765e+01
442.227722	1.332718	city	2	1	1.195708	1.195708	0	1	0	0	CorrectCommission	0.321647	0.609391	1	0	3.341176e+01
443.553894	1.319629	city	10	1	1.327642	1.327642	0	1	0	0	CorrectCommission	0.761399	0.614639	1	0	3.270588e+01
447.479279	6.531149	break	0	0	0.000000	1.414152	0	0	0	0	ThoughtProbe	1.049746	0.617373	1	32	32
451.391296	1.292910	city	9	1	1.374186	1.374186	0	1	0	0	CorrectCommission	0.916537	0.617966	1	0	3.257500e+01
452.717560	1.359573	city	5	1	1.126695	1.126695	0	1	0	0	CorrectCommission	0.091620	0.617154	1	0	3.315000e+01
454.103760	1.412838	city	6	1	1.362668	1.362668	0	1	0	0	CorrectCommission	0.878146	0.615971	1	0	3.372500e+01
455.456696	1.293073	city	4	1	1.382379	1.382379	0	1	0	0	CorrectCommission	0.943845	0.615579	1	0	3.430000e+01
456.756378	1.306243	city	5	1	1.245346	1.245346	0	1	0	0	CorrectCommission	0.487096	0.617129	1	0	3.487500e+01
458.049286	1.279568	city	6	1	1.096493	1.096493	0	1	0	0	CorrectCommission	0.009049	0.621569	1	0	3.545000e+01
459.335510	1.292922	city	3	1	1.133308	1.133308	0	1	0	0	CorrectCommission	0.113661	0.629484	1	0	3.602500e+01
460.641754	1.319538	mountain	3	0	0.000000	1.332071	1	0	0	0	CorrectOmission	0.776162	0.640900	1	0	3.660000e+01
461.941315	1.279574	city	6	1	1.439994	1.439994	0	1	0	0	CorrectCommission	1.135882	0.655262	1	0	3.717500e+01
463.280792	1.399424	city	8	1	1.204289	1.204289	0	1	0	0	CorrectCommission	0.350247	0.671452	1	0	3.775000e+01
464.640289	1.319522	city	6	1	1.280708	1.280708	0	1	0	0	CorrectCommission	0.604961	0.687867	1	0	3.832500e+01
465.959808	1.319541	mountain	2	0	0.000000	1.292536	1	0	0	0	CorrectOmission	0.644387	0.702562	1	0	3.890000e+01
467.272736	1.306310	city	1	1	1.317366	1.317366	0	1	0	0	CorrectCommission	0.727147	0.713500	1	0	3.947500e+01
468.572327	1.292883	city	5	1	1.432787	1.432787	0	1	0	0	CorrectCommission	1.111862	0.718807	1	0	4.005000e+01
469.891968	1.346363	city	10	1	1.179467	1.179467	0	1	0	0	CorrectCommission	0.267514	0.717058	1	0	4.062500e+01
471.211609	1.292920	city	6	1	1.382076	1.382076	0	1	0	0	CorrectCommission	0.942833	0.707558	1	0	4.120000e+01
472.531097	1.346059	city	7	1	1.753177	1.753177	0	1	0	0	CorrectCommission	2.179757	0.690479	1	0	4.177500e+01
473.865143	1.322081	city	10	0	0.000000	1.370463	0	0	0	1	OmissionError	0.904127	0.666906	1	0	4.235000e+01
475.164795	1.277220	city	6	1	0.885544	0.885544	0	1	0	0	CorrectCommission	0.712167	0.638850	1	0	4.292500e+01
476.463135	1.319427	city	1	1	0.950029	0.950029	0	1	0	0	CorrectCommission	0.497230	0.608914	1	0	4.350000e+01
477.829346	1.413031	city	4	1	1.087221	1.087221	0	1	0	0	CorrectCommission	0.039954	0.579970	1	0	4.407500e+01
479.202301	1.332884	city	9	1	1.111666	1.111666	0	1	0	0	CorrectCommission	0.041523	0.554759	1	0	4.465000e+01
480.528381	1.319240	city	4	1	1.045730	1.045730	0	1	0	0	CorrectCommission	0.178249	0.535469	1	0	4.522500e+01
481.861298	1.346580	city	5	1	0.953989	0.953989	0	1	0	0	CorrectCommission	0.484030	0.523466	1	0	4.580000e+01
483.220917	1.372676	city	8	1	1.055458	1.055458	0	1	0	0	CorrectCommission	0.145823	0.519041	1	0	4.637500e+01
484.567047	1.319588	city	5	1	0.957455	0.957455	0	1	0	0	CorrectCommission	0.472481	0.521414	1	0	4.695000e+01
485.886658	1.319637	city	4	1	0.968607	0.968607	0	1	0	0	CorrectCommission	0.435309	0.528798	1	0	4.752500e+01
487.199554	1.306167	city	10	1	1.000580	1.000580	0	1	0	0	CorrectCommission	0.328737	0.538653	1	0	4.810000e+01
488.512482	1.319700	mountain	10	1	0.874452	0.874452	0	0	1	0	CommissionError	0.749137	0.547999	1	0	4.867500e+01
489.825470	1.306243	city	1	1	0.938805	0.938805	0	1	0	0	CorrectCommission	0.534643	0.553740	1	0	4.925000e+01
491.131714	1.306252	city	7	1	1.460924	1.460924	0	1	0	0	CorrectCommission	1.205646	0.553039	1	0	4.982500e+01
492.437958	1.306222	city	5	1	1.392646	1.392646	0	1	0	0	CorrectCommission	0.978065	0.543571	1	0	5.040000e+01
493.757507	1.332893	city	2	1	1.425686	1.425686	0	1	0	0	CorrectCommission	1.088193	0.523745	1	0	5.097500e+01
495.090332	1.332750	city	8	1	1.293080	1.293080	0	1	0	0	CorrectCommission	0.646200	0.492761	1	0	5.155000e+01
496.469818	1.426209	city	4	1	1.115790	1.115790	0	1	0	0	CorrectCommission	0.055271	0.450635	1	0	5.212500e+01
497.842682	1.319552	city	8	1	1.215210	1.215210	0	1	0	0	CorrectCommission	0.386649	0.398112	1	0	5.270000e+01
499.162323	1.319735	city	10	1	1.112919	1.112919	0	1	0	0	CorrectCommission	0.045702	0.336549	1	0	5.327500e+01
500.475220	1.306053	city	8	1	1.473554	1.473554	0	1	0	0	CorrectCommission	1.247740	0.267807	1	0	5.385000e+01
501.808105	1.359725	city	6	1	1.268718	1.268718	0	1	0	0	CorrectCommission	0.564999	0.194053	1	0	5.442500e+01
505.786865	6.597792	break	0	0	0.000000	1.063883	0	0	0	0	ThoughtProbe	0.117743	0.117743	1	55	55
