onset	duration	trial_type	image_type	Press	ReactionTime	ReactionTime_Interpolated	CorrectOmission	CorrectCommission	CommissionError	OmissionError	response_type	nonsmoothVarianceTimeCourse	VarianceTimeCourse	In_the_Zone	ThoughtProbe	ThoughtProbe_Interpolated
0.652930	1.279551	city	2	1	1.607310	1.607310	0	1	0	0	CorrectCommission	2.161974	2.161974	0	0	99
1.939170	1.292927	city	5	1	1.088294	1.088294	0	1	0	0	CorrectCommission	0.032933	1.893677	0	0	99
3.238833	1.306399	city	3	1	1.071446	1.071446	0	1	0	0	CorrectCommission	0.104184	1.634216	0	0	99
4.531732	1.279398	mountain	7	1	1.018682	1.018682	0	0	1	0	CommissionError	0.327321	1.391566	0	0	99
5.824501	1.306141	city	4	1	1.273670	1.273670	0	1	0	0	CorrectCommission	0.751019	1.172133	0	0	99
7.117490	1.279837	city	5	1	0.965373	0.965373	0	1	0	0	CorrectCommission	0.552763	0.980314	0	0	99
8.397219	1.279621	city	6	1	0.981078	0.981078	0	1	0	0	CorrectCommission	0.486345	0.818329	0	0	99
9.683471	1.292883	city	2	1	0.967911	0.967911	0	1	0	0	CorrectCommission	0.542029	0.686326	1	0	99
10.969702	1.279578	city	3	1	1.103628	1.103628	0	1	0	0	CorrectCommission	0.031916	0.582673	1	0	99
12.249284	1.279585	city	10	1	1.070908	1.070908	0	1	0	0	CorrectCommission	0.106457	0.504459	1	0	99
13.528791	1.279430	mountain	9	0	0.000000	1.074192	1	0	0	0	CorrectOmission	0.092569	0.447963	1	0	99
14.808362	1.279711	city	3	1	1.141956	1.141956	0	1	0	0	CorrectCommission	0.194003	0.409143	1	0	99
16.088003	1.279573	city	8	1	1.302676	1.302676	0	1	0	0	CorrectCommission	0.873686	0.384049	1	0	99
17.374250	1.292922	city	9	1	1.244186	1.244186	0	1	0	0	CorrectCommission	0.626332	0.369104	1	0	99
18.660416	1.279407	city	4	1	1.121771	1.121771	0	1	0	0	CorrectCommission	0.108640	0.361334	1	0	99
19.939907	1.279575	city	5	1	1.021346	1.021346	0	1	0	0	CorrectCommission	0.316053	0.358424	1	0	99
21.219501	1.279617	city	7	1	1.124936	1.124936	0	1	0	0	CorrectCommission	0.122027	0.358680	1	0	99
22.499117	1.279613	mountain	3	0	0.000000	1.124475	1	0	0	0	CorrectOmission	0.120077	0.360975	1	0	99
23.778767	1.279685	city	7	1	1.017622	1.017622	0	1	0	0	CorrectCommission	0.331803	0.364630	1	0	99
25.058390	1.279563	city	8	1	0.802035	0.802035	0	1	0	0	CorrectCommission	1.243514	0.369261	1	0	99
26.337925	1.279507	city	5	1	1.022341	1.022341	0	1	0	0	CorrectCommission	0.311846	0.374665	1	0	99
27.617430	1.279504	city	8	1	1.075269	1.075269	0	1	0	0	CorrectCommission	0.088016	0.380750	1	0	99
28.896967	1.279570	city	9	1	1.156874	1.156874	0	1	0	0	CorrectCommission	0.257089	0.387406	1	0	99
30.176538	1.279572	city	7	1	1.074666	1.074666	0	1	0	0	CorrectCommission	0.090565	0.394463	1	0	99
31.456221	1.279793	city	3	1	1.026197	1.026197	0	1	0	0	CorrectCommission	0.295541	0.401651	1	0	99
32.749214	1.306192	mountain	6	0	0.000000	1.200884	1	0	0	0	CorrectOmission	0.443207	0.408592	1	0	99
34.042099	1.279576	city	4	1	1.299341	1.299341	0	1	0	0	CorrectCommission	0.859581	0.414860	1	0	99
35.321678	1.279583	city	8	1	1.022183	1.022183	0	1	0	0	CorrectCommission	0.312514	0.420107	1	0	99
36.601257	1.279574	city	10	1	0.969250	0.969250	0	1	0	0	CorrectCommission	0.536369	0.424138	1	0	99
37.894176	1.306264	city	2	1	0.986752	0.986752	0	1	0	0	CorrectCommission	0.462351	0.426961	1	0	99
39.187092	1.279571	city	3	1	0.927544	0.927544	0	1	0	0	CorrectCommission	0.712743	0.428907	1	0	99
40.473331	1.292906	city	9	1	0.990171	0.990171	0	1	0	0	CorrectCommission	0.447894	0.430628	1	0	99
41.759575	1.279584	city	6	1	1.092155	1.092155	0	1	0	0	CorrectCommission	0.016603	0.433084	1	0	99
43.039158	1.279581	city	2	1	0.980095	0.980095	0	1	0	0	CorrectCommission	0.490505	0.437490	1	0	99
44.318645	1.279395	city	5	1	1.177467	1.177467	0	1	0	0	CorrectCommission	0.344176	0.445177	1	0	99
45.598141	1.279592	city	2	1	1.196510	1.196510	0	1	0	0	CorrectCommission	0.424709	0.457471	1	0	99
46.884407	1.292945	city	3	1	1.212009	1.212009	0	1	0	0	CorrectCommission	0.490256	0.475519	1	0	99
48.170643	1.279525	city	10	1	0.918413	0.918413	0	1	0	0	CorrectCommission	0.751356	0.500084	1	0	99
49.450287	1.279761	city	4	1	1.085612	1.085612	0	1	0	0	CorrectCommission	0.044275	0.531355	1	0	99
50.729950	1.279564	city	8	1	1.121476	1.121476	0	1	0	0	CorrectCommission	0.107394	0.568809	1	0	99
52.009514	1.279568	city	1	1	0.962836	0.962836	0	1	0	0	CorrectCommission	0.563493	0.611081	1	0	99
53.289104	1.279613	city	8	1	1.018431	1.018431	0	1	0	0	CorrectCommission	0.328380	0.655976	1	0	99
54.568699	1.279575	city	3	1	1.230078	1.230078	0	1	0	0	CorrectCommission	0.566670	0.700629	1	0	99
55.848228	1.279479	city	2	1	0.873101	0.873101	0	1	0	0	CorrectCommission	0.942980	0.741731	0	0	99
57.127811	1.279689	city	6	1	1.231179	1.231179	0	1	0	0	CorrectCommission	0.571325	0.775948	0	0	99
57.767654	9.143536	break	0	1	1.193251	1.193251	0	0	0	0	ThoughtProbe	0.410927	0.800326	0	99	99
67.550987	1.279596	city	2	1	1.772686	1.772686	0	1	0	0	CorrectCommission	2.861349	0.812703	0	0	9.887500e+01
68.830612	1.279647	mountain	9	0	0.000000	1.594874	1	0	0	0	CorrectOmission	2.109383	0.812041	0	0	9.875000e+01
70.116837	1.292798	city	7	1	1.230337	1.230337	0	1	0	0	CorrectCommission	0.567764	0.798724	0	0	9.862500e+01
71.403091	1.279715	mountain	3	0	0.000000	1.249600	1	0	0	0	CorrectOmission	0.649225	0.774539	0	0	9.850000e+01
72.682739	1.279575	city	3	1	1.304509	1.304509	0	1	0	0	CorrectCommission	0.881435	0.742448	0	0	9.837500e+01
73.975548	1.306054	city	8	1	1.046912	1.046912	0	1	0	0	CorrectCommission	0.207937	0.706256	1	0	9.825000e+01
75.268440	1.279732	city	7	1	0.988226	0.988226	0	1	0	0	CorrectCommission	0.456118	0.670211	1	0	9.812500e+01
76.548035	1.279446	city	10	1	0.919541	0.919541	0	1	0	0	CorrectCommission	0.746585	0.638458	1	0	98
77.827568	1.279624	city	2	1	1.081935	1.081935	0	1	0	0	CorrectCommission	0.059827	0.614620	1	0	9.787500e+01
79.107231	1.279700	city	5	1	1.027462	1.027462	0	1	0	0	CorrectCommission	0.290189	0.601411	1	0	9.775000e+01
80.386864	1.279570	city	2	1	1.230281	1.230281	0	1	0	0	CorrectCommission	0.567527	0.600323	1	0	9.762500e+01
81.673149	1.292995	city	10	1	1.194027	1.194027	0	1	0	0	CorrectCommission	0.414210	0.611490	1	0	9.750000e+01
82.972633	1.305976	city	3	1	1.177939	1.177939	0	1	0	0	CorrectCommission	0.346175	0.633695	1	0	9.737500e+01
84.265488	1.279735	city	9	1	1.083352	1.083352	0	1	0	0	CorrectCommission	0.053834	0.664470	1	0	9.725000e+01
85.551735	1.292753	city	8	1	0.991897	0.991897	0	1	0	0	CorrectCommission	0.440594	0.700378	1	0	9.712500e+01
86.837914	1.279603	city	6	1	1.183253	1.183253	0	1	0	0	CorrectCommission	0.368649	0.737377	0	0	97
88.117508	1.279591	city	1	1	1.023161	1.023161	0	1	0	0	CorrectCommission	0.308380	0.771304	0	0	9.687500e+01
89.397079	1.279558	city	9	1	1.826910	1.826910	0	1	0	0	CorrectCommission	3.090660	0.798357	0	0	9.675000e+01
90.676689	1.279653	city	10	0	0.000000	1.564708	0	0	0	1	OmissionError	1.981811	0.815466	0	0	9.662500e+01
91.956276	1.279521	city	2	1	1.025369	1.025369	0	1	0	0	CorrectCommission	0.299041	0.820772	0	0	9.650000e+01
93.242554	1.293038	city	5	1	0.997710	0.997710	0	1	0	0	CorrectCommission	0.416012	0.813771	0	0	9.637500e+01
94.528862	1.279573	city	2	1	0.819070	0.819070	0	1	0	0	CorrectCommission	1.171475	0.795307	0	0	9.625000e+01
95.808449	1.279600	city	7	1	0.804623	0.804623	0	1	0	0	CorrectCommission	1.232569	0.767430	0	0	9.612500e+01
97.107941	1.319385	city	1	1	0.781750	0.781750	0	1	0	0	CorrectCommission	1.329300	0.733260	0	0	96
98.407433	1.279609	city	9	1	1.091609	1.091609	0	1	0	0	CorrectCommission	0.018912	0.696667	1	0	9.587500e+01
99.687111	1.279737	city	4	1	1.203173	1.203173	0	1	0	0	CorrectCommission	0.452887	0.661901	1	0	9.575000e+01
100.966759	1.279562	city	5	1	1.081839	1.081839	0	1	0	0	CorrectCommission	0.060230	0.633190	1	0	9.562500e+01
102.259659	1.306243	city	1	1	0.972379	0.972379	0	1	0	0	CorrectCommission	0.523137	0.614440	1	0	9.550000e+01
103.552582	1.279606	city	5	1	0.915255	0.915255	0	1	0	0	CorrectCommission	0.764712	0.608851	1	0	9.537500e+01
104.832077	1.279383	city	4	1	1.025230	1.025230	0	1	0	0	CorrectCommission	0.299630	0.618667	1	0	9.525000e+01
106.111595	1.279644	mountain	3	0	0.000000	1.128879	1	0	0	0	CorrectOmission	0.138701	0.644939	1	0	9.512500e+01
107.404510	1.306186	city	5	1	1.204449	1.204449	0	1	0	0	CorrectCommission	0.458286	0.687304	1	0	95
108.697380	1.279559	city	3	1	1.230186	1.230186	0	1	0	0	CorrectCommission	0.567127	0.743929	0	0	9.487500e+01
109.990364	1.306405	city	10	1	1.098114	1.098114	0	1	0	0	CorrectCommission	0.008596	0.811571	0	0	9.475000e+01
111.289932	1.292744	city	7	1	1.139217	1.139217	0	1	0	0	CorrectCommission	0.182419	0.885811	0	0	9.462500e+01
112.589508	1.306407	city	1	1	0.897460	0.897460	0	1	0	0	CorrectCommission	0.839965	0.961409	0	0	9.450000e+01
113.882431	1.279437	city	2	1	0.804382	0.804382	0	1	0	0	CorrectCommission	1.233592	1.032850	0	0	9.437500e+01
115.168610	1.292912	city	5	1	0.759411	0.759411	0	1	0	0	CorrectCommission	1.423774	1.094939	0	0	9.425000e+01
116.468246	1.306364	city	4	1	1.634055	1.634055	0	1	0	0	CorrectCommission	2.275079	1.143438	0	0	9.412500e+01
120.966812	7.690775	break	0	0	0.000000	1.835021	0	0	0	0	ThoughtProbe	3.124962	1.175473	0	94	94
125.458603	1.292801	city	7	1	1.616729	1.616729	0	1	0	0	CorrectCommission	2.201807	1.189882	0	0	9.352174e+01
126.744873	1.279733	city	2	1	1.233596	1.233596	0	1	0	0	CorrectCommission	0.581546	1.187271	0	0	9.304348e+01
128.031097	1.292727	mountain	9	0	0.000000	0.906124	1	0	0	0	CorrectOmission	0.803327	1.169730	0	0	9.256522e+01
129.324066	1.293212	city	10	1	0.771810	0.771810	0	1	0	0	CorrectCommission	1.371339	1.140330	0	0	9.208696e+01
130.616974	1.292607	city	7	1	0.968151	0.968151	0	1	0	0	CorrectCommission	0.541017	1.102632	0	0	9.160870e+01
131.903076	1.279575	city	1	1	0.868279	0.868279	0	1	0	0	CorrectCommission	0.963372	1.060182	0	0	9.113043e+01
133.182739	1.279764	city	3	1	0.978618	0.978618	0	1	0	0	CorrectCommission	0.496750	1.016062	0	0	9.065217e+01
134.462326	1.279414	city	2	1	1.027355	1.027355	0	1	0	0	CorrectCommission	0.290644	0.972666	0	0	9.017391e+01
135.748581	1.293103	city	5	1	0.716616	0.716616	0	1	0	0	CorrectCommission	1.604750	0.931596	0	0	8.969565e+01
137.034897	1.279527	mountain	6	1	0.645088	0.645088	0	0	1	0	CommissionError	1.907240	0.893736	0	0	8.921739e+01
138.341095	1.332849	mountain	9	1	0.906709	0.906709	0	0	1	0	CommissionError	0.800853	0.859416	0	0	8.873913e+01
139.647293	1.279557	city	4	1	1.237856	1.237856	0	1	0	0	CorrectCommission	0.599563	0.828643	0	0	8.826087e+01
140.926910	1.279688	city	8	1	1.082804	1.082804	0	1	0	0	CorrectCommission	0.056150	0.801239	0	0	8.778261e+01
142.206543	1.279550	city	7	1	1.025292	1.025292	0	1	0	0	CorrectCommission	0.299365	0.777005	0	0	8.730435e+01
143.486099	1.279575	city	3	1	0.980443	0.980443	0	1	0	0	CorrectCommission	0.489032	0.755783	0	0	8.682609e+01
144.772339	1.292918	city	8	1	0.621139	0.621139	0	1	0	0	CorrectCommission	2.008523	0.737543	0	0	8.634783e+01
146.071991	1.306364	city	10	1	0.888514	0.888514	0	1	0	0	CorrectCommission	0.877797	0.722309	1	0	8.586957e+01
147.371582	1.292828	city	9	1	1.245093	1.245093	0	1	0	0	CorrectCommission	0.630166	0.710187	1	0	8.539130e+01
148.657761	1.279537	city	3	1	1.134638	1.134638	0	1	0	0	CorrectCommission	0.163057	0.701209	1	0	8.491304e+01
149.937225	1.279397	city	2	1	1.024245	1.024245	0	1	0	0	CorrectCommission	0.303796	0.695260	1	0	8.443478e+01
151.216812	1.279762	city	7	1	1.228636	1.228636	0	1	0	0	CorrectCommission	0.560570	0.691957	1	0	8.395652e+01
152.496475	1.279559	city	1	1	0.858152	0.858152	0	1	0	0	CorrectCommission	1.006197	0.690588	1	0	8.347826e+01
153.782623	1.292753	city	5	1	0.978063	0.978063	0	1	0	0	CorrectCommission	0.499098	0.690129	1	0	83
155.075546	1.293079	city	2	1	0.977534	0.977534	0	1	0	0	CorrectCommission	0.501333	0.689331	1	0	8.252174e+01
156.361862	1.279553	city	10	1	0.911463	0.911463	0	1	0	0	CorrectCommission	0.780748	0.686789	1	0	8.204348e+01
157.641479	1.279682	mountain	6	1	1.249971	1.249971	0	0	1	0	CommissionError	0.650794	0.681106	1	0	8.156522e+01
158.921051	1.279475	city	6	1	1.447963	1.447963	0	1	0	0	CorrectCommission	1.488098	0.671100	1	0	8.108696e+01
160.200592	1.279602	city	3	1	1.187873	1.187873	0	1	0	0	CorrectCommission	0.388185	0.655911	1	0	8.060870e+01
161.480118	1.279438	city	5	1	1.454140	1.454140	0	1	0	0	CorrectCommission	1.514224	0.635173	1	0	8.013043e+01
162.759613	1.279562	city	6	1	1.191746	1.191746	0	1	0	0	CorrectCommission	0.404562	0.608970	1	0	7.965217e+01
164.039261	1.279745	city	4	1	1.126856	1.126856	0	1	0	0	CorrectCommission	0.130147	0.577929	1	0	7.917391e+01
165.325592	1.292914	city	2	1	0.990341	0.990341	0	1	0	0	CorrectCommission	0.447175	0.543105	1	0	7.869565e+01
166.618423	1.292745	city	6	1	0.893696	0.893696	0	1	0	0	CorrectCommission	0.855883	0.505924	1	0	7.821739e+01
167.911301	1.293007	city	7	1	1.016073	1.016073	0	1	0	0	CorrectCommission	0.338353	0.468070	1	0	7.773913e+01
169.197617	1.279635	city	3	1	0.870473	0.870473	0	1	0	0	CorrectCommission	0.954091	0.431392	1	0	7.726087e+01
170.477142	1.279420	city	6	1	1.068517	1.068517	0	1	0	0	CorrectCommission	0.116568	0.397729	1	0	7.678261e+01
171.756638	1.279558	city	4	1	1.071567	1.071567	0	1	0	0	CorrectCommission	0.103669	0.368906	1	0	7.630435e+01
173.056290	1.319750	city	8	1	1.121712	1.121712	0	1	0	0	CorrectCommission	0.108393	0.346475	1	0	7.582609e+01
174.355988	1.279658	city	2	1	1.134285	1.134285	0	1	0	0	CorrectCommission	0.161563	0.331698	1	0	7.534783e+01
175.648895	1.306156	city	4	1	1.074128	1.074128	0	1	0	0	CorrectCommission	0.092840	0.325484	1	0	7.486957e+01
176.941757	1.279561	city	9	1	1.075023	1.075023	0	1	0	0	CorrectCommission	0.089056	0.328398	1	0	7.439130e+01
178.221344	1.279617	city	7	1	1.180394	1.180394	0	1	0	0	CorrectCommission	0.356556	0.340663	1	0	7.391304e+01
179.514221	1.306127	city	8	1	1.037706	1.037706	0	1	0	0	CorrectCommission	0.246867	0.362203	1	0	7.343478e+01
180.820358	1.306148	city	6	1	1.140951	1.140951	0	1	0	0	CorrectCommission	0.189751	0.392737	1	0	7.295652e+01
182.113220	1.279577	city	2	1	1.024216	1.024216	0	1	0	0	CorrectCommission	0.303918	0.431868	1	0	7.247826e+01
182.753006	8.890540	break	0	1	1.134003	1.134003	0	0	0	0	ThoughtProbe	0.160369	0.479106	1	72	72
192.283356	1.279608	city	3	1	1.293857	1.293857	0	1	0	0	CorrectCommission	0.836388	0.533903	1	0	72
193.562866	1.279432	city	7	1	1.314144	1.314144	0	1	0	0	CorrectCommission	0.922182	0.595541	1	0	72
194.869080	1.332985	city	1	1	1.147014	1.147014	0	1	0	0	CorrectCommission	0.215394	0.663064	1	0	72
196.175400	1.279661	city	10	1	1.285012	1.285012	0	1	0	0	CorrectCommission	0.798982	0.735163	0	0	72
197.461685	1.292899	city	6	1	1.315585	1.315585	0	1	0	0	CorrectCommission	0.928277	0.809952	0	0	72
198.747879	1.279496	city	7	1	0.978179	0.978179	0	1	0	0	CorrectCommission	0.498607	0.884958	0	0	72
200.067444	1.359635	city	6	1	1.180476	1.180476	0	1	0	0	CorrectCommission	0.356904	0.957100	0	0	72
201.400299	1.306061	mountain	3	0	0.000000	1.120029	1	0	0	0	CorrectOmission	0.101275	1.022868	0	0	72
202.699875	1.293086	city	7	1	1.259047	1.259047	0	1	0	0	CorrectCommission	0.689177	1.078546	0	0	72
203.986145	1.279481	city	2	1	2.059737	2.059737	0	1	0	0	CorrectCommission	4.075279	1.120658	0	0	72
205.272430	1.293082	city	1	1	1.682171	1.682171	0	1	0	0	CorrectCommission	2.478563	1.146327	0	0	72
206.558640	1.279325	city	4	1	1.243453	1.243453	0	1	0	0	CorrectCommission	0.623231	1.153866	0	0	72
207.838196	1.279783	city	2	1	0.973864	0.973864	0	1	0	0	CorrectCommission	0.516854	1.142951	0	0	72
209.131104	1.306050	city	1	1	0.614339	0.614339	0	1	0	0	CorrectCommission	2.037280	1.114715	0	0	72
210.423996	1.279726	mountain	8	1	0.562970	0.562970	0	0	1	0	CommissionError	2.254518	1.071706	0	0	72
211.703644	1.279573	city	8	1	1.297417	1.297417	0	1	0	0	CorrectCommission	0.851442	1.017746	0	0	72
213.003128	1.319408	city	2	1	1.156229	1.156229	0	1	0	0	CorrectCommission	0.254362	0.957553	0	0	72
214.302673	1.279656	city	8	1	0.978342	0.978342	0	1	0	0	CorrectCommission	0.497916	0.896283	0	0	72
215.582321	1.279668	city	6	1	0.991808	0.991808	0	1	0	0	CorrectCommission	0.440971	0.839062	0	0	72
216.861954	1.279576	city	10	1	0.707122	0.707122	0	1	0	0	CorrectCommission	1.644902	0.790536	0	0	72
218.148148	1.292826	city	5	1	1.157785	1.157785	0	1	0	0	CorrectCommission	0.260941	0.754422	0	0	72
219.434311	1.279499	city	6	1	1.140505	1.140505	0	1	0	0	CorrectCommission	0.187866	0.733243	0	0	72
220.713943	1.279761	city	9	1	1.129814	1.129814	0	1	0	0	CorrectCommission	0.142657	0.727961	1	0	72
222.006943	1.306237	city	1	1	1.083275	1.083275	0	1	0	0	CorrectCommission	0.054158	0.737963	0	0	72
223.299835	1.279553	city	5	1	1.189741	1.189741	0	1	0	0	CorrectCommission	0.396084	0.761093	0	0	72
224.586075	1.292917	city	6	1	1.105758	1.105758	0	1	0	0	CorrectCommission	0.040921	0.793854	0	0	72
225.872238	1.279407	city	5	1	1.585488	1.585488	0	1	0	0	CorrectCommission	2.069691	0.831851	0	0	72
227.165146	1.306406	city	10	1	1.052063	1.052063	0	1	0	0	CorrectCommission	0.186153	0.870255	0	0	72
228.464798	1.292911	city	5	1	0.927951	0.927951	0	1	0	0	CorrectCommission	0.711019	0.904531	0	0	72
229.764374	1.306235	city	8	1	0.799227	0.799227	0	1	0	0	CorrectCommission	1.255392	0.930874	0	0	72
231.077194	1.319401	city	6	1	1.710563	1.710563	0	1	0	0	CorrectCommission	2.598629	0.946745	0	0	72
232.390106	1.306430	city	8	1	1.696698	1.696698	0	1	0	0	CorrectCommission	2.539996	0.951066	0	0	72
233.683029	1.279403	city	5	1	1.351364	1.351364	0	1	0	0	CorrectCommission	1.079587	0.944360	0	0	72
237.894882	7.144305	break	0	1	1.127641	1.127641	0	0	0	0	ThoughtProbe	0.133465	0.928527	0	72	72
242.113571	1.293069	city	4	1	1.310445	1.310445	0	1	0	0	CorrectCommission	0.906539	0.906358	0	0	7.195652e+01
243.399826	1.279442	city	2	1	1.140260	1.140260	0	1	0	0	CorrectCommission	0.186829	0.880950	0	0	7.191304e+01
244.679337	1.279603	mountain	3	0	0.000000	1.193926	1	0	0	0	CorrectOmission	0.413782	0.855279	0	0	7.186957e+01
245.958984	1.279695	city	9	1	1.236296	1.236296	0	1	0	0	CorrectCommission	0.592964	0.831714	0	0	7.182609e+01
247.238556	1.279420	city	8	1	1.032223	1.032223	0	1	0	0	CorrectCommission	0.270057	0.811811	0	0	7.178261e+01
248.524796	1.293082	city	5	1	0.887808	0.887808	0	1	0	0	CorrectCommission	0.880782	0.796231	0	0	7.173913e+01
249.811142	1.279593	city	10	1	0.720355	0.720355	0	1	0	0	CorrectCommission	1.588940	0.784897	0	0	7.169565e+01
251.097214	1.292564	mountain	9	0	0.000000	1.125274	1	0	0	0	CorrectOmission	0.123454	0.777219	0	0	7.165217e+01
252.390045	1.293086	city	6	1	1.523069	1.523069	0	1	0	0	CorrectCommission	1.805722	0.772502	0	0	7.160870e+01
253.676437	1.279711	mountain	1	0	0.000000	1.334245	1	0	0	0	CorrectOmission	1.007188	0.770052	0	0	7.156522e+01
254.969330	1.306071	city	2	1	1.044684	1.044684	0	1	0	0	CorrectCommission	0.217360	0.769462	0	0	7.152174e+01
256.262268	1.279791	city	6	1	1.140269	1.140269	0	1	0	0	CorrectCommission	0.186866	0.770622	0	0	7.147826e+01
257.541840	1.279373	city	10	1	0.976304	0.976304	0	1	0	0	CorrectCommission	0.506537	0.773641	0	0	7.143478e+01
258.947937	1.532822	city	7	1	1.497465	1.497465	0	1	0	0	CorrectCommission	1.697444	0.778748	0	0	7.139130e+01
260.374207	1.319729	city	9	1	1.255263	1.255263	0	1	0	0	CorrectCommission	0.673175	0.786040	0	0	7.134783e+01
261.673859	1.279583	city	7	1	1.250026	1.250026	0	1	0	0	CorrectCommission	0.651027	0.795437	0	0	7.130435e+01
262.980042	1.332730	city	3	1	1.159805	1.159805	0	1	0	0	CorrectCommission	0.269484	0.806424	0	0	7.126087e+01
264.306183	1.319587	city	6	1	0.951979	0.951979	0	1	0	0	CorrectCommission	0.609406	0.818023	0	0	7.121739e+01
265.612518	1.293074	city	1	1	0.804995	0.804995	0	1	0	0	CorrectCommission	1.230996	0.828793	0	0	7.117391e+01
266.898804	1.279481	city	9	1	0.874331	0.874331	0	1	0	0	CorrectCommission	0.937776	0.836967	0	0	7.113043e+01
268.185028	1.292990	city	4	1	1.084129	1.084129	0	1	0	0	CorrectCommission	0.050547	0.840727	0	0	7.108696e+01
269.484558	1.306066	city	8	1	0.785911	0.785911	0	1	0	0	CorrectCommission	1.311703	0.838516	0	0	7.104348e+01
270.777466	1.279740	city	6	1	0.875576	0.875576	0	1	0	0	CorrectCommission	0.932513	0.829246	0	0	71
272.063782	1.292924	mountain	8	1	0.570063	0.570063	0	0	1	0	CommissionError	2.224520	0.812724	0	0	7.095652e+01
273.349945	1.279399	city	7	1	1.350706	1.350706	0	1	0	0	CorrectCommission	1.076804	0.789719	0	0	7.091304e+01
274.636108	1.292920	city	4	1	1.322634	1.322634	0	1	0	0	CorrectCommission	0.958085	0.762103	0	0	7.086957e+01
275.942352	1.319576	city	9	1	1.142011	1.142011	0	1	0	0	CorrectCommission	0.194234	0.732598	0	0	7.082609e+01
277.242035	1.279749	city	5	1	1.283691	1.283691	0	1	0	0	CorrectCommission	0.793399	0.704523	1	0	7.078261e+01
278.528259	1.292720	city	7	1	1.004870	1.004870	0	1	0	0	CorrectCommission	0.385731	0.681298	1	0	7.073913e+01
279.814514	1.279760	city	6	1	1.189549	1.189549	0	1	0	0	CorrectCommission	0.395271	0.666062	1	0	7.069565e+01
281.094086	1.279426	city	2	1	1.083243	1.083243	0	1	0	0	CorrectCommission	0.054294	0.661137	1	0	7.065217e+01
282.373596	1.279584	city	8	1	1.044597	1.044597	0	1	0	0	CorrectCommission	0.217726	0.667739	1	0	7.060870e+01
283.673187	1.319620	city	7	1	1.164825	1.164825	0	1	0	0	CorrectCommission	0.290714	0.685777	1	0	7.056522e+01
284.979523	1.293005	city	2	1	1.038925	1.038925	0	1	0	0	CorrectCommission	0.241712	0.713857	1	0	7.052174e+01
286.265717	1.279419	city	4	1	1.302195	1.302195	0	1	0	0	CorrectCommission	0.871652	0.749480	0	0	7.047826e+01
287.545227	1.279578	city	1	1	0.930461	0.930461	0	1	0	0	CorrectCommission	0.700406	0.789372	0	0	7.043478e+01
288.838226	1.306400	city	8	1	0.893556	0.893556	0	1	0	0	CorrectCommission	0.856474	0.830026	0	0	7.039130e+01
290.137848	1.292894	city	1	1	0.720558	0.720558	0	1	0	0	CorrectCommission	1.588082	0.868154	0	0	7.034783e+01
291.437408	1.306225	city	4	1	0.768388	0.768388	0	1	0	0	CorrectCommission	1.385809	0.901169	0	0	7.030435e+01
292.730255	1.279429	city	9	1	0.813263	0.813263	0	1	0	0	CorrectCommission	1.196033	0.927571	0	0	7.026087e+01
294.029755	1.319605	city	10	1	0.697182	0.697182	0	1	0	0	CorrectCommission	1.686936	0.947103	0	0	7.021739e+01
295.349335	1.319516	city	7	1	1.209710	1.209710	0	1	0	0	CorrectCommission	0.480533	0.960779	0	0	7.017391e+01
296.648956	1.279746	city	9	1	0.870326	0.870326	0	1	0	0	CorrectCommission	0.954713	0.970793	0	0	7.013043e+01
297.928619	1.279589	city	3	1	0.980456	0.980456	0	1	0	0	CorrectCommission	0.488978	0.980081	0	0	7.008696e+01
299.208191	1.279564	city	5	1	0.663619	0.663619	0	1	0	0	CorrectCommission	1.828872	0.992017	0	0	7.004348e+01
299.847992	8.170660	break	0	1	1.203969	1.203969	0	0	0	0	ThoughtProbe	0.456255	1.009854	0	70	70
308.658417	1.279563	city	6	1	1.301828	1.301828	0	1	0	0	CorrectCommission	0.870096	1.036322	0	0	7.023529e+01
309.951324	1.306266	mountain	1	0	0.000000	1.255017	1	0	0	0	CorrectOmission	0.672136	1.073120	0	0	7.047059e+01
311.244263	1.279570	city	6	1	1.194233	1.194233	0	1	0	0	CorrectCommission	0.415080	1.120642	0	0	7.070588e+01
312.543854	1.319647	city	1	1	1.250169	1.250169	0	1	0	0	CorrectCommission	0.651632	1.177790	0	0	7.094118e+01
313.843445	1.279487	city	5	1	0.868654	0.868654	0	1	0	0	CorrectCommission	0.961787	1.241993	0	0	7.117647e+01
315.129578	1.292835	city	7	1	0.784030	0.784030	0	1	0	0	CorrectCommission	1.319660	1.309413	0	0	7.141176e+01
316.415833	1.279642	city	9	1	0.702786	0.702786	0	1	0	0	CorrectCommission	1.663236	1.375314	0	0	7.164706e+01
317.695374	1.279431	city	3	1	0.750846	0.750846	0	1	0	0	CorrectCommission	1.459992	1.434596	0	0	7.188235e+01
318.994934	1.319719	city	6	1	0.678613	0.678613	0	1	0	0	CorrectCommission	1.765463	1.482339	0	0	7.211765e+01
320.294586	1.279575	mountain	2	1	0.551781	0.551781	0	0	1	0	CommissionError	2.301837	1.514362	0	0	7.235294e+01
321.574158	1.279579	city	1	1	0.593668	0.593668	0	1	0	0	CorrectCommission	2.124698	1.527681	0	0	7.258824e+01
322.860321	1.292743	city	2	1	0.494181	0.494181	0	1	0	0	CorrectCommission	2.545423	1.520837	0	0	7.282353e+01
324.173248	1.333072	city	10	1	0.499384	0.499384	0	1	0	0	CorrectCommission	2.523420	1.493987	0	0	7.305882e+01
325.479553	1.279570	city	9	1	0.705015	0.705015	0	1	0	0	CorrectCommission	1.653810	1.448802	0	0	7.329412e+01
326.765808	1.292922	city	6	1	0.873033	0.873033	0	1	0	0	CorrectCommission	0.943269	1.388237	0	0	7.352941e+01
328.051971	1.279412	city	4	1	1.323246	1.323246	0	1	0	0	CorrectCommission	0.960675	1.316207	0	0	7.376471e+01
329.344788	1.306241	city	5	1	1.111865	1.111865	0	1	0	0	CorrectCommission	0.066750	1.237099	0	0	74
330.637695	1.279563	city	1	1	1.310775	1.310775	0	1	0	0	CorrectCommission	0.907934	1.155542	0	0	7.423529e+01
331.930664	1.306397	city	10	1	1.757516	1.757516	0	1	0	0	CorrectCommission	2.797194	1.076018	0	0	7.447059e+01
333.230255	1.292759	city	1	1	1.340443	1.340443	0	1	0	0	CorrectCommission	1.033402	1.002674	0	0	7.470588e+01
334.536407	1.319571	city	6	1	1.340465	1.340465	0	1	0	0	CorrectCommission	1.033492	0.939157	0	0	7.494118e+01
335.849396	1.306384	city	8	1	1.100269	1.100269	0	1	0	0	CorrectCommission	0.017710	0.888376	0	0	7.517647e+01
337.149048	1.292919	city	6	1	1.100438	1.100438	0	1	0	0	CorrectCommission	0.018423	0.852393	0	0	7.541176e+01
338.435211	1.279404	city	2	1	1.031541	1.031541	0	1	0	0	CorrectCommission	0.272939	0.832255	0	0	7.564706e+01
339.748108	1.346399	city	1	1	0.961478	0.961478	0	1	0	0	CorrectCommission	0.569233	0.827920	0	0	7.588235e+01
341.061005	1.279402	city	2	1	1.082939	1.082939	0	1	0	0	CorrectCommission	0.055579	0.838292	0	0	7.611765e+01
342.347168	1.292933	city	8	1	0.767803	0.767803	0	1	0	0	CorrectCommission	1.388285	0.861410	0	0	7.635294e+01
343.633423	1.279553	city	9	1	0.911690	0.911690	0	1	0	0	CorrectCommission	0.779789	0.894635	0	0	7.658824e+01
344.933075	1.319719	city	7	1	0.940412	0.940412	0	1	0	0	CorrectCommission	0.658321	0.935044	0	0	7.682353e+01
346.232666	1.279494	city	10	1	0.879869	0.879869	0	1	0	0	CorrectCommission	0.914358	0.979736	0	0	7.705882e+01
347.512268	1.279700	city	9	1	0.802986	0.802986	0	1	0	0	CorrectCommission	1.239496	1.026129	0	0	7.729412e+01
348.798492	1.292772	city	3	1	0.644945	0.644945	0	1	0	0	CorrectCommission	1.907846	1.072142	0	0	7.752941e+01
350.091339	1.292881	city	7	1	0.772432	0.772432	0	1	0	0	CorrectCommission	1.368707	1.116251	0	0	7.776471e+01
354.189972	6.904388	break	0	1	0.883620	0.883620	0	0	0	0	ThoughtProbe	0.898495	1.157407	0	78	78
358.282043	1.279747	city	3	1	1.743892	1.743892	0	1	0	0	CorrectCommission	2.739578	1.194795	0	0	7.782500e+01
359.581665	1.319543	city	10	1	1.098134	1.098134	0	1	0	0	CorrectCommission	0.008678	1.227487	0	0	7.765000e+01
360.887909	1.292904	city	9	1	1.039502	1.039502	0	1	0	0	CorrectCommission	0.239272	1.254319	0	0	7.747500e+01
362.200806	1.332909	city	3	1	0.988982	0.988982	0	1	0	0	CorrectCommission	0.452919	1.273596	0	0	7.730000e+01
363.527039	1.319563	city	9	1	0.671667	0.671667	0	1	0	0	CorrectCommission	1.794838	1.283188	0	0	7.712500e+01
364.833282	1.292898	city	8	1	0.725249	0.725249	0	1	0	0	CorrectCommission	1.568244	1.280744	0	0	7.695000e+01
366.119446	1.279433	city	7	1	0.764155	0.764155	0	1	0	0	CorrectCommission	1.403710	1.264130	0	0	7.677500e+01
367.399017	1.279725	city	1	1	1.724704	1.724704	0	1	0	0	CorrectCommission	2.658434	1.231929	0	0	7.660000e+01
368.698578	1.319413	mountain	5	0	0.000000	1.834703	1	0	0	0	CorrectOmission	3.123614	1.183786	0	0	7.642500e+01
369.998138	1.279723	mountain	1	0	0.000000	1.479785	1	0	0	0	CorrectOmission	1.622677	1.120753	0	0	7.625000e+01
371.277802	1.279593	city	4	1	1.045588	1.045588	0	1	0	0	CorrectCommission	0.213536	1.045340	0	0	7.607500e+01
372.557404	1.279573	city	1	1	0.917746	0.917746	0	1	0	0	CorrectCommission	0.754177	0.961256	0	0	7.590000e+01
373.836884	1.279435	city	5	1	0.923189	0.923189	0	1	0	0	CorrectCommission	0.731159	0.872968	0	0	7.572500e+01
375.116455	1.279709	city	1	1	0.992332	0.992332	0	1	0	0	CorrectCommission	0.438752	0.785255	0	0	7.555000e+01
376.396118	1.279593	city	9	1	1.081998	1.081998	0	1	0	0	CorrectCommission	0.059560	0.702655	1	0	7.537500e+01
377.682373	1.292914	city	5	1	0.967271	0.967271	0	1	0	0	CorrectCommission	0.544737	0.629056	1	0	7.520000e+01
378.981964	1.306256	city	4	1	1.148022	1.148022	0	1	0	0	CorrectCommission	0.219658	0.567356	1	0	7.502500e+01
380.274872	1.279576	city	9	1	1.078060	1.078060	0	1	0	0	CorrectCommission	0.076214	0.519358	1	0	7.485000e+01
381.554443	1.279559	city	1	1	0.990316	0.990316	0	1	0	0	CorrectCommission	0.447278	0.485730	1	0	7.467500e+01
382.854004	1.319591	city	4	1	1.279383	1.279383	0	1	0	0	CorrectCommission	0.775177	0.466106	1	0	7.450000e+01
384.166870	1.306118	city	3	1	1.050396	1.050396	0	1	0	0	CorrectCommission	0.193204	0.459291	1	0	7.432500e+01
385.466431	1.293027	city	9	1	1.097524	1.097524	0	1	0	0	CorrectCommission	0.006099	0.463495	1	0	7.415000e+01
386.772736	1.319583	city	4	1	1.228531	1.228531	0	1	0	0	CorrectCommission	0.560128	0.476435	1	0	7.397500e+01
388.105682	1.346278	city	1	1	1.099538	1.099538	0	1	0	0	CorrectCommission	0.014617	0.495647	1	0	7.380000e+01
389.425232	1.292833	city	9	1	1.033783	1.033783	0	1	0	0	CorrectCommission	0.263457	0.518683	1	0	7.362500e+01
390.711395	1.279463	city	6	1	1.298487	1.298487	0	1	0	0	CorrectCommission	0.855968	0.543282	1	0	7.345000e+01
391.990967	1.279702	city	9	1	1.405071	1.405071	0	1	0	0	CorrectCommission	1.306712	0.567542	1	0	7.327500e+01
393.283844	1.306059	city	2	1	1.017747	1.017747	0	1	0	0	CorrectCommission	0.331273	0.590114	1	0	7.310000e+01
394.583405	1.293080	mountain	8	0	0.000000	1.184259	1	0	0	0	CorrectOmission	0.372900	0.610332	1	0	7.292500e+01
395.876373	1.292813	city	9	1	1.444890	1.444890	0	1	0	0	CorrectCommission	1.475103	0.628172	1	0	7.275000e+01
397.189178	1.332797	city	6	1	1.339925	1.339925	0	1	0	0	CorrectCommission	1.031211	0.644213	1	0	7.257500e+01
398.515442	1.319761	city	3	1	1.209514	1.209514	0	1	0	0	CorrectCommission	0.479704	0.659536	1	0	7.240000e+01
399.835022	1.319387	city	2	1	1.115266	1.115266	0	1	0	0	CorrectCommission	0.081131	0.675475	1	0	7.222500e+01
401.147858	1.306314	city	10	1	1.048214	1.048214	0	1	0	0	CorrectCommission	0.202429	0.693334	1	0	7.205000e+01
402.440857	1.279627	city	3	1	1.314799	1.314799	0	1	0	0	CorrectCommission	0.924952	0.714124	1	0	7.187500e+01
403.747070	1.332807	city	5	1	1.280551	1.280551	0	1	0	0	CorrectCommission	0.780120	0.738353	0	0	7.170000e+01
405.059967	1.293019	city	4	1	1.322181	1.322181	0	1	0	0	CorrectCommission	0.956170	0.765893	0	0	7.152500e+01
406.346222	1.279452	city	5	1	1.124724	1.124724	0	1	0	0	CorrectCommission	0.121128	0.795905	0	0	7.135000e+01
407.645691	1.319539	city	2	1	1.074323	1.074323	0	1	0	0	CorrectCommission	0.092017	0.826947	0	0	7.117500e+01
411.657806	6.704647	break	0	0	0.000000	1.374502	0	0	0	0	ThoughtProbe	1.177433	0.857071	0	71	71
415.656464	1.292715	city	1	1	1.586603	1.586603	0	1	0	0	CorrectCommission	2.074407	0.884065	0	0	7.077500e+01
416.955963	1.306240	city	6	1	1.271972	1.271972	0	1	0	0	CorrectCommission	0.743838	0.905708	0	0	7.055000e+01
418.255615	1.293075	city	7	1	0.941569	0.941569	0	1	0	0	CorrectCommission	0.653429	0.920098	0	0	7.032500e+01
419.541931	1.279570	city	4	1	0.767794	0.767794	0	1	0	0	CorrectCommission	1.388321	0.925783	0	0	7.010000e+01
420.828186	1.292939	city	7	1	0.726237	0.726237	0	1	0	0	CorrectCommission	1.564065	0.921911	0	0	6.987500e+01
422.127686	1.306075	city	4	1	0.870919	0.870919	0	1	0	0	CorrectCommission	0.952206	0.908339	0	0	6.965000e+01
423.420593	1.279749	city	2	1	0.863218	0.863218	0	1	0	0	CorrectCommission	0.984774	0.885607	0	0	6.942500e+01
424.706848	1.292741	city	1	1	0.911601	0.911601	0	1	0	0	CorrectCommission	0.780164	0.854825	0	0	6.920000e+01
426.032990	1.359536	mountain	8	1	1.204347	1.204347	0	0	1	0	CommissionError	0.457853	0.817550	0	0	6.897500e+01
427.352631	1.279728	city	4	1	1.443990	1.443990	0	1	0	0	CorrectCommission	1.471299	0.775676	0	0	6.875000e+01
428.645538	1.306090	city	8	1	0.884814	0.884814	0	1	0	0	CorrectCommission	0.893444	0.731234	1	0	6.852500e+01
429.945038	1.292945	city	9	1	1.161054	1.161054	0	1	0	0	CorrectCommission	0.274768	0.686279	1	0	6.830000e+01
431.237946	1.292869	city	4	1	0.992633	0.992633	0	1	0	0	CorrectCommission	0.437481	0.642760	1	0	6.807500e+01
432.524231	1.279657	mountain	6	1	1.177560	1.177560	0	0	1	0	CommissionError	0.344573	0.602393	1	0	6.785000e+01
433.810547	1.293018	city	2	1	1.302828	1.302828	0	1	0	0	CorrectCommission	0.874326	0.566606	1	0	6.762500e+01
435.103424	1.292718	city	7	1	1.044420	1.044420	0	1	0	0	CorrectCommission	0.218475	0.536435	1	0	6.740000e+01
436.396332	1.293078	city	5	1	1.186954	1.186954	0	1	0	0	CorrectCommission	0.384299	0.512522	1	0	6.717500e+01
437.689240	1.292727	city	3	1	1.258512	1.258512	0	1	0	0	CorrectCommission	0.686916	0.495052	1	0	6.695000e+01
438.995483	1.319759	city	10	1	1.088582	1.088582	0	1	0	0	CorrectCommission	0.031717	0.483766	1	0	6.672500e+01
440.301788	1.292902	city	6	1	0.945112	0.945112	0	1	0	0	CorrectCommission	0.638448	0.478041	1	0	6.650000e+01
441.594696	1.292888	city	8	1	1.093652	1.093652	0	1	0	0	CorrectCommission	0.010273	0.476883	1	0	6.627500e+01
442.894257	1.306256	city	9	1	1.191355	1.191355	0	1	0	0	CorrectCommission	0.402912	0.479114	1	0	6.605000e+01
444.213745	1.332724	city	6	1	1.169329	1.169329	0	1	0	0	CorrectCommission	0.309764	0.483446	1	0	6.582500e+01
445.546570	1.332882	city	9	1	1.228122	1.228122	0	1	0	0	CorrectCommission	0.558396	0.488737	1	0	6.560000e+01
446.866211	1.306398	mountain	3	0	0.000000	1.296331	1	0	0	0	CorrectOmission	0.846852	0.494111	1	0	6.537500e+01
448.159119	1.279415	city	3	1	1.337867	1.337867	0	1	0	0	CorrectCommission	1.022508	0.499077	1	0	6.515000e+01
449.452026	1.306421	city	9	1	1.316640	1.316640	0	1	0	0	CorrectCommission	0.932737	0.503573	1	0	6.492500e+01
450.771606	1.332720	city	2	1	1.070122	1.070122	0	1	0	0	CorrectCommission	0.109784	0.507955	1	0	6.470000e+01
452.084473	1.293068	city	3	1	1.022988	1.022988	0	1	0	0	CorrectCommission	0.309108	0.512851	1	0	6.447500e+01
453.390808	1.319589	city	10	1	1.241824	1.241824	0	1	0	0	CorrectCommission	0.616343	0.518929	1	0	6.425000e+01
454.723724	1.346199	city	7	1	1.164975	1.164975	0	1	0	0	CorrectCommission	0.291351	0.526762	1	0	6.402500e+01
456.043182	1.292740	city	3	1	1.124701	1.124701	0	1	0	0	CorrectCommission	0.121032	0.536609	1	0	6.380000e+01
457.335999	1.292921	city	4	1	1.089303	1.089303	0	1	0	0	CorrectCommission	0.028667	0.548353	1	0	6.357500e+01
458.642334	1.319716	city	8	1	0.888254	0.888254	0	1	0	0	CorrectCommission	0.878897	0.561542	1	0	6.335000e+01
459.948669	1.292935	city	4	1	0.989682	0.989682	0	1	0	0	CorrectCommission	0.449961	0.575422	1	0	6.312500e+01
461.261475	1.332717	city	6	1	0.846213	0.846213	0	1	0	0	CorrectCommission	1.056687	0.589191	1	0	6.290000e+01
462.587616	1.319555	city	2	1	0.938577	0.938577	0	1	0	0	CorrectCommission	0.666083	0.602128	1	0	6.267500e+01
463.887268	1.279738	city	5	1	0.910991	0.910991	0	1	0	0	CorrectCommission	0.782744	0.613824	1	0	6.245000e+01
465.193512	1.332734	city	10	1	0.768963	0.768963	0	1	0	0	CorrectCommission	1.383377	0.624229	1	0	6.222500e+01
468.479065	5.238428	break	0	0	0.000000	1.027494	0	0	0	0	ThoughtProbe	0.290055	0.633615	1	62	62
471.751343	1.306095	city	6	1	1.274456	1.274456	0	1	0	0	CorrectCommission	0.754341	0.642534	1	0	6.232353e+01
473.057526	1.306268	city	2	1	1.097720	1.097720	0	1	0	0	CorrectCommission	0.006931	0.651539	1	0	6.264706e+01
474.384186	1.347087	city	8	1	1.168319	1.168319	0	1	0	0	CorrectCommission	0.305490	0.661049	1	0	6.297059e+01
475.703827	1.292194	mountain	6	0	0.000000	1.242068	1	0	0	0	CorrectOmission	0.617375	0.671120	1	0	6.329412e+01
477.002960	1.306020	city	9	1	1.274743	1.274743	0	1	0	0	CorrectCommission	0.755557	0.681372	1	0	6.361765e+01
478.315826	1.319759	city	8	1	1.222118	1.222118	0	1	0	0	CorrectCommission	0.533008	0.690967	1	0	6.394118e+01
479.615387	1.279365	city	9	1	1.390073	1.390073	0	1	0	0	CorrectCommission	1.243284	0.698720	1	0	6.426471e+01
480.914978	1.319763	city	3	1	1.353515	1.353515	0	1	0	0	CorrectCommission	1.088680	0.703230	1	0	6.458824e+01
482.254547	1.359405	city	9	1	1.102873	1.102873	0	1	0	0	CorrectCommission	0.028720	0.703141	1	0	6.491176e+01
483.574127	1.279755	city	2	1	1.382149	1.382149	0	1	0	0	CorrectCommission	1.209774	0.697384	1	0	6.523529e+01
484.880463	1.332921	city	7	1	1.226703	1.226703	0	1	0	0	CorrectCommission	0.552397	0.685295	1	0	6.555882e+01
486.213287	1.332702	city	10	1	0.970174	0.970174	0	1	0	0	CorrectCommission	0.532459	0.666845	1	0	6.588235e+01
487.519409	1.279582	city	1	1	1.566911	1.566911	0	1	0	0	CorrectCommission	1.991130	0.642663	1	0	6.620588e+01
488.825653	1.332904	city	6	1	1.294844	1.294844	0	1	0	0	CorrectCommission	0.840563	0.613970	1	0	6.652941e+01
490.145233	1.306235	city	7	1	1.191992	1.191992	0	1	0	0	CorrectCommission	0.405603	0.582526	1	0	6.685294e+01
491.458160	1.319641	city	5	1	1.110089	1.110089	0	1	0	0	CorrectCommission	0.059238	0.550328	1	0	6.717647e+01
492.791107	1.346223	city	9	1	1.101384	1.101384	0	1	0	0	CorrectCommission	0.022424	0.519374	1	0	6.750000e+01
494.144043	1.359644	city	7	1	0.938281	0.938281	0	1	0	0	CorrectCommission	0.667334	0.491374	1	0	6.782353e+01
495.463654	1.279578	city	1	1	1.100812	1.100812	0	1	0	0	CorrectCommission	0.020007	0.467528	1	0	6.814706e+01
496.743225	1.279583	city	7	1	1.178090	1.178090	0	1	0	0	CorrectCommission	0.346812	0.448384	1	0	6.847059e+01
498.036163	1.306266	city	3	1	0.992435	0.992435	0	1	0	0	CorrectCommission	0.438317	0.433749	1	0	6.879412e+01
499.342285	1.306021	city	2	1	1.048455	1.048455	0	1	0	0	CorrectCommission	0.201412	0.422764	1	0	6.911765e+01
500.648438	1.306239	city	3	1	0.976010	0.976010	0	1	0	0	CorrectCommission	0.507781	0.413986	1	0	6.944118e+01
501.974731	1.346403	city	4	1	0.888406	0.888406	0	1	0	0	CorrectCommission	0.878256	0.405578	1	0	6.976471e+01
503.287720	1.279558	mountain	4	0	0.000000	1.063095	1	0	0	0	CorrectOmission	0.139500	0.395479	1	0	7.008824e+01
504.580627	1.306238	city	5	1	1.212122	1.212122	0	1	0	0	CorrectCommission	0.490733	0.381662	1	0	7.041176e+01
505.886780	1.306074	city	2	1	1.047532	1.047532	0	1	0	0	CorrectCommission	0.205315	0.362290	1	0	7.073529e+01
507.212952	1.346251	city	10	1	0.982018	0.982018	0	1	0	0	CorrectCommission	0.482371	0.335941	1	0	7.105882e+01
508.552582	1.333030	city	7	1	0.863880	0.863880	0	1	0	0	CorrectCommission	0.981976	0.301726	1	0	7.138235e+01
509.885559	1.332931	city	4	1	1.176969	1.176969	0	1	0	0	CorrectCommission	0.342072	0.259413	1	0	7.170588e+01
511.211792	1.319551	city	5	1	1.183185	1.183185	0	1	0	0	CorrectCommission	0.368359	0.209506	1	0	7.202941e+01
512.538025	1.332878	city	3	1	1.208175	1.208175	0	1	0	0	CorrectCommission	0.474043	0.153173	1	0	7.235294e+01
513.884216	1.359483	city	8	1	1.076791	1.076791	0	1	0	0	CorrectCommission	0.081579	0.092185	1	0	7.267647e+01
518.116089	7.104333	break	0	0	1.102884	1.102884	0	0	0	0	ThoughtProbe	0.028768	0.028768	1	73	73
