onset	duration	trial_type	image_type	Press	ReactionTime	ReactionTime_Interpolated	CorrectOmission	CorrectCommission	CommissionError	OmissionError	response_type	nonsmoothVarianceTimeCourse	VarianceTimeCourse	In_the_Zone	ThoughtProbe	ThoughtProbe_Interpolated
0.653251	1.279732	city	5	1	1.305326	1.305326	0	1	0	0	CorrectCommission	0.045321	0.045321	1	0	85
1.932912	1.279590	city	2	1	1.359993	1.359993	0	1	0	0	CorrectCommission	0.227852	0.120929	1	0	85
3.212513	1.279613	city	5	1	1.342554	1.342554	0	1	0	0	CorrectCommission	0.140712	0.195842	1	0	85
4.492086	1.279533	city	6	1	1.443843	1.443843	0	1	0	0	CorrectCommission	0.646861	0.269332	1	0	85
5.771643	1.279579	city	4	1	1.427066	1.427066	0	1	0	0	CorrectCommission	0.563022	0.340636	1	0	85
7.051231	1.279598	city	9	1	1.355830	1.355830	0	1	0	0	CorrectCommission	0.207053	0.408965	1	0	85
8.330810	1.279559	city	1	1	1.230272	1.230272	0	1	0	0	CorrectCommission	0.420372	0.473561	1	0	85
9.610378	1.279578	city	5	1	1.241771	1.241771	0	1	0	0	CorrectCommission	0.362910	0.533699	1	0	85
10.889963	1.279592	city	9	1	1.284988	1.284988	0	1	0	0	CorrectCommission	0.146949	0.588834	1	0	85
12.169544	1.279570	mountain	5	0	0.000000	1.441901	1	0	0	0	CorrectOmission	0.637156	0.638667	1	0	85
13.449047	1.279436	city	7	1	1.604666	1.604666	0	1	0	0	CorrectCommission	1.450505	0.683240	1	0	85
14.728610	1.279691	mountain	9	0	0.000000	1.665439	1	0	0	0	CorrectOmission	1.754196	0.722988	1	0	85
16.008213	1.279512	city	9	1	1.548242	1.548242	0	1	0	0	CorrectCommission	1.168551	0.758695	1	0	85
17.287815	1.279692	city	1	1	1.177095	1.177095	0	1	0	0	CorrectCommission	0.686103	0.791357	1	0	85
18.567429	1.279538	city	9	1	1.396208	1.396208	0	1	0	0	CorrectCommission	0.408822	0.821972	0	0	85
19.846989	1.279578	city	4	1	1.341118	1.341118	0	1	0	0	CorrectCommission	0.133537	0.851299	0	0	85
21.126591	1.279627	city	5	1	1.230913	1.230913	0	1	0	0	CorrectCommission	0.417168	0.879647	0	0	85
22.406145	1.279483	city	1	1	1.336292	1.336292	0	1	0	0	CorrectCommission	0.109421	0.906784	0	0	85
23.685720	1.279668	mountain	8	0	0.000000	1.503306	1	0	0	0	CorrectOmission	0.944002	0.931975	0	0	85
24.965340	1.279571	city	3	1	1.661145	1.661145	0	1	0	0	CorrectCommission	1.732733	0.954132	0	0	85
26.251528	1.292804	city	10	1	1.738997	1.738997	0	1	0	0	CorrectCommission	2.121771	0.972053	0	0	85
27.537710	1.279559	city	7	1	1.742817	1.742817	0	1	0	0	CorrectCommission	2.140856	0.984684	0	0	85
28.817266	1.279556	city	6	1	1.236223	1.236223	0	1	0	0	CorrectCommission	0.390637	0.991307	0	0	85
30.096846	1.279600	city	7	1	1.421394	1.421394	0	1	0	0	CorrectCommission	0.534681	0.991640	0	0	85
31.376423	1.279555	city	4	1	1.231396	1.231396	0	1	0	0	CorrectCommission	0.414754	0.985779	0	0	85
32.662716	1.293031	city	5	1	1.043071	1.043071	0	1	0	0	CorrectCommission	1.355833	0.974150	0	0	85
33.949051	1.279639	city	9	1	1.189115	1.189115	0	1	0	0	CorrectCommission	0.626036	0.957359	0	0	85
35.228626	1.279511	city	7	1	0.961748	0.961748	0	1	0	0	CorrectCommission	1.762208	0.936148	0	0	85
36.508125	1.279488	city	8	1	1.139859	1.139859	0	1	0	0	CorrectCommission	0.872173	0.911241	0	0	85
37.814377	1.333015	city	1	1	1.151495	1.151495	0	1	0	0	CorrectCommission	0.814028	0.883393	0	0	85
39.127338	1.292908	city	2	1	1.100065	1.100065	0	1	0	0	CorrectCommission	1.071026	0.853340	0	0	85
40.426910	1.306240	city	3	1	1.172014	1.172014	0	1	0	0	CorrectCommission	0.711494	0.821822	0	0	85
41.719742	1.279423	city	5	1	1.247985	1.247985	0	1	0	0	CorrectCommission	0.331858	0.789618	1	0	85
42.999237	1.279561	city	4	1	1.142459	1.142459	0	1	0	0	CorrectCommission	0.859179	0.757558	1	0	85
44.278816	1.279599	city	7	1	1.089827	1.089827	0	1	0	0	CorrectCommission	1.122187	0.726500	1	0	85
45.571808	1.306388	city	3	1	1.221637	1.221637	0	1	0	0	CorrectCommission	0.463521	0.697323	1	0	85
46.864792	1.279577	city	4	1	1.088450	1.088450	0	1	0	0	CorrectCommission	1.129066	0.670882	1	0	85
48.144318	1.279476	city	6	1	1.380711	1.380711	0	1	0	0	CorrectCommission	0.331385	0.647887	1	0	85
49.430550	1.292990	city	10	1	1.217382	1.217382	0	1	0	0	CorrectCommission	0.484782	0.628848	1	0	85
53.869091	7.584094	break	0	0	0.000000	1.260711	0	0	0	0	ThoughtProbe	0.268264	0.613983	1	85	85
58.300903	1.279529	mountain	3	0	0.000000	1.374642	1	0	0	0	CorrectOmission	0.301057	0.603173	1	0	8.505882e+01
59.580456	1.279578	city	4	1	1.423119	1.423119	0	1	0	0	CorrectCommission	0.543300	0.596029	1	0	8.511765e+01
60.873451	1.306414	city	3	1	1.270086	1.270086	0	1	0	0	CorrectCommission	0.221416	0.592000	1	0	8.517647e+01
62.186615	1.319908	city	9	1	1.220365	1.220365	0	1	0	0	CorrectCommission	0.469879	0.590571	1	0	8.523529e+01
63.486191	1.279248	city	6	1	1.028263	1.028263	0	1	0	0	CorrectCommission	1.429827	0.591419	1	0	8.529412e+01
64.772240	1.292841	city	1	1	1.102311	1.102311	0	1	0	0	CorrectCommission	1.059805	0.594530	1	0	8.535294e+01
66.058456	1.279605	city	8	1	1.455666	1.455666	0	1	0	0	CorrectCommission	0.705938	0.600295	1	0	8.541176e+01
67.344711	1.292898	city	10	1	1.230940	1.230940	0	1	0	0	CorrectCommission	0.417035	0.609367	1	0	8.547059e+01
68.630875	1.279435	city	8	1	1.407452	1.407452	0	1	0	0	CorrectCommission	0.465013	0.622517	1	0	8.552941e+01
69.917099	1.293003	mountain	10	0	0.000000	1.339307	1	0	0	0	CorrectOmission	0.124485	0.640327	1	0	8.558824e+01
71.223404	1.319613	city	1	1	1.221006	1.221006	0	1	0	0	CorrectCommission	0.466677	0.662922	1	0	8.564706e+01
72.529686	1.292950	city	5	1	1.247050	1.247050	0	1	0	0	CorrectCommission	0.336530	0.689722	1	0	8.570588e+01
73.815948	1.279572	city	6	1	1.473738	1.473738	0	1	0	0	CorrectCommission	0.796247	0.719335	1	0	8.576471e+01
75.108833	1.306207	city	1	1	1.274059	1.274059	0	1	0	0	CorrectCommission	0.201563	0.749601	1	0	8.582353e+01
76.401657	1.279428	city	9	1	1.250099	1.250099	0	1	0	0	CorrectCommission	0.321293	0.777855	1	0	8.588235e+01
77.694580	1.306417	city	5	1	1.125641	1.125641	0	1	0	0	CorrectCommission	0.943223	0.801233	1	0	8.594118e+01
78.994156	1.292739	city	2	1	0.940754	0.940754	0	1	0	0	CorrectCommission	1.867119	0.817123	0	0	86
80.280388	1.279728	city	1	1	0.962792	0.962792	0	1	0	0	CorrectCommission	1.756991	0.823638	0	0	8.605882e+01
81.559990	1.279467	city	8	1	0.874582	0.874582	0	1	0	0	CorrectCommission	2.197786	0.819915	0	0	8.611765e+01
82.839554	1.279671	city	1	1	1.231857	1.231857	0	1	0	0	CorrectCommission	0.412451	0.806268	0	0	8.617647e+01
84.125870	1.292953	city	8	1	1.210310	1.210310	0	1	0	0	CorrectCommission	0.520123	0.784193	1	0	8.623529e+01
85.425446	1.306206	city	2	1	1.276921	1.276921	0	1	0	0	CorrectCommission	0.187265	0.756084	1	0	8.629412e+01
86.718346	1.279592	city	9	1	1.539801	1.539801	0	1	0	0	CorrectCommission	1.126371	0.724935	1	0	8.635294e+01
88.024597	1.332915	city	3	1	1.289649	1.289649	0	1	0	0	CorrectCommission	0.123659	0.693895	1	0	8.641176e+01
89.330811	1.279512	city	4	1	1.405005	1.405005	0	1	0	0	CorrectCommission	0.452785	0.665976	1	0	8.647059e+01
90.617043	1.292947	city	1	1	1.158259	1.158259	0	1	0	0	CorrectCommission	0.780227	0.643632	1	0	8.652941e+01
91.916634	1.306227	city	10	1	1.271321	1.271321	0	1	0	0	CorrectCommission	0.215245	0.628594	1	0	8.658824e+01
93.209541	1.279600	city	2	1	1.420335	1.420335	0	1	0	0	CorrectCommission	0.529389	0.621749	1	0	8.664706e+01
94.495804	1.292916	city	4	1	1.510124	1.510124	0	1	0	0	CorrectCommission	0.978069	0.623102	1	0	8.670588e+01
95.782005	1.279489	city	5	1	1.338305	1.338305	0	1	0	0	CorrectCommission	0.119480	0.631855	1	0	8.676471e+01
97.074913	1.306326	city	3	1	1.214571	1.214571	0	1	0	0	CorrectCommission	0.498829	0.646552	1	0	8.682353e+01
98.367859	1.279571	city	9	1	1.354237	1.354237	0	1	0	0	CorrectCommission	0.199090	0.665227	1	0	8.688235e+01
99.647423	1.279556	city	1	1	1.143078	1.143078	0	1	0	0	CorrectCommission	0.856087	0.685641	1	0	8.694118e+01
103.299561	6.024722	break	0	0	0.000000	1.102652	0	0	0	0	ThoughtProbe	1.058101	0.705525	1	87	87
106.951660	1.279471	mountain	5	0	0.000000	1.197413	1	0	0	0	CorrectOmission	0.584569	0.722833	1	0	8.676087e+01
108.231148	1.279506	city	1	1	1.391819	1.391819	0	1	0	0	CorrectCommission	0.386892	0.736014	1	0	8.652174e+01
109.524033	1.306262	mountain	4	0	0.000000	1.650325	1	0	0	0	CorrectOmission	1.678665	0.744123	1	0	8.628261e+01
110.817024	1.279717	city	8	1	1.666987	1.666987	0	1	0	0	CorrectCommission	1.761929	0.746890	1	0	8.604348e+01
112.103279	1.292795	city	2	1	1.135863	1.135863	0	1	0	0	CorrectCommission	0.892140	0.744692	1	0	8.580435e+01
113.409523	1.319692	city	10	1	1.198153	1.198153	0	1	0	0	CorrectCommission	0.580876	0.738417	1	0	8.556522e+01
114.715813	1.292894	mountain	6	0	0.000000	1.274575	1	0	0	0	CorrectOmission	0.198986	0.729181	1	0	8.532609e+01
116.001999	1.279476	city	1	1	1.320458	1.320458	0	1	0	0	CorrectCommission	0.030296	0.718118	1	0	8.508696e+01
117.328239	1.373003	city	3	1	1.291129	1.291129	0	1	0	0	CorrectCommission	0.116264	0.706125	1	0	8.484783e+01
118.654518	1.279563	city	7	1	1.573040	1.573040	0	1	0	0	CorrectCommission	1.292469	0.693719	1	0	8.460870e+01
119.940758	1.292906	city	8	1	1.430161	1.430161	0	1	0	0	CorrectCommission	0.578489	0.680980	1	0	8.436957e+01
121.226967	1.279514	city	4	1	1.626287	1.626287	0	1	0	0	CorrectCommission	1.558546	0.667701	1	0	8.413043e+01
122.513138	1.292833	city	2	1	1.435627	1.435627	0	1	0	0	CorrectCommission	0.605804	0.653442	1	0	8.389130e+01
123.812737	1.306361	city	7	1	1.337961	1.337961	0	1	0	0	CorrectCommission	0.117758	0.637810	1	0	8.365217e+01
125.112373	1.292907	city	4	1	1.430867	1.430867	0	1	0	0	CorrectCommission	0.582018	0.620578	1	0	8.341304e+01
126.398628	1.279605	city	9	1	1.475157	1.475157	0	1	0	0	CorrectCommission	0.803336	0.601841	1	0	8.317391e+01
127.691544	1.306228	city	2	1	1.079962	1.079962	0	1	0	0	CorrectCommission	1.171483	0.582104	1	0	8.293478e+01
129.004440	1.319571	city	5	1	1.220843	1.220843	0	1	0	0	CorrectCommission	0.467491	0.562324	1	0	8.269565e+01
130.330673	1.332889	city	3	1	1.213740	1.213740	0	1	0	0	CorrectCommission	0.502983	0.543844	1	0	8.245652e+01
131.656830	1.319426	city	2	1	1.325097	1.325097	0	1	0	0	CorrectCommission	0.053476	0.528255	1	0	8.221739e+01
132.956390	1.279687	city	3	1	1.461616	1.461616	0	1	0	0	CorrectCommission	0.735675	0.517245	1	0	8.197826e+01
134.235977	1.279505	city	1	1	1.343163	1.343163	0	1	0	0	CorrectCommission	0.143752	0.512404	1	0	8.173913e+01
135.522232	1.292995	city	6	1	1.439106	1.439106	0	1	0	0	CorrectCommission	0.623190	0.515072	1	0	8.150000e+01
136.815201	1.292936	city	2	1	1.380924	1.380924	0	1	0	0	CorrectCommission	0.332450	0.526120	1	0	8.126087e+01
138.108047	1.292753	city	6	1	1.318012	1.318012	0	1	0	0	CorrectCommission	0.018073	0.545857	1	0	8.102174e+01
139.414276	1.319725	city	9	1	1.356063	1.356063	0	1	0	0	CorrectCommission	0.208217	0.573946	1	0	8.078261e+01
140.720596	1.292895	city	3	1	1.211070	1.211070	0	1	0	0	CorrectCommission	0.516327	0.609413	1	0	8.054348e+01
142.020172	1.306269	city	10	1	1.141167	1.141167	0	1	0	0	CorrectCommission	0.865637	0.650683	1	0	8.030435e+01
143.319748	1.292868	city	6	1	1.205763	1.205763	0	1	0	0	CorrectCommission	0.542843	0.695710	1	0	8.006522e+01
144.625961	1.319575	city	5	1	1.132734	1.132734	0	1	0	0	CorrectCommission	0.907777	0.742106	1	0	7.982609e+01
145.925552	1.279589	city	3	1	1.133961	1.133961	0	1	0	0	CorrectCommission	0.901644	0.787304	1	0	7.958696e+01
147.205139	1.279580	mountain	6	0	0.000000	1.430109	1	0	0	0	CorrectOmission	0.578229	0.828722	0	0	7.934783e+01
148.497986	1.306122	city	7	1	1.649634	1.649634	0	1	0	0	CorrectCommission	1.675215	0.864005	0	0	7.910870e+01
149.797546	1.293004	city	4	1	1.420995	1.420995	0	1	0	0	CorrectCommission	0.532685	0.891148	0	0	7.886957e+01
151.097092	1.306102	city	1	1	1.135381	1.135381	0	1	0	0	CorrectCommission	0.894549	0.908746	0	0	7.863043e+01
152.403336	1.306376	city	10	1	1.100510	1.100510	0	1	0	0	CorrectCommission	1.068802	0.916086	0	0	7.839130e+01
153.696274	1.279493	city	6	0	0.000000	0.965434	0	0	0	1	OmissionError	1.743788	0.913237	0	0	7.815217e+01
154.989182	1.306340	city	10	1	0.999502	0.999502	0	1	0	0	CorrectCommission	1.573550	0.901075	0	0	7.791304e+01
156.282089	1.279465	city	6	1	1.472062	1.472062	0	1	0	0	CorrectCommission	0.787874	0.881266	0	0	7.767391e+01
157.568314	1.292989	city	4	1	1.258425	1.258425	0	1	0	0	CorrectCommission	0.279687	0.856085	0	0	7.743478e+01
158.881226	1.332835	city	1	1	1.045695	1.045695	0	1	0	0	CorrectCommission	1.342716	0.828147	0	0	7.719565e+01
160.200729	1.306171	city	4	1	1.525108	1.525108	0	1	0	0	CorrectCommission	1.052950	0.800151	1	0	7.695652e+01
161.493591	1.279545	city	3	1	1.262821	1.262821	0	1	0	0	CorrectCommission	0.257724	0.774574	1	0	7.671739e+01
162.773254	1.279766	city	5	1	1.405555	1.405555	0	1	0	0	CorrectCommission	0.455531	0.753429	1	0	7.647826e+01
164.059570	1.292890	city	10	1	1.319583	1.319583	0	1	0	0	CorrectCommission	0.025924	0.738082	1	0	7.623913e+01
164.706024	9.330134	break	0	0	0.000000	1.374181	0	0	0	0	ThoughtProbe	0.298755	0.729190	1	76	76
174.689331	1.306360	city	1	1	1.345076	1.345076	0	1	0	0	CorrectCommission	0.153311	0.726840	1	0	7.593478e+01
176.002289	1.319538	city	7	1	1.007992	1.007992	0	1	0	0	CorrectCommission	1.531122	0.730749	1	0	7.586957e+01
177.308472	1.292850	city	4	1	1.071739	1.071739	0	1	0	0	CorrectCommission	1.212572	0.740486	1	0	7.580435e+01
178.608017	1.306236	city	10	1	1.049450	1.049450	0	1	0	0	CorrectCommission	1.323953	0.755734	1	0	7.573913e+01
179.914368	1.306450	city	6	1	1.383024	1.383024	0	1	0	0	CorrectCommission	0.342943	0.776461	1	0	7.567391e+01
181.227280	1.319372	city	7	1	1.231624	1.231624	0	1	0	0	CorrectCommission	0.413614	0.802948	1	0	7.560870e+01
182.533463	1.293003	mountain	9	1	1.076657	1.076657	0	0	1	0	CommissionError	1.187999	0.835650	0	0	7.554348e+01
183.826401	1.292873	city	8	1	1.257973	1.257973	0	1	0	0	CorrectCommission	0.281948	0.875000	0	0	7.547826e+01
185.125900	1.306113	city	2	1	1.115109	1.115109	0	1	0	0	CorrectCommission	0.995852	0.921149	0	0	7.541304e+01
186.418747	1.279580	city	5	1	1.243636	1.243636	0	1	0	0	CorrectCommission	0.353589	0.973651	0	0	7.534783e+01
187.698395	1.279736	city	10	1	1.249870	1.249870	0	1	0	0	CorrectCommission	0.322438	1.031297	0	0	7.528261e+01
188.991302	1.306069	city	9	1	1.674127	1.674127	0	1	0	0	CorrectCommission	1.797608	1.091977	0	0	7.521739e+01
190.290863	1.293069	city	2	1	1.090659	1.090659	0	1	0	0	CorrectCommission	1.118030	1.152741	0	0	7.515217e+01
191.577209	1.279614	city	3	1	1.319653	1.319653	0	1	0	0	CorrectCommission	0.026273	1.210090	0	0	7.508696e+01
192.890076	1.346102	city	2	1	1.724715	1.724715	0	1	0	0	CorrectCommission	2.050403	1.260284	0	0	7.502174e+01
194.202942	1.279650	mountain	9	0	0.000000	1.729596	1	0	0	0	CorrectOmission	2.074792	1.299698	0	0	7.495652e+01
195.482498	1.279440	city	1	1	1.683976	1.683976	0	1	0	0	CorrectCommission	1.846824	1.325317	0	0	7.489130e+01
196.768661	1.292902	city	4	1	1.937535	1.937535	0	1	0	0	CorrectCommission	3.113882	1.335086	0	0	7.482609e+01
198.074982	1.319748	city	9	1	1.267387	1.267387	0	1	0	0	CorrectCommission	0.234907	1.328135	0	0	7.476087e+01
199.381256	1.292778	mountain	7	0	0.000000	1.518211	1	0	0	0	CorrectOmission	1.018481	1.304963	0	0	7.469565e+01
200.667435	1.279588	city	5	1	1.702365	1.702365	0	1	0	0	CorrectCommission	1.938717	1.267296	0	0	7.463043e+01
201.966965	1.319488	city	2	1	0.832209	0.832209	0	1	0	0	CorrectCommission	2.409524	1.217928	0	0	7.456522e+01
203.266586	1.279754	city	10	1	1.177035	1.177035	0	1	0	0	CorrectCommission	0.686402	1.160485	0	0	7.450000e+01
204.546265	1.279591	city	6	1	1.556838	1.556838	0	1	0	0	CorrectCommission	1.211505	1.099090	0	0	7.443478e+01
205.825836	1.279558	city	4	1	1.477446	1.477446	0	1	0	0	CorrectCommission	0.814775	1.037944	0	0	7.436957e+01
207.105331	1.279436	mountain	5	0	0.000000	1.357374	1	0	0	0	CorrectOmission	0.214767	0.981004	0	0	7.430435e+01
208.384750	1.279404	city	1	1	1.236905	1.236905	0	1	0	0	CorrectCommission	0.387226	0.931709	0	0	7.423913e+01
209.677750	1.306573	city	10	1	1.156320	1.156320	0	1	0	0	CorrectCommission	0.789916	0.892738	0	0	7.417391e+01
210.970795	1.279525	city	7	1	1.486336	1.486336	0	1	0	0	CorrectCommission	0.859203	0.865863	0	0	7.410870e+01
212.283600	1.346090	city	8	1	1.058954	1.058954	0	1	0	0	CorrectCommission	1.276461	0.851932	0	0	7.404348e+01
213.596436	1.279586	city	3	1	1.332223	1.332223	0	1	0	0	CorrectCommission	0.089087	0.850847	0	0	7.397826e+01
214.882782	1.293091	city	10	1	1.450294	1.450294	0	1	0	0	CorrectCommission	0.679097	0.861733	0	0	7.391304e+01
216.175766	1.292891	city	4	1	1.485205	1.485205	0	1	0	0	CorrectCommission	0.853548	0.882944	0	0	7.384783e+01
217.482010	1.319578	city	8	1	1.191122	1.191122	0	1	0	0	CorrectCommission	0.616009	0.912262	0	0	7.378261e+01
218.801575	1.319551	city	3	1	1.218647	1.218647	0	1	0	0	CorrectCommission	0.478464	0.947109	0	0	7.371739e+01
220.107727	1.292767	city	5	1	1.171272	1.171272	0	1	0	0	CorrectCommission	0.715198	0.984777	0	0	7.365217e+01
221.407211	1.306205	city	7	1	1.063227	1.063227	0	1	0	0	CorrectCommission	1.255108	1.022627	0	0	7.358696e+01
222.713486	1.306342	city	8	1	0.931552	0.931552	0	1	0	0	CorrectCommission	1.913103	1.058341	0	0	7.352174e+01
224.033142	1.332976	city	6	1	1.043478	1.043478	0	1	0	0	CorrectCommission	1.353797	1.090132	0	0	7.345652e+01
225.346069	1.292874	city	5	1	0.871208	0.871208	0	1	0	0	CorrectCommission	2.214646	1.116843	0	0	7.339130e+01
226.645645	1.306274	city	3	1	1.167442	1.167442	0	1	0	0	CorrectCommission	0.734339	1.137962	0	0	7.332609e+01
227.938522	1.279489	city	5	1	1.420991	1.420991	0	1	0	0	CorrectCommission	0.532665	1.153569	0	0	7.326087e+01
229.231415	1.306295	city	2	1	1.131241	1.131241	0	1	0	0	CorrectCommission	0.915239	1.164100	0	0	7.319565e+01
230.531021	1.292916	city	3	1	1.612146	1.612146	0	1	0	0	CorrectCommission	1.487885	1.170164	0	0	7.313043e+01
231.830658	1.306336	city	4	1	1.471641	1.471641	0	1	0	0	CorrectCommission	0.785767	1.172430	0	0	7.306522e+01
235.262772	5.557920	break	0	0	0.000000	1.542842	0	0	0	0	ThoughtProbe	1.141568	1.171436	0	73	73
238.681610	1.279735	mountain	2	0	0.000000	1.672901	1	0	0	0	CorrectOmission	1.791484	1.167491	0	0	7.302500e+01
239.961197	1.279454	city	2	1	1.708968	1.708968	0	1	0	0	CorrectCommission	1.971711	1.160656	0	0	7.305000e+01
241.240616	1.279365	city	4	1	1.498192	1.498192	0	1	0	0	CorrectCommission	0.918444	1.150745	0	0	7.307500e+01
242.566895	1.373216	city	6	1	1.337884	1.337884	0	1	0	0	CorrectCommission	0.117373	1.137369	0	0	7.310000e+01
243.899994	1.292959	city	7	1	0.993470	0.993470	0	1	0	0	CorrectCommission	1.603693	1.119981	0	0	7.312500e+01
245.192856	1.292766	mountain	1	0	0.000000	1.178794	1	0	0	0	CorrectOmission	0.677612	1.097940	0	0	7.315000e+01
246.479080	1.279689	city	10	1	1.507971	1.507971	0	1	0	0	CorrectCommission	0.967311	1.070810	0	0	7.317500e+01
247.758636	1.279413	city	4	1	1.595113	1.595113	0	1	0	0	CorrectCommission	1.402769	1.038400	0	0	7.320000e+01
249.051544	1.306401	city	9	1	0.991845	0.991845	0	1	0	0	CorrectCommission	1.611813	1.000984	0	0	7.322500e+01
250.384521	1.359564	city	2	1	0.907853	0.907853	0	1	0	0	CorrectCommission	2.031524	0.959403	0	0	7.325000e+01
251.704086	1.279557	city	4	1	1.483166	1.483166	0	1	0	0	CorrectCommission	0.843358	0.915075	0	0	7.327500e+01
253.010269	1.332810	city	3	1	1.214366	1.214366	0	1	0	0	CorrectCommission	0.499856	0.869922	0	0	7.330000e+01
254.323120	1.292915	city	4	1	1.407502	1.407502	0	1	0	0	CorrectCommission	0.465258	0.826124	0	0	7.332500e+01
255.622650	1.306146	city	6	1	1.337359	1.337359	0	1	0	0	CorrectCommission	0.114748	0.785881	1	0	7.335000e+01
256.922272	1.293090	city	9	1	1.153748	1.153748	0	1	0	0	CorrectCommission	0.802767	0.751151	1	0	7.337500e+01
258.221924	1.306201	city	4	1	1.463111	1.463111	0	1	0	0	CorrectCommission	0.743143	0.723389	1	0	7.340000e+01
259.534821	1.319580	city	6	1	1.284067	1.284067	0	1	0	0	CorrectCommission	0.151556	0.703427	1	0	7.342500e+01
260.834503	1.279832	city	10	1	1.071159	1.071159	0	1	0	0	CorrectCommission	1.215471	0.691403	1	0	7.345000e+01
262.127350	1.305850	city	3	1	1.323253	1.323253	0	1	0	0	CorrectCommission	0.044260	0.686754	1	0	7.347500e+01
263.426819	1.293046	city	10	1	1.302701	1.302701	0	1	0	0	CorrectCommission	0.058438	0.688416	1	0	7.350000e+01
264.713104	1.279568	city	7	1	1.462493	1.462493	0	1	0	0	CorrectCommission	0.740056	0.694942	1	0	7.352500e+01
266.006042	1.306274	mountain	7	0	0.000000	1.609710	1	0	0	0	CorrectOmission	1.475712	0.704701	1	0	7.355000e+01
267.298950	1.279564	city	4	1	1.570841	1.570841	0	1	0	0	CorrectCommission	1.281477	0.716087	1	0	7.357500e+01
268.598450	1.319452	city	3	1	1.172373	1.172373	0	1	0	0	CorrectCommission	0.709697	0.727675	1	0	7.360000e+01
269.897980	1.279572	city	10	1	1.311074	1.311074	0	1	0	0	CorrectCommission	0.016597	0.738321	1	0	7.362500e+01
271.190857	1.306206	city	8	1	1.511879	1.511879	0	1	0	0	CorrectCommission	0.986839	0.747197	1	0	7.365000e+01
272.497162	1.306401	city	9	1	1.386582	1.386582	0	1	0	0	CorrectCommission	0.360722	0.753697	1	0	7.367500e+01
273.836761	1.372794	city	8	1	1.513579	1.513579	0	1	0	0	CorrectCommission	0.995335	0.757521	1	0	7.370000e+01
275.176270	1.306190	city	5	1	1.156915	1.156915	0	1	0	0	CorrectCommission	0.786942	0.758511	1	0	7.372500e+01
276.469208	1.279697	city	10	1	1.051486	1.051486	0	1	0	0	CorrectCommission	1.313780	0.756653	1	0	7.375000e+01
277.762146	1.306208	city	8	1	1.507358	1.507358	0	1	0	0	CorrectCommission	0.964250	0.752010	1	0	7.377500e+01
279.054993	1.279463	city	6	1	1.191442	1.191442	0	1	0	0	CorrectCommission	0.614408	0.744701	1	0	7.380000e+01
280.381165	1.372900	city	3	1	1.151303	1.151303	0	1	0	0	CorrectCommission	0.814989	0.734883	1	0	7.382500e+01
281.727386	1.319518	city	4	1	1.308112	1.308112	0	1	0	0	CorrectCommission	0.031402	0.722706	1	0	7.385000e+01
283.040344	1.306431	city	10	1	1.113501	1.113501	0	1	0	0	CorrectCommission	1.003889	0.708354	1	0	7.387500e+01
284.333344	1.279555	city	3	1	1.211783	1.211783	0	1	0	0	CorrectCommission	0.512764	0.692065	1	0	7.390000e+01
285.619598	1.292927	city	9	1	1.255148	1.255148	0	1	0	0	CorrectCommission	0.296064	0.674216	1	0	7.392500e+01
286.932495	1.332868	city	4	1	1.537072	1.537072	0	1	0	0	CorrectCommission	1.112733	0.655405	1	0	7.395000e+01
288.258636	1.319415	city	5	1	1.004517	1.004517	0	1	0	0	CorrectCommission	1.548487	0.636457	1	0	7.397500e+01
292.303894	6.771118	break	0	0	0.000000	1.091746	0	0	0	0	ThoughtProbe	1.112597	0.618440	1	74	74
296.342560	1.306215	city	9	1	1.350519	1.350519	0	1	0	0	CorrectCommission	0.180511	0.602580	1	0	7.447059e+01
297.655548	1.319753	mountain	6	1	1.332595	1.332595	0	0	1	0	CommissionError	0.090944	0.590115	1	0	7.494118e+01
298.961792	1.292738	city	5	1	1.328858	1.328858	0	1	0	0	CorrectCommission	0.072269	0.582066	1	0	7.541176e+01
300.254700	1.293055	city	1	1	1.307324	1.307324	0	1	0	0	CorrectCommission	0.035336	0.579088	1	0	7.588235e+01
301.560913	1.319408	city	3	1	1.346559	1.346559	0	1	0	0	CorrectCommission	0.160724	0.581394	1	0	7.635294e+01
302.860443	1.279618	city	9	1	1.419289	1.419289	0	1	0	0	CorrectCommission	0.524160	0.588742	1	0	7.682353e+01
304.160095	1.319696	city	1	1	1.008270	1.008270	0	1	0	0	CorrectCommission	1.529736	0.600543	1	0	7.729412e+01
305.472961	1.306066	city	2	1	1.161581	1.161581	0	1	0	0	CorrectCommission	0.763626	0.615973	1	0	7.776471e+01
306.772491	1.292972	city	8	1	1.413878	1.413878	0	1	0	0	CorrectCommission	0.497124	0.634224	1	0	7.823529e+01
308.058807	1.279698	city	5	1	1.395153	1.395153	0	1	0	0	CorrectCommission	0.403550	0.654550	1	0	7.870588e+01
309.358398	1.319442	city	2	1	1.164618	1.164618	0	1	0	0	CorrectCommission	0.748452	0.676396	1	0	7.917647e+01
310.657959	1.279681	city	9	1	1.514839	1.514839	0	1	0	0	CorrectCommission	1.001631	0.699362	1	0	7.964706e+01
311.944153	1.292733	city	6	1	1.438277	1.438277	0	1	0	0	CorrectCommission	0.619044	0.723137	1	0	8.011765e+01
313.243652	1.306256	city	1	1	1.262667	1.262667	0	1	0	0	CorrectCommission	0.258493	0.747402	1	0	8.058824e+01
314.536652	1.279744	city	3	1	1.074503	1.074503	0	1	0	0	CorrectCommission	1.198762	0.771687	1	0	8.105882e+01
315.816223	1.279404	city	2	1	1.229984	1.229984	0	1	0	0	CorrectCommission	0.421812	0.795255	1	0	8.152941e+01
317.109131	1.306376	city	3	1	1.513441	1.513441	0	1	0	0	CorrectCommission	0.994648	0.817075	0	0	82
318.415344	1.306095	city	9	1	1.292003	1.292003	0	1	0	0	CorrectCommission	0.111895	0.835863	0	0	8.247059e+01
319.714935	1.293060	city	2	1	1.030456	1.030456	0	1	0	0	CorrectCommission	1.418867	0.850253	0	0	8.294118e+01
321.001251	1.279588	city	7	1	1.442677	1.442677	0	1	0	0	CorrectCommission	0.641031	0.858915	0	0	8.341176e+01
322.307495	1.332894	city	6	1	1.639870	1.639870	0	1	0	0	CorrectCommission	1.626423	0.860879	0	0	8.388235e+01
323.620361	1.292857	mountain	9	0	0.000000	1.616965	1	0	0	0	CorrectOmission	1.511965	0.855715	0	0	8.435294e+01
324.913300	1.292969	city	3	1	1.520582	1.520582	0	1	0	0	CorrectCommission	1.030330	0.843741	0	0	8.482353e+01
326.212891	1.306243	city	6	1	1.497340	1.497340	0	1	0	0	CorrectCommission	0.914188	0.826078	0	0	8.529412e+01
327.525787	1.319553	city	7	1	1.235135	1.235135	0	1	0	0	CorrectCommission	0.396073	0.804596	0	0	8.576471e+01
328.825348	1.279570	city	8	1	1.199086	1.199086	0	1	0	0	CorrectCommission	0.576211	0.781743	1	0	8.623529e+01
330.104858	1.279425	city	4	1	1.122351	1.122351	0	1	0	0	CorrectCommission	0.959664	0.760271	1	0	8.670588e+01
331.411102	1.333066	city	5	1	1.076630	1.076630	0	1	0	0	CorrectCommission	1.188135	0.742914	1	0	8.717647e+01
332.717438	1.279594	city	3	1	1.300200	1.300200	0	1	0	0	CorrectCommission	0.070934	0.732062	1	0	8.764706e+01
334.010345	1.306238	city	5	1	1.224080	1.224080	0	1	0	0	CorrectCommission	0.451315	0.729470	1	0	8.811765e+01
335.316498	1.306055	city	10	1	1.205896	1.205896	0	1	0	0	CorrectCommission	0.542183	0.735945	1	0	8.858824e+01
336.609406	1.279755	city	1	1	1.313264	1.313264	0	1	0	0	CorrectCommission	0.005654	0.751254	1	0	8.905882e+01
337.902374	1.306211	city	2	1	1.336841	1.336841	0	1	0	0	CorrectCommission	0.112161	0.774159	1	0	8.952941e+01
341.987579	6.864213	break	0	0	0.000000	1.529969	0	0	0	0	ThoughtProbe	1.077237	0.802509	1	90	90
346.086273	1.333142	city	6	1	1.601802	1.601802	0	1	0	0	CorrectCommission	1.436194	0.833541	0	0	8.985294e+01
347.425934	1.346200	city	3	1	1.261495	1.261495	0	1	0	0	CorrectCommission	0.264346	0.864300	0	0	8.970588e+01
348.752167	1.306234	city	7	1	1.031198	1.031198	0	1	0	0	CorrectCommission	1.415163	0.891991	0	0	8.955882e+01
350.071655	1.332748	city	4	1	1.644066	1.644066	0	1	0	0	CorrectCommission	1.647391	0.914311	0	0	8.941176e+01
351.391205	1.306391	city	2	1	1.029092	1.029092	0	1	0	0	CorrectCommission	1.425686	0.929742	0	0	8.926471e+01
352.710815	1.332841	city	5	1	1.154468	1.154468	0	1	0	0	CorrectCommission	0.799172	0.937698	0	0	8.911765e+01
354.036987	1.319475	city	3	1	1.061748	1.061748	0	1	0	0	CorrectCommission	1.262501	0.938468	0	0	8.897059e+01
355.349823	1.306198	city	10	1	1.167024	1.167024	0	1	0	0	CorrectCommission	0.736428	0.933095	0	0	8.882353e+01
356.649475	1.293087	mountain	3	0	0.000000	1.464094	1	0	0	0	CorrectOmission	0.748054	0.923134	0	0	8.867647e+01
357.935791	1.279582	city	8	1	1.603750	1.603750	0	1	0	0	CorrectCommission	1.445929	0.910359	0	0	8.852941e+01
359.261932	1.372696	city	1	1	1.236786	1.236786	0	1	0	0	CorrectCommission	0.387819	0.896479	0	0	8.838235e+01
360.594788	1.292980	city	10	1	1.241551	1.241551	0	1	0	0	CorrectCommission	0.364008	0.882940	0	0	8.823529e+01
361.881104	1.279697	city	1	1	1.327719	1.327719	0	1	0	0	CorrectCommission	0.066578	0.870736	0	0	8.808824e+01
363.180756	1.319568	city	7	1	1.673337	1.673337	0	1	0	0	CorrectCommission	1.793659	0.860350	0	0	8.794118e+01
364.493561	1.306055	city	9	1	1.638583	1.638583	0	1	0	0	CorrectCommission	1.619989	0.851723	0	0	8.779412e+01
365.806396	1.319597	city	4	1	1.160198	1.160198	0	1	0	0	CorrectCommission	0.770537	0.844392	0	0	8.764706e+01
367.112610	1.292869	mountain	5	0	0.000000	1.293394	1	0	0	0	CorrectOmission	0.104947	0.837621	0	0	8.750000e+01
368.405579	1.293062	city	5	1	1.528193	1.528193	0	1	0	0	CorrectCommission	1.068365	0.830494	0	0	8.735294e+01
369.738495	1.372728	city	7	1	1.354620	1.354620	0	1	0	0	CorrectCommission	0.201005	0.822038	0	0	8.720588e+01
371.098053	1.346407	city	4	1	1.257405	1.257405	0	1	0	0	CorrectCommission	0.284787	0.811528	0	0	8.705882e+01
372.430969	1.319437	city	8	1	0.953459	0.953459	0	1	0	0	CorrectCommission	1.803629	0.798566	1	0	8.691176e+01
373.743835	1.306279	city	3	1	1.040178	1.040178	0	1	0	0	CorrectCommission	1.370289	0.783218	1	0	8.676471e+01
375.043457	1.292976	city	10	1	1.102362	1.102362	0	1	0	0	CorrectCommission	1.059549	0.766171	1	0	8.661765e+01
376.336304	1.292738	city	8	1	1.539281	1.539281	0	1	0	0	CorrectCommission	1.123769	0.748690	1	0	8.647059e+01
377.649231	1.333087	city	5	1	1.213830	1.213830	0	1	0	0	CorrectCommission	0.502533	0.732453	1	0	8.632353e+01
378.955475	1.279407	city	8	1	1.284117	1.284117	0	1	0	0	CorrectCommission	0.151306	0.719374	1	0	8.617647e+01
380.241699	1.293054	city	7	1	1.388897	1.388897	0	1	0	0	CorrectCommission	0.372288	0.711291	1	0	8.602941e+01
381.534607	1.292747	city	1	1	1.262445	1.262445	0	1	0	0	CorrectCommission	0.259601	0.709711	1	0	8.588235e+01
382.820862	1.279746	city	7	1	1.407044	1.407044	0	1	0	0	CorrectCommission	0.462971	0.715541	1	0	8.573529e+01
384.120422	1.319395	city	3	1	1.164557	1.164557	0	1	0	0	CorrectCommission	0.748757	0.729012	1	0	8.558824e+01
385.426605	1.292957	city	4	1	1.401226	1.401226	0	1	0	0	CorrectCommission	0.433897	0.749643	1	0	8.544118e+01
386.752899	1.359673	city	2	1	1.104737	1.104737	0	1	0	0	CorrectCommission	1.047683	0.776345	1	0	8.529412e+01
388.079132	1.292765	city	3	1	1.450277	1.450277	0	1	0	0	CorrectCommission	0.679013	0.807577	0	0	8.514706e+01
388.725525	8.210713	break	0	0	0.000000	1.451243	0	0	0	0	ThoughtProbe	0.683836	0.841611	0	85	85
397.595978	1.319497	city	1	1	1.427679	1.427679	0	1	0	0	CorrectCommission	0.566088	0.876685	0	0	8.497500e+01
398.922241	1.333038	mountain	7	1	1.699634	1.699634	0	0	1	0	CommissionError	1.925068	0.911177	0	0	8.495000e+01
400.248535	1.319559	city	6	1	1.643747	1.643747	0	1	0	0	CorrectCommission	1.645797	0.943691	0	0	8.492500e+01
401.554688	1.292758	city	4	1	1.264673	1.264673	0	1	0	0	CorrectCommission	0.248468	0.973173	0	0	8.490000e+01
402.854218	1.306252	city	2	1	1.061262	1.061262	0	1	0	0	CorrectCommission	1.264930	0.998870	0	0	8.487500e+01
404.167175	1.319706	city	1	1	1.176320	1.176320	0	1	0	0	CorrectCommission	0.689976	1.020209	0	0	8.485000e+01
405.466736	1.279414	mountain	7	0	0.000000	1.397922	1	0	0	0	CorrectOmission	0.417387	1.036854	0	0	8.482500e+01
406.759583	1.306253	city	8	1	1.574081	1.574081	0	1	0	0	CorrectCommission	1.297670	1.048700	0	0	8.480000e+01
408.079132	1.332882	city	9	1	1.552811	1.552811	0	1	0	0	CorrectCommission	1.191381	1.055878	0	0	8.477500e+01
409.405365	1.319551	city	6	1	1.029258	1.029258	0	1	0	0	CorrectCommission	1.424857	1.058901	0	0	8.475000e+01
410.711609	1.292952	city	1	1	0.962677	0.962677	0	1	0	0	CorrectCommission	1.757566	1.058663	0	0	8.472500e+01
412.011261	1.306364	city	5	1	1.581729	1.581729	0	1	0	0	CorrectCommission	1.335885	1.056414	0	0	8.470000e+01
413.310822	1.292737	city	1	1	0.970736	0.970736	0	1	0	0	CorrectCommission	1.717296	1.053681	0	0	8.467500e+01
414.623627	1.332889	city	3	1	1.301457	1.301457	0	1	0	0	CorrectCommission	0.064653	1.051975	0	0	8.465000e+01
415.949921	1.319682	city	10	1	1.439252	1.439252	0	1	0	0	CorrectCommission	0.623920	1.052536	0	0	8.462500e+01
417.262939	1.306330	city	2	1	1.409732	1.409732	0	1	0	0	CorrectCommission	0.476406	1.055969	0	0	8.460000e+01
418.595856	1.359512	city	9	1	1.513778	1.513778	0	1	0	0	CorrectCommission	0.996329	1.062056	0	0	8.457500e+01
419.955383	1.359535	city	5	1	1.233155	1.233155	0	1	0	0	CorrectCommission	0.405964	1.069683	0	0	8.455000e+01
421.288269	1.306259	city	1	1	0.956298	0.956298	0	1	0	0	CorrectCommission	1.789441	1.076969	0	0	8.452500e+01
422.621155	1.359491	city	10	1	1.156626	1.156626	0	1	0	0	CorrectCommission	0.788388	1.081464	0	0	8.450000e+01
423.954041	1.306299	city	4	1	1.542282	1.542282	0	1	0	0	CorrectCommission	1.138768	1.080714	0	0	8.447500e+01
425.260315	1.306244	city	5	1	1.562733	1.562733	0	1	0	0	CorrectCommission	1.240961	1.072637	0	0	8.445000e+01
426.566559	1.306242	mountain	3	0	0.000000	1.758237	1	0	0	0	CorrectOmission	2.217912	1.056040	0	0	8.442500e+01
427.859406	1.279463	city	4	1	1.693760	1.693760	0	1	0	0	CorrectCommission	1.895716	1.030890	0	0	8.440000e+01
429.152313	1.306357	city	8	1	0.934268	0.934268	0	1	0	0	CorrectCommission	1.899531	0.998487	0	0	8.437500e+01
430.458557	1.306148	city	2	1	1.254113	1.254113	0	1	0	0	CorrectCommission	0.301237	0.961326	0	0	8.435000e+01
431.764801	1.306311	city	3	1	1.368784	1.368784	0	1	0	0	CorrectCommission	0.271782	0.922763	0	0	8.432500e+01
433.091064	1.346224	city	1	1	1.431636	1.431636	0	1	0	0	CorrectCommission	0.585859	0.886480	0	0	8.430000e+01
434.417297	1.306241	city	9	1	1.479072	1.479072	0	1	0	0	CorrectCommission	0.822902	0.855927	0	0	8.427500e+01
435.783508	1.426195	city	1	1	1.335962	1.335962	0	1	0	0	CorrectCommission	0.107770	0.833804	0	0	8.425000e+01
437.169647	1.346051	city	5	1	1.314707	1.314707	0	1	0	0	CorrectCommission	0.001557	0.821684	0	0	8.422500e+01
438.495819	1.306289	city	7	1	1.092636	1.092636	0	1	0	0	CorrectCommission	1.108151	0.819774	0	0	8.420000e+01
439.802124	1.306368	city	8	1	1.084701	1.084701	0	1	0	0	CorrectCommission	1.147801	0.826893	0	0	8.417500e+01
441.101685	1.292739	city	5	1	1.210228	1.210228	0	1	0	0	CorrectCommission	0.520533	0.840728	0	0	8.415000e+01
442.394470	1.292816	city	10	1	1.249083	1.249083	0	1	0	0	CorrectCommission	0.326370	0.858193	0	0	8.412500e+01
443.680695	1.279622	city	1	1	1.322860	1.322860	0	1	0	0	CorrectCommission	0.042298	0.875918	0	0	8.410000e+01
444.973633	1.306291	city	4	1	1.670125	1.670125	0	1	0	0	CorrectCommission	1.777611	0.890736	0	0	8.407500e+01
446.273315	1.293071	city	5	1	0.866750	0.866750	0	1	0	0	CorrectCommission	2.236919	0.900111	0	0	8.405000e+01
447.559631	1.279573	city	1	1	1.554448	1.554448	0	1	0	0	CorrectCommission	1.199562	0.902536	0	0	8.402500e+01
451.271667	6.144474	break	0	0	0.000000	1.668177	0	0	0	0	ThoughtProbe	1.767874	0.897640	0	84	84
454.997101	1.306399	city	4	1	1.476927	1.476927	0	1	0	0	CorrectCommission	0.812185	0.886059	0	0	8.408696e+01
456.343323	1.386040	city	8	1	1.249691	1.249691	0	1	0	0	CorrectCommission	0.323335	0.869270	0	0	8.417391e+01
457.682892	1.293084	city	5	1	1.175882	1.175882	0	1	0	0	CorrectCommission	0.692163	0.849138	0	0	8.426087e+01
458.989166	1.319486	city	7	1	1.234834	1.234834	0	1	0	0	CorrectCommission	0.397575	0.827547	0	0	8.434783e+01
460.335388	1.372971	city	3	1	1.240110	1.240110	0	1	0	0	CorrectCommission	0.371211	0.806042	0	0	8.443478e+01
461.661591	1.279421	mountain	2	0	0.000000	1.418509	1	0	0	0	CorrectOmission	0.520262	0.785625	1	0	8.452174e+01
462.947784	1.292941	city	7	1	1.535852	1.535852	0	1	0	0	CorrectCommission	1.106637	0.766757	1	0	8.460870e+01
464.247345	1.306190	city	8	1	1.357962	1.357962	0	1	0	0	CorrectCommission	0.217706	0.749487	1	0	8.469565e+01
465.553558	1.306230	mountain	8	0	0.000000	1.525911	1	0	0	0	CorrectOmission	1.056962	0.733730	1	0	8.478261e+01
466.846558	1.279770	city	10	1	1.564727	1.564727	0	1	0	0	CorrectCommission	1.250928	0.719471	1	0	8.486957e+01
468.146118	1.319377	mountain	4	1	0.999438	0.999438	0	0	1	0	CommissionError	1.573869	0.707025	1	0	8.495652e+01
469.445618	1.279631	city	6	1	1.515837	1.515837	0	1	0	0	CorrectCommission	1.006622	0.697132	1	0	8.504348e+01
470.738586	1.306291	city	10	1	1.341609	1.341609	0	1	0	0	CorrectCommission	0.135988	0.690906	1	0	8.513043e+01
472.038208	1.292964	city	7	0	0.000000	1.285542	0	0	0	1	OmissionError	0.144183	0.689630	1	0	8.521739e+01
473.324493	1.279586	city	3	1	1.297182	1.297182	0	1	0	0	CorrectCommission	0.086020	0.694428	1	0	8.530435e+01
474.657349	1.386118	city	1	1	1.326072	1.326072	0	1	0	0	CorrectCommission	0.058348	0.706031	1	0	8.539130e+01
475.990173	1.279522	city	10	1	1.386337	1.386337	0	1	0	0	CorrectCommission	0.359500	0.724519	1	0	8.547826e+01
477.296417	1.332974	city	9	1	1.681592	1.681592	0	1	0	0	CorrectCommission	1.834912	0.749213	1	0	8.556522e+01
478.609375	1.292984	city	5	1	1.364458	1.364458	0	1	0	0	CorrectCommission	0.250165	0.778668	1	0	8.565217e+01
479.942291	1.372827	city	4	1	1.199258	1.199258	0	1	0	0	CorrectCommission	0.575352	0.810889	0	0	8.573913e+01
481.301788	1.346170	city	2	1	1.111405	1.111405	0	1	0	0	CorrectCommission	1.014361	0.843521	0	0	8.582609e+01
482.621338	1.292905	city	10	1	1.207969	1.207969	0	1	0	0	CorrectCommission	0.531821	0.874129	0	0	8.591304e+01
483.907623	1.279701	city	6	1	1.712976	1.712976	0	1	0	0	CorrectCommission	1.991739	0.900514	0	0	86
485.220581	1.346219	city	1	1	1.047657	1.047657	0	1	0	0	CorrectCommission	1.332915	0.920872	0	0	8.608696e+01
486.573395	1.359369	city	10	1	1.254051	1.254051	0	1	0	0	CorrectCommission	0.301545	0.934016	0	0	8.617391e+01
487.899628	1.293110	city	4	1	1.595586	1.595586	0	1	0	0	CorrectCommission	1.405132	0.939402	0	0	8.626087e+01
489.212555	1.332719	city	2	1	1.059297	1.059297	0	1	0	0	CorrectCommission	1.274746	0.937047	0	0	8.634783e+01
490.538757	1.319698	city	8	1	1.570518	1.570518	0	1	0	0	CorrectCommission	1.279866	0.927495	0	0	8.643478e+01
491.851654	1.306118	city	3	1	1.161104	1.161104	0	1	0	0	CorrectCommission	0.766008	0.911647	0	0	8.652174e+01
493.157898	1.306367	city	9	1	1.375474	1.375474	0	1	0	0	CorrectCommission	0.305212	0.890685	0	0	8.660870e+01
494.477539	1.332892	city	3	1	1.219469	1.219469	0	1	0	0	CorrectCommission	0.474358	0.865936	0	0	8.669565e+01
495.783783	1.279607	mountain	3	0	0.000000	1.489178	1	0	0	0	CorrectOmission	0.873404	0.838839	0	0	8.678261e+01
497.076630	1.306073	city	6	1	1.724935	1.724935	0	1	0	0	CorrectCommission	2.051501	0.810955	0	0	8.686957e+01
498.382782	1.306229	city	10	1	1.467073	1.467073	0	1	0	0	CorrectCommission	0.762940	0.783985	1	0	8.695652e+01
499.709076	1.346367	city	2	1	1.445058	1.445058	0	1	0	0	CorrectCommission	0.652932	0.759831	1	0	8.704348e+01
501.035370	1.306254	city	8	1	1.390620	1.390620	0	1	0	0	CorrectCommission	0.380899	0.740516	1	0	8.713043e+01
502.341614	1.306202	city	4	1	1.333123	1.333123	0	1	0	0	CorrectCommission	0.093582	0.728108	1	0	8.721739e+01
503.667786	1.346157	city	10	1	1.092504	1.092504	0	1	0	0	CorrectCommission	1.108810	0.724594	1	0	8.730435e+01
504.994019	1.306306	city	2	1	1.238516	1.238516	0	1	0	0	CorrectCommission	0.379175	0.731676	1	0	8.739130e+01
506.293579	1.292805	city	4	1	1.414914	1.414914	0	1	0	0	CorrectCommission	0.502300	0.750589	1	0	8.747826e+01
507.606384	1.332848	city	3	1	1.177416	1.177416	0	1	0	0	CorrectCommission	0.684496	0.781951	1	0	8.756522e+01
508.912720	1.279770	city	6	1	1.395418	1.395418	0	1	0	0	CorrectCommission	0.404877	0.825587	0	0	8.765217e+01
510.238953	1.372692	city	4	1	1.254851	1.254851	0	1	0	0	CorrectCommission	0.297548	0.880467	0	0	8.773913e+01
511.585144	1.319732	city	3	1	1.153061	1.153061	0	1	0	0	CorrectCommission	0.806204	0.944717	0	0	8.782609e+01
512.884827	1.279564	city	1	1	1.124651	1.124651	0	1	0	0	CorrectCommission	0.948167	1.015675	0	0	8.791304e+01
516.523621	5.998080	break	0	0	0.000000	1.096242	0	0	0	0	ThoughtProbe	1.090130	1.090130	0	88	88
