onset	duration	trial_type	image_type	Press	ReactionTime	ReactionTime_Interpolated	CorrectOmission	CorrectCommission	CommissionError	OmissionError	response_type	nonsmoothVarianceTimeCourse	VarianceTimeCourse	In_the_Zone	ThoughtProbe	ThoughtProbe_Interpolated
0.652993	1.279578	city	7	1	1.554216	1.554216	0	1	0	0	CorrectCommission	0.707702	0.707702	1	0	79
1.932502	1.279441	city	2	1	1.340557	1.340557	0	1	0	0	CorrectCommission	0.009227	0.674163	1	0	79
3.225411	1.306378	city	5	1	1.230046	1.230046	0	1	0	0	CorrectCommission	0.352045	0.642207	1	0	79
4.518401	1.279602	city	1	1	1.511784	1.511784	0	1	0	0	CorrectCommission	0.568989	0.613130	1	0	79
5.797987	1.279570	city	4	1	1.549224	1.549224	0	1	0	0	CorrectCommission	0.691384	0.587741	1	0	79
7.077480	1.279415	city	3	1	1.390121	1.390121	0	1	0	0	CorrectCommission	0.171258	0.566241	1	0	79
8.357053	1.279730	city	10	1	1.194363	1.194363	0	1	0	0	CorrectCommission	0.468697	0.548205	1	0	79
9.643359	1.292883	city	6	1	1.265434	1.265434	0	1	0	0	CorrectCommission	0.236359	0.532668	1	0	79
10.929558	1.279513	city	1	1	1.306026	1.306026	0	1	0	0	CorrectCommission	0.103658	0.518348	1	0	79
12.209149	1.279669	mountain	1	0	0.000000	1.029575	1	0	0	0	CorrectOmission	1.007406	0.503923	1	0	79
13.488784	1.279600	city	8	1	0.863451	0.863451	0	1	0	0	CorrectCommission	1.550484	0.488285	1	0	79
14.768358	1.279548	city	9	1	1.235024	1.235024	0	1	0	0	CorrectCommission	0.335773	0.470791	1	0	79
16.047924	1.279585	city	5	1	1.177528	1.177528	0	1	0	0	CorrectCommission	0.523731	0.451475	1	0	79
17.334173	1.292913	city	9	1	1.202359	1.202359	0	1	0	0	CorrectCommission	0.442556	0.431024	1	0	79
18.620350	1.279439	city	4	1	1.281587	1.281587	0	1	0	0	CorrectCommission	0.183552	0.410762	1	0	79
19.899925	1.279712	mountain	7	1	1.177674	1.177674	0	0	1	0	CommissionError	0.523254	0.392469	1	0	79
21.179502	1.279443	city	5	1	1.340651	1.340651	0	1	0	0	CorrectCommission	0.009537	0.378164	1	0	79
22.459085	1.279721	city	2	1	1.447764	1.447764	0	1	0	0	CorrectCommission	0.359698	0.369869	1	0	79
23.738733	1.279575	mountain	5	0	0.000000	1.349994	1	0	0	0	CorrectOmission	0.040078	0.369332	1	0	79
25.024977	1.292914	city	10	1	1.261243	1.261243	0	1	0	0	CorrectCommission	0.250059	0.377877	1	0	79
26.311218	1.279570	city	2	1	1.395410	1.395410	0	1	0	0	CorrectCommission	0.188547	0.396228	1	0	79
27.590771	1.279536	city	9	1	1.301471	1.301471	0	1	0	0	CorrectCommission	0.118548	0.424455	1	0	79
28.876982	1.292884	city	8	1	1.258014	1.258014	0	1	0	0	CorrectCommission	0.260613	0.461972	1	0	79
30.163246	1.279647	city	2	1	1.236277	1.236277	0	1	0	0	CorrectCommission	0.331676	0.507583	1	0	79
31.442875	1.279610	city	1	1	1.177507	1.177507	0	1	0	0	CorrectCommission	0.523799	0.559599	1	0	79
32.722420	1.279481	mountain	3	0	0.000000	1.107531	1	0	0	0	CorrectOmission	0.752561	0.616016	1	0	79
34.001980	1.279633	city	10	1	1.180543	1.180543	0	1	0	0	CorrectCommission	0.513875	0.674656	1	0	79
35.281590	1.279592	city	3	1	1.550741	1.550741	0	1	0	0	CorrectCommission	0.696343	0.733382	1	0	79
36.561119	1.279461	city	4	1	1.711315	1.711315	0	1	0	0	CorrectCommission	1.221278	0.790205	1	0	79
37.840630	1.279563	city	6	1	1.764092	1.764092	0	1	0	0	CorrectCommission	1.393811	0.843398	0	0	79
39.120190	1.279559	city	5	1	1.587166	1.587166	0	1	0	0	CorrectCommission	0.815419	0.891565	0	0	79
40.406494	1.293048	city	2	1	1.252583	1.252583	0	1	0	0	CorrectCommission	0.278369	0.933664	0	0	79
41.692745	1.279457	city	4	1	1.554282	1.554282	0	1	0	0	CorrectCommission	0.707917	0.968965	0	0	79
42.972275	1.279597	city	7	1	2.000481	2.000481	0	1	0	0	CorrectCommission	2.166591	0.997021	0	0	79
44.251858	1.279572	city	6	1	1.767674	1.767674	0	1	0	0	CorrectCommission	1.405521	1.017547	0	0	79
45.531509	1.279732	city	8	1	1.710076	1.710076	0	1	0	0	CorrectCommission	1.217225	1.030417	0	0	79
46.811096	1.279439	city	3	1	1.673601	1.673601	0	1	0	0	CorrectCommission	1.097984	1.035541	0	0	79
48.090675	1.279714	city	1	1	1.341704	1.341704	0	1	0	0	CorrectCommission	0.012979	1.032812	0	0	79
49.370319	1.279579	city	8	1	1.090253	1.090253	0	1	0	0	CorrectCommission	0.809044	1.022161	0	0	79
50.649887	1.279556	city	9	1	0.973677	0.973677	0	1	0	0	CorrectCommission	1.190144	1.003525	0	0	79
51.929466	1.279603	city	5	1	0.759162	0.759162	0	1	0	0	CorrectCommission	1.891416	0.977017	0	0	79
53.215668	1.292798	city	10	1	0.750504	0.750504	0	1	0	0	CorrectCommission	1.919720	0.943011	0	0	79
54.501911	1.279688	city	6	1	1.144325	1.144325	0	1	0	0	CorrectCommission	0.632276	0.902284	0	0	79
55.781464	1.279423	city	7	1	1.230070	1.230070	0	1	0	0	CorrectCommission	0.351965	0.856094	0	0	79
57.067696	1.293034	city	10	1	0.923930	0.923930	0	1	0	0	CorrectCommission	1.352772	0.806133	1	0	79
57.714211	8.210609	break	0	1	1.189961	1.189961	0	0	0	0	ThoughtProbe	0.483087	0.754424	1	79	79
66.564636	1.279626	city	7	1	1.554986	1.554986	0	1	0	0	CorrectCommission	0.710219	0.703243	1	0	7.860000e+01
67.844193	1.279487	city	2	1	1.561044	1.561044	0	1	0	0	CorrectCommission	0.730023	0.654861	1	0	7.820000e+01
69.130424	1.292983	city	7	1	1.484534	1.484534	0	1	0	0	CorrectCommission	0.479906	0.611384	1	0	7.780000e+01
70.430023	1.306208	city	1	1	1.317528	1.317528	0	1	0	0	CorrectCommission	0.066055	0.574585	1	0	7.740000e+01
71.722939	1.279629	city	5	1	1.291542	1.291542	0	1	0	0	CorrectCommission	0.151007	0.545777	1	0	77
73.009117	1.292733	city	3	1	1.253896	1.253896	0	1	0	0	CorrectCommission	0.274078	0.525697	1	0	7.660000e+01
74.295296	1.279623	city	9	1	1.080916	1.080916	0	1	0	0	CorrectCommission	0.839565	0.514551	1	0	7.620000e+01
75.574890	1.279566	city	4	1	1.311622	1.311622	0	1	0	0	CorrectCommission	0.085363	0.512032	1	0	7.580000e+01
76.861191	1.293033	city	7	1	1.465252	1.465252	0	1	0	0	CorrectCommission	0.416869	0.517469	1	0	7.540000e+01
78.147499	1.279580	city	10	1	1.144159	1.144159	0	1	0	0	CorrectCommission	0.632818	0.529841	1	0	75
79.427032	1.279495	city	4	1	1.506221	1.506221	0	1	0	0	CorrectCommission	0.550802	0.547960	1	0	7.460000e+01
80.706612	1.279661	mountain	9	0	0.000000	1.581721	1	0	0	0	CorrectOmission	0.797620	0.570527	1	0	7.420000e+01
81.986206	1.279518	city	6	1	1.509131	1.509131	0	1	0	0	CorrectCommission	0.560314	0.596169	1	0	7.380000e+01
83.265717	1.279510	mountain	2	0	0.000000	1.426922	1	0	0	0	CorrectOmission	0.291566	0.623494	1	0	7.340000e+01
84.545341	1.279732	city	10	1	1.401479	1.401479	0	1	0	0	CorrectCommission	0.208389	0.651074	1	0	73
85.831657	1.292907	mountain	4	0	0.000000	1.499185	1	0	0	0	CorrectOmission	0.527801	0.677476	1	0	7.260000e+01
87.117889	1.279554	city	2	1	1.664684	1.664684	0	1	0	0	CorrectCommission	1.068836	0.701335	1	0	7.220000e+01
88.397377	1.279419	city	5	1	1.842621	1.842621	0	1	0	0	CorrectCommission	1.650529	0.721404	1	0	7.180000e+01
89.676880	1.279595	city	4	1	1.623096	1.623096	0	1	0	0	CorrectCommission	0.932880	0.736677	1	0	7.140000e+01
90.956543	1.279730	city	6	1	1.528051	1.528051	0	1	0	0	CorrectCommission	0.622166	0.746480	1	0	71
92.236198	1.279574	city	8	1	1.444403	1.444403	0	1	0	0	CorrectCommission	0.348712	0.750508	1	0	7.060000e+01
93.515778	1.279596	city	9	1	1.363030	1.363030	0	1	0	0	CorrectCommission	0.082694	0.748929	1	0	7.020000e+01
94.802017	1.292883	city	2	1	1.681824	1.681824	0	1	0	0	CorrectCommission	1.124868	0.742404	1	0	6.980000e+01
96.088272	1.279621	city	8	1	1.987920	1.987920	0	1	0	0	CorrectCommission	2.125530	0.732024	1	0	6.940000e+01
97.367867	1.279563	city	9	0	0.000000	1.582727	0	0	0	1	OmissionError	0.800908	0.719267	1	0	69
98.647423	1.279563	city	7	1	1.131313	1.131313	0	1	0	0	CorrectCommission	0.674813	0.705906	1	0	6.860000e+01
99.926956	1.279502	city	6	0	0.000000	1.298749	0	0	0	1	OmissionError	0.127448	0.693703	1	0	6.820000e+01
101.206467	1.279513	city	4	1	1.549431	1.549431	0	1	0	0	CorrectCommission	0.692059	0.684213	1	0	6.780000e+01
102.486000	1.279560	city	10	1	1.347756	1.347756	0	1	0	0	CorrectCommission	0.032763	0.678549	1	0	6.740000e+01
103.765663	1.279765	city	2	1	1.241535	1.241535	0	1	0	0	CorrectCommission	0.314487	0.677247	1	0	67
105.051918	1.292742	city	9	1	1.262394	1.262394	0	1	0	0	CorrectCommission	0.246296	0.680150	1	0	6.660000e+01
106.338165	1.279752	city	3	1	1.030205	1.030205	0	1	0	0	CorrectCommission	1.005346	0.686495	1	0	6.620000e+01
107.624443	1.292807	city	1	1	1.040212	1.040212	0	1	0	0	CorrectCommission	0.972632	0.695097	1	0	6.580000e+01
108.930603	1.319505	city	5	1	1.615113	1.615113	0	1	0	0	CorrectCommission	0.906783	0.704618	1	0	6.540000e+01
110.250214	1.319722	city	10	1	1.277027	1.277027	0	1	0	0	CorrectCommission	0.198458	0.713817	1	0	65
111.549850	1.279553	city	3	1	0.872827	0.872827	0	1	0	0	CorrectCommission	1.519834	0.721830	1	0	6.460000e+01
112.829346	1.279427	city	9	1	1.618248	1.618248	0	1	0	0	CorrectCommission	0.917030	0.728244	1	0	6.420000e+01
114.108841	1.279574	city	5	1	1.722697	1.722697	0	1	0	0	CorrectCommission	1.258485	0.733204	1	0	6.380000e+01
115.388496	1.279733	city	6	1	1.455128	1.455128	0	1	0	0	CorrectCommission	0.383772	0.737268	1	0	6.340000e+01
119.433922	6.811117	break	0	0	0.000000	1.417527	0	0	0	0	ThoughtProbe	0.260850	0.741283	1	63	63
123.479271	1.279583	city	5	1	1.509117	1.509117	0	1	0	0	CorrectCommission	0.560270	0.746110	1	0	6.285294e+01
124.758842	1.279555	city	3	1	1.629124	1.629124	0	1	0	0	CorrectCommission	0.952585	0.752435	1	0	6.270588e+01
126.038406	1.279579	mountain	4	0	0.000000	1.454275	1	0	0	0	CorrectOmission	0.380985	0.760601	1	0	6.255882e+01
127.317986	1.279578	city	2	0	0.000000	1.183469	0	0	0	1	OmissionError	0.504311	0.770590	1	0	6.241176e+01
128.610809	1.306075	city	1	1	1.015603	1.015603	0	1	0	0	CorrectCommission	1.053081	0.782026	1	0	6.226471e+01
129.903732	1.279778	city	6	1	1.149577	1.149577	0	1	0	0	CorrectCommission	0.615105	0.794334	1	0	6.211765e+01
131.196716	1.306188	city	2	1	1.374656	1.374656	0	1	0	0	CorrectCommission	0.120702	0.807023	1	0	6.197059e+01
132.489609	1.279596	city	3	1	1.922579	1.922579	0	1	0	0	CorrectCommission	1.911921	0.819871	0	0	6.182353e+01
133.769196	1.279575	city	5	1	1.900245	1.900245	0	1	0	0	CorrectCommission	1.838909	0.833048	0	0	6.167647e+01
135.082092	1.346225	city	7	1	1.574799	1.574799	0	1	0	0	CorrectCommission	0.774992	0.847224	0	0	6.152941e+01
136.401672	1.292907	city	2	1	1.350892	1.350892	0	1	0	0	CorrectCommission	0.043015	0.863464	0	0	6.138235e+01
137.714478	1.332732	city	4	1	1.083213	1.083213	0	1	0	0	CorrectCommission	0.832058	0.882983	0	0	6.123529e+01
139.020721	1.279741	city	7	1	1.692743	1.692743	0	1	0	0	CorrectCommission	1.160563	0.906843	0	0	6.108824e+01
140.307053	1.292924	city	5	1	1.361461	1.361461	0	1	0	0	CorrectCommission	0.077567	0.935663	0	0	6.094118e+01
141.593307	1.279584	city	4	1	1.039910	1.039910	0	1	0	0	CorrectCommission	0.973621	0.969379	0	0	6.079412e+01
142.879471	1.292735	city	3	1	1.538955	1.538955	0	1	0	0	CorrectCommission	0.657813	1.007032	0	0	6.064706e+01
144.178955	1.306248	city	2	1	1.160212	1.160212	0	1	0	0	CorrectCommission	0.580340	1.046882	0	0	6.050000e+01
145.478607	1.293049	city	7	1	1.089408	1.089408	0	1	0	0	CorrectCommission	0.811805	1.086516	0	0	6.035294e+01
146.778183	1.306104	city	8	1	0.783764	0.783764	0	1	0	0	CorrectCommission	1.810990	1.123235	0	0	6.020588e+01
148.071106	1.279738	city	10	1	1.723085	1.723085	0	1	0	0	CorrectCommission	1.259755	1.154435	0	0	6.005882e+01
149.350754	1.279559	mountain	7	0	0.000000	1.950749	1	0	0	0	CorrectOmission	2.004013	1.178076	0	0	5.991176e+01
150.631042	1.281009	city	3	1	1.884892	1.884892	0	1	0	0	CorrectCommission	1.788720	1.192914	0	0	5.976471e+01
151.917282	1.291477	city	6	1	1.943653	1.943653	0	1	0	0	CorrectCommission	1.980814	1.198686	0	0	5.961765e+01
153.202820	1.279601	city	10	0	0.000000	1.782513	0	0	0	1	OmissionError	1.454030	1.196082	0	0	5.947059e+01
154.482391	1.279553	city	4	0	0.000000	1.513168	0	0	0	1	OmissionError	0.573512	1.186568	0	0	5.932353e+01
155.761887	1.279441	city	1	1	1.247313	1.247313	0	1	0	0	CorrectCommission	0.295595	1.172059	0	0	5.917647e+01
157.041412	1.279588	city	10	1	1.096645	1.096645	0	1	0	0	CorrectCommission	0.788148	1.154561	0	0	5.902941e+01
158.321060	1.279713	city	2	1	0.925294	0.925294	0	1	0	0	CorrectCommission	1.348311	1.135895	0	0	5.888235e+01
159.600723	1.279604	city	6	1	0.764329	0.764329	0	1	0	0	CorrectCommission	1.874523	1.117556	0	0	5.873529e+01
160.893631	1.306235	city	1	1	1.657770	1.657770	0	1	0	0	CorrectCommission	1.046231	1.100592	0	0	5.858824e+01
162.193192	1.292881	city	2	1	1.445308	1.445308	0	1	0	0	CorrectCommission	0.351669	1.085697	0	0	5.844118e+01
163.506073	1.332893	city	3	1	1.135416	1.135416	0	1	0	0	CorrectCommission	0.661401	1.073323	0	0	5.829412e+01
164.812317	1.279581	city	9	1	0.911251	0.911251	0	1	0	0	CorrectCommission	1.394220	1.063804	0	0	5.814706e+01
168.677719	6.451221	break	0	1	0.828609	0.828609	0	0	0	0	ThoughtProbe	1.664388	1.057466	0	58	58
172.543030	1.279405	city	9	1	1.747198	1.747198	0	1	0	0	CorrectCommission	1.338580	1.054695	0	0	5.720000e+01
173.842606	1.319746	city	5	0	0.000000	1.790628	0	0	0	1	OmissionError	1.480559	1.055872	0	0	5.640000e+01
175.142258	1.279563	city	10	1	1.456093	1.456093	0	1	0	0	CorrectCommission	0.386926	1.061217	0	0	5.560000e+01
176.421844	1.279612	city	1	1	1.240784	1.240784	0	1	0	0	CorrectCommission	0.316940	1.070647	0	0	5.480000e+01
177.714722	1.306133	city	8	1	1.155763	1.155763	0	1	0	0	CorrectCommission	0.594884	1.083516	0	0	54
179.007629	1.279672	city	2	1	0.972041	0.972041	0	1	0	0	CorrectCommission	1.195490	1.098575	0	0	5.320000e+01
180.300507	1.306087	city	5	1	1.012215	1.012215	0	1	0	0	CorrectCommission	1.064159	1.113960	0	0	5.240000e+01
181.593399	1.279706	city	8	1	1.403839	1.403839	0	1	0	0	CorrectCommission	0.216104	1.127433	0	0	5.160000e+01
182.873047	1.279584	city	3	1	1.946646	1.946646	0	1	0	0	CorrectCommission	1.990599	1.136646	0	0	5.080000e+01
184.152634	1.279596	mountain	3	0	0.000000	2.077998	1	0	0	0	CorrectOmission	2.420004	1.139471	0	0	50
185.438828	1.292779	city	10	0	0.000000	1.916987	0	0	0	1	OmissionError	1.893640	1.134410	0	0	4.920000e+01
186.725052	1.279690	mountain	3	0	0.000000	1.582703	1	0	0	0	CorrectOmission	0.800828	1.120869	0	0	4.840000e+01
188.004684	1.279580	city	2	1	1.194236	1.194236	0	1	0	0	CorrectCommission	0.469111	1.099286	0	0	4.760000e+01
189.284271	1.279590	city	8	0	0.000000	0.870678	0	0	0	1	OmissionError	1.526857	1.071069	0	0	4.680000e+01
190.563766	1.279399	city	3	1	0.765832	0.765832	0	1	0	0	CorrectCommission	1.869612	1.038389	0	0	46
191.850006	1.293082	city	6	1	1.033499	1.033499	0	1	0	0	CorrectCommission	0.994578	1.003924	0	0	4.520000e+01
193.143005	1.292919	city	5	1	1.150204	1.150204	0	1	0	0	CorrectCommission	0.613056	0.970494	0	0	4.440000e+01
194.429245	1.279557	city	3	1	1.347489	1.347489	0	1	0	0	CorrectCommission	0.031889	0.940742	0	0	4.360000e+01
195.708786	1.279506	city	1	1	1.248122	1.248122	0	1	0	0	CorrectCommission	0.292951	0.916850	0	0	4.280000e+01
196.988281	1.279500	city	6	1	0.977515	0.977515	0	1	0	0	CorrectCommission	1.177597	0.900339	0	0	42
198.267822	1.279569	city	2	1	1.338420	1.338420	0	1	0	0	CorrectCommission	0.002242	0.892014	0	0	4.120000e+01
199.547409	1.279609	city	7	1	1.732929	1.732929	0	1	0	0	CorrectCommission	1.291934	0.892087	0	0	4.040000e+01
200.826996	1.279572	city	4	1	1.939730	1.939730	0	1	0	0	CorrectCommission	1.967989	0.900198	0	0	3.960000e+01
202.106659	1.279757	city	6	0	0.000000	1.475309	0	0	0	1	OmissionError	0.449748	0.915571	0	0	3.880000e+01
203.392975	1.292872	city	10	1	1.091666	1.091666	0	1	0	0	CorrectCommission	0.804425	0.937170	0	0	38
204.692551	1.306260	city	9	1	1.540798	1.540798	0	1	0	0	CorrectCommission	0.663838	0.963660	0	0	3.720000e+01
205.998795	1.306234	city	4	0	0.000000	1.654597	0	0	0	1	OmissionError	1.035860	0.993447	0	0	3.640000e+01
207.298355	1.292885	city	1	1	1.600285	1.600285	0	1	0	0	CorrectCommission	0.858309	1.024637	0	0	3.560000e+01
208.597885	1.306187	mountain	5	0	0.000000	1.545086	1	0	0	0	CorrectOmission	0.677854	1.055113	0	0	3.480000e+01
209.890808	1.279654	city	10	1	1.556306	1.556306	0	1	0	0	CorrectCommission	0.714534	1.082650	0	0	34
211.183670	1.306072	city	8	1	1.701255	1.701255	0	1	0	0	CorrectCommission	1.188388	1.105038	0	0	3.320000e+01
212.476578	1.279752	city	4	0	0.000000	1.849818	0	0	0	1	OmissionError	1.674059	1.120354	0	0	3.240000e+01
213.756180	1.279438	city	2	0	0.000000	1.947205	0	0	0	1	OmissionError	1.992428	1.127221	0	0	3.160000e+01
215.035675	1.279551	city	4	1	1.938624	1.938624	0	1	0	0	CorrectCommission	1.964374	1.125041	0	0	3.080000e+01
216.315308	1.279718	city	9	1	1.769283	1.769283	0	1	0	0	CorrectCommission	1.410779	1.114094	0	0	30
217.594955	1.279592	city	1	0	0.000000	1.280847	0	0	0	1	OmissionError	0.185970	1.095466	0	0	2.920000e+01
218.881149	1.292784	city	5	1	0.867471	0.867471	0	1	0	0	CorrectCommission	1.537341	1.070958	0	0	2.840000e+01
220.167389	1.279687	city	2	1	0.923309	0.923309	0	1	0	0	CorrectCommission	1.354803	1.042740	0	0	2.760000e+01
221.447021	1.279599	city	10	1	1.069111	1.069111	0	1	0	0	CorrectCommission	0.878158	1.013104	0	0	2.680000e+01
222.086823	8.503693	break	0	0	0.000000	1.299026	0	0	0	0	ThoughtProbe	0.126540	0.984150	0	26	26
231.230392	1.279730	city	1	0	0.000000	1.515575	0	0	0	1	OmissionError	0.581381	0.957557	0	0	2.564706e+01
232.509979	1.279443	mountain	9	0	0.000000	1.621278	1	0	0	0	CorrectOmission	0.926935	0.934411	0	0	2.529412e+01
233.789490	1.279577	city	5	1	1.518656	1.518656	0	1	0	0	CorrectCommission	0.591452	0.915286	0	0	2.494118e+01
235.075760	1.292968	city	9	0	0.000000	1.110229	0	0	0	1	OmissionError	0.743738	0.900308	0	0	2.458824e+01
236.362076	1.279686	city	4	1	0.768141	0.768141	0	1	0	0	CorrectCommission	1.862064	0.889269	0	0	2.423529e+01
237.648300	1.292756	city	10	0	0.000000	0.864531	0	0	0	1	OmissionError	1.546953	0.881796	0	0	2.388235e+01
238.934540	1.279730	city	3	0	0.000000	1.180175	0	0	0	1	OmissionError	0.515079	0.877448	0	0	2.352941e+01
240.214127	1.279423	city	10	1	1.495846	1.495846	0	1	0	0	CorrectCommission	0.516884	0.875746	0	0	2.317647e+01
241.500351	1.293044	city	5	1	1.592318	1.592318	0	1	0	0	CorrectCommission	0.832264	0.876089	0	0	2.282353e+01
242.799988	1.306235	city	2	1	1.476215	1.476215	0	1	0	0	CorrectCommission	0.452710	0.877711	0	0	2.247059e+01
244.099579	1.292934	city	9	1	1.244050	1.244050	0	1	0	0	CorrectCommission	0.306263	0.879658	0	0	2.211765e+01
245.385742	1.279391	mountain	8	0	0.000000	1.452589	1	0	0	0	CorrectOmission	0.375473	0.880801	0	0	2.176471e+01
246.665237	1.279598	city	10	1	1.789621	1.789621	0	1	0	0	CorrectCommission	1.477266	0.879938	0	0	2.141176e+01
247.944901	1.279721	city	1	1	1.942933	1.942933	0	1	0	0	CorrectCommission	1.978462	0.875951	0	0	2.105882e+01
249.237793	1.306078	city	5	0	0.000000	1.223567	0	0	0	1	OmissionError	0.373226	0.868037	0	0	2.070588e+01
250.537323	1.292987	city	1	1	0.779693	0.779693	0	1	0	0	CorrectCommission	1.824298	0.855901	0	0	2.035294e+01
251.823578	1.279527	city	3	1	1.759485	1.759485	0	1	0	0	CorrectCommission	1.378748	0.839726	0	0	20
253.123184	1.319683	city	7	1	1.503069	1.503069	0	1	0	0	CorrectCommission	0.540497	0.820255	0	0	1.964706e+01
254.429489	1.292924	city	4	0	0.000000	1.286478	0	0	0	1	OmissionError	0.167563	0.798556	1	0	1.929412e+01
255.730194	1.308491	city	2	1	1.207402	1.207402	0	1	0	0	CorrectCommission	0.426069	0.775878	1	0	1.894118e+01
257.023102	1.277328	city	4	1	1.363534	1.363534	0	1	0	0	CorrectCommission	0.084342	0.753378	1	0	1.858824e+01
258.314880	1.306230	city	8	1	1.068332	1.068332	0	1	0	0	CorrectCommission	0.880705	0.732032	1	0	1.823529e+01
259.627808	1.319618	city	3	1	0.896733	0.896733	0	1	0	0	CorrectCommission	1.441681	0.712451	1	0	1.788235e+01
260.927368	1.279467	city	8	0	0.000000	0.993325	0	0	0	1	OmissionError	1.125912	0.694889	1	0	1.752941e+01
262.213593	1.292993	city	5	1	1.199050	1.199050	0	1	0	0	CorrectCommission	0.453374	0.679314	1	0	1.717647e+01
263.499878	1.279574	city	2	1	1.354852	1.354852	0	1	0	0	CorrectCommission	0.055958	0.665499	1	0	1.682353e+01
264.779449	1.279584	city	3	1	1.472280	1.472280	0	1	0	0	CorrectCommission	0.439846	0.653114	1	0	1.647059e+01
266.079010	1.319544	city	10	1	1.507741	1.507741	0	1	0	0	CorrectCommission	0.555771	0.641847	1	0	1.611765e+01
267.385254	1.292939	city	1	0	0.000000	1.568556	0	0	0	1	OmissionError	0.754582	0.631561	1	0	1.576471e+01
268.684845	1.306230	city	7	0	0.000000	1.627530	0	0	0	1	OmissionError	0.947375	0.622355	1	0	1.541176e+01
269.977661	1.279406	city	2	1	1.657468	1.657468	0	1	0	0	CorrectCommission	1.045244	0.614587	1	0	1.505882e+01
271.263885	1.293061	city	3	1	1.631173	1.631173	0	1	0	0	CorrectCommission	0.959284	0.608841	1	0	1.470588e+01
272.550140	1.279470	city	9	1	1.459454	1.459454	0	1	0	0	CorrectCommission	0.397917	0.605806	1	0	1.435294e+01
276.635406	6.891037	break	0	0	0.000000	1.322450	0	0	0	0	ThoughtProbe	0.049966	0.606109	1	14	14
280.740723	1.319599	city	3	1	1.287123	1.287123	0	1	0	0	CorrectCommission	0.165455	0.610108	1	0	1.497826e+01
282.040283	1.279539	mountain	6	1	1.420435	1.420435	0	0	1	0	CommissionError	0.270357	0.617745	1	0	1.595652e+01
283.333252	1.306394	city	9	1	1.524695	1.524695	0	1	0	0	CorrectCommission	0.611195	0.628551	1	0	1.693478e+01
284.626160	1.279411	city	3	1	1.354133	1.354133	0	1	0	0	CorrectCommission	0.053610	0.641599	1	0	1.791304e+01
285.905731	1.279729	city	5	1	0.805357	0.805357	0	1	0	0	CorrectCommission	1.740400	0.655739	1	0	1.889130e+01
287.185394	1.279602	city	7	1	1.466643	1.466643	0	1	0	0	CorrectCommission	0.421415	0.669760	1	0	1.986957e+01
288.464996	1.279557	mountain	1	1	1.726275	1.726275	0	0	1	0	CommissionError	1.270183	0.682696	1	0	2.084783e+01
289.751160	1.292770	city	10	1	1.622797	1.622797	0	1	0	0	CorrectCommission	0.931901	0.693933	1	0	2.182609e+01
291.044006	1.292951	city	6	1	1.404228	1.404228	0	1	0	0	CorrectCommission	0.217376	0.703375	1	0	2.280435e+01
292.343597	1.306230	city	10	1	1.207370	1.207370	0	1	0	0	CorrectCommission	0.426174	0.711439	1	0	2.378261e+01
293.643219	1.293012	city	1	1	0.994956	0.994956	0	1	0	0	CorrectCommission	1.120580	0.718941	1	0	2.476087e+01
294.962738	1.346003	mountain	3	1	0.847144	0.847144	0	0	1	0	CommissionError	1.603794	0.726913	1	0	2.573913e+01
296.295624	1.319800	city	1	1	1.166600	1.166600	0	1	0	0	CorrectCommission	0.559457	0.736371	1	0	2.671739e+01
297.595306	1.279560	city	10	0	0.000000	1.312237	0	0	0	1	OmissionError	0.083354	0.748112	1	0	2.769565e+01
298.874847	1.279513	city	3	0	0.000000	1.326986	0	0	0	1	OmissionError	0.035136	0.762505	1	0	2.867391e+01
300.154419	1.279647	city	4	0	0.000000	1.253780	0	0	0	1	OmissionError	0.274457	0.779405	1	0	2.965217e+01
301.434021	1.279578	city	5	0	0.000000	1.135548	0	0	0	1	OmissionError	0.660968	0.798235	1	0	3.063043e+01
302.713623	1.279605	city	1	0	0.000000	1.015224	0	0	0	1	OmissionError	1.054321	0.818120	0	0	3.160870e+01
303.999878	1.292908	city	5	1	0.935738	0.935738	0	1	0	0	CorrectCommission	1.314169	0.838156	0	0	3.258696e+01
305.292786	1.292888	city	9	1	0.940023	0.940023	0	1	0	0	CorrectCommission	1.300163	0.857648	0	0	3.356522e+01
306.579010	1.279578	city	3	1	0.928868	0.928868	0	1	0	0	CorrectCommission	1.336628	0.876278	0	0	3.454348e+01
307.858521	1.279438	city	2	1	0.711322	0.711322	0	1	0	0	CorrectCommission	2.047811	0.894147	0	0	3.552174e+01
309.138031	1.279592	city	7	1	1.378733	1.378733	0	1	0	0	CorrectCommission	0.134031	0.911644	0	0	3.650000e+01
310.437683	1.319705	city	8	1	1.286949	1.286949	0	1	0	0	CorrectCommission	0.166024	0.929283	0	0	3.747826e+01
311.757263	1.319458	city	3	1	1.111239	1.111239	0	1	0	0	CorrectCommission	0.740439	0.947335	0	0	3.845652e+01
313.076752	1.319503	city	1	1	1.395895	1.395895	0	1	0	0	CorrectCommission	0.190135	0.965661	0	0	3.943478e+01
314.389709	1.306392	city	10	1	1.648485	1.648485	0	1	0	0	CorrectCommission	1.015879	0.983607	0	0	4.041304e+01
315.696014	1.306260	city	3	0	0.000000	1.190940	0	0	0	1	OmissionError	0.479887	1.000116	0	0	4.139130e+01
316.995605	1.292908	city	6	1	0.986824	0.986824	0	1	0	0	CorrectCommission	1.147164	1.013968	0	0	4.236957e+01
318.281830	1.279562	city	8	1	1.999702	1.999702	0	1	0	0	CorrectCommission	2.164045	1.024059	0	0	4.334783e+01
319.567993	1.292759	city	1	0	0.000000	2.091347	0	0	0	1	OmissionError	2.463642	1.029807	0	0	4.432609e+01
320.854248	1.279723	city	5	0	0.000000	1.676582	0	0	0	1	OmissionError	1.107730	1.031395	0	0	4.530435e+01
322.147156	1.306129	city	7	1	1.170232	1.170232	0	1	0	0	CorrectCommission	0.547582	1.029848	0	0	4.628261e+01
323.446747	1.293046	mountain	9	1	0.987122	0.987122	0	0	1	0	CommissionError	1.146190	1.026885	0	0	4.726087e+01
324.739716	1.292900	city	4	1	1.157195	1.157195	0	1	0	0	CorrectCommission	0.590204	1.024586	0	0	4.823913e+01
326.032623	1.292885	city	7	1	0.989757	0.989757	0	1	0	0	CorrectCommission	1.137575	1.025009	0	0	4.921739e+01
327.318848	1.279583	city	10	1	1.296592	1.296592	0	1	0	0	CorrectCommission	0.134500	1.029706	0	0	5.019565e+01
328.611694	1.306096	city	3	1	1.173334	1.173334	0	1	0	0	CorrectCommission	0.537443	1.039385	0	0	5.117391e+01
329.904602	1.279745	city	9	1	1.075166	1.075166	0	1	0	0	CorrectCommission	0.858365	1.053702	0	0	5.215217e+01
331.184265	1.279572	city	7	1	1.079018	1.079018	0	1	0	0	CorrectCommission	0.845772	1.071279	0	0	5.313043e+01
332.503784	1.359435	city	4	1	1.707582	1.707582	0	1	0	0	CorrectCommission	1.209074	1.089910	0	0	5.410870e+01
333.823334	1.279701	city	8	0	0.000000	1.905565	0	0	0	1	OmissionError	1.856301	1.106928	0	0	5.508696e+01
335.122925	1.319455	city	2	0	0.000000	1.840309	0	0	0	1	OmissionError	1.642973	1.119639	0	0	5.606522e+01
336.422485	1.279669	city	3	1	1.679159	1.679159	0	1	0	0	CorrectCommission	1.116156	1.125793	0	0	5.704348e+01
337.708771	1.292902	city	2	1	1.589459	1.589459	0	1	0	0	CorrectCommission	0.822915	1.123996	0	0	5.802174e+01
341.700806	6.691156	break	0	0	0.000000	1.071276	0	0	0	0	ThoughtProbe	0.871081	1.113904	0	59	59
345.686157	1.279578	mountain	6	0	0.000000	0.569168	1	0	0	0	CorrectOmission	2.512527	1.096261	0	0	5.761765e+01
346.985718	1.319541	city	2	1	0.527691	0.527691	0	1	0	0	CorrectCommission	2.648120	1.072744	0	0	5.623529e+01
348.285309	1.279595	city	5	1	1.391402	1.391402	0	1	0	0	CorrectCommission	0.175445	1.045655	0	0	5.485294e+01
349.578125	1.306091	city	1	1	1.325421	1.325421	0	1	0	0	CorrectCommission	0.040255	1.017523	0	0	5.347059e+01
350.877716	1.293042	city	7	1	1.477993	1.477993	0	1	0	0	CorrectCommission	0.458521	0.990519	0	0	5.208824e+01
352.210663	1.372903	city	2	1	1.339340	1.339340	0	1	0	0	CorrectCommission	0.005250	0.966101	0	0	5.070588e+01
353.550140	1.306048	city	10	1	0.880717	0.880717	0	1	0	0	CorrectCommission	1.494038	0.944758	0	0	4.932353e+01
354.843079	1.279797	city	8	1	1.038809	1.038809	0	1	0	0	CorrectCommission	0.977219	0.925928	0	0	4.794118e+01
356.162720	1.359487	city	3	1	1.086009	1.086009	0	1	0	0	CorrectCommission	0.822917	0.908225	0	0	4.655882e+01
357.495605	1.306272	city	6	1	0.993001	0.993001	0	1	0	0	CorrectCommission	1.126970	0.889695	0	0	4.517647e+01
358.788422	1.279396	city	7	1	1.296240	1.296240	0	1	0	0	CorrectCommission	0.135650	0.868327	0	0	4.379412e+01
360.081329	1.306408	city	9	1	0.938341	0.938341	0	1	0	0	CorrectCommission	1.305661	0.842572	0	0	4.241176e+01
361.380981	1.292894	city	1	0	0.000000	0.721999	0	0	0	1	OmissionError	2.012907	0.811710	0	0	4.102941e+01
362.687225	1.319572	city	10	1	0.907165	0.907165	0	1	0	0	CorrectCommission	1.407579	0.776180	1	0	3.964706e+01
364.013397	1.332759	city	5	1	1.753790	1.753790	0	1	0	0	CorrectCommission	1.360131	0.737658	1	0	3.826471e+01
365.359528	1.359530	city	10	1	1.394284	1.394284	0	1	0	0	CorrectCommission	0.184866	0.698859	1	0	3.688235e+01
366.739136	1.399689	city	6	1	1.310870	1.310870	0	1	0	0	CorrectCommission	0.087822	0.663190	1	0	3.550000e+01
368.078766	1.279586	mountain	10	0	0.000000	1.317994	1	0	0	0	CorrectOmission	0.064534	0.634198	1	0	3.411765e+01
369.358276	1.279414	city	6	0	0.000000	1.375251	0	0	0	1	OmissionError	0.122648	0.614993	1	0	3.273529e+01
370.637848	1.279742	city	7	0	0.000000	1.442239	0	0	0	1	OmissionError	0.341637	0.607737	1	0	3.135294e+01
371.924194	1.292926	city	5	0	0.000000	1.478553	0	0	0	1	OmissionError	0.460350	0.613233	1	0	2.997059e+01
373.223755	1.306218	city	2	1	1.443788	1.443788	0	1	0	0	CorrectCommission	0.346703	0.630738	1	0	2.858824e+01
374.523346	1.292941	city	1	1	1.297543	1.297543	0	1	0	0	CorrectCommission	0.131391	0.658010	1	0	2.720588e+01
375.816223	1.292808	city	2	1	1.317670	1.317670	0	1	0	0	CorrectCommission	0.065593	0.691590	1	0	2.582353e+01
377.129120	1.332985	city	9	1	1.027334	1.027334	0	1	0	0	CorrectCommission	1.014731	0.727324	1	0	2.444118e+01
378.448700	1.306218	city	8	1	1.091247	1.091247	0	1	0	0	CorrectCommission	0.805795	0.760923	1	0	2.305882e+01
379.761566	1.319510	city	6	1	0.929582	0.929582	0	1	0	0	CorrectCommission	1.334294	0.788653	1	0	2.167647e+01
381.081085	1.319487	city	5	1	0.702559	0.702559	0	1	0	0	CorrectCommission	2.076458	0.807912	0	0	2.029412e+01
382.380585	1.279558	city	3	1	0.964332	0.964332	0	1	0	0	CorrectCommission	1.220694	0.817618	0	0	1.891176e+01
383.660248	1.279752	city	2	1	1.692229	1.692229	0	1	0	0	CorrectCommission	1.158883	0.818446	0	0	1.752941e+01
384.953217	1.306176	city	1	1	1.813291	1.813291	0	1	0	0	CorrectCommission	1.554646	0.812634	0	0	1.614706e+01
386.252716	1.292810	city	7	1	1.478772	1.478772	0	1	0	0	CorrectCommission	0.461068	0.803560	1	0	1.476471e+01
387.545593	1.292980	city	4	1	1.252018	1.252018	0	1	0	0	CorrectCommission	0.280216	0.795183	1	0	1.338235e+01
391.764252	7.144301	break	0	0	0.000000	1.259680	0	0	0	0	ThoughtProbe	0.255167	0.791252	1	12	12
395.976166	1.279527	city	2	1	1.337302	1.337302	0	1	0	0	CorrectCommission	0.001412	0.794671	1	0	1.237500e+01
397.262451	1.293041	mountain	2	1	1.320428	1.320428	0	0	1	0	CommissionError	0.056576	0.807000	1	0	1.275000e+01
398.568756	1.319565	city	9	1	1.634179	1.634179	0	1	0	0	CorrectCommission	0.969111	0.828155	0	0	1.312500e+01
399.894989	1.332921	city	4	1	1.218234	1.218234	0	1	0	0	CorrectCommission	0.390658	0.856479	0	0	1.350000e+01
401.214569	1.306208	city	8	1	1.088117	1.088117	0	1	0	0	CorrectCommission	0.816027	0.889074	0	0	1.387500e+01
402.520782	1.306265	city	7	1	1.022357	1.022357	0	1	0	0	CorrectCommission	1.031002	0.922310	0	0	1.425000e+01
403.813721	1.279587	city	8	1	1.603874	1.603874	0	1	0	0	CorrectCommission	0.870041	0.952534	0	0	1.462500e+01
405.106628	1.306210	city	4	0	0.000000	1.910799	0	0	0	1	OmissionError	1.873410	0.976705	0	0	1.500000e+01
406.399506	1.279595	city	2	0	0.000000	2.000702	0	0	0	1	OmissionError	2.167313	0.992900	0	0	1.537500e+01
407.692383	1.306130	mountain	4	0	0.000000	1.931155	1	0	0	0	CorrectOmission	1.939957	1.000613	0	0	1.575000e+01
408.985291	1.279677	city	8	0	0.000000	1.759729	0	0	0	1	OmissionError	1.379548	1.000770	0	0	1.612500e+01
410.271576	1.292916	city	6	1	1.543997	1.543997	0	1	0	0	CorrectCommission	0.674295	0.995399	0	0	1.650000e+01
411.571075	1.306092	city	3	1	1.341528	1.341528	0	1	0	0	CorrectCommission	0.012403	0.987158	0	0	1.687500e+01
412.870605	1.292958	city	6	1	1.374828	1.374828	0	1	0	0	CorrectCommission	0.121263	0.978747	0	0	1.725000e+01
414.163574	1.292996	city	1	1	1.161796	1.161796	0	1	0	0	CorrectCommission	0.575160	0.972356	0	0	1.762500e+01
415.449890	1.279588	city	5	1	1.727349	1.727349	0	1	0	0	CorrectCommission	1.273692	0.969306	0	0	18
416.742767	1.306214	city	2	1	1.634144	1.634144	0	1	0	0	CorrectCommission	0.968995	0.969889	0	0	1.837500e+01
418.049011	1.306237	city	8	1	1.488455	1.488455	0	1	0	0	CorrectCommission	0.492721	0.973481	0	0	1.875000e+01
419.348511	1.292804	city	3	1	1.145335	1.145335	0	1	0	0	CorrectCommission	0.628975	0.978806	0	0	1.912500e+01
420.634796	1.279709	city	2	0	0.000000	0.840190	0	0	0	1	OmissionError	1.626525	0.984317	0	0	1.950000e+01
421.914398	1.279533	city	10	0	0.000000	0.741481	0	0	0	1	OmissionError	1.949218	0.988608	0	0	1.987500e+01
423.213959	1.319588	mountain	7	1	1.017666	1.017666	0	0	1	0	CommissionError	1.046338	0.990737	0	0	2.025000e+01
424.513550	1.279602	city	4	1	1.837206	1.837206	0	1	0	0	CorrectCommission	1.632827	0.990413	0	0	2.062500e+01
425.799774	1.292818	city	1	1	1.581174	1.581174	0	1	0	0	CorrectCommission	0.795831	0.987920	0	0	21
427.086029	1.279676	city	5	1	1.463227	1.463227	0	1	0	0	CorrectCommission	0.410248	0.983968	0	0	2.137500e+01
428.372223	1.292752	city	9	1	1.633043	1.633043	0	1	0	0	CorrectCommission	0.965396	0.979396	0	0	2.175000e+01
429.665131	1.293034	city	10	1	1.511020	1.511020	0	1	0	0	CorrectCommission	0.566490	0.974819	0	0	2.212500e+01
430.958099	1.292933	city	6	1	1.156242	1.156242	0	1	0	0	CorrectCommission	0.593317	0.970397	0	0	2.250000e+01
432.264282	1.319450	city	7	1	1.199833	1.199833	0	1	0	0	CorrectCommission	0.450815	0.965701	0	0	2.287500e+01
433.590424	1.332827	city	6	1	0.841599	0.841599	0	1	0	0	CorrectCommission	1.621922	0.959687	0	0	2.325000e+01
434.930054	1.346417	city	5	1	1.066797	1.066797	0	1	0	0	CorrectCommission	0.885724	0.950871	0	0	2.362500e+01
436.243042	1.279566	city	9	1	0.821198	0.821198	0	1	0	0	CorrectCommission	1.688613	0.937641	0	0	24
437.549225	1.332802	city	6	1	1.009114	1.009114	0	1	0	0	CorrectCommission	1.074295	0.918518	0	0	2.437500e+01
438.862061	1.292841	city	4	0	0.000000	1.516452	0	0	0	1	OmissionError	0.584249	0.892497	0	0	2.475000e+01
440.148315	1.279709	city	8	1	1.860878	1.860878	0	1	0	0	CorrectCommission	1.710215	0.859236	0	0	2.512500e+01
441.447906	1.319419	city	3	0	0.000000	1.560058	0	0	0	1	OmissionError	0.726800	0.819132	0	0	2.550000e+01
442.747437	1.279686	city	7	1	1.100997	1.100997	0	1	0	0	CorrectCommission	0.773920	0.773365	1	0	2.587500e+01
444.047058	1.319524	city	6	1	0.970703	0.970703	0	1	0	0	CorrectCommission	1.199866	0.723729	1	0	2.625000e+01
445.353271	1.292905	city	2	1	1.411544	1.411544	0	1	0	0	CorrectCommission	0.241291	0.672409	1	0	2.662500e+01
449.691803	7.384163	break	0	1	1.149558	1.149558	0	0	0	0	ThoughtProbe	0.615168	0.621778	1	27	27
454.030334	1.292919	city	3	0	0.000000	1.249005	0	0	0	1	OmissionError	0.290066	0.574072	1	0	2.686957e+01
455.323334	1.293060	city	1	1	1.436882	1.436882	0	1	0	0	CorrectCommission	0.324125	0.531166	1	0	2.673913e+01
456.616241	1.292757	mountain	5	0	0.000000	1.440187	1	0	0	0	CorrectOmission	0.334930	0.494400	1	0	2.660870e+01
457.915833	1.306412	mountain	9	1	1.392431	1.392431	0	0	1	0	CommissionError	0.178809	0.464520	1	0	2.647826e+01
459.242126	1.346222	city	6	1	1.427122	1.427122	0	1	0	0	CorrectCommission	0.292219	0.441636	1	0	2.634783e+01
460.588287	1.346042	city	10	1	1.204896	1.204896	0	1	0	0	CorrectCommission	0.434261	0.425315	1	0	2.621739e+01
461.901031	1.279456	city	5	1	1.320162	1.320162	0	1	0	0	CorrectCommission	0.057445	0.414704	1	0	2.608696e+01
463.194031	1.306546	city	10	1	1.004082	1.004082	0	1	0	0	CorrectCommission	1.090747	0.408689	1	0	2.595652e+01
464.507019	1.319423	city	5	1	1.332112	1.332112	0	1	0	0	CorrectCommission	0.018380	0.406015	1	0	2.582609e+01
465.846558	1.359691	city	10	1	1.151069	1.151069	0	1	0	0	CorrectCommission	0.610231	0.405500	1	0	2.569565e+01
467.172852	1.292885	city	2	1	1.320019	1.320019	0	1	0	0	CorrectCommission	0.057912	0.406070	1	0	2.556522e+01
468.479065	1.319544	city	6	1	1.561039	1.561039	0	1	0	0	CorrectCommission	0.730008	0.406852	1	0	2.543478e+01
469.791901	1.306136	mountain	4	1	1.173931	1.173931	0	0	1	0	CommissionError	0.535491	0.407200	1	0	2.530435e+01
471.098114	1.306254	city	6	1	1.273950	1.273950	0	1	0	0	CorrectCommission	0.208519	0.406719	1	0	2.517391e+01
472.411011	1.319583	city	9	1	1.159993	1.159993	0	1	0	0	CorrectCommission	0.581056	0.405248	1	0	2.504348e+01
473.723969	1.306331	city	4	1	1.331274	1.331274	0	1	0	0	CorrectCommission	0.021118	0.402841	1	0	2.491304e+01
475.023590	1.292908	city	8	1	1.040560	1.040560	0	1	0	0	CorrectCommission	0.971497	0.399749	1	0	2.478261e+01
476.316437	1.292753	city	4	1	1.361938	1.361938	0	1	0	0	CorrectCommission	0.079124	0.396401	1	0	2.465217e+01
477.642670	1.359713	city	8	1	1.228489	1.228489	0	1	0	0	CorrectCommission	0.357134	0.393421	1	0	2.452174e+01
478.968964	1.292902	city	1	1	1.100974	1.100974	0	1	0	0	CorrectCommission	0.773996	0.391546	1	0	2.439130e+01
480.255127	1.279413	city	5	1	1.301378	1.301378	0	1	0	0	CorrectCommission	0.118852	0.391657	1	0	2.426087e+01
481.548065	1.306444	city	9	1	1.404378	1.404378	0	1	0	0	CorrectCommission	0.217866	0.394717	1	0	2.413043e+01
482.875427	1.348328	city	10	1	1.180892	1.180892	0	1	0	0	CorrectCommission	0.512734	0.401664	1	0	24
484.195007	1.290782	city	4	1	1.429178	1.429178	0	1	0	0	CorrectCommission	0.298939	0.413340	1	0	2.386957e+01
485.553467	1.426157	city	2	1	1.223088	1.223088	0	1	0	0	CorrectCommission	0.374790	0.430427	1	0	2.373913e+01
486.912933	1.292799	mountain	6	0	0.000000	1.362574	1	0	0	0	CorrectOmission	0.081204	0.453281	1	0	2.360870e+01
488.199127	1.279564	city	3	1	1.526351	1.526351	0	1	0	0	CorrectCommission	0.616610	0.481882	1	0	2.347826e+01
489.492096	1.306404	city	1	1	1.393136	1.393136	0	1	0	0	CorrectCommission	0.181114	0.515745	1	0	2.334783e+01
490.798370	1.306093	city	5	1	1.474394	1.474394	0	1	0	0	CorrectCommission	0.446755	0.553906	1	0	2.321739e+01
492.104523	1.306225	city	4	1	1.545457	1.545457	0	1	0	0	CorrectCommission	0.679069	0.594933	1	0	2.308696e+01
493.417480	1.319721	city	9	1	1.212107	1.212107	0	1	0	0	CorrectCommission	0.410689	0.637003	1	0	2.295652e+01
494.730408	1.306121	city	3	1	1.207967	1.207967	0	1	0	0	CorrectCommission	0.424222	0.677968	1	0	2.282609e+01
496.029968	1.292999	city	8	1	0.997304	0.997304	0	1	0	0	CorrectCommission	1.112904	0.715506	1	0	2.269565e+01
497.362823	1.372724	city	5	1	1.058476	1.058476	0	1	0	0	CorrectCommission	0.912925	0.747236	1	0	2.256522e+01
498.702393	1.306413	city	9	1	0.995681	0.995681	0	1	0	0	CorrectCommission	1.118211	0.770864	1	0	2.243478e+01
500.015289	1.319386	city	5	1	0.936232	0.936232	0	1	0	0	CorrectCommission	1.312554	0.784275	1	0	2.230435e+01
501.321533	1.293067	city	7	1	1.737780	1.737780	0	1	0	0	CorrectCommission	1.307795	0.785611	1	0	2.217391e+01
502.634430	1.332757	city	1	1	1.535233	1.535233	0	1	0	0	CorrectCommission	0.645646	0.773367	1	0	2.204348e+01
503.960602	1.319594	city	4	1	1.343781	1.343781	0	1	0	0	CorrectCommission	0.019769	0.746427	1	0	2.191304e+01
505.313507	1.386187	city	5	1	1.027217	1.027217	0	1	0	0	CorrectCommission	1.015116	0.704167	1	0	2.178261e+01
506.653168	1.293116	city	10	1	1.753261	1.753261	0	1	0	0	CorrectCommission	1.358402	0.646520	1	0	2.165217e+01
507.959381	1.319342	city	4	1	1.481236	1.481236	0	1	0	0	CorrectCommission	0.469124	0.574126	1	0	2.152174e+01
509.312225	1.386365	city	2	1	1.168171	1.168171	0	1	0	0	CorrectCommission	0.554319	0.488464	1	0	2.139130e+01
510.658539	1.306261	city	1	1	0.650121	0.650121	0	1	0	0	CorrectCommission	2.247883	0.391852	1	0	2.126087e+01
511.971375	1.319379	city	3	1	1.179727	1.179727	0	1	0	0	CorrectCommission	0.516543	0.287372	1	0	2.113043e+01
512.631042	9.224036	break	0	0	1.283041	1.283041	0	0	0	0	ThoughtProbe	0.178798	0.178798	1	21	21
