onset	duration	trial_type	image_type	Press	ReactionTime	ReactionTime_Interpolated	CorrectOmission	CorrectCommission	CommissionError	OmissionError	response_type	nonsmoothVarianceTimeCourse	VarianceTimeCourse	In_the_Zone	ThoughtProbe	ThoughtProbe_Interpolated
0.653190	1.279582	city	4	1	1.182706	1.182706	0	1	0	0	CorrectCommission	0.057614	0.057614	1	0	51
1.932761	1.279561	mountain	3	0	0.000000	1.279850	1	0	0	0	CorrectOmission	0.376351	0.178348	1	0	51
3.212328	1.279573	mountain	9	0	0.000000	1.330416	1	0	0	0	CorrectOmission	0.602236	0.295123	1	0	51
4.491858	1.279486	city	1	1	1.287822	1.287822	0	1	0	0	CorrectCommission	0.411961	0.404282	1	0	51
5.771452	1.279702	city	3	1	1.105490	1.105490	0	1	0	0	CorrectCommission	0.402553	0.502804	1	0	51
7.051077	1.279548	city	8	1	0.865131	0.865131	0	1	0	0	CorrectCommission	1.476279	0.588484	1	0	51
8.330615	1.279526	city	3	1	0.874396	0.874396	0	1	0	0	CorrectCommission	1.434890	0.660054	1	0	51
9.610194	1.279633	city	8	1	0.964910	0.964910	0	1	0	0	CorrectCommission	1.030547	0.717167	1	0	51
10.889801	1.279581	city	10	1	0.911528	0.911528	0	1	0	0	CorrectCommission	1.269018	0.760309	1	0	51
12.169390	1.279598	mountain	2	0	0.000000	1.128233	1	0	0	0	CorrectOmission	0.300954	0.790562	1	0	51
13.448930	1.279481	city	6	1	1.337452	1.337452	0	1	0	0	CorrectCommission	0.633670	0.809448	0	0	51
14.741784	1.306228	city	7	1	1.261613	1.261613	0	1	0	0	CorrectCommission	0.294882	0.818638	0	0	51
16.034742	1.279687	city	3	1	0.914348	0.914348	0	1	0	0	CorrectCommission	1.256418	0.819845	0	0	51
17.314320	1.279467	city	7	1	1.022090	1.022090	0	1	0	0	CorrectCommission	0.775115	0.814731	0	0	51
18.593899	1.279691	city	3	1	0.823542	0.823542	0	1	0	0	CorrectCommission	1.662067	0.804927	0	0	51
19.886776	1.306064	city	7	1	1.175612	1.175612	0	1	0	0	CorrectCommission	0.089301	0.792036	1	0	51
21.179628	1.279641	city	10	1	0.857786	0.857786	0	1	0	0	CorrectCommission	1.509093	0.777736	1	0	51
22.459284	1.279669	city	7	1	1.497514	1.497514	0	1	0	0	CorrectCommission	1.348697	0.763705	1	0	51
23.738907	1.279578	city	3	1	1.183244	1.183244	0	1	0	0	CorrectCommission	0.055209	0.751632	1	0	51
25.018484	1.279577	city	2	1	1.182853	1.182853	0	1	0	0	CorrectCommission	0.056956	0.743122	1	0	51
26.298061	1.279577	city	3	1	1.183637	1.183637	0	1	0	0	CorrectCommission	0.053453	0.739501	1	0	51
27.577637	1.279575	city	7	1	1.607223	1.607223	0	1	0	0	CorrectCommission	1.838785	0.741686	1	0	51
28.857220	1.279589	city	9	1	1.176931	1.176931	0	1	0	0	CorrectCommission	0.083412	0.750011	1	0	51
30.136795	1.279563	city	4	1	0.978842	0.978842	0	1	0	0	CorrectCommission	0.968311	0.764225	1	0	51
31.416376	1.279598	city	9	1	1.182790	1.182790	0	1	0	0	CorrectCommission	0.057238	0.783366	1	0	51
32.695992	1.279629	city	10	1	0.963576	0.963576	0	1	0	0	CorrectCommission	1.036508	0.805887	0	0	51
33.975521	1.279432	city	1	1	1.494733	1.494733	0	1	0	0	CorrectCommission	1.336273	0.829696	0	0	51
35.261734	1.292996	city	7	1	1.154711	1.154711	0	1	0	0	CorrectCommission	0.182671	0.852401	0	0	51
36.548027	1.279583	city	10	1	1.121925	1.121925	0	1	0	0	CorrectCommission	0.329134	0.871604	0	0	51
37.827606	1.279576	city	7	1	1.518636	1.518636	0	1	0	0	CorrectCommission	1.443051	0.885143	0	0	51
39.107182	1.279579	city	9	1	1.579632	1.579632	0	1	0	0	CorrectCommission	1.715532	0.891355	0	0	51
40.393452	1.292960	city	2	1	1.402357	1.402357	0	1	0	0	CorrectCommission	0.923613	0.889368	0	0	51
41.692955	1.306047	city	3	1	1.713476	1.713476	0	1	0	0	CorrectCommission	2.313438	0.879204	0	0	51
42.992462	1.292964	city	5	1	1.316953	1.316953	0	1	0	0	CorrectCommission	0.542095	0.861706	0	0	51
44.278717	1.279550	city	3	1	1.392061	1.392061	0	1	0	0	CorrectCommission	0.877616	0.838457	0	0	51
45.558262	1.279542	city	4	1	1.236772	1.236772	0	1	0	0	CorrectCommission	0.183912	0.811473	0	0	51
46.844563	1.293058	mountain	2	0	0.000000	1.318345	1	0	0	0	CorrectOmission	0.548314	0.782917	1	0	51
48.150810	1.319436	city	2	1	1.347545	1.347545	0	1	0	0	CorrectCommission	0.678756	0.754788	1	0	51
49.450306	1.279554	city	5	1	1.035138	1.035138	0	1	0	0	CorrectCommission	0.716826	0.728678	1	0	51
50.749901	1.319636	city	6	1	1.092846	1.092846	0	1	0	0	CorrectCommission	0.459034	0.705672	1	0	51
52.056175	1.292918	city	8	1	1.109262	1.109262	0	1	0	0	CorrectCommission	0.385699	0.686354	1	0	51
53.362389	1.319502	city	4	1	1.021288	1.021288	0	1	0	0	CorrectCommission	0.778697	0.670848	1	0	51
54.688656	1.333035	city	9	1	1.107875	1.107875	0	1	0	0	CorrectCommission	0.391898	0.659006	1	0	51
56.008293	1.306243	city	8	1	0.885297	0.885297	0	1	0	0	CorrectCommission	1.386193	0.650581	1	0	51
57.307865	1.292897	city	5	1	0.926016	0.926016	0	1	0	0	CorrectCommission	1.204294	0.645363	1	0	51
57.954311	8.690177	break	0	1	1.245602	1.245602	0	0	0	0	ThoughtProbe	0.223355	0.643277	1	51	51
67.284355	1.279736	city	6	1	1.235027	1.235027	0	1	0	0	CorrectCommission	0.176114	0.644411	1	0	5.244118e+01
68.564034	1.279611	city	2	1	1.087483	1.087483	0	1	0	0	CorrectCommission	0.482991	0.648918	1	0	5.388235e+01
69.863686	1.319699	city	4	1	1.025565	1.025565	0	1	0	0	CorrectCommission	0.759593	0.656946	1	0	5.532353e+01
71.163322	1.279577	mountain	2	0	0.000000	1.222072	1	0	0	0	CorrectOmission	0.118242	0.668582	1	0	5.676471e+01
72.449440	1.292647	city	7	1	1.315642	1.315642	0	1	0	0	CorrectCommission	0.536240	0.683808	1	0	5.820588e+01
73.749008	1.306503	city	2	1	0.944914	0.944914	0	1	0	0	CorrectCommission	1.119874	0.702429	1	0	5.964706e+01
75.041985	1.279443	city	9	1	0.911822	0.911822	0	1	0	0	CorrectCommission	1.267703	0.724149	1	0	6.108824e+01
76.328133	1.292852	city	10	1	1.176270	1.176270	0	1	0	0	CorrectCommission	0.086364	0.748623	1	0	6.252941e+01
77.614433	1.279752	city	5	1	1.357262	1.357262	0	1	0	0	CorrectCommission	0.722165	0.775484	1	0	6.397059e+01
78.894020	1.279423	city	9	1	1.463379	1.463379	0	1	0	0	CorrectCommission	1.196210	0.804357	0	0	6.541176e+01
80.206886	1.346301	city	5	1	1.261902	1.261902	0	1	0	0	CorrectCommission	0.296173	0.834813	0	0	6.685294e+01
81.533188	1.306311	city	3	1	1.067170	1.067170	0	1	0	0	CorrectCommission	0.573733	0.866401	0	0	6.829412e+01
82.832726	1.292759	city	6	1	0.823147	0.823147	0	1	0	0	CorrectCommission	1.663829	0.898488	0	0	6.973529e+01
84.158958	1.359705	city	7	1	1.578165	1.578165	0	1	0	0	CorrectCommission	1.708980	0.930202	0	0	7.117647e+01
85.492508	1.307398	city	5	1	1.243619	1.243619	0	1	0	0	CorrectCommission	0.214496	0.960413	0	0	7.261765e+01
86.785416	1.278413	city	8	1	1.183415	1.183415	0	1	0	0	CorrectCommission	0.054445	0.987728	0	0	7.405882e+01
88.071075	1.292900	city	2	1	0.929749	0.929749	0	1	0	0	CorrectCommission	1.187618	1.010509	0	0	7.550000e+01
89.370651	1.306264	city	6	1	1.006785	1.006785	0	1	0	0	CorrectCommission	0.843486	1.027042	0	0	7.694118e+01
90.663475	1.279384	city	3	1	0.862335	0.862335	0	1	0	0	CorrectCommission	1.488770	1.035855	0	0	7.838235e+01
91.956375	1.306411	city	5	1	0.881977	0.881977	0	1	0	0	CorrectCommission	1.401028	1.035918	0	0	7.982353e+01
93.282700	1.346234	city	6	1	0.773021	0.773021	0	1	0	0	CorrectCommission	1.887753	1.026977	0	0	8.126471e+01
94.602280	1.292924	mountain	10	1	0.754590	0.754590	0	0	1	0	CommissionError	1.970090	1.009696	0	0	8.270588e+01
95.888512	1.279551	city	8	1	1.472135	1.472135	0	1	0	0	CorrectCommission	1.235321	0.985691	0	0	8.414706e+01
97.174744	1.292914	city	5	1	1.369841	1.369841	0	1	0	0	CorrectCommission	0.778354	0.957391	0	0	8.558824e+01
98.467667	1.292927	city	9	1	1.197205	1.197205	0	1	0	0	CorrectCommission	0.007158	0.927696	0	0	8.702941e+01
99.793900	1.359544	city	2	1	1.062455	1.062455	0	1	0	0	CorrectCommission	0.594795	0.899597	0	0	8.847059e+01
101.160118	1.372892	city	6	1	1.089578	1.089578	0	1	0	0	CorrectCommission	0.473631	0.875707	0	0	8.991176e+01
102.493011	1.292888	city	7	1	1.042217	1.042217	0	1	0	0	CorrectCommission	0.685203	0.857920	0	0	9.135294e+01
103.785835	1.292756	city	4	1	0.876079	0.876079	0	1	0	0	CorrectCommission	1.427373	0.847133	0	0	9.279412e+01
105.072090	1.279751	city	8	1	1.193894	1.193894	0	1	0	0	CorrectCommission	0.007634	0.843163	0	0	9.423529e+01
106.351669	1.279410	city	9	1	1.369610	1.369610	0	1	0	0	CorrectCommission	0.777323	0.844857	0	0	9.567647e+01
107.637909	1.293070	city	1	1	1.312025	1.312025	0	1	0	0	CorrectCommission	0.520082	0.850246	0	0	9.711765e+01
108.944214	1.319547	city	2	1	1.366944	1.366944	0	1	0	0	CorrectCommission	0.765412	0.856987	0	0	9.855882e+01
112.363037	5.518097	break	0	0	0.000000	1.511818	0	0	0	0	ThoughtProbe	1.412593	0.862735	0	100	100
115.761848	1.279531	city	7	1	1.474923	1.474923	0	1	0	0	CorrectCommission	1.247776	0.865561	0	0	9.926087e+01
117.048141	1.293047	city	9	1	0.984534	0.984534	0	1	0	0	CorrectCommission	0.942885	0.864288	0	0	9.852174e+01
118.341118	1.292901	city	3	1	0.930346	0.930346	0	1	0	0	CorrectCommission	1.184954	0.858742	0	0	9.778261e+01
119.660683	1.346241	city	10	1	0.867186	0.867186	0	1	0	0	CorrectCommission	1.467099	0.849700	0	0	9.704348e+01
120.973587	1.279564	city	3	1	0.984514	0.984514	0	1	0	0	CorrectCommission	0.942975	0.838718	0	0	9.630435e+01
122.273117	1.319487	city	6	1	0.971064	0.971064	0	1	0	0	CorrectCommission	1.003059	0.827831	0	0	9.556522e+01
123.572624	1.279533	city	1	1	1.125023	1.125023	0	1	0	0	CorrectCommission	0.315293	0.819055	0	0	9.482609e+01
124.872154	1.319528	city	10	1	1.183730	1.183730	0	1	0	0	CorrectCommission	0.053037	0.813966	0	0	9.408696e+01
126.185059	1.306282	city	9	1	1.106632	1.106632	0	1	0	0	CorrectCommission	0.397447	0.813293	0	0	9.334783e+01
127.478050	1.279694	city	10	1	1.151792	1.151792	0	1	0	0	CorrectCommission	0.195710	0.816688	0	0	9.260870e+01
128.771011	1.306240	city	8	1	1.156601	1.156601	0	1	0	0	CorrectCommission	0.174229	0.822794	0	0	9.186957e+01
130.077255	1.306230	mountain	2	0	0.000000	1.004616	1	0	0	0	CorrectOmission	0.853172	0.829458	0	0	9.113043e+01
131.376831	1.292934	mountain	4	0	0.000000	0.821802	1	0	0	0	CorrectOmission	1.669838	0.834126	0	0	9.039130e+01
132.669708	1.292813	city	9	1	0.734121	0.734121	0	1	0	0	CorrectCommission	2.061526	0.834331	0	0	8.965217e+01
133.962524	1.292828	city	5	1	0.867537	0.867537	0	1	0	0	CorrectCommission	1.465533	0.828165	0	0	8.891304e+01
135.262146	1.306415	city	2	1	0.953627	0.953627	0	1	0	0	CorrectCommission	1.080952	0.814637	0	0	8.817391e+01
136.561813	1.292905	city	1	1	1.340625	1.340625	0	1	0	0	CorrectCommission	0.647841	0.793791	0	0	8.743478e+01
137.901352	1.386191	city	9	1	1.096832	1.096832	0	1	0	0	CorrectCommission	0.441226	0.766708	1	0	8.669565e+01
139.247513	1.306123	mountain	10	0	0.000000	1.253492	1	0	0	0	CorrectOmission	0.258600	0.735260	1	0	8.595652e+01
140.540359	1.279580	city	6	1	1.410615	1.410615	0	1	0	0	CorrectCommission	0.960503	0.701811	1	0	8.521739e+01
141.826660	1.293018	city	1	1	1.168217	1.168217	0	1	0	0	CorrectCommission	0.122337	0.668872	1	0	8.447826e+01
143.126205	1.306073	city	10	1	0.909422	0.909422	0	1	0	0	CorrectCommission	1.278423	0.638789	1	0	8.373913e+01
144.419128	1.279770	city	6	1	1.343269	1.343269	0	1	0	0	CorrectCommission	0.659654	0.613435	1	0	83
145.698730	1.279432	city	3	1	1.231581	1.231581	0	1	0	0	CorrectCommission	0.160721	0.594095	1	0	8.226087e+01
146.978226	1.279559	city	2	1	1.144945	1.144945	0	1	0	0	CorrectCommission	0.226296	0.581327	1	0	8.152174e+01
148.257874	1.279724	city	7	1	1.144952	1.144952	0	1	0	0	CorrectCommission	0.226268	0.574948	1	0	8.078261e+01
149.551102	1.306728	city	9	1	1.104155	1.104155	0	1	0	0	CorrectCommission	0.408512	0.574158	1	0	8.004348e+01
150.857269	1.305609	city	3	1	1.034901	1.034901	0	1	0	0	CorrectCommission	0.717883	0.577678	1	0	7.930435e+01
152.163208	1.306287	city	5	1	1.185272	1.185272	0	1	0	0	CorrectCommission	0.046150	0.583975	1	0	7.856522e+01
153.456192	1.279666	city	7	1	1.378916	1.378916	0	1	0	0	CorrectCommission	0.818895	0.591523	1	0	7.782609e+01
154.742447	1.292834	city	5	1	1.497313	1.497313	0	1	0	0	CorrectCommission	1.347798	0.598944	1	0	7.708696e+01
156.041962	1.306225	city	7	1	1.430348	1.430348	0	1	0	0	CorrectCommission	1.048654	0.605215	1	0	7.634783e+01
157.348175	1.306189	city	8	1	1.407660	1.407660	0	1	0	0	CorrectCommission	0.947300	0.609704	1	0	7.560870e+01
158.667786	1.333020	city	10	1	1.245305	1.245305	0	1	0	0	CorrectCommission	0.222028	0.612130	1	0	7.486957e+01
159.980667	1.292752	mountain	10	1	1.192935	1.192935	0	0	1	0	CommissionError	0.011916	0.612483	1	0	7.413043e+01
161.266922	1.279756	city	1	1	1.318319	1.318319	0	1	0	0	CorrectCommission	0.548197	0.610879	1	0	7.339130e+01
162.553192	1.292793	city	5	1	1.366282	1.366282	0	1	0	0	CorrectCommission	0.762455	0.607444	1	0	7.265217e+01
163.846115	1.293031	city	4	1	1.351150	1.351150	0	1	0	0	CorrectCommission	0.694859	0.602261	1	0	7.191304e+01
165.132370	1.279487	city	9	1	1.152513	1.152513	0	1	0	0	CorrectCommission	0.192492	0.595405	1	0	7.117391e+01
166.418518	1.292809	city	8	1	0.986720	0.986720	0	1	0	0	CorrectCommission	0.933120	0.587010	1	0	7.043478e+01
167.718124	1.306411	city	7	1	1.056311	1.056311	0	1	0	0	CorrectCommission	0.622241	0.577369	1	0	6.969565e+01
169.017776	1.292899	city	4	1	1.004767	1.004767	0	1	0	0	CorrectCommission	0.852500	0.567067	1	0	6.895652e+01
170.310623	1.292775	city	3	1	0.986708	0.986708	0	1	0	0	CorrectCommission	0.933172	0.557040	1	0	6.821739e+01
171.616867	1.319725	city	5	1	1.030374	1.030374	0	1	0	0	CorrectCommission	0.738106	0.548523	1	0	6.747826e+01
172.923080	1.292717	city	2	1	1.155502	1.155502	0	1	0	0	CorrectCommission	0.179139	0.542984	1	0	6.673913e+01
175.895355	4.651821	break	0	0	0.000000	1.255785	0	0	0	0	ThoughtProbe	0.268845	0.541865	1	66	66
178.887787	1.333037	city	3	1	1.285598	1.285598	0	1	0	0	CorrectCommission	0.402025	0.546348	1	0	6.565000e+01
180.200775	1.292936	city	4	1	1.199315	1.199315	0	1	0	0	CorrectCommission	0.016585	0.557121	1	0	6.530000e+01
181.487030	1.279572	city	8	1	1.098229	1.098229	0	1	0	0	CorrectCommission	0.434989	0.574193	1	0	6.495000e+01
182.779892	1.306145	city	7	1	1.138045	1.138045	0	1	0	0	CorrectCommission	0.257120	0.596776	1	0	6.460000e+01
184.079453	1.292983	city	8	1	0.976611	0.976611	0	1	0	0	CorrectCommission	0.978278	0.623368	1	0	6.425000e+01
185.392303	1.332736	city	4	1	1.222365	1.222365	0	1	0	0	CorrectCommission	0.119553	0.651904	1	0	6.390000e+01
186.705276	1.293208	city	5	1	1.249998	1.249998	0	1	0	0	CorrectCommission	0.242995	0.680034	1	0	6.355000e+01
187.991608	1.279439	mountain	8	0	0.000000	1.457623	1	0	0	0	CorrectOmission	1.170494	0.705456	1	0	6.320000e+01
189.271118	1.279584	city	7	1	1.628225	1.628225	0	1	0	0	CorrectCommission	1.932608	0.726209	1	0	6.285000e+01
190.564011	1.306198	mountain	2	0	0.000000	1.544792	1	0	0	0	CorrectOmission	1.559894	0.740966	1	0	6.250000e+01
191.856842	1.279484	city	5	1	1.315561	1.315561	0	1	0	0	CorrectCommission	0.535876	0.749166	1	0	6.215000e+01
193.136368	1.279571	city	1	1	1.048773	1.048773	0	1	0	0	CorrectCommission	0.655916	0.751017	1	0	6.180000e+01
194.415939	1.279557	city	7	1	1.304052	1.304052	0	1	0	0	CorrectCommission	0.484465	0.747381	1	0	6.145000e+01
195.715515	1.319589	city	9	1	1.086627	1.086627	0	1	0	0	CorrectCommission	0.486816	0.739600	1	0	6.110000e+01
197.028503	1.306400	city	1	1	1.085336	1.085336	0	1	0	0	CorrectCommission	0.492584	0.729303	1	0	6.075000e+01
198.348099	1.332798	city	8	1	1.057693	1.057693	0	1	0	0	CorrectCommission	0.616067	0.718222	1	0	6.040000e+01
199.674316	1.319636	city	9	1	1.056055	1.056055	0	1	0	0	CorrectCommission	0.623386	0.708048	1	0	6.005000e+01
200.993851	1.319419	city	4	1	0.720667	0.720667	0	1	0	0	CorrectCommission	2.121628	0.700336	1	0	5.970000e+01
202.293427	1.279745	city	10	1	1.203774	1.203774	0	1	0	0	CorrectCommission	0.036503	0.696386	1	0	5.935000e+01
203.573044	1.279467	city	5	1	1.234553	1.234553	0	1	0	0	CorrectCommission	0.173997	0.697309	1	0	59
204.872604	1.319658	city	9	1	1.046492	1.046492	0	1	0	0	CorrectCommission	0.666106	0.703829	1	0	5.865000e+01
206.172226	1.279586	mountain	9	0	0.000000	1.028037	1	0	0	0	CorrectOmission	0.748548	0.716289	1	0	5.830000e+01
207.465134	1.306234	city	2	1	1.104038	1.104038	0	1	0	0	CorrectCommission	0.409039	0.734532	1	0	5.795000e+01
208.757965	1.279422	city	6	1	1.199344	1.199344	0	1	0	0	CorrectCommission	0.016713	0.757965	1	0	5.760000e+01
210.037552	1.279755	city	7	1	1.551034	1.551034	0	1	0	0	CorrectCommission	1.587781	0.785554	1	0	5.725000e+01
211.330490	1.306139	city	9	1	1.230679	1.230679	0	1	0	0	CorrectCommission	0.156693	0.815909	0	0	5.690000e+01
212.649979	1.332833	city	7	1	0.969429	0.969429	0	1	0	0	CorrectCommission	1.010362	0.847503	0	0	5.655000e+01
213.962921	1.293044	city	2	1	0.998208	0.998208	0	1	0	0	CorrectCommission	0.881802	0.878818	0	0	5.620000e+01
215.269226	1.319577	city	10	1	0.852514	0.852514	0	1	0	0	CorrectCommission	1.532642	0.908578	0	0	5.585000e+01
216.575394	1.292738	city	5	1	0.994243	0.994243	0	1	0	0	CorrectCommission	0.899512	0.935866	0	0	5.550000e+01
217.888290	1.333081	city	9	1	1.005741	1.005741	0	1	0	0	CorrectCommission	0.848149	0.960302	0	0	5.515000e+01
219.207947	1.306211	city	10	1	0.803793	0.803793	0	1	0	0	CorrectCommission	1.750288	0.982009	0	0	5.480000e+01
220.500839	1.279582	city	3	1	1.420713	1.420713	0	1	0	0	CorrectCommission	1.005610	1.001568	0	0	5.445000e+01
221.787003	1.292751	city	8	1	1.277643	1.277643	0	1	0	0	CorrectCommission	0.366491	1.019864	0	0	5.410000e+01
223.099838	1.332921	city	6	1	0.902992	0.902992	0	1	0	0	CorrectCommission	1.307150	1.037852	0	0	5.375000e+01
224.439484	1.346351	city	7	1	0.964774	0.964774	0	1	0	0	CorrectCommission	1.031156	1.056289	0	0	5.340000e+01
225.765778	1.306259	city	10	1	1.017645	1.017645	0	1	0	0	CorrectCommission	0.794970	1.075542	0	0	5.305000e+01
227.085342	1.332873	city	2	1	1.259577	1.259577	0	1	0	0	CorrectCommission	0.285787	1.095463	0	0	5.270000e+01
228.411575	1.319591	city	3	1	0.926444	0.926444	0	1	0	0	CorrectCommission	1.202385	1.115294	0	0	5.235000e+01
232.210266	6.277767	break	0	0	0.000000	1.456693	0	0	0	0	ThoughtProbe	1.166338	1.133698	0	52	52
235.988983	1.279677	city	3	1	1.870859	1.870859	0	1	0	0	CorrectCommission	3.016501	1.148966	0	0	5.211765e+01
237.295212	1.332780	city	4	1	1.189480	1.189480	0	1	0	0	CorrectCommission	0.027353	1.159179	0	0	5.223529e+01
238.621475	1.319748	city	7	1	1.003760	1.003760	0	1	0	0	CorrectCommission	0.857000	1.162604	0	0	5.235294e+01
239.927795	1.292886	city	8	1	0.894843	0.894843	0	1	0	0	CorrectCommission	1.343553	1.157747	0	0	5.247059e+01
241.214020	1.279570	city	3	1	0.830920	0.830920	0	1	0	0	CorrectCommission	1.629108	1.143744	0	0	5.258824e+01
242.506866	1.306114	mountain	6	1	0.929163	0.929163	0	0	1	0	CommissionError	1.190235	1.120560	0	0	5.270588e+01
243.799744	1.279643	city	6	1	1.658499	1.658499	0	1	0	0	CorrectCommission	2.067848	1.089076	0	0	5.282353e+01
245.099396	1.319655	city	5	1	1.572686	1.572686	0	1	0	0	CorrectCommission	1.684504	1.051097	0	0	5.294118e+01
246.405655	1.292882	city	2	1	1.311250	1.311250	0	1	0	0	CorrectCommission	0.516619	1.009259	0	0	5.305882e+01
247.705231	1.306265	city	10	1	0.942351	0.942351	0	1	0	0	CorrectCommission	1.131322	0.966783	0	0	5.317647e+01
249.011475	1.306203	city	7	1	1.243032	1.243032	0	1	0	0	CorrectCommission	0.211875	0.927122	0	0	5.329412e+01
250.304367	1.279592	city	4	1	1.055369	1.055369	0	1	0	0	CorrectCommission	0.626451	0.893674	0	0	5.341176e+01
251.590607	1.292904	city	9	1	1.101552	1.101552	0	1	0	0	CorrectCommission	0.420141	0.869391	0	0	5.352941e+01
252.890198	1.306260	city	7	1	1.085638	1.085638	0	1	0	0	CorrectCommission	0.491232	0.856530	0	0	5.364706e+01
254.189697	1.292748	city	9	1	0.944257	0.944257	0	1	0	0	CorrectCommission	1.122810	0.856497	0	0	5.376471e+01
255.482559	1.292958	city	7	1	1.191920	1.191920	0	1	0	0	CorrectCommission	0.016450	0.869766	0	0	5.388235e+01
256.768860	1.279687	city	6	1	1.557811	1.557811	0	1	0	0	CorrectCommission	1.618053	0.895908	0	0	54
258.055176	1.292903	city	4	1	1.219653	1.219653	0	1	0	0	CorrectCommission	0.107435	0.933629	0	0	5.411765e+01
259.341339	1.279430	city	10	1	1.018213	1.018213	0	1	0	0	CorrectCommission	0.792434	0.981040	0	0	5.423529e+01
260.620911	1.279739	mountain	4	0	0.000000	1.167800	1	0	0	0	CorrectOmission	0.124198	1.035672	0	0	5.435294e+01
261.900574	1.279572	city	6	1	1.523649	1.523649	0	1	0	0	CorrectCommission	1.465444	1.094730	0	0	5.447059e+01
263.193481	1.306222	city	7	1	1.940990	1.940990	0	1	0	0	CorrectCommission	3.329789	1.155172	0	0	5.458824e+01
264.512939	1.332707	city	1	1	1.315546	1.315546	0	1	0	0	CorrectCommission	0.535808	1.213802	0	0	5.470588e+01
265.819092	1.279625	city	6	1	1.317039	1.317039	0	1	0	0	CorrectCommission	0.542480	1.267555	0	0	5.482353e+01
267.125458	1.333058	city	9	1	0.991106	0.991106	0	1	0	0	CorrectCommission	0.913528	1.313406	0	0	5.494118e+01
268.431671	1.279389	city	5	1	0.822532	0.822532	0	1	0	0	CorrectCommission	1.666578	1.348515	0	0	5.505882e+01
269.717896	1.293072	city	8	1	0.858846	0.858846	0	1	0	0	CorrectCommission	1.504357	1.370408	0	0	5.517647e+01
271.017578	1.306263	city	4	1	1.698075	1.698075	0	1	0	0	CorrectCommission	2.244639	1.377203	0	0	5.529412e+01
272.330475	1.319535	city	5	1	1.538909	1.538909	0	1	0	0	CorrectCommission	1.533615	1.367758	0	0	5.541176e+01
273.643341	1.306240	city	7	1	1.686007	1.686007	0	1	0	0	CorrectCommission	2.190729	1.341917	0	0	5.552941e+01
274.956268	1.319568	city	10	0	0.000000	1.640900	0	0	0	1	OmissionError	1.989226	1.300573	0	0	5.564706e+01
276.262482	1.292868	city	2	1	1.519140	1.519140	0	1	0	0	CorrectCommission	1.445304	1.245662	0	0	5.576471e+01
277.568726	1.319602	city	10	1	1.436282	1.436282	0	1	0	0	CorrectCommission	1.075162	1.180071	0	0	5.588235e+01
281.607330	6.757625	break	0	0	0.000000	1.448495	0	0	0	0	ThoughtProbe	1.129718	1.107358	0	56	56
285.625946	1.279630	city	9	1	1.419527	1.419527	0	1	0	0	CorrectCommission	1.000311	1.031435	0	0	5.669565e+01
286.945587	1.359658	city	6	1	1.213127	1.213127	0	1	0	0	CorrectCommission	0.078284	0.956241	0	0	5.739130e+01
288.278473	1.306121	city	4	1	1.136000	1.136000	0	1	0	0	CorrectCommission	0.266256	0.885432	0	0	5.808696e+01
289.597961	1.332842	city	5	1	0.802995	0.802995	0	1	0	0	CorrectCommission	1.753853	0.822118	0	0	5.878261e+01
290.904175	1.279595	city	6	1	1.157668	1.157668	0	1	0	0	CorrectCommission	0.169460	0.768634	1	0	5.947826e+01
292.210419	1.332878	city	10	1	1.025160	1.025160	0	1	0	0	CorrectCommission	0.761401	0.726574	1	0	6.017391e+01
293.536682	1.319624	city	2	1	1.286699	1.286699	0	1	0	0	CorrectCommission	0.406943	0.696651	1	0	6.086957e+01
294.842987	1.293014	city	9	1	1.208451	1.208451	0	1	0	0	CorrectCommission	0.057394	0.678795	1	0	6.156522e+01
296.135956	1.292913	city	10	1	1.102393	1.102393	0	1	0	0	CorrectCommission	0.416387	0.672216	1	0	6.226087e+01
297.422150	1.279465	mountain	10	1	1.489547	1.489547	0	0	1	0	CommissionError	1.313104	0.675447	1	0	6.295652e+01
298.721710	1.319675	city	5	1	1.161517	1.161517	0	1	0	0	CorrectCommission	0.152268	0.686559	1	0	6.365217e+01
300.021271	1.279414	mountain	6	0	0.000000	1.156953	1	0	0	0	CorrectOmission	0.172657	0.703333	1	0	6.434783e+01
301.307495	1.293074	city	4	1	1.307873	1.307873	0	1	0	0	CorrectCommission	0.501531	0.723367	1	0	6.504348e+01
302.607178	1.306244	city	2	1	1.446295	1.446295	0	1	0	0	CorrectCommission	1.119892	0.744284	1	0	6.573913e+01
303.913330	1.306064	city	4	1	1.522693	1.522693	0	1	0	0	CorrectCommission	1.461173	0.763905	1	0	6.643478e+01
305.212891	1.293076	city	7	1	1.520522	1.520522	0	1	0	0	CorrectCommission	1.451478	0.780409	1	0	6.713043e+01
306.519135	1.319400	city	8	1	1.291354	1.291354	0	1	0	0	CorrectCommission	0.427739	0.792470	1	0	6.782609e+01
307.818634	1.279643	mountain	3	0	0.000000	1.056834	1	0	0	0	CorrectOmission	0.619907	0.799321	0	0	6.852174e+01
309.111633	1.306361	city	3	1	0.999820	0.999820	0	1	0	0	CorrectCommission	0.874598	0.800751	0	0	6.921739e+01
310.444550	1.359467	city	6	1	1.303172	1.303172	0	1	0	0	CorrectCommission	0.480531	0.797135	0	0	6.991304e+01
311.764130	1.279661	city	1	1	1.391766	1.391766	0	1	0	0	CorrectCommission	0.876300	0.789410	1	0	7.060870e+01
313.050415	1.292888	city	10	0	0.000000	1.469111	0	0	0	1	OmissionError	1.221814	0.778970	1	0	7.130435e+01
314.343323	1.292932	city	6	1	1.488213	1.488213	0	1	0	0	CorrectCommission	1.307146	0.767595	1	0	72
315.649536	1.319547	mountain	3	0	0.000000	1.402078	1	0	0	0	CorrectOmission	0.922366	0.757326	1	0	7.269565e+01
316.975677	1.332729	city	8	1	1.231630	1.231630	0	1	0	0	CorrectCommission	0.160941	0.750224	1	0	7.339130e+01
318.295258	1.306397	city	3	1	0.997791	0.997791	0	1	0	0	CorrectCommission	0.883663	0.748133	1	0	7.408696e+01
319.614899	1.332900	city	9	1	1.176426	1.176426	0	1	0	0	CorrectCommission	0.085664	0.752390	1	0	7.478261e+01
320.927765	1.292827	city	10	1	1.034781	1.034781	0	1	0	0	CorrectCommission	0.718421	0.763636	1	0	7.547826e+01
322.233978	1.319577	city	2	1	1.210472	1.210472	0	1	0	0	CorrectCommission	0.066423	0.781598	1	0	7.617391e+01
323.566895	1.346294	city	3	1	1.167843	1.167843	0	1	0	0	CorrectCommission	0.124007	0.805114	0	0	7.686957e+01
324.879852	1.279603	city	6	1	1.421674	1.421674	0	1	0	0	CorrectCommission	1.009901	0.832204	0	0	7.756522e+01
326.159454	1.279587	city	4	1	1.481874	1.481874	0	1	0	0	CorrectCommission	1.278827	0.860263	0	0	7.826087e+01
327.452332	1.306202	city	3	1	1.625759	1.625759	0	1	0	0	CorrectCommission	1.921591	0.886432	0	0	7.895652e+01
328.778564	1.346245	city	6	0	0.000000	1.332758	0	0	0	1	OmissionError	0.612700	0.907937	0	0	7.965217e+01
330.124786	1.346205	city	2	1	0.992749	0.992749	0	1	0	0	CorrectCommission	0.906188	0.922492	0	0	8.034783e+01
331.451019	1.306256	city	7	1	0.995607	0.995607	0	1	0	0	CorrectCommission	0.893420	0.928507	0	0	8.104348e+01
332.757172	1.306085	city	8	1	0.887897	0.887897	0	1	0	0	CorrectCommission	1.374582	0.925335	0	0	8.173913e+01
334.056702	1.292925	city	10	1	0.911877	0.911877	0	1	0	0	CorrectCommission	1.267457	0.913320	0	0	8.243478e+01
335.342987	1.279690	city	6	1	1.540518	1.540518	0	1	0	0	CorrectCommission	1.540801	0.893815	0	0	8.313043e+01
336.635956	1.306232	city	7	1	1.448136	1.448136	0	1	0	0	CorrectCommission	1.128116	0.868923	0	0	8.382609e+01
337.935455	1.292787	city	1	1	1.274212	1.274212	0	1	0	0	CorrectCommission	0.351165	0.841302	0	0	8.452174e+01
339.228394	1.293039	city	5	1	1.275782	1.275782	0	1	0	0	CorrectCommission	0.358176	0.813794	0	0	8.521739e+01
340.514648	1.279486	city	7	1	1.415601	1.415601	0	1	0	0	CorrectCommission	0.982774	0.789057	1	0	8.591304e+01
341.840881	1.372969	city	9	1	1.167519	1.167519	0	1	0	0	CorrectCommission	0.125455	0.769292	1	0	8.660870e+01
343.187164	1.319589	city	4	1	0.987272	0.987272	0	1	0	0	CorrectCommission	0.930651	0.756032	1	0	8.730435e+01
346.605957	5.518025	break	0	0	0.000000	1.177494	0	0	0	0	ThoughtProbe	0.080893	0.749977	1	88	88
350.018097	1.306268	city	7	1	1.347368	1.347368	0	1	0	0	CorrectCommission	0.677965	0.751116	1	0	8.680000e+01
351.330994	1.319509	city	6	1	1.106076	1.106076	0	1	0	0	CorrectCommission	0.399931	0.758771	1	0	8.560000e+01
352.650635	1.319743	city	9	1	1.354858	1.354858	0	1	0	0	CorrectCommission	0.711423	0.771871	1	0	8.440000e+01
353.996918	1.372858	mountain	4	0	0.000000	1.533920	1	0	0	0	CorrectOmission	1.511326	0.789175	1	0	8.320000e+01
355.323151	1.279590	city	3	1	1.530467	1.530467	0	1	0	0	CorrectCommission	1.495905	0.809498	0	0	82
356.649384	1.372906	city	9	1	1.231707	1.231707	0	1	0	0	CorrectCommission	0.161285	0.831871	0	0	8.080000e+01
357.982208	1.292723	city	8	1	1.071356	1.071356	0	1	0	0	CorrectCommission	0.555035	0.855626	0	0	7.960000e+01
359.281708	1.306286	city	6	1	0.887924	0.887924	0	1	0	0	CorrectCommission	1.374457	0.880327	0	0	7.840000e+01
360.581360	1.293030	city	10	1	0.978293	0.978293	0	1	0	0	CorrectCommission	0.970763	0.905674	0	0	7.720000e+01
361.867676	1.279589	city	2	1	1.369941	1.369941	0	1	0	0	CorrectCommission	0.778803	0.931462	0	0	76
363.167236	1.319542	city	9	1	1.165224	1.165224	0	1	0	0	CorrectCommission	0.135708	0.957348	0	0	7.480000e+01
364.486816	1.319573	city	1	1	0.889331	0.889331	0	1	0	0	CorrectCommission	1.368176	0.982817	0	0	7.360000e+01
365.786316	1.279436	mountain	3	0	0.000000	1.264651	1	0	0	0	CorrectOmission	0.308453	1.007071	0	0	7.240000e+01
367.079132	1.306212	city	8	1	1.658757	1.658757	0	1	0	0	CorrectCommission	2.068999	1.029175	0	0	7.120000e+01
368.392120	1.319754	city	7	1	1.439220	1.439220	0	1	0	0	CorrectCommission	1.088285	1.048025	0	0	70
369.691772	1.279582	city	9	1	1.337363	1.337363	0	1	0	0	CorrectCommission	0.633269	1.062589	0	0	6.880000e+01
370.977997	1.292853	city	7	1	1.641146	1.641146	0	1	0	0	CorrectCommission	1.990325	1.071967	0	0	6.760000e+01
372.284241	1.319621	city	6	1	1.521827	1.521827	0	1	0	0	CorrectCommission	1.457304	1.075482	0	0	6.640000e+01
373.590454	1.292800	city	1	1	1.332695	1.332695	0	1	0	0	CorrectCommission	0.612418	1.072788	0	0	6.520000e+01
374.876678	1.279683	city	5	1	1.382990	1.382990	0	1	0	0	CorrectCommission	0.837094	1.063914	0	0	64
376.176300	1.319544	city	6	1	1.466525	1.466525	0	1	0	0	CorrectCommission	1.210263	1.049235	0	0	6.280000e+01
377.522461	1.372771	city	7	1	1.296000	1.296000	0	1	0	0	CorrectCommission	0.448496	1.029493	0	0	6.160000e+01
378.868622	1.319538	city	3	1	0.814033	0.814033	0	1	0	0	CorrectCommission	1.704544	1.005781	0	0	6.040000e+01
380.188232	1.319722	city	5	1	0.773383	0.773383	0	1	0	0	CorrectCommission	1.886135	0.979471	0	0	5.920000e+01
381.507843	1.319478	city	1	1	0.969418	0.969418	0	1	0	0	CorrectCommission	1.010410	0.952141	0	0	58
382.807434	1.279679	mountain	9	0	0.000000	1.045880	1	0	0	0	CorrectOmission	0.668842	0.925453	0	0	5.680000e+01
384.106934	1.319370	city	1	1	1.100544	1.100544	0	1	0	0	CorrectCommission	0.424646	0.900949	0	0	5.560000e+01
385.419830	1.306407	city	3	1	1.231186	1.231186	0	1	0	0	CorrectCommission	0.158959	0.879880	0	0	5.440000e+01
386.726166	1.306258	city	1	1	0.929831	0.929831	0	1	0	0	CorrectCommission	1.187253	0.863019	0	0	5.320000e+01
388.058990	1.359377	city	9	1	1.104732	1.104732	0	1	0	0	CorrectCommission	0.405938	0.850496	0	0	52
389.385132	1.292894	city	3	1	0.974831	0.974831	0	1	0	0	CorrectCommission	0.986229	0.841840	0	0	5.080000e+01
390.704712	1.346280	city	1	1	1.307281	1.307281	0	1	0	0	CorrectCommission	0.498888	0.835944	0	0	4.960000e+01
392.030975	1.306266	city	7	1	1.454789	1.454789	0	1	0	0	CorrectCommission	1.157835	0.831271	0	0	4.840000e+01
393.330627	1.293008	city	10	1	1.412058	1.412058	0	1	0	0	CorrectCommission	0.966946	0.825946	0	0	4.720000e+01
394.656860	1.359485	city	6	1	1.398575	1.398575	0	1	0	0	CorrectCommission	0.906716	0.818122	0	0	46
396.043060	1.412913	city	8	1	1.068665	1.068665	0	1	0	0	CorrectCommission	0.567056	0.806111	0	0	4.480000e+01
397.409302	1.319572	city	3	1	0.914430	0.914430	0	1	0	0	CorrectCommission	1.256050	0.788688	1	0	4.360000e+01
398.728882	1.319584	city	8	1	0.963686	0.963686	0	1	0	0	CorrectCommission	1.036015	0.765227	1	0	4.240000e+01
400.041687	1.306052	city	9	1	1.058777	1.058777	0	1	0	0	CorrectCommission	0.611229	0.735832	1	0	4.120000e+01
404.340210	7.290951	break	0	1	0.848238	0.848238	0	0	0	0	ThoughtProbe	1.551746	0.701360	1	40	40
408.632141	1.292944	city	2	1	1.318930	1.318930	0	1	0	0	CorrectCommission	0.550927	0.663357	1	0	4.017647e+01
409.958466	1.359685	city	6	1	1.204371	1.204371	0	1	0	0	CorrectCommission	0.039172	0.623936	1	0	4.035294e+01
411.298096	1.319569	city	10	1	0.938797	0.938797	0	1	0	0	CorrectCommission	1.147200	0.585500	1	0	4.052941e+01
412.610962	1.306167	city	3	1	1.196576	1.196576	0	1	0	0	CorrectCommission	0.004347	0.550538	1	0	4.070588e+01
413.910522	1.292971	mountain	5	0	0.000000	1.299604	1	0	0	0	CorrectOmission	0.464592	0.521339	1	0	4.088235e+01
415.216705	1.319404	city	2	1	1.288480	1.288480	0	1	0	0	CorrectCommission	0.414899	0.499683	1	0	4.105882e+01
416.556274	1.359713	city	5	1	1.203803	1.203803	0	1	0	0	CorrectCommission	0.036631	0.486733	1	0	4.123529e+01
417.895905	1.319570	city	3	1	1.161356	1.161356	0	1	0	0	CorrectCommission	0.152988	0.482926	1	0	4.141176e+01
419.208801	1.306214	city	4	1	1.201928	1.201928	0	1	0	0	CorrectCommission	0.028257	0.487938	1	0	4.158824e+01
420.501709	1.279576	mountain	7	0	0.000000	1.316149	1	0	0	0	CorrectOmission	0.538502	0.500818	1	0	4.176471e+01
421.787872	1.292766	city	9	1	1.318060	1.318060	0	1	0	0	CorrectCommission	0.547042	0.520103	1	0	4.194118e+01
423.100708	1.332877	city	5	1	1.021706	1.021706	0	1	0	0	CorrectCommission	0.776832	0.544113	1	0	4.211765e+01
424.406891	1.279519	city	2	1	1.191501	1.191501	0	1	0	0	CorrectCommission	0.018322	0.571098	1	0	4.229412e+01
425.686462	1.279639	city	7	1	1.490052	1.490052	0	1	0	0	CorrectCommission	1.315361	0.599480	1	0	4.247059e+01
426.972839	1.293093	city	10	1	1.388820	1.388820	0	1	0	0	CorrectCommission	0.863139	0.627913	1	0	4.264706e+01
428.279083	1.319399	city	8	1	1.385450	1.385450	0	1	0	0	CorrectCommission	0.848083	0.655414	1	0	4.282353e+01
429.585297	1.293045	city	2	1	1.355085	1.355085	0	1	0	0	CorrectCommission	0.712436	0.681288	1	0	43
430.911621	1.359558	city	8	1	1.369656	1.369656	0	1	0	0	CorrectCommission	0.777530	0.705068	1	0	4.317647e+01
432.284515	1.386238	city	5	1	1.179233	1.179233	0	1	0	0	CorrectCommission	0.073126	0.726394	1	0	4.335294e+01
433.670624	1.386017	city	4	1	1.324936	1.324936	0	1	0	0	CorrectCommission	0.577756	0.744990	1	0	4.352941e+01
435.030182	1.333086	city	6	1	1.261017	1.261017	0	1	0	0	CorrectCommission	0.292217	0.760631	1	0	4.370588e+01
436.349854	1.306219	city	4	1	1.191917	1.191917	0	1	0	0	CorrectCommission	0.016463	0.773216	1	0	4.388235e+01
437.656097	1.306290	city	10	1	1.809418	1.809418	0	1	0	0	CorrectCommission	2.742029	0.782895	1	0	4.405882e+01
438.975586	1.332673	city	6	1	1.700329	1.700329	0	1	0	0	CorrectCommission	2.254708	0.790073	1	0	4.423529e+01
440.328430	1.373045	city	9	1	1.290686	1.290686	0	1	0	0	CorrectCommission	0.424756	0.795492	0	0	4.441176e+01
441.681366	1.332825	city	4	1	1.165047	1.165047	0	1	0	0	CorrectCommission	0.136498	0.800164	0	0	4.458824e+01
443.020935	1.346289	city	9	1	1.075108	1.075108	0	1	0	0	CorrectCommission	0.538272	0.805119	0	0	4.476471e+01
444.367218	1.346283	city	3	1	1.198608	1.198608	0	1	0	0	CorrectCommission	0.013427	0.811178	0	0	4.494118e+01
445.713348	1.346016	city	5	1	1.298162	1.298162	0	1	0	0	CorrectCommission	0.458151	0.818787	0	0	4.511765e+01
447.039581	1.306394	city	4	1	1.312355	1.312355	0	1	0	0	CorrectCommission	0.521554	0.827807	0	0	4.529412e+01
448.345886	1.306240	city	3	1	1.624857	1.624857	0	1	0	0	CorrectCommission	1.917560	0.837520	0	0	4.547059e+01
449.672119	1.346241	city	2	1	1.451412	1.451412	0	1	0	0	CorrectCommission	1.142749	0.846680	0	0	4.564706e+01
451.018341	1.346214	city	7	1	1.290424	1.290424	0	1	0	0	CorrectCommission	0.423585	0.853787	0	0	4.582353e+01
454.923737	6.464580	break	0	0	0.000000	1.303374	0	0	0	0	ThoughtProbe	0.481436	0.857272	0	46	46
458.802490	1.292881	city	1	1	1.403520	1.403520	0	1	0	0	CorrectCommission	0.928808	0.855819	0	0	4.597500e+01
460.101959	1.306075	city	7	1	1.504119	1.504119	0	1	0	0	CorrectCommission	1.378201	0.848573	0	0	4.595000e+01
461.414856	1.319706	mountain	8	0	0.000000	1.535855	1	0	0	0	CorrectOmission	1.519974	0.835338	0	0	4.592500e+01
462.727814	1.306238	mountain	9	0	0.000000	1.504146	1	0	0	0	CorrectOmission	1.378322	0.816659	0	0	4.590000e+01
464.027313	1.292766	city	5	1	1.414408	1.414408	0	1	0	0	CorrectCommission	0.977444	0.793735	0	0	4.587500e+01
465.353546	1.359687	city	6	1	1.272057	1.272057	0	1	0	0	CorrectCommission	0.341534	0.768264	1	0	4.585000e+01
466.686523	1.306265	city	7	1	1.210549	1.210549	0	1	0	0	CorrectCommission	0.066768	0.742162	1	0	4.582500e+01
467.992676	1.306047	city	9	1	1.049465	1.049465	0	1	0	0	CorrectCommission	0.652824	0.717278	1	0	4.580000e+01
469.305573	1.319753	city	2	1	1.043817	1.043817	0	1	0	0	CorrectCommission	0.678055	0.695109	1	0	4.577500e+01
470.638550	1.346203	city	7	1	1.161735	1.161735	0	1	0	0	CorrectCommission	0.151293	0.676667	1	0	4.575000e+01
471.964752	1.306160	city	3	1	1.133074	1.133074	0	1	0	0	CorrectCommission	0.279329	0.662348	1	0	4.572500e+01
473.290985	1.346314	city	6	1	0.884647	0.884647	0	1	0	0	CorrectCommission	1.389100	0.651969	1	0	4.570000e+01
474.630493	1.332747	city	10	1	0.998189	0.998189	0	1	0	0	CorrectCommission	0.881885	0.644887	1	0	4.567500e+01
475.950073	1.306359	city	6	1	1.354238	1.354238	0	1	0	0	CorrectCommission	0.708656	0.640175	1	0	4.565000e+01
477.263031	1.319574	city	3	1	1.244450	1.244450	0	1	0	0	CorrectCommission	0.218208	0.636710	1	0	4.562500e+01
478.575928	1.306242	city	7	1	1.182693	1.182693	0	1	0	0	CorrectCommission	0.057672	0.633402	1	0	4.560000e+01
479.888824	1.319565	city	6	1	1.009884	1.009884	0	1	0	0	CorrectCommission	0.829643	0.629295	1	0	4.557500e+01
481.235077	1.372901	city	10	1	0.835335	0.835335	0	1	0	0	CorrectCommission	1.609385	0.623654	1	0	4.555000e+01
482.581299	1.319566	city	3	1	1.113332	1.113332	0	1	0	0	CorrectCommission	0.367520	0.616070	1	0	4.552500e+01
483.907440	1.332726	city	10	1	1.021463	1.021463	0	1	0	0	CorrectCommission	0.777918	0.606556	1	0	4.550000e+01
485.233673	1.319711	city	2	1	1.080395	1.080395	0	1	0	0	CorrectCommission	0.514656	0.595513	1	0	4.547500e+01
486.579895	1.372733	city	6	1	1.201801	1.201801	0	1	0	0	CorrectCommission	0.027689	0.583759	1	0	4.545000e+01
487.959442	1.386361	city	8	1	0.997083	0.997083	0	1	0	0	CorrectCommission	0.886827	0.572457	1	0	4.542500e+01
489.299011	1.292766	mountain	5	0	0.000000	1.269128	1	0	0	0	CorrectOmission	0.328453	0.563034	1	0	4.540000e+01
490.591858	1.292918	city	2	1	1.506479	1.506479	0	1	0	0	CorrectCommission	1.388744	0.557077	1	0	4.537500e+01
491.924805	1.373012	city	4	1	1.197676	1.197676	0	1	0	0	CorrectCommission	0.009262	0.556140	1	0	4.535000e+01
493.257782	1.292935	city	1	1	0.999121	0.999121	0	1	0	0	CorrectCommission	0.877721	0.561621	1	0	4.532500e+01
494.583923	1.359369	city	2	1	1.181288	1.181288	0	1	0	0	CorrectCommission	0.063949	0.574422	1	0	4.530000e+01
495.930084	1.332940	city	7	1	1.240948	1.240948	0	1	0	0	CorrectCommission	0.202564	0.594852	1	0	4.527500e+01
497.236420	1.279717	city	2	1	1.230796	1.230796	0	1	0	0	CorrectCommission	0.157215	0.622419	1	0	4.525000e+01
498.549377	1.346219	city	6	1	1.187878	1.187878	0	1	0	0	CorrectCommission	0.034507	0.655811	1	0	4.522500e+01
499.888916	1.332872	city	2	1	1.040251	1.040251	0	1	0	0	CorrectCommission	0.693987	0.693007	1	0	4.520000e+01
501.208466	1.306168	city	5	1	0.903694	0.903694	0	1	0	0	CorrectCommission	1.304010	0.731495	1	0	4.517500e+01
502.541351	1.359647	city	1	1	1.245471	1.245471	0	1	0	0	CorrectCommission	0.222771	0.768605	1	0	4.515000e+01
503.900940	1.359516	city	5	1	0.889397	0.889397	0	1	0	0	CorrectCommission	1.367879	0.801994	0	0	4.512500e+01
505.227081	1.292757	city	10	1	0.756311	0.756311	0	1	0	0	CorrectCommission	1.962402	0.829902	0	0	4.510000e+01
506.539917	1.332895	city	8	1	1.025911	1.025911	0	1	0	0	CorrectCommission	0.758044	0.851540	0	0	4.507500e+01
507.879456	1.346227	city	4	1	0.883454	0.883454	0	1	0	0	CorrectCommission	1.394430	0.867215	0	0	4.505000e+01
509.225769	1.346402	city	2	1	1.062339	1.062339	0	1	0	0	CorrectCommission	0.595315	0.878227	0	0	4.502500e+01
509.898987	8.023915	break	0	0	0.997113	0.997113	0	0	0	0	ThoughtProbe	0.886690	0.886690	0	45	45
