onset	duration	trial_type	image_type	Press	ReactionTime	ReactionTime_Interpolated	CorrectOmission	CorrectCommission	CommissionError	OmissionError	response_type	nonsmoothVarianceTimeCourse	VarianceTimeCourse	In_the_Zone	ThoughtProbe	ThoughtProbe_Interpolated
0.666159	1.306070	city	10	1	0.940802	0.940802	0	1	0	0	CorrectCommission	1.134160	1.134160	0	0	37
1.965659	1.292931	city	2	1	1.210464	1.210464	0	1	0	0	CorrectCommission	0.175253	1.080745	0	0	37
3.265250	1.306251	city	1	1	1.097801	1.097801	0	1	0	0	CorrectCommission	0.371810	1.027786	0	0	37
4.578211	1.319671	city	2	1	1.100753	1.100753	0	1	0	0	CorrectCommission	0.357480	0.975622	0	0	37
5.884432	1.292772	mountain	8	0	0.000000	1.327514	1	0	0	0	CorrectOmission	0.743619	0.924443	0	0	37
7.217346	1.373054	city	5	1	1.536101	1.536101	0	1	0	0	CorrectCommission	1.756463	0.874276	0	0	37
8.564735	1.321725	city	4	1	1.484526	1.484526	0	1	0	0	CorrectCommission	1.506029	0.825064	0	0	37
9.890877	1.330558	city	8	1	1.002018	1.002018	0	1	0	0	CorrectCommission	0.836908	0.776777	0	0	37
11.216018	1.319724	mountain	6	0	0.000000	1.078112	1	0	0	0	CorrectOmission	0.467417	0.729523	0	0	37
12.515683	1.279608	city	6	1	1.236063	1.236063	0	1	0	0	CorrectCommission	0.299556	0.683597	1	0	37
13.808602	1.306231	city	2	1	0.999129	0.999129	0	1	0	0	CorrectCommission	0.850940	0.639508	1	0	37
15.114839	1.306241	city	9	1	1.205396	1.205396	0	1	0	0	CorrectCommission	0.150642	0.597911	1	0	37
16.421019	1.306119	mountain	6	0	0.000000	1.323426	1	0	0	0	CorrectOmission	0.723765	0.559636	1	0	37
17.720524	1.292891	city	7	1	1.301916	1.301916	0	1	0	0	CorrectCommission	0.619321	0.525461	1	0	37
19.013479	1.293022	city	5	1	1.089565	1.089565	0	1	0	0	CorrectCommission	0.411803	0.496106	1	0	37
20.299780	1.279579	city	2	1	1.237902	1.237902	0	1	0	0	CorrectCommission	0.308485	0.472110	1	0	37
21.599360	1.319578	city	7	1	1.261555	1.261555	0	1	0	0	CorrectCommission	0.423337	0.453757	1	0	37
22.918844	1.319390	city	1	1	1.184314	1.184314	0	1	0	0	CorrectCommission	0.048272	0.441019	1	0	37
24.225098	1.293118	city	7	1	1.253572	1.253572	0	1	0	0	CorrectCommission	0.384574	0.433552	1	0	37
25.524687	1.306060	city	9	1	1.106202	1.106202	0	1	0	0	CorrectCommission	0.331021	0.430707	1	0	37
26.830898	1.306365	city	6	1	1.098662	1.098662	0	1	0	0	CorrectCommission	0.367632	0.431657	1	0	37
28.130569	1.292976	city	2	1	1.244195	1.244195	0	1	0	0	CorrectCommission	0.339041	0.435489	1	0	37
29.430061	1.306008	city	3	1	1.097833	1.097833	0	1	0	0	CorrectCommission	0.371654	0.441330	1	0	37
30.722855	1.279578	city	8	1	1.040534	1.040534	0	1	0	0	CorrectCommission	0.649887	0.448487	1	0	37
32.015842	1.306401	city	4	1	0.990865	0.990865	0	1	0	0	CorrectCommission	0.891065	0.456479	1	0	37
33.315414	1.292742	city	9	1	0.994189	0.994189	0	1	0	0	CorrectCommission	0.874927	0.465070	1	0	37
34.608334	1.293093	city	2	1	1.137287	1.137287	0	1	0	0	CorrectCommission	0.180078	0.474217	1	0	37
35.914570	1.319381	city	9	1	1.217498	1.217498	0	1	0	0	CorrectCommission	0.209406	0.483965	1	0	37
37.227474	1.306425	city	8	1	1.234164	1.234164	0	1	0	0	CorrectCommission	0.290332	0.494297	1	0	37
38.520390	1.279411	city	10	1	1.205720	1.205720	0	1	0	0	CorrectCommission	0.152217	0.505068	1	0	37
39.819870	1.319545	city	9	1	1.164351	1.164351	0	1	0	0	CorrectCommission	0.048664	0.515954	1	0	37
41.119431	1.279579	city	3	1	1.508812	1.508812	0	1	0	0	CorrectCommission	1.623954	0.526465	1	0	37
42.419006	1.319570	city	8	1	1.194017	1.194017	0	1	0	0	CorrectCommission	0.095389	0.535972	1	0	37
43.718597	1.279614	city	2	1	1.293287	1.293287	0	1	0	0	CorrectCommission	0.577421	0.544002	1	0	37
45.004932	1.293057	city	8	1	1.351170	1.351170	0	1	0	0	CorrectCommission	0.858486	0.550284	1	0	37
46.297913	1.292899	mountain	3	0	0.000000	1.337810	1	0	0	0	CorrectOmission	0.793613	0.554940	1	0	37
47.590809	1.292896	city	7	1	1.306075	1.306075	0	1	0	0	CorrectCommission	0.639513	0.558579	1	0	37
48.903725	1.332934	city	4	1	1.308831	1.308831	0	1	0	0	CorrectCommission	0.652896	0.562272	1	0	37
50.223251	1.306118	city	2	1	1.209292	1.209292	0	1	0	0	CorrectCommission	0.169559	0.567443	1	0	37
51.563877	1.375138	city	8	1	1.025444	1.025444	0	1	0	0	CorrectCommission	0.723159	0.575716	1	0	37
52.916721	1.330552	city	2	1	0.999037	0.999037	0	1	0	0	CorrectCommission	0.851383	0.588596	1	0	37
54.228455	1.292907	city	1	1	1.196739	1.196739	0	1	0	0	CorrectCommission	0.108606	0.607209	1	0	37
55.521358	1.292905	city	8	1	1.243414	1.243414	0	1	0	0	CorrectCommission	0.335249	0.632076	1	0	37
56.820976	1.306330	city	5	1	1.138550	1.138550	0	1	0	0	CorrectCommission	0.173947	0.662903	1	0	37
58.133930	1.319574	city	1	1	1.241735	1.241735	0	1	0	0	CorrectCommission	0.327098	0.698551	1	0	37
58.793716	11.716237	break	0	0	0.000000	1.328368	0	0	0	0	ThoughtProbe	0.747765	0.737112	0	37	37
71.156410	1.292908	city	9	1	1.350868	1.350868	0	1	0	0	CorrectCommission	0.857020	0.776120	0	0	3.682500e+01
72.449310	1.292897	city	10	1	1.261656	1.261656	0	1	0	0	CorrectCommission	0.423829	0.812885	0	0	3.665000e+01
73.748871	1.306224	city	2	1	1.409341	1.409341	0	1	0	0	CorrectCommission	1.140950	0.844868	0	0	3.647500e+01
75.061729	1.319497	mountain	8	0	0.000000	1.604349	1	0	0	0	CorrectOmission	2.087858	0.869989	0	0	3.630000e+01
76.367882	1.292813	city	3	1	1.637130	1.637130	0	1	0	0	CorrectCommission	2.247037	0.886869	0	0	3.612500e+01
77.660789	1.292992	city	2	1	1.298138	1.298138	0	1	0	0	CorrectCommission	0.600973	0.894945	0	0	3.595000e+01
78.960426	1.306281	city	5	1	1.095871	1.095871	0	1	0	0	CorrectCommission	0.381185	0.894436	0	0	3.577500e+01
80.253288	1.279447	city	9	1	0.982844	0.982844	0	1	0	0	CorrectCommission	0.930013	0.886059	0	0	3.560000e+01
81.532898	1.279765	city	10	1	1.050462	1.050462	0	1	0	0	CorrectCommission	0.601680	0.870822	0	0	3.542500e+01
82.825882	1.306216	city	2	1	1.310392	1.310392	0	1	0	0	CorrectCommission	0.660478	0.849810	0	0	3.525000e+01
84.132034	1.306075	city	1	1	1.224484	1.224484	0	1	0	0	CorrectCommission	0.243332	0.823946	0	0	3.507500e+01
85.444855	1.319567	city	9	1	1.041448	1.041448	0	1	0	0	CorrectCommission	0.645449	0.793981	0	0	3.490000e+01
86.751183	1.293099	mountain	1	0	0.000000	0.788430	1	0	0	0	CorrectOmission	1.874040	0.760487	0	0	3.472500e+01
88.064125	1.332779	city	1	1	0.749536	0.749536	0	1	0	0	CorrectCommission	2.062902	0.723956	0	0	3.455000e+01
89.376945	1.292863	city	7	1	1.208868	1.208868	0	1	0	0	CorrectCommission	0.167501	0.684958	1	0	3.437500e+01
90.669815	1.292876	city	3	1	1.144468	1.144468	0	1	0	0	CorrectCommission	0.145209	0.644252	1	0	3.420000e+01
91.962708	1.292908	mountain	3	0	0.000000	1.170587	1	0	0	0	CorrectOmission	0.018383	0.602755	1	0	3.402500e+01
93.262360	1.306397	city	5	1	1.259293	1.259293	0	1	0	0	CorrectCommission	0.412353	0.561595	1	0	3.385000e+01
94.568596	1.306075	city	6	1	1.382655	1.382655	0	1	0	0	CorrectCommission	1.011369	0.522009	1	0	3.367500e+01
95.874756	1.306241	city	5	1	1.343639	1.343639	0	1	0	0	CorrectCommission	0.821917	0.485249	1	0	3.350000e+01
97.174416	1.293088	city	9	1	1.072271	1.072271	0	1	0	0	CorrectCommission	0.495780	0.452500	1	0	3.332500e+01
98.473991	1.306063	city	3	1	1.171044	1.171044	0	1	0	0	CorrectCommission	0.016163	0.424731	1	0	3.315000e+01
99.773476	1.292896	city	9	1	1.155527	1.155527	0	1	0	0	CorrectCommission	0.091509	0.402557	1	0	3.297500e+01
101.066460	1.293071	city	5	1	1.207354	1.207354	0	1	0	0	CorrectCommission	0.160153	0.386206	1	0	3.280000e+01
102.379456	1.332922	city	2	1	1.169764	1.169764	0	1	0	0	CorrectCommission	0.022380	0.375492	1	0	3.262500e+01
103.685692	1.279552	city	1	1	1.126850	1.126850	0	1	0	0	CorrectCommission	0.230757	0.369872	1	0	3.245000e+01
104.985168	1.319413	city	7	1	1.294187	1.294187	0	1	0	0	CorrectCommission	0.581792	0.368564	1	0	3.227500e+01
106.304749	1.319745	city	8	1	1.172786	1.172786	0	1	0	0	CorrectCommission	0.007704	0.370746	1	0	3.210000e+01
107.611031	1.292806	city	10	1	0.931778	0.931778	0	1	0	0	CorrectCommission	1.177979	0.375720	1	0	3.192500e+01
108.897270	1.279681	city	4	1	1.188461	1.188461	0	1	0	0	CorrectCommission	0.068409	0.382974	1	0	3.175000e+01
110.176888	1.279552	city	1	1	1.021809	1.021809	0	1	0	0	CorrectCommission	0.740811	0.392335	1	0	3.157500e+01
111.469749	1.306171	city	2	1	1.087438	1.087438	0	1	0	0	CorrectCommission	0.422133	0.403841	1	0	3.140000e+01
112.775986	1.306303	city	10	1	1.063806	1.063806	0	1	0	0	CorrectCommission	0.536885	0.417650	1	0	3.122500e+01
114.068848	1.279416	city	2	1	1.137792	1.137792	0	1	0	0	CorrectCommission	0.177625	0.433844	1	0	3.105000e+01
115.361755	1.306400	city	10	1	1.215680	1.215680	0	1	0	0	CorrectCommission	0.200577	0.452214	1	0	3.087500e+01
116.661331	1.292753	city	6	1	1.193371	1.193371	0	1	0	0	CorrectCommission	0.092253	0.472099	1	0	3.070000e+01
117.967613	1.319818	city	3	1	1.144442	1.144442	0	1	0	0	CorrectCommission	0.145335	0.492395	1	0	3.052500e+01
119.280632	1.306218	city	6	1	1.137359	1.137359	0	1	0	0	CorrectCommission	0.179727	0.511598	1	0	3.035000e+01
120.606812	1.346145	city	1	1	1.175768	1.175768	0	1	0	0	CorrectCommission	0.006776	0.528037	1	0	3.017500e+01
121.279884	10.996102	break	0	0	0.000000	1.482446	0	0	0	0	ThoughtProbe	1.495930	0.540228	1	30	30
132.929169	1.306357	city	10	1	1.651474	1.651474	0	1	0	0	CorrectCommission	2.316687	0.547150	1	0	3.141176e+01
134.235580	1.306457	city	4	1	1.276931	1.276931	0	1	0	0	CorrectCommission	0.497997	0.548601	1	0	3.282353e+01
135.535156	1.292697	city	5	1	1.321440	1.321440	0	1	0	0	CorrectCommission	0.714124	0.545364	1	0	3.423529e+01
136.821289	1.279593	city	2	1	1.075374	1.075374	0	1	0	0	CorrectCommission	0.480709	0.539116	1	0	3.564706e+01
138.100876	1.279571	city	3	1	1.194990	1.194990	0	1	0	0	CorrectCommission	0.100114	0.532284	1	0	3.705882e+01
139.387115	1.292894	mountain	1	0	0.000000	1.156990	1	0	0	0	CorrectOmission	0.084402	0.527697	1	0	3.847059e+01
140.693344	1.319566	city	9	1	1.086547	1.086547	0	1	0	0	CorrectCommission	0.426459	0.528202	1	0	3.988235e+01
141.999573	1.292909	city	7	1	1.108831	1.108831	0	1	0	0	CorrectCommission	0.318255	0.536274	1	0	4.129412e+01
143.292496	1.292913	city	4	1	1.212359	1.212359	0	1	0	0	CorrectCommission	0.184452	0.553690	1	0	4.270588e+01
144.612137	1.346378	city	2	1	1.123443	1.123443	0	1	0	0	CorrectCommission	0.247300	0.581307	1	0	4.411765e+01
145.931702	1.292766	city	3	1	1.035713	1.035713	0	1	0	0	CorrectCommission	0.673297	0.618923	1	0	4.552941e+01
147.231308	1.306433	city	4	1	1.178202	1.178202	0	1	0	0	CorrectCommission	0.018597	0.665331	1	0	4.694118e+01
148.530945	1.292859	mountain	5	0	0.000000	1.370601	1	0	0	0	CorrectOmission	0.952839	0.718411	0	0	4.835294e+01
149.823837	1.292905	city	6	1	1.394408	1.394408	0	1	0	0	CorrectCommission	1.068440	0.775299	0	0	4.976471e+01
151.123322	1.306074	city	2	1	1.031122	1.031122	0	1	0	0	CorrectCommission	0.695590	0.832663	0	0	5.117647e+01
152.416168	1.279609	city	8	1	0.923086	0.923086	0	1	0	0	CorrectCommission	1.220182	0.886972	0	0	5.258824e+01
153.709076	1.306206	city	1	1	0.994566	0.994566	0	1	0	0	CorrectCommission	0.873096	0.934752	0	0	54
155.015381	1.306421	city	7	1	1.106921	1.106921	0	1	0	0	CorrectCommission	0.327526	0.972918	0	0	5.541176e+01
156.315002	1.292815	city	2	1	0.837353	0.837353	0	1	0	0	CorrectCommission	1.636484	0.999034	0	0	5.682353e+01
157.607819	1.292819	city	3	1	0.874812	0.874812	0	1	0	0	CorrectCommission	1.454589	1.011487	0	0	5.823529e+01
158.907349	1.306236	city	2	1	0.705424	0.705424	0	1	0	0	CorrectCommission	2.277095	1.009741	0	0	5.964706e+01
160.207016	1.293091	city	6	1	0.893657	0.893657	0	1	0	0	CorrectCommission	1.363084	0.994282	0	0	6.105882e+01
161.499924	1.292740	city	9	1	0.928812	0.928812	0	1	0	0	CorrectCommission	1.192380	0.966601	0	0	6.247059e+01
162.786163	1.279748	city	5	1	0.929649	0.929649	0	1	0	0	CorrectCommission	1.188315	0.929002	0	0	6.388235e+01
164.079193	1.306282	city	1	1	1.108022	1.108022	0	1	0	0	CorrectCommission	0.322181	0.884287	0	0	6.529412e+01
165.372086	1.279506	city	2	1	1.197713	1.197713	0	1	0	0	CorrectCommission	0.113337	0.835434	0	0	6.670588e+01
166.658218	1.292778	city	5	1	1.045972	1.045972	0	1	0	0	CorrectCommission	0.623480	0.785269	0	0	6.811765e+01
167.957718	1.306230	city	10	1	0.945758	0.945758	0	1	0	0	CorrectCommission	1.110097	0.736199	0	0	6.952941e+01
169.257278	1.292886	city	4	1	1.259456	1.259456	0	1	0	0	CorrectCommission	0.413143	0.690065	1	0	7.094118e+01
170.556931	1.306399	city	5	1	1.051508	1.051508	0	1	0	0	CorrectCommission	0.596598	0.648140	1	0	7.235294e+01
171.849838	1.279419	city	6	1	1.028318	1.028318	0	1	0	0	CorrectCommission	0.709206	0.611099	1	0	7.376471e+01
173.169418	1.359736	city	2	1	1.106767	1.106767	0	1	0	0	CorrectCommission	0.328276	0.579182	1	0	7.517647e+01
174.495758	1.292941	city	1	1	1.038273	1.038273	0	1	0	0	CorrectCommission	0.660864	0.552296	1	0	7.658824e+01
175.142227	9.276746	break	0	1	1.033397	1.033397	0	0	0	0	ThoughtProbe	0.684543	0.530165	1	78	78
185.098740	1.359541	city	6	1	1.068130	1.068130	0	1	0	0	CorrectCommission	0.515887	0.512443	1	0	7.804348e+01
186.438293	1.319564	city	7	1	1.156544	1.156544	0	1	0	0	CorrectCommission	0.086568	0.498794	1	0	7.808696e+01
187.737946	1.279743	city	5	1	1.191881	1.191881	0	1	0	0	CorrectCommission	0.085016	0.488994	1	0	7.813043e+01
189.037537	1.319434	city	3	1	1.287396	1.287396	0	1	0	0	CorrectCommission	0.548814	0.482938	1	0	7.817391e+01
190.343689	1.292891	city	7	1	1.090126	1.090126	0	1	0	0	CorrectCommission	0.409078	0.480666	1	0	7.821739e+01
191.630005	1.279723	city	5	1	0.921393	0.921393	0	1	0	0	CorrectCommission	1.228408	0.482372	1	0	7.826087e+01
192.929657	1.319590	city	3	1	1.059130	1.059130	0	1	0	0	CorrectCommission	0.559588	0.488325	1	0	7.830435e+01
194.249222	1.319548	mountain	9	1	1.164988	1.164988	0	0	1	0	CommissionError	0.045568	0.498857	1	0	7.834783e+01
195.562134	1.306254	city	8	1	1.119402	1.119402	0	1	0	0	CorrectCommission	0.266921	0.514219	1	0	7.839130e+01
196.861633	1.292747	city	1	1	1.049649	1.049649	0	1	0	0	CorrectCommission	0.605625	0.534469	1	0	7.843478e+01
198.154449	1.292894	city	10	1	1.156518	1.156518	0	1	0	0	CorrectCommission	0.086698	0.559371	1	0	7.847826e+01
199.467361	1.332924	city	3	1	1.088001	1.088001	0	1	0	0	CorrectCommission	0.419398	0.588349	1	0	7.852174e+01
200.787003	1.306362	mountain	2	0	0.000000	1.247625	1	0	0	0	CorrectOmission	0.355698	0.620419	1	0	7.856522e+01
202.086624	1.292878	city	3	1	1.280249	1.280249	0	1	0	0	CorrectCommission	0.514108	0.654301	1	0	7.860870e+01
203.392792	1.319458	city	5	1	0.830729	0.830729	0	1	0	0	CorrectCommission	1.668649	0.688505	1	0	7.865217e+01
204.712372	1.319706	city	6	1	1.079287	1.079287	0	1	0	0	CorrectCommission	0.461709	0.721461	0	0	7.869565e+01
206.018600	1.292753	city	7	1	0.941390	0.941390	0	1	0	0	CorrectCommission	1.131305	0.751744	0	0	7.873913e+01
207.331497	1.333048	mountain	10	1	1.037408	1.037408	0	0	1	0	CommissionError	0.665065	0.778131	0	0	7.878261e+01
208.684464	1.372882	city	7	1	1.276479	1.276479	0	1	0	0	CorrectCommission	0.495806	0.799757	0	0	7.882609e+01
210.010620	1.279415	city	1	1	0.923594	0.923594	0	1	0	0	CorrectCommission	1.217716	0.816141	0	0	7.886957e+01
211.303543	1.306456	city	6	1	1.260658	1.260658	0	1	0	0	CorrectCommission	0.418984	0.827191	0	0	7.891304e+01
212.609879	1.306203	city	5	1	1.438957	1.438957	0	1	0	0	CorrectCommission	1.284755	0.833213	0	0	7.895652e+01
213.909348	1.292726	city	3	1	1.524061	1.524061	0	1	0	0	CorrectCommission	1.698001	0.834772	0	0	79
215.208908	1.306415	city	4	1	1.430348	1.430348	0	1	0	0	CorrectCommission	1.242956	0.832585	0	0	7.904348e+01
216.508575	1.292913	city	7	1	1.212968	1.212968	0	1	0	0	CorrectCommission	0.187412	0.827400	0	0	7.908696e+01
217.801407	1.292744	city	5	1	1.142971	1.142971	0	1	0	0	CorrectCommission	0.152476	0.819842	0	0	7.913043e+01
219.087555	1.279558	city	9	1	1.127426	1.127426	0	1	0	0	CorrectCommission	0.227959	0.810295	0	0	7.917391e+01
220.373795	1.292908	city	4	1	0.984761	0.984761	0	1	0	0	CorrectCommission	0.920705	0.798888	0	0	7.921739e+01
221.673447	1.306401	city	3	1	0.972020	0.972020	0	1	0	0	CorrectCommission	0.982574	0.785571	0	0	7.926087e+01
222.979691	1.306101	city	10	1	0.892294	0.892294	0	1	0	0	CorrectCommission	1.369704	0.770241	0	0	7.930435e+01
224.279190	1.292877	city	7	1	1.563678	1.563678	0	1	0	0	CorrectCommission	1.890369	0.752848	0	0	7.934783e+01
225.572128	1.292998	city	10	1	1.196552	1.196552	0	1	0	0	CorrectCommission	0.107698	0.733562	0	0	7.939130e+01
226.878448	1.319659	city	2	1	1.222221	1.222221	0	1	0	0	CorrectCommission	0.232339	0.712921	0	0	7.943478e+01
228.204636	1.332720	mountain	10	0	0.000000	1.048510	1	0	0	0	CorrectOmission	0.611155	0.691767	1	0	7.947826e+01
229.557526	1.373038	city	10	1	0.954409	0.954409	0	1	0	0	CorrectCommission	1.068088	0.671238	1	0	7.952174e+01
230.897156	1.306243	city	1	1	1.218904	1.218904	0	1	0	0	CorrectCommission	0.216234	0.652682	1	0	7.956522e+01
232.210068	1.319577	city	9	1	1.358876	1.358876	0	1	0	0	CorrectCommission	0.895904	0.637515	1	0	7.960870e+01
233.516327	1.292945	city	6	1	0.985655	0.985655	0	1	0	0	CorrectCommission	0.916364	0.627044	1	0	7.965217e+01
234.822479	1.319348	city	5	1	1.176552	1.176552	0	1	0	0	CorrectCommission	0.010584	0.622301	1	0	7.969565e+01
236.135330	1.306350	city	3	1	1.221019	1.221019	0	1	0	0	CorrectCommission	0.226505	0.623930	1	0	7.973913e+01
237.448318	1.319615	city	2	1	1.102925	1.102925	0	1	0	0	CorrectCommission	0.346933	0.632023	1	0	7.978261e+01
238.767822	1.319417	city	10	1	0.925322	0.925322	0	1	0	0	CorrectCommission	1.209329	0.646056	1	0	7.982609e+01
240.087601	1.320137	city	7	1	1.153456	1.153456	0	1	0	0	CorrectCommission	0.101564	0.664923	1	0	7.986957e+01
241.393829	1.292326	city	4	1	1.309160	1.309160	0	1	0	0	CorrectCommission	0.654493	0.687076	1	0	7.991304e+01
242.693130	1.306270	city	9	1	1.035257	1.035257	0	1	0	0	CorrectCommission	0.675510	0.710655	1	0	7.995652e+01
243.346268	8.064002	break	0	0	0.000000	1.078941	0	0	0	0	ThoughtProbe	0.463390	0.733773	0	80	80
252.050064	1.279577	city	8	1	1.289927	1.289927	0	1	0	0	CorrectCommission	0.561103	0.754813	0	0	7.952941e+01
253.329712	1.279716	mountain	5	0	0.000000	1.517927	1	0	0	0	CorrectOmission	1.668217	0.772674	0	0	7.905882e+01
254.609375	1.279609	city	5	1	1.526938	1.526938	0	1	0	0	CorrectCommission	1.711971	0.786943	0	0	7.858824e+01
255.888870	1.279393	city	8	1	1.080953	1.080953	0	1	0	0	CorrectCommission	0.453621	0.798049	0	0	7.811765e+01
257.168365	1.279577	city	7	1	0.974704	0.974704	0	1	0	0	CorrectCommission	0.969540	0.807272	0	0	7.764706e+01
258.461365	1.306418	city	6	1	0.980752	0.980752	0	1	0	0	CorrectCommission	0.940171	0.816472	0	0	7.717647e+01
259.760925	1.292758	city	10	1	0.946164	0.946164	0	1	0	0	CorrectCommission	1.108123	0.827887	0	0	7.670588e+01
261.053772	1.292877	city	1	1	1.159748	1.159748	0	1	0	0	CorrectCommission	0.071015	0.843754	0	0	7.623529e+01
262.340057	1.279739	city	5	1	1.145640	1.145640	0	1	0	0	CorrectCommission	0.139518	0.865968	0	0	7.576471e+01
263.646301	1.332751	city	9	1	1.206064	1.206064	0	1	0	0	CorrectCommission	0.153888	0.895721	0	0	7.529412e+01
264.972595	1.319832	city	1	1	1.027591	1.027591	0	1	0	0	CorrectCommission	0.712736	0.933306	0	0	7.482353e+01
266.272156	1.279296	city	9	1	0.982328	0.982328	0	1	0	0	CorrectCommission	0.932521	0.978050	0	0	7.435294e+01
267.551605	1.279582	city	4	1	0.816679	0.816679	0	1	0	0	CorrectCommission	1.736871	1.028360	0	0	7.388235e+01
268.844604	1.306394	city	8	1	0.742718	0.742718	0	1	0	0	CorrectCommission	2.096007	1.081825	0	0	7.341176e+01
270.144287	1.293007	city	1	1	0.978707	0.978707	0	1	0	0	CorrectCommission	0.950101	1.135437	0	0	7.294118e+01
271.463776	1.345976	city	8	1	1.202901	1.202901	0	1	0	0	CorrectCommission	0.138527	1.185839	0	0	7.247059e+01
272.776550	1.279580	city	3	1	1.071762	1.071762	0	1	0	0	CorrectCommission	0.498250	1.229586	0	0	72
274.069550	1.306389	city	8	1	0.853114	0.853114	0	1	0	0	CorrectCommission	1.559953	1.263401	0	0	7.152941e+01
275.369110	1.292744	city	4	1	0.815820	0.815820	0	1	0	0	CorrectCommission	1.741043	1.284549	0	0	7.105882e+01
276.668610	1.306262	city	6	1	0.715700	0.715700	0	1	0	0	CorrectCommission	2.227200	1.291130	0	0	7.058824e+01
277.968262	1.293043	city	10	1	0.559962	0.559962	0	1	0	0	CorrectCommission	2.983426	1.282338	0	0	7.011765e+01
279.287903	1.346218	city	4	1	0.884882	0.884882	0	1	0	0	CorrectCommission	1.405692	1.258567	0	0	6.964706e+01
280.640778	1.359552	city	5	1	0.961526	0.961526	0	1	0	0	CorrectCommission	1.033527	1.221469	0	0	6.917647e+01
281.966949	1.292753	city	10	1	0.822240	0.822240	0	1	0	0	CorrectCommission	1.709866	1.173688	0	0	6.870588e+01
283.259796	1.292936	mountain	2	0	0.000000	1.169771	1	0	0	0	CorrectOmission	0.022341	1.118546	0	0	6.823529e+01
284.546112	1.279733	city	1	1	1.450035	1.450035	0	1	0	0	CorrectCommission	1.338551	1.059755	0	0	6.776471e+01
285.845764	1.319546	city	4	1	1.108948	1.108948	0	1	0	0	CorrectCommission	0.317684	1.000866	0	0	6.729412e+01
287.145294	1.279508	city	2	1	0.983276	0.983276	0	1	0	0	CorrectCommission	0.927916	0.945052	0	0	6.682353e+01
288.424774	1.279495	city	8	1	0.925818	0.925818	0	1	0	0	CorrectCommission	1.206919	0.894767	0	0	6.635294e+01
289.717651	1.306233	city	1	1	1.050242	1.050242	0	1	0	0	CorrectCommission	0.602749	0.851668	0	0	6.588235e+01
291.043884	1.346224	city	6	1	1.195905	1.195905	0	1	0	0	CorrectCommission	0.104555	0.816559	0	0	6.541176e+01
292.370209	1.306429	city	4	1	1.402941	1.402941	0	1	0	0	CorrectCommission	1.109874	0.789446	0	0	6.494118e+01
293.689789	1.332759	city	7	1	1.357114	1.357114	0	1	0	0	CorrectCommission	0.887346	0.769633	0	0	6.447059e+01
294.356171	8.623999	break	0	0	0.000000	1.241209	0	0	0	0	ThoughtProbe	0.324543	0.755919	0	64	64
303.619934	1.279540	city	4	1	1.212852	1.212852	0	1	0	0	CorrectCommission	0.186850	0.746778	0	0	6.435294e+01
304.919434	1.319423	city	7	1	1.429667	1.429667	0	1	0	0	CorrectCommission	1.239648	0.740531	0	0	6.470588e+01
306.238892	1.319521	city	8	1	0.990417	0.990417	0	1	0	0	CorrectCommission	0.893244	0.735537	0	0	6.505882e+01
307.545197	1.293074	city	6	1	0.938012	0.938012	0	1	0	0	CorrectCommission	1.147705	0.730390	0	0	6.541176e+01
308.851501	1.319561	mountain	9	0	0.000000	1.223805	1	0	0	0	CorrectOmission	0.240033	0.723956	0	0	6.576471e+01
310.164337	1.306076	city	9	1	1.420258	1.420258	0	1	0	0	CorrectCommission	1.193961	0.715500	0	0	6.611765e+01
311.470490	1.306237	city	1	1	1.099835	1.099835	0	1	0	0	CorrectCommission	0.361937	0.704663	1	0	6.647059e+01
312.770142	1.293077	city	9	1	1.333123	1.333123	0	1	0	0	CorrectCommission	0.770854	0.691526	1	0	6.682353e+01
314.056488	1.279590	city	1	1	0.932694	0.932694	0	1	0	0	CorrectCommission	1.173529	0.676484	1	0	6.717647e+01
315.356049	1.319563	city	8	1	1.059037	1.059037	0	1	0	0	CorrectCommission	0.560039	0.660250	1	0	6.752941e+01
316.682190	1.332711	city	10	1	1.040320	1.040320	0	1	0	0	CorrectCommission	0.650923	0.643753	1	0	6.788235e+01
318.001740	1.306402	city	6	1	1.240512	1.240512	0	1	0	0	CorrectCommission	0.321157	0.627997	1	0	6.823529e+01
319.321411	1.332901	city	1	1	1.255518	1.255518	0	1	0	0	CorrectCommission	0.394023	0.613992	1	0	6.858824e+01
320.640961	1.306238	city	2	1	1.048357	1.048357	0	1	0	0	CorrectCommission	0.611900	0.602589	1	0	6.894118e+01
321.953888	1.319583	city	7	1	0.970566	0.970566	0	1	0	0	CorrectCommission	0.989632	0.594430	1	0	6.929412e+01
323.306702	1.386035	city	1	1	1.207156	1.207156	0	1	0	0	CorrectCommission	0.159190	0.589825	1	0	6.964706e+01
324.659515	1.319590	city	8	1	1.100561	1.100561	0	1	0	0	CorrectCommission	0.358412	0.588710	1	0	70
325.965759	1.292904	city	2	1	0.929977	0.929977	0	1	0	0	CorrectCommission	1.186726	0.590601	1	0	7.035294e+01
327.265381	1.306376	city	9	1	1.205994	1.205994	0	1	0	0	CorrectCommission	0.153544	0.594613	1	0	7.070588e+01
328.571655	1.306146	city	2	1	1.212856	1.212856	0	1	0	0	CorrectCommission	0.186866	0.599555	1	0	7.105882e+01
329.891144	1.332822	city	10	1	1.214435	1.214435	0	1	0	0	CorrectCommission	0.194534	0.604011	1	0	7.141176e+01
331.204010	1.292905	mountain	1	1	1.011494	1.011494	0	0	1	0	CommissionError	0.790899	0.606522	1	0	7.176471e+01
332.503662	1.306396	city	5	1	0.848918	0.848918	0	1	0	0	CorrectCommission	1.580328	0.605786	1	0	7.211765e+01
333.809906	1.306094	city	10	1	1.278508	1.278508	0	1	0	0	CorrectCommission	0.505655	0.600832	1	0	7.247059e+01
335.109375	1.292892	city	5	1	1.360328	1.360328	0	1	0	0	CorrectCommission	0.902952	0.591230	1	0	7.282353e+01
336.415619	1.319574	city	2	1	1.347631	1.347631	0	1	0	0	CorrectCommission	0.841301	0.577092	1	0	7.317647e+01
337.741943	1.333046	city	5	1	1.354616	1.354616	0	1	0	0	CorrectCommission	0.875218	0.559130	1	0	7.352941e+01
339.068176	1.319443	city	10	1	1.125790	1.125790	0	1	0	0	CorrectCommission	0.235902	0.538515	1	0	7.388235e+01
340.374329	1.292884	city	7	1	1.239789	1.239789	0	1	0	0	CorrectCommission	0.317646	0.516753	1	0	7.423529e+01
341.713959	1.386360	city	3	1	1.162696	1.162696	0	1	0	0	CorrectCommission	0.056699	0.495447	1	0	7.458824e+01
343.053528	1.292806	city	5	1	1.034074	1.034074	0	1	0	0	CorrectCommission	0.681255	0.476122	1	0	7.494118e+01
344.353119	1.306357	city	1	1	1.163815	1.163815	0	1	0	0	CorrectCommission	0.051262	0.460042	1	0	7.529412e+01
345.646088	1.279575	city	9	1	1.235364	1.235364	0	1	0	0	CorrectCommission	0.296159	0.448133	1	0	7.564706e+01
346.285889	10.343107	break	0	0	0.000000	1.339753	0	0	0	0	ThoughtProbe	0.803047	0.440885	1	76	76
357.275513	1.293068	city	5	1	1.358553	1.358553	0	1	0	0	CorrectCommission	0.894336	0.438335	1	0	7.615000e+01
358.581818	1.319548	city	2	1	1.173335	1.173335	0	1	0	0	CorrectCommission	0.005036	0.440095	1	0	7.630000e+01
359.894714	1.306238	city	9	1	1.172436	1.172436	0	1	0	0	CorrectCommission	0.009403	0.445412	1	0	7.645000e+01
361.214203	1.332730	city	3	1	1.188140	1.188140	0	1	0	0	CorrectCommission	0.066852	0.453213	1	0	7.660000e+01
362.533691	1.306235	city	2	1	1.065544	1.065544	0	1	0	0	CorrectCommission	0.528443	0.462220	1	0	7.675000e+01
363.839935	1.306252	city	6	1	0.997064	0.997064	0	1	0	0	CorrectCommission	0.860965	0.471078	1	0	7.690000e+01
365.139587	1.293082	mountain	5	0	0.000000	1.142206	1	0	0	0	CorrectOmission	0.156192	0.478541	1	0	7.705000e+01
366.439270	1.306246	city	7	1	1.334073	1.334073	0	1	0	0	CorrectCommission	0.775466	0.483615	1	0	7.720000e+01
367.765472	1.346198	mountain	2	0	0.000000	1.405768	1	0	0	0	CorrectOmission	1.123600	0.485679	1	0	7.735000e+01
369.085052	1.292924	city	1	1	1.364742	1.364742	0	1	0	0	CorrectCommission	0.924387	0.484559	1	0	7.750000e+01
370.391205	1.319398	city	3	1	1.218445	1.218445	0	1	0	0	CorrectCommission	0.214004	0.480542	1	0	7.765000e+01
371.710693	1.319557	city	7	1	1.213238	1.213238	0	1	0	0	CorrectCommission	0.188721	0.474341	1	0	7.780000e+01
373.043579	1.346217	city	2	1	1.085049	1.085049	0	1	0	0	CorrectCommission	0.433731	0.466917	1	0	7.795000e+01
374.376495	1.319610	city	7	1	1.221892	1.221892	0	1	0	0	CorrectCommission	0.230743	0.459352	1	0	7.810000e+01
375.689392	1.306194	city	4	1	1.091854	1.091854	0	1	0	0	CorrectCommission	0.400691	0.452733	1	0	7.825000e+01
376.988922	1.292914	city	2	1	1.335631	1.335631	0	1	0	0	CorrectCommission	0.783032	0.447969	1	0	7.840000e+01
378.335175	1.399543	city	10	1	1.219118	1.219118	0	1	0	0	CorrectCommission	0.217274	0.445716	1	0	7.855000e+01
379.687988	1.306124	city	6	1	1.227870	1.227870	0	1	0	0	CorrectCommission	0.259770	0.446356	1	0	7.870000e+01
381.000977	1.319829	city	8	1	1.064275	1.064275	0	1	0	0	CorrectCommission	0.534606	0.449949	1	0	7.885000e+01
382.314026	1.306259	city	6	1	1.119129	1.119129	0	1	0	0	CorrectCommission	0.268246	0.456309	1	0	79
383.613525	1.292725	mountain	9	0	0.000000	1.232264	1	0	0	0	CorrectOmission	0.281106	0.465070	1	0	7.915000e+01
384.933075	1.346406	city	5	1	1.316370	1.316370	0	1	0	0	CorrectCommission	0.689505	0.475759	1	0	7.930000e+01
386.285980	1.359393	city	8	1	1.284141	1.284141	0	1	0	0	CorrectCommission	0.533007	0.487926	1	0	7.945000e+01
387.625549	1.319730	city	10	1	1.129666	1.129666	0	1	0	0	CorrectCommission	0.217083	0.501275	1	0	7.960000e+01
388.938446	1.306064	city	3	1	1.366866	1.366866	0	1	0	0	CorrectCommission	0.934702	0.515718	1	0	7.975000e+01
390.291229	1.399526	city	1	1	1.320133	1.320133	0	1	0	0	CorrectCommission	0.707776	0.531391	1	0	7.990000e+01
391.650879	1.319755	city	10	1	1.169331	1.169331	0	1	0	0	CorrectCommission	0.024482	0.548688	1	0	8.005000e+01
392.957214	1.292903	city	1	1	1.359856	1.359856	0	1	0	0	CorrectCommission	0.900660	0.568160	1	0	8.020000e+01
394.250000	1.292726	city	2	1	1.299448	1.299448	0	1	0	0	CorrectCommission	0.607335	0.590360	1	0	8.035000e+01
395.562958	1.333141	city	9	1	1.277847	1.277847	0	1	0	0	CorrectCommission	0.502446	0.615724	1	0	8.050000e+01
396.875916	1.292821	city	2	1	1.033728	1.033728	0	1	0	0	CorrectCommission	0.682937	0.644366	1	0	8.065000e+01
398.168732	1.292784	city	7	1	1.153518	1.153518	0	1	0	0	CorrectCommission	0.101264	0.675936	1	0	8.080000e+01
399.481567	1.332864	city	5	1	1.182112	1.182112	0	1	0	0	CorrectCommission	0.037583	0.709570	1	0	8.095000e+01
400.807770	1.319563	city	4	1	1.515857	1.515857	0	1	0	0	CorrectCommission	1.658166	0.743870	0	0	8.110000e+01
402.140656	1.346223	city	3	1	1.074993	1.074993	0	1	0	0	CorrectCommission	0.482563	0.776954	0	0	8.125000e+01
403.453552	1.279578	city	9	1	1.071016	1.071016	0	1	0	0	CorrectCommission	0.501875	0.806806	0	0	8.140000e+01
404.753235	1.319753	city	4	1	0.989247	0.989247	0	1	0	0	CorrectCommission	0.898923	0.831449	0	0	8.155000e+01
406.059479	1.292723	city	8	1	0.943787	0.943787	0	1	0	0	CorrectCommission	1.119665	0.849288	0	0	8.170000e+01
407.352295	1.292934	city	9	1	1.555329	1.555329	0	1	0	0	CorrectCommission	1.849829	0.859425	0	0	8.185000e+01
407.998749	9.130517	break	0	0	0.000000	1.506140	0	0	0	0	ThoughtProbe	1.610979	0.861790	0	82	82
417.768951	1.279363	city	8	1	1.284018	1.284018	0	1	0	0	CorrectCommission	0.532410	0.857237	0	0	8.086957e+01
419.061859	1.306418	city	7	1	1.376761	1.376761	0	1	0	0	CorrectCommission	0.982747	0.847442	0	0	7.973913e+01
420.381500	1.332910	mountain	2	0	0.000000	1.378609	1	0	0	0	CorrectOmission	0.991724	0.834595	0	0	7.860870e+01
421.687744	1.279579	city	6	1	1.308086	1.308086	0	1	0	0	CorrectCommission	0.649278	0.821075	0	0	7.747826e+01
423.000610	1.346115	city	9	1	1.183711	1.183711	0	1	0	0	CorrectCommission	0.045348	0.809062	0	0	7.634783e+01
424.313416	1.279495	city	7	1	1.323163	1.323163	0	1	0	0	CorrectCommission	0.722490	0.800160	0	0	7.521739e+01
425.626343	1.346400	mountain	9	0	0.000000	1.290103	1	0	0	0	CorrectOmission	0.561959	0.795116	0	0	7.408696e+01
426.965912	1.332728	city	2	1	1.235232	1.235232	0	1	0	0	CorrectCommission	0.295518	0.793766	0	0	7.295652e+01
428.272186	1.279792	city	9	1	1.309249	1.309249	0	1	0	0	CorrectCommission	0.654929	0.795116	0	0	7.182609e+01
429.558502	1.292844	city	1	1	1.371008	1.371008	0	1	0	0	CorrectCommission	0.954811	0.797559	0	0	7.069565e+01
430.858032	1.306241	city	6	1	1.373758	1.373758	0	1	0	0	CorrectCommission	0.968169	0.799256	0	0	6.956522e+01
432.150879	1.279423	city	1	1	1.432852	1.432852	0	1	0	0	CorrectCommission	1.255111	0.798500	0	0	6.843478e+01
433.457092	1.333044	city	4	1	1.560885	1.560885	0	1	0	0	CorrectCommission	1.876809	0.794132	0	0	6.730435e+01
434.776672	1.306094	city	3	1	1.097017	1.097017	0	1	0	0	CorrectCommission	0.375619	0.785753	0	0	6.617391e+01
436.089569	1.319711	city	2	1	0.976276	0.976276	0	1	0	0	CorrectCommission	0.961908	0.773952	0	0	6.504348e+01
437.422546	1.346229	city	3	1	1.105590	1.105590	0	1	0	0	CorrectCommission	0.333992	0.760138	0	0	6.391304e+01
438.755371	1.319397	mountain	2	0	0.000000	1.340748	1	0	0	0	CorrectOmission	0.807877	0.746501	0	0	6.278261e+01
440.054932	1.279768	city	9	1	1.458103	1.458103	0	1	0	0	CorrectCommission	1.377727	0.735603	0	0	6.165217e+01
441.361267	1.332887	city	3	1	1.234010	1.234010	0	1	0	0	CorrectCommission	0.289586	0.730024	0	0	6.052174e+01
442.674072	1.292737	city	2	1	1.158332	1.158332	0	1	0	0	CorrectCommission	0.077888	0.732027	0	0	5.939130e+01
443.966980	1.293084	city	1	1	1.098952	1.098952	0	1	0	0	CorrectCommission	0.366225	0.743124	0	0	5.826087e+01
445.259888	1.292734	city	8	1	1.122374	1.122374	0	1	0	0	CorrectCommission	0.252492	0.763824	0	0	5.713043e+01
446.579376	1.346214	city	3	1	1.026911	1.026911	0	1	0	0	CorrectCommission	0.716037	0.793542	0	0	56
447.905670	1.306404	city	10	1	0.922008	0.922008	0	1	0	0	CorrectCommission	1.225419	0.830553	0	0	5.486957e+01
449.205353	1.292923	city	7	1	1.092044	1.092044	0	1	0	0	CorrectCommission	0.399767	0.872199	0	0	5.373913e+01
450.491577	1.279559	city	10	1	1.020203	1.020203	0	1	0	0	CorrectCommission	0.748609	0.915229	0	0	5.260870e+01
451.777771	1.292797	city	7	0	0.000000	1.032467	0	0	0	1	OmissionError	0.689055	0.956169	0	0	5.147826e+01
453.077271	1.306189	city	9	1	0.989652	0.989652	0	1	0	0	CorrectCommission	0.896957	0.991809	0	0	5.034783e+01
454.403564	1.346387	city	10	1	0.752570	0.752570	0	1	0	0	CorrectCommission	2.048167	1.019675	0	0	4.921739e+01
455.743103	1.332727	city	9	1	0.671946	0.671946	0	1	0	0	CorrectCommission	2.439657	1.038312	0	0	4.808696e+01
457.049255	1.279586	city	1	1	1.020892	1.020892	0	1	0	0	CorrectCommission	0.745265	1.047518	0	0	4.695652e+01
458.335571	1.293058	city	4	1	1.671522	1.671522	0	1	0	0	CorrectCommission	2.414035	1.048330	0	0	4.582609e+01
459.635193	1.306176	city	9	1	1.111299	1.111299	0	1	0	0	CorrectCommission	0.306269	1.042673	0	0	4.469565e+01
460.941376	1.306183	city	6	1	1.018629	1.018629	0	1	0	0	CorrectCommission	0.756249	1.033125	0	0	4.356522e+01
462.267578	1.346214	mountain	10	1	1.209534	1.209534	0	0	1	0	CommissionError	0.170735	1.022274	0	0	4.243478e+01
463.600494	1.319586	city	5	1	1.451694	1.451694	0	1	0	0	CorrectCommission	1.346603	1.012333	0	0	4.130435e+01
464.920135	1.319702	city	2	1	1.111566	1.111566	0	1	0	0	CorrectCommission	0.304971	1.004705	0	0	4.017391e+01
466.252991	1.346045	city	10	1	1.132859	1.132859	0	1	0	0	CorrectCommission	0.201578	0.999899	0	0	3.904348e+01
467.565887	1.279758	city	1	1	1.441417	1.441417	0	1	0	0	CorrectCommission	1.296700	0.997460	0	0	3.791304e+01
468.898804	1.386034	city	4	1	1.475769	1.475769	0	1	0	0	CorrectCommission	1.463506	0.996162	0	0	3.678261e+01
470.264984	1.346373	city	10	1	1.424579	1.424579	0	1	0	0	CorrectCommission	1.214940	0.994393	0	0	3.565217e+01
471.604645	1.332918	city	7	1	1.482030	1.482030	0	1	0	0	CorrectCommission	1.493908	0.990464	0	0	3.452174e+01
472.950867	1.359551	city	8	1	0.985121	0.985121	0	1	0	0	CorrectCommission	0.918959	0.982939	0	0	3.339130e+01
474.277039	1.292746	city	3	1	0.911165	0.911165	0	1	0	0	CorrectCommission	1.278071	0.970857	0	0	3.226087e+01
475.596588	1.346387	city	8	1	0.908989	0.908989	0	1	0	0	CorrectCommission	1.288636	0.953817	0	0	3.113043e+01
476.269775	12.475715	break	0	0	0.000000	1.038838	0	0	0	0	ThoughtProbe	0.658120	0.931960	0	30	30
489.412018	1.333040	city	4	1	1.261487	1.261487	0	1	0	0	CorrectCommission	0.423004	0.905889	0	0	3.090000e+01
490.738342	1.319601	city	9	1	1.537708	1.537708	0	1	0	0	CorrectCommission	1.764265	0.876460	0	0	3.180000e+01
492.077911	1.359540	city	1	1	1.217499	1.217499	0	1	0	0	CorrectCommission	0.209413	0.844610	0	0	3.270000e+01
493.404144	1.292926	city	4	1	1.339729	1.339729	0	1	0	0	CorrectCommission	0.802931	0.811322	0	0	3.360000e+01
494.717041	1.332861	city	3	1	1.061840	1.061840	0	1	0	0	CorrectCommission	0.546429	0.777480	0	0	3.450000e+01
496.036499	1.306082	mountain	5	0	0.000000	1.214564	1	0	0	0	CorrectOmission	0.195162	0.743921	0	0	3.540000e+01
497.329437	1.279762	city	10	1	1.475192	1.475192	0	1	0	0	CorrectCommission	1.460704	0.711528	1	0	3.630000e+01
498.615753	1.292886	city	4	1	1.521012	1.521012	0	1	0	0	CorrectCommission	1.683197	0.681196	1	0	3.720000e+01
499.928680	1.332946	city	10	1	1.219575	1.219575	0	1	0	0	CorrectCommission	0.219493	0.653994	1	0	3.810000e+01
501.234924	1.279552	city	4	1	1.126348	1.126348	0	1	0	0	CorrectCommission	0.233196	0.631115	1	0	39
502.534485	1.319570	city	5	1	1.053605	1.053605	0	1	0	0	CorrectCommission	0.586417	0.613737	1	0	3.990000e+01
503.874023	1.359535	mountain	10	1	1.124682	1.124682	0	0	1	0	CommissionError	0.241286	0.602897	1	0	4.080000e+01
505.220184	1.332734	city	6	1	1.223540	1.223540	0	1	0	0	CorrectCommission	0.238745	0.599390	1	0	4.170000e+01
506.552979	1.332884	city	5	1	1.280928	1.280928	0	1	0	0	CorrectCommission	0.517407	0.603581	1	0	4.260000e+01
507.859222	1.279580	city	1	1	1.179925	1.179925	0	1	0	0	CorrectCommission	0.026961	0.615353	1	0	4.350000e+01
509.152161	1.306296	city	2	1	1.402347	1.402347	0	1	0	0	CorrectCommission	1.106990	0.634126	1	0	4.440000e+01
510.485046	1.359495	city	5	1	1.260316	1.260316	0	1	0	0	CorrectCommission	0.417321	0.658880	1	0	4.530000e+01
511.817932	1.306291	city	2	1	1.015431	1.015431	0	1	0	0	CorrectCommission	0.771779	0.688372	1	0	4.620000e+01
513.137512	1.332869	city	1	1	1.039205	1.039205	0	1	0	0	CorrectCommission	0.656338	0.721234	0	0	4.710000e+01
514.463745	1.319572	city	6	1	1.021938	1.021938	0	1	0	0	CorrectCommission	0.740182	0.756188	0	0	48
515.783264	1.319530	city	4	1	1.012047	1.012047	0	1	0	0	CorrectCommission	0.788211	0.792254	0	0	4.890000e+01
517.096191	1.306239	city	7	1	0.983406	0.983406	0	1	0	0	CorrectCommission	0.927286	0.828947	0	0	4.980000e+01
518.395752	1.292911	city	10	1	0.988234	0.988234	0	1	0	0	CorrectCommission	0.903840	0.866457	0	0	5.070000e+01
519.701965	1.319549	city	3	1	1.548335	1.548335	0	1	0	0	CorrectCommission	1.815868	0.905840	0	0	5.160000e+01
521.014893	1.306249	city	1	1	1.389351	1.389351	0	1	0	0	CorrectCommission	1.043883	0.949336	0	0	5.250000e+01
522.341187	1.346385	city	8	1	1.209959	1.209959	0	1	0	0	CorrectCommission	0.172802	1.000677	0	0	5.340000e+01
523.660828	1.292905	mountain	1	0	0.000000	1.186510	1	0	0	0	CorrectOmission	0.058939	1.065437	0	0	5.430000e+01
524.974792	1.334965	city	4	1	1.307118	1.307118	0	1	0	0	CorrectCommission	0.644581	1.151370	0	0	5.520000e+01
526.307678	1.330835	city	2	1	1.559898	1.559898	0	1	0	0	CorrectCommission	1.872015	1.268552	0	0	5.610000e+01
527.646118	1.346061	city	10	1	1.433549	1.433549	0	1	0	0	CorrectCommission	1.258497	1.429360	0	0	57
528.965698	1.293091	city	1	1	1.536778	1.536778	0	1	0	0	CorrectCommission	1.759749	1.648087	0	0	5.790000e+01
530.265259	1.306049	city	6	1	1.591626	1.591626	0	1	0	0	CorrectCommission	2.026081	1.939885	0	0	5.880000e+01
531.611389	1.386237	city	1	1	1.270344	1.270344	0	1	0	0	CorrectCommission	0.466015	2.319340	0	0	5.970000e+01
532.984314	1.359522	city	8	1	0.942612	0.942612	0	1	0	0	CorrectCommission	1.125373	2.798594	0	0	6.060000e+01
534.343933	1.359745	city	4	1	0.965767	0.965767	0	1	0	0	CorrectCommission	1.012936	3.385152	0	0	6.150000e+01
535.703552	1.359463	city	10	1	1.140216	1.140216	0	1	0	0	CorrectCommission	0.165854	4.079962	0	0	6.240000e+01
537.036438	1.306317	city	6	1	0.936713	0.936713	0	1	0	0	CorrectCommission	1.154017	4.876007	0	0	6.330000e+01
538.356018	1.332885	city	8	1	0.903181	0.903181	0	1	0	0	CorrectCommission	1.316838	5.757736	0	0	6.420000e+01
539.668945	1.292924	city	9	1	1.829448	1.829448	0	1	0	0	CorrectCommission	3.180885	6.701762	0	0	6.510000e+01
540.315369	14.422316	break	0	0	0.000000	2.755715	0	0	0	0	ThoughtProbe	7.678608	7.678608	0	66	66
