onset	duration	trial_type	image_type	Press	ReactionTime	ReactionTime_Interpolated	CorrectOmission	CorrectCommission	CommissionError	OmissionError	response_type	nonsmoothVarianceTimeCourse	VarianceTimeCourse	In_the_Zone	ThoughtProbe	ThoughtProbe_Interpolated
0.651792	1.279683	city	10	1	1.092584	1.092584	0	1	0	0	CorrectCommission	0.095043	0.095043	1	0	98
1.931412	1.279558	city	2	1	1.037210	1.037210	0	1	0	0	CorrectCommission	0.360316	0.185865	1	0	98
3.217647	1.292910	city	10	1	0.952957	0.952957	0	1	0	0	CorrectCommission	0.763934	0.274192	1	0	98
4.503817	1.279430	city	8	1	0.965526	0.965526	0	1	0	0	CorrectCommission	0.703721	0.357722	1	0	98
5.783331	1.279599	mountain	7	0	0.000000	1.162275	1	0	0	0	CorrectOmission	0.238817	0.434510	1	0	98
7.069650	1.293038	city	5	1	1.247324	1.247324	0	1	0	0	CorrectCommission	0.646246	0.503087	1	0	98
8.362621	1.292905	city	9	1	0.924790	0.924790	0	1	0	0	CorrectCommission	0.898869	0.562503	1	0	98
9.655468	1.292788	city	10	1	0.871971	0.871971	0	1	0	0	CorrectCommission	1.151900	0.612367	1	0	98
10.941711	1.279698	city	2	1	1.018362	1.018362	0	1	0	0	CorrectCommission	0.450607	0.652805	1	0	98
12.221293	1.279466	city	8	1	0.967516	0.967516	0	1	0	0	CorrectCommission	0.694186	0.684404	1	0	98
13.500872	1.279691	city	1	1	0.965119	0.965119	0	1	0	0	CorrectCommission	0.705671	0.708084	1	0	98
14.780510	1.279585	city	7	1	1.020927	1.020927	0	1	0	0	CorrectCommission	0.438319	0.725012	1	0	98
16.060091	1.279577	mountain	3	0	0.000000	1.323530	1	0	0	0	CorrectOmission	1.011318	0.736520	1	0	98
17.339676	1.279595	city	6	1	1.412199	1.412199	0	1	0	0	CorrectCommission	1.436089	0.743964	1	0	98
18.619221	1.279491	city	5	1	0.826203	0.826203	0	1	0	0	CorrectCommission	1.371154	0.748636	1	0	98
19.898790	1.279651	city	7	1	1.071686	1.071686	0	1	0	0	CorrectCommission	0.195157	0.751650	1	0	98
21.178381	1.279528	mountain	3	0	0.000000	1.129731	1	0	0	0	CorrectOmission	0.082911	0.753864	1	0	98
22.464548	1.292808	city	10	1	1.059823	1.059823	0	1	0	0	CorrectCommission	0.251986	0.755739	1	0	98
23.750818	1.279732	city	5	1	0.921447	0.921447	0	1	0	0	CorrectCommission	0.914884	0.757335	1	0	98
25.030472	1.279575	city	4	1	1.290565	1.290565	0	1	0	0	CorrectCommission	0.853397	0.758369	1	0	98
26.316729	1.292938	city	6	1	0.948285	0.948285	0	1	0	0	CorrectCommission	0.786313	0.758357	1	0	98
27.609556	1.292716	city	7	1	0.915659	0.915659	0	1	0	0	CorrectCommission	0.942609	0.756753	1	0	98
28.895794	1.279760	city	10	1	0.807403	0.807403	0	1	0	0	CorrectCommission	1.461216	0.753082	1	0	98
30.175455	1.279562	city	1	1	0.914578	0.914578	0	1	0	0	CorrectCommission	0.947790	0.747111	1	0	98
31.461615	1.292758	city	5	1	1.263161	1.263161	0	1	0	0	CorrectCommission	0.722116	0.738967	1	0	98
32.761120	1.306256	city	4	1	1.150732	1.150732	0	1	0	0	CorrectCommission	0.183520	0.729142	1	0	98
34.054104	1.279708	city	9	1	0.964501	0.964501	0	1	0	0	CorrectCommission	0.708629	0.718494	1	0	98
35.346996	1.306078	city	7	1	1.045136	1.045136	0	1	0	0	CorrectCommission	0.322344	0.708147	1	0	98
36.646484	1.292900	city	2	1	0.933460	0.933460	0	1	0	0	CorrectCommission	0.857335	0.699446	1	0	98
37.932808	1.279748	city	3	1	0.866256	0.866256	0	1	0	0	CorrectCommission	1.179281	0.693786	1	0	98
39.225769	1.306170	city	4	1	0.938740	0.938740	0	1	0	0	CorrectCommission	0.832040	0.692532	1	0	98
40.538677	1.319649	city	2	1	0.998549	0.998549	0	1	0	0	CorrectCommission	0.545520	0.696847	1	0	98
41.864952	1.332899	city	1	1	1.098080	1.098080	0	1	0	0	CorrectCommission	0.068712	0.707510	1	0	98
43.171108	1.279414	city	3	1	0.974591	0.974591	0	1	0	0	CorrectCommission	0.660297	0.724767	1	0	98
44.450684	1.279740	city	2	1	1.083410	1.083410	0	1	0	0	CorrectCommission	0.138991	0.748148	1	0	98
45.737015	1.292920	city	5	1	1.391678	1.391678	0	1	0	0	CorrectCommission	1.337782	0.776452	0	0	98
47.083145	1.399346	city	2	1	1.000051	1.000051	0	1	0	0	CorrectCommission	0.538324	0.807678	0	0	98
48.422615	1.279592	city	9	1	1.160122	1.160122	0	1	0	0	CorrectCommission	0.228500	0.839266	0	0	98
49.728935	1.333048	city	1	1	1.071695	1.071695	0	1	0	0	CorrectCommission	0.195113	0.868256	0	0	98
53.900913	7.010906	break	0	0	0.000000	1.435387	0	0	0	0	ThoughtProbe	1.547173	0.891634	0	98	98
58.046227	1.279721	city	8	1	1.695362	1.695362	0	1	0	0	CorrectCommission	2.792599	0.906664	0	0	9.778261e+01
59.325878	1.279579	city	3	1	1.295785	1.295785	0	1	0	0	CorrectCommission	0.878404	0.911290	0	0	9.756522e+01
60.612106	1.292885	mountain	7	0	0.000000	1.260667	1	0	0	0	CorrectOmission	0.710166	0.904477	0	0	9.734783e+01
61.898254	1.279411	city	8	1	1.355265	1.355265	0	1	0	0	CorrectCommission	1.163344	0.886280	0	0	9.713043e+01
63.177769	1.279612	mountain	4	0	0.000000	1.344839	1	0	0	0	CorrectOmission	1.113399	0.857882	0	0	9.691304e+01
64.464096	1.293054	city	1	1	1.308424	1.308424	0	1	0	0	CorrectCommission	0.938949	0.821501	0	0	9.669565e+01
65.750343	1.279432	mountain	6	0	0.000000	1.325053	1	0	0	0	CorrectOmission	1.018615	0.780152	0	0	9.647826e+01
67.029930	1.279747	city	9	1	1.303353	1.303353	0	1	0	0	CorrectCommission	0.914659	0.737278	1	0	9.626087e+01
68.322922	1.306230	city	5	1	1.151949	1.151949	0	1	0	0	CorrectCommission	0.189349	0.696366	1	0	9.604348e+01
69.615746	1.279417	city	1	1	1.016641	1.016641	0	1	0	0	CorrectCommission	0.458853	0.660591	1	0	9.582609e+01
70.901978	1.293045	city	8	1	1.155183	1.155183	0	1	0	0	CorrectCommission	0.204839	0.632431	1	0	9.560870e+01
72.194954	1.292909	city	3	1	1.094422	1.094422	0	1	0	0	CorrectCommission	0.086236	0.613444	1	0	9.539130e+01
73.494446	1.306073	city	4	1	1.152345	1.152345	0	1	0	0	CorrectCommission	0.191246	0.604173	1	0	9.517391e+01
74.787270	1.279580	city	7	1	1.084284	1.084284	0	1	0	0	CorrectCommission	0.134803	0.604168	1	0	9.495652e+01
76.073540	1.292953	city	5	1	1.364035	1.364035	0	1	0	0	CorrectCommission	1.205355	0.612143	1	0	9.473913e+01
77.366524	1.293026	city	10	1	0.991220	0.991220	0	1	0	0	CorrectCommission	0.580631	0.626194	1	0	9.452174e+01
78.652840	1.279599	city	1	1	1.319783	1.319783	0	1	0	0	CorrectCommission	0.993365	0.644139	1	0	9.430435e+01
79.945755	1.306228	city	2	1	1.275324	1.275324	0	1	0	0	CorrectCommission	0.780385	0.663797	1	0	9.408696e+01
81.238663	1.279591	city	3	1	1.019009	1.019009	0	1	0	0	CorrectCommission	0.447507	0.683248	1	0	9.386957e+01
82.518234	1.279557	city	4	1	1.185003	1.185003	0	1	0	0	CorrectCommission	0.347697	0.701085	1	0	9.365217e+01
83.797798	1.279571	city	7	1	0.976643	0.976643	0	1	0	0	CorrectCommission	0.650466	0.716545	1	0	9.343478e+01
85.090706	1.306246	city	9	1	0.807280	0.807280	0	1	0	0	CorrectCommission	1.461804	0.729570	1	0	9.321739e+01
86.383629	1.279593	city	10	1	0.815739	0.815739	0	1	0	0	CorrectCommission	1.421285	0.740745	1	0	93
87.663208	1.279564	city	2	1	0.931058	0.931058	0	1	0	0	CorrectCommission	0.868839	0.751289	1	0	9.278261e+01
88.949409	1.292840	city	9	1	1.095010	1.095010	0	1	0	0	CorrectCommission	0.083419	0.762812	1	0	9.256522e+01
90.242317	1.292978	city	5	1	1.256603	1.256603	0	1	0	0	CorrectCommission	0.690697	0.777083	0	0	9.234783e+01
91.528595	1.279579	city	8	1	1.036509	1.036509	0	1	0	0	CorrectCommission	0.363674	0.795697	0	0	9.213043e+01
92.821510	1.306256	city	7	1	1.020251	1.020251	0	1	0	0	CorrectCommission	0.441559	0.819851	0	0	9.191304e+01
94.134415	1.319544	city	3	1	0.864657	0.864657	0	1	0	0	CorrectCommission	1.186937	0.850155	0	0	9.169565e+01
95.440636	1.292904	city	5	1	0.868097	0.868097	0	1	0	0	CorrectCommission	1.170461	0.886496	0	0	9.147826e+01
96.740211	1.306239	city	3	1	1.082992	1.082992	0	1	0	0	CorrectCommission	0.140992	0.928072	0	0	9.126087e+01
98.039795	1.292941	city	4	1	1.039200	1.039200	0	1	0	0	CorrectCommission	0.350781	0.973467	0	0	9.104348e+01
99.332718	1.292898	city	6	1	0.890351	0.890351	0	1	0	0	CorrectCommission	1.063851	1.020836	0	0	9.082609e+01
100.618942	1.279559	city	9	1	0.857757	0.857757	0	1	0	0	CorrectCommission	1.219994	1.068174	0	0	9.060870e+01
101.898514	1.279580	city	6	1	0.719905	0.719905	0	1	0	0	CorrectCommission	1.880379	1.113578	0	0	9.039130e+01
103.178017	1.279417	mountain	8	0	0.000000	1.309190	1	0	0	0	CorrectOmission	0.942619	1.155448	0	0	9.017391e+01
104.464272	1.293092	city	6	1	1.695832	1.695832	0	1	0	0	CorrectCommission	2.794848	1.192646	0	0	8.995652e+01
105.770599	1.319564	city	10	1	0.950053	0.950053	0	1	0	0	CorrectCommission	0.777846	1.224426	0	0	8.973913e+01
107.076767	1.292774	city	5	1	1.323752	1.323752	0	1	0	0	CorrectCommission	1.012377	1.250462	0	0	8.952174e+01
108.362938	1.279576	city	9	1	0.878094	0.878094	0	1	0	0	CorrectCommission	1.122569	1.270558	0	0	8.930435e+01
109.649155	1.292856	city	10	1	0.804166	0.804166	0	1	0	0	CorrectCommission	1.476724	1.284448	0	0	8.908696e+01
110.955460	1.319754	city	5	1	1.174996	1.174996	0	1	0	0	CorrectCommission	0.299757	1.291718	0	0	8.886957e+01
112.261719	1.292755	city	1	1	0.930221	0.930221	0	1	0	0	CorrectCommission	0.872850	1.291783	0	0	8.865217e+01
113.569000	1.321816	city	7	1	0.804208	0.804208	0	1	0	0	CorrectCommission	1.476525	1.283938	0	0	8.843478e+01
114.875305	1.290784	city	6	1	1.759640	1.759640	0	1	0	0	CorrectCommission	3.100526	1.267613	0	0	8.821739e+01
119.399414	7.757438	break	0	0	0.000000	1.573587	0	0	0	0	ThoughtProbe	2.209225	1.242618	0	88	88
123.924522	1.292788	city	2	1	1.139284	1.139284	0	1	0	0	CorrectCommission	0.128677	1.209449	0	0	8.820588e+01
125.210686	1.279529	city	4	1	1.349971	1.349971	0	1	0	0	CorrectCommission	1.137981	1.169374	0	0	8.841176e+01
126.490349	1.279801	city	5	1	1.459300	1.459300	0	1	0	0	CorrectCommission	1.661731	1.124393	0	0	8.861765e+01
127.770035	1.279565	city	6	1	1.497089	1.497089	0	1	0	0	CorrectCommission	1.842759	1.077132	0	0	8.882353e+01
129.049545	1.279445	city	5	1	1.018062	1.018062	0	1	0	0	CorrectCommission	0.452046	1.030539	0	0	8.902941e+01
130.342438	1.306350	city	6	1	1.193231	1.193231	0	1	0	0	CorrectCommission	0.387114	0.987570	0	0	8.923529e+01
131.635315	1.279413	city	7	1	0.913293	0.913293	0	1	0	0	CorrectCommission	0.953946	0.950730	0	0	8.944118e+01
132.921570	1.293088	city	4	1	1.000192	1.000192	0	1	0	0	CorrectCommission	0.537649	0.921792	0	0	8.964706e+01
134.214554	1.292892	mountain	5	0	0.000000	1.138219	1	0	0	0	CorrectOmission	0.123576	0.901563	0	0	8.985294e+01
135.500793	1.279590	city	10	1	1.196991	1.196991	0	1	0	0	CorrectCommission	0.405126	0.889863	0	0	9.005882e+01
136.793640	1.306077	city	5	1	1.046126	1.046126	0	1	0	0	CorrectCommission	0.317602	0.885588	0	0	9.026471e+01
138.106537	1.319716	city	8	1	0.824703	0.824703	0	1	0	0	CorrectCommission	1.378343	0.887018	0	0	9.047059e+01
139.412857	1.292927	city	2	1	0.540773	0.540773	0	1	0	0	CorrectCommission	2.738523	0.892038	0	0	9.067647e+01
140.712418	1.306220	city	6	1	1.120027	1.120027	0	1	0	0	CorrectCommission	0.036425	0.898548	0	0	9.088235e+01
142.018661	1.306256	city	1	1	0.880375	0.880375	0	1	0	0	CorrectCommission	1.111640	0.904814	0	0	9.108824e+01
143.311539	1.279481	city	8	1	0.935687	0.935687	0	1	0	0	CorrectCommission	0.846664	0.909500	0	0	9.129412e+01
144.591095	1.279655	city	2	1	0.925548	0.925548	0	1	0	0	CorrectCommission	0.895237	0.911845	0	0	9.150000e+01
145.890701	1.319562	city	9	1	0.952441	0.952441	0	1	0	0	CorrectCommission	0.766404	0.911631	0	0	9.170588e+01
147.196960	1.292937	city	7	1	0.911301	0.911301	0	1	0	0	CorrectCommission	0.963488	0.909129	0	0	9.191176e+01
148.496536	1.306232	city	6	1	0.930345	0.930345	0	1	0	0	CorrectCommission	0.872256	0.904939	0	0	9.211765e+01
149.796097	1.292885	mountain	7	0	0.000000	1.255337	1	0	0	0	CorrectOmission	0.684634	0.899893	0	0	9.232353e+01
151.082306	1.279512	city	6	1	1.402281	1.402281	0	1	0	0	CorrectCommission	1.388577	0.894959	0	0	9.252941e+01
152.375214	1.306308	city	2	1	0.887183	0.887183	0	1	0	0	CorrectCommission	1.079028	0.891091	0	0	9.273529e+01
153.668152	1.279574	city	6	1	0.977333	0.977333	0	1	0	0	CorrectCommission	0.647159	0.889129	0	0	9.294118e+01
154.974396	1.332914	city	8	1	0.845222	0.845222	0	1	0	0	CorrectCommission	1.280041	0.889652	0	0	9.314706e+01
156.293945	1.306198	city	4	1	1.107557	1.107557	0	1	0	0	CorrectCommission	0.023313	0.892869	0	0	9.335294e+01
157.606842	1.319597	city	3	1	0.902097	0.902097	0	1	0	0	CorrectCommission	1.007579	0.898615	0	0	9.355882e+01
158.906448	1.279598	city	6	1	1.138640	1.138640	0	1	0	0	CorrectCommission	0.125590	0.906284	0	0	9.376471e+01
160.205948	1.319407	city	4	1	0.939526	0.939526	0	1	0	0	CorrectCommission	0.828277	0.914947	0	0	9.397059e+01
161.512161	1.293026	city	6	1	0.834039	0.834039	0	1	0	0	CorrectCommission	1.333616	0.923456	0	0	9.417647e+01
162.805145	1.292947	city	8	1	0.770467	0.770467	0	1	0	0	CorrectCommission	1.638159	0.930656	0	0	9.438235e+01
164.091400	1.279547	city	9	1	0.871882	0.871882	0	1	0	0	CorrectCommission	1.152326	0.935596	0	0	9.458824e+01
165.377640	1.292932	city	4	1	1.210127	1.210127	0	1	0	0	CorrectCommission	0.468052	0.937710	0	0	9.479412e+01
169.969467	7.890723	break	0	0	0.000000	1.382257	0	0	0	0	ThoughtProbe	1.292651	0.936904	0	95	95
174.554535	1.279421	city	3	1	1.408849	1.408849	0	1	0	0	CorrectCommission	1.420041	0.933526	0	0	95
175.834045	1.279582	city	2	1	1.310478	1.310478	0	1	0	0	CorrectCommission	0.948789	0.928410	0	0	95
177.113617	1.279570	city	5	1	1.072128	1.072128	0	1	0	0	CorrectCommission	0.193040	0.922659	0	0	95
178.393280	1.279760	city	4	1	1.406848	1.406848	0	1	0	0	CorrectCommission	1.410454	0.917490	0	0	95
179.726257	1.386208	city	6	1	1.076868	1.076868	0	1	0	0	CorrectCommission	0.170329	0.913973	0	0	95
181.059082	1.279422	city	2	1	0.972465	0.972465	0	1	0	0	CorrectCommission	0.670479	0.912956	0	0	95
182.365311	1.333054	city	8	1	0.815232	0.815232	0	1	0	0	CorrectCommission	1.423714	0.914853	0	0	95
183.678299	1.292909	city	4	1	0.977223	0.977223	0	1	0	0	CorrectCommission	0.647686	0.919650	0	0	95
184.964462	1.279419	city	10	1	0.868295	0.868295	0	1	0	0	CorrectCommission	1.169512	0.926927	0	0	95
186.264023	1.319702	city	8	1	0.966701	0.966701	0	1	0	0	CorrectCommission	0.698092	0.935838	0	0	95
187.563675	1.279600	city	5	1	1.355691	1.355691	0	1	0	0	CorrectCommission	1.165386	0.945310	0	0	95
188.863190	1.319432	city	9	1	1.061631	1.061631	0	1	0	0	CorrectCommission	0.243324	0.954122	0	0	95
190.169373	1.292945	city	5	1	1.391888	1.391888	0	1	0	0	CorrectCommission	1.338787	0.961096	0	0	95
191.468933	1.306172	city	1	1	1.339977	1.339977	0	1	0	0	CorrectCommission	1.090108	0.965228	0	0	95
192.775208	1.306382	city	2	1	1.383826	1.383826	0	1	0	0	CorrectCommission	1.300167	0.965836	0	0	95
194.101517	1.346217	mountain	3	1	0.913543	0.913543	0	0	1	0	CommissionError	0.952748	0.962657	0	0	95
195.414352	1.279448	city	1	1	1.410442	1.410442	0	1	0	0	CorrectCommission	1.427675	0.955932	0	0	95
196.700516	1.292880	mountain	3	0	0.000000	1.410683	1	0	0	0	CorrectOmission	1.428829	0.946287	0	0	95
197.986755	1.279604	city	5	1	1.231868	1.231868	0	1	0	0	CorrectCommission	0.572206	0.934705	0	0	95
199.279739	1.306372	city	8	1	1.191600	1.191600	0	1	0	0	CorrectCommission	0.379298	0.922378	0	0	95
200.572708	1.279579	mountain	2	0	0.000000	1.226973	1	0	0	0	CorrectOmission	0.548753	0.910525	0	0	95
201.852219	1.279429	city	9	1	1.306155	1.306155	0	1	0	0	CorrectCommission	0.928082	0.900205	0	0	95
203.131729	1.279599	mountain	5	0	0.000000	1.397317	1	0	0	0	CorrectOmission	1.364795	0.892221	0	0	95
204.418060	1.293064	city	5	1	1.352367	1.352367	0	1	0	0	CorrectCommission	1.149462	0.886989	0	0	95
205.710983	1.292763	city	6	1	1.023218	1.023218	0	1	0	0	CorrectCommission	0.427346	0.884537	0	0	95
207.010468	1.306216	city	7	1	1.101961	1.101961	0	1	0	0	CorrectCommission	0.050123	0.884472	0	0	95
208.330093	1.333037	city	3	1	0.859857	0.859857	0	1	0	0	CorrectCommission	1.209936	0.886037	0	0	95
209.636414	1.279596	city	1	1	0.809781	0.809781	0	1	0	0	CorrectCommission	1.449823	0.888225	0	0	95
210.929337	1.306248	city	4	1	1.215906	1.215906	0	1	0	0	CorrectCommission	0.495736	0.889878	0	0	95
212.228897	1.292873	city	9	1	0.877172	0.877172	0	1	0	0	CorrectCommission	1.126983	0.889891	0	0	95
213.528412	1.306175	city	3	1	0.929536	0.929536	0	1	0	0	CorrectCommission	0.876130	0.887315	0	0	95
214.821289	1.279557	city	7	1	0.911599	0.911599	0	1	0	0	CorrectCommission	0.962058	0.881566	0	0	95
216.114227	1.306331	city	10	1	0.834451	0.834451	0	1	0	0	CorrectCommission	1.331642	0.872486	0	0	95
217.407104	1.279440	city	9	1	0.980618	0.980618	0	1	0	0	CorrectCommission	0.631422	0.860424	0	0	95
218.699951	1.306241	city	4	1	1.097205	1.097205	0	1	0	0	CorrectCommission	0.072904	0.846243	0	0	95
219.992935	1.279732	city	5	1	1.634154	1.634154	0	1	0	0	CorrectCommission	2.499376	0.831210	0	0	95
221.299179	1.332737	city	8	1	0.970109	0.970109	0	1	0	0	CorrectCommission	0.681767	0.816789	0	0	95
222.638718	1.346365	city	4	1	0.970601	0.970601	0	1	0	0	CorrectCommission	0.679406	0.804542	0	0	95
223.965027	1.306233	city	9	1	1.049080	1.049080	0	1	0	0	CorrectCommission	0.303451	0.795759	0	0	95
225.264587	1.292908	city	3	1	1.106642	1.106642	0	1	0	0	CorrectCommission	0.027698	0.791251	0	0	95
226.564178	1.306252	city	2	1	1.132213	1.132213	0	1	0	0	CorrectCommission	0.094803	0.791195	0	0	95
227.870407	1.306206	city	8	1	1.423578	1.423578	0	1	0	0	CorrectCommission	1.490601	0.795046	0	0	95
229.163300	1.279598	city	2	1	0.975318	0.975318	0	1	0	0	CorrectCommission	0.656809	0.801565	0	0	95
230.449478	1.292744	city	9	1	1.254498	1.254498	0	1	0	0	CorrectCommission	0.680614	0.809076	0	0	95
231.749054	1.306419	city	10	1	0.893241	0.893241	0	1	0	0	CorrectCommission	1.050007	0.815657	0	0	95
232.402267	8.597177	break	0	1	1.085669	1.085669	0	0	0	0	ThoughtProbe	0.128167	0.819488	0	95	95
241.645844	1.292814	city	3	1	1.660306	1.660306	0	1	0	0	CorrectCommission	2.624659	0.819182	0	0	9.494118e+01
242.938660	1.292813	city	6	1	1.375281	1.375281	0	1	0	0	CorrectCommission	1.259234	0.813917	0	0	9.488235e+01
244.224854	1.279580	city	5	1	1.124741	1.124741	0	1	0	0	CorrectCommission	0.059009	0.803662	0	0	9.482353e+01
245.504532	1.279780	city	6	1	1.239116	1.239116	0	1	0	0	CorrectCommission	0.606927	0.789093	0	0	9.476471e+01
246.784210	1.279567	mountain	4	0	0.000000	1.351691	1	0	0	0	CorrectOmission	1.146225	0.771472	1	0	9.470588e+01
248.063782	1.279557	city	6	1	1.348177	1.348177	0	1	0	0	CorrectCommission	1.129389	0.752438	1	0	9.464706e+01
249.356644	1.306195	city	7	1	1.114282	1.114282	0	1	0	0	CorrectCommission	0.008903	0.733766	1	0	9.458824e+01
250.649567	1.279642	city	6	1	0.943241	0.943241	0	1	0	0	CorrectCommission	0.810478	0.717124	1	0	9.452941e+01
251.935760	1.292734	city	3	1	1.084879	1.084879	0	1	0	0	CorrectCommission	0.131953	0.703822	1	0	9.447059e+01
253.221909	1.279579	city	9	1	0.912227	0.912227	0	1	0	0	CorrectCommission	0.959052	0.694694	1	0	9.441176e+01
254.528229	1.333053	city	6	1	1.002861	1.002861	0	1	0	0	CorrectCommission	0.524866	0.690015	1	0	9.435294e+01
255.841217	1.292930	city	10	1	0.946853	0.946853	0	1	0	0	CorrectCommission	0.793176	0.689529	1	0	9.429412e+01
257.140717	1.306046	city	8	1	1.081676	1.081676	0	1	0	0	CorrectCommission	0.147297	0.692552	1	0	9.423529e+01
258.453522	1.319574	city	2	1	1.008804	1.008804	0	1	0	0	CorrectCommission	0.496394	0.698152	1	0	9.417647e+01
259.759796	1.292995	city	8	1	0.877141	0.877141	0	1	0	0	CorrectCommission	1.127134	0.705281	1	0	9.411765e+01
261.052734	1.292845	city	9	1	0.890530	0.890530	0	1	0	0	CorrectCommission	1.062993	0.712965	1	0	9.405882e+01
262.352325	1.306368	city	8	1	0.837808	0.837808	0	1	0	0	CorrectCommission	1.315560	0.720453	1	0	94
263.685303	1.359570	city	2	1	1.178373	1.178373	0	1	0	0	CorrectCommission	0.315935	0.727261	1	0	9.394118e+01
265.018219	1.306245	city	7	1	1.166936	1.166936	0	1	0	0	CorrectCommission	0.261143	0.733238	1	0	9.388235e+01
266.317780	1.292879	city	1	1	0.978495	0.978495	0	1	0	0	CorrectCommission	0.641591	0.738487	1	0	9.382353e+01
267.604004	1.279599	mountain	10	0	0.000000	0.884850	1	0	0	0	CorrectOmission	1.090204	0.743257	1	0	9.376471e+01
268.890259	1.292908	city	2	1	0.891147	0.891147	0	1	0	0	CorrectCommission	1.060039	0.747886	1	0	9.370588e+01
270.183136	1.292824	city	6	1	1.002532	1.002532	0	1	0	0	CorrectCommission	0.526441	0.752630	1	0	9.364706e+01
271.476013	1.292970	city	5	1	0.945910	0.945910	0	1	0	0	CorrectCommission	0.797691	0.757608	1	0	9.358824e+01
272.775543	1.306074	city	8	1	0.946448	0.946448	0	1	0	0	CorrectCommission	0.795112	0.762693	1	0	9.352941e+01
274.068390	1.279589	city	3	1	1.152543	1.152543	0	1	0	0	CorrectCommission	0.192196	0.767488	1	0	9.347059e+01
275.354614	1.292899	city	2	1	1.141613	1.141613	0	1	0	0	CorrectCommission	0.139834	0.771367	1	0	9.341176e+01
276.640930	1.279721	city	3	1	1.518708	1.518708	0	1	0	0	CorrectCommission	1.946327	0.773517	1	0	9.335294e+01
277.940613	1.319626	city	9	1	0.961465	0.961465	0	1	0	0	CorrectCommission	0.723174	0.773050	1	0	9.329412e+01
279.260193	1.319547	city	7	1	1.005749	1.005749	0	1	0	0	CorrectCommission	0.511032	0.769246	1	0	9.323529e+01
280.572998	1.306053	city	8	1	0.786874	0.786874	0	1	0	0	CorrectCommission	1.559562	0.761684	1	0	9.317647e+01
281.872467	1.292907	city	1	1	1.033967	1.033967	0	1	0	0	CorrectCommission	0.375849	0.750311	1	0	9.311765e+01
283.158722	1.279598	city	9	1	0.911863	0.911863	0	1	0	0	CorrectCommission	0.960798	0.735651	1	0	9.305882e+01
287.497345	7.397667	break	0	1	0.933679	0.933679	0	0	0	0	ThoughtProbe	0.856286	0.718730	1	93	93
291.835938	1.279465	city	6	1	1.252758	1.252758	0	1	0	0	CorrectCommission	0.672279	0.701078	1	0	9.307500e+01
293.115540	1.279750	city	8	1	1.193128	1.193128	0	1	0	0	CorrectCommission	0.386618	0.684598	1	0	9.315000e+01
294.395142	1.279454	city	1	1	1.294643	1.294643	0	1	0	0	CorrectCommission	0.872931	0.671345	1	0	9.322500e+01
295.688049	1.306371	city	3	1	1.228213	1.228213	0	1	0	0	CorrectCommission	0.554697	0.663284	1	0	9.330000e+01
296.987610	1.292736	city	8	1	0.930310	0.930310	0	1	0	0	CorrectCommission	0.872425	0.662046	1	0	9.337500e+01
298.280487	1.293063	city	7	1	1.059081	1.059081	0	1	0	0	CorrectCommission	0.255542	0.668673	1	0	9.345000e+01
299.566742	1.279416	city	4	1	1.124429	1.124429	0	1	0	0	CorrectCommission	0.057511	0.683467	1	0	9.352500e+01
300.852905	1.292911	city	9	1	1.012748	1.012748	0	1	0	0	CorrectCommission	0.477500	0.705843	1	0	9.360000e+01
302.145844	1.292988	city	7	1	1.166108	1.166108	0	1	0	0	CorrectCommission	0.257177	0.734376	1	0	9.367500e+01
303.452179	1.319644	city	6	1	1.103635	1.103635	0	1	0	0	CorrectCommission	0.042103	0.766977	1	0	9.375000e+01
304.751770	1.279578	mountain	6	0	0.000000	1.308409	1	0	0	0	CorrectOmission	0.938877	0.801178	0	0	9.382500e+01
306.031342	1.279577	mountain	8	0	0.000000	1.529091	1	0	0	0	CorrectOmission	1.996067	0.834440	0	0	9.390000e+01
307.317596	1.292912	city	7	1	1.514343	1.514343	0	1	0	0	CorrectCommission	1.925416	0.864494	0	0	9.397500e+01
308.623871	1.319622	city	9	1	1.012826	1.012826	0	1	0	0	CorrectCommission	0.477127	0.889648	0	0	9.405000e+01
309.943359	1.319354	city	8	1	0.935874	0.935874	0	1	0	0	CorrectCommission	0.845770	0.908904	0	0	9.412500e+01
311.242889	1.279733	city	5	1	0.661407	0.661407	0	1	0	0	CorrectCommission	2.160618	0.921840	0	0	9.420000e+01
312.535858	1.306173	city	8	1	1.012552	1.012552	0	1	0	0	CorrectCommission	0.478439	0.928535	0	0	9.427500e+01
313.842010	1.306135	city	2	1	1.087194	1.087194	0	1	0	0	CorrectCommission	0.120863	0.929401	0	0	9.435000e+01
315.141602	1.293044	city	1	1	1.039209	1.039209	0	1	0	0	CorrectCommission	0.350740	0.924867	0	0	9.442500e+01
316.427856	1.279448	city	2	1	1.200200	1.200200	0	1	0	0	CorrectCommission	0.420500	0.915291	0	0	9.450000e+01
317.714111	1.293068	mountain	7	0	0.000000	1.482651	1	0	0	0	CorrectOmission	1.773593	0.900880	0	0	9.457500e+01
319.000427	1.279558	city	6	1	1.498234	1.498234	0	1	0	0	CorrectCommission	1.848243	0.881738	0	0	9.465000e+01
320.279907	1.279444	city	9	1	0.858623	0.858623	0	1	0	0	CorrectCommission	1.215845	0.858028	0	0	9.472500e+01
321.599396	1.359541	city	1	1	0.994299	0.994299	0	1	0	0	CorrectCommission	0.565882	0.830105	0	0	9.480000e+01
322.925629	1.292913	city	5	1	1.172514	1.172514	0	1	0	0	CorrectCommission	0.287866	0.798611	0	0	9.487500e+01
324.211975	1.279756	city	8	1	0.881667	0.881667	0	1	0	0	CorrectCommission	1.105451	0.764508	1	0	9.495000e+01
325.518280	1.332842	city	5	1	1.292298	1.292298	0	1	0	0	CorrectCommission	0.861696	0.729019	1	0	9.502500e+01
326.837830	1.306272	city	1	1	1.311549	1.311549	0	1	0	0	CorrectCommission	0.953920	0.693567	1	0	9.510000e+01
328.144012	1.306078	city	4	1	1.204993	1.204993	0	1	0	0	CorrectCommission	0.443457	0.659573	1	0	9.517500e+01
329.450165	1.306235	city	9	1	1.067633	1.067633	0	1	0	0	CorrectCommission	0.214571	0.628334	1	0	9.525000e+01
330.743134	1.279738	city	7	1	1.026306	1.026306	0	1	0	0	CorrectCommission	0.412551	0.600810	1	0	9.532500e+01
332.036072	1.306093	city	4	1	1.088657	1.088657	0	1	0	0	CorrectCommission	0.113853	0.577536	1	0	9.540000e+01
333.342316	1.306403	city	7	1	0.912048	0.912048	0	1	0	0	CorrectCommission	0.959908	0.558654	1	0	9.547500e+01
334.641968	1.292912	city	1	1	1.029144	1.029144	0	1	0	0	CorrectCommission	0.398956	0.543944	1	0	9.555000e+01
335.928131	1.279433	city	6	1	1.178465	1.178465	0	1	0	0	CorrectCommission	0.316373	0.533022	1	0	9.562500e+01
337.227631	1.319581	city	7	1	1.023062	1.023062	0	1	0	0	CorrectCommission	0.428091	0.525518	1	0	9.570000e+01
338.533875	1.292853	city	6	1	0.996130	0.996130	0	1	0	0	CorrectCommission	0.557112	0.521278	1	0	9.577500e+01
339.826813	1.293053	city	1	1	0.921663	0.921663	0	1	0	0	CorrectCommission	0.913849	0.520471	1	0	9.585000e+01
341.153046	1.359433	city	9	1	0.885135	0.885135	0	1	0	0	CorrectCommission	1.088837	0.523694	1	0	9.592500e+01
345.758148	7.850753	break	0	0	0.000000	1.027708	0	0	0	0	ThoughtProbe	0.405836	0.531867	1	96	96
350.330048	1.293037	city	1	1	1.161762	1.161762	0	1	0	0	CorrectCommission	0.236358	0.546104	1	0	9.585000e+01
351.616364	1.279587	mountain	1	0	0.000000	1.099679	1	0	0	0	CorrectOmission	0.061053	0.567415	1	0	9.570000e+01
352.915955	1.319582	city	1	1	1.068470	1.068470	0	1	0	0	CorrectCommission	0.210563	0.596396	1	0	9.555000e+01
354.242188	1.332883	city	5	1	1.295144	1.295144	0	1	0	0	CorrectCommission	0.875329	0.632979	1	0	9.540000e+01
355.554993	1.292742	city	6	1	1.129393	1.129393	0	1	0	0	CorrectCommission	0.081293	0.676281	1	0	9.525000e+01
356.861145	1.319585	city	3	1	1.136853	1.136853	0	1	0	0	CorrectCommission	0.117032	0.724587	1	0	9.510000e+01
358.227448	1.413029	city	2	1	1.153128	1.153128	0	1	0	0	CorrectCommission	0.194996	0.775460	1	0	9.495000e+01
359.580414	1.292890	city	6	1	1.215430	1.215430	0	1	0	0	CorrectCommission	0.493459	0.825984	0	0	9.480000e+01
360.879974	1.306237	city	4	1	1.768437	1.768437	0	1	0	0	CorrectCommission	3.142666	0.873167	0	0	9.465000e+01
362.172882	1.279579	city	5	0	0.000000	1.512527	0	0	0	1	OmissionError	1.916717	0.914203	0	0	9.450000e+01
363.459137	1.292931	city	1	1	1.125375	1.125375	0	1	0	0	CorrectCommission	0.062043	0.946926	0	0	9.435000e+01
364.745422	1.279606	city	5	1	1.284653	1.284653	0	1	0	0	CorrectCommission	0.825075	0.969950	0	0	9.420000e+01
366.044891	1.319383	mountain	4	0	0.000000	1.429095	1	0	0	0	CorrectOmission	1.517033	0.982648	0	0	9.405000e+01
367.357788	1.306370	city	4	1	1.393659	1.393659	0	1	0	0	CorrectCommission	1.347271	0.985205	0	0	9.390000e+01
368.670746	1.319562	city	2	1	1.013300	1.013300	0	1	0	0	CorrectCommission	0.474857	0.978452	0	0	9.375000e+01
369.996979	1.332896	city	7	1	1.390622	1.390622	0	1	0	0	CorrectCommission	1.332723	0.963712	0	0	9.360000e+01
371.343109	1.359389	city	5	1	1.306457	1.306457	0	1	0	0	CorrectCommission	0.929529	0.942579	0	0	9.345000e+01
372.689362	1.333078	city	10	1	0.881236	0.881236	0	1	0	0	CorrectCommission	1.107518	0.916854	0	0	9.330000e+01
374.015656	1.319550	city	1	1	1.122788	1.122788	0	1	0	0	CorrectCommission	0.049653	0.888384	0	0	9.315000e+01
375.315247	1.279604	mountain	8	0	0.000000	1.396904	1	0	0	0	CorrectOmission	1.362817	0.859051	0	0	93
376.601501	1.292902	city	6	1	1.426402	1.426402	0	1	0	0	CorrectCommission	1.504129	0.830673	0	0	9.285000e+01
377.901062	1.306243	city	1	1	0.934103	0.934103	0	1	0	0	CorrectCommission	0.854255	0.805018	0	0	9.270000e+01
379.220612	1.332852	city	6	1	1.132662	1.132662	0	1	0	0	CorrectCommission	0.096953	0.783681	0	0	9.255000e+01
380.546844	1.319577	city	1	1	0.915940	0.915940	0	1	0	0	CorrectCommission	0.941266	0.768026	1	0	9.240000e+01
381.879669	1.346086	city	2	1	1.096640	1.096640	0	1	0	0	CorrectCommission	0.075611	0.759067	1	0	9.225000e+01
383.205902	1.306404	city	6	1	0.969375	0.969375	0	1	0	0	CorrectCommission	0.685281	0.757431	1	0	9.210000e+01
384.505554	1.292901	city	7	1	1.093172	1.093172	0	1	0	0	CorrectCommission	0.092228	0.763272	1	0	9.195000e+01
385.791809	1.279582	city	2	1	1.417471	1.417471	0	1	0	0	CorrectCommission	1.461344	0.776302	0	0	9.180000e+01
387.084686	1.306200	city	10	1	1.199081	1.199081	0	1	0	0	CorrectCommission	0.415138	0.795751	0	0	9.165000e+01
388.424255	1.372921	city	8	1	0.995232	0.995232	0	1	0	0	CorrectCommission	0.561410	0.820541	0	0	9.150000e+01
389.750458	1.279492	city	3	1	0.862956	0.862956	0	1	0	0	CorrectCommission	1.195087	0.849230	0	0	9.135000e+01
391.043365	1.306298	city	6	1	1.028288	1.028288	0	1	0	0	CorrectCommission	0.403058	0.880178	0	0	9.120000e+01
392.349609	1.306224	city	9	1	0.764390	0.764390	0	1	0	0	CorrectCommission	1.667272	0.911632	0	0	9.105000e+01
393.682434	1.359415	city	6	1	0.816569	0.816569	0	1	0	0	CorrectCommission	1.417306	0.941711	0	0	9.090000e+01
395.035339	1.346364	city	8	1	0.954464	0.954464	0	1	0	0	CorrectCommission	0.756715	0.968468	0	0	9.075000e+01
396.354980	1.292920	city	1	1	1.043367	1.043367	0	1	0	0	CorrectCommission	0.330819	0.990018	0	0	9.060000e+01
397.641144	1.279439	city	7	1	1.310447	1.310447	0	1	0	0	CorrectCommission	0.948642	1.004602	0	0	9.045000e+01
398.940643	1.319544	city	1	1	1.013072	1.013072	0	1	0	0	CorrectCommission	0.475950	1.010752	0	0	9.030000e+01
400.253571	1.306301	city	7	1	1.244444	1.244444	0	1	0	0	CorrectCommission	0.632451	1.007584	0	0	9.015000e+01
400.906708	8.157270	break	0	0	0.000000	1.669743	0	0	0	0	ThoughtProbe	2.669868	0.994992	0	90	90
409.717194	1.306401	city	1	1	1.827911	1.827911	0	1	0	0	CorrectCommission	3.427580	0.973783	0	0	9.008824e+01
411.016754	1.292724	city	3	1	1.257890	1.257890	0	1	0	0	CorrectCommission	0.696863	0.945729	0	0	9.017647e+01
412.309631	1.293076	mountain	10	0	0.000000	1.157878	1	0	0	0	CorrectOmission	0.217751	0.913473	0	0	9.026471e+01
413.602631	1.292925	city	3	1	1.203720	1.203720	0	1	0	0	CorrectCommission	0.437360	0.880072	0	0	9.035294e+01
414.902222	1.306217	city	9	1	1.071260	1.071260	0	1	0	0	CorrectCommission	0.197195	0.848595	0	0	9.044118e+01
416.208435	1.306236	city	3	1	1.076594	1.076594	0	1	0	0	CorrectCommission	0.171645	0.821628	0	0	9.052941e+01
417.508026	1.292934	city	10	1	0.986743	0.986743	0	1	0	0	CorrectCommission	0.602079	0.800883	0	0	9.061765e+01
418.807526	1.306068	city	3	1	1.204122	1.204122	0	1	0	0	CorrectCommission	0.439288	0.786899	0	0	9.070588e+01
420.126984	1.332869	city	10	1	0.860584	0.860584	0	1	0	0	CorrectCommission	1.206453	0.779064	0	0	9.079412e+01
421.446625	1.306406	city	9	1	1.005253	1.005253	0	1	0	0	CorrectCommission	0.513404	0.775700	1	0	9.088235e+01
422.766205	1.332761	city	5	1	1.299837	1.299837	0	1	0	0	CorrectCommission	0.897813	0.774499	1	0	9.097059e+01
424.105774	1.346357	city	4	1	1.085829	1.085829	0	1	0	0	CorrectCommission	0.127402	0.772882	1	0	9.105882e+01
425.418732	1.279580	city	5	1	1.490388	1.490388	0	1	0	0	CorrectCommission	1.810658	0.768509	1	0	9.114706e+01
426.724976	1.332895	mountain	7	1	1.031595	1.031595	0	0	1	0	CommissionError	0.387215	0.759653	1	0	9.123529e+01
428.031219	1.279577	city	7	1	1.618374	1.618374	0	1	0	0	CorrectCommission	2.423782	0.745572	1	0	9.132353e+01
429.350800	1.359579	city	1	1	1.298341	1.298341	0	1	0	0	CorrectCommission	0.890649	0.726523	1	0	9.141176e+01
430.690369	1.319558	city	3	1	1.181490	1.181490	0	1	0	0	CorrectCommission	0.330864	0.703838	1	0	9.150000e+01
432.003265	1.306240	city	7	1	1.155928	1.155928	0	1	0	0	CorrectCommission	0.208411	0.679588	1	0	9.158824e+01
433.322754	1.332712	city	5	1	1.302632	1.302632	0	1	0	0	CorrectCommission	0.911201	0.656218	1	0	9.167647e+01
434.635559	1.292936	city	9	1	1.142312	1.142312	0	1	0	0	CorrectCommission	0.143183	0.636152	1	0	9.176471e+01
435.981873	1.399671	city	6	1	1.126556	1.126556	0	1	0	0	CorrectCommission	0.067701	0.621435	1	0	9.185294e+01
437.334839	1.306261	city	5	1	0.982351	0.982351	0	1	0	0	CorrectCommission	0.623117	0.613405	1	0	9.194118e+01
438.641083	1.306238	city	9	1	1.177071	1.177071	0	1	0	0	CorrectCommission	0.309696	0.612534	1	0	9.202941e+01
439.940552	1.292722	city	7	1	1.167714	1.167714	0	1	0	0	CorrectCommission	0.264870	0.618530	1	0	9.211765e+01
441.233398	1.292929	city	10	1	0.948295	0.948295	0	1	0	0	CorrectCommission	0.786266	0.630401	1	0	9.220588e+01
442.519653	1.279586	city	6	1	1.324909	1.324909	0	1	0	0	CorrectCommission	1.017922	0.646658	1	0	9.229412e+01
443.825867	1.332870	city	10	1	1.175121	1.175121	0	1	0	0	CorrectCommission	0.300356	0.665620	1	0	9.238235e+01
445.132050	1.279502	city	7	1	1.268149	1.268149	0	1	0	0	CorrectCommission	0.746012	0.685670	1	0	9.247059e+01
446.431732	1.319826	city	10	1	0.950177	0.950177	0	1	0	0	CorrectCommission	0.777250	0.705381	1	0	9.255882e+01
447.731354	1.279426	city	1	1	1.433820	1.433820	0	1	0	0	CorrectCommission	1.539667	0.723677	1	0	9.264706e+01
449.017578	1.293039	city	7	1	1.333698	1.333698	0	1	0	0	CorrectCommission	1.060024	0.739807	1	0	9.273529e+01
450.343872	1.359571	city	4	1	1.242901	1.242901	0	1	0	0	CorrectCommission	0.625059	0.753316	1	0	9.282353e+01
451.670044	1.292727	city	7	1	1.145248	1.145248	0	1	0	0	CorrectCommission	0.157245	0.763890	1	0	9.291176e+01
455.442139	6.251451	break	0	0	0.000000	1.152553	0	0	0	0	ThoughtProbe	0.192241	0.771290	1	93	93
459.220978	1.306228	city	6	1	1.230117	1.230117	0	1	0	0	CorrectCommission	0.563818	0.775245	1	0	9.306522e+01
460.520508	1.292837	city	3	1	1.343241	1.343241	0	1	0	0	CorrectCommission	1.105745	0.775497	1	0	9.313043e+01
461.846558	1.359301	mountain	3	0	0.000000	1.375091	1	0	0	0	CorrectOmission	1.258323	0.771869	1	0	9.319565e+01
463.166077	1.279750	city	10	1	1.378096	1.378096	0	1	0	0	CorrectCommission	1.272719	0.764449	1	0	9.326087e+01
464.479095	1.346238	city	2	1	1.404686	1.404686	0	1	0	0	CorrectCommission	1.400099	0.753696	1	0	9.332609e+01
465.811981	1.319572	city	8	1	1.031796	1.031796	0	1	0	0	CorrectCommission	0.386251	0.740518	1	0	9.339130e+01
467.131561	1.319552	city	10	1	0.939777	0.939777	0	1	0	0	CorrectCommission	0.827071	0.726265	1	0	9.345652e+01
468.431213	1.279750	mountain	5	0	0.000000	1.133510	1	0	0	0	CorrectOmission	0.101017	0.712566	1	0	9.352174e+01
469.724182	1.306235	city	1	1	1.262916	1.262916	0	1	0	0	CorrectCommission	0.720942	0.701186	1	0	9.358696e+01
471.023773	1.292902	city	9	1	0.977916	0.977916	0	1	0	0	CorrectCommission	0.644367	0.693708	1	0	9.365217e+01
472.316589	1.292729	mountain	6	0	0.000000	1.155320	1	0	0	0	CorrectOmission	0.205499	0.691329	1	0	9.371739e+01
473.609406	1.292902	city	7	1	1.298207	1.298207	0	1	0	0	CorrectCommission	0.890005	0.694649	1	0	9.378261e+01
474.909058	1.306421	city	8	1	0.909652	0.909652	0	1	0	0	CorrectCommission	0.971386	0.703482	1	0	9.384783e+01
476.228699	1.332877	city	1	1	1.048575	1.048575	0	1	0	0	CorrectCommission	0.305870	0.716844	1	0	9.391304e+01
477.574921	1.359569	city	3	1	1.118389	1.118389	0	1	0	0	CorrectCommission	0.028579	0.733053	1	0	9.397826e+01
478.927765	1.346076	city	2	1	1.259255	1.259255	0	1	0	0	CorrectCommission	0.703403	0.749888	1	0	9.404348e+01
480.273926	1.346292	city	6	1	1.265880	1.265880	0	1	0	0	CorrectCommission	0.735142	0.764894	1	0	9.410870e+01
481.613556	1.332959	city	7	1	0.992909	0.992909	0	1	0	0	CorrectCommission	0.572542	0.775795	0	0	9.417391e+01
482.933075	1.306074	city	10	1	0.778779	0.778779	0	1	0	0	CorrectCommission	1.598343	0.780869	0	0	9.423913e+01
484.239319	1.306420	city	5	1	0.598915	0.598915	0	1	0	0	CorrectCommission	2.459991	0.779246	0	0	9.430435e+01
485.552307	1.319564	city	3	1	0.943782	0.943782	0	1	0	0	CorrectCommission	0.807884	0.771116	1	0	9.436957e+01
486.878448	1.332730	city	10	1	0.937524	0.937524	0	1	0	0	CorrectCommission	0.837866	0.757775	1	0	9.443478e+01
488.184631	1.279584	city	8	1	1.038469	1.038469	0	1	0	0	CorrectCommission	0.354284	0.741342	1	0	9.450000e+01
489.484192	1.319564	city	1	1	1.088035	1.088035	0	1	0	0	CorrectCommission	0.116833	0.724464	1	0	9.456522e+01
490.805420	1.322879	mountain	2	0	0.000000	1.230091	1	0	0	0	CorrectOmission	0.563694	0.709885	1	0	9.463043e+01
492.111755	1.289784	city	1	1	1.298713	1.298713	0	1	0	0	CorrectCommission	0.892431	0.699974	1	0	9.469565e+01
493.416412	1.319516	city	4	1	1.127977	1.127977	0	1	0	0	CorrectCommission	0.074511	0.696364	1	0	9.476087e+01
494.715912	1.279499	city	3	1	1.026743	1.026743	0	1	0	0	CorrectCommission	0.410459	0.699752	1	0	9.482609e+01
496.008820	1.306347	city	1	1	1.191550	1.191550	0	1	0	0	CorrectCommission	0.379060	0.709750	1	0	9.489130e+01
497.328430	1.332884	city	10	1	1.062162	1.062162	0	1	0	0	CorrectCommission	0.240780	0.725054	1	0	9.495652e+01
498.647980	1.306207	city	8	1	0.885899	0.885899	0	1	0	0	CorrectCommission	1.085180	0.743632	1	0	9.502174e+01
499.940887	1.279616	city	3	1	1.376032	1.376032	0	1	0	0	CorrectCommission	1.262830	0.763039	1	0	9.508696e+01
501.267151	1.372896	city	7	1	1.337796	1.337796	0	1	0	0	CorrectCommission	1.079660	0.780826	0	0	9.515217e+01
502.626617	1.346043	city	4	1	0.901830	0.901830	0	1	0	0	CorrectCommission	1.008861	0.794832	0	0	9.521739e+01
503.952850	1.306396	city	7	1	0.929764	0.929764	0	1	0	0	CorrectCommission	0.875038	0.803445	0	0	9.528261e+01
505.252441	1.292820	city	2	1	0.969802	0.969802	0	1	0	0	CorrectCommission	0.683236	0.805744	0	0	9.534783e+01
506.551941	1.306142	city	8	1	0.841024	0.841024	0	1	0	0	CorrectCommission	1.300156	0.801542	0	0	9.541304e+01
507.871521	1.333027	city	9	1	1.279326	1.279326	0	1	0	0	CorrectCommission	0.799554	0.791259	0	0	9.547826e+01
509.217834	1.359586	city	5	1	1.275560	1.275560	0	1	0	0	CorrectCommission	0.781513	0.775818	0	0	9.554348e+01
510.544006	1.292747	city	9	1	1.261891	1.261891	0	1	0	0	CorrectCommission	0.716030	0.756412	1	0	9.560870e+01
511.836914	1.293067	city	8	1	0.912109	0.912109	0	1	0	0	CorrectCommission	0.959616	0.734294	1	0	9.567391e+01
513.156555	1.346225	city	1	1	1.017460	1.017460	0	1	0	0	CorrectCommission	0.454926	0.710577	1	0	9.573913e+01
514.476013	1.292759	city	7	1	1.126085	1.126085	0	1	0	0	CorrectCommission	0.065445	0.686175	1	0	9.580435e+01
515.795593	1.346364	city	8	1	0.896107	0.896107	0	1	0	0	CorrectCommission	1.036274	0.661665	1	0	9.586957e+01
517.141907	1.346253	city	7	1	0.940280	0.940280	0	1	0	0	CorrectCommission	0.824660	0.637284	1	0	9.593478e+01
521.120605	6.611105	break	0	0	0.000000	0.984454	0	0	0	0	ThoughtProbe	0.613047	0.613047	1	96	96
