onset	duration	trial_type	image_type	Press	ReactionTime	ReactionTime_Interpolated	CorrectOmission	CorrectCommission	CommissionError	OmissionError	response_type	nonsmoothVarianceTimeCourse	VarianceTimeCourse	In_the_Zone	ThoughtProbe	ThoughtProbe_Interpolated
0.653176	1.279605	city	7	1	1.362316	1.362316	0	1	0	0	CorrectCommission	0.762972	0.762972	0	0	72
1.946087	1.306217	mountain	4	0	0.000000	1.356589	1	0	0	0	CorrectOmission	0.735732	0.746384	0	0	72
3.238987	1.279584	city	7	1	1.289428	1.289428	0	1	0	0	CorrectCommission	0.416300	0.732628	1	0	72
4.545220	1.332883	city	3	1	1.099400	1.099400	0	1	0	0	CorrectCommission	0.487517	0.724070	1	0	72
5.851377	1.279432	city	8	1	1.175309	1.175309	0	1	0	0	CorrectCommission	0.126479	0.722237	1	0	72
7.130969	1.279750	city	2	1	1.288154	1.288154	0	1	0	0	CorrectCommission	0.410238	0.727596	1	0	72
8.410623	1.279557	city	4	1	1.337914	1.337914	0	1	0	0	CorrectCommission	0.646910	0.739464	1	0	72
9.696865	1.292929	city	5	1	1.087673	1.087673	0	1	0	0	CorrectCommission	0.543297	0.756137	0	0	72
10.983063	1.279467	city	8	1	1.075504	1.075504	0	1	0	0	CorrectCommission	0.601174	0.775151	0	0	72
12.262564	1.279534	city	2	1	1.127107	1.127107	0	1	0	0	CorrectCommission	0.355741	0.793702	0	0	72
13.542187	1.279712	mountain	2	0	0.000000	1.462674	1	0	0	0	CorrectOmission	1.240298	0.809092	0	0	72
14.821843	1.279601	city	1	1	1.714722	1.714722	0	1	0	0	CorrectCommission	2.439096	0.819128	0	0	72
16.101389	1.279490	city	2	1	1.515765	1.515765	0	1	0	0	CorrectCommission	1.492807	0.822384	0	0	72
17.380962	1.279659	mountain	7	0	0.000000	1.378457	1	0	0	0	CorrectOmission	0.839742	0.818369	0	0	72
18.660576	1.279568	city	9	1	1.199802	1.199802	0	1	0	0	CorrectCommission	0.009985	0.807455	0	0	72
19.940161	1.279603	city	1	1	0.876799	0.876799	0	1	0	0	CorrectCommission	1.546261	0.790669	0	0	72
21.219675	1.279423	city	7	1	1.228883	1.228883	0	1	0	0	CorrectCommission	0.128331	0.769348	0	0	72
22.499247	1.279723	city	5	1	1.128987	1.128987	0	1	0	0	CorrectCommission	0.346797	0.744947	0	0	72
23.778854	1.279491	city	9	1	1.230899	1.230899	0	1	0	0	CorrectCommission	0.137921	0.718703	1	0	72
25.058428	1.279657	city	7	1	1.075638	1.075638	0	1	0	0	CorrectCommission	0.600536	0.691552	1	0	72
26.338045	1.279579	city	8	1	0.915453	0.915453	0	1	0	0	CorrectCommission	1.362412	0.664106	1	0	72
27.630957	1.306244	city	10	1	0.885122	0.885122	0	1	0	0	CorrectCommission	1.506675	0.636725	1	0	72
28.923885	1.279611	city	7	1	1.297621	1.297621	0	1	0	0	CorrectCommission	0.455266	0.609676	1	0	72
30.203476	1.279571	city	2	1	1.230429	1.230429	0	1	0	0	CorrectCommission	0.135683	0.583258	1	0	72
31.482954	1.279386	city	9	1	1.150051	1.150051	0	1	0	0	CorrectCommission	0.246613	0.557833	1	0	72
32.762482	1.279666	city	6	1	0.916366	0.916366	0	1	0	0	CorrectCommission	1.358072	0.533867	1	0	72
34.042152	1.279677	city	5	1	1.176047	1.176047	0	1	0	0	CorrectCommission	0.122970	0.511875	1	0	72
35.321701	1.279421	city	2	1	1.233759	1.233759	0	1	0	0	CorrectCommission	0.151522	0.492409	1	0	72
36.601189	1.279553	city	1	1	1.192434	1.192434	0	1	0	0	CorrectCommission	0.045031	0.475933	1	0	72
37.880867	1.279808	city	3	1	1.253142	1.253142	0	1	0	0	CorrectCommission	0.243712	0.462793	1	0	72
39.167202	1.292863	city	8	1	1.007713	1.007713	0	1	0	0	CorrectCommission	0.923604	0.453187	1	0	72
40.453335	1.279398	city	10	1	1.033831	1.033831	0	1	0	0	CorrectCommission	0.799379	0.447189	1	0	72
41.732819	1.279575	city	1	1	1.236588	1.236588	0	1	0	0	CorrectCommission	0.164978	0.444757	1	0	72
43.012463	1.279708	city	6	1	1.139101	1.139101	0	1	0	0	CorrectCommission	0.298693	0.445769	1	0	72
44.305450	1.306271	city	9	1	1.109277	1.109277	0	1	0	0	CorrectCommission	0.440543	0.450030	1	0	72
45.599472	1.281772	mountain	5	0	0.000000	1.231008	1	0	0	0	CorrectOmission	0.138439	0.457282	1	0	72
46.879078	1.277439	city	1	1	1.358731	1.358731	0	1	0	0	CorrectCommission	0.745919	0.467218	1	0	72
48.177494	1.319396	city	8	1	1.346882	1.346882	0	1	0	0	CorrectCommission	0.689560	0.479385	1	0	72
49.477043	1.279696	city	5	1	1.196508	1.196508	0	1	0	0	CorrectCommission	0.025653	0.493246	1	0	72
50.756683	1.279584	city	8	1	1.301984	1.301984	0	1	0	0	CorrectCommission	0.476016	0.508134	1	0	72
52.042885	1.292823	city	7	1	1.191142	1.191142	0	1	0	0	CorrectCommission	0.051175	0.523277	1	0	72
53.335724	1.292857	city	6	1	1.018084	1.018084	0	1	0	0	CorrectCommission	0.874278	0.537894	1	0	72
54.628685	1.293062	city	10	1	0.979310	0.979310	0	1	0	0	CorrectCommission	1.058693	0.551195	1	0	72
55.921646	1.292857	city	7	1	1.094402	1.094402	0	1	0	0	CorrectCommission	0.511292	0.562538	1	0	72
57.214485	1.292823	city	4	1	1.375851	1.375851	0	1	0	0	CorrectCommission	0.827345	0.571499	1	0	72
60.546665	5.371536	break	0	0	0.000000	1.337637	0	0	0	0	ThoughtProbe	0.645590	0.577878	1	72	72
63.872211	1.279560	city	5	1	1.242755	1.242755	0	1	0	0	CorrectCommission	0.194311	0.581733	1	0	7.202174e+01
65.151878	1.279781	city	7	1	1.354202	1.354202	0	1	0	0	CorrectCommission	0.724376	0.583344	1	0	7.204348e+01
66.431465	1.279393	city	3	1	1.089670	1.089670	0	1	0	0	CorrectCommission	0.533795	0.583177	1	0	7.206522e+01
67.717705	1.293073	city	7	1	1.113142	1.113142	0	1	0	0	CorrectCommission	0.422159	0.581831	1	0	7.208696e+01
69.010620	1.292756	city	6	1	0.936745	0.936745	0	1	0	0	CorrectCommission	1.261143	0.579949	1	0	7.210870e+01
70.310181	1.306371	city	1	1	1.119871	1.119871	0	1	0	0	CorrectCommission	0.390154	0.578125	1	0	7.213043e+01
71.623062	1.319401	city	10	1	1.330813	1.330813	0	1	0	0	CorrectCommission	0.613135	0.576907	1	0	7.215217e+01
72.936005	1.306473	city	2	1	1.243062	1.243062	0	1	0	0	CorrectCommission	0.195769	0.576727	1	0	7.217391e+01
74.235672	1.292863	city	5	1	1.209818	1.209818	0	1	0	0	CorrectCommission	0.037653	0.577898	1	0	7.219565e+01
75.521881	1.279556	city	7	1	1.336916	1.336916	0	1	0	0	CorrectCommission	0.642163	0.580609	1	0	7.221739e+01
76.808113	1.292909	mountain	7	0	0.000000	1.421326	1	0	0	0	CorrectOmission	1.043633	0.584961	1	0	7.223913e+01
78.094368	1.279593	city	6	1	1.408021	1.408021	0	1	0	0	CorrectCommission	0.980353	0.591009	1	0	7.226087e+01
79.400627	1.332929	city	10	1	1.241978	1.241978	0	1	0	0	CorrectCommission	0.190613	0.598788	1	0	7.228261e+01
80.713478	1.292778	city	4	1	1.106241	1.106241	0	1	0	0	CorrectCommission	0.454984	0.608322	1	0	7.230435e+01
82.012993	1.306257	city	8	1	0.954424	0.954424	0	1	0	0	CorrectCommission	1.177060	0.619588	1	0	7.232609e+01
83.312630	1.293015	city	2	1	1.207986	1.207986	0	1	0	0	CorrectCommission	0.028940	0.632457	1	0	7.234783e+01
84.605522	1.292768	mountain	9	0	0.000000	1.336522	1	0	0	0	CorrectOmission	0.640285	0.646685	1	0	7.236957e+01
85.898407	1.292999	city	6	1	1.366536	1.366536	0	1	0	0	CorrectCommission	0.783041	0.661781	1	0	7.239130e+01
87.191277	1.292743	mountain	1	0	0.000000	1.324534	1	0	0	0	CorrectOmission	0.583271	0.677039	1	0	7.241304e+01
88.490852	1.306396	city	4	1	1.213019	1.213019	0	1	0	0	CorrectCommission	0.052881	0.691582	1	0	7.243478e+01
89.783798	1.279500	city	10	1	1.034494	1.034494	0	1	0	0	CorrectCommission	0.796227	0.704445	1	0	7.245652e+01
91.063309	1.279526	city	1	1	0.981862	0.981862	0	1	0	0	CorrectCommission	1.046557	0.714675	1	0	7.247826e+01
92.349594	1.293040	city	9	1	0.858537	0.858537	0	1	0	0	CorrectCommission	1.633118	0.721537	1	0	7.250000e+01
93.669151	1.346079	city	5	1	0.980739	0.980739	0	1	0	0	CorrectCommission	1.051899	0.724561	1	0	7.252174e+01
94.981979	1.279567	city	10	1	1.234449	1.234449	0	1	0	0	CorrectCommission	0.154806	0.723699	1	0	7.254348e+01
96.261627	1.279735	city	5	1	1.148192	1.148192	0	1	0	0	CorrectCommission	0.255455	0.719347	1	0	7.256522e+01
97.547981	1.292967	city	9	1	1.528833	1.528833	0	1	0	0	CorrectCommission	1.554962	0.712271	1	0	7.258696e+01
98.840904	1.292883	city	4	1	1.328569	1.328569	0	1	0	0	CorrectCommission	0.602461	0.703562	1	0	7.260870e+01
100.140388	1.306080	city	2	1	1.168276	1.168276	0	1	0	0	CorrectCommission	0.159931	0.694570	1	0	7.263043e+01
101.439949	1.293042	city	5	1	0.975922	0.975922	0	1	0	0	CorrectCommission	1.074811	0.686755	1	0	7.265217e+01
102.732864	1.292788	city	4	1	1.363851	1.363851	0	1	0	0	CorrectCommission	0.770272	0.681542	1	0	7.267391e+01
104.025780	1.293043	city	8	1	1.314932	1.314932	0	1	0	0	CorrectCommission	0.537601	0.680251	1	0	7.269565e+01
105.311996	1.279390	city	2	1	1.193249	1.193249	0	1	0	0	CorrectCommission	0.041150	0.684020	1	0	7.271739e+01
106.598152	1.292920	mountain	3	0	0.000000	1.295037	1	0	0	0	CorrectOmission	0.442976	0.693710	1	0	7.273913e+01
107.891144	1.293067	city	5	1	1.418228	1.418228	0	1	0	0	CorrectCommission	1.028901	0.709861	1	0	7.276087e+01
109.184074	1.292794	city	9	1	1.360756	1.360756	0	1	0	0	CorrectCommission	0.755551	0.732662	1	0	7.278261e+01
110.476944	1.292951	city	8	1	1.378775	1.378775	0	1	0	0	CorrectCommission	0.841253	0.761908	0	0	7.280435e+01
111.763260	1.279678	city	5	1	1.069584	1.069584	0	1	0	0	CorrectCommission	0.629329	0.796980	0	0	7.282609e+01
113.042793	1.279383	city	2	1	1.142064	1.142064	0	1	0	0	CorrectCommission	0.284601	0.836830	0	0	7.284783e+01
114.322281	1.279599	city	5	1	1.071772	1.071772	0	1	0	0	CorrectCommission	0.618926	0.879978	0	0	7.286957e+01
115.601936	1.279720	city	8	1	1.366034	1.366034	0	1	0	0	CorrectCommission	0.780654	0.924557	0	0	7.289130e+01
116.894852	1.306104	city	9	1	1.631750	1.631750	0	1	0	0	CorrectCommission	2.044459	0.968386	0	0	7.291304e+01
118.187775	1.279748	city	8	1	1.340843	1.340843	0	1	0	0	CorrectCommission	0.660840	1.009074	0	0	7.293478e+01
119.480797	1.306294	city	5	1	1.308760	1.308760	0	1	0	0	CorrectCommission	0.508244	1.044267	0	0	7.295652e+01
120.780319	1.292747	city	3	1	1.482117	1.482117	0	1	0	0	CorrectCommission	1.332769	1.071761	0	0	7.297826e+01
123.899170	4.944958	break	0	0	0.000000	1.541399	0	0	0	0	ThoughtProbe	1.614732	1.089723	0	73	73
127.038155	1.333008	mountain	4	0	0.000000	1.537403	1	0	0	0	CorrectOmission	1.595726	1.096882	0	0	7.305882e+01
128.351044	1.292784	city	3	1	1.520924	1.520924	0	1	0	0	CorrectCommission	1.517348	1.092632	0	0	7.311765e+01
129.643906	1.292928	city	5	1	1.542758	1.542758	0	1	0	0	CorrectCommission	1.621192	1.077047	0	0	7.317647e+01
130.936905	1.293056	city	4	1	1.435027	1.435027	0	1	0	0	CorrectCommission	1.108802	1.050878	0	0	7.323529e+01
132.223129	1.279414	city	5	1	1.127946	1.127946	0	1	0	0	CorrectCommission	0.351749	1.015429	0	0	7.329412e+01
133.502731	1.279774	city	8	1	1.519469	1.519469	0	1	0	0	CorrectCommission	1.510426	0.972394	0	0	7.335294e+01
134.789001	1.292785	city	9	1	1.340125	1.340125	0	1	0	0	CorrectCommission	0.657425	0.923636	0	0	7.341176e+01
136.095245	1.319704	city	7	1	1.289783	1.289783	0	1	0	0	CorrectCommission	0.417985	0.871106	0	0	7.347059e+01
137.394836	1.279468	city	3	1	0.917267	0.917267	0	1	0	0	CorrectCommission	1.353784	0.816687	0	0	7.352941e+01
138.681046	1.292951	city	10	1	0.985272	0.985272	0	1	0	0	CorrectCommission	1.030336	0.762076	0	0	7.358824e+01
139.993988	1.332949	city	7	1	1.267949	1.267949	0	1	0	0	CorrectCommission	0.314140	0.708777	1	0	7.364706e+01
141.313568	1.306202	city	3	1	1.060636	1.060636	0	1	0	0	CorrectCommission	0.671892	0.658089	1	0	7.370588e+01
142.619797	1.306236	city	7	1	1.111069	1.111069	0	1	0	0	CorrectCommission	0.432020	0.611078	1	0	7.376471e+01
143.912704	1.279587	city	3	1	0.987867	0.987867	0	1	0	0	CorrectCommission	1.017998	0.568565	1	0	7.382353e+01
145.192215	1.279453	city	1	1	1.195531	1.195531	0	1	0	0	CorrectCommission	0.030297	0.531123	1	0	7.388235e+01
146.471710	1.279519	city	8	1	1.198759	1.198759	0	1	0	0	CorrectCommission	0.014944	0.499110	1	0	7.394118e+01
147.764679	1.306432	city	5	1	1.155786	1.155786	0	1	0	0	CorrectCommission	0.219335	0.472662	1	0	74
149.057617	1.279423	city	2	1	1.341023	1.341023	0	1	0	0	CorrectCommission	0.661693	0.451661	1	0	7.405882e+01
150.363846	1.333048	city	4	1	1.361375	1.361375	0	1	0	0	CorrectCommission	0.758493	0.435872	1	0	7.411765e+01
151.690186	1.319643	city	8	1	1.103757	1.103757	0	1	0	0	CorrectCommission	0.466794	0.424958	1	0	7.417647e+01
152.989761	1.279501	city	9	1	1.187522	1.187522	0	1	0	0	CorrectCommission	0.068389	0.418524	1	0	7.423529e+01
154.269241	1.279444	city	8	1	1.179789	1.179789	0	1	0	0	CorrectCommission	0.105170	0.416196	1	0	7.429412e+01
155.548737	1.279558	city	10	1	1.034349	1.034349	0	1	0	0	CorrectCommission	0.796918	0.417610	1	0	7.435294e+01
156.828323	1.279629	mountain	1	0	0.000000	1.210295	1	0	0	0	CorrectOmission	0.039924	0.422479	1	0	7.441176e+01
158.114639	1.293000	city	2	1	1.374399	1.374399	0	1	0	0	CorrectCommission	0.820437	0.430623	1	0	7.447059e+01
159.407593	1.292909	city	7	1	1.193429	1.193429	0	1	0	0	CorrectCommission	0.040297	0.441924	1	0	7.452941e+01
160.707169	1.306235	city	9	1	1.157124	1.157124	0	1	0	0	CorrectCommission	0.212973	0.456394	1	0	7.458824e+01
162.006744	1.292910	city	6	1	1.037098	1.037098	0	1	0	0	CorrectCommission	0.783840	0.474093	1	0	7.464706e+01
163.299652	1.292910	city	3	1	0.993175	0.993175	0	1	0	0	CorrectCommission	0.992752	0.495161	1	0	7.470588e+01
164.592575	1.292935	city	9	1	1.189498	1.189498	0	1	0	0	CorrectCommission	0.058992	0.519810	1	0	7.476471e+01
165.878784	1.279486	city	1	1	1.198886	1.198886	0	1	0	0	CorrectCommission	0.014340	0.548317	1	0	7.482353e+01
167.158279	1.279513	city	7	1	1.463910	1.463910	0	1	0	0	CorrectCommission	1.246174	0.580944	1	0	7.488235e+01
168.437897	1.279719	city	8	1	1.196831	1.196831	0	1	0	0	CorrectCommission	0.024116	0.617885	1	0	7.494118e+01
171.463577	4.771617	break	0	0	0.000000	1.204292	0	0	0	0	ThoughtProbe	0.011373	0.659299	1	75	75
174.489105	1.279448	city	2	1	1.376568	1.376568	0	1	0	0	CorrectCommission	0.830756	0.705157	1	0	7.476087e+01
175.788757	1.319861	city	3	1	1.603931	1.603931	0	1	0	0	CorrectCommission	1.912146	0.755206	0	0	7.452174e+01
177.121811	1.346257	city	6	1	1.261062	1.261062	0	1	0	0	CorrectCommission	0.281383	0.808890	0	0	7.428261e+01
178.441360	1.292837	city	8	1	0.963601	0.963601	0	1	0	0	CorrectCommission	1.133413	0.865313	0	0	7.404348e+01
179.727615	1.279677	city	3	1	1.034581	1.034581	0	1	0	0	CorrectCommission	0.795815	0.923054	0	0	7.380435e+01
181.007172	1.279425	city	2	1	1.231077	1.231077	0	1	0	0	CorrectCommission	0.138765	0.980199	0	0	7.356522e+01
182.300034	1.306304	city	8	1	0.991534	0.991534	0	1	0	0	CorrectCommission	1.000554	1.034376	0	0	7.332609e+01
183.593002	1.279630	city	9	1	1.197125	1.197125	0	1	0	0	CorrectCommission	0.022718	1.082869	0	0	7.308696e+01
184.879257	1.292874	mountain	4	0	0.000000	1.500105	1	0	0	0	CorrectOmission	1.418324	1.122963	0	0	7.284783e+01
186.172134	1.292895	city	4	1	1.740471	1.740471	0	1	0	0	CorrectCommission	2.561563	1.152162	0	0	7.260870e+01
187.471634	1.306097	mountain	5	0	0.000000	1.758222	1	0	0	0	CorrectOmission	2.645990	1.168578	0	0	7.236957e+01
188.771133	1.292908	city	4	1	1.634305	1.634305	0	1	0	0	CorrectCommission	2.056612	1.171228	0	0	7.213043e+01
190.057465	1.279735	mountain	7	0	0.000000	1.449668	1	0	0	0	CorrectOmission	1.178435	1.160151	0	0	7.189130e+01
191.350357	1.306053	city	10	1	1.281370	1.281370	0	1	0	0	CorrectCommission	0.377970	1.136410	0	0	7.165217e+01
192.649918	1.293066	city	7	1	1.206469	1.206469	0	1	0	0	CorrectCommission	0.021726	1.101968	0	0	7.141304e+01
193.942902	1.292925	city	3	1	0.888370	0.888370	0	1	0	0	CorrectCommission	1.491225	1.059430	0	0	7.117391e+01
195.235764	1.292797	city	1	1	0.824397	0.824397	0	1	0	0	CorrectCommission	1.795498	1.011762	0	0	7.093478e+01
196.528656	1.292977	city	9	1	1.034968	1.034968	0	1	0	0	CorrectCommission	0.793974	0.962088	0	0	7.069565e+01
197.814972	1.279640	city	5	1	0.913081	0.913081	0	1	0	0	CorrectCommission	1.373695	0.913438	0	0	7.045652e+01
199.094574	1.279569	city	1	1	1.240147	1.240147	0	1	0	0	CorrectCommission	0.181904	0.868453	0	0	7.021739e+01
200.380722	1.292722	city	7	1	1.405501	1.405501	0	1	0	0	CorrectCommission	0.968365	0.829301	0	0	6.997826e+01
201.686890	1.319617	city	6	1	1.296275	1.296275	0	1	0	0	CorrectCommission	0.448862	0.797406	0	0	6.973913e+01
202.993210	1.293027	city	9	1	1.100973	1.100973	0	1	0	0	CorrectCommission	0.480040	0.773404	0	0	6.950000e+01
204.279419	1.279413	city	2	1	1.285391	1.285391	0	1	0	0	CorrectCommission	0.397099	0.757064	0	0	6.926087e+01
205.559021	1.279764	city	5	1	1.141092	1.141092	0	1	0	0	CorrectCommission	0.289225	0.747351	0	0	6.902174e+01
206.845261	1.292729	city	6	1	1.326094	1.326094	0	1	0	0	CorrectCommission	0.590690	0.742561	0	0	6.878261e+01
208.144760	1.306283	city	10	1	1.104050	1.104050	0	1	0	0	CorrectCommission	0.465405	0.740543	1	0	6.854348e+01
209.444366	1.292921	city	7	1	1.544511	1.544511	0	1	0	0	CorrectCommission	1.629529	0.739024	1	0	6.830435e+01
210.750656	1.319661	city	5	1	1.406227	1.406227	0	1	0	0	CorrectCommission	0.971819	0.735857	1	0	6.806522e+01
212.063614	1.306260	mountain	9	0	0.000000	1.425978	1	0	0	0	CorrectOmission	1.065762	0.729366	1	0	6.782609e+01
213.363144	1.292781	city	4	1	1.367672	1.367672	0	1	0	0	CorrectCommission	0.788446	0.718470	1	0	6.758696e+01
214.689362	1.359661	city	3	1	0.995216	0.995216	0	1	0	0	CorrectCommission	0.983040	0.702785	1	0	6.734783e+01
216.015579	1.292762	city	1	1	1.127472	1.127472	0	1	0	0	CorrectCommission	0.354001	0.682603	1	0	6.710870e+01
217.301819	1.279721	city	9	1	1.409329	1.409329	0	1	0	0	CorrectCommission	0.986574	0.658800	1	0	6.686957e+01
218.628159	1.372972	city	10	1	1.321358	1.321358	0	1	0	0	CorrectCommission	0.568165	0.632631	1	0	6.663043e+01
219.981033	1.332766	city	3	1	1.284594	1.284594	0	1	0	0	CorrectCommission	0.393308	0.605553	1	0	6.639130e+01
221.307159	1.319476	city	5	1	1.271263	1.271263	0	1	0	0	CorrectCommission	0.329900	0.579031	1	0	6.615217e+01
222.619995	1.306202	city	8	1	1.265719	1.265719	0	1	0	0	CorrectCommission	0.303530	0.554395	1	0	6.591304e+01
223.912918	1.279642	city	1	1	1.054164	1.054164	0	1	0	0	CorrectCommission	0.702672	0.532748	1	0	6.567391e+01
225.199203	1.292935	city	4	1	1.378068	1.378068	0	1	0	0	CorrectCommission	0.837891	0.514958	1	0	6.543478e+01
226.505478	1.319622	city	5	1	1.183677	1.183677	0	1	0	0	CorrectCommission	0.086679	0.501631	1	0	6.519565e+01
227.825012	1.319430	city	6	1	1.180015	1.180015	0	1	0	0	CorrectCommission	0.104094	0.493195	1	0	6.495652e+01
229.137909	1.306386	city	10	1	0.932554	0.932554	0	1	0	0	CorrectCommission	1.281080	0.489853	1	0	6.471739e+01
230.444244	1.306270	city	4	1	1.224140	1.224140	0	1	0	0	CorrectCommission	0.105774	0.491598	1	0	6.447826e+01
231.757141	1.319535	city	2	1	1.129660	1.129660	0	1	0	0	CorrectCommission	0.343596	0.498275	1	0	6.423913e+01
234.129608	3.425393	break	0	0	0.000000	1.150636	0	0	0	0	ThoughtProbe	0.243827	0.509474	1	64	64
236.488831	1.293066	city	1	1	1.163317	1.163317	0	1	0	0	CorrectCommission	0.183513	0.524577	1	0	6.410000e+01
237.788483	1.306226	city	6	1	1.043951	1.043951	0	1	0	0	CorrectCommission	0.751247	0.542741	1	0	6.420000e+01
239.108047	1.332892	city	1	1	1.282331	1.282331	0	1	0	0	CorrectCommission	0.382544	0.562927	1	0	6.430000e+01
240.420944	1.292917	mountain	3	0	0.000000	1.378775	1	0	0	0	CorrectOmission	0.841250	0.583974	1	0	6.440000e+01
241.707138	1.279477	city	4	1	1.307724	1.307724	0	1	0	0	CorrectCommission	0.503318	0.604692	1	0	6.450000e+01
242.986649	1.279531	city	8	1	1.043623	1.043623	0	1	0	0	CorrectCommission	0.752808	0.623993	1	0	6.460000e+01
244.272949	1.293056	city	1	1	1.046333	1.046333	0	1	0	0	CorrectCommission	0.739920	0.640930	1	0	6.470000e+01
245.565887	1.292831	city	7	1	1.473383	1.473383	0	1	0	0	CorrectCommission	1.291231	0.654810	1	0	6.480000e+01
246.865448	1.306307	city	6	1	1.114717	1.114717	0	1	0	0	CorrectCommission	0.414669	0.665221	1	0	6.490000e+01
248.165070	1.292936	city	7	1	1.159741	1.159741	0	1	0	0	CorrectCommission	0.200523	0.672095	1	0	65
249.457901	1.292728	city	5	1	0.997928	0.997928	0	1	0	0	CorrectCommission	0.970142	0.675656	1	0	6.510000e+01
250.757401	1.306259	city	10	1	1.013920	1.013920	0	1	0	0	CorrectCommission	0.894084	0.676396	1	0	6.520000e+01
252.063721	1.306373	city	5	1	1.047331	1.047331	0	1	0	0	CorrectCommission	0.735173	0.675073	1	0	6.530000e+01
253.363373	1.292935	mountain	5	0	0.000000	1.284675	1	0	0	0	CorrectOmission	0.393690	0.672673	1	0	6.540000e+01
254.656281	1.292881	city	8	1	1.384812	1.384812	0	1	0	0	CorrectCommission	0.869965	0.670341	1	0	6.550000e+01
255.955765	1.306099	city	6	1	1.006601	1.006601	0	1	0	0	CorrectCommission	0.928894	0.669291	1	0	6.560000e+01
257.248657	1.279693	city	4	1	1.091598	1.091598	0	1	0	0	CorrectCommission	0.524627	0.670745	1	0	6.570000e+01
258.554901	1.332762	city	9	1	1.067501	1.067501	0	1	0	0	CorrectCommission	0.639240	0.675790	1	0	6.580000e+01
259.861084	1.279594	mountain	10	0	0.000000	1.202566	1	0	0	0	CorrectOmission	0.003164	0.685209	1	0	6.590000e+01
261.140656	1.279588	city	5	1	1.358933	1.358933	0	1	0	0	CorrectCommission	0.746878	0.699422	1	0	66
262.453552	1.346199	city	6	1	1.398737	1.398737	0	1	0	0	CorrectCommission	0.936198	0.718281	1	0	6.610000e+01
263.779846	1.306353	city	4	1	1.315943	1.315943	0	1	0	0	CorrectCommission	0.542410	0.741070	0	0	6.620000e+01
265.086151	1.306305	city	8	1	1.144307	1.144307	0	1	0	0	CorrectCommission	0.273932	0.766508	0	0	6.630000e+01
266.385773	1.292902	city	7	1	1.074911	1.074911	0	1	0	0	CorrectCommission	0.603996	0.792809	0	0	6.640000e+01
267.671936	1.279469	city	1	1	0.861812	0.861812	0	1	0	0	CorrectCommission	1.617540	0.817829	0	0	6.650000e+01
268.964813	1.306263	city	5	1	1.096718	1.096718	0	1	0	0	CorrectCommission	0.500274	0.839288	0	0	6.660000e+01
270.257782	1.279641	city	6	1	1.361306	1.361306	0	1	0	0	CorrectCommission	0.758166	0.855074	0	0	6.670000e+01
271.550751	1.306318	city	5	1	1.367566	1.367566	0	1	0	0	CorrectCommission	0.787941	0.863468	0	0	6.680000e+01
272.856903	1.305993	city	8	1	1.602768	1.602768	0	1	0	0	CorrectCommission	1.906616	0.863367	0	0	6.690000e+01
274.169739	1.319699	city	6	1	1.545303	1.545303	0	1	0	0	CorrectCommission	1.633297	0.854423	0	0	67
275.476074	1.292932	city	8	1	1.433310	1.433310	0	1	0	0	CorrectCommission	1.100634	0.837145	0	0	6.710000e+01
276.782318	1.319569	city	10	1	1.109840	1.109840	0	1	0	0	CorrectCommission	0.437864	0.812776	0	0	6.720000e+01
278.108490	1.332757	city	2	1	1.363115	1.363115	0	1	0	0	CorrectCommission	0.766769	0.783115	0	0	6.730000e+01
279.448059	1.346411	city	8	1	1.305831	1.305831	0	1	0	0	CorrectCommission	0.494315	0.750241	0	0	6.740000e+01
280.760956	1.279367	city	5	1	1.091872	1.091872	0	1	0	0	CorrectCommission	0.523326	0.716264	1	0	6.750000e+01
282.040527	1.279764	city	4	1	1.362621	1.362621	0	1	0	0	CorrectCommission	0.764419	0.683052	1	0	6.760000e+01
283.393463	1.426109	city	10	1	1.179816	1.179816	0	1	0	0	CorrectCommission	0.105044	0.652057	1	0	6.770000e+01
284.759613	1.306216	city	9	1	1.106137	1.106137	0	1	0	0	CorrectCommission	0.455477	0.624233	1	0	6.780000e+01
286.052490	1.279518	city	4	1	0.944434	0.944434	0	1	0	0	CorrectCommission	1.224575	0.600037	1	0	6.790000e+01
288.784882	4.185295	break	0	0	0.000000	1.095336	0	0	0	0	ThoughtProbe	0.506848	0.579485	1	68	68
291.523987	1.292910	city	3	1	1.252740	1.252740	0	1	0	0	CorrectCommission	0.241802	0.562322	1	0	6.820588e+01
292.823639	1.306401	city	2	1	1.110542	1.110542	0	1	0	0	CorrectCommission	0.434526	0.548167	1	0	6.841176e+01
294.129974	1.306225	city	3	1	1.003504	1.003504	0	1	0	0	CorrectCommission	0.943622	0.536653	1	0	6.861765e+01
295.436096	1.306062	mountain	10	0	0.000000	1.186222	1	0	0	0	CorrectOmission	0.074576	0.527581	1	0	6.882353e+01
296.729004	1.279760	city	3	1	1.348661	1.348661	0	1	0	0	CorrectCommission	0.698024	0.521032	1	0	6.902941e+01
298.035339	1.332900	city	6	1	1.180790	1.180790	0	1	0	0	CorrectCommission	0.100409	0.517381	1	0	6.923529e+01
299.348236	1.292855	city	3	1	0.893379	0.893379	0	1	0	0	CorrectCommission	1.467403	0.517297	1	0	6.944118e+01
300.647797	1.306291	city	1	1	1.227691	1.227691	0	1	0	0	CorrectCommission	0.122660	0.521629	1	0	6.964706e+01
301.967316	1.332724	city	5	1	1.294158	1.294158	0	1	0	0	CorrectCommission	0.438793	0.531321	1	0	6.985294e+01
303.273529	1.279750	city	6	1	1.300231	1.300231	0	1	0	0	CorrectCommission	0.467678	0.547154	1	0	7.005882e+01
304.559875	1.292910	city	9	1	1.214634	1.214634	0	1	0	0	CorrectCommission	0.060561	0.569573	1	0	7.026471e+01
305.846130	1.279621	city	4	1	1.302390	1.302390	0	1	0	0	CorrectCommission	0.477949	0.598511	1	0	7.047059e+01
307.138947	1.306011	city	10	1	1.089387	1.089387	0	1	0	0	CorrectCommission	0.535144	0.633261	1	0	7.067647e+01
308.471741	1.359549	city	5	1	1.101397	1.101397	0	1	0	0	CorrectCommission	0.478020	0.672475	1	0	7.088235e+01
309.811371	1.319750	city	9	1	1.226556	1.226556	0	1	0	0	CorrectCommission	0.117265	0.714218	1	0	7.108824e+01
311.131042	1.319545	city	2	1	1.042539	1.042539	0	1	0	0	CorrectCommission	0.757962	0.756169	0	0	7.129412e+01
312.430603	1.279573	mountain	10	1	1.034099	1.034099	0	0	1	0	CommissionError	0.798105	0.795844	0	0	7.150000e+01
313.710052	1.279362	city	1	1	1.638487	1.638487	0	1	0	0	CorrectCommission	2.076503	0.830901	0	0	7.170588e+01
315.022919	1.346343	city	3	1	1.546956	1.546956	0	1	0	0	CorrectCommission	1.641161	0.859381	0	0	7.191176e+01
316.355896	1.319603	city	6	1	1.254286	1.254286	0	1	0	0	CorrectCommission	0.249152	0.879938	0	0	7.211765e+01
317.662109	1.292835	city	8	1	0.930435	0.930435	0	1	0	0	CorrectCommission	1.291155	0.891897	0	0	7.232353e+01
318.961700	1.306381	city	9	1	0.981209	0.981209	0	1	0	0	CorrectCommission	1.049664	0.895192	0	0	7.252941e+01
320.287994	1.346218	city	8	1	0.982383	0.982383	0	1	0	0	CorrectCommission	1.044081	0.890324	0	0	7.273529e+01
321.607513	1.292823	city	2	1	1.160722	1.160722	0	1	0	0	CorrectCommission	0.195856	0.878192	0	0	7.294118e+01
322.913788	1.319678	city	5	1	1.011375	1.011375	0	1	0	0	CorrectCommission	0.906189	0.859929	0	0	7.314706e+01
324.233307	1.319382	city	8	1	0.959726	0.959726	0	1	0	0	CorrectCommission	1.151840	0.836769	0	0	7.335294e+01
325.559570	1.333136	city	10	1	0.947565	0.947565	0	1	0	0	CorrectCommission	1.209681	0.809948	0	0	7.355882e+01
326.885834	1.319421	city	8	1	1.067816	1.067816	0	1	0	0	CorrectCommission	0.637742	0.780690	0	0	7.376471e+01
328.185364	1.279643	city	6	1	1.042004	1.042004	0	1	0	0	CorrectCommission	0.760507	0.750150	0	0	7.397059e+01
329.464935	1.279442	city	4	1	1.424523	1.424523	0	1	0	0	CorrectCommission	1.058840	0.719462	1	0	7.417647e+01
330.771179	1.333058	city	5	1	1.225817	1.225817	0	1	0	0	CorrectCommission	0.113748	0.689731	1	0	7.438235e+01
332.117523	1.359624	city	6	1	1.309183	1.309183	0	1	0	0	CorrectCommission	0.510255	0.662061	1	0	7.458824e+01
333.437073	1.279483	city	4	1	1.349176	1.349176	0	1	0	0	CorrectCommission	0.700473	0.637512	1	0	7.479412e+01
336.329407	4.505182	break	0	0	0.000000	1.356454	0	0	0	0	ThoughtProbe	0.735089	0.617111	1	75	75
339.221710	1.279432	city	4	1	1.337467	1.337467	0	1	0	0	CorrectCommission	0.644783	0.601842	1	0	7.470000e+01
340.501282	1.279744	city	8	1	1.298666	1.298666	0	1	0	0	CorrectCommission	0.460237	0.592633	1	0	7.440000e+01
341.780945	1.279556	city	10	1	1.239414	1.239414	0	1	0	0	CorrectCommission	0.178418	0.590265	1	0	7.410000e+01
343.060516	1.279582	mountain	3	0	0.000000	1.291403	1	0	0	0	CorrectOmission	0.425689	0.595365	1	0	7.380000e+01
344.340118	1.279600	mountain	9	0	0.000000	1.356542	1	0	0	0	CorrectOmission	0.735507	0.608310	1	0	7.350000e+01
345.619598	1.279393	city	9	1	1.336741	1.336741	0	1	0	0	CorrectCommission	0.641327	0.629129	1	0	7.320000e+01
346.899109	1.279596	city	7	1	1.133907	1.133907	0	1	0	0	CorrectCommission	0.323395	0.657511	1	0	7.290000e+01
348.178741	1.279724	city	4	1	1.177418	1.177418	0	1	0	0	CorrectCommission	0.116448	0.692771	1	0	7.260000e+01
349.458405	1.279598	city	8	1	1.017585	1.017585	0	1	0	0	CorrectCommission	0.876652	0.733788	1	0	7.230000e+01
350.738007	1.279597	city	9	1	1.337268	1.337268	0	1	0	0	CorrectCommission	0.643835	0.779074	0	0	72
352.017517	1.279415	city	8	1	1.497388	1.497388	0	1	0	0	CorrectCommission	1.405404	0.826808	0	0	7.170000e+01
353.297028	1.279575	city	6	1	1.388611	1.388611	0	1	0	0	CorrectCommission	0.888036	0.874955	0	0	7.140000e+01
354.576599	1.279575	city	7	0	0.000000	1.336075	0	0	0	1	OmissionError	0.638162	0.921400	0	0	7.110000e+01
355.856201	1.279645	city	8	1	1.230976	1.230976	0	1	0	0	CorrectCommission	0.138286	0.964079	0	0	7.080000e+01
357.135834	1.279653	city	6	1	0.964510	0.964510	0	1	0	0	CorrectCommission	1.129087	1.001190	0	0	7.050000e+01
358.415405	1.279487	city	3	1	1.659069	1.659069	0	1	0	0	CorrectCommission	2.174395	1.031338	0	0	7.020000e+01
359.695007	1.279690	city	4	1	1.658038	1.658038	0	1	0	0	CorrectCommission	2.169491	1.053695	0	0	6.990000e+01
360.974609	1.279526	city	10	1	1.449142	1.449142	0	1	0	0	CorrectCommission	1.175936	1.068120	0	0	6.960000e+01
362.254120	1.279500	city	6	1	1.284125	1.284125	0	1	0	0	CorrectCommission	0.391073	1.075194	0	0	6.930000e+01
363.533722	1.279704	city	7	1	1.068455	1.068455	0	1	0	0	CorrectCommission	0.634699	1.076163	0	0	69
364.813293	1.279429	city	1	1	0.818583	0.818583	0	1	0	0	CorrectCommission	1.823151	1.072778	0	0	6.870000e+01
366.092834	1.279637	city	7	1	1.175489	1.175489	0	1	0	0	CorrectCommission	0.125622	1.067139	0	0	6.840000e+01
367.372406	1.279492	city	10	1	0.804413	0.804413	0	1	0	0	CorrectCommission	1.890547	1.061612	0	0	6.810000e+01
368.652039	1.279779	city	5	1	0.855258	0.855258	0	1	0	0	CorrectCommission	1.648713	1.058477	0	0	6.780000e+01
369.931610	1.279380	city	4	1	1.151220	1.151220	0	1	0	0	CorrectCommission	0.241054	1.059837	0	0	6.750000e+01
371.211182	1.279761	mountain	3	0	0.000000	1.368901	1	0	0	0	CorrectOmission	0.794288	1.067406	0	0	6.720000e+01
372.490814	1.279534	city	2	1	1.396379	1.396379	0	1	0	0	CorrectCommission	0.924980	1.082210	0	0	6.690000e+01
373.770416	1.279625	city	9	1	1.121732	1.121732	0	1	0	0	CorrectCommission	0.381305	1.104538	0	0	6.660000e+01
375.050018	1.279574	city	5	1	0.855263	0.855263	0	1	0	0	CorrectCommission	1.648692	1.133840	0	0	6.630000e+01
376.329498	1.279436	city	4	1	1.285199	1.285199	0	1	0	0	CorrectCommission	0.396183	1.168711	0	0	66
377.609222	1.279988	city	7	1	0.966703	0.966703	0	1	0	0	CorrectCommission	1.118659	1.207029	0	0	6.570000e+01
378.888855	1.279296	city	5	1	0.813307	0.813307	0	1	0	0	CorrectCommission	1.848241	1.246147	0	0	6.540000e+01
380.168304	1.279603	city	9	1	0.964011	0.964011	0	1	0	0	CorrectCommission	1.131460	1.283124	0	0	6.510000e+01
381.447906	1.279558	city	1	1	0.862784	0.862784	0	1	0	0	CorrectCommission	1.612918	1.315142	0	0	6.480000e+01
382.727478	1.279598	city	6	1	0.880483	0.880483	0	1	0	0	CorrectCommission	1.528739	1.339771	0	0	6.450000e+01
384.007050	1.279553	city	7	1	0.961648	0.961648	0	1	0	0	CorrectCommission	1.142701	1.355311	0	0	6.420000e+01
385.286591	1.279511	city	3	1	0.873302	0.873302	0	1	0	0	CorrectCommission	1.562892	1.360988	0	0	6.390000e+01
386.566101	1.279515	city	1	1	0.810439	0.810439	0	1	0	0	CorrectCommission	1.861883	1.357052	0	0	6.360000e+01
387.845734	1.279736	city	10	1	0.535870	0.535870	0	1	0	0	CorrectCommission	3.167800	1.344738	0	0	6.330000e+01
391.317902	5.664630	break	0	0	0.000000	0.854948	0	0	0	0	ThoughtProbe	1.650189	1.326069	0	63	63
394.816742	1.333065	city	5	1	1.222091	1.222091	0	1	0	0	CorrectCommission	0.096026	1.303552	0	0	6.302941e+01
396.123077	1.279568	city	1	1	1.091714	1.091714	0	1	0	0	CorrectCommission	0.524077	1.279742	0	0	6.305882e+01
397.409302	1.292907	city	5	1	1.074271	1.074271	0	1	0	0	CorrectCommission	0.607038	1.256749	0	0	6.308824e+01
398.702118	1.292741	mountain	7	1	1.004601	1.004601	0	0	1	0	CommissionError	0.938405	1.236039	0	0	6.311765e+01
399.988312	1.279599	city	2	1	1.679944	1.679944	0	1	0	0	CorrectCommission	2.273681	1.218165	0	0	6.314706e+01
401.294525	1.332871	city	6	1	1.300745	1.300745	0	1	0	0	CorrectCommission	0.470126	1.202778	0	0	6.317647e+01
402.634094	1.346256	city	9	1	0.977809	0.977809	0	1	0	0	CorrectCommission	1.065833	1.188884	0	0	6.320588e+01
403.960358	1.306256	city	4	1	1.003186	1.003186	0	1	0	0	CorrectCommission	0.945134	1.174986	0	0	6.323529e+01
405.253265	1.279560	city	6	1	0.780201	0.780201	0	1	0	0	CorrectCommission	2.005703	1.159504	0	0	6.326471e+01
406.532898	1.279686	city	2	1	0.994696	0.994696	0	1	0	0	CorrectCommission	0.985515	1.141029	0	0	6.329412e+01
407.832458	1.319479	city	3	1	0.669797	0.669797	0	1	0	0	CorrectCommission	2.530810	1.118686	0	0	6.332353e+01
409.132050	1.279692	city	4	1	1.350234	1.350234	0	1	0	0	CorrectCommission	0.705504	1.092138	0	0	6.335294e+01
410.424988	1.306181	city	9	1	1.040321	1.040321	0	1	0	0	CorrectCommission	0.768511	1.061756	0	0	6.338235e+01
411.751190	1.346212	city	4	1	0.971940	0.971940	0	1	0	0	CorrectCommission	1.093747	1.028450	0	0	6.341176e+01
413.084045	1.319480	city	2	1	1.408488	1.408488	0	1	0	0	CorrectCommission	0.982574	0.993638	0	0	6.344118e+01
414.403625	1.319735	city	10	1	1.150369	1.150369	0	1	0	0	CorrectCommission	0.245101	0.959162	0	0	6.347059e+01
415.703217	1.279399	city	2	1	1.379767	1.379767	0	1	0	0	CorrectCommission	0.845973	0.927123	0	0	6.350000e+01
417.009430	1.333062	city	4	1	1.058281	1.058281	0	1	0	0	CorrectCommission	0.683090	0.899794	0	0	6.352941e+01
418.322418	1.292879	city	10	1	0.838491	0.838491	0	1	0	0	CorrectCommission	1.728463	0.879550	0	0	6.355882e+01
419.628662	1.319599	city	8	1	1.052083	1.052083	0	1	0	0	CorrectCommission	0.712570	0.868701	0	0	6.358824e+01
420.968201	1.359478	city	7	1	0.933276	0.933276	0	1	0	0	CorrectCommission	1.277644	0.869319	0	0	6.361765e+01
422.287750	1.279663	mountain	7	0	0.000000	1.114687	1	0	0	0	CorrectOmission	0.414810	0.882915	0	0	6.364706e+01
423.574036	1.292904	city	1	1	1.319545	1.319545	0	1	0	0	CorrectCommission	0.559541	0.910138	0	0	6.367647e+01
424.926941	1.412893	city	6	1	1.271077	1.271077	0	1	0	0	CorrectCommission	0.329017	0.950412	0	0	6.370588e+01
426.306488	1.346206	city	1	1	1.208187	1.208187	0	1	0	0	CorrectCommission	0.029897	1.001738	0	0	6.373529e+01
427.626038	1.292880	city	3	1	1.183164	1.183164	0	1	0	0	CorrectCommission	0.089117	1.060691	0	0	6.376471e+01
428.945496	1.346070	city	6	1	1.308893	1.308893	0	1	0	0	CorrectCommission	0.508875	1.122610	0	0	6.379412e+01
430.298340	1.359583	city	8	1	0.859038	0.859038	0	1	0	0	CorrectCommission	1.630735	1.182180	0	0	6.382353e+01
431.617950	1.279675	city	3	1	1.367709	1.367709	0	1	0	0	CorrectCommission	0.788618	1.234089	0	0	6.385294e+01
432.897552	1.279473	city	1	1	2.172288	2.172288	0	1	0	0	CorrectCommission	4.615382	1.273826	0	0	6.388235e+01
434.190399	1.306241	city	9	1	1.758740	1.758740	0	1	0	0	CorrectCommission	2.648452	1.298242	0	0	6.391176e+01
435.489990	1.292933	city	7	1	1.595256	1.595256	0	1	0	0	CorrectCommission	1.870886	1.306184	0	0	6.394118e+01
436.816284	1.359697	city	9	1	1.327924	1.327924	0	1	0	0	CorrectCommission	0.599392	1.298429	0	0	6.397059e+01
440.081879	5.171449	break	0	1	1.120025	1.120025	0	0	0	0	ThoughtProbe	0.389424	1.277533	0	64	64
443.334137	1.333072	city	1	1	1.788472	1.788472	0	1	0	0	CorrectCommission	2.789867	1.247244	0	0	6.395000e+01
444.653687	1.306050	city	3	1	1.325615	1.325615	0	1	0	0	CorrectCommission	0.588410	1.211757	0	0	6.390000e+01
445.973175	1.332891	city	2	1	1.174348	1.174348	0	1	0	0	CorrectCommission	0.131051	1.175124	0	0	6.385000e+01
447.299469	1.319732	city	8	1	1.234574	1.234574	0	1	0	0	CorrectCommission	0.155397	1.140555	0	0	6.380000e+01
448.619049	1.319399	city	4	1	0.990067	0.990067	0	1	0	0	CorrectCommission	1.007532	1.110013	0	0	6.375000e+01
449.958527	1.359568	city	7	1	0.907859	0.907859	0	1	0	0	CorrectCommission	1.398532	1.084132	0	0	6.370000e+01
451.318085	1.359576	city	10	1	0.861152	0.861152	0	1	0	0	CorrectCommission	1.620682	1.062292	0	0	6.365000e+01
452.637665	1.279542	city	6	1	1.122924	1.122924	0	1	0	0	CorrectCommission	0.375635	1.043001	0	0	6.360000e+01
453.930634	1.306398	city	10	1	0.923454	0.923454	0	1	0	0	CorrectCommission	1.324357	1.024299	0	0	6.355000e+01
455.236847	1.306076	city	3	1	0.941775	0.941775	0	1	0	0	CorrectCommission	1.237218	1.004208	0	0	6.350000e+01
456.549774	1.319755	city	8	1	0.824559	0.824559	0	1	0	0	CorrectCommission	1.794727	0.981194	0	0	6.345000e+01
457.856110	1.292897	mountain	2	0	0.000000	1.079273	1	0	0	0	CorrectOmission	0.583247	0.954379	0	0	6.340000e+01
459.162415	1.319757	mountain	9	0	0.000000	1.414714	1	0	0	0	CorrectOmission	1.012186	0.923777	0	0	6.335000e+01
460.468658	1.292706	city	1	1	1.539676	1.539676	0	1	0	0	CorrectCommission	1.606535	0.890171	0	0	6.330000e+01
461.781372	1.332747	city	3	1	1.162955	1.162955	0	1	0	0	CorrectCommission	0.185235	0.854989	0	0	6.325000e+01
463.100952	1.306383	city	5	1	0.948774	0.948774	0	1	0	0	CorrectCommission	1.203929	0.820106	0	0	6.320000e+01
464.407166	1.306068	city	9	1	1.151829	1.151829	0	1	0	0	CorrectCommission	0.238155	0.787483	0	0	6.315000e+01
465.713409	1.306400	city	4	1	1.114232	1.114232	0	1	0	0	CorrectCommission	0.416973	0.758907	0	0	6.310000e+01
467.006317	1.279431	city	5	1	1.316411	1.316411	0	1	0	0	CorrectCommission	0.544636	0.735749	1	0	6.305000e+01
468.325836	1.359564	city	7	1	1.390223	1.390223	0	1	0	0	CorrectCommission	0.895702	0.718834	1	0	63
469.658783	1.306353	city	4	1	1.389642	1.389642	0	1	0	0	CorrectCommission	0.892937	0.708344	1	0	6.295000e+01
470.971741	1.319584	city	9	1	1.221719	1.221719	0	1	0	0	CorrectCommission	0.094257	0.703860	1	0	6.290000e+01
472.284668	1.306260	mountain	7	0	0.000000	1.281424	1	0	0	0	CorrectOmission	0.378230	0.704441	1	0	6.285000e+01
473.590820	1.306025	city	9	1	1.256525	1.256525	0	1	0	0	CorrectCommission	0.259802	0.708784	1	0	6.280000e+01
474.897034	1.306437	city	6	1	0.834787	0.834787	0	1	0	0	CorrectCommission	1.746080	0.715457	1	0	6.275000e+01
476.196716	1.292923	city	10	1	1.057087	1.057087	0	1	0	0	CorrectCommission	0.688770	0.723019	1	0	6.270000e+01
477.489655	1.292910	city	4	1	1.428892	1.428892	0	1	0	0	CorrectCommission	1.079622	0.730305	1	0	6.265000e+01
478.822540	1.372907	city	1	1	1.220283	1.220283	0	1	0	0	CorrectCommission	0.087429	0.736456	1	0	6.260000e+01
480.162109	1.306189	city	3	1	1.332804	1.332804	0	1	0	0	CorrectCommission	0.622604	0.741040	0	0	6.255000e+01
481.474976	1.319591	city	4	1	1.626932	1.626932	0	1	0	0	CorrectCommission	2.021545	0.744036	0	0	6.250000e+01
482.814484	1.359380	city	7	1	1.255378	1.255378	0	1	0	0	CorrectCommission	0.254348	0.745700	0	0	6.245000e+01
484.133972	1.279588	city	4	1	1.384801	1.384801	0	1	0	0	CorrectCommission	0.869915	0.746601	0	0	6.240000e+01
485.466858	1.386192	city	2	1	1.268480	1.268480	0	1	0	0	CorrectCommission	0.316663	0.747351	0	0	6.235000e+01
486.833130	1.346400	city	3	1	1.188422	1.188422	0	1	0	0	CorrectCommission	0.064111	0.748555	0	0	6.230000e+01
488.166046	1.319391	city	6	1	0.923760	0.923760	0	1	0	0	CorrectCommission	1.322901	0.750693	0	0	6.225000e+01
489.472198	1.292913	city	5	1	1.081033	1.081033	0	1	0	0	CorrectCommission	0.574879	0.753990	0	0	6.220000e+01
490.785095	1.332897	city	10	1	0.911355	0.911355	0	1	0	0	CorrectCommission	1.381902	0.758547	0	0	6.215000e+01
492.124664	1.346219	city	8	1	1.177748	1.177748	0	1	0	0	CorrectCommission	0.114878	0.764208	0	0	6.210000e+01
493.470978	1.346414	city	6	1	0.995936	0.995936	0	1	0	0	CorrectCommission	0.979618	0.770723	0	0	6.205000e+01
495.816925	3.345495	break	0	0	1.038394	1.038394	0	0	0	0	ThoughtProbe	0.777679	0.777679	0	62	62
