onset	duration	trial_type	image_type	Press	ReactionTime	ReactionTime_Interpolated	CorrectOmission	CorrectCommission	CommissionError	OmissionError	response_type	nonsmoothVarianceTimeCourse	VarianceTimeCourse	In_the_Zone	ThoughtProbe	ThoughtProbe_Interpolated
0.653177	1.279738	city	9	1	1.602721	1.602721	0	1	0	0	CorrectCommission	1.745877	1.745877	0	0	73
1.939420	1.292749	city	7	1	1.456970	1.456970	0	1	0	0	CorrectCommission	1.016646	1.573013	0	0	73
3.225592	1.279596	city	4	1	1.180347	1.180347	0	1	0	0	CorrectCommission	0.367369	1.406854	0	0	73
4.505256	1.279731	city	5	1	1.027578	1.027578	0	1	0	0	CorrectCommission	1.131706	1.253465	0	0	73
5.784863	1.279482	city	4	1	1.186913	1.186913	0	1	0	0	CorrectCommission	0.334514	1.117681	0	0	73
7.064442	1.279676	city	9	1	1.190028	1.190028	0	1	0	0	CorrectCommission	0.318931	1.002760	0	0	73
8.343981	1.279403	city	5	1	1.074133	1.074133	0	1	0	0	CorrectCommission	0.898782	0.910169	0	0	73
9.623473	1.279581	city	3	1	1.247557	1.247557	0	1	0	0	CorrectCommission	0.031098	0.839607	0	0	73
10.903139	1.279750	mountain	5	0	0.000000	1.311588	1	0	0	0	CorrectOmission	0.289266	0.789293	0	0	73
12.182712	1.279396	mountain	9	0	0.000000	1.336888	1	0	0	0	CorrectOmission	0.415848	0.756309	1	0	73
13.462213	1.279605	city	5	1	1.394118	1.394118	0	1	0	0	CorrectCommission	0.702183	0.737091	1	0	73
14.741875	1.279719	city	6	1	1.553939	1.553939	0	1	0	0	CorrectCommission	1.501807	0.727908	1	0	73
16.021523	1.279577	mountain	1	0	0.000000	1.497364	1	0	0	0	CorrectOmission	1.218747	0.725237	1	0	73
17.301020	1.279419	city	10	1	1.391251	1.391251	0	1	0	0	CorrectCommission	0.687841	0.726121	1	0	73
18.587275	1.293090	city	4	1	1.402461	1.402461	0	1	0	0	CorrectCommission	0.743923	0.728289	1	0	73
19.873606	1.279571	city	10	1	1.187241	1.187241	0	1	0	0	CorrectCommission	0.332872	0.730187	1	0	73
21.153166	1.279548	city	8	1	1.411550	1.411550	0	1	0	0	CorrectCommission	0.789398	0.730893	1	0	73
22.432747	1.279616	city	3	1	1.151383	1.151383	0	1	0	0	CorrectCommission	0.512281	0.729947	1	0	73
23.719002	1.292892	city	8	1	1.053647	1.053647	0	1	0	0	CorrectCommission	1.001277	0.727230	1	0	73
25.005236	1.279579	city	3	1	1.127369	1.127369	0	1	0	0	CorrectCommission	0.632429	0.722823	1	0	73
26.284740	1.279428	city	6	1	1.124073	1.124073	0	1	0	0	CorrectCommission	0.648919	0.716923	1	0	73
27.577644	1.306382	city	1	1	1.125431	1.125431	0	1	0	0	CorrectCommission	0.642125	0.709799	1	0	73
28.870592	1.279513	city	9	1	1.497880	1.497880	0	1	0	0	CorrectCommission	1.221330	0.701775	1	0	73
30.150183	1.279668	city	8	1	1.410101	1.410101	0	1	0	0	CorrectCommission	0.782149	0.693230	1	0	73
31.429722	1.279411	city	3	1	1.394514	1.394514	0	1	0	0	CorrectCommission	0.704163	0.684572	1	0	73
32.715935	1.293011	city	5	1	1.140770	1.140770	0	1	0	0	CorrectCommission	0.565382	0.676180	1	0	73
34.008835	1.292788	city	1	1	1.154176	1.154176	0	1	0	0	CorrectCommission	0.498307	0.668409	1	0	73
35.295097	1.279737	city	2	1	1.233732	1.233732	0	1	0	0	CorrectCommission	0.100270	0.661547	1	0	73
36.574673	1.279419	city	8	1	1.088314	1.088314	0	1	0	0	CorrectCommission	0.827832	0.655777	1	0	73
37.860886	1.293005	city	10	1	1.089722	1.089722	0	1	0	0	CorrectCommission	0.820784	0.651197	1	0	73
39.147213	1.279652	city	9	1	1.098315	1.098315	0	1	0	0	CorrectCommission	0.777795	0.647884	1	0	73
40.426746	1.279413	city	4	1	1.193899	1.193899	0	1	0	0	CorrectCommission	0.299565	0.645927	1	0	73
41.719654	1.306398	city	3	1	1.108355	1.108355	0	1	0	0	CorrectCommission	0.727561	0.645457	1	0	73
43.012642	1.279579	city	7	1	1.129549	1.129549	0	1	0	0	CorrectCommission	0.621522	0.646651	1	0	73
44.292221	1.279582	mountain	4	1	0.910926	0.910926	0	0	1	0	CommissionError	1.715347	0.649722	1	0	73
45.571728	1.279432	city	7	1	1.312810	1.312810	0	1	0	0	CorrectCommission	0.295381	0.654813	1	0	73
46.891296	1.359706	city	10	1	1.321468	1.321468	0	1	0	0	CorrectCommission	0.338697	0.661938	1	0	73
48.217510	1.292719	city	4	1	1.258522	1.258522	0	1	0	0	CorrectCommission	0.023761	0.670821	1	0	73
49.530407	1.333073	city	9	1	1.194048	1.194048	0	1	0	0	CorrectCommission	0.298819	0.680893	1	0	73
50.836739	1.279593	city	1	1	1.144012	1.144012	0	1	0	0	CorrectCommission	0.549160	0.691267	1	0	73
52.116318	1.279566	city	8	1	1.094539	1.094539	0	1	0	0	CorrectCommission	0.796687	0.700877	1	0	73
53.409229	1.306256	city	10	1	1.076435	1.076435	0	1	0	0	CorrectCommission	0.887265	0.708687	1	0	73
54.702091	1.279471	city	7	1	1.668148	1.668148	0	1	0	0	CorrectCommission	2.073223	0.713891	1	0	73
56.028324	1.372993	city	9	1	1.116692	1.116692	0	1	0	0	CorrectCommission	0.685851	0.716070	1	0	73
57.381268	1.332893	city	5	1	1.166770	1.166770	0	1	0	0	CorrectCommission	0.435295	0.715356	1	0	73
60.413582	4.731739	break	0	0	0.000000	1.387348	0	0	0	0	ThoughtProbe	0.668310	0.712379	1	73	73
63.419250	1.279595	city	6	1	1.514765	1.514765	0	1	0	0	CorrectCommission	1.305812	0.708152	1	0	7.255000e+01
64.732178	1.346255	city	9	1	1.285364	1.285364	0	1	0	0	CorrectCommission	0.158060	0.703870	1	0	7.210000e+01
66.045082	1.279560	city	6	1	1.249445	1.249445	0	1	0	0	CorrectCommission	0.021653	0.700685	1	0	7.165000e+01
67.331238	1.292751	city	4	1	1.104172	1.104172	0	1	0	0	CorrectCommission	0.748488	0.699453	1	0	7.120000e+01
68.624153	1.293083	city	10	1	1.021318	1.021318	0	1	0	0	CorrectCommission	1.163028	0.700566	1	0	7.075000e+01
69.923729	1.306067	city	6	1	1.256152	1.256152	0	1	0	0	CorrectCommission	0.011906	0.703905	1	0	7.030000e+01
71.216621	1.279722	mountain	6	0	0.000000	1.362497	1	0	0	0	CorrectOmission	0.543974	0.708931	1	0	6.985000e+01
72.496277	1.279576	city	4	1	1.411290	1.411290	0	1	0	0	CorrectCommission	0.788102	0.714815	1	0	6.940000e+01
73.775818	1.279513	mountain	2	0	0.000000	1.473472	1	0	0	0	CorrectOmission	1.099210	0.720702	1	0	6.895000e+01
75.055328	1.279506	city	7	1	1.420945	1.420945	0	1	0	0	CorrectCommission	0.836406	0.725952	1	0	6.850000e+01
76.354935	1.319713	city	8	1	1.125615	1.125615	0	1	0	0	CorrectCommission	0.641205	0.730345	1	0	6.805000e+01
77.661171	1.292754	city	1	1	0.887532	0.887532	0	1	0	0	CorrectCommission	1.832393	0.734259	1	0	6.760000e+01
78.960747	1.306407	city	2	1	1.164506	1.164506	0	1	0	0	CorrectCommission	0.446625	0.738585	1	0	6.715000e+01
80.267067	1.306230	city	10	1	1.241051	1.241051	0	1	0	0	CorrectCommission	0.063647	0.744682	1	0	6.670000e+01
81.573296	1.306223	city	8	1	1.094017	1.094017	0	1	0	0	CorrectCommission	0.799297	0.754058	1	0	6.625000e+01
82.886108	1.319406	city	5	1	1.018398	1.018398	0	1	0	0	CorrectCommission	1.177637	0.768040	1	0	6.580000e+01
84.199013	1.306395	city	8	1	1.117295	1.117295	0	1	0	0	CorrectCommission	0.682832	0.787445	0	0	6.535000e+01
85.491997	1.279579	city	7	1	1.249431	1.249431	0	1	0	0	CorrectCommission	0.021720	0.812302	0	0	6.490000e+01
86.778175	1.292771	city	5	1	1.258399	1.258399	0	1	0	0	CorrectCommission	0.023145	0.841656	0	0	6.445000e+01
88.071007	1.292899	city	9	1	1.333737	1.333737	0	1	0	0	CorrectCommission	0.400082	0.873583	0	0	64
89.383987	1.333064	city	10	1	1.498377	1.498377	0	1	0	0	CorrectCommission	1.223816	0.905348	0	0	6.355000e+01
90.690231	1.279421	city	3	1	1.447079	1.447079	0	1	0	0	CorrectCommission	0.967161	0.933742	0	0	6.310000e+01
91.969727	1.279578	city	5	1	1.568558	1.568558	0	1	0	0	CorrectCommission	1.574953	0.955536	0	0	6.265000e+01
93.256050	1.293066	city	8	1	1.755115	1.755115	0	1	0	0	CorrectCommission	2.508344	0.967910	0	0	6.220000e+01
94.555580	1.305988	mountain	8	0	0.000000	1.548544	1	0	0	0	CorrectOmission	1.474816	0.968831	0	0	6.175000e+01
95.848412	1.279683	city	5	1	1.314295	1.314295	0	1	0	0	CorrectCommission	0.302807	0.957355	0	0	6.130000e+01
97.141449	1.306379	city	4	1	1.417817	1.417817	0	1	0	0	CorrectCommission	0.820757	0.933711	0	0	6.085000e+01
98.434418	1.279559	city	8	1	1.605830	1.605830	0	1	0	0	CorrectCommission	1.761431	0.899225	0	0	6.040000e+01
99.727310	1.306236	city	3	1	1.387483	1.387483	0	1	0	0	CorrectCommission	0.668989	0.856128	0	0	5.995000e+01
101.060219	1.359580	city	1	1	1.168677	1.168677	0	1	0	0	CorrectCommission	0.425754	0.807336	0	0	5.950000e+01
102.379745	1.279479	city	6	1	1.499718	1.499718	0	1	0	0	CorrectCommission	1.230525	0.756094	1	0	5.905000e+01
103.685944	1.332904	city	9	1	1.117028	1.117028	0	1	0	0	CorrectCommission	0.684168	0.705652	1	0	5.860000e+01
105.012222	1.319655	city	3	1	1.232249	1.232249	0	1	0	0	CorrectCommission	0.107687	0.659051	1	0	5.815000e+01
106.351700	1.359307	city	9	1	1.312158	1.312158	0	1	0	0	CorrectCommission	0.292119	0.618833	1	0	5.770000e+01
107.671265	1.279826	city	2	1	1.085220	1.085220	0	1	0	0	CorrectCommission	0.843311	0.586888	1	0	5.725000e+01
108.977585	1.332807	city	10	1	1.178829	1.178829	0	1	0	0	CorrectCommission	0.374961	0.564358	1	0	5.680000e+01
110.283813	1.279655	city	4	1	1.256792	1.256792	0	1	0	0	CorrectCommission	0.015104	0.551640	1	0	5.635000e+01
111.563339	1.279402	city	2	1	1.294282	1.294282	0	1	0	0	CorrectCommission	0.202677	0.548407	1	0	5.590000e+01
112.849503	1.292912	city	1	1	1.158639	1.158639	0	1	0	0	CorrectCommission	0.475976	0.553718	1	0	5.545000e+01
116.168449	5.344984	break	0	0	0.000000	1.218767	0	0	0	0	ThoughtProbe	0.175141	0.566211	1	55	55
119.494118	1.306349	city	5	1	1.371253	1.371253	0	1	0	0	CorrectCommission	0.587783	0.584259	1	0	5.397059e+01
120.807076	1.319570	city	7	1	1.512685	1.512685	0	1	0	0	CorrectCommission	1.295401	0.606140	1	0	5.294118e+01
122.113297	1.292878	city	2	1	1.483086	1.483086	0	1	0	0	CorrectCommission	1.147312	0.630164	1	0	5.191176e+01
123.412788	1.306099	mountain	1	0	0.000000	1.340608	1	0	0	0	CorrectOmission	0.434462	0.654812	1	0	5.088235e+01
124.718956	1.306243	city	2	1	1.266767	1.266767	0	1	0	0	CorrectCommission	0.065015	0.678751	1	0	4.985294e+01
126.025261	1.306362	city	4	1	1.443078	1.443078	0	1	0	0	CorrectCommission	0.947141	0.700794	1	0	4.882353e+01
127.371468	1.386058	city	1	1	1.047252	1.047252	0	1	0	0	CorrectCommission	1.033272	0.719888	1	0	4.779412e+01
128.711060	1.293120	city	7	1	1.355868	1.355868	0	1	0	0	CorrectCommission	0.510807	0.735115	1	0	4.676471e+01
130.010635	1.306047	city	5	1	1.204592	1.204592	0	1	0	0	CorrectCommission	0.246063	0.745698	1	0	4.573529e+01
131.316849	1.306372	city	9	1	1.046906	1.046906	0	1	0	0	CorrectCommission	1.035005	0.751001	1	0	4.470588e+01
132.636459	1.332850	city	1	1	1.093977	1.093977	0	1	0	0	CorrectCommission	0.799500	0.750629	1	0	4.367647e+01
133.949326	1.292883	city	10	1	1.567350	1.567350	0	1	0	0	CorrectCommission	1.568906	0.744547	1	0	4.264706e+01
135.248932	1.306308	city	3	1	1.566495	1.566495	0	1	0	0	CorrectCommission	1.564629	0.733051	1	0	4.161765e+01
136.601700	1.399232	city	1	1	1.357447	1.357447	0	1	0	0	CorrectCommission	0.518707	0.716855	1	0	4.058824e+01
137.941193	1.279773	city	5	1	1.231734	1.231734	0	1	0	0	CorrectCommission	0.110263	0.696988	1	0	3.955882e+01
139.227524	1.292886	mountain	7	1	1.108459	1.108459	0	0	1	0	CommissionError	0.727041	0.674686	1	0	3.852941e+01
140.513824	1.279721	city	8	1	1.370265	1.370265	0	1	0	0	CorrectCommission	0.582838	0.651214	1	0	3.750000e+01
141.806732	1.306073	city	1	1	1.271536	1.271536	0	1	0	0	CorrectCommission	0.088874	0.627816	1	0	3.647059e+01
143.106216	1.292900	city	10	1	1.433463	1.433463	0	1	0	0	CorrectCommission	0.899037	0.605600	1	0	3.544118e+01
144.419205	1.333084	city	7	1	1.180791	1.180791	0	1	0	0	CorrectCommission	0.365145	0.585470	1	0	3.441176e+01
145.738815	1.306122	city	10	1	1.084401	1.084401	0	1	0	0	CorrectCommission	0.847408	0.568191	1	0	3.338235e+01
147.031662	1.279584	city	6	1	1.177520	1.177520	0	1	0	0	CorrectCommission	0.381509	0.554378	1	0	3.235294e+01
148.311295	1.279670	city	10	1	1.084949	1.084949	0	1	0	0	CorrectCommission	0.844666	0.544550	1	0	3.132353e+01
149.604233	1.306230	city	6	1	1.373172	1.373172	0	1	0	0	CorrectCommission	0.597385	0.539102	1	0	3.029412e+01
150.910477	1.306237	city	7	1	1.201723	1.201723	0	1	0	0	CorrectCommission	0.260418	0.538325	1	0	2.926471e+01
152.216705	1.306236	city	4	1	1.335733	1.335733	0	1	0	0	CorrectCommission	0.410070	0.542367	1	0	2.823529e+01
153.549606	1.359557	city	9	1	1.281271	1.281271	0	1	0	0	CorrectCommission	0.137579	0.551140	1	0	2.720588e+01
154.869095	1.279412	city	2	1	1.398464	1.398464	0	1	0	0	CorrectCommission	0.723929	0.564281	1	0	2.617647e+01
156.155258	1.292910	city	1	1	1.299584	1.299584	0	1	0	0	CorrectCommission	0.229206	0.581165	1	0	2.514706e+01
157.468201	1.332980	city	4	1	1.285189	1.285189	0	1	0	0	CorrectCommission	0.157183	0.600965	1	0	2.411765e+01
158.774429	1.279490	city	5	1	1.093243	1.093243	0	1	0	0	CorrectCommission	0.803167	0.622750	1	0	2.308824e+01
160.054047	1.279751	city	2	1	1.140629	1.140629	0	1	0	0	CorrectCommission	0.566087	0.645617	1	0	2.205882e+01
161.346985	1.306119	city	9	1	0.862737	0.862737	0	1	0	0	CorrectCommission	1.956448	0.668844	1	0	2.102941e+01
164.425964	4.851820	break	0	0	0.000000	1.166367	0	0	0	0	ThoughtProbe	0.437314	0.691922	1	20	20
167.498322	1.292896	city	5	1	1.489561	1.489561	0	1	0	0	CorrectCommission	1.179707	0.714707	1	0	2.015217e+01
168.797913	1.306298	city	8	1	1.270363	1.270363	0	1	0	0	CorrectCommission	0.083007	0.737328	1	0	2.030435e+01
170.097519	1.292920	city	9	1	1.379072	1.379072	0	1	0	0	CorrectCommission	0.626905	0.760153	1	0	2.045652e+01
171.397095	1.306216	city	2	1	1.204609	1.204609	0	1	0	0	CorrectCommission	0.245980	0.783639	0	0	2.060870e+01
172.689987	1.279573	city	9	1	1.338418	1.338418	0	1	0	0	CorrectCommission	0.423501	0.808246	0	0	2.076087e+01
173.982910	1.306265	city	8	1	1.524833	1.524833	0	1	0	0	CorrectCommission	1.356183	0.834341	0	0	2.091304e+01
175.275818	1.279552	mountain	9	0	0.000000	1.528444	1	0	0	0	CorrectOmission	1.374249	0.862086	0	0	2.106522e+01
176.568710	1.306254	mountain	4	0	0.000000	1.445687	1	0	0	0	CorrectOmission	0.960198	0.891424	0	0	2.121739e+01
177.861633	1.279579	city	5	1	1.373001	1.373001	0	1	0	0	CorrectCommission	0.596531	0.921991	0	0	2.136957e+01
179.161194	1.319536	city	1	1	1.406822	1.406822	0	1	0	0	CorrectCommission	0.765747	0.953097	0	0	2.152174e+01
180.467422	1.292927	city	7	1	1.584488	1.584488	0	1	0	0	CorrectCommission	1.654654	0.983628	0	0	2.167391e+01
181.753677	1.279587	mountain	10	0	0.000000	1.416695	1	0	0	0	CorrectOmission	0.815140	1.012043	0	0	2.182609e+01
183.059906	1.332855	city	4	1	1.258520	1.258520	0	1	0	0	CorrectCommission	0.023751	1.036510	0	0	2.197826e+01
184.366119	1.279598	city	7	1	1.465043	1.465043	0	1	0	0	CorrectCommission	1.057037	1.055049	0	0	2.213043e+01
185.678970	1.346086	city	3	1	1.380487	1.380487	0	1	0	0	CorrectCommission	0.633985	1.065772	0	0	2.228261e+01
187.005157	1.306290	city	10	1	1.499680	1.499680	0	1	0	0	CorrectCommission	1.230334	1.067292	0	0	2.243478e+01
188.304794	1.292994	city	1	1	1.884822	1.884822	0	1	0	0	CorrectCommission	3.157297	1.059032	0	0	2.258696e+01
189.591003	1.279426	city	2	1	1.754084	1.754084	0	1	0	0	CorrectCommission	2.503184	1.041414	0	0	2.273913e+01
190.877167	1.292898	city	10	1	1.428308	1.428308	0	1	0	0	CorrectCommission	0.873243	1.016019	0	0	2.289130e+01
192.183350	1.319470	city	9	1	1.214866	1.214866	0	1	0	0	CorrectCommission	0.194659	0.985402	0	0	2.304348e+01
193.496338	1.306493	city	1	1	1.050432	1.050432	0	1	0	0	CorrectCommission	1.017362	0.952695	0	0	2.319565e+01
194.789291	1.279420	city	4	1	1.284249	1.284249	0	1	0	0	CorrectCommission	0.152483	0.921163	0	0	2.334783e+01
196.102112	1.346234	city	2	1	1.057662	1.057662	0	1	0	0	CorrectCommission	0.981188	0.893687	0	0	2.350000e+01
197.428345	1.306226	city	10	1	1.204338	1.204338	0	1	0	0	CorrectCommission	0.247332	0.872290	0	0	2.365217e+01
198.721252	1.279596	city	6	1	1.300773	1.300773	0	1	0	0	CorrectCommission	0.235155	0.857843	0	0	2.380435e+01
200.000916	1.279724	city	2	1	1.363932	1.363932	0	1	0	0	CorrectCommission	0.551154	0.850044	0	0	2.395652e+01
201.293915	1.306256	city	7	0	0.000000	1.317294	0	0	0	1	OmissionError	0.317812	0.847578	0	0	2.410870e+01
202.586838	1.279585	city	6	1	1.371071	1.371071	0	1	0	0	CorrectCommission	0.586873	0.848522	0	0	2.426087e+01
203.886307	1.319380	city	9	1	1.735476	1.735476	0	1	0	0	CorrectCommission	2.410081	0.850781	0	0	2.441304e+01
205.199203	1.306416	mountain	6	0	0.000000	1.682427	1	0	0	0	CorrectOmission	2.144665	0.852536	0	0	2.456522e+01
206.492203	1.279563	city	4	1	1.421111	1.421111	0	1	0	0	CorrectCommission	0.837235	0.852652	0	0	2.471739e+01
207.791687	1.319419	city	8	1	1.160714	1.160714	0	1	0	0	CorrectCommission	0.465593	0.850798	0	0	2.486957e+01
209.104507	1.306222	city	7	1	1.121896	1.121896	0	1	0	0	CorrectCommission	0.659811	0.847349	0	0	2.502174e+01
210.397461	1.279668	city	5	1	1.231625	1.231625	0	1	0	0	CorrectCommission	0.110809	0.843223	0	0	2.517391e+01
211.683777	1.292982	city	9	1	1.129748	1.129748	0	1	0	0	CorrectCommission	0.620525	0.839605	0	0	2.532609e+01
212.970062	1.279576	city	1	1	0.916066	0.916066	0	1	0	0	CorrectCommission	1.689632	0.837517	0	0	2.547826e+01
214.276215	1.332747	city	2	1	1.193748	1.193748	0	1	0	0	CorrectCommission	0.300320	0.837634	0	0	2.563043e+01
215.582458	1.279726	city	9	1	1.071568	1.071568	0	1	0	0	CorrectCommission	0.911615	0.840169	0	0	2.578261e+01
216.868729	1.292817	city	3	1	1.260733	1.260733	0	1	0	0	CorrectCommission	0.034824	0.844747	0	0	2.593478e+01
218.154984	1.279693	city	4	1	1.202337	1.202337	0	1	0	0	CorrectCommission	0.257346	0.850674	0	0	2.608696e+01
219.447952	1.306237	city	2	1	0.990413	0.990413	0	1	0	0	CorrectCommission	1.317654	0.857091	0	0	2.623913e+01
220.774200	1.346253	city	6	1	0.897612	0.897612	0	1	0	0	CorrectCommission	1.781960	0.863248	0	0	2.639130e+01
222.100342	1.306042	city	8	1	0.779590	0.779590	0	1	0	0	CorrectCommission	2.372452	0.868703	0	0	2.654348e+01
223.393250	1.279760	city	10	1	1.260476	1.260476	0	1	0	0	CorrectCommission	0.033537	0.873477	0	0	2.669565e+01
224.692902	1.319552	city	5	1	1.115438	1.115438	0	1	0	0	CorrectCommission	0.692123	0.878075	0	0	2.684783e+01
227.798538	4.891726	break	0	0	0.000000	1.302410	0	0	0	0	ThoughtProbe	0.243343	0.883250	0	27	27
230.897430	1.306075	city	5	1	1.440962	1.440962	0	1	0	0	CorrectCommission	0.936555	0.889869	0	0	27
232.190338	1.279740	city	10	1	1.150666	1.150666	0	1	0	0	CorrectCommission	0.515869	0.898595	0	0	27
233.469910	1.279392	city	7	1	1.421149	1.421149	0	1	0	0	CorrectCommission	0.837425	0.909697	0	0	27
234.756058	1.292909	city	9	1	1.515333	1.515333	0	1	0	0	CorrectCommission	1.308650	0.922874	0	0	27
236.075714	1.346386	city	7	1	1.483628	1.483628	0	1	0	0	CorrectCommission	1.150024	0.937193	0	0	27
237.408615	1.319414	city	10	1	1.192324	1.192324	0	1	0	0	CorrectCommission	0.307441	0.951169	0	0	27
238.708191	1.279755	mountain	4	0	0.000000	1.398874	1	0	0	0	CorrectOmission	0.725981	0.962962	0	0	27
239.987854	1.279560	city	7	1	1.567411	1.567411	0	1	0	0	CorrectCommission	1.569211	0.970575	0	0	27
241.287354	1.319449	city	6	0	0.000000	1.162066	0	0	0	1	OmissionError	0.458829	0.972125	0	0	27
242.600220	1.306276	city	4	1	0.937306	0.937306	0	1	0	0	CorrectCommission	1.583361	0.966233	0	0	27
243.899841	1.292974	city	7	1	1.647596	1.647596	0	1	0	0	CorrectCommission	1.970399	0.952147	0	0	27
245.206039	1.319435	city	10	1	1.090459	1.090459	0	1	0	0	CorrectCommission	0.817097	0.929959	0	0	27
246.505630	1.279740	mountain	1	1	0.916470	0.916470	0	0	1	0	CommissionError	1.687610	0.900681	0	0	27
247.798523	1.306051	city	3	1	1.135066	1.135066	0	1	0	0	CorrectCommission	0.593920	0.866038	0	0	27
249.111435	1.319759	city	9	1	1.089261	1.089261	0	1	0	0	CorrectCommission	0.823095	0.828325	0	0	27
250.417709	1.292778	city	5	1	1.254719	1.254719	0	1	0	0	CorrectCommission	0.004733	0.790035	0	0	27
251.710602	1.293034	city	4	1	1.158817	1.158817	0	1	0	0	CorrectCommission	0.475087	0.753549	1	0	27
253.016846	1.319434	city	9	1	1.064535	1.064535	0	1	0	0	CorrectCommission	0.946803	0.720809	1	0	27
254.349640	1.346160	city	7	1	1.169683	1.169683	0	1	0	0	CorrectCommission	0.420722	0.693114	1	0	27
255.675842	1.306254	city	8	1	1.129652	1.129652	0	1	0	0	CorrectCommission	0.621007	0.671037	1	0	27
256.988831	1.319721	city	9	1	1.093028	1.093028	0	1	0	0	CorrectCommission	0.804244	0.654386	1	0	27
258.308502	1.319593	city	2	1	1.237266	1.237266	0	1	0	0	CorrectCommission	0.082585	0.642308	1	0	27
259.621399	1.306222	city	8	1	1.341153	1.341153	0	1	0	0	CorrectCommission	0.437187	0.633492	1	0	27
260.947540	1.346046	city	3	1	1.447820	1.447820	0	1	0	0	CorrectCommission	0.970869	0.626429	1	0	27
262.287048	1.332994	city	5	1	1.164336	1.164336	0	1	0	0	CorrectCommission	0.447472	0.619701	1	0	27
263.606659	1.306230	city	4	1	1.113803	1.113803	0	1	0	0	CorrectCommission	0.700301	0.612305	1	0	27
264.926208	1.332861	city	3	1	0.965137	0.965137	0	1	0	0	CorrectCommission	1.444115	0.603782	1	0	27
266.239075	1.292860	city	7	1	1.177784	1.177784	0	1	0	0	CorrectCommission	0.380192	0.594430	1	0	27
267.538666	1.306317	city	8	1	0.988762	0.988762	0	1	0	0	CorrectCommission	1.325913	0.585362	1	0	27
268.851654	1.319665	city	10	1	1.233472	1.233472	0	1	0	0	CorrectCommission	0.101569	0.578338	1	0	27
270.171112	1.319289	city	2	1	1.183076	1.183076	0	1	0	0	CorrectCommission	0.353713	0.575658	1	0	27
271.484039	1.306566	city	7	1	1.266017	1.266017	0	1	0	0	CorrectCommission	0.061260	0.579779	1	0	27
272.783752	1.292827	city	3	1	1.378885	1.378885	0	1	0	0	CorrectCommission	0.625970	0.593014	1	0	27
275.462738	4.065180	break	0	0	0.000000	1.296048	0	0	0	0	ThoughtProbe	0.211513	0.617178	1	27	27
278.168488	1.346302	city	8	1	1.182127	1.182127	0	1	0	0	CorrectCommission	0.358460	0.653312	1	0	2.692500e+01
279.501404	1.319495	city	3	1	1.201746	1.201746	0	1	0	0	CorrectCommission	0.260301	0.701415	1	0	2.685000e+01
280.820984	1.319717	city	4	1	1.151526	1.151526	0	1	0	0	CorrectCommission	0.511566	0.760324	1	0	2.677500e+01
282.120636	1.279586	city	8	1	0.986282	0.986282	0	1	0	0	CorrectCommission	1.338321	0.827710	0	0	2.670000e+01
283.406860	1.292810	mountain	2	0	0.000000	1.284771	1	0	0	0	CorrectOmission	0.155094	0.900190	0	0	2.662500e+01
284.699768	1.293021	city	9	1	1.569497	1.569497	0	1	0	0	CorrectCommission	1.579649	0.973589	0	0	2.655000e+01
285.992706	1.292883	city	8	1	1.362964	1.362964	0	1	0	0	CorrectCommission	0.546313	1.043288	0	0	2.647500e+01
287.318848	1.359390	city	4	1	1.230802	1.230802	0	1	0	0	CorrectCommission	0.114930	1.104797	0	0	2.640000e+01
288.651733	1.306387	city	10	1	0.992921	0.992921	0	1	0	0	CorrectCommission	1.305105	1.154190	0	0	2.632500e+01
289.977966	1.346078	mountain	8	1	0.737061	0.737061	0	0	1	0	CommissionError	2.585238	1.188651	0	0	2.625000e+01
291.304230	1.306416	city	5	1	2.128408	2.128408	0	1	0	0	CorrectCommission	4.376022	1.206885	0	0	2.617500e+01
292.603882	1.292883	city	7	1	1.500742	1.500742	0	1	0	0	CorrectCommission	1.235651	1.209271	0	0	2.610000e+01
293.903442	1.306268	city	1	1	1.120838	1.120838	0	1	0	0	CorrectCommission	0.665106	1.197929	0	0	2.602500e+01
295.203033	1.292903	city	8	1	1.380404	1.380404	0	1	0	0	CorrectCommission	0.633569	1.176263	0	0	2.595000e+01
296.535919	1.372862	city	1	1	1.545381	1.545381	0	1	0	0	CorrectCommission	1.458991	1.148460	0	0	2.587500e+01
297.889557	1.334444	city	9	1	1.366592	1.366592	0	1	0	0	CorrectCommission	0.564464	1.118890	0	0	2.580000e+01
299.242462	1.371329	city	6	1	1.172217	1.172217	0	1	0	0	CorrectCommission	0.408044	1.091497	0	0	2.572500e+01
300.581146	1.306075	city	10	1	1.137496	1.137496	0	1	0	0	CorrectCommission	0.581759	1.069257	0	0	2.565000e+01
301.907318	1.346241	city	4	1	1.283784	1.283784	0	1	0	0	CorrectCommission	0.150155	1.053891	0	0	2.557500e+01
303.226898	1.292924	city	6	1	1.648486	1.648486	0	1	0	0	CorrectCommission	1.974852	1.045782	0	0	2.550000e+01
304.566498	1.386272	city	1	1	1.507349	1.507349	0	1	0	0	CorrectCommission	1.268707	1.044025	0	0	2.542500e+01
305.919434	1.319636	city	4	1	1.072511	1.072511	0	1	0	0	CorrectCommission	0.906896	1.046806	0	0	2.535000e+01
307.252289	1.346073	city	2	1	1.098798	1.098798	0	1	0	0	CorrectCommission	0.775379	1.051677	0	0	2.527500e+01
308.591827	1.332970	city	4	1	0.920890	0.920890	0	1	0	0	CorrectCommission	1.665495	1.056013	0	0	2.520000e+01
309.911377	1.306153	city	5	1	1.204807	1.204807	0	1	0	0	CorrectCommission	0.244988	1.057329	0	0	2.512500e+01
311.217651	1.306395	city	8	1	1.022779	1.022779	0	1	0	0	CorrectCommission	1.155719	1.053712	0	0	2.505000e+01
312.537231	1.332757	city	2	1	0.780950	0.780950	0	1	0	0	CorrectCommission	2.365648	1.043969	0	0	2.497500e+01
313.876801	1.346382	city	4	1	1.110554	1.110554	0	1	0	0	CorrectCommission	0.716558	1.027785	0	0	2.490000e+01
315.189789	1.279571	mountain	8	0	0.000000	1.455407	1	0	0	0	CorrectOmission	1.008825	1.005818	0	0	2.482500e+01
316.469269	1.279431	city	1	1	1.636457	1.636457	0	1	0	0	CorrectCommission	1.914667	0.979525	0	0	2.475000e+01
317.748779	1.279593	city	4	1	1.474655	1.474655	0	1	0	0	CorrectCommission	1.105132	0.950926	0	0	2.467500e+01
319.035034	1.292869	city	10	1	1.334672	1.334672	0	1	0	0	CorrectCommission	0.404760	0.922393	0	0	2.460000e+01
320.354675	1.346408	city	3	1	1.187457	1.187457	0	1	0	0	CorrectCommission	0.331791	0.896261	0	0	2.452500e+01
321.700897	1.346059	city	8	1	1.165690	1.165690	0	1	0	0	CorrectCommission	0.440697	0.874585	0	0	2.445000e+01
323.020386	1.292899	city	5	1	1.163898	1.163898	0	1	0	0	CorrectCommission	0.449666	0.858926	0	0	2.437500e+01
324.333344	1.333045	city	9	1	1.021655	1.021655	0	1	0	0	CorrectCommission	1.161342	0.850235	0	0	2.430000e+01
325.659607	1.319467	city	6	1	1.224570	1.224570	0	1	0	0	CorrectCommission	0.146107	0.848876	0	0	2.422500e+01
326.972504	1.306312	city	1	1	1.481834	1.481834	0	1	0	0	CorrectCommission	1.141048	0.854822	0	0	2.415000e+01
328.278778	1.306263	city	5	1	1.474002	1.474002	0	1	0	0	CorrectCommission	1.101861	0.867719	0	0	2.407500e+01
331.451019	5.038210	break	0	0	0.000000	1.497286	0	0	0	0	ThoughtProbe	1.218360	0.887098	0	24	24
334.616638	1.293064	city	1	1	1.457330	1.457330	0	1	0	0	CorrectCommission	1.018449	0.912472	0	0	2.415217e+01
335.949554	1.372712	city	9	1	1.259776	1.259776	0	1	0	0	CorrectCommission	0.030036	0.943355	0	0	2.430435e+01
337.282410	1.293049	city	4	1	0.962841	0.962841	0	1	0	0	CorrectCommission	1.455605	0.979236	0	0	2.445652e+01
338.601990	1.346115	city	8	1	1.175722	1.175722	0	1	0	0	CorrectCommission	0.390505	1.019377	0	0	2.460870e+01
339.954895	1.359690	city	2	1	0.875135	0.875135	0	1	0	0	CorrectCommission	1.894420	1.062784	0	0	2.476087e+01
341.287872	1.306257	city	5	1	1.168486	1.168486	0	1	0	0	CorrectCommission	0.426712	1.107935	0	0	2.491304e+01
342.600769	1.319522	city	2	1	1.061151	1.061151	0	1	0	0	CorrectCommission	0.963733	1.152912	0	0	2.506522e+01
343.953644	1.386246	city	4	1	1.193696	1.193696	0	1	0	0	CorrectCommission	0.300580	1.195301	0	0	2.521739e+01
345.293213	1.292893	city	5	1	0.932292	0.932292	0	1	0	0	CorrectCommission	1.608446	1.232410	0	0	2.536957e+01
346.592804	1.306245	city	1	1	0.988407	0.988407	0	1	0	0	CorrectCommission	1.327688	1.261556	0	0	2.552174e+01
347.925690	1.359543	city	8	1	1.742583	1.742583	0	1	0	0	CorrectCommission	2.445642	1.280394	0	0	2.567391e+01
349.271820	1.332737	city	7	1	1.793025	1.793025	0	1	0	0	CorrectCommission	2.698017	1.287151	0	0	2.582609e+01
350.611389	1.346361	city	6	1	1.005430	1.005430	0	1	0	0	CorrectCommission	1.242520	1.280918	0	0	2.597826e+01
351.924286	1.279471	mountain	10	0	0.000000	0.933077	1	0	0	0	CorrectOmission	1.604520	1.261779	0	0	2.613043e+01
353.237183	1.346336	city	10	1	1.192698	1.192698	0	1	0	0	CorrectCommission	0.305572	1.230704	0	0	2.628261e+01
354.556732	1.292751	city	7	1	1.401023	1.401023	0	1	0	0	CorrectCommission	0.736731	1.189469	0	0	2.643478e+01
355.882874	1.359542	city	4	1	1.637178	1.637178	0	1	0	0	CorrectCommission	1.918274	1.140417	0	0	2.658696e+01
357.209198	1.293091	mountain	2	0	0.000000	1.594431	1	0	0	0	CorrectOmission	1.704401	1.086217	0	0	2.673913e+01
358.502197	1.292891	city	9	1	1.429672	1.429672	0	1	0	0	CorrectCommission	0.880071	1.029729	0	0	2.689130e+01
359.808411	1.319535	city	3	1	1.299791	1.299791	0	1	0	0	CorrectCommission	0.230242	0.973746	0	0	2.704348e+01
361.127960	1.319595	mountain	6	1	1.015146	1.015146	0	0	1	0	CommissionError	1.193911	0.920854	0	0	2.719565e+01
362.460876	1.346245	city	10	1	1.046827	1.046827	0	1	0	0	CorrectCommission	1.035398	0.873248	0	0	2.734783e+01
363.801880	1.335721	city	5	1	1.289536	1.289536	0	1	0	0	CorrectCommission	0.178934	0.832682	0	0	2.750000e+01
365.114777	1.290061	city	6	1	1.390971	1.390971	0	1	0	0	CorrectCommission	0.686440	0.800385	0	0	2.765217e+01
366.433533	1.347491	city	7	1	1.237437	1.237437	0	1	0	0	CorrectCommission	0.081729	0.776909	1	0	2.780435e+01
367.779694	1.344803	city	10	1	0.973009	0.973009	0	1	0	0	CorrectCommission	1.404732	0.762210	1	0	2.795652e+01
369.098633	1.293065	city	7	1	1.440681	1.440681	0	1	0	0	CorrectCommission	0.935148	0.755552	1	0	2.810870e+01
370.438232	1.386140	city	5	1	1.246368	1.246368	0	1	0	0	CorrectCommission	0.037045	0.755681	1	0	2.826087e+01
371.777802	1.293032	city	2	1	1.110038	1.110038	0	1	0	0	CorrectCommission	0.719138	0.760857	1	0	2.841304e+01
373.090729	1.332841	city	9	1	1.155499	1.155499	0	1	0	0	CorrectCommission	0.491688	0.769039	1	0	2.856522e+01
374.403625	1.292949	city	2	1	1.323158	1.323158	0	1	0	0	CorrectCommission	0.347153	0.778142	0	0	2.871739e+01
375.703156	1.306058	city	8	1	1.360600	1.360600	0	1	0	0	CorrectCommission	0.534485	0.786274	0	0	2.886957e+01
377.009369	1.306396	mountain	9	0	0.000000	1.615584	1	0	0	0	CorrectOmission	1.810235	0.792000	0	0	2.902174e+01
378.309021	1.292881	city	6	1	1.661290	1.661290	0	1	0	0	CorrectCommission	2.038911	0.794515	0	0	2.917391e+01
379.635132	1.359390	city	9	1	1.070896	1.070896	0	1	0	0	CorrectCommission	0.914978	0.793840	0	0	2.932609e+01
380.981293	1.332917	city	2	1	1.098132	1.098132	0	1	0	0	CorrectCommission	0.778711	0.790717	0	0	2.947826e+01
382.314301	1.333064	city	1	1	1.180035	1.180035	0	1	0	0	CorrectCommission	0.368926	0.786431	0	0	2.963043e+01
383.640503	1.319374	city	4	1	1.124681	1.124681	0	1	0	0	CorrectCommission	0.645876	0.782518	0	0	2.978261e+01
384.966583	1.332750	city	7	1	1.239523	1.239523	0	1	0	0	CorrectCommission	0.071292	0.780403	0	0	2.993478e+01
386.306213	1.346532	city	1	1	1.143250	1.143250	0	1	0	0	CorrectCommission	0.552971	0.781144	0	0	3.008696e+01
387.639191	1.319416	city	5	1	1.197044	1.197044	0	1	0	0	CorrectCommission	0.283827	0.785167	0	0	3.023913e+01
388.958679	1.319565	city	10	1	1.056446	1.056446	0	1	0	0	CorrectCommission	0.987275	0.792228	0	0	3.039130e+01
390.264984	1.293065	city	6	1	1.502525	1.502525	0	1	0	0	CorrectCommission	1.244569	0.801414	0	0	3.054348e+01
391.564545	1.306069	city	9	1	1.412109	1.412109	0	1	0	0	CorrectCommission	0.792197	0.811312	0	0	3.069565e+01
392.884033	1.332899	city	1	1	1.436316	1.436316	0	1	0	0	CorrectCommission	0.913310	0.820263	0	0	3.084783e+01
395.796417	4.491856	break	0	0	0.000000	1.502785	0	0	0	0	ThoughtProbe	1.245871	0.826534	0	31	31
398.688904	1.293090	city	4	1	1.483565	1.483565	0	1	0	0	CorrectCommission	1.149711	0.828598	0	0	3.082353e+01
399.995178	1.319495	city	5	1	1.250706	1.250706	0	1	0	0	CorrectCommission	0.015341	0.825255	0	0	3.064706e+01
401.334656	1.359464	mountain	7	1	1.133542	1.133542	0	0	1	0	CommissionError	0.601546	0.815818	0	0	3.047059e+01
402.674255	1.319703	city	3	1	1.633286	1.633286	0	1	0	0	CorrectCommission	1.898800	0.800124	0	0	3.029412e+01
403.993805	1.319422	city	10	1	1.096416	1.096416	0	1	0	0	CorrectCommission	0.787295	0.778533	0	0	3.011765e+01
405.313385	1.319708	city	7	1	1.034446	1.034446	0	1	0	0	CorrectCommission	1.097348	0.751946	1	0	2.994118e+01
406.653015	1.359547	city	5	1	1.218631	1.218631	0	1	0	0	CorrectCommission	0.175825	0.721618	1	0	2.976471e+01
407.992554	1.319583	city	1	1	0.978098	0.978098	0	1	0	0	CorrectCommission	1.379268	0.689065	1	0	2.958824e+01
409.305481	1.306220	city	4	1	1.146994	1.146994	0	1	0	0	CorrectCommission	0.534240	0.655780	1	0	2.941176e+01
410.598297	1.279451	city	6	1	1.338390	1.338390	0	1	0	0	CorrectCommission	0.423365	0.623145	1	0	2.923529e+01
411.897797	1.319538	city	4	1	1.217518	1.217518	0	1	0	0	CorrectCommission	0.181389	0.592217	1	0	2.905882e+01
413.257324	1.399540	city	3	1	1.222637	1.222637	0	1	0	0	CorrectCommission	0.155779	0.563657	1	0	2.888235e+01
414.610229	1.306269	city	8	1	1.146281	1.146281	0	1	0	0	CorrectCommission	0.537806	0.537711	1	0	2.870588e+01
415.929840	1.332939	city	2	1	1.203444	1.203444	0	1	0	0	CorrectCommission	0.251805	0.514313	1	0	2.852941e+01
417.262817	1.332985	city	3	1	1.182404	1.182404	0	1	0	0	CorrectCommission	0.357074	0.493269	1	0	2.835294e+01
418.595734	1.332878	city	8	1	0.995846	0.995846	0	1	0	0	CorrectCommission	1.290472	0.474413	1	0	2.817647e+01
419.915222	1.306087	city	3	1	1.394853	1.394853	0	1	0	0	CorrectCommission	0.705860	0.457822	1	0	28
421.241364	1.346220	city	8	1	1.127121	1.127121	0	1	0	0	CorrectCommission	0.633670	0.443920	1	0	2.782353e+01
422.567627	1.306315	city	1	1	1.251973	1.251973	0	1	0	0	CorrectCommission	0.009005	0.433462	1	0	2.764706e+01
423.880585	1.319542	city	8	1	1.102227	1.102227	0	1	0	0	CorrectCommission	0.758219	0.427450	1	0	2.747059e+01
425.206818	1.332977	city	1	1	1.256606	1.256606	0	1	0	0	CorrectCommission	0.014179	0.426902	1	0	2.729412e+01
426.526428	1.306232	city	2	1	1.278258	1.278258	0	1	0	0	CorrectCommission	0.122506	0.432635	1	0	2.711765e+01
427.832672	1.306248	city	7	1	1.244505	1.244505	0	1	0	0	CorrectCommission	0.046366	0.444980	1	0	2.694118e+01
429.132263	1.292952	mountain	6	0	0.000000	1.240422	1	0	0	0	CorrectOmission	0.066795	0.463670	1	0	2.676471e+01
430.451782	1.346089	city	7	1	1.234560	1.234560	0	1	0	0	CorrectCommission	0.096127	0.487747	1	0	2.658824e+01
431.798004	1.346337	city	2	1	1.195469	1.195469	0	1	0	0	CorrectCommission	0.291708	0.515615	1	0	2.641176e+01
433.130981	1.319586	city	1	1	1.060227	1.060227	0	1	0	0	CorrectCommission	0.968358	0.545286	1	0	2.623529e+01
434.463867	1.346203	city	2	1	1.056176	1.056176	0	1	0	0	CorrectCommission	0.988628	0.574586	1	0	2.605882e+01
435.809998	1.346063	city	9	1	0.995795	0.995795	0	1	0	0	CorrectCommission	1.290728	0.601497	1	0	2.588235e+01
437.156158	1.346239	city	2	1	1.115022	1.115022	0	1	0	0	CorrectCommission	0.694201	0.624352	1	0	2.570588e+01
438.482452	1.306386	city	10	1	1.096587	1.096587	0	1	0	0	CorrectCommission	0.786440	0.642023	1	0	2.552941e+01
439.795441	1.319568	city	4	1	1.223699	1.223699	0	1	0	0	CorrectCommission	0.150468	0.653983	1	0	2.535294e+01
441.101593	1.292768	city	1	1	1.070863	1.070863	0	1	0	0	CorrectCommission	0.915140	0.660337	1	0	2.517647e+01
444.213837	4.931698	break	0	0	0.000000	1.104807	0	0	0	0	ThoughtProbe	0.745312	0.661658	1	25	25
447.346222	1.333056	city	10	1	1.282895	1.282895	0	1	0	0	CorrectCommission	0.145705	0.658950	1	0	2.620000e+01
448.685791	1.346099	city	4	1	1.562492	1.562492	0	1	0	0	CorrectCommission	1.544598	0.653536	1	0	2.740000e+01
450.032013	1.346340	mountain	1	0	0.000000	1.373495	1	0	0	0	CorrectOmission	0.599001	0.646845	1	0	2.860000e+01
451.358246	1.306101	city	2	1	1.127017	1.127017	0	1	0	0	CorrectCommission	0.634190	0.640411	1	0	2.980000e+01
452.704376	1.386178	city	5	1	1.234170	1.234170	0	1	0	0	CorrectCommission	0.098075	0.635694	1	0	31
454.050537	1.306180	city	7	1	1.084800	1.084800	0	1	0	0	CorrectCommission	0.845412	0.634052	1	0	3.220000e+01
455.370209	1.333143	city	3	1	1.115959	1.115959	0	1	0	0	CorrectCommission	0.689514	0.636591	1	0	3.340000e+01
456.683167	1.292767	city	9	1	1.266890	1.266890	0	1	0	0	CorrectCommission	0.065631	0.644154	1	0	3.460000e+01
458.002655	1.346209	city	2	1	1.114512	1.114512	0	1	0	0	CorrectCommission	0.696753	0.657259	1	0	3.580000e+01
459.362183	1.372876	city	5	1	1.102619	1.102619	0	1	0	0	CorrectCommission	0.756259	0.676047	1	0	37
460.688507	1.279716	mountain	10	0	0.000000	1.304630	1	0	0	0	CorrectOmission	0.254454	0.700322	1	0	3.820000e+01
461.974792	1.292906	city	9	1	1.424943	1.424943	0	1	0	0	CorrectCommission	0.856406	0.729522	1	0	3.940000e+01
463.280975	1.319407	city	3	1	1.167951	1.167951	0	1	0	0	CorrectCommission	0.429385	0.762747	1	0	4.060000e+01
464.600464	1.319567	city	8	1	1.058812	1.058812	0	1	0	0	CorrectCommission	0.975435	0.798815	0	0	4.180000e+01
465.933350	1.346232	city	10	1	0.926947	0.926947	0	1	0	0	CorrectCommission	1.635191	0.836279	0	0	43
467.266235	1.319552	city	9	1	1.208959	1.208959	0	1	0	0	CorrectCommission	0.224216	0.873503	0	0	4.420000e+01
468.579132	1.306246	city	7	1	1.344625	1.344625	0	1	0	0	CorrectCommission	0.454555	0.908741	0	0	4.540000e+01
469.898773	1.333034	city	4	1	1.606201	1.606201	0	1	0	0	CorrectCommission	1.763290	0.940184	0	0	4.660000e+01
471.231659	1.332747	city	9	1	1.305498	1.305498	0	1	0	0	CorrectCommission	0.258794	0.966072	0	0	4.780000e+01
472.591156	1.386214	city	8	1	1.074441	1.074441	0	1	0	0	CorrectCommission	0.897243	0.984916	0	0	49
473.964111	1.359717	city	10	1	0.818381	0.818381	0	1	0	0	CorrectCommission	2.178375	0.995524	0	0	5.020000e+01
475.317078	1.346238	city	5	1	1.069755	1.069755	0	1	0	0	CorrectCommission	0.920684	0.997167	0	0	5.140000e+01
476.649994	1.319547	city	8	1	0.902704	0.902704	0	1	0	0	CorrectCommission	1.756483	0.989730	0	0	5.260000e+01
478.002777	1.386052	city	1	1	1.148474	1.148474	0	1	0	0	CorrectCommission	0.526834	0.973604	0	0	5.380000e+01
479.348938	1.306235	city	3	1	0.888520	0.888520	0	1	0	0	CorrectCommission	1.827450	0.949738	0	0	55
480.648499	1.292908	mountain	10	0	0.000000	1.151430	1	0	0	0	CorrectOmission	0.512043	0.919378	0	0	5.620000e+01
481.934784	1.279638	city	3	1	1.430909	1.430909	0	1	0	0	CorrectCommission	0.886258	0.884037	0	0	5.740000e+01
483.274445	1.399696	city	1	1	1.220660	1.220660	0	1	0	0	CorrectCommission	0.165672	0.845200	0	0	5.860000e+01
484.627350	1.306118	city	10	1	1.369755	1.369755	0	1	0	0	CorrectCommission	0.580288	0.804217	0	0	5.980000e+01
485.960205	1.359619	city	4	1	1.604580	1.604580	0	1	0	0	CorrectCommission	1.755180	0.762184	1	0	61
487.333130	1.386234	city	2	1	1.314286	1.314286	0	1	0	0	CorrectCommission	0.302764	0.719853	1	0	6.220000e+01
488.712646	1.372764	city	9	1	1.116121	1.116121	0	1	0	0	CorrectCommission	0.688706	0.677756	1	0	6.340000e+01
490.052124	1.306188	city	8	1	1.242136	1.242136	0	1	0	0	CorrectCommission	0.058223	0.636173	1	0	6.460000e+01
491.371735	1.333042	city	3	1	1.075229	1.075229	0	1	0	0	CorrectCommission	0.893299	0.595224	1	0	6.580000e+01
492.697998	1.319484	city	2	1	0.949506	0.949506	0	1	0	0	CorrectCommission	1.522322	0.554935	1	0	67
494.037537	1.359586	city	6	1	1.183270	1.183270	0	1	0	0	CorrectCommission	0.352741	0.515258	1	0	6.820000e+01
495.370422	1.306197	city	3	1	1.249909	1.249909	0	1	0	0	CorrectCommission	0.019332	0.476157	1	0	6.940000e+01
496.669983	1.292905	city	9	1	1.238573	1.238573	0	1	0	0	CorrectCommission	0.076048	0.437545	1	0	7.060000e+01
497.956177	1.279508	city	8	1	1.282274	1.282274	0	1	0	0	CorrectCommission	0.142599	0.399307	1	0	7.180000e+01
500.622070	4.052296	break	0	0	0.000000	1.325975	0	0	0	0	ThoughtProbe	0.361247	0.361247	1	73	73
